key_resp.keys,key_resp.rt,key_resp_16.keys,key_resp_16.rt,key_resp_2.keys,key_resp_2.rt,X Scale,ratio_pxpermm,screen_size_x,screen_size_y,testsize,key_resp_3.keys,key_resp_4.keys,key_resp_4.rt,line_size,key_resp_5.keys,key_resp_5.rt,key_resp_6.keys,key_resp_6.rt,key_resp_8.keys,key_resp_8.rt,key_resp_7.keys,key_resp_7.rt,key_resp_12.keys,key_resp_12.rt,key_resp_11.keys,key_resp_11.rt,key_resp_18.keys,key_resp_18.rt,key_resp_21.keys,key_resp_21.rt,key_resp_13.keys,key_resp_13.rt,key_resp_19.keys,key_resp_19.rt,ballposx,viewer_distance,trials.thisRepN,trials.thisTrialN,trials.thisN,trials.thisIndex,trials.ran,participant,session,date,expName,psychopyVersion,OS,frameRate,study_id,realFrameRate1,realFrameRate2,realFrameRate3,realFrameRate4,realFrameRate5,realFrameRate,viewerdistancecm,DVA_to_distance,radius_F,radius_P,r_F,R_P,key_resp_20.keys,key_resp_20.rt,key_resp_14.keys,key_resp_14.rt,key_resp_15.keys,key_resp_15.rt,key_resp_17.keys,key_resp_17.rt,key_resp_9.keys,key_resp_9.rt,key_resp_10.keys,key_resp_10.rt,Colour_1,Ecc,maskCon,mask_frames,mouse_5.x,mouse_5.y,mouse_5.leftButton,mouse_5.midButton,mouse_5.rightButton,mouse_5.clicked_name,Colour_2,similarity,response_time,mouse_10.x,mouse_10.y,mouse_10.leftButton,mouse_10.midButton,mouse_10.rightButton,mouse_10.clicked_name,mouse_7.x,mouse_7.y,mouse_7.leftButton,mouse_7.midButton,mouse_7.rightButton,catchnumberprac,mouse_6.x,mouse_6.y,mouse_6.leftButton,mouse_6.midButton,mouse_6.rightButton,duringprac.thisRepN,duringprac.thisTrialN,duringprac.thisN,duringprac.thisIndex,duringprac.ran,mouse_7.clicked_name,catchprac,mouse_6.clicked_name,key_resp_22.keys,key_resp_22.rt,Colour1,maskCon1,mouse.x,mouse.y,mouse.leftButton,mouse.midButton,mouse.rightButton,mouse.clicked_name,Colour2,trialnumber,mouse_2.x,mouse_2.y,mouse_2.leftButton,mouse_2.midButton,mouse_2.rightButton,mouse_2.clicked_name,mouse_3.x,mouse_3.y,mouse_3.leftButton,mouse_3.midButton,mouse_3.rightButton,catchresponse,catchnumber,Catch,response_time_catch,mouse_11.x,mouse_11.y,mouse_11.leftButton,mouse_11.midButton,mouse_11.rightButton,trials_2.thisRepN,trials_2.thisTrialN,trials_2.thisN,trials_2.thisIndex,trials_2.ran,mouse_3.clicked_name,mouse_11.clicked_name,trials_3.thisRepN,trials_3.thisTrialN,trials_3.thisN,trials_3.thisIndex,trials_3.ran,answer1,rt1,answer2,rt2,answer3,rt3,answer4,rt4,answer5,rt5,answer6,rt6,answer7,rt7
space,2.18123,space,3.829455,space,5.04295,40.4,4.04,475.2475248,267.3267327,1920,,space,7.97057,80.8,space,15.818305,space,1.25032,space,0.584975,space,0.83944,space,3.42836,space,4.872155,space,10.100715,space,18.68446,space,7.40666,return,3.37819,132.48,655.2307654,0,0,0,0,1,5b80b3ba16aa4400016a75ef,6036d8afbadcf5791034531c,2021-02-24_15h53.30.534,Colour_Similarity_Experiment,2020.2.10,Win32,60,6036d0d9a84aa1626184a6ef,16.8363,16.80978166,16.66581176,16.68966736,16.66666511,16.70798147,,,,,,,,,,,,,,,,,,,,,,,,,,,,,,,,,,,,,,,,,,,,,,,,,,,,,,,,,,,,,,,,,,,,,,,,,,,,,,,,,,,,,,,,,,,,,,,,,,,,,,,,,,,,,,,,,,
,,,,,,,,,,,,,,,,,,,,,,,,,,,,,,,,,return,3.18118,167.04,619.5988809,1,0,1,0,1,5b80b3ba16aa4400016a75ef,6036d8afbadcf5791034531c,2021-02-24_15h53.30.534,Colour_Similarity_Experiment,2020.2.10,Win32,60,6036d0d9a84aa1626184a6ef,16.8363,16.80978166,16.66581176,16.68966736,16.66666511,16.70798147,,,,,,,,,,,,,,,,,,,,,,,,,,,,,,,,,,,,,,,,,,,,,,,,,,,,,,,,,,,,,,,,,,,,,,,,,,,,,,,,,,,,,,,,,,,,,,,,,,,,,,,,,,,,,,,,,,
,,,,,,,,,,,,,,,,,,,,,,,,,,,,,,,,,return,3.200315,161.28,625.5375283,2,0,2,0,1,5b80b3ba16aa4400016a75ef,6036d8afbadcf5791034531c,2021-02-24_15h53.30.534,Colour_Similarity_Experiment,2020.2.10,Win32,60,6036d0d9a84aa1626184a6ef,16.8363,16.80978166,16.66581176,16.68966736,16.66666511,16.70798147,,,,,,,,,,,,,,,,,,,,,,,,,,,,,,,,,,,,,,,,,,,,,,,,,,,,,,,,,,,,,,,,,,,,,,,,,,,,,,,,,,,,,,,,,,,,,,,,,,,,,,,,,,,,,,,,,,
,,,,,,,,,,,,,,,,,,,,,,,,,,,,,,,,,return,3.22792,158.4,628.506852,3,0,3,0,1,5b80b3ba16aa4400016a75ef,6036d8afbadcf5791034531c,2021-02-24_15h53.30.534,Colour_Similarity_Experiment,2020.2.10,Win32,60,6036d0d9a84aa1626184a6ef,16.8363,16.80978166,16.66581176,16.68966736,16.66666511,16.70798147,,,,,,,,,,,,,,,,,,,,,,,,,,,,,,,,,,,,,,,,,,,,,,,,,,,,,,,,,,,,,,,,,,,,,,,,,,,,,,,,,,,,,,,,,,,,,,,,,,,,,,,,,,,,,,,,,,
,,,,,,,,,,,,,,,,,,,,,,,,,,,,,,,,,return,3.159755,169.92,616.6295572,4,0,4,0,1,5b80b3ba16aa4400016a75ef,6036d8afbadcf5791034531c,2021-02-24_15h53.30.534,Colour_Similarity_Experiment,2020.2.10,Win32,60,6036d0d9a84aa1626184a6ef,16.8363,16.80978166,16.66581176,16.68966736,16.66666511,16.70798147,,,,,,,,,,,,,,,,,,,,,,,,,,,,,,,,,,,,,,,,,,,,,,,,,,,,,,,,,,,,,,,,,,,,,,,,,,,,,,,,,,,,,,,,,,,,,,,,,,,,,,,,,,,,,,,,,,
,,,,,,,,,,,,,,,,,,,,,,,,,,,,,,,,,,,,,,,,,,5b80b3ba16aa4400016a75ef,6036d8afbadcf5791034531c,2021-02-24_15h53.30.534,Colour_Similarity_Experiment,2020.2.10,Win32,60,6036d0d9a84aa1626184a6ef,16.8363,16.80978166,16.66581176,16.68966736,16.66666511,16.70798147,63,10.99668697,66.63992305,444.2661537,44.42661537,199.9197692,space,2.89993,space,27.685025,space,35.708125,space,4.221565,space,0.812465,space,3.69743,4,PF,weak,3,-44,-124,1,0,0,response5disk_5,5,3,12.096115,17,-5,1,0,0,rectangle_8,17,-5,1,0,0,4,17,-5,1,0,0,0,0,0,1,1,,,,,,,,,,,,,,,,,,,,,,,,,,,,,,,,,,,,,,,,,,,,,,,,,,,,,,,,,,,,,
,,,,,,,,,,,,,,,,,,,,,,,,,,,,,,,,,,,,,,,,,,5b80b3ba16aa4400016a75ef,6036d8afbadcf5791034531c,2021-02-24_15h53.30.534,Colour_Similarity_Experiment,2020.2.10,Win32,60,6036d0d9a84aa1626184a6ef,16.8363,16.80978166,16.66581176,16.68966736,16.66666511,16.70798147,,,,,,,,,,,,,,,,,,,7,PF,weak,3,-101,-59,1,0,0,response5disk_5,5,2,5.39701,20,-4,1,0,0,rectangle_8,20,-4,1,0,0,4,20,-4,1,0,0,0,1,1,4,1,,,,,,,,,,,,,,,,,,,,,,,,,,,,,,,,,,,,,,,,,,,,,,,,,,,,,,,,,,,,,
,,,,,,,,,,,,,,,,,,,,,,,,,,,,,,,,,,,,,,,,,,5b80b3ba16aa4400016a75ef,6036d8afbadcf5791034531c,2021-02-24_15h53.30.534,Colour_Similarity_Experiment,2020.2.10,Win32,60,6036d0d9a84aa1626184a6ef,16.8363,16.80978166,16.66581176,16.68966736,16.66666511,16.70798147,,,,,,,,,,,,,,,,,,,3,PF,strong,3,138,-73,1,0,0,response3disk_5,5,5,3.54703,-9,-3,1,0,0,rectangle_8,59,-131,1,0,0,4,15,3,1,0,0,0,2,2,3,1,response3disk_7,4,rectangle_4,,,,,,,,,,,,,,,,,,,,,,,,,,,,,,,,,,,,,,,,,,,,,,,,,,,,,,,,,,
,,,,,,,,,,,,,,,,,,,,,,,,,,,,,,,,,,,,,,,,,,5b80b3ba16aa4400016a75ef,6036d8afbadcf5791034531c,2021-02-24_15h53.30.534,Colour_Similarity_Experiment,2020.2.10,Win32,60,6036d0d9a84aa1626184a6ef,16.8363,16.80978166,16.66581176,16.68966736,16.66666511,16.70798147,,,,,,,,,,,,,,,,,,,4,PF,weak,3,-92,-52,1,0,0,response5disk_5,3,2,2.68022,19,-4,1,0,0,rectangle_8,19,-4,1,0,0,4,19,-4,1,0,0,0,3,3,5,1,,,,,,,,,,,,,,,,,,,,,,,,,,,,,,,,,,,,,,,,,,,,,,,,,,,,,,,,,,,,,
,,,,,,,,,,,,,,,,,,,,,,,,,,,,,,,,,,,,,,,,,,5b80b3ba16aa4400016a75ef,6036d8afbadcf5791034531c,2021-02-24_15h53.30.534,Colour_Similarity_Experiment,2020.2.10,Win32,60,6036d0d9a84aa1626184a6ef,16.8363,16.80978166,16.66581176,16.68966736,16.66666511,16.70798147,,,,,,,,,,,,,,,,,,,3,PF,weak,3,-50,-143,1,0,0,response5disk_5,3,3,2.063585,16,-4,1,0,0,rectangle_8,16,-4,1,0,0,4,16,-4,1,0,0,0,4,4,6,1,,,,,,,,,,,,,,,,,,,,,,,,,,,,,,,,,,,,,,,,,,,,,,,,,,,,,,,,,,,,,
,,,,,,,,,,,,,,,,,,,,,,,,,,,,,,,,,,,,,,,,,,5b80b3ba16aa4400016a75ef,6036d8afbadcf5791034531c,2021-02-24_15h53.30.534,Colour_Similarity_Experiment,2020.2.10,Win32,60,6036d0d9a84aa1626184a6ef,16.8363,16.80978166,16.66581176,16.68966736,16.66666511,16.70798147,,,,,,,,,,,,,,,,,,,1,PF,strong,3,113,-84,1,0,0,response3disk_5,6,5,2.38026,8,0,1,0,0,rectangle_8,77,-152,1,0,0,4,18,7,1,0,0,0,5,5,2,1,response3disk_7,4,rectangle_4,,,,,,,,,,,,,,,,,,,,,,,,,,,,,,,,,,,,,,,,,,,,,,,,,,,,,,,,,,
,,,,,,,,,,,,,,,,,,,,,,,,,,,,,,,,,,,,,,,,,,5b80b3ba16aa4400016a75ef,6036d8afbadcf5791034531c,2021-02-24_15h53.30.534,Colour_Similarity_Experiment,2020.2.10,Win32,60,6036d0d9a84aa1626184a6ef,16.8363,16.80978166,16.66581176,16.68966736,16.66666511,16.70798147,,,,,,,,,,,,,,,,,,,8,PF,strong,3,45,-136,1,0,0,response3disk_5,3,4,3.146555,25,5,1,0,0,rectangle_8,25,5,1,0,0,4,25,5,1,0,0,0,6,6,0,1,,,,,,,,,,,,,,,,,,,,,,,,,,,,,,,,,,,,,,,,,,,,,,,,,,,,,,,,,,,,,
,,,,,,,,,,,,,,,,,,,,,,,,,,,,,,,,,,,,,,,,,,5b80b3ba16aa4400016a75ef,6036d8afbadcf5791034531c,2021-02-24_15h53.30.534,Colour_Similarity_Experiment,2020.2.10,Win32,60,6036d0d9a84aa1626184a6ef,16.8363,16.80978166,16.66581176,16.68966736,16.66666511,16.70798147,,,,,,,,,,,,,,,,,,,,PF,strong,3,,,,,,,,3,4.465875,,,,,,,,,,,,,,,,,,,,,,,,,,space,3.507285,8,strong,-37,-85,1,0,0,response5disk,2,1,3,-4,1,0,0,rectangle,3,-4,1,0,0,,0,0,0.000955,3,-4,1,0,0,0,0,0,22,1,,,,,,,,,,,,,,,,,,,,,
,,,,,,,,,,,,,,,,,,,,,,,,,,,,,,,,,,,,,,,,,,5b80b3ba16aa4400016a75ef,6036d8afbadcf5791034531c,2021-02-24_15h53.30.534,Colour_Similarity_Experiment,2020.2.10,Win32,60,6036d0d9a84aa1626184a6ef,16.8363,16.80978166,16.66581176,16.68966736,16.66666511,16.70798147,,,,,,,,,,,,,,,,,,,,PF,weak,3,,,,,,,,4,3.049985,,,,,,,,,,,,,,,,,,,,,,,,,,,,6,weak,37,-142,1,0,0,response3disk,1,2,0,-11,1,0,0,rectangle,0,-11,1,0,0,,4,0,0.000635,0,-11,1,0,0,0,1,1,46,1,,,,,,,,,,,,,,,,,,,,,
,,,,,,,,,,,,,,,,,,,,,,,,,,,,,,,,,,,,,,,,,,5b80b3ba16aa4400016a75ef,6036d8afbadcf5791034531c,2021-02-24_15h53.30.534,Colour_Similarity_Experiment,2020.2.10,Win32,60,6036d0d9a84aa1626184a6ef,16.8363,16.80978166,16.66581176,16.68966736,16.66666511,16.70798147,,,,,,,,,,,,,,,,,,,,PF,strong,3,,,,,,,,4,4.50006,,,,,,,,,,,,,,,,,,,,,,,,,,,,1,strong,39,-125,1,0,0,response3disk,1,3,12,-5,1,0,0,rectangle,12,-5,1,0,0,,5,0,0.00057,12,-5,1,0,0,0,2,2,151,1,,,,,,,,,,,,,,,,,,,,,
,,,,,,,,,,,,,,,,,,,,,,,,,,,,,,,,,,,,,,,,,,5b80b3ba16aa4400016a75ef,6036d8afbadcf5791034531c,2021-02-24_15h53.30.534,Colour_Similarity_Experiment,2020.2.10,Win32,60,6036d0d9a84aa1626184a6ef,16.8363,16.80978166,16.66581176,16.68966736,16.66666511,16.70798147,,,,,,,,,,,,,,,,,,,,PF,weak,3,,,,,,,,5,2.916655,,,,,,,,,,,,,,,,,,,,,,,,,,,,4,weak,163,-96,1,0,0,response3disk,5,4,20,-4,1,0,0,rectangle,20,-4,1,0,0,,6,0,0.00056,20,-4,1,0,0,0,3,3,49,1,,,,,,,,,,,,,,,,,,,,,
,,,,,,,,,,,,,,,,,,,,,,,,,,,,,,,,,,,,,,,,,,5b80b3ba16aa4400016a75ef,6036d8afbadcf5791034531c,2021-02-24_15h53.30.534,Colour_Similarity_Experiment,2020.2.10,Win32,60,6036d0d9a84aa1626184a6ef,16.8363,16.80978166,16.66581176,16.68966736,16.66666511,16.70798147,,,,,,,,,,,,,,,,,,,,PF,strong,3,,,,,,,,3,6.233395,,,,,,,,,,,,,,,,,,,,,,,,,,,,3,strong,-47,-138,1,0,0,response5disk,8,5,32,16,1,0,0,rectangle,32,16,1,0,0,,2,0,0.000535,32,16,1,0,0,0,4,4,44,1,,,,,,,,,,,,,,,,,,,,,
,,,,,,,,,,,,,,,,,,,,,,,,,,,,,,,,,,,,,,,,,,5b80b3ba16aa4400016a75ef,6036d8afbadcf5791034531c,2021-02-24_15h53.30.534,Colour_Similarity_Experiment,2020.2.10,Win32,60,6036d0d9a84aa1626184a6ef,16.8363,16.80978166,16.66581176,16.68966736,16.66666511,16.70798147,,,,,,,,,,,,,,,,,,,,PF,strong,3,,,,,,,,5,4.166725,,,,,,,,,,,,,,,,,,,,,,,,,,,,6,strong,142,-70,1,0,0,response3disk,8,6,3,6,1,0,0,rectangle,3,6,1,0,0,,1,0,0.00053,3,6,1,0,0,0,5,5,133,1,,,,,,,,,,,,,,,,,,,,,
,,,,,,,,,,,,,,,,,,,,,,,,,,,,,,,,,,,,,,,,,,5b80b3ba16aa4400016a75ef,6036d8afbadcf5791034531c,2021-02-24_15h53.30.534,Colour_Similarity_Experiment,2020.2.10,Win32,60,6036d0d9a84aa1626184a6ef,16.8363,16.80978166,16.66581176,16.68966736,16.66666511,16.70798147,,,,,,,,,,,,,,,,,,,,PF,strong,3,,,,,,,,4,1.86674,,,,,,,,,,,,,,,,,,,,,,,,,,,,4,strong,91,-148,1,0,0,response3disk,9,7,3,-9,1,0,0,rectangle,3,-9,1,0,0,,5,0,0.00052,3,-9,1,0,0,0,6,6,90,1,,,,,,,,,,,,,,,,,,,,,
,,,,,,,,,,,,,,,,,,,,,,,,,,,,,,,,,,,,,,,,,,5b80b3ba16aa4400016a75ef,6036d8afbadcf5791034531c,2021-02-24_15h53.30.534,Colour_Similarity_Experiment,2020.2.10,Win32,60,6036d0d9a84aa1626184a6ef,16.8363,16.80978166,16.66581176,16.68966736,16.66666511,16.70798147,,,,,,,,,,,,,,,,,,,,PF,weak,3,,,,,,,,6,2.20007,,,,,,,,,,,,,,,,,,,,,,,,,,,,8,weak,121,44,1,0,0,response1disk,5,8,3,1,1,0,0,rectangle,3,1,1,0,0,,1,0,0.00059,3,1,1,0,0,0,7,7,98,1,,,,,,,,,,,,,,,,,,,,,
,,,,,,,,,,,,,,,,,,,,,,,,,,,,,,,,,,,,,,,,,,5b80b3ba16aa4400016a75ef,6036d8afbadcf5791034531c,2021-02-24_15h53.30.534,Colour_Similarity_Experiment,2020.2.10,Win32,60,6036d0d9a84aa1626184a6ef,16.8363,16.80978166,16.66581176,16.68966736,16.66666511,16.70798147,,,,,,,,,,,,,,,,,,,,PF,strong,3,,,,,,,,5,1.866725,,,,,,,,,,,,,,,,,,,,,,,,,,,,1,strong,127,-77,1,0,0,response3disk,5,9,-6,-5,1,0,0,rectangle,-6,-5,1,0,0,,7,0,0.001065,-6,-5,1,0,0,0,8,8,82,1,,,,,,,,,,,,,,,,,,,,,
,,,,,,,,,,,,,,,,,,,,,,,,,,,,,,,,,,,,,,,,,,5b80b3ba16aa4400016a75ef,6036d8afbadcf5791034531c,2021-02-24_15h53.30.534,Colour_Similarity_Experiment,2020.2.10,Win32,60,6036d0d9a84aa1626184a6ef,16.8363,16.80978166,16.66581176,16.68966736,16.66666511,16.70798147,,,,,,,,,,,,,,,,,,,,PF,strong,3,,,,,,,,3,4.36694,,,,,,,,,,,,,,,,,,,,,,,,,,,,2,strong,-49,-88,1,0,0,response5disk,7,10,10,-11,1,0,0,rectangle,10,-11,1,0,0,,5,0,0.00057,10,-11,1,0,0,0,9,9,63,1,,,,,,,,,,,,,,,,,,,,,
,,,,,,,,,,,,,,,,,,,,,,,,,,,,,,,,,,,,,,,,,,5b80b3ba16aa4400016a75ef,6036d8afbadcf5791034531c,2021-02-24_15h53.30.534,Colour_Similarity_Experiment,2020.2.10,Win32,60,6036d0d9a84aa1626184a6ef,16.8363,16.80978166,16.66581176,16.68966736,16.66666511,16.70798147,,,,,,,,,,,,,,,,,,,,PF,weak,3,,,,,,,,2,2.016625,,,,,,,,,,,,,,,,,,,,,,,,,,,,5,weak,-133,-63,1,0,0,response5disk,5,11,20,5,1,0,0,rectangle,20,5,1,0,0,,6,0,0.00057,20,5,1,0,0,0,10,10,94,1,,,,,,,,,,,,,,,,,,,,,
,,,,,,,,,,,,,,,,,,,,,,,,,,,,,,,,,,,,,,,,,,5b80b3ba16aa4400016a75ef,6036d8afbadcf5791034531c,2021-02-24_15h53.30.534,Colour_Similarity_Experiment,2020.2.10,Win32,60,6036d0d9a84aa1626184a6ef,16.8363,16.80978166,16.66581176,16.68966736,16.66666511,16.70798147,,,,,,,,,,,,,,,,,,,,PF,weak,3,,,,,,,,5,1.316625,,,,,,,,,,,,,,,,,,,,,,,,,,,,1,weak,121,-65,1,0,0,response3disk,1,12,3,12,1,0,0,rectangle,53,106,1,0,0,7,7,1,1.89998,14,-19,1,0,0,0,11,11,76,1,response1disk_3,rectangle,,,,,,,,,,,,,,,,,,,
,,,,,,,,,,,,,,,,,,,,,,,,,,,,,,,,,,,,,,,,,,5b80b3ba16aa4400016a75ef,6036d8afbadcf5791034531c,2021-02-24_15h53.30.534,Colour_Similarity_Experiment,2020.2.10,Win32,60,6036d0d9a84aa1626184a6ef,16.8363,16.80978166,16.66581176,16.68966736,16.66666511,16.70798147,,,,,,,,,,,,,,,,,,,,PF,weak,3,,,,,,,,3,2.900065,,,,,,,,,,,,,,,,,,,,,,,,,,,,3,weak,-66,-127,1,0,0,response5disk,3,13,-18,-13,1,0,0,rectangle,-18,-13,1,0,0,7,2,0,0.000535,-18,-13,1,0,0,0,12,12,4,1,,,,,,,,,,,,,,,,,,,,,
,,,,,,,,,,,,,,,,,,,,,,,,,,,,,,,,,,,,,,,,,,5b80b3ba16aa4400016a75ef,6036d8afbadcf5791034531c,2021-02-24_15h53.30.534,Colour_Similarity_Experiment,2020.2.10,Win32,60,6036d0d9a84aa1626184a6ef,16.8363,16.80978166,16.66581176,16.68966736,16.66666511,16.70798147,,,,,,,,,,,,,,,,,,,,PF,weak,3,,,,,,,,2,2.01671,,,,,,,,,,,,,,,,,,,,,,,,,,,,9,weak,-98,-47,1,0,0,response5disk,2,14,-19,3,1,0,0,rectangle,-19,3,1,0,0,7,5,0,0.00053,-19,3,1,0,0,0,13,13,157,1,,,,,,,,,,,,,,,,,,,,,
,,,,,,,,,,,,,,,,,,,,,,,,,,,,,,,,,,,,,,,,,,5b80b3ba16aa4400016a75ef,6036d8afbadcf5791034531c,2021-02-24_15h53.30.534,Colour_Similarity_Experiment,2020.2.10,Win32,60,6036d0d9a84aa1626184a6ef,16.8363,16.80978166,16.66581176,16.68966736,16.66666511,16.70798147,,,,,,,,,,,,,,,,,,,,PF,weak,3,,,,,,,,3,2.700035,,,,,,,,,,,,,,,,,,,,,,,,,,,,6,weak,-61,-111,1,0,0,response5disk,9,15,-4,14,1,0,0,rectangle,-4,14,1,0,0,7,4,0,0.00054,-4,14,1,0,0,0,14,14,45,1,,,,,,,,,,,,,,,,,,,,,
,,,,,,,,,,,,,,,,,,,,,,,,,,,,,,,,,,,,,,,,,,5b80b3ba16aa4400016a75ef,6036d8afbadcf5791034531c,2021-02-24_15h53.30.534,Colour_Similarity_Experiment,2020.2.10,Win32,60,6036d0d9a84aa1626184a6ef,16.8363,16.80978166,16.66581176,16.68966736,16.66666511,16.70798147,,,,,,,,,,,,,,,,,,,,PF,strong,3,,,,,,,,4,10.11685,,,,,,,,,,,,,,,,,,,,,,,,,,,,7,strong,46,-134,1,0,0,response3disk,5,16,-6,-10,1,0,0,rectangle,-6,-10,1,0,0,7,7,0,0.000505,-6,-10,1,0,0,0,15,15,156,1,,,,,,,,,,,,,,,,,,,,,
,,,,,,,,,,,,,,,,,,,,,,,,,,,,,,,,,,,,,,,,,,5b80b3ba16aa4400016a75ef,6036d8afbadcf5791034531c,2021-02-24_15h53.30.534,Colour_Similarity_Experiment,2020.2.10,Win32,60,6036d0d9a84aa1626184a6ef,16.8363,16.80978166,16.66581176,16.68966736,16.66666511,16.70798147,,,,,,,,,,,,,,,,,,,,PF,weak,3,,,,,,,,3,7.46673,,,,,,,,,,,,,,,,,,,,,,,,,,,,1,weak,-36,-130,1,0,0,response5disk,9,17,-8,-13,1,0,0,rectangle,-8,-13,1,0,0,7,6,0,0.0005,-8,-13,1,0,0,0,16,16,15,1,,,,,,,,,,,,,,,,,,,,,
,,,,,,,,,,,,,,,,,,,,,,,,,,,,,,,,,,,,,,,,,,5b80b3ba16aa4400016a75ef,6036d8afbadcf5791034531c,2021-02-24_15h53.30.534,Colour_Similarity_Experiment,2020.2.10,Win32,60,6036d0d9a84aa1626184a6ef,16.8363,16.80978166,16.66581176,16.68966736,16.66666511,16.70798147,,,,,,,,,,,,,,,,,,,,PF,weak,3,,,,,,,,6,2.200045,,,,,,,,,,,,,,,,,,,,,,,,,,,,8,weak,113,46,1,0,0,response1disk,3,18,-37,-14,1,0,0,rectangle,-37,-14,1,0,0,7,5,0,0.00052,-37,-14,1,0,0,0,17,17,71,1,,,,,,,,,,,,,,,,,,,,,
,,,,,,,,,,,,,,,,,,,,,,,,,,,,,,,,,,,,,,,,,,5b80b3ba16aa4400016a75ef,6036d8afbadcf5791034531c,2021-02-24_15h53.30.534,Colour_Similarity_Experiment,2020.2.10,Win32,60,6036d0d9a84aa1626184a6ef,16.8363,16.80978166,16.66581176,16.68966736,16.66666511,16.70798147,,,,,,,,,,,,,,,,,,,,PF,weak,3,,,,,,,,5,2.050075,,,,,,,,,,,,,,,,,,,,,,,,,,,,5,weak,135,-53,1,0,0,response3disk,1,19,6,11,1,0,0,rectangle,-52,-156,1,0,0,3,3,1,1.749775,6,-10,1,0,0,0,18,18,159,1,response5disk_3,rectangle,,,,,,,,,,,,,,,,,,,
,,,,,,,,,,,,,,,,,,,,,,,,,,,,,,,,,,,,,,,,,,5b80b3ba16aa4400016a75ef,6036d8afbadcf5791034531c,2021-02-24_15h53.30.534,Colour_Similarity_Experiment,2020.2.10,Win32,60,6036d0d9a84aa1626184a6ef,16.8363,16.80978166,16.66581176,16.68966736,16.66666511,16.70798147,,,,,,,,,,,,,,,,,,,,PF,weak,3,,,,,,,,0,2.81671,,,,,,,,,,,,,,,,,,,,,,,,,,,,9,weak,-59,96,1,0,0,response7disk,9,20,19,-1,1,0,0,rectangle,19,-1,1,0,0,3,3,0,0.000085,19,-1,1,0,0,0,19,19,106,1,,,,,,,,,,,,,,,,,,,,,
,,,,,,,,,,,,,,,,,,,,,,,,,,,,,,,,,,,,,,,,,,5b80b3ba16aa4400016a75ef,6036d8afbadcf5791034531c,2021-02-24_15h53.30.534,Colour_Similarity_Experiment,2020.2.10,Win32,60,6036d0d9a84aa1626184a6ef,16.8363,16.80978166,16.66581176,16.68966736,16.66666511,16.70798147,,,,,,,,,,,,,,,,,,,,PF,strong,3,,,,,,,,3,2.916665,,,,,,,,,,,,,,,,,,,,,,,,,,,,5,strong,-59,-114,1,0,0,response5disk,8,21,12,-5,1,0,0,rectangle,12,-5,1,0,0,3,7,0,0.00064,12,-5,1,0,0,0,20,20,16,1,,,,,,,,,,,,,,,,,,,,,
,,,,,,,,,,,,,,,,,,,,,,,,,,,,,,,,,,,,,,,,,,5b80b3ba16aa4400016a75ef,6036d8afbadcf5791034531c,2021-02-24_15h53.30.534,Colour_Similarity_Experiment,2020.2.10,Win32,60,6036d0d9a84aa1626184a6ef,16.8363,16.80978166,16.66581176,16.68966736,16.66666511,16.70798147,,,,,,,,,,,,,,,,,,,,PF,weak,3,,,,,,,,4,2.36673,,,,,,,,,,,,,,,,,,,,,,,,,,,,7,weak,38,-131,1,0,0,response3disk,4,22,-3,-11,1,0,0,rectangle,-3,-11,1,0,0,3,5,0,0.00052,-3,-11,1,0,0,0,21,21,43,1,,,,,,,,,,,,,,,,,,,,,
,,,,,,,,,,,,,,,,,,,,,,,,,,,,,,,,,,,,,,,,,,5b80b3ba16aa4400016a75ef,6036d8afbadcf5791034531c,2021-02-24_15h53.30.534,Colour_Similarity_Experiment,2020.2.10,Win32,60,6036d0d9a84aa1626184a6ef,16.8363,16.80978166,16.66581176,16.68966736,16.66666511,16.70798147,,,,,,,,,,,,,,,,,,,,PF,weak,3,,,,,,,,1,3.08342,,,,,,,,,,,,,,,,,,,,,,,,,,,,7,weak,-109,44,1,0,0,response7disk,6,23,25,12,1,0,0,rectangle,25,12,1,0,0,3,7,0,0.0007,25,12,1,0,0,0,22,22,29,1,,,,,,,,,,,,,,,,,,,,,
,,,,,,,,,,,,,,,,,,,,,,,,,,,,,,,,,,,,,,,,,,5b80b3ba16aa4400016a75ef,6036d8afbadcf5791034531c,2021-02-24_15h53.30.534,Colour_Similarity_Experiment,2020.2.10,Win32,60,6036d0d9a84aa1626184a6ef,16.8363,16.80978166,16.66581176,16.68966736,16.66666511,16.70798147,,,,,,,,,,,,,,,,,,,,PF,weak,3,,,,,,,,1,2.61683,,,,,,,,,,,,,,,,,,,,,,,,,,,,7,weak,-81,30,1,0,0,response7disk,7,24,-11,8,1,0,0,rectangle,-11,8,1,0,0,3,0,0,0.000595,-11,8,1,0,0,0,23,23,51,1,,,,,,,,,,,,,,,,,,,,,
,,,,,,,,,,,,,,,,,,,,,,,,,,,,,,,,,,,,,,,,,,5b80b3ba16aa4400016a75ef,6036d8afbadcf5791034531c,2021-02-24_15h53.30.534,Colour_Similarity_Experiment,2020.2.10,Win32,60,6036d0d9a84aa1626184a6ef,16.8363,16.80978166,16.66581176,16.68966736,16.66666511,16.70798147,,,,,,,,,,,,,,,,,,,,PF,strong,3,,,,,,,,5,1.982415,,,,,,,,,,,,,,,,,,,,,,,,,,,,1,strong,100,-86,1,0,0,response3disk,6,25,-8,19,1,0,0,rectangle,-8,19,1,0,0,3,1,0,0.00059,-8,19,1,0,0,0,24,24,58,1,,,,,,,,,,,,,,,,,,,,,
,,,,,,,,,,,,,,,,,,,,,,,,,,,,,,,,,,,,,,,,,,5b80b3ba16aa4400016a75ef,6036d8afbadcf5791034531c,2021-02-24_15h53.30.534,Colour_Similarity_Experiment,2020.2.10,Win32,60,6036d0d9a84aa1626184a6ef,16.8363,16.80978166,16.66581176,16.68966736,16.66666511,16.70798147,,,,,,,,,,,,,,,,,,,,PF,strong,3,,,,,,,,5,5.16674,,,,,,,,,,,,,,,,,,,,,,,,,,,,7,strong,104,-49,1,0,0,response3disk,3,26,32,8,1,0,0,rectangle,32,8,1,0,0,3,5,0,0.000495,32,8,1,0,0,0,25,25,73,1,,,,,,,,,,,,,,,,,,,,,
,,,,,,,,,,,,,,,,,,,,,,,,,,,,,,,,,,,,,,,,,,5b80b3ba16aa4400016a75ef,6036d8afbadcf5791034531c,2021-02-24_15h53.30.534,Colour_Similarity_Experiment,2020.2.10,Win32,60,6036d0d9a84aa1626184a6ef,16.8363,16.80978166,16.66581176,16.68966736,16.66666511,16.70798147,,,,,,,,,,,,,,,,,,,,PF,weak,3,,,,,,,,4,1.716535,,,,,,,,,,,,,,,,,,,,,,,,,,,,8,weak,71,-122,1,0,0,response3disk,1,27,-1,1,1,0,0,rectangle,-1,1,1,0,0,3,2,0,0.0005,-1,1,1,0,0,0,26,26,57,1,,,,,,,,,,,,,,,,,,,,,
,,,,,,,,,,,,,,,,,,,,,,,,,,,,,,,,,,,,,,,,,,5b80b3ba16aa4400016a75ef,6036d8afbadcf5791034531c,2021-02-24_15h53.30.534,Colour_Similarity_Experiment,2020.2.10,Win32,60,6036d0d9a84aa1626184a6ef,16.8363,16.80978166,16.66581176,16.68966736,16.66666511,16.70798147,,,,,,,,,,,,,,,,,,,,PF,strong,3,,,,,,,,3,2.20006,,,,,,,,,,,,,,,,,,,,,,,,,,,,1,strong,-40,-159,1,0,0,response5disk,4,28,2,-16,1,0,0,rectangle,2,-16,1,0,0,3,5,0,0.000535,2,-16,1,0,0,0,27,27,135,1,,,,,,,,,,,,,,,,,,,,,
,,,,,,,,,,,,,,,,,,,,,,,,,,,,,,,,,,,,,,,,,,5b80b3ba16aa4400016a75ef,6036d8afbadcf5791034531c,2021-02-24_15h53.30.534,Colour_Similarity_Experiment,2020.2.10,Win32,60,6036d0d9a84aa1626184a6ef,16.8363,16.80978166,16.66581176,16.68966736,16.66666511,16.70798147,,,,,,,,,,,,,,,,,,,,PF,strong,3,,,,,,,,6,1.783335,,,,,,,,,,,,,,,,,,,,,,,,,,,,6,strong,143,44,1,0,0,response1disk,6,29,-2,6,1,0,0,rectangle,-2,6,1,0,0,3,4,0,0.00054,-2,6,1,0,0,0,28,28,91,1,,,,,,,,,,,,,,,,,,,,,
,,,,,,,,,,,,,,,,,,,,,,,,,,,,,,,,,,,,,,,,,,5b80b3ba16aa4400016a75ef,6036d8afbadcf5791034531c,2021-02-24_15h53.30.534,Colour_Similarity_Experiment,2020.2.10,Win32,60,6036d0d9a84aa1626184a6ef,16.8363,16.80978166,16.66581176,16.68966736,16.66666511,16.70798147,,,,,,,,,,,,,,,,,,,,PF,strong,3,,,,,,,,2,2.3,,,,,,,,,,,,,,,,,,,,,,,,,,,,4,strong,-69,-43,1,0,0,response5disk,5,30,-1,19,1,0,0,rectangle,-1,19,1,0,0,3,7,0,0.000545,-1,19,1,0,0,0,29,29,116,1,,,,,,,,,,,,,,,,,,,,,
,,,,,,,,,,,,,,,,,,,,,,,,,,,,,,,,,,,,,,,,,,5b80b3ba16aa4400016a75ef,6036d8afbadcf5791034531c,2021-02-24_15h53.30.534,Colour_Similarity_Experiment,2020.2.10,Win32,60,6036d0d9a84aa1626184a6ef,16.8363,16.80978166,16.66581176,16.68966736,16.66666511,16.70798147,,,,,,,,,,,,,,,,,,,,PF,weak,3,,,,,,,,1,1.96673,,,,,,,,,,,,,,,,,,,,,,,,,,,,7,weak,-76,36,1,0,0,response7disk,5,31,13,3,1,0,0,rectangle,13,3,1,0,0,3,0,0,0.000515,13,3,1,0,0,0,30,30,92,1,,,,,,,,,,,,,,,,,,,,,
,,,,,,,,,,,,,,,,,,,,,,,,,,,,,,,,,,,,,,,,,,5b80b3ba16aa4400016a75ef,6036d8afbadcf5791034531c,2021-02-24_15h53.30.534,Colour_Similarity_Experiment,2020.2.10,Win32,60,6036d0d9a84aa1626184a6ef,16.8363,16.80978166,16.66581176,16.68966736,16.66666511,16.70798147,,,,,,,,,,,,,,,,,,,,PF,strong,3,,,,,,,,4,1.900045,,,,,,,,,,,,,,,,,,,,,,,,,,,,5,strong,34,-111,1,0,0,response3disk,9,32,-16,15,1,0,0,rectangle,-16,15,1,0,0,3,3,0,0.0005,-16,15,1,0,0,0,31,31,61,1,,,,,,,,,,,,,,,,,,,,,
,,,,,,,,,,,,,,,,,,,,,,,,,,,,,,,,,,,,,,,,,,5b80b3ba16aa4400016a75ef,6036d8afbadcf5791034531c,2021-02-24_15h53.30.534,Colour_Similarity_Experiment,2020.2.10,Win32,60,6036d0d9a84aa1626184a6ef,16.8363,16.80978166,16.66581176,16.68966736,16.66666511,16.70798147,,,,,,,,,,,,,,,,,,,,PF,weak,3,,,,,,,,2,1.333375,,,,,,,,,,,,,,,,,,,,,,,,,,,,6,weak,-109,-65,1,0,0,response5disk,7,33,30,4,1,0,0,rectangle,30,4,1,0,0,3,2,0,0.00055,30,4,1,0,0,0,32,32,50,1,,,,,,,,,,,,,,,,,,,,,
,,,,,,,,,,,,,,,,,,,,,,,,,,,,,,,,,,,,,,,,,,5b80b3ba16aa4400016a75ef,6036d8afbadcf5791034531c,2021-02-24_15h53.30.534,Colour_Similarity_Experiment,2020.2.10,Win32,60,6036d0d9a84aa1626184a6ef,16.8363,16.80978166,16.66581176,16.68966736,16.66666511,16.70798147,,,,,,,,,,,,,,,,,,,,PF,weak,3,,,,,,,,6,1.44999,,,,,,,,,,,,,,,,,,,,,,,,,,,,7,weak,84,42,1,0,0,response1disk,2,34,2,8,1,0,0,rectangle,2,8,1,0,0,3,3,0,0.0005,2,8,1,0,0,0,33,33,32,1,,,,,,,,,,,,,,,,,,,,,
,,,,,,,,,,,,,,,,,,,,,,,,,,,,,,,,,,,,,,,,,,5b80b3ba16aa4400016a75ef,6036d8afbadcf5791034531c,2021-02-24_15h53.30.534,Colour_Similarity_Experiment,2020.2.10,Win32,60,6036d0d9a84aa1626184a6ef,16.8363,16.80978166,16.66581176,16.68966736,16.66666511,16.70798147,,,,,,,,,,,,,,,,,,,,PF,weak,3,,,,,,,,5,1.86667,,,,,,,,,,,,,,,,,,,,,,,,,,,,2,weak,140,-43,1,0,0,response3disk,6,35,27,11,1,0,0,rectangle,27,11,1,0,0,3,1,0,0.0005,27,11,1,0,0,0,34,34,113,1,,,,,,,,,,,,,,,,,,,,,
,,,,,,,,,,,,,,,,,,,,,,,,,,,,,,,,,,,,,,,,,,5b80b3ba16aa4400016a75ef,6036d8afbadcf5791034531c,2021-02-24_15h53.30.534,Colour_Similarity_Experiment,2020.2.10,Win32,60,6036d0d9a84aa1626184a6ef,16.8363,16.80978166,16.66581176,16.68966736,16.66666511,16.70798147,,,,,,,,,,,,,,,,,,,,PF,weak,3,,,,,,,,1,1.966695,,,,,,,,,,,,,,,,,,,,,,,,,,,,2,weak,-120,40,1,0,0,response7disk,2,36,-10,5,1,0,0,rectangle,-10,5,1,0,0,3,6,0,0.000485,-10,5,1,0,0,0,35,35,14,1,,,,,,,,,,,,,,,,,,,,,
,,,,,,,,,,,,,,,,,,,,,,,,,,,,,,,,,,,,,,,,,,5b80b3ba16aa4400016a75ef,6036d8afbadcf5791034531c,2021-02-24_15h53.30.534,Colour_Similarity_Experiment,2020.2.10,Win32,60,6036d0d9a84aa1626184a6ef,16.8363,16.80978166,16.66581176,16.68966736,16.66666511,16.70798147,,,,,,,,,,,,,,,,,,,,PF,weak,3,,,,,,,,1,2.10002,,,,,,,,,,,,,,,,,,,,,,,,,,,,5,weak,-106,37,1,0,0,response7disk,6,37,12,-17,1,0,0,rectangle,12,-17,1,0,0,3,0,0,0.00052,12,-17,1,0,0,0,36,36,103,1,,,,,,,,,,,,,,,,,,,,,
,,,,,,,,,,,,,,,,,,,,,,,,,,,,,,,,,,,,,,,,,,5b80b3ba16aa4400016a75ef,6036d8afbadcf5791034531c,2021-02-24_15h53.30.534,Colour_Similarity_Experiment,2020.2.10,Win32,60,6036d0d9a84aa1626184a6ef,16.8363,16.80978166,16.66581176,16.68966736,16.66666511,16.70798147,,,,,,,,,,,,,,,,,,,,PF,strong,3,,,,,,,,4,1.916665,,,,,,,,,,,,,,,,,,,,,,,,,,,,1,strong,50,-134,1,0,0,response3disk,8,38,-24,4,1,0,0,rectangle,-24,4,1,0,0,3,0,0,0.000075,-24,4,1,0,0,0,37,37,27,1,,,,,,,,,,,,,,,,,,,,,
,,,,,,,,,,,,,,,,,,,,,,,,,,,,,,,,,,,,,,,,,,5b80b3ba16aa4400016a75ef,6036d8afbadcf5791034531c,2021-02-24_15h53.30.534,Colour_Similarity_Experiment,2020.2.10,Win32,60,6036d0d9a84aa1626184a6ef,16.8363,16.80978166,16.66581176,16.68966736,16.66666511,16.70798147,,,,,,,,,,,,,,,,,,,,PF,strong,3,,,,,,,,5,3.600145,,,,,,,,,,,,,,,,,,,,,,,,,,,,6,strong,114,-54,1,0,0,response3disk,9,39,4,-4,1,0,0,rectangle,91,45,1,0,0,6,6,1,1.56652,-3,-5,1,0,0,0,38,38,160,1,response1disk_3,rectangle,,,,,,,,,,,,,,,,,,,
,,,,,,,,,,,,,,,,,,,,,,,,,,,,,,,,,,,,,,,,,,5b80b3ba16aa4400016a75ef,6036d8afbadcf5791034531c,2021-02-24_15h53.30.534,Colour_Similarity_Experiment,2020.2.10,Win32,60,6036d0d9a84aa1626184a6ef,16.8363,16.80978166,16.66581176,16.68966736,16.66666511,16.70798147,,,,,,,,,,,,,,,,,,,,PF,weak,3,,,,,,,,4,2.383375,,,,,,,,,,,,,,,,,,,,,,,,,,,,6,weak,56,-116,1,0,0,response3disk,8,40,0,8,1,0,0,rectangle,0,8,1,0,0,6,6,0,0.0001,0,8,1,0,0,0,39,39,64,1,,,,,,,,,,,,,,,,,,,,,
,,,,,,,,,,,,,,,,,,,,,,,,,,,,,,,,,,,,,,,,,,5b80b3ba16aa4400016a75ef,6036d8afbadcf5791034531c,2021-02-24_15h53.30.534,Colour_Similarity_Experiment,2020.2.10,Win32,60,6036d0d9a84aa1626184a6ef,16.8363,16.80978166,16.66581176,16.68966736,16.66666511,16.70798147,,,,,,,,,,,,,,,,,,,,PF,weak,3,,,,,,,,6,2.700075,,,,,,,,,,,,,,,,,,,,,,,,,,,,8,weak,85,73,1,0,0,response1disk,4,41,-6,-9,1,0,0,rectangle,-6,-9,1,0,0,6,1,0,0.000595,-6,-9,1,0,0,0,40,40,78,1,,,,,,,,,,,,,,,,,,,,,
,,,,,,,,,,,,,,,,,,,,,,,,,,,,,,,,,,,,,,,,,,5b80b3ba16aa4400016a75ef,6036d8afbadcf5791034531c,2021-02-24_15h53.30.534,Colour_Similarity_Experiment,2020.2.10,Win32,60,6036d0d9a84aa1626184a6ef,16.8363,16.80978166,16.66581176,16.68966736,16.66666511,16.70798147,,,,,,,,,,,,,,,,,,,,PF,weak,3,,,,,,,,2,1.68331,,,,,,,,,,,,,,,,,,,,,,,,,,,,5,weak,-67,-42,1,0,0,response5disk,7,42,13,-13,1,0,0,rectangle,13,-13,1,0,0,6,0,0,0.00055,13,-13,1,0,0,0,41,41,146,1,,,,,,,,,,,,,,,,,,,,,
,,,,,,,,,,,,,,,,,,,,,,,,,,,,,,,,,,,,,,,,,,5b80b3ba16aa4400016a75ef,6036d8afbadcf5791034531c,2021-02-24_15h53.30.534,Colour_Similarity_Experiment,2020.2.10,Win32,60,6036d0d9a84aa1626184a6ef,16.8363,16.80978166,16.66581176,16.68966736,16.66666511,16.70798147,,,,,,,,,,,,,,,,,,,,PF,weak,3,,,,,,,,6,2.183465,,,,,,,,,,,,,,,,,,,,,,,,,,,,3,weak,140,42,1,0,0,response1disk,6,43,9,-7,1,0,0,rectangle,9,-7,1,0,0,6,1,0,0.000615,9,-7,1,0,0,0,42,42,47,1,,,,,,,,,,,,,,,,,,,,,
,,,,,,,,,,,,,,,,,,,,,,,,,,,,,,,,,,,,,,,,,,5b80b3ba16aa4400016a75ef,6036d8afbadcf5791034531c,2021-02-24_15h53.30.534,Colour_Similarity_Experiment,2020.2.10,Win32,60,6036d0d9a84aa1626184a6ef,16.8363,16.80978166,16.66581176,16.68966736,16.66666511,16.70798147,,,,,,,,,,,,,,,,,,,,PF,strong,3,,,,,,,,3,2.16672,,,,,,,,,,,,,,,,,,,,,,,,,,,,4,strong,-52,-112,1,0,0,response5disk,7,44,19,-12,1,0,0,rectangle,19,-12,1,0,0,6,1,0,0.00007,19,-12,1,0,0,0,43,43,87,1,,,,,,,,,,,,,,,,,,,,,
,,,,,,,,,,,,,,,,,,,,,,,,,,,,,,,,,,,,,,,,,,5b80b3ba16aa4400016a75ef,6036d8afbadcf5791034531c,2021-02-24_15h53.30.534,Colour_Similarity_Experiment,2020.2.10,Win32,60,6036d0d9a84aa1626184a6ef,16.8363,16.80978166,16.66581176,16.68966736,16.66666511,16.70798147,,,,,,,,,,,,,,,,,,,,PF,strong,3,,,,,,,,4,3.716805,,,,,,,,,,,,,,,,,,,,,,,,,,,,2,strong,60,-119,1,0,0,response3disk,8,45,-1,1,1,0,0,rectangle,-1,1,1,0,0,6,2,0,0.000515,-1,1,1,0,0,0,44,44,62,1,,,,,,,,,,,,,,,,,,,,,
,,,,,,,,,,,,,,,,,,,,,,,,,,,,,,,,,,,,,,,,,,5b80b3ba16aa4400016a75ef,6036d8afbadcf5791034531c,2021-02-24_15h53.30.534,Colour_Similarity_Experiment,2020.2.10,Win32,60,6036d0d9a84aa1626184a6ef,16.8363,16.80978166,16.66581176,16.68966736,16.66666511,16.70798147,,,,,,,,,,,,,,,,,,,,PF,strong,3,,,,,,,,3,3.73342,,,,,,,,,,,,,,,,,,,,,,,,,,,,8,strong,-41,-90,1,0,0,response5disk,1,46,14,0,1,0,0,rectangle,14,0,1,0,0,6,4,0,0.000495,14,0,1,0,0,0,45,45,20,1,,,,,,,,,,,,,,,,,,,,,
,,,,,,,,,,,,,,,,,,,,,,,,,,,,,,,,,,,,,,,,,,5b80b3ba16aa4400016a75ef,6036d8afbadcf5791034531c,2021-02-24_15h53.30.534,Colour_Similarity_Experiment,2020.2.10,Win32,60,6036d0d9a84aa1626184a6ef,16.8363,16.80978166,16.66581176,16.68966736,16.66666511,16.70798147,,,,,,,,,,,,,,,,,,,,PF,strong,3,,,,,,,,5,2.615495,,,,,,,,,,,,,,,,,,,,,,,,,,,,7,strong,87,-59,1,0,0,response3disk,8,47,-4,8,1,0,0,rectangle,-95,-43,1,0,0,6,2,1,1.866675,18,-6,1,0,0,0,46,46,97,1,response5disk_3,rectangle,,,,,,,,,,,,,,,,,,,
,,,,,,,,,,,,,,,,,,,,,,,,,,,,,,,,,,,,,,,,,,5b80b3ba16aa4400016a75ef,6036d8afbadcf5791034531c,2021-02-24_15h53.30.534,Colour_Similarity_Experiment,2020.2.10,Win32,60,6036d0d9a84aa1626184a6ef,16.8363,16.80978166,16.66581176,16.68966736,16.66666511,16.70798147,,,,,,,,,,,,,,,,,,,,PF,weak,3,,,,,,,,3,1.849965,,,,,,,,,,,,,,,,,,,,,,,,,,,,5,weak,-52,-153,1,0,0,response5disk,8,48,11,-10,1,0,0,rectangle,11,-10,1,0,0,6,0,0,0.000565,11,-10,1,0,0,0,47,47,149,1,,,,,,,,,,,,,,,,,,,,,
,,,,,,,,,,,,,,,,,,,,,,,,,,,,,,,,,,,,,,,,,,5b80b3ba16aa4400016a75ef,6036d8afbadcf5791034531c,2021-02-24_15h53.30.534,Colour_Similarity_Experiment,2020.2.10,Win32,60,6036d0d9a84aa1626184a6ef,16.8363,16.80978166,16.66581176,16.68966736,16.66666511,16.70798147,,,,,,,,,,,,,,,,,,,,PF,strong,3,,,,,,,,4,2.066665,,,,,,,,,,,,,,,,,,,,,,,,,,,,5,strong,31,-96,1,0,0,response3disk,7,49,-7,15,1,0,0,rectangle,-7,15,1,0,0,6,3,0,0.00055,-7,15,1,0,0,0,48,48,7,1,,,,,,,,,,,,,,,,,,,,,
,,,,,,,,,,,,,,,,,,,,,,,,,,,,,,,,,,,,,,,,,,5b80b3ba16aa4400016a75ef,6036d8afbadcf5791034531c,2021-02-24_15h53.30.534,Colour_Similarity_Experiment,2020.2.10,Win32,60,6036d0d9a84aa1626184a6ef,16.8363,16.80978166,16.66581176,16.68966736,16.66666511,16.70798147,,,,,,,,,,,,,,,,,,,,PF,weak,3,,,,,,,,6,2.050065,,,,,,,,,,,,,,,,,,,,,,,,,,,,5,weak,119,32,1,0,0,response1disk,9,50,11,-4,1,0,0,rectangle,43,121,1,0,0,7,7,1,1.18331,7,-7,1,0,0,0,49,49,136,1,response1disk_3,rectangle,,,,,,,,,,,,,,,,,,,
,,,,,,,,,,,,,,,,,,,,,,,,,,,,,,,,,,,,,,,,,,5b80b3ba16aa4400016a75ef,6036d8afbadcf5791034531c,2021-02-24_15h53.30.534,Colour_Similarity_Experiment,2020.2.10,Win32,60,6036d0d9a84aa1626184a6ef,16.8363,16.80978166,16.66581176,16.68966736,16.66666511,16.70798147,,,,,,,,,,,,,,,,,,,,PF,weak,3,,,,,,,,2,2.55009,,,,,,,,,,,,,,,,,,,,,,,,,,,,4,weak,-68,-43,1,0,0,response5disk,7,51,-4,-17,1,0,0,rectangle,-4,-17,1,0,0,7,4,0,0.00055,-4,-17,1,0,0,0,50,50,38,1,,,,,,,,,,,,,,,,,,,,,
,,,,,,,,,,,,,,,,,,,,,,,,,,,,,,,,,,,,,,,,,,5b80b3ba16aa4400016a75ef,6036d8afbadcf5791034531c,2021-02-24_15h53.30.534,Colour_Similarity_Experiment,2020.2.10,Win32,60,6036d0d9a84aa1626184a6ef,16.8363,16.80978166,16.66581176,16.68966736,16.66666511,16.70798147,,,,,,,,,,,,,,,,,,,,PF,strong,3,,,,,,,,3,1.53334,,,,,,,,,,,,,,,,,,,,,,,,,,,,9,strong,-27,-105,1,0,0,response5disk,5,52,23,-20,1,0,0,rectangle,23,-20,1,0,0,7,0,0,0.0005,23,-20,1,0,0,0,51,51,128,1,,,,,,,,,,,,,,,,,,,,,
,,,,,,,,,,,,,,,,,,,,,,,,,,,,,,,,,,,,,,,,,,5b80b3ba16aa4400016a75ef,6036d8afbadcf5791034531c,2021-02-24_15h53.30.534,Colour_Similarity_Experiment,2020.2.10,Win32,60,6036d0d9a84aa1626184a6ef,16.8363,16.80978166,16.66581176,16.68966736,16.66666511,16.70798147,,,,,,,,,,,,,,,,,,,,PF,weak,3,,,,,,,,1,2.983405,,,,,,,,,,,,,,,,,,,,,,,,,,,,5,weak,-105,37,1,0,0,response7disk,3,53,17,-19,1,0,0,rectangle,17,-19,1,0,0,7,4,0,0.0006,17,-19,1,0,0,0,52,52,109,1,,,,,,,,,,,,,,,,,,,,,
,,,,,,,,,,,,,,,,,,,,,,,,,,,,,,,,,,,,,,,,,,5b80b3ba16aa4400016a75ef,6036d8afbadcf5791034531c,2021-02-24_15h53.30.534,Colour_Similarity_Experiment,2020.2.10,Win32,60,6036d0d9a84aa1626184a6ef,16.8363,16.80978166,16.66581176,16.68966736,16.66666511,16.70798147,,,,,,,,,,,,,,,,,,,,PF,weak,3,,,,,,,,5,2.583345,,,,,,,,,,,,,,,,,,,,,,,,,,,,4,weak,78,-45,1,0,0,response3disk,2,54,-12,4,1,0,0,rectangle,-12,4,1,0,0,7,4,0,0.000105,-12,4,1,0,0,0,53,53,108,1,,,,,,,,,,,,,,,,,,,,,
,,,,,,,,,,,,,,,,,,,,,,,,,,,,,,,,,,,,,,,,,,5b80b3ba16aa4400016a75ef,6036d8afbadcf5791034531c,2021-02-24_15h53.30.534,Colour_Similarity_Experiment,2020.2.10,Win32,60,6036d0d9a84aa1626184a6ef,16.8363,16.80978166,16.66581176,16.68966736,16.66666511,16.70798147,,,,,,,,,,,,,,,,,,,,PF,strong,3,,,,,,,,1,1.91685,,,,,,,,,,,,,,,,,,,,,,,,,,,,4,strong,-109,78,1,0,0,response7disk,4,55,7,-6,1,0,0,rectangle,7,-6,1,0,0,7,4,0,0.00008,7,-6,1,0,0,0,54,54,84,1,,,,,,,,,,,,,,,,,,,,,
,,,,,,,,,,,,,,,,,,,,,,,,,,,,,,,,,,,,,,,,,,5b80b3ba16aa4400016a75ef,6036d8afbadcf5791034531c,2021-02-24_15h53.30.534,Colour_Similarity_Experiment,2020.2.10,Win32,60,6036d0d9a84aa1626184a6ef,16.8363,16.80978166,16.66581176,16.68966736,16.66666511,16.70798147,,,,,,,,,,,,,,,,,,,,PF,strong,3,,,,,,,,4,1.933295,,,,,,,,,,,,,,,,,,,,,,,,,,,,9,strong,59,-135,1,0,0,response3disk,7,56,-19,-2,1,0,0,rectangle,-19,-2,1,0,0,7,1,0,0.000505,-19,-2,1,0,0,0,55,55,100,1,,,,,,,,,,,,,,,,,,,,,
,,,,,,,,,,,,,,,,,,,,,,,,,,,,,,,,,,,,,,,,,,5b80b3ba16aa4400016a75ef,6036d8afbadcf5791034531c,2021-02-24_15h53.30.534,Colour_Similarity_Experiment,2020.2.10,Win32,60,6036d0d9a84aa1626184a6ef,16.8363,16.80978166,16.66581176,16.68966736,16.66666511,16.70798147,,,,,,,,,,,,,,,,,,,,PF,weak,3,,,,,,,,7,2.200015,,,,,,,,,,,,,,,,,,,,,,,,,,,,6,weak,81,94,1,0,0,response1disk,2,57,13,-8,1,0,0,rectangle,13,-8,1,0,0,7,2,0,0.000535,13,-8,1,0,0,0,56,56,130,1,,,,,,,,,,,,,,,,,,,,,
,,,,,,,,,,,,,,,,,,,,,,,,,,,,,,,,,,,,,,,,,,5b80b3ba16aa4400016a75ef,6036d8afbadcf5791034531c,2021-02-24_15h53.30.534,Colour_Similarity_Experiment,2020.2.10,Win32,60,6036d0d9a84aa1626184a6ef,16.8363,16.80978166,16.66581176,16.68966736,16.66666511,16.70798147,,,,,,,,,,,,,,,,,,,,PF,strong,3,,,,,,,,2,2.283405,,,,,,,,,,,,,,,,,,,,,,,,,,,,3,strong,-104,-62,1,0,0,response5disk,3,58,9,10,1,0,0,rectangle,9,10,1,0,0,7,4,0,0.00053,9,10,1,0,0,0,57,57,68,1,,,,,,,,,,,,,,,,,,,,,
,,,,,,,,,,,,,,,,,,,,,,,,,,,,,,,,,,,,,,,,,,5b80b3ba16aa4400016a75ef,6036d8afbadcf5791034531c,2021-02-24_15h53.30.534,Colour_Similarity_Experiment,2020.2.10,Win32,60,6036d0d9a84aa1626184a6ef,16.8363,16.80978166,16.66581176,16.68966736,16.66666511,16.70798147,,,,,,,,,,,,,,,,,,,,PF,weak,3,,,,,,,,3,2.09987,,,,,,,,,,,,,,,,,,,,,,,,,,,,3,weak,-56,-90,1,0,0,response5disk,5,59,-2,2,1,0,0,rectangle,-2,2,1,0,0,7,1,0,0.000495,-2,2,1,0,0,0,58,58,66,1,,,,,,,,,,,,,,,,,,,,,
,,,,,,,,,,,,,,,,,,,,,,,,,,,,,,,,,,,,,,,,,,5b80b3ba16aa4400016a75ef,6036d8afbadcf5791034531c,2021-02-24_15h53.30.534,Colour_Similarity_Experiment,2020.2.10,Win32,60,6036d0d9a84aa1626184a6ef,16.8363,16.80978166,16.66581176,16.68966736,16.66666511,16.70798147,,,,,,,,,,,,,,,,,,,,PF,strong,3,,,,,,,,4,6.61677,,,,,,,,,,,,,,,,,,,,,,,,,,,,8,strong,54,-125,1,0,0,response3disk,4,60,33,-10,1,0,0,rectangle,33,-10,1,0,0,7,2,0,0.00057,33,-10,1,0,0,0,59,59,88,1,,,,,,,,,,,,,,,,,,,,,
,,,,,,,,,,,,,,,,,,,,,,,,,,,,,,,,,,,,,,,,,,5b80b3ba16aa4400016a75ef,6036d8afbadcf5791034531c,2021-02-24_15h53.30.534,Colour_Similarity_Experiment,2020.2.10,Win32,60,6036d0d9a84aa1626184a6ef,16.8363,16.80978166,16.66581176,16.68966736,16.66666511,16.70798147,,,,,,,,,,,,,,,,,,,,PF,weak,3,,,,,,,,6,2.133455,,,,,,,,,,,,,,,,,,,,,,,,,,,,9,weak,152,53,1,0,0,response1disk,1,61,3,5,1,0,0,rectangle,3,5,1,0,0,7,7,0,0.000495,3,5,1,0,0,0,60,60,74,1,,,,,,,,,,,,,,,,,,,,,
,,,,,,,,,,,,,,,,,,,,,,,,,,,,,,,,,,,,,,,,,,5b80b3ba16aa4400016a75ef,6036d8afbadcf5791034531c,2021-02-24_15h53.30.534,Colour_Similarity_Experiment,2020.2.10,Win32,60,6036d0d9a84aa1626184a6ef,16.8363,16.80978166,16.66581176,16.68966736,16.66666511,16.70798147,,,,,,,,,,,,,,,,,,,,PF,strong,3,,,,,,,,5,3.68336,,,,,,,,,,,,,,,,,,,,,,,,,,,,3,strong,137,-79,1,0,0,response3disk,5,62,-28,8,1,0,0,rectangle,-28,8,1,0,0,7,3,0,0.000995,-28,8,1,0,0,0,61,61,101,1,,,,,,,,,,,,,,,,,,,,,
,,,,,,,,,,,,,,,,,,,,,,,,,,,,,,,,,,,,,,,,,,5b80b3ba16aa4400016a75ef,6036d8afbadcf5791034531c,2021-02-24_15h53.30.534,Colour_Similarity_Experiment,2020.2.10,Win32,60,6036d0d9a84aa1626184a6ef,16.8363,16.80978166,16.66581176,16.68966736,16.66666511,16.70798147,,,,,,,,,,,,,,,,,,,,PF,strong,3,,,,,,,,6,1.36677,,,,,,,,,,,,,,,,,,,,,,,,,,,,3,strong,108,39,1,0,0,response1disk,6,63,19,-1,1,0,0,rectangle,19,-1,1,0,0,7,7,0,0.0005,19,-1,1,0,0,0,62,62,95,1,,,,,,,,,,,,,,,,,,,,,
,,,,,,,,,,,,,,,,,,,,,,,,,,,,,,,,,,,,,,,,,,5b80b3ba16aa4400016a75ef,6036d8afbadcf5791034531c,2021-02-24_15h53.30.534,Colour_Similarity_Experiment,2020.2.10,Win32,60,6036d0d9a84aa1626184a6ef,16.8363,16.80978166,16.66581176,16.68966736,16.66666511,16.70798147,,,,,,,,,,,,,,,,,,,,PF,strong,3,,,,,,,,2,1.44998,,,,,,,,,,,,,,,,,,,,,,,,,,,,6,strong,-110,-50,1,0,0,response5disk,5,64,11,6,1,0,0,rectangle,11,6,1,0,0,7,1,0,0.0005,11,6,1,0,0,0,63,63,126,1,,,,,,,,,,,,,,,,,,,,,
,,,,,,,,,,,,,,,,,,,,,,,,,,,,,,,,,,,,,,,,,,5b80b3ba16aa4400016a75ef,6036d8afbadcf5791034531c,2021-02-24_15h53.30.534,Colour_Similarity_Experiment,2020.2.10,Win32,60,6036d0d9a84aa1626184a6ef,16.8363,16.80978166,16.66581176,16.68966736,16.66666511,16.70798147,,,,,,,,,,,,,,,,,,,,PF,weak,3,,,,,,,,7,1.78312,,,,,,,,,,,,,,,,,,,,,,,,,,,,1,weak,48,112,1,0,0,response1disk,7,65,-6,-4,1,0,0,rectangle,-6,-4,1,0,0,7,6,0,0.0005,-6,-4,1,0,0,0,64,64,150,1,,,,,,,,,,,,,,,,,,,,,
,,,,,,,,,,,,,,,,,,,,,,,,,,,,,,,,,,,,,,,,,,5b80b3ba16aa4400016a75ef,6036d8afbadcf5791034531c,2021-02-24_15h53.30.534,Colour_Similarity_Experiment,2020.2.10,Win32,60,6036d0d9a84aa1626184a6ef,16.8363,16.80978166,16.66581176,16.68966736,16.66666511,16.70798147,,,,,,,,,,,,,,,,,,,,PF,weak,3,,,,,,,,5,2.76667,,,,,,,,,,,,,,,,,,,,,,,,,,,,9,weak,124,-42,1,0,0,response3disk,6,66,16,-20,1,0,0,rectangle,16,-20,1,0,0,7,4,0,0.000505,16,-20,1,0,0,0,65,65,148,1,,,,,,,,,,,,,,,,,,,,,
,,,,,,,,,,,,,,,,,,,,,,,,,,,,,,,,,,,,,,,,,,5b80b3ba16aa4400016a75ef,6036d8afbadcf5791034531c,2021-02-24_15h53.30.534,Colour_Similarity_Experiment,2020.2.10,Win32,60,6036d0d9a84aa1626184a6ef,16.8363,16.80978166,16.66581176,16.68966736,16.66666511,16.70798147,,,,,,,,,,,,,,,,,,,,PF,weak,3,,,,,,,,5,6.58337,,,,,,,,,,,,,,,,,,,,,,,,,,,,3,weak,130,-71,1,0,0,response3disk,1,67,12,-7,1,0,0,rectangle,12,-7,1,0,0,7,7,0,0.00052,12,-7,1,0,0,0,66,66,96,1,,,,,,,,,,,,,,,,,,,,,
,,,,,,,,,,,,,,,,,,,,,,,,,,,,,,,,,,,,,,,,,,5b80b3ba16aa4400016a75ef,6036d8afbadcf5791034531c,2021-02-24_15h53.30.534,Colour_Similarity_Experiment,2020.2.10,Win32,60,6036d0d9a84aa1626184a6ef,16.8363,16.80978166,16.66581176,16.68966736,16.66666511,16.70798147,,,,,,,,,,,,,,,,,,,,PF,strong,3,,,,,,,,3,2.66669,,,,,,,,,,,,,,,,,,,,,,,,,,,,7,strong,-50,-88,1,0,0,response5disk,7,68,20,7,1,0,0,rectangle,20,7,1,0,0,7,0,0,0.000485,20,7,1,0,0,0,67,67,34,1,,,,,,,,,,,,,,,,,,,,,
,,,,,,,,,,,,,,,,,,,,,,,,,,,,,,,,,,,,,,,,,,5b80b3ba16aa4400016a75ef,6036d8afbadcf5791034531c,2021-02-24_15h53.30.534,Colour_Similarity_Experiment,2020.2.10,Win32,60,6036d0d9a84aa1626184a6ef,16.8363,16.80978166,16.66581176,16.68966736,16.66666511,16.70798147,,,,,,,,,,,,,,,,,,,,PF,strong,3,,,,,,,,4,1.583325,,,,,,,,,,,,,,,,,,,,,,,,,,,,9,strong,51,-103,1,0,0,response3disk,6,69,6,6,1,0,0,rectangle,6,6,1,0,0,7,3,0,0.000495,6,6,1,0,0,0,68,68,117,1,,,,,,,,,,,,,,,,,,,,,
,,,,,,,,,,,,,,,,,,,,,,,,,,,,,,,,,,,,,,,,,,5b80b3ba16aa4400016a75ef,6036d8afbadcf5791034531c,2021-02-24_15h53.30.534,Colour_Similarity_Experiment,2020.2.10,Win32,60,6036d0d9a84aa1626184a6ef,16.8363,16.80978166,16.66581176,16.68966736,16.66666511,16.70798147,,,,,,,,,,,,,,,,,,,,PF,weak,3,,,,,,,,6,1.56671,,,,,,,,,,,,,,,,,,,,,,,,,,,,8,weak,92,39,1,0,0,response1disk,2,70,13,8,1,0,0,rectangle,13,8,1,0,0,7,4,0,0.00052,13,8,1,0,0,0,69,69,83,1,,,,,,,,,,,,,,,,,,,,,
,,,,,,,,,,,,,,,,,,,,,,,,,,,,,,,,,,,,,,,,,,5b80b3ba16aa4400016a75ef,6036d8afbadcf5791034531c,2021-02-24_15h53.30.534,Colour_Similarity_Experiment,2020.2.10,Win32,60,6036d0d9a84aa1626184a6ef,16.8363,16.80978166,16.66581176,16.68966736,16.66666511,16.70798147,,,,,,,,,,,,,,,,,,,,PF,weak,3,,,,,,,,4,4.58336,,,,,,,,,,,,,,,,,,,,,,,,,,,,4,weak,37,-111,1,0,0,response3disk,6,71,-5,2,1,0,0,rectangle,-5,2,1,0,0,7,6,0,0.00051,-5,2,1,0,0,0,70,70,120,1,,,,,,,,,,,,,,,,,,,,,
,,,,,,,,,,,,,,,,,,,,,,,,,,,,,,,,,,,,,,,,,,5b80b3ba16aa4400016a75ef,6036d8afbadcf5791034531c,2021-02-24_15h53.30.534,Colour_Similarity_Experiment,2020.2.10,Win32,60,6036d0d9a84aa1626184a6ef,16.8363,16.80978166,16.66581176,16.68966736,16.66666511,16.70798147,,,,,,,,,,,,,,,,,,,,PF,weak,3,,,,,,,,3,16.75025,,,,,,,,,,,,,,,,,,,,,,,,,,,,9,weak,-43,-100,1,0,0,response5disk,3,72,-8,-7,1,0,0,rectangle,-8,-7,1,0,0,7,7,0,0.000495,-8,-7,1,0,0,0,71,71,119,1,,,,,,,,,,,,,,,,,,,,,
,,,,,,,,,,,,,,,,,,,,,,,,,,,,,,,,,,,,,,,,,,5b80b3ba16aa4400016a75ef,6036d8afbadcf5791034531c,2021-02-24_15h53.30.534,Colour_Similarity_Experiment,2020.2.10,Win32,60,6036d0d9a84aa1626184a6ef,16.8363,16.80978166,16.66581176,16.68966736,16.66666511,16.70798147,,,,,,,,,,,,,,,,,,,,PF,strong,3,,,,,,,,2,1.85006,,,,,,,,,,,,,,,,,,,,,,,,,,,,2,strong,-108,-39,1,0,0,response5disk,4,73,28,-9,1,0,0,rectangle,28,-9,1,0,0,7,1,0,0.00049,28,-9,1,0,0,0,72,72,145,1,,,,,,,,,,,,,,,,,,,,,
,,,,,,,,,,,,,,,,,,,,,,,,,,,,,,,,,,,,,,,,,,5b80b3ba16aa4400016a75ef,6036d8afbadcf5791034531c,2021-02-24_15h53.30.534,Colour_Similarity_Experiment,2020.2.10,Win32,60,6036d0d9a84aa1626184a6ef,16.8363,16.80978166,16.66581176,16.68966736,16.66666511,16.70798147,,,,,,,,,,,,,,,,,,,,PF,strong,3,,,,,,,,5,1.466695,,,,,,,,,,,,,,,,,,,,,,,,,,,,9,strong,117,-37,1,0,0,response3disk,2,74,-12,-1,1,0,0,rectangle,-133,-65,1,0,0,7,2,1,1.69993,-5,3,1,0,0,0,73,73,11,1,response5disk_3,rectangle,,,,,,,,,,,,,,,,,,,
,,,,,,,,,,,,,,,,,,,,,,,,,,,,,,,,,,,,,,,,,,5b80b3ba16aa4400016a75ef,6036d8afbadcf5791034531c,2021-02-24_15h53.30.534,Colour_Similarity_Experiment,2020.2.10,Win32,60,6036d0d9a84aa1626184a6ef,16.8363,16.80978166,16.66581176,16.68966736,16.66666511,16.70798147,,,,,,,,,,,,,,,,,,,,PF,strong,3,,,,,,,,1,1.70012,,,,,,,,,,,,,,,,,,,,,,,,,,,,2,strong,-110,49,1,0,0,response7disk,3,75,-25,6,1,0,0,rectangle,127,-65,1,0,0,5,5,1,1.6833,13,5,1,0,0,0,74,74,104,1,response3disk_3,rectangle,,,,,,,,,,,,,,,,,,,
,,,,,,,,,,,,,,,,,,,,,,,,,,,,,,,,,,,,,,,,,,5b80b3ba16aa4400016a75ef,6036d8afbadcf5791034531c,2021-02-24_15h53.30.534,Colour_Similarity_Experiment,2020.2.10,Win32,60,6036d0d9a84aa1626184a6ef,16.8363,16.80978166,16.66581176,16.68966736,16.66666511,16.70798147,,,,,,,,,,,,,,,,,,,,PF,weak,3,,,,,,,,1,1.31671,,,,,,,,,,,,,,,,,,,,,,,,,,,,4,weak,-117,50,1,0,0,response7disk,3,76,-11,-8,1,0,0,rectangle,-11,-8,1,0,0,5,1,0,0.000605,-11,-8,1,0,0,0,75,75,89,1,,,,,,,,,,,,,,,,,,,,,
,,,,,,,,,,,,,,,,,,,,,,,,,,,,,,,,,,,,,,,,,,5b80b3ba16aa4400016a75ef,6036d8afbadcf5791034531c,2021-02-24_15h53.30.534,Colour_Similarity_Experiment,2020.2.10,Win32,60,6036d0d9a84aa1626184a6ef,16.8363,16.80978166,16.66581176,16.68966736,16.66666511,16.70798147,,,,,,,,,,,,,,,,,,,,PF,strong,3,,,,,,,,3,2.333315,,,,,,,,,,,,,,,,,,,,,,,,,,,,2,strong,-54,-93,1,0,0,response5disk,1,77,1,0,1,0,0,rectangle,1,0,1,0,0,5,2,0,0.000505,1,0,1,0,0,0,76,76,85,1,,,,,,,,,,,,,,,,,,,,,
,,,,,,,,,,,,,,,,,,,,,,,,,,,,,,,,,,,,,,,,,,5b80b3ba16aa4400016a75ef,6036d8afbadcf5791034531c,2021-02-24_15h53.30.534,Colour_Similarity_Experiment,2020.2.10,Win32,60,6036d0d9a84aa1626184a6ef,16.8363,16.80978166,16.66581176,16.68966736,16.66666511,16.70798147,,,,,,,,,,,,,,,,,,,,PF,weak,3,,,,,,,,1,1.616695,,,,,,,,,,,,,,,,,,,,,,,,,,,,3,weak,-108,49,1,0,0,response7disk,2,78,14,-2,1,0,0,rectangle,-62,143,1,0,0,0,0,1,1.53326,12,-6,1,0,0,0,77,77,36,1,response7disk_3,rectangle,,,,,,,,,,,,,,,,,,,
,,,,,,,,,,,,,,,,,,,,,,,,,,,,,,,,,,,,,,,,,,5b80b3ba16aa4400016a75ef,6036d8afbadcf5791034531c,2021-02-24_15h53.30.534,Colour_Similarity_Experiment,2020.2.10,Win32,60,6036d0d9a84aa1626184a6ef,16.8363,16.80978166,16.66581176,16.68966736,16.66666511,16.70798147,,,,,,,,,,,,,,,,,,,,PF,strong,3,,,,,,,,3,2.46425,,,,,,,,,,,,,,,,,,,,,,,,,,,,3,strong,-56,-129,1,0,0,response5disk,4,79,-9,-2,1,0,0,rectangle,-9,-2,1,0,0,0,6,0,0.00052,-9,-2,1,0,0,0,78,78,110,1,,,,,,,,,,,,,,,,,,,,,
,,,,,,,,,,,,,,,,,,,,,,,,,,,,,,,,,,,,,,,,,,5b80b3ba16aa4400016a75ef,6036d8afbadcf5791034531c,2021-02-24_15h53.30.534,Colour_Similarity_Experiment,2020.2.10,Win32,60,6036d0d9a84aa1626184a6ef,16.8363,16.80978166,16.66581176,16.68966736,16.66666511,16.70798147,,,,,,,,,,,,,,,,,,,,PF,weak,3,,,,,,,,0,1.23333,,,,,,,,,,,,,,,,,,,,,,,,,,,,4,weak,-62,115,1,0,0,response7disk,4,80,8,1,1,0,0,rectangle,8,1,1,0,0,0,5,0,0.00055,8,1,1,0,0,0,79,79,70,1,,,,,,,,,,,,,,,,,,,,,
,,,,,,,,,,,,,,,,,,,,,,,,,,,,,,,,,,,,,,,,,,5b80b3ba16aa4400016a75ef,6036d8afbadcf5791034531c,2021-02-24_15h53.30.534,Colour_Similarity_Experiment,2020.2.10,Win32,60,6036d0d9a84aa1626184a6ef,16.8363,16.80978166,16.66581176,16.68966736,16.66666511,16.70798147,,,,,,,,,,,,,,,,,,,,PF,strong,3,,,,,,,,6,1.60023,,,,,,,,,,,,,,,,,,,,,,,,,,,,8,strong,142,66,1,0,0,response1disk,9,81,-5,-6,1,0,0,rectangle,-5,-6,1,0,0,0,1,0,0.00076,-5,-6,1,0,0,0,80,80,105,1,,,,,,,,,,,,,,,,,,,,,
,,,,,,,,,,,,,,,,,,,,,,,,,,,,,,,,,,,,,,,,,,5b80b3ba16aa4400016a75ef,6036d8afbadcf5791034531c,2021-02-24_15h53.30.534,Colour_Similarity_Experiment,2020.2.10,Win32,60,6036d0d9a84aa1626184a6ef,16.8363,16.80978166,16.66581176,16.68966736,16.66666511,16.70798147,,,,,,,,,,,,,,,,,,,,PF,strong,3,,,,,,,,5,1.883465,,,,,,,,,,,,,,,,,,,,,,,,,,,,1,strong,93,-54,1,0,0,response3disk,7,82,-14,11,1,0,0,rectangle,-14,11,1,0,0,0,3,0,0.000505,-14,11,1,0,0,0,81,81,137,1,,,,,,,,,,,,,,,,,,,,,
,,,,,,,,,,,,,,,,,,,,,,,,,,,,,,,,,,,,,,,,,,5b80b3ba16aa4400016a75ef,6036d8afbadcf5791034531c,2021-02-24_15h53.30.534,Colour_Similarity_Experiment,2020.2.10,Win32,60,6036d0d9a84aa1626184a6ef,16.8363,16.80978166,16.66581176,16.68966736,16.66666511,16.70798147,,,,,,,,,,,,,,,,,,,,PF,strong,3,,,,,,,,6,1.633315,,,,,,,,,,,,,,,,,,,,,,,,,,,,2,strong,118,30,1,0,0,response1disk,5,83,-4,-1,1,0,0,rectangle,-4,-1,1,0,0,0,0,0,0.000515,-4,-1,1,0,0,0,82,82,80,1,,,,,,,,,,,,,,,,,,,,,
,,,,,,,,,,,,,,,,,,,,,,,,,,,,,,,,,,,,,,,,,,5b80b3ba16aa4400016a75ef,6036d8afbadcf5791034531c,2021-02-24_15h53.30.534,Colour_Similarity_Experiment,2020.2.10,Win32,60,6036d0d9a84aa1626184a6ef,16.8363,16.80978166,16.66581176,16.68966736,16.66666511,16.70798147,,,,,,,,,,,,,,,,,,,,PF,weak,3,,,,,,,,3,1.716675,,,,,,,,,,,,,,,,,,,,,,,,,,,,1,weak,-57,-142,1,0,0,response5disk,2,84,12,5,1,0,0,rectangle,12,5,1,0,0,0,5,0,0.000525,12,5,1,0,0,0,83,83,24,1,,,,,,,,,,,,,,,,,,,,,
,,,,,,,,,,,,,,,,,,,,,,,,,,,,,,,,,,,,,,,,,,5b80b3ba16aa4400016a75ef,6036d8afbadcf5791034531c,2021-02-24_15h53.30.534,Colour_Similarity_Experiment,2020.2.10,Win32,60,6036d0d9a84aa1626184a6ef,16.8363,16.80978166,16.66581176,16.68966736,16.66666511,16.70798147,,,,,,,,,,,,,,,,,,,,PF,weak,3,,,,,,,,7,1.516725,,,,,,,,,,,,,,,,,,,,,,,,,,,,2,weak,71,112,1,0,0,response1disk,8,85,9,-10,1,0,0,rectangle,9,-10,1,0,0,0,1,0,0.00049,9,-10,1,0,0,0,84,84,52,1,,,,,,,,,,,,,,,,,,,,,
,,,,,,,,,,,,,,,,,,,,,,,,,,,,,,,,,,,,,,,,,,5b80b3ba16aa4400016a75ef,6036d8afbadcf5791034531c,2021-02-24_15h53.30.534,Colour_Similarity_Experiment,2020.2.10,Win32,60,6036d0d9a84aa1626184a6ef,16.8363,16.80978166,16.66581176,16.68966736,16.66666511,16.70798147,,,,,,,,,,,,,,,,,,,,PF,weak,3,,,,,,,,6,1.233145,,,,,,,,,,,,,,,,,,,,,,,,,,,,4,weak,102,51,1,0,0,response1disk,9,86,-12,-9,1,0,0,rectangle,-12,-9,1,0,0,0,5,0,0.00049,-12,-9,1,0,0,0,85,85,75,1,,,,,,,,,,,,,,,,,,,,,
,,,,,,,,,,,,,,,,,,,,,,,,,,,,,,,,,,,,,,,,,,5b80b3ba16aa4400016a75ef,6036d8afbadcf5791034531c,2021-02-24_15h53.30.534,Colour_Similarity_Experiment,2020.2.10,Win32,60,6036d0d9a84aa1626184a6ef,16.8363,16.80978166,16.66581176,16.68966736,16.66666511,16.70798147,,,,,,,,,,,,,,,,,,,,PF,strong,3,,,,,,,,4,1.88328,,,,,,,,,,,,,,,,,,,,,,,,,,,,2,strong,56,-131,1,0,0,response3disk,2,87,-10,9,1,0,0,rectangle,-10,9,1,0,0,0,1,0,0.00053,-10,9,1,0,0,0,86,86,142,1,,,,,,,,,,,,,,,,,,,,,
,,,,,,,,,,,,,,,,,,,,,,,,,,,,,,,,,,,,,,,,,,5b80b3ba16aa4400016a75ef,6036d8afbadcf5791034531c,2021-02-24_15h53.30.534,Colour_Similarity_Experiment,2020.2.10,Win32,60,6036d0d9a84aa1626184a6ef,16.8363,16.80978166,16.66581176,16.68966736,16.66666511,16.70798147,,,,,,,,,,,,,,,,,,,,PF,strong,3,,,,,,,,3,2.249965,,,,,,,,,,,,,,,,,,,,,,,,,,,,1,strong,-55,-117,1,0,0,response5disk,2,88,8,6,1,0,0,rectangle,8,6,1,0,0,0,2,0,0.0005,8,6,1,0,0,0,87,87,2,1,,,,,,,,,,,,,,,,,,,,,
,,,,,,,,,,,,,,,,,,,,,,,,,,,,,,,,,,,,,,,,,,5b80b3ba16aa4400016a75ef,6036d8afbadcf5791034531c,2021-02-24_15h53.30.534,Colour_Similarity_Experiment,2020.2.10,Win32,60,6036d0d9a84aa1626184a6ef,16.8363,16.80978166,16.66581176,16.68966736,16.66666511,16.70798147,,,,,,,,,,,,,,,,,,,,PF,weak,3,,,,,,,,7,1.28336,,,,,,,,,,,,,,,,,,,,,,,,,,,,1,weak,53,105,1,0,0,response1disk,5,89,-7,1,1,0,0,rectangle,-7,1,1,0,0,0,7,0,0.0005,-7,1,1,0,0,0,88,88,28,1,,,,,,,,,,,,,,,,,,,,,
,,,,,,,,,,,,,,,,,,,,,,,,,,,,,,,,,,,,,,,,,,5b80b3ba16aa4400016a75ef,6036d8afbadcf5791034531c,2021-02-24_15h53.30.534,Colour_Similarity_Experiment,2020.2.10,Win32,60,6036d0d9a84aa1626184a6ef,16.8363,16.80978166,16.66581176,16.68966736,16.66666511,16.70798147,,,,,,,,,,,,,,,,,,,,PF,strong,3,,,,,,,,1,2.54984,,,,,,,,,,,,,,,,,,,,,,,,,,,,4,strong,-75,35,1,0,0,response7disk,6,90,25,-8,1,0,0,rectangle,25,-8,1,0,0,0,5,0,0.00061,25,-8,1,0,0,0,89,89,122,1,,,,,,,,,,,,,,,,,,,,,
,,,,,,,,,,,,,,,,,,,,,,,,,,,,,,,,,,,,,,,,,,5b80b3ba16aa4400016a75ef,6036d8afbadcf5791034531c,2021-02-24_15h53.30.534,Colour_Similarity_Experiment,2020.2.10,Win32,60,6036d0d9a84aa1626184a6ef,16.8363,16.80978166,16.66581176,16.68966736,16.66666511,16.70798147,,,,,,,,,,,,,,,,,,,,PF,weak,3,,,,,,,,6,1.24996,,,,,,,,,,,,,,,,,,,,,,,,,,,,3,weak,107,39,1,0,0,response1disk,8,91,-18,-21,1,0,0,rectangle,-18,-21,1,0,0,0,2,0,0.00052,-18,-21,1,0,0,0,90,90,3,1,,,,,,,,,,,,,,,,,,,,,
,,,,,,,,,,,,,,,,,,,,,,,,,,,,,,,,,,,,,,,,,,5b80b3ba16aa4400016a75ef,6036d8afbadcf5791034531c,2021-02-24_15h53.30.534,Colour_Similarity_Experiment,2020.2.10,Win32,60,6036d0d9a84aa1626184a6ef,16.8363,16.80978166,16.66581176,16.68966736,16.66666511,16.70798147,,,,,,,,,,,,,,,,,,,,PF,weak,3,,,,,,,,5,1.750055,,,,,,,,,,,,,,,,,,,,,,,,,,,,7,weak,137,-70,1,0,0,response3disk,3,92,4,8,1,0,0,rectangle,4,8,1,0,0,0,0,0,0.00052,4,8,1,0,0,0,91,91,81,1,,,,,,,,,,,,,,,,,,,,,
,,,,,,,,,,,,,,,,,,,,,,,,,,,,,,,,,,,,,,,,,,5b80b3ba16aa4400016a75ef,6036d8afbadcf5791034531c,2021-02-24_15h53.30.534,Colour_Similarity_Experiment,2020.2.10,Win32,60,6036d0d9a84aa1626184a6ef,16.8363,16.80978166,16.66581176,16.68966736,16.66666511,16.70798147,,,,,,,,,,,,,,,,,,,,PF,weak,3,,,,,,,,6,1.41673,,,,,,,,,,,,,,,,,,,,,,,,,,,,4,weak,102,38,1,0,0,response1disk,8,93,22,1,1,0,0,rectangle,22,1,1,0,0,0,7,0,0.00051,22,1,1,0,0,0,92,92,124,1,,,,,,,,,,,,,,,,,,,,,
,,,,,,,,,,,,,,,,,,,,,,,,,,,,,,,,,,,,,,,,,,5b80b3ba16aa4400016a75ef,6036d8afbadcf5791034531c,2021-02-24_15h53.30.534,Colour_Similarity_Experiment,2020.2.10,Win32,60,6036d0d9a84aa1626184a6ef,16.8363,16.80978166,16.66581176,16.68966736,16.66666511,16.70798147,,,,,,,,,,,,,,,,,,,,PF,strong,3,,,,,,,,4,1.98342,,,,,,,,,,,,,,,,,,,,,,,,,,,,8,strong,58,-143,1,0,0,response3disk,7,94,-18,-2,1,0,0,rectangle,-18,-2,1,0,0,0,5,0,0.00051,-18,-2,1,0,0,0,93,93,86,1,,,,,,,,,,,,,,,,,,,,,
,,,,,,,,,,,,,,,,,,,,,,,,,,,,,,,,,,,,,,,,,,5b80b3ba16aa4400016a75ef,6036d8afbadcf5791034531c,2021-02-24_15h53.30.534,Colour_Similarity_Experiment,2020.2.10,Win32,60,6036d0d9a84aa1626184a6ef,16.8363,16.80978166,16.66581176,16.68966736,16.66666511,16.70798147,,,,,,,,,,,,,,,,,,,,PF,strong,3,,,,,,,,3,1.86673,,,,,,,,,,,,,,,,,,,,,,,,,,,,8,strong,-55,-138,1,0,0,response5disk,8,95,4,-15,1,0,0,rectangle,4,-15,1,0,0,0,3,0,0.00051,4,-15,1,0,0,0,94,94,48,1,,,,,,,,,,,,,,,,,,,,,
,,,,,,,,,,,,,,,,,,,,,,,,,,,,,,,,,,,,,,,,,,5b80b3ba16aa4400016a75ef,6036d8afbadcf5791034531c,2021-02-24_15h53.30.534,Colour_Similarity_Experiment,2020.2.10,Win32,60,6036d0d9a84aa1626184a6ef,16.8363,16.80978166,16.66581176,16.68966736,16.66666511,16.70798147,,,,,,,,,,,,,,,,,,,,PF,strong,3,,,,,,,,5,2.533485,,,,,,,,,,,,,,,,,,,,,,,,,,,,6,strong,104,-93,1,0,0,response3disk,3,96,-2,-19,1,0,0,rectangle,-2,-19,1,0,0,0,0,0,0.00051,-2,-19,1,0,0,0,95,95,21,1,,,,,,,,,,,,,,,,,,,,,
,,,,,,,,,,,,,,,,,,,,,,,,,,,,,,,,,,,,,,,,,,5b80b3ba16aa4400016a75ef,6036d8afbadcf5791034531c,2021-02-24_15h53.30.534,Colour_Similarity_Experiment,2020.2.10,Win32,60,6036d0d9a84aa1626184a6ef,16.8363,16.80978166,16.66581176,16.68966736,16.66666511,16.70798147,,,,,,,,,,,,,,,,,,,,PF,weak,3,,,,,,,,4,4.23335,,,,,,,,,,,,,,,,,,,,,,,,,,,,9,weak,56,-149,1,0,0,response3disk,5,97,-4,3,1,0,0,rectangle,-4,3,1,0,0,0,2,0,0.00049,-4,3,1,0,0,0,96,96,134,1,,,,,,,,,,,,,,,,,,,,,
,,,,,,,,,,,,,,,,,,,,,,,,,,,,,,,,,,,,,,,,,,5b80b3ba16aa4400016a75ef,6036d8afbadcf5791034531c,2021-02-24_15h53.30.534,Colour_Similarity_Experiment,2020.2.10,Win32,60,6036d0d9a84aa1626184a6ef,16.8363,16.80978166,16.66581176,16.68966736,16.66666511,16.70798147,,,,,,,,,,,,,,,,,,,,PF,weak,3,,,,,,,,2,2.68341,,,,,,,,,,,,,,,,,,,,,,,,,,,,3,weak,-111,-67,1,0,0,response5disk,4,98,5,4,1,0,0,rectangle,5,4,1,0,0,0,1,0,0.00051,5,4,1,0,0,0,97,97,30,1,,,,,,,,,,,,,,,,,,,,,
,,,,,,,,,,,,,,,,,,,,,,,,,,,,,,,,,,,,,,,,,,5b80b3ba16aa4400016a75ef,6036d8afbadcf5791034531c,2021-02-24_15h53.30.534,Colour_Similarity_Experiment,2020.2.10,Win32,60,6036d0d9a84aa1626184a6ef,16.8363,16.80978166,16.66581176,16.68966736,16.66666511,16.70798147,,,,,,,,,,,,,,,,,,,,PF,weak,3,,,,,,,,6,2.083325,,,,,,,,,,,,,,,,,,,,,,,,,,,,2,weak,144,38,1,0,0,response1disk,5,99,-7,-5,1,0,0,rectangle,-7,-5,1,0,0,0,2,0,0.000515,-7,-5,1,0,0,0,98,98,147,1,,,,,,,,,,,,,,,,,,,,,
,,,,,,,,,,,,,,,,,,,,,,,,,,,,,,,,,,,,,,,,,,5b80b3ba16aa4400016a75ef,6036d8afbadcf5791034531c,2021-02-24_15h53.30.534,Colour_Similarity_Experiment,2020.2.10,Win32,60,6036d0d9a84aa1626184a6ef,16.8363,16.80978166,16.66581176,16.68966736,16.66666511,16.70798147,,,,,,,,,,,,,,,,,,,,PF,weak,3,,,,,,,,3,2.016615,,,,,,,,,,,,,,,,,,,,,,,,,,,,7,weak,-41,-82,1,0,0,response5disk,9,100,-11,-13,1,0,0,rectangle,-11,-13,1,0,0,0,3,0,0.000615,-11,-13,1,0,0,0,99,99,10,1,,,,,,,,,,,,,,,,,,,,,
,,,,,,,,,,,,,,,,,,,,,,,,,,,,,,,,,,,,,,,,,,5b80b3ba16aa4400016a75ef,6036d8afbadcf5791034531c,2021-02-24_15h53.30.534,Colour_Similarity_Experiment,2020.2.10,Win32,60,6036d0d9a84aa1626184a6ef,16.8363,16.80978166,16.66581176,16.68966736,16.66666511,16.70798147,,,,,,,,,,,,,,,,,,,,PF,weak,3,,,,,,,,1,1.799995,,,,,,,,,,,,,,,,,,,,,,,,,,,,5,weak,-119,28,1,0,0,response7disk,4,101,5,-2,1,0,0,rectangle,5,-2,1,0,0,0,5,0,0.0005,5,-2,1,0,0,0,100,100,54,1,,,,,,,,,,,,,,,,,,,,,
,,,,,,,,,,,,,,,,,,,,,,,,,,,,,,,,,,,,,,,,,,5b80b3ba16aa4400016a75ef,6036d8afbadcf5791034531c,2021-02-24_15h53.30.534,Colour_Similarity_Experiment,2020.2.10,Win32,60,6036d0d9a84aa1626184a6ef,16.8363,16.80978166,16.66581176,16.68966736,16.66666511,16.70798147,,,,,,,,,,,,,,,,,,,,PF,weak,3,,,,,,,,4,12.90023,,,,,,,,,,,,,,,,,,,,,,,,,,,,1,weak,62,-104,1,0,0,response3disk,3,102,5,-7,1,0,0,rectangle,5,-7,1,0,0,0,3,0,0.00048,5,-7,1,0,0,0,101,101,1,1,,,,,,,,,,,,,,,,,,,,,
,,,,,,,,,,,,,,,,,,,,,,,,,,,,,,,,,,,,,,,,,,5b80b3ba16aa4400016a75ef,6036d8afbadcf5791034531c,2021-02-24_15h53.30.534,Colour_Similarity_Experiment,2020.2.10,Win32,60,6036d0d9a84aa1626184a6ef,16.8363,16.80978166,16.66581176,16.68966736,16.66666511,16.70798147,,,,,,,,,,,,,,,,,,,,PF,strong,3,,,,,,,,5,2.78336,,,,,,,,,,,,,,,,,,,,,,,,,,,,9,strong,85,-43,1,0,0,response3disk,4,103,-15,10,1,0,0,rectangle,-15,10,1,0,0,0,2,0,0.0005,-15,10,1,0,0,0,102,102,60,1,,,,,,,,,,,,,,,,,,,,,
,,,,,,,,,,,,,,,,,,,,,,,,,,,,,,,,,,,,,,,,,,5b80b3ba16aa4400016a75ef,6036d8afbadcf5791034531c,2021-02-24_15h53.30.534,Colour_Similarity_Experiment,2020.2.10,Win32,60,6036d0d9a84aa1626184a6ef,16.8363,16.80978166,16.66581176,16.68966736,16.66666511,16.70798147,,,,,,,,,,,,,,,,,,,,PF,strong,3,,,,,,,,1,1.816515,,,,,,,,,,,,,,,,,,,,,,,,,,,,7,strong,-75,49,1,0,0,response7disk,6,104,26,-7,1,0,0,rectangle,26,-7,1,0,0,0,4,0,0.001115,26,-7,1,0,0,0,103,103,31,1,,,,,,,,,,,,,,,,,,,,,
,,,,,,,,,,,,,,,,,,,,,,,,,,,,,,,,,,,,,,,,,,5b80b3ba16aa4400016a75ef,6036d8afbadcf5791034531c,2021-02-24_15h53.30.534,Colour_Similarity_Experiment,2020.2.10,Win32,60,6036d0d9a84aa1626184a6ef,16.8363,16.80978166,16.66581176,16.68966736,16.66666511,16.70798147,,,,,,,,,,,,,,,,,,,,PF,strong,3,,,,,,,,1,2.333355,,,,,,,,,,,,,,,,,,,,,,,,,,,,6,strong,-95,48,1,0,0,response7disk,7,105,-16,-8,1,0,0,rectangle,-16,-8,1,0,0,0,1,0,0.000485,-16,-8,1,0,0,0,104,104,18,1,,,,,,,,,,,,,,,,,,,,,
,,,,,,,,,,,,,,,,,,,,,,,,,,,,,,,,,,,,,,,,,,5b80b3ba16aa4400016a75ef,6036d8afbadcf5791034531c,2021-02-24_15h53.30.534,Colour_Similarity_Experiment,2020.2.10,Win32,60,6036d0d9a84aa1626184a6ef,16.8363,16.80978166,16.66581176,16.68966736,16.66666511,16.70798147,,,,,,,,,,,,,,,,,,,,PF,weak,3,,,,,,,,7,1.75005,,,,,,,,,,,,,,,,,,,,,,,,,,,,1,weak,64,83,1,0,0,response1disk,4,106,-5,5,1,0,0,rectangle,-5,5,1,0,0,0,5,0,0.00047,-5,5,1,0,0,0,105,105,139,1,,,,,,,,,,,,,,,,,,,,,
,,,,,,,,,,,,,,,,,,,,,,,,,,,,,,,,,,,,,,,,,,5b80b3ba16aa4400016a75ef,6036d8afbadcf5791034531c,2021-02-24_15h53.30.534,Colour_Similarity_Experiment,2020.2.10,Win32,60,6036d0d9a84aa1626184a6ef,16.8363,16.80978166,16.66581176,16.68966736,16.66666511,16.70798147,,,,,,,,,,,,,,,,,,,,PF,strong,3,,,,,,,,4,1.43343,,,,,,,,,,,,,,,,,,,,,,,,,,,,3,strong,43,-117,1,0,0,response3disk,7,107,0,1,1,0,0,rectangle,0,1,1,0,0,0,5,0,0.00009,0,1,1,0,0,0,106,106,118,1,,,,,,,,,,,,,,,,,,,,,
,,,,,,,,,,,,,,,,,,,,,,,,,,,,,,,,,,,,,,,,,,5b80b3ba16aa4400016a75ef,6036d8afbadcf5791034531c,2021-02-24_15h53.30.534,Colour_Similarity_Experiment,2020.2.10,Win32,60,6036d0d9a84aa1626184a6ef,16.8363,16.80978166,16.66581176,16.68966736,16.66666511,16.70798147,,,,,,,,,,,,,,,,,,,,PF,strong,3,,,,,,,,2,1.750015,,,,,,,,,,,,,,,,,,,,,,,,,,,,4,strong,-106,-38,1,0,0,response5disk,3,108,-16,1,1,0,0,rectangle,-16,1,1,0,0,0,5,0,0.000095,-16,1,1,0,0,0,107,107,77,1,,,,,,,,,,,,,,,,,,,,,
,,,,,,,,,,,,,,,,,,,,,,,,,,,,,,,,,,,,,,,,,,5b80b3ba16aa4400016a75ef,6036d8afbadcf5791034531c,2021-02-24_15h53.30.534,Colour_Similarity_Experiment,2020.2.10,Win32,60,6036d0d9a84aa1626184a6ef,16.8363,16.80978166,16.66581176,16.68966736,16.66666511,16.70798147,,,,,,,,,,,,,,,,,,,,PF,strong,3,,,,,,,,4,2.00021,,,,,,,,,,,,,,,,,,,,,,,,,,,,8,strong,73,-111,1,0,0,response3disk,6,109,23,-5,1,0,0,rectangle,23,-5,1,0,0,0,5,0,0.000095,23,-5,1,0,0,0,108,108,37,1,,,,,,,,,,,,,,,,,,,,,
,,,,,,,,,,,,,,,,,,,,,,,,,,,,,,,,,,,,,,,,,,5b80b3ba16aa4400016a75ef,6036d8afbadcf5791034531c,2021-02-24_15h53.30.534,Colour_Similarity_Experiment,2020.2.10,Win32,60,6036d0d9a84aa1626184a6ef,16.8363,16.80978166,16.66581176,16.68966736,16.66666511,16.70798147,,,,,,,,,,,,,,,,,,,,PF,strong,3,,,,,,,,1,1.53341,,,,,,,,,,,,,,,,,,,,,,,,,,,,3,strong,-106,53,1,0,0,response7disk,2,110,-11,-10,1,0,0,rectangle,-11,-10,1,0,0,0,0,0,0.000505,-11,-10,1,0,0,0,109,109,93,1,,,,,,,,,,,,,,,,,,,,,
,,,,,,,,,,,,,,,,,,,,,,,,,,,,,,,,,,,,,,,,,,5b80b3ba16aa4400016a75ef,6036d8afbadcf5791034531c,2021-02-24_15h53.30.534,Colour_Similarity_Experiment,2020.2.10,Win32,60,6036d0d9a84aa1626184a6ef,16.8363,16.80978166,16.66581176,16.68966736,16.66666511,16.70798147,,,,,,,,,,,,,,,,,,,,PF,strong,3,,,,,,,,6,1.60002,,,,,,,,,,,,,,,,,,,,,,,,,,,,4,strong,119,80,1,0,0,response1disk,8,111,22,2,1,0,0,rectangle,22,2,1,0,0,0,5,0,0.0005,22,2,1,0,0,0,110,110,35,1,,,,,,,,,,,,,,,,,,,,,
,,,,,,,,,,,,,,,,,,,,,,,,,,,,,,,,,,,,,,,,,,5b80b3ba16aa4400016a75ef,6036d8afbadcf5791034531c,2021-02-24_15h53.30.534,Colour_Similarity_Experiment,2020.2.10,Win32,60,6036d0d9a84aa1626184a6ef,16.8363,16.80978166,16.66581176,16.68966736,16.66666511,16.70798147,,,,,,,,,,,,,,,,,,,,PF,strong,3,,,,,,,,4,1.883375,,,,,,,,,,,,,,,,,,,,,,,,,,,,1,strong,38,-91,1,0,0,response3disk,9,112,-13,6,1,0,0,rectangle,-13,6,1,0,0,0,5,0,0.0001,-13,6,1,0,0,0,111,111,123,1,,,,,,,,,,,,,,,,,,,,,
,,,,,,,,,,,,,,,,,,,,,,,,,,,,,,,,,,,,,,,,,,5b80b3ba16aa4400016a75ef,6036d8afbadcf5791034531c,2021-02-24_15h53.30.534,Colour_Similarity_Experiment,2020.2.10,Win32,60,6036d0d9a84aa1626184a6ef,16.8363,16.80978166,16.66581176,16.68966736,16.66666511,16.70798147,,,,,,,,,,,,,,,,,,,,PF,weak,3,,,,,,,,0,1.00005,,,,,,,,,,,,,,,,,,,,,,,,,,,,6,weak,-36,105,1,0,0,response7disk,6,113,15,-10,1,0,0,rectangle,15,-10,1,0,0,0,1,0,0.000525,15,-10,1,0,0,0,112,112,0,1,,,,,,,,,,,,,,,,,,,,,
,,,,,,,,,,,,,,,,,,,,,,,,,,,,,,,,,,,,,,,,,,5b80b3ba16aa4400016a75ef,6036d8afbadcf5791034531c,2021-02-24_15h53.30.534,Colour_Similarity_Experiment,2020.2.10,Win32,60,6036d0d9a84aa1626184a6ef,16.8363,16.80978166,16.66581176,16.68966736,16.66666511,16.70798147,,,,,,,,,,,,,,,,,,,,PF,weak,3,,,,,,,,7,1.39998,,,,,,,,,,,,,,,,,,,,,,,,,,,,7,weak,45,99,1,0,0,response1disk,1,114,-7,-2,1,0,0,rectangle,-7,-2,1,0,0,0,3,0,0.000485,-7,-2,1,0,0,0,113,113,53,1,,,,,,,,,,,,,,,,,,,,,
,,,,,,,,,,,,,,,,,,,,,,,,,,,,,,,,,,,,,,,,,,5b80b3ba16aa4400016a75ef,6036d8afbadcf5791034531c,2021-02-24_15h53.30.534,Colour_Similarity_Experiment,2020.2.10,Win32,60,6036d0d9a84aa1626184a6ef,16.8363,16.80978166,16.66581176,16.68966736,16.66666511,16.70798147,,,,,,,,,,,,,,,,,,,,PF,strong,3,,,,,,,,6,1.483395,,,,,,,,,,,,,,,,,,,,,,,,,,,,7,strong,153,50,1,0,0,response1disk,9,115,-6,-2,1,0,0,rectangle,-6,-2,1,0,0,0,6,0,0.00048,-6,-2,1,0,0,0,114,114,155,1,,,,,,,,,,,,,,,,,,,,,
,,,,,,,,,,,,,,,,,,,,,,,,,,,,,,,,,,,,,,,,,,5b80b3ba16aa4400016a75ef,6036d8afbadcf5791034531c,2021-02-24_15h53.30.534,Colour_Similarity_Experiment,2020.2.10,Win32,60,6036d0d9a84aa1626184a6ef,16.8363,16.80978166,16.66581176,16.68966736,16.66666511,16.70798147,,,,,,,,,,,,,,,,,,,,PF,weak,3,,,,,,,,4,1.516715,,,,,,,,,,,,,,,,,,,,,,,,,,,,8,weak,25,-108,1,0,0,response3disk,6,116,-9,-5,1,0,0,rectangle,-97,40,1,0,0,1,1,1,1.283315,-16,4,1,0,0,0,115,115,161,1,response7disk_3,rectangle,,,,,,,,,,,,,,,,,,,
,,,,,,,,,,,,,,,,,,,,,,,,,,,,,,,,,,,,,,,,,,5b80b3ba16aa4400016a75ef,6036d8afbadcf5791034531c,2021-02-24_15h53.30.534,Colour_Similarity_Experiment,2020.2.10,Win32,60,6036d0d9a84aa1626184a6ef,16.8363,16.80978166,16.66581176,16.68966736,16.66666511,16.70798147,,,,,,,,,,,,,,,,,,,,PF,strong,3,,,,,,,,4,4.40008,,,,,,,,,,,,,,,,,,,,,,,,,,,,5,strong,35,-111,1,0,0,response3disk,5,117,-26,-5,1,0,0,rectangle,-26,-5,1,0,0,1,1,0,0.00007,-26,-5,1,0,0,0,116,116,19,1,,,,,,,,,,,,,,,,,,,,,
,,,,,,,,,,,,,,,,,,,,,,,,,,,,,,,,,,,,,,,,,,5b80b3ba16aa4400016a75ef,6036d8afbadcf5791034531c,2021-02-24_15h53.30.534,Colour_Similarity_Experiment,2020.2.10,Win32,60,6036d0d9a84aa1626184a6ef,16.8363,16.80978166,16.66581176,16.68966736,16.66666511,16.70798147,,,,,,,,,,,,,,,,,,,,PF,strong,3,,,,,,,,6,1.766695,,,,,,,,,,,,,,,,,,,,,,,,,,,,2,strong,90,35,1,0,0,response1disk,9,118,-2,-13,1,0,0,rectangle,-2,-13,1,0,0,1,5,0,0.00049,-2,-13,1,0,0,0,117,117,72,1,,,,,,,,,,,,,,,,,,,,,
,,,,,,,,,,,,,,,,,,,,,,,,,,,,,,,,,,,,,,,,,,5b80b3ba16aa4400016a75ef,6036d8afbadcf5791034531c,2021-02-24_15h53.30.534,Colour_Similarity_Experiment,2020.2.10,Win32,60,6036d0d9a84aa1626184a6ef,16.8363,16.80978166,16.66581176,16.68966736,16.66666511,16.70798147,,,,,,,,,,,,,,,,,,,,PF,strong,3,,,,,,,,7,1.40004,,,,,,,,,,,,,,,,,,,,,,,,,,,,1,strong,30,75,1,0,0,response1disk,3,119,8,11,1,0,0,rectangle,8,11,1,0,0,1,4,0,0.000495,8,11,1,0,0,0,118,118,99,1,,,,,,,,,,,,,,,,,,,,,
,,,,,,,,,,,,,,,,,,,,,,,,,,,,,,,,,,,,,,,,,,5b80b3ba16aa4400016a75ef,6036d8afbadcf5791034531c,2021-02-24_15h53.30.534,Colour_Similarity_Experiment,2020.2.10,Win32,60,6036d0d9a84aa1626184a6ef,16.8363,16.80978166,16.66581176,16.68966736,16.66666511,16.70798147,,,,,,,,,,,,,,,,,,,,PF,weak,3,,,,,,,,2,2.13337,,,,,,,,,,,,,,,,,,,,,,,,,,,,6,weak,-88,-53,1,0,0,response5disk,4,120,7,-14,1,0,0,rectangle,7,-14,1,0,0,1,4,0,0.000095,7,-14,1,0,0,0,119,119,33,1,,,,,,,,,,,,,,,,,,,,,
,,,,,,,,,,,,,,,,,,,,,,,,,,,,,,,,,,,,,,,,,,5b80b3ba16aa4400016a75ef,6036d8afbadcf5791034531c,2021-02-24_15h53.30.534,Colour_Similarity_Experiment,2020.2.10,Win32,60,6036d0d9a84aa1626184a6ef,16.8363,16.80978166,16.66581176,16.68966736,16.66666511,16.70798147,,,,,,,,,,,,,,,,,,,,PF,strong,3,,,,,,,,4,4.097935,,,,,,,,,,,,,,,,,,,,,,,,,,,,5,strong,45,-131,1,0,0,response3disk,2,121,-26,11,1,0,0,rectangle,86,41,1,0,0,6,6,1,1.249785,23,-4,1,0,0,0,120,120,55,1,response1disk_3,rectangle,,,,,,,,,,,,,,,,,,,
,,,,,,,,,,,,,,,,,,,,,,,,,,,,,,,,,,,,,,,,,,5b80b3ba16aa4400016a75ef,6036d8afbadcf5791034531c,2021-02-24_15h53.30.534,Colour_Similarity_Experiment,2020.2.10,Win32,60,6036d0d9a84aa1626184a6ef,16.8363,16.80978166,16.66581176,16.68966736,16.66666511,16.70798147,,,,,,,,,,,,,,,,,,,,PF,weak,3,,,,,,,,6,2.00018,,,,,,,,,,,,,,,,,,,,,,,,,,,,2,weak,108,32,1,0,0,response1disk,9,122,-1,-1,1,0,0,rectangle,-1,-1,1,0,0,6,1,0,0.00062,-1,-1,1,0,0,0,121,121,39,1,,,,,,,,,,,,,,,,,,,,,
,,,,,,,,,,,,,,,,,,,,,,,,,,,,,,,,,,,,,,,,,,5b80b3ba16aa4400016a75ef,6036d8afbadcf5791034531c,2021-02-24_15h53.30.534,Colour_Similarity_Experiment,2020.2.10,Win32,60,6036d0d9a84aa1626184a6ef,16.8363,16.80978166,16.66581176,16.68966736,16.66666511,16.70798147,,,,,,,,,,,,,,,,,,,,PF,strong,3,,,,,,,,0,2.28337,,,,,,,,,,,,,,,,,,,,,,,,,,,,9,strong,-58,88,1,0,0,response7disk,9,123,-2,0,1,0,0,rectangle,-2,0,1,0,0,6,4,0,0.000485,-2,0,1,0,0,0,122,122,17,1,,,,,,,,,,,,,,,,,,,,,
,,,,,,,,,,,,,,,,,,,,,,,,,,,,,,,,,,,,,,,,,,5b80b3ba16aa4400016a75ef,6036d8afbadcf5791034531c,2021-02-24_15h53.30.534,Colour_Similarity_Experiment,2020.2.10,Win32,60,6036d0d9a84aa1626184a6ef,16.8363,16.80978166,16.66581176,16.68966736,16.66666511,16.70798147,,,,,,,,,,,,,,,,,,,,PF,weak,3,,,,,,,,7,1.233355,,,,,,,,,,,,,,,,,,,,,,,,,,,,1,weak,70,120,1,0,0,response1disk,6,124,1,-8,1,0,0,rectangle,1,-8,1,0,0,6,2,0,0.000485,1,-8,1,0,0,0,123,123,144,1,,,,,,,,,,,,,,,,,,,,,
,,,,,,,,,,,,,,,,,,,,,,,,,,,,,,,,,,,,,,,,,,5b80b3ba16aa4400016a75ef,6036d8afbadcf5791034531c,2021-02-24_15h53.30.534,Colour_Similarity_Experiment,2020.2.10,Win32,60,6036d0d9a84aa1626184a6ef,16.8363,16.80978166,16.66581176,16.68966736,16.66666511,16.70798147,,,,,,,,,,,,,,,,,,,,PF,weak,3,,,,,,,,5,2.26668,,,,,,,,,,,,,,,,,,,,,,,,,,,,5,weak,135,-90,1,0,0,response3disk,2,125,6,1,1,0,0,rectangle,6,1,1,0,0,6,2,0,0.000075,6,1,1,0,0,0,124,124,129,1,,,,,,,,,,,,,,,,,,,,,
,,,,,,,,,,,,,,,,,,,,,,,,,,,,,,,,,,,,,,,,,,5b80b3ba16aa4400016a75ef,6036d8afbadcf5791034531c,2021-02-24_15h53.30.534,Colour_Similarity_Experiment,2020.2.10,Win32,60,6036d0d9a84aa1626184a6ef,16.8363,16.80978166,16.66581176,16.68966736,16.66666511,16.70798147,,,,,,,,,,,,,,,,,,,,PF,weak,3,,,,,,,,3,1.38343,,,,,,,,,,,,,,,,,,,,,,,,,,,,6,weak,-56,-108,1,0,0,response5disk,3,126,-4,11,1,0,0,rectangle,-4,11,1,0,0,6,7,0,0.000495,-4,11,1,0,0,0,125,125,26,1,,,,,,,,,,,,,,,,,,,,,
,,,,,,,,,,,,,,,,,,,,,,,,,,,,,,,,,,,,,,,,,,5b80b3ba16aa4400016a75ef,6036d8afbadcf5791034531c,2021-02-24_15h53.30.534,Colour_Similarity_Experiment,2020.2.10,Win32,60,6036d0d9a84aa1626184a6ef,16.8363,16.80978166,16.66581176,16.68966736,16.66666511,16.70798147,,,,,,,,,,,,,,,,,,,,PF,strong,3,,,,,,,,6,2.65006,,,,,,,,,,,,,,,,,,,,,,,,,,,,3,strong,136,33,1,0,0,response1disk,1,127,10,-6,1,0,0,rectangle,10,-6,1,0,0,6,5,0,0.000485,10,-6,1,0,0,0,126,126,125,1,,,,,,,,,,,,,,,,,,,,,
,,,,,,,,,,,,,,,,,,,,,,,,,,,,,,,,,,,,,,,,,,5b80b3ba16aa4400016a75ef,6036d8afbadcf5791034531c,2021-02-24_15h53.30.534,Colour_Similarity_Experiment,2020.2.10,Win32,60,6036d0d9a84aa1626184a6ef,16.8363,16.80978166,16.66581176,16.68966736,16.66666511,16.70798147,,,,,,,,,,,,,,,,,,,,PF,weak,3,,,,,,,,0,1.383425,,,,,,,,,,,,,,,,,,,,,,,,,,,,8,weak,-59,78,1,0,0,response7disk,8,128,-2,9,1,0,0,rectangle,-2,9,1,0,0,6,3,0,0.00048,-2,9,1,0,0,0,127,127,153,1,,,,,,,,,,,,,,,,,,,,,
,,,,,,,,,,,,,,,,,,,,,,,,,,,,,,,,,,,,,,,,,,5b80b3ba16aa4400016a75ef,6036d8afbadcf5791034531c,2021-02-24_15h53.30.534,Colour_Similarity_Experiment,2020.2.10,Win32,60,6036d0d9a84aa1626184a6ef,16.8363,16.80978166,16.66581176,16.68966736,16.66666511,16.70798147,,,,,,,,,,,,,,,,,,,,PF,strong,3,,,,,,,,1,2.95008,,,,,,,,,,,,,,,,,,,,,,,,,,,,9,strong,-138,58,1,0,0,response7disk,8,129,-6,1,1,0,0,rectangle,-6,1,1,0,0,6,3,0,0.00007,-6,1,1,0,0,0,128,128,6,1,,,,,,,,,,,,,,,,,,,,,
,,,,,,,,,,,,,,,,,,,,,,,,,,,,,,,,,,,,,,,,,,5b80b3ba16aa4400016a75ef,6036d8afbadcf5791034531c,2021-02-24_15h53.30.534,Colour_Similarity_Experiment,2020.2.10,Win32,60,6036d0d9a84aa1626184a6ef,16.8363,16.80978166,16.66581176,16.68966736,16.66666511,16.70798147,,,,,,,,,,,,,,,,,,,,PF,weak,3,,,,,,,,6,1.316665,,,,,,,,,,,,,,,,,,,,,,,,,,,,4,weak,121,52,1,0,0,response1disk,1,130,-11,-1,1,0,0,rectangle,-11,-1,1,0,0,6,5,0,0.00048,-11,-1,1,0,0,0,129,129,115,1,,,,,,,,,,,,,,,,,,,,,
,,,,,,,,,,,,,,,,,,,,,,,,,,,,,,,,,,,,,,,,,,5b80b3ba16aa4400016a75ef,6036d8afbadcf5791034531c,2021-02-24_15h53.30.534,Colour_Similarity_Experiment,2020.2.10,Win32,60,6036d0d9a84aa1626184a6ef,16.8363,16.80978166,16.66581176,16.68966736,16.66666511,16.70798147,,,,,,,,,,,,,,,,,,,,PF,weak,3,,,,,,,,4,1.38331,,,,,,,,,,,,,,,,,,,,,,,,,,,,8,weak,49,-103,1,0,0,response3disk,7,131,13,-8,1,0,0,rectangle,13,-8,1,0,0,6,0,0,0.000505,13,-8,1,0,0,0,130,130,23,1,,,,,,,,,,,,,,,,,,,,,
,,,,,,,,,,,,,,,,,,,,,,,,,,,,,,,,,,,,,,,,,,5b80b3ba16aa4400016a75ef,6036d8afbadcf5791034531c,2021-02-24_15h53.30.534,Colour_Similarity_Experiment,2020.2.10,Win32,60,6036d0d9a84aa1626184a6ef,16.8363,16.80978166,16.66581176,16.68966736,16.66666511,16.70798147,,,,,,,,,,,,,,,,,,,,PF,weak,3,,,,,,,,7,2.23331,,,,,,,,,,,,,,,,,,,,,,,,,,,,2,weak,53,111,1,0,0,response1disk,7,132,9,-3,1,0,0,rectangle,9,-3,1,0,0,6,0,0,0.0001,9,-3,1,0,0,0,131,131,107,1,,,,,,,,,,,,,,,,,,,,,
,,,,,,,,,,,,,,,,,,,,,,,,,,,,,,,,,,,,,,,,,,5b80b3ba16aa4400016a75ef,6036d8afbadcf5791034531c,2021-02-24_15h53.30.534,Colour_Similarity_Experiment,2020.2.10,Win32,60,6036d0d9a84aa1626184a6ef,16.8363,16.80978166,16.66581176,16.68966736,16.66666511,16.70798147,,,,,,,,,,,,,,,,,,,,PF,weak,3,,,,,,,,7,1.100025,,,,,,,,,,,,,,,,,,,,,,,,,,,,9,weak,54,113,1,0,0,response1disk,7,133,13,6,1,0,0,rectangle,13,6,1,0,0,6,1,0,0.00107,13,6,1,0,0,0,132,132,121,1,,,,,,,,,,,,,,,,,,,,,
,,,,,,,,,,,,,,,,,,,,,,,,,,,,,,,,,,,,,,,,,,5b80b3ba16aa4400016a75ef,6036d8afbadcf5791034531c,2021-02-24_15h53.30.534,Colour_Similarity_Experiment,2020.2.10,Win32,60,6036d0d9a84aa1626184a6ef,16.8363,16.80978166,16.66581176,16.68966736,16.66666511,16.70798147,,,,,,,,,,,,,,,,,,,,PF,weak,3,,,,,,,,4,1.533445,,,,,,,,,,,,,,,,,,,,,,,,,,,,3,weak,37,-127,1,0,0,response3disk,9,134,-16,7,1,0,0,rectangle,-16,7,1,0,0,6,7,0,0.000475,-16,7,1,0,0,0,133,133,79,1,,,,,,,,,,,,,,,,,,,,,
,,,,,,,,,,,,,,,,,,,,,,,,,,,,,,,,,,,,,,,,,,5b80b3ba16aa4400016a75ef,6036d8afbadcf5791034531c,2021-02-24_15h53.30.534,Colour_Similarity_Experiment,2020.2.10,Win32,60,6036d0d9a84aa1626184a6ef,16.8363,16.80978166,16.66581176,16.68966736,16.66666511,16.70798147,,,,,,,,,,,,,,,,,,,,PF,strong,3,,,,,,,,3,2.616675,,,,,,,,,,,,,,,,,,,,,,,,,,,,9,strong,-34,-123,1,0,0,response5disk,1,135,14,1,1,0,0,rectangle,14,1,1,0,0,6,5,0,0.00047,14,1,1,0,0,0,134,134,111,1,,,,,,,,,,,,,,,,,,,,,
,,,,,,,,,,,,,,,,,,,,,,,,,,,,,,,,,,,,,,,,,,5b80b3ba16aa4400016a75ef,6036d8afbadcf5791034531c,2021-02-24_15h53.30.534,Colour_Similarity_Experiment,2020.2.10,Win32,60,6036d0d9a84aa1626184a6ef,16.8363,16.80978166,16.66581176,16.68966736,16.66666511,16.70798147,,,,,,,,,,,,,,,,,,,,PF,weak,3,,,,,,,,2,2.250025,,,,,,,,,,,,,,,,,,,,,,,,,,,,6,weak,-88,-43,1,0,0,response5disk,5,136,16,-1,1,0,0,rectangle,16,-1,1,0,0,6,3,0,0.000465,16,-1,1,0,0,0,135,135,59,1,,,,,,,,,,,,,,,,,,,,,
,,,,,,,,,,,,,,,,,,,,,,,,,,,,,,,,,,,,,,,,,,5b80b3ba16aa4400016a75ef,6036d8afbadcf5791034531c,2021-02-24_15h53.30.534,Colour_Similarity_Experiment,2020.2.10,Win32,60,6036d0d9a84aa1626184a6ef,16.8363,16.80978166,16.66581176,16.68966736,16.66666511,16.70798147,,,,,,,,,,,,,,,,,,,,PF,strong,3,,,,,,,,5,1.38332,,,,,,,,,,,,,,,,,,,,,,,,,,,,6,strong,125,-34,1,0,0,response3disk,2,137,16,10,1,0,0,rectangle,16,10,1,0,0,6,2,0,0.00051,16,10,1,0,0,0,136,136,112,1,,,,,,,,,,,,,,,,,,,,,
,,,,,,,,,,,,,,,,,,,,,,,,,,,,,,,,,,,,,,,,,,5b80b3ba16aa4400016a75ef,6036d8afbadcf5791034531c,2021-02-24_15h53.30.534,Colour_Similarity_Experiment,2020.2.10,Win32,60,6036d0d9a84aa1626184a6ef,16.8363,16.80978166,16.66581176,16.68966736,16.66666511,16.70798147,,,,,,,,,,,,,,,,,,,,PF,weak,3,,,,,,,,5,2.183315,,,,,,,,,,,,,,,,,,,,,,,,,,,,1,weak,100,-48,1,0,0,response3disk,8,138,13,-6,1,0,0,rectangle,13,-6,1,0,0,6,2,0,0.000095,13,-6,1,0,0,0,137,137,65,1,,,,,,,,,,,,,,,,,,,,,
,,,,,,,,,,,,,,,,,,,,,,,,,,,,,,,,,,,,,,,,,,5b80b3ba16aa4400016a75ef,6036d8afbadcf5791034531c,2021-02-24_15h53.30.534,Colour_Similarity_Experiment,2020.2.10,Win32,60,6036d0d9a84aa1626184a6ef,16.8363,16.80978166,16.66581176,16.68966736,16.66666511,16.70798147,,,,,,,,,,,,,,,,,,,,PF,strong,3,,,,,,,,4,2.51668,,,,,,,,,,,,,,,,,,,,,,,,,,,,4,strong,35,-113,1,0,0,response3disk,1,139,-4,1,1,0,0,rectangle,-4,1,1,0,0,6,2,0,0.000105,-4,1,1,0,0,0,138,138,102,1,,,,,,,,,,,,,,,,,,,,,
,,,,,,,,,,,,,,,,,,,,,,,,,,,,,,,,,,,,,,,,,,5b80b3ba16aa4400016a75ef,6036d8afbadcf5791034531c,2021-02-24_15h53.30.534,Colour_Similarity_Experiment,2020.2.10,Win32,60,6036d0d9a84aa1626184a6ef,16.8363,16.80978166,16.66581176,16.68966736,16.66666511,16.70798147,,,,,,,,,,,,,,,,,,,,PF,strong,3,,,,,,,,1,1.78311,,,,,,,,,,,,,,,,,,,,,,,,,,,,5,strong,-99,59,1,0,0,response7disk,6,140,4,11,1,0,0,rectangle,4,11,1,0,0,6,3,0,0.000505,4,11,1,0,0,0,139,139,12,1,,,,,,,,,,,,,,,,,,,,,
,,,,,,,,,,,,,,,,,,,,,,,,,,,,,,,,,,,,,,,,,,5b80b3ba16aa4400016a75ef,6036d8afbadcf5791034531c,2021-02-24_15h53.30.534,Colour_Similarity_Experiment,2020.2.10,Win32,60,6036d0d9a84aa1626184a6ef,16.8363,16.80978166,16.66581176,16.68966736,16.66666511,16.70798147,,,,,,,,,,,,,,,,,,,,PF,strong,3,,,,,,,,6,3.116755,,,,,,,,,,,,,,,,,,,,,,,,,,,,4,strong,126,51,1,0,0,response1disk,2,141,6,-8,1,0,0,rectangle,6,-8,1,0,0,6,2,0,0.000705,6,-8,1,0,0,0,140,140,13,1,,,,,,,,,,,,,,,,,,,,,
,,,,,,,,,,,,,,,,,,,,,,,,,,,,,,,,,,,,,,,,,,5b80b3ba16aa4400016a75ef,6036d8afbadcf5791034531c,2021-02-24_15h53.30.534,Colour_Similarity_Experiment,2020.2.10,Win32,60,6036d0d9a84aa1626184a6ef,16.8363,16.80978166,16.66581176,16.68966736,16.66666511,16.70798147,,,,,,,,,,,,,,,,,,,,PF,strong,3,,,,,,,,6,1.200045,,,,,,,,,,,,,,,,,,,,,,,,,,,,6,strong,107,44,1,0,0,response1disk,1,142,1,3,1,0,0,rectangle,1,3,1,0,0,6,3,0,0.000505,1,3,1,0,0,0,141,141,5,1,,,,,,,,,,,,,,,,,,,,,
,,,,,,,,,,,,,,,,,,,,,,,,,,,,,,,,,,,,,,,,,,5b80b3ba16aa4400016a75ef,6036d8afbadcf5791034531c,2021-02-24_15h53.30.534,Colour_Similarity_Experiment,2020.2.10,Win32,60,6036d0d9a84aa1626184a6ef,16.8363,16.80978166,16.66581176,16.68966736,16.66666511,16.70798147,,,,,,,,,,,,,,,,,,,,PF,strong,3,,,,,,,,3,1.516605,,,,,,,,,,,,,,,,,,,,,,,,,,,,3,strong,-57,-117,1,0,0,response5disk,9,143,0,-10,1,0,0,rectangle,0,-10,1,0,0,6,4,0,0.000485,0,-10,1,0,0,0,142,142,143,1,,,,,,,,,,,,,,,,,,,,,
,,,,,,,,,,,,,,,,,,,,,,,,,,,,,,,,,,,,,,,,,,5b80b3ba16aa4400016a75ef,6036d8afbadcf5791034531c,2021-02-24_15h53.30.534,Colour_Similarity_Experiment,2020.2.10,Win32,60,6036d0d9a84aa1626184a6ef,16.8363,16.80978166,16.66581176,16.68966736,16.66666511,16.70798147,,,,,,,,,,,,,,,,,,,,PF,weak,3,,,,,,,,1,1.649955,,,,,,,,,,,,,,,,,,,,,,,,,,,,8,weak,-107,54,1,0,0,response7disk,9,144,-15,16,1,0,0,rectangle,-15,16,1,0,0,6,3,0,0.00052,-15,16,1,0,0,0,143,143,42,1,,,,,,,,,,,,,,,,,,,,,
,,,,,,,,,,,,,,,,,,,,,,,,,,,,,,,,,,,,,,,,,,5b80b3ba16aa4400016a75ef,6036d8afbadcf5791034531c,2021-02-24_15h53.30.534,Colour_Similarity_Experiment,2020.2.10,Win32,60,6036d0d9a84aa1626184a6ef,16.8363,16.80978166,16.66581176,16.68966736,16.66666511,16.70798147,,,,,,,,,,,,,,,,,,,,PF,weak,3,,,,,,,,2,1.58334,,,,,,,,,,,,,,,,,,,,,,,,,,,,2,weak,-124,-65,1,0,0,response5disk,3,145,-8,3,1,0,0,rectangle,-8,3,1,0,0,6,6,0,0.00049,-8,3,1,0,0,0,144,144,69,1,,,,,,,,,,,,,,,,,,,,,
,,,,,,,,,,,,,,,,,,,,,,,,,,,,,,,,,,,,,,,,,,5b80b3ba16aa4400016a75ef,6036d8afbadcf5791034531c,2021-02-24_15h53.30.534,Colour_Similarity_Experiment,2020.2.10,Win32,60,6036d0d9a84aa1626184a6ef,16.8363,16.80978166,16.66581176,16.68966736,16.66666511,16.70798147,,,,,,,,,,,,,,,,,,,,PF,weak,3,,,,,,,,4,1.583315,,,,,,,,,,,,,,,,,,,,,,,,,,,,2,weak,66,-124,1,0,0,response3disk,4,146,-18,-5,1,0,0,rectangle,-18,-5,1,0,0,6,6,0,0.0001,-18,-5,1,0,0,0,145,145,127,1,,,,,,,,,,,,,,,,,,,,,
,,,,,,,,,,,,,,,,,,,,,,,,,,,,,,,,,,,,,,,,,,5b80b3ba16aa4400016a75ef,6036d8afbadcf5791034531c,2021-02-24_15h53.30.534,Colour_Similarity_Experiment,2020.2.10,Win32,60,6036d0d9a84aa1626184a6ef,16.8363,16.80978166,16.66581176,16.68966736,16.66666511,16.70798147,,,,,,,,,,,,,,,,,,,,PF,strong,3,,,,,,,,6,1.383355,,,,,,,,,,,,,,,,,,,,,,,,,,,,2,strong,150,52,1,0,0,response1disk,6,147,15,-4,1,0,0,rectangle,15,-4,1,0,0,6,0,0,0.00049,15,-4,1,0,0,0,146,146,40,1,,,,,,,,,,,,,,,,,,,,,
,,,,,,,,,,,,,,,,,,,,,,,,,,,,,,,,,,,,,,,,,,5b80b3ba16aa4400016a75ef,6036d8afbadcf5791034531c,2021-02-24_15h53.30.534,Colour_Similarity_Experiment,2020.2.10,Win32,60,6036d0d9a84aa1626184a6ef,16.8363,16.80978166,16.66581176,16.68966736,16.66666511,16.70798147,,,,,,,,,,,,,,,,,,,,PF,strong,3,,,,,,,,3,2.21669,,,,,,,,,,,,,,,,,,,,,,,,,,,,8,strong,-31,-101,1,0,0,response5disk,5,148,13,7,1,0,0,rectangle,13,7,1,0,0,6,5,0,0.000495,13,7,1,0,0,0,147,147,152,1,,,,,,,,,,,,,,,,,,,,,
,,,,,,,,,,,,,,,,,,,,,,,,,,,,,,,,,,,,,,,,,,5b80b3ba16aa4400016a75ef,6036d8afbadcf5791034531c,2021-02-24_15h53.30.534,Colour_Similarity_Experiment,2020.2.10,Win32,60,6036d0d9a84aa1626184a6ef,16.8363,16.80978166,16.66581176,16.68966736,16.66666511,16.70798147,,,,,,,,,,,,,,,,,,,,PF,weak,3,,,,,,,,5,2.283325,,,,,,,,,,,,,,,,,,,,,,,,,,,,2,weak,150,-63,1,0,0,response3disk,1,149,4,-16,1,0,0,rectangle,4,-16,1,0,0,6,3,0,0.00061,4,-16,1,0,0,0,148,148,9,1,,,,,,,,,,,,,,,,,,,,,
,,,,,,,,,,,,,,,,,,,,,,,,,,,,,,,,,,,,,,,,,,5b80b3ba16aa4400016a75ef,6036d8afbadcf5791034531c,2021-02-24_15h53.30.534,Colour_Similarity_Experiment,2020.2.10,Win32,60,6036d0d9a84aa1626184a6ef,16.8363,16.80978166,16.66581176,16.68966736,16.66666511,16.70798147,,,,,,,,,,,,,,,,,,,,PF,weak,3,,,,,,,,7,2.150075,,,,,,,,,,,,,,,,,,,,,,,,,,,,3,weak,64,117,1,0,0,response1disk,7,150,11,10,1,0,0,rectangle,11,10,1,0,0,6,0,0,0.0006,11,10,1,0,0,0,149,149,41,1,,,,,,,,,,,,,,,,,,,,,
,,,,,,,,,,,,,,,,,,,,,,,,,,,,,,,,,,,,,,,,,,5b80b3ba16aa4400016a75ef,6036d8afbadcf5791034531c,2021-02-24_15h53.30.534,Colour_Similarity_Experiment,2020.2.10,Win32,60,6036d0d9a84aa1626184a6ef,16.8363,16.80978166,16.66581176,16.68966736,16.66666511,16.70798147,,,,,,,,,,,,,,,,,,,,PF,strong,3,,,,,,,,4,2.41672,,,,,,,,,,,,,,,,,,,,,,,,,,,,7,strong,73,-128,1,0,0,response3disk,4,151,-13,4,1,0,0,rectangle,-13,4,1,0,0,6,5,0,0.00049,-13,4,1,0,0,0,150,150,158,1,,,,,,,,,,,,,,,,,,,,,
,,,,,,,,,,,,,,,,,,,,,,,,,,,,,,,,,,,,,,,,,,5b80b3ba16aa4400016a75ef,6036d8afbadcf5791034531c,2021-02-24_15h53.30.534,Colour_Similarity_Experiment,2020.2.10,Win32,60,6036d0d9a84aa1626184a6ef,16.8363,16.80978166,16.66581176,16.68966736,16.66666511,16.70798147,,,,,,,,,,,,,,,,,,,,PF,weak,3,,,,,,,,3,1.683285,,,,,,,,,,,,,,,,,,,,,,,,,,,,7,weak,-40,-86,1,0,0,response5disk,8,152,5,-13,1,0,0,rectangle,5,-13,1,0,0,6,4,0,0.000485,5,-13,1,0,0,0,151,151,140,1,,,,,,,,,,,,,,,,,,,,,
,,,,,,,,,,,,,,,,,,,,,,,,,,,,,,,,,,,,,,,,,,5b80b3ba16aa4400016a75ef,6036d8afbadcf5791034531c,2021-02-24_15h53.30.534,Colour_Similarity_Experiment,2020.2.10,Win32,60,6036d0d9a84aa1626184a6ef,16.8363,16.80978166,16.66581176,16.68966736,16.66666511,16.70798147,,,,,,,,,,,,,,,,,,,,PF,strong,3,,,,,,,,7,1.50004,,,,,,,,,,,,,,,,,,,,,,,,,,,,8,strong,66,102,1,0,0,response1disk,3,153,-2,-12,1,0,0,rectangle,-2,-12,1,0,0,6,6,0,0.00051,-2,-12,1,0,0,0,152,152,154,1,,,,,,,,,,,,,,,,,,,,,
,,,,,,,,,,,,,,,,,,,,,,,,,,,,,,,,,,,,,,,,,,5b80b3ba16aa4400016a75ef,6036d8afbadcf5791034531c,2021-02-24_15h53.30.534,Colour_Similarity_Experiment,2020.2.10,Win32,60,6036d0d9a84aa1626184a6ef,16.8363,16.80978166,16.66581176,16.68966736,16.66666511,16.70798147,,,,,,,,,,,,,,,,,,,,PF,weak,3,,,,,,,,7,1.2501,,,,,,,,,,,,,,,,,,,,,,,,,,,,9,weak,41,97,1,0,0,response1disk,4,154,15,1,1,0,0,rectangle,15,1,1,0,0,6,6,0,0.000085,15,1,1,0,0,0,153,153,114,1,,,,,,,,,,,,,,,,,,,,,
,,,,,,,,,,,,,,,,,,,,,,,,,,,,,,,,,,,,,,,,,,5b80b3ba16aa4400016a75ef,6036d8afbadcf5791034531c,2021-02-24_15h53.30.534,Colour_Similarity_Experiment,2020.2.10,Win32,60,6036d0d9a84aa1626184a6ef,16.8363,16.80978166,16.66581176,16.68966736,16.66666511,16.70798147,,,,,,,,,,,,,,,,,,,,PF,weak,3,,,,,,,,1,1.783345,,,,,,,,,,,,,,,,,,,,,,,,,,,,9,weak,-90,54,1,0,0,response7disk,8,155,3,0,1,0,0,rectangle,3,0,1,0,0,6,1,0,0.000585,3,0,1,0,0,0,154,154,67,1,,,,,,,,,,,,,,,,,,,,,
,,,,,,,,,,,,,,,,,,,,,,,,,,,,,,,,,,,,,,,,,,5b80b3ba16aa4400016a75ef,6036d8afbadcf5791034531c,2021-02-24_15h53.30.534,Colour_Similarity_Experiment,2020.2.10,Win32,60,6036d0d9a84aa1626184a6ef,16.8363,16.80978166,16.66581176,16.68966736,16.66666511,16.70798147,,,,,,,,,,,,,,,,,,,,PF,strong,3,,,,,,,,3,1.931325,,,,,,,,,,,,,,,,,,,,,,,,,,,,5,strong,-37,-77,1,0,0,response5disk,3,156,23,16,1,0,0,rectangle,23,16,1,0,0,6,4,0,0.00047,23,16,1,0,0,0,155,155,25,1,,,,,,,,,,,,,,,,,,,,,
,,,,,,,,,,,,,,,,,,,,,,,,,,,,,,,,,,,,,,,,,,5b80b3ba16aa4400016a75ef,6036d8afbadcf5791034531c,2021-02-24_15h53.30.534,Colour_Similarity_Experiment,2020.2.10,Win32,60,6036d0d9a84aa1626184a6ef,16.8363,16.80978166,16.66581176,16.68966736,16.66666511,16.70798147,,,,,,,,,,,,,,,,,,,,PF,strong,3,,,,,,,,5,1.91666,,,,,,,,,,,,,,,,,,,,,,,,,,,,5,strong,146,-67,1,0,0,response3disk,1,157,1,3,1,0,0,rectangle,1,3,1,0,0,6,0,0,0.000475,1,3,1,0,0,0,156,156,131,1,,,,,,,,,,,,,,,,,,,,,
,,,,,,,,,,,,,,,,,,,,,,,,,,,,,,,,,,,,,,,,,,5b80b3ba16aa4400016a75ef,6036d8afbadcf5791034531c,2021-02-24_15h53.30.534,Colour_Similarity_Experiment,2020.2.10,Win32,60,6036d0d9a84aa1626184a6ef,16.8363,16.80978166,16.66581176,16.68966736,16.66666511,16.70798147,,,,,,,,,,,,,,,,,,,,PF,strong,3,,,,,,,,5,1.83337,,,,,,,,,,,,,,,,,,,,,,,,,,,,6,strong,99,-60,1,0,0,response3disk,4,158,9,-11,1,0,0,rectangle,9,-11,1,0,0,6,3,0,0.00047,9,-11,1,0,0,0,157,157,56,1,,,,,,,,,,,,,,,,,,,,,
,,,,,,,,,,,,,,,,,,,,,,,,,,,,,,,,,,,,,,,,,,5b80b3ba16aa4400016a75ef,6036d8afbadcf5791034531c,2021-02-24_15h53.30.534,Colour_Similarity_Experiment,2020.2.10,Win32,60,6036d0d9a84aa1626184a6ef,16.8363,16.80978166,16.66581176,16.68966736,16.66666511,16.70798147,,,,,,,,,,,,,,,,,,,,PF,strong,3,,,,,,,,6,1.866785,,,,,,,,,,,,,,,,,,,,,,,,,,,,9,strong,120,49,1,0,0,response1disk,3,159,9,-7,1,0,0,rectangle,9,-7,1,0,0,6,6,0,0.000545,9,-7,1,0,0,0,158,158,141,1,,,,,,,,,,,,,,,,,,,,,
,,,,,,,,,,,,,,,,,,,,,,,,,,,,,,,,,,,,,,,,,,5b80b3ba16aa4400016a75ef,6036d8afbadcf5791034531c,2021-02-24_15h53.30.534,Colour_Similarity_Experiment,2020.2.10,Win32,60,6036d0d9a84aa1626184a6ef,16.8363,16.80978166,16.66581176,16.68966736,16.66666511,16.70798147,,,,,,,,,,,,,,,,,,,,PF,strong,3,,,,,,,,5,1.53331,,,,,,,,,,,,,,,,,,,,,,,,,,,,7,strong,92,-50,1,0,0,response3disk,1,160,26,-11,1,0,0,rectangle,26,-11,1,0,0,6,0,0,0.00048,26,-11,1,0,0,0,159,159,132,1,,,,,,,,,,,,,,,,,,,,,
,,,,,,,,,,,,,,,,,,,,,,,,,,,,,,,,,,,,,,,,,,5b80b3ba16aa4400016a75ef,6036d8afbadcf5791034531c,2021-02-24_15h53.30.534,Colour_Similarity_Experiment,2020.2.10,Win32,60,6036d0d9a84aa1626184a6ef,16.8363,16.80978166,16.66581176,16.68966736,16.66666511,16.70798147,,,,,,,,,,,,,,,,,,,,PF,strong,3,,,,,,,,2,1.81671,,,,,,,,,,,,,,,,,,,,,,,,,,,,5,strong,-83,-37,1,0,0,response5disk,4,161,8,2,1,0,0,rectangle,8,2,1,0,0,6,6,0,0.000505,8,2,1,0,0,0,160,160,8,1,,,,,,,,,,,,,,,,,,,,,
,,,,,,,,,,,,,,,,,,,,,,,,,,,,,,,,,,,,,,,,,,5b80b3ba16aa4400016a75ef,6036d8afbadcf5791034531c,2021-02-24_15h53.30.534,Colour_Similarity_Experiment,2020.2.10,Win32,60,6036d0d9a84aa1626184a6ef,16.8363,16.80978166,16.66581176,16.68966736,16.66666511,16.70798147,,,,,,,,,,,,,,,,,,,,PF,strong,3,,,,,,,,6,1.966685,,,,,,,,,,,,,,,,,,,,,,,,,,,,7,strong,136,38,1,0,0,response1disk,2,162,13,-8,1,0,0,rectangle,13,-8,1,0,0,6,2,0,0.00047,13,-8,1,0,0,0,161,161,138,1,,,,,,,,,,,,,,,,,,,,,
,,,,,,,,,,,,,,,,,,,,,,,,,,,,,,,,,,,,,,,,,,5b80b3ba16aa4400016a75ef,6036d8afbadcf5791034531c,2021-02-24_15h53.30.534,Colour_Similarity_Experiment,2020.2.10,Win32,60,6036d0d9a84aa1626184a6ef,16.8363,16.80978166,16.66581176,16.68966736,16.66666511,16.70798147,,,,,,,,,,,,,,,,,,,,,,,,,,,,,,,,,,,,,,,,,,,,,,,,,,,,,,,,,,,,,,,,,,,,,,,,,,,,,,,,,,,,,,,,,,,,,,,,0,0,0,0,1,,,,,,,,,,,,,,
,,,,,,,,,,,,,,,,,,,,,,,,,,,,,,,,,,,,,,,,,,5b80b3ba16aa4400016a75ef,6036d8afbadcf5791034531c,2021-02-24_15h53.30.534,Colour_Similarity_Experiment,2020.2.10,Win32,60,6036d0d9a84aa1626184a6ef,16.8363,16.80978166,16.66581176,16.68966736,16.66666511,16.70798147,,,,,,,,,,,,,,,,,,,,PF,strong,3,,,,,,,,5,2.500035,,,,,,,,,,,,,,,,,,,,,,,,,,,,8,strong,57,-45,1,0,0,response3disk,2,163,-4,0,1,0,0,rectangle,-4,0,1,0,0,6,0,0,0.000585,-4,0,1,0,0,0,0,0,22,1,,,,,,,,,,,,,,,,,,,,,
,,,,,,,,,,,,,,,,,,,,,,,,,,,,,,,,,,,,,,,,,,5b80b3ba16aa4400016a75ef,6036d8afbadcf5791034531c,2021-02-24_15h53.30.534,Colour_Similarity_Experiment,2020.2.10,Win32,60,6036d0d9a84aa1626184a6ef,16.8363,16.80978166,16.66581176,16.68966736,16.66666511,16.70798147,,,,,,,,,,,,,,,,,,,,PF,weak,3,,,,,,,,4,3.216795,,,,,,,,,,,,,,,,,,,,,,,,,,,,6,weak,53,-112,1,0,0,response3disk,1,164,17,3,1,0,0,rectangle,17,3,1,0,0,6,4,0,0.00053,17,3,1,0,0,0,1,1,46,1,,,,,,,,,,,,,,,,,,,,,
,,,,,,,,,,,,,,,,,,,,,,,,,,,,,,,,,,,,,,,,,,5b80b3ba16aa4400016a75ef,6036d8afbadcf5791034531c,2021-02-24_15h53.30.534,Colour_Similarity_Experiment,2020.2.10,Win32,60,6036d0d9a84aa1626184a6ef,16.8363,16.80978166,16.66581176,16.68966736,16.66666511,16.70798147,,,,,,,,,,,,,,,,,,,,PF,strong,3,,,,,,,,0,1.9334,,,,,,,,,,,,,,,,,,,,,,,,,,,,1,strong,-64,123,1,0,0,response7disk,1,165,10,9,1,0,0,rectangle,10,9,1,0,0,6,5,0,0.00048,10,9,1,0,0,0,2,2,151,1,,,,,,,,,,,,,,,,,,,,,
,,,,,,,,,,,,,,,,,,,,,,,,,,,,,,,,,,,,,,,,,,5b80b3ba16aa4400016a75ef,6036d8afbadcf5791034531c,2021-02-24_15h53.30.534,Colour_Similarity_Experiment,2020.2.10,Win32,60,6036d0d9a84aa1626184a6ef,16.8363,16.80978166,16.66581176,16.68966736,16.66666511,16.70798147,,,,,,,,,,,,,,,,,,,,PF,weak,3,,,,,,,,2,1.416605,,,,,,,,,,,,,,,,,,,,,,,,,,,,4,weak,-100,-53,1,0,0,response5disk,5,166,1,7,1,0,0,rectangle,1,7,1,0,0,6,6,0,0.000465,1,7,1,0,0,0,3,3,49,1,,,,,,,,,,,,,,,,,,,,,
,,,,,,,,,,,,,,,,,,,,,,,,,,,,,,,,,,,,,,,,,,5b80b3ba16aa4400016a75ef,6036d8afbadcf5791034531c,2021-02-24_15h53.30.534,Colour_Similarity_Experiment,2020.2.10,Win32,60,6036d0d9a84aa1626184a6ef,16.8363,16.80978166,16.66581176,16.68966736,16.66666511,16.70798147,,,,,,,,,,,,,,,,,,,,PF,strong,3,,,,,,,,3,2.80007,,,,,,,,,,,,,,,,,,,,,,,,,,,,3,strong,-42,-122,1,0,0,response5disk,8,167,11,5,1,0,0,rectangle,11,5,1,0,0,6,2,0,0.000465,11,5,1,0,0,0,4,4,44,1,,,,,,,,,,,,,,,,,,,,,
,,,,,,,,,,,,,,,,,,,,,,,,,,,,,,,,,,,,,,,,,,5b80b3ba16aa4400016a75ef,6036d8afbadcf5791034531c,2021-02-24_15h53.30.534,Colour_Similarity_Experiment,2020.2.10,Win32,60,6036d0d9a84aa1626184a6ef,16.8363,16.80978166,16.66581176,16.68966736,16.66666511,16.70798147,,,,,,,,,,,,,,,,,,,,PF,strong,3,,,,,,,,4,3.80008,,,,,,,,,,,,,,,,,,,,,,,,,,,,6,strong,60,-111,1,0,0,response3disk,8,168,22,3,1,0,0,rectangle,22,3,1,0,0,6,1,0,0.000465,22,3,1,0,0,0,5,5,133,1,,,,,,,,,,,,,,,,,,,,,
,,,,,,,,,,,,,,,,,,,,,,,,,,,,,,,,,,,,,,,,,,5b80b3ba16aa4400016a75ef,6036d8afbadcf5791034531c,2021-02-24_15h53.30.534,Colour_Similarity_Experiment,2020.2.10,Win32,60,6036d0d9a84aa1626184a6ef,16.8363,16.80978166,16.66581176,16.68966736,16.66666511,16.70798147,,,,,,,,,,,,,,,,,,,,PF,strong,3,,,,,,,,5,2.45003,,,,,,,,,,,,,,,,,,,,,,,,,,,,4,strong,120,-73,1,0,0,response3disk,9,169,4,-1,1,0,0,rectangle,4,-1,1,0,0,6,5,0,0.000465,4,-1,1,0,0,0,6,6,90,1,,,,,,,,,,,,,,,,,,,,,
,,,,,,,,,,,,,,,,,,,,,,,,,,,,,,,,,,,,,,,,,,5b80b3ba16aa4400016a75ef,6036d8afbadcf5791034531c,2021-02-24_15h53.30.534,Colour_Similarity_Experiment,2020.2.10,Win32,60,6036d0d9a84aa1626184a6ef,16.8363,16.80978166,16.66581176,16.68966736,16.66666511,16.70798147,,,,,,,,,,,,,,,,,,,,PF,weak,3,,,,,,,,3,1.916705,,,,,,,,,,,,,,,,,,,,,,,,,,,,8,weak,-44,-107,1,0,0,response5disk,5,170,8,2,1,0,0,rectangle,8,2,1,0,0,6,1,0,0.000475,8,2,1,0,0,0,7,7,98,1,,,,,,,,,,,,,,,,,,,,,
,,,,,,,,,,,,,,,,,,,,,,,,,,,,,,,,,,,,,,,,,,5b80b3ba16aa4400016a75ef,6036d8afbadcf5791034531c,2021-02-24_15h53.30.534,Colour_Similarity_Experiment,2020.2.10,Win32,60,6036d0d9a84aa1626184a6ef,16.8363,16.80978166,16.66581176,16.68966736,16.66666511,16.70798147,,,,,,,,,,,,,,,,,,,,PF,strong,3,,,,,,,,6,2.70004,,,,,,,,,,,,,,,,,,,,,,,,,,,,1,strong,129,47,1,0,0,response1disk,5,171,1,5,1,0,0,rectangle,1,5,1,0,0,6,7,0,0.00049,1,5,1,0,0,0,8,8,82,1,,,,,,,,,,,,,,,,,,,,,
,,,,,,,,,,,,,,,,,,,,,,,,,,,,,,,,,,,,,,,,,,5b80b3ba16aa4400016a75ef,6036d8afbadcf5791034531c,2021-02-24_15h53.30.534,Colour_Similarity_Experiment,2020.2.10,Win32,60,6036d0d9a84aa1626184a6ef,16.8363,16.80978166,16.66581176,16.68966736,16.66666511,16.70798147,,,,,,,,,,,,,,,,,,,,PF,strong,3,,,,,,,,4,2.016595,,,,,,,,,,,,,,,,,,,,,,,,,,,,2,strong,40,-87,1,0,0,response3disk,7,172,-16,19,1,0,0,rectangle,-16,19,1,0,0,6,5,0,0.00047,-16,19,1,0,0,0,9,9,63,1,,,,,,,,,,,,,,,,,,,,,
,,,,,,,,,,,,,,,,,,,,,,,,,,,,,,,,,,,,,,,,,,5b80b3ba16aa4400016a75ef,6036d8afbadcf5791034531c,2021-02-24_15h53.30.534,Colour_Similarity_Experiment,2020.2.10,Win32,60,6036d0d9a84aa1626184a6ef,16.8363,16.80978166,16.66581176,16.68966736,16.66666511,16.70798147,,,,,,,,,,,,,,,,,,,,PF,weak,3,,,,,,,,0,1.249825,,,,,,,,,,,,,,,,,,,,,,,,,,,,5,weak,-53,87,1,0,0,response7disk,5,173,-2,7,1,0,0,rectangle,-2,7,1,0,0,6,6,0,0.000475,-2,7,1,0,0,0,10,10,94,1,,,,,,,,,,,,,,,,,,,,,
,,,,,,,,,,,,,,,,,,,,,,,,,,,,,,,,,,,,,,,,,,5b80b3ba16aa4400016a75ef,6036d8afbadcf5791034531c,2021-02-24_15h53.30.534,Colour_Similarity_Experiment,2020.2.10,Win32,60,6036d0d9a84aa1626184a6ef,16.8363,16.80978166,16.66581176,16.68966736,16.66666511,16.70798147,,,,,,,,,,,,,,,,,,,,PF,weak,3,,,,,,,,0,0.98338,,,,,,,,,,,,,,,,,,,,,,,,,,,,1,weak,-53,109,1,0,0,response7disk,1,174,21,0,1,0,0,rectangle,55,93,1,0,0,7,7,1,1.5667,13,-6,1,0,0,0,11,11,76,1,response1disk_3,rectangle,,,,,,,,,,,,,,,,,,,
,,,,,,,,,,,,,,,,,,,,,,,,,,,,,,,,,,,,,,,,,,5b80b3ba16aa4400016a75ef,6036d8afbadcf5791034531c,2021-02-24_15h53.30.534,Colour_Similarity_Experiment,2020.2.10,Win32,60,6036d0d9a84aa1626184a6ef,16.8363,16.80978166,16.66581176,16.68966736,16.66666511,16.70798147,,,,,,,,,,,,,,,,,,,,PF,weak,3,,,,,,,,0,1.066665,,,,,,,,,,,,,,,,,,,,,,,,,,,,3,weak,-46,106,1,0,0,response7disk,3,175,30,-5,1,0,0,rectangle,30,-5,1,0,0,7,2,0,0.000505,30,-5,1,0,0,0,12,12,4,1,,,,,,,,,,,,,,,,,,,,,
,,,,,,,,,,,,,,,,,,,,,,,,,,,,,,,,,,,,,,,,,,5b80b3ba16aa4400016a75ef,6036d8afbadcf5791034531c,2021-02-24_15h53.30.534,Colour_Similarity_Experiment,2020.2.10,Win32,60,6036d0d9a84aa1626184a6ef,16.8363,16.80978166,16.66581176,16.68966736,16.66666511,16.70798147,,,,,,,,,,,,,,,,,,,,PF,weak,3,,,,,,,,6,1.2333,,,,,,,,,,,,,,,,,,,,,,,,,,,,9,weak,99,38,1,0,0,response1disk,2,176,19,-2,1,0,0,rectangle,19,-2,1,0,0,7,5,0,0.0005,19,-2,1,0,0,0,13,13,157,1,,,,,,,,,,,,,,,,,,,,,
,,,,,,,,,,,,,,,,,,,,,,,,,,,,,,,,,,,,,,,,,,5b80b3ba16aa4400016a75ef,6036d8afbadcf5791034531c,2021-02-24_15h53.30.534,Colour_Similarity_Experiment,2020.2.10,Win32,60,6036d0d9a84aa1626184a6ef,16.8363,16.80978166,16.66581176,16.68966736,16.66666511,16.70798147,,,,,,,,,,,,,,,,,,,,PF,weak,3,,,,,,,,7,3.449985,,,,,,,,,,,,,,,,,,,,,,,,,,,,6,weak,65,100,1,0,0,response1disk,9,177,-6,-9,1,0,0,rectangle,-6,-9,1,0,0,7,4,0,0.000475,-6,-9,1,0,0,0,14,14,45,1,,,,,,,,,,,,,,,,,,,,,
,,,,,,,,,,,,,,,,,,,,,,,,,,,,,,,,,,,,,,,,,,5b80b3ba16aa4400016a75ef,6036d8afbadcf5791034531c,2021-02-24_15h53.30.534,Colour_Similarity_Experiment,2020.2.10,Win32,60,6036d0d9a84aa1626184a6ef,16.8363,16.80978166,16.66581176,16.68966736,16.66666511,16.70798147,,,,,,,,,,,,,,,,,,,,PF,strong,3,,,,,,,,2,1.75002,,,,,,,,,,,,,,,,,,,,,,,,,,,,7,strong,-78,-51,1,0,0,response5disk,5,178,8,-9,1,0,0,rectangle,8,-9,1,0,0,7,7,0,0.00048,8,-9,1,0,0,0,15,15,156,1,,,,,,,,,,,,,,,,,,,,,
,,,,,,,,,,,,,,,,,,,,,,,,,,,,,,,,,,,,,,,,,,5b80b3ba16aa4400016a75ef,6036d8afbadcf5791034531c,2021-02-24_15h53.30.534,Colour_Similarity_Experiment,2020.2.10,Win32,60,6036d0d9a84aa1626184a6ef,16.8363,16.80978166,16.66581176,16.68966736,16.66666511,16.70798147,,,,,,,,,,,,,,,,,,,,PF,weak,3,,,,,,,,3,2.33339,,,,,,,,,,,,,,,,,,,,,,,,,,,,1,weak,-43,-126,1,0,0,response5disk,9,179,4,-4,1,0,0,rectangle,4,-4,1,0,0,7,6,0,0.00054,4,-4,1,0,0,0,16,16,15,1,,,,,,,,,,,,,,,,,,,,,
,,,,,,,,,,,,,,,,,,,,,,,,,,,,,,,,,,,,,,,,,,5b80b3ba16aa4400016a75ef,6036d8afbadcf5791034531c,2021-02-24_15h53.30.534,Colour_Similarity_Experiment,2020.2.10,Win32,60,6036d0d9a84aa1626184a6ef,16.8363,16.80978166,16.66581176,16.68966736,16.66666511,16.70798147,,,,,,,,,,,,,,,,,,,,PF,weak,3,,,,,,,,5,15.133625,,,,,,,,,,,,,,,,,,,,,,,,,,,,8,weak,132,-92,1,0,0,response3disk,3,180,10,-2,1,0,0,rectangle,10,-2,1,0,0,7,5,0,0.00048,10,-2,1,0,0,0,17,17,71,1,,,,,,,,,,,,,,,,,,,,,
,,,,,,,,,,,,,,,,,,,,,,,,,,,,,,,,,,,,,,,,,,5b80b3ba16aa4400016a75ef,6036d8afbadcf5791034531c,2021-02-24_15h53.30.534,Colour_Similarity_Experiment,2020.2.10,Win32,60,6036d0d9a84aa1626184a6ef,16.8363,16.80978166,16.66581176,16.68966736,16.66666511,16.70798147,,,,,,,,,,,,,,,,,,,,PF,weak,3,,,,,,,,6,1.466695,,,,,,,,,,,,,,,,,,,,,,,,,,,,5,weak,132,51,1,0,0,response1disk,1,181,7,1,1,0,0,rectangle,-64,-135,1,0,0,3,3,1,1.9167,18,-2,1,0,0,0,18,18,159,1,response5disk_3,rectangle,,,,,,,,,,,,,,,,,,,
,,,,,,,,,,,,,,,,,,,,,,,,,,,,,,,,,,,,,,,,,,5b80b3ba16aa4400016a75ef,6036d8afbadcf5791034531c,2021-02-24_15h53.30.534,Colour_Similarity_Experiment,2020.2.10,Win32,60,6036d0d9a84aa1626184a6ef,16.8363,16.80978166,16.66581176,16.68966736,16.66666511,16.70798147,,,,,,,,,,,,,,,,,,,,PF,weak,3,,,,,,,,1,1.70005,,,,,,,,,,,,,,,,,,,,,,,,,,,,9,weak,-94,64,1,0,0,response7disk,9,182,6,-3,1,0,0,rectangle,6,-3,1,0,0,3,3,0,0.00008,6,-3,1,0,0,0,19,19,106,1,,,,,,,,,,,,,,,,,,,,,
,,,,,,,,,,,,,,,,,,,,,,,,,,,,,,,,,,,,,,,,,,5b80b3ba16aa4400016a75ef,6036d8afbadcf5791034531c,2021-02-24_15h53.30.534,Colour_Similarity_Experiment,2020.2.10,Win32,60,6036d0d9a84aa1626184a6ef,16.8363,16.80978166,16.66581176,16.68966736,16.66666511,16.70798147,,,,,,,,,,,,,,,,,,,,PF,strong,3,,,,,,,,4,3.666805,,,,,,,,,,,,,,,,,,,,,,,,,,,,5,strong,67,-112,1,0,0,response3disk,8,183,3,-4,1,0,0,rectangle,3,-4,1,0,0,3,7,0,0.00049,3,-4,1,0,0,0,20,20,16,1,,,,,,,,,,,,,,,,,,,,,
,,,,,,,,,,,,,,,,,,,,,,,,,,,,,,,,,,,,,,,,,,5b80b3ba16aa4400016a75ef,6036d8afbadcf5791034531c,2021-02-24_15h53.30.534,Colour_Similarity_Experiment,2020.2.10,Win32,60,6036d0d9a84aa1626184a6ef,16.8363,16.80978166,16.66581176,16.68966736,16.66666511,16.70798147,,,,,,,,,,,,,,,,,,,,PF,weak,3,,,,,,,,5,5.150075,,,,,,,,,,,,,,,,,,,,,,,,,,,,7,weak,96,-57,1,0,0,response3disk,4,184,3,-1,1,0,0,rectangle,3,-1,1,0,0,3,5,0,0.00049,3,-1,1,0,0,0,21,21,43,1,,,,,,,,,,,,,,,,,,,,,
,,,,,,,,,,,,,,,,,,,,,,,,,,,,,,,,,,,,,,,,,,5b80b3ba16aa4400016a75ef,6036d8afbadcf5791034531c,2021-02-24_15h53.30.534,Colour_Similarity_Experiment,2020.2.10,Win32,60,6036d0d9a84aa1626184a6ef,16.8363,16.80978166,16.66581176,16.68966736,16.66666511,16.70798147,,,,,,,,,,,,,,,,,,,,PF,weak,3,,,,,,,,1,1.533355,,,,,,,,,,,,,,,,,,,,,,,,,,,,7,weak,-108,47,1,0,0,response7disk,6,185,14,0,1,0,0,rectangle,14,0,1,0,0,3,7,0,0.000495,14,0,1,0,0,0,22,22,29,1,,,,,,,,,,,,,,,,,,,,,
,,,,,,,,,,,,,,,,,,,,,,,,,,,,,,,,,,,,,,,,,,5b80b3ba16aa4400016a75ef,6036d8afbadcf5791034531c,2021-02-24_15h53.30.534,Colour_Similarity_Experiment,2020.2.10,Win32,60,6036d0d9a84aa1626184a6ef,16.8363,16.80978166,16.66581176,16.68966736,16.66666511,16.70798147,,,,,,,,,,,,,,,,,,,,PF,weak,3,,,,,,,,0,1.06666,,,,,,,,,,,,,,,,,,,,,,,,,,,,7,weak,-51,87,1,0,0,response7disk,7,186,21,-5,1,0,0,rectangle,21,-5,1,0,0,3,0,0,0.000605,21,-5,1,0,0,0,23,23,51,1,,,,,,,,,,,,,,,,,,,,,
,,,,,,,,,,,,,,,,,,,,,,,,,,,,,,,,,,,,,,,,,,5b80b3ba16aa4400016a75ef,6036d8afbadcf5791034531c,2021-02-24_15h53.30.534,Colour_Similarity_Experiment,2020.2.10,Win32,60,6036d0d9a84aa1626184a6ef,16.8363,16.80978166,16.66581176,16.68966736,16.66666511,16.70798147,,,,,,,,,,,,,,,,,,,,PF,strong,3,,,,,,,,6,1.399965,,,,,,,,,,,,,,,,,,,,,,,,,,,,1,strong,90,63,1,0,0,response1disk,6,187,-13,5,1,0,0,rectangle,-13,5,1,0,0,3,1,0,0.00052,-13,5,1,0,0,0,24,24,58,1,,,,,,,,,,,,,,,,,,,,,
,,,,,,,,,,,,,,,,,,,,,,,,,,,,,,,,,,,,,,,,,,5b80b3ba16aa4400016a75ef,6036d8afbadcf5791034531c,2021-02-24_15h53.30.534,Colour_Similarity_Experiment,2020.2.10,Win32,60,6036d0d9a84aa1626184a6ef,16.8363,16.80978166,16.66581176,16.68966736,16.66666511,16.70798147,,,,,,,,,,,,,,,,,,,,PF,strong,3,,,,,,,,6,2.11669,,,,,,,,,,,,,,,,,,,,,,,,,,,,7,strong,118,61,1,0,0,response1disk,3,188,-17,1,1,0,0,rectangle,-17,1,1,0,0,3,5,0,0.000555,-17,1,1,0,0,0,25,25,73,1,,,,,,,,,,,,,,,,,,,,,
,,,,,,,,,,,,,,,,,,,,,,,,,,,,,,,,,,,,,,,,,,5b80b3ba16aa4400016a75ef,6036d8afbadcf5791034531c,2021-02-24_15h53.30.534,Colour_Similarity_Experiment,2020.2.10,Win32,60,6036d0d9a84aa1626184a6ef,16.8363,16.80978166,16.66581176,16.68966736,16.66666511,16.70798147,,,,,,,,,,,,,,,,,,,,PF,weak,3,,,,,,,,4,1.633355,,,,,,,,,,,,,,,,,,,,,,,,,,,,8,weak,66,-107,1,0,0,response3disk,1,189,1,3,1,0,0,rectangle,1,3,1,0,0,3,2,0,0.00047,1,3,1,0,0,0,26,26,57,1,,,,,,,,,,,,,,,,,,,,,
,,,,,,,,,,,,,,,,,,,,,,,,,,,,,,,,,,,,,,,,,,5b80b3ba16aa4400016a75ef,6036d8afbadcf5791034531c,2021-02-24_15h53.30.534,Colour_Similarity_Experiment,2020.2.10,Win32,60,6036d0d9a84aa1626184a6ef,16.8363,16.80978166,16.66581176,16.68966736,16.66666511,16.70798147,,,,,,,,,,,,,,,,,,,,PF,strong,3,,,,,,,,6,1.26666,,,,,,,,,,,,,,,,,,,,,,,,,,,,1,strong,145,53,1,0,0,response1disk,4,190,11,0,1,0,0,rectangle,11,0,1,0,0,3,5,0,0.00048,11,0,1,0,0,0,27,27,135,1,,,,,,,,,,,,,,,,,,,,,
,,,,,,,,,,,,,,,,,,,,,,,,,,,,,,,,,,,,,,,,,,5b80b3ba16aa4400016a75ef,6036d8afbadcf5791034531c,2021-02-24_15h53.30.534,Colour_Similarity_Experiment,2020.2.10,Win32,60,6036d0d9a84aa1626184a6ef,16.8363,16.80978166,16.66581176,16.68966736,16.66666511,16.70798147,,,,,,,,,,,,,,,,,,,,PF,strong,3,,,,,,,,1,1.21671,,,,,,,,,,,,,,,,,,,,,,,,,,,,6,strong,-103,42,1,0,0,response7disk,6,191,11,-4,1,0,0,rectangle,11,-4,1,0,0,3,4,0,0.000465,11,-4,1,0,0,0,28,28,91,1,,,,,,,,,,,,,,,,,,,,,
,,,,,,,,,,,,,,,,,,,,,,,,,,,,,,,,,,,,,,,,,,5b80b3ba16aa4400016a75ef,6036d8afbadcf5791034531c,2021-02-24_15h53.30.534,Colour_Similarity_Experiment,2020.2.10,Win32,60,6036d0d9a84aa1626184a6ef,16.8363,16.80978166,16.66581176,16.68966736,16.66666511,16.70798147,,,,,,,,,,,,,,,,,,,,PF,strong,3,,,,,,,,2,1.483345,,,,,,,,,,,,,,,,,,,,,,,,,,,,4,strong,-103,-63,1,0,0,response5disk,5,192,43,0,1,0,0,rectangle,43,0,1,0,0,3,7,0,0.00049,43,0,1,0,0,0,29,29,116,1,,,,,,,,,,,,,,,,,,,,,
,,,,,,,,,,,,,,,,,,,,,,,,,,,,,,,,,,,,,,,,,,5b80b3ba16aa4400016a75ef,6036d8afbadcf5791034531c,2021-02-24_15h53.30.534,Colour_Similarity_Experiment,2020.2.10,Win32,60,6036d0d9a84aa1626184a6ef,16.8363,16.80978166,16.66581176,16.68966736,16.66666511,16.70798147,,,,,,,,,,,,,,,,,,,,PF,weak,3,,,,,,,,1,1.14994,,,,,,,,,,,,,,,,,,,,,,,,,,,,7,weak,-101,60,1,0,0,response7disk,5,193,9,-7,1,0,0,rectangle,9,-7,1,0,0,3,0,0,0.000515,9,-7,1,0,0,0,30,30,92,1,,,,,,,,,,,,,,,,,,,,,
,,,,,,,,,,,,,,,,,,,,,,,,,,,,,,,,,,,,,,,,,,5b80b3ba16aa4400016a75ef,6036d8afbadcf5791034531c,2021-02-24_15h53.30.534,Colour_Similarity_Experiment,2020.2.10,Win32,60,6036d0d9a84aa1626184a6ef,16.8363,16.80978166,16.66581176,16.68966736,16.66666511,16.70798147,,,,,,,,,,,,,,,,,,,,PF,strong,3,,,,,,,,3,1.58335,,,,,,,,,,,,,,,,,,,,,,,,,,,,5,strong,-31,-100,1,0,0,response5disk,9,194,22,0,1,0,0,rectangle,22,0,1,0,0,3,3,0,0.00059,22,0,1,0,0,0,31,31,61,1,,,,,,,,,,,,,,,,,,,,,
,,,,,,,,,,,,,,,,,,,,,,,,,,,,,,,,,,,,,,,,,,5b80b3ba16aa4400016a75ef,6036d8afbadcf5791034531c,2021-02-24_15h53.30.534,Colour_Similarity_Experiment,2020.2.10,Win32,60,6036d0d9a84aa1626184a6ef,16.8363,16.80978166,16.66581176,16.68966736,16.66666511,16.70798147,,,,,,,,,,,,,,,,,,,,PF,weak,3,,,,,,,,1,1.000115,,,,,,,,,,,,,,,,,,,,,,,,,,,,6,weak,-114,59,1,0,0,response7disk,7,195,32,4,1,0,0,rectangle,32,4,1,0,0,3,2,0,0.00049,32,4,1,0,0,0,32,32,50,1,,,,,,,,,,,,,,,,,,,,,
