key_resp.keys,key_resp.rt,key_resp_16.keys,key_resp_16.rt,key_resp_2.keys,key_resp_2.rt,X Scale,ratio_pxpermm,screen_size_x,screen_size_y,testsize,key_resp_3.keys,key_resp_4.keys,key_resp_4.rt,line_size,key_resp_5.keys,key_resp_5.rt,key_resp_6.keys,key_resp_6.rt,key_resp_8.keys,key_resp_8.rt,key_resp_7.keys,key_resp_7.rt,key_resp_12.keys,key_resp_12.rt,key_resp_11.keys,key_resp_11.rt,key_resp_18.keys,key_resp_18.rt,key_resp_21.keys,key_resp_21.rt,key_resp_13.keys,key_resp_13.rt,key_resp_19.keys,key_resp_19.rt,ballposx,viewer_distance,trials.thisRepN,trials.thisTrialN,trials.thisN,trials.thisIndex,trials.ran,participant,session,date,expName,psychopyVersion,OS,frameRate,study_id,realFrameRate1,realFrameRate2,realFrameRate3,realFrameRate4,realFrameRate5,realFrameRate,viewerdistancecm,DVA_to_distance,radius_F,radius_P,r_F,R_P,key_resp_20.keys,key_resp_20.rt,key_resp_14.keys,key_resp_14.rt,key_resp_15.keys,key_resp_15.rt,key_resp_17.keys,key_resp_17.rt,key_resp_9.keys,key_resp_9.rt,key_resp_10.keys,key_resp_10.rt,Colour_1,Ecc,maskCon,mask_frames,mouse_5.x,mouse_5.y,mouse_5.leftButton,mouse_5.midButton,mouse_5.rightButton,mouse_5.clicked_name,Colour_2,similarity,response_time,mouse_10.x,mouse_10.y,mouse_10.leftButton,mouse_10.midButton,mouse_10.rightButton,mouse_10.clicked_name,mouse_7.x,mouse_7.y,mouse_7.leftButton,mouse_7.midButton,mouse_7.rightButton,catchnumberprac,mouse_6.x,mouse_6.y,mouse_6.leftButton,mouse_6.midButton,mouse_6.rightButton,duringprac.thisRepN,duringprac.thisTrialN,duringprac.thisN,duringprac.thisIndex,duringprac.ran,mouse_7.clicked_name,catchprac,mouse_6.clicked_name,key_resp_22.keys,key_resp_22.rt,Colour1,maskCon1,mouse.x,mouse.y,mouse.leftButton,mouse.midButton,mouse.rightButton,mouse.clicked_name,Colour2,trialnumber,mouse_2.x,mouse_2.y,mouse_2.leftButton,mouse_2.midButton,mouse_2.rightButton,mouse_2.clicked_name,mouse_3.x,mouse_3.y,mouse_3.leftButton,mouse_3.midButton,mouse_3.rightButton,catchresponse,catchnumber,Catch,response_time_catch,mouse_11.x,mouse_11.y,mouse_11.leftButton,mouse_11.midButton,mouse_11.rightButton,trials_2.thisRepN,trials_2.thisTrialN,trials_2.thisN,trials_2.thisIndex,trials_2.ran,mouse_3.clicked_name,mouse_11.clicked_name,trials_3.thisRepN,trials_3.thisTrialN,trials_3.thisN,trials_3.thisIndex,trials_3.ran,answer1,rt1,answer2,rt2,answer3,rt3,answer4,rt4,answer5,rt5,answer6,rt6,answer7,rt7
space,1.90906,space,13.00601,space,4.365175,44.9,4.49,342.0935412,192.4276169,1536,,space,22.5059,89.8,space,7.07334,space,4.605445,space,0.922945,space,1.453795,space,3.62328,space,7.08578,space,10.483225,space,5.42294,space,4.919565,return,5.916535,-244.224,796.5317767,0,0,0,0,1,5b8fe84a1a3ec10001a81642,6036eda1c18d8f66cec1503f,2021-02-24_21h22.16.385,Colour_Similarity_Experiment,2020.2.10,Win32,60,6036d0d9a84aa1626184a6ef,17.15476087,16.68140665,16.66335938,16.66503328,16.66397436,16.66844342,,,,,,,,,,,,,,,,,,,,,,,,,,,,,,,,,,,,,,,,,,,,,,,,,,,,,,,,,,,,,,,,,,,,,,,,,,,,,,,,,,,,,,,,,,,,,,,,,,,,,,,,,,,,,,,,,,
,,,,,,,,,,,,,,,,,,,,,,,,,,,,,,,,,return,8.27913,-571.392,1100.040307,1,0,1,0,1,5b8fe84a1a3ec10001a81642,6036eda1c18d8f66cec1503f,2021-02-24_21h22.16.385,Colour_Similarity_Experiment,2020.2.10,Win32,60,6036d0d9a84aa1626184a6ef,17.15476087,16.68140665,16.66335938,16.66503328,16.66397436,16.66844342,,,,,,,,,,,,,,,,,,,,,,,,,,,,,,,,,,,,,,,,,,,,,,,,,,,,,,,,,,,,,,,,,,,,,,,,,,,,,,,,,,,,,,,,,,,,,,,,,,,,,,,,,,,,,,,,,,
,,,,,,,,,,,,,,,,,,,,,,,,,,,,,,,,,return,5.138035,-135.936,696.0747279,2,0,2,0,1,5b8fe84a1a3ec10001a81642,6036eda1c18d8f66cec1503f,2021-02-24_21h22.16.385,Colour_Similarity_Experiment,2020.2.10,Win32,60,6036d0d9a84aa1626184a6ef,17.15476087,16.68140665,16.66335938,16.66503328,16.66397436,16.66844342,,,,,,,,,,,,,,,,,,,,,,,,,,,,,,,,,,,,,,,,,,,,,,,,,,,,,,,,,,,,,,,,,,,,,,,,,,,,,,,,,,,,,,,,,,,,,,,,,,,,,,,,,,,,,,,,,,
,,,,,,,,,,,,,,,,,,,,,,,,,,,,,,,,,return,4.974405,-112.896,674.7008877,3,0,3,0,1,5b8fe84a1a3ec10001a81642,6036eda1c18d8f66cec1503f,2021-02-24_21h22.16.385,Colour_Similarity_Experiment,2020.2.10,Win32,60,6036d0d9a84aa1626184a6ef,17.15476087,16.68140665,16.66335938,16.66503328,16.66397436,16.66844342,,,,,,,,,,,,,,,,,,,,,,,,,,,,,,,,,,,,,,,,,,,,,,,,,,,,,,,,,,,,,,,,,,,,,,,,,,,,,,,,,,,,,,,,,,,,,,,,,,,,,,,,,,,,,,,,,,
,,,,,,,,,,,,,,,,,,,,,,,,,,,,,,,,,return,5.06807,-126.72,687.5251918,4,0,4,0,1,5b8fe84a1a3ec10001a81642,6036eda1c18d8f66cec1503f,2021-02-24_21h22.16.385,Colour_Similarity_Experiment,2020.2.10,Win32,60,6036d0d9a84aa1626184a6ef,17.15476087,16.68140665,16.66335938,16.66503328,16.66397436,16.66844342,,,,,,,,,,,,,,,,,,,,,,,,,,,,,,,,,,,,,,,,,,,,,,,,,,,,,,,,,,,,,,,,,,,,,,,,,,,,,,,,,,,,,,,,,,,,,,,,,,,,,,,,,,,,,,,,,,
,,,,,,,,,,,,,,,,,,,,,,,,,,,,,,,,,,,,,,,,,,5b8fe84a1a3ec10001a81642,6036eda1c18d8f66cec1503f,2021-02-24_21h22.16.385,Colour_Similarity_Experiment,2020.2.10,Win32,60,6036d0d9a84aa1626184a6ef,17.15476087,16.68140665,16.66335938,16.66503328,16.66397436,16.66844342,69,12.04399049,81.11627597,540.7751731,54.07751731,243.3488279,space,3.1068,space,12.05268,space,12.632175,space,6.64017,space,1.881665,space,2.801305,8,PF,weak,3,44.0000121,101.5999951,1,0,0,response1disk_5,1,7,14.863695,1.14441E-05,-8.000006557,1,0,0,rectangle_8,1.14441E-05,-8.000006557,1,0,0,6,1.14441E-05,-8.000006557,1,0,0,0,0,0,6,1,,,,,,,,,,,,,,,,,,,,,,,,,,,,,,,,,,,,,,,,,,,,,,,,,,,,,,,,,,,,,
,,,,,,,,,,,,,,,,,,,,,,,,,,,,,,,,,,,,,,,,,,5b8fe84a1a3ec10001a81642,6036eda1c18d8f66cec1503f,2021-02-24_21h22.16.385,Colour_Similarity_Experiment,2020.2.10,Win32,60,6036d0d9a84aa1626184a6ef,17.15476087,16.68140665,16.66335938,16.66503328,16.66397436,16.66844342,,,,,,,,,,,,,,,,,,,8,PF,weak,3,-28.79998899,-82.40000767,1,0,0,response5disk_5,1,3,11.199335,1.14441E-05,1.599993587,1,0,0,rectangle_8,1.14441E-05,1.599993587,1,0,0,6,1.14441E-05,1.599993587,1,0,0,0,1,1,5,1,,,,,,,,,,,,,,,,,,,,,,,,,,,,,,,,,,,,,,,,,,,,,,,,,,,,,,,,,,,,,
,,,,,,,,,,,,,,,,,,,,,,,,,,,,,,,,,,,,,,,,,,5b8fe84a1a3ec10001a81642,6036eda1c18d8f66cec1503f,2021-02-24_21h22.16.385,Colour_Similarity_Experiment,2020.2.10,Win32,60,6036d0d9a84aa1626184a6ef,17.15476087,16.68140665,16.66335938,16.66503328,16.66397436,16.66844342,,,,,,,,,,,,,,,,,,,7,PF,weak,3,-31.99998903,-94.40000784,1,0,0,response5disk_5,8,3,10.21596,10.4000116,3.999993622,1,0,0,rectangle_8,10.4000116,3.999993622,1,0,0,6,10.4000116,3.999993622,1,0,0,0,2,2,4,1,,,,,,,,,,,,,,,,,,,,,,,,,,,,,,,,,,,,,,,,,,,,,,,,,,,,,,,,,,,,,
,,,,,,,,,,,,,,,,,,,,,,,,,,,,,,,,,,,,,,,,,,5b8fe84a1a3ec10001a81642,6036eda1c18d8f66cec1503f,2021-02-24_21h22.16.385,Colour_Similarity_Experiment,2020.2.10,Win32,60,6036d0d9a84aa1626184a6ef,17.15476087,16.68140665,16.66335938,16.66503328,16.66397436,16.66844342,,,,,,,,,,,,,,,,,,,4,PF,weak,3,60.80001235,87.99999487,1,0,0,response1disk_5,3,7,3.599685,10.4000116,-6.400006533,1,0,0,rectangle_8,90.40001279,39.99999416,1,0,0,6,-3.199988604,-5.600006521,1,0,0,0,3,3,1,1,response1disk_7,6,rectangle_4,,,,,,,,,,,,,,,,,,,,,,,,,,,,,,,,,,,,,,,,,,,,,,,,,,,,,,,,,,
,,,,,,,,,,,,,,,,,,,,,,,,,,,,,,,,,,,,,,,,,,5b8fe84a1a3ec10001a81642,6036eda1c18d8f66cec1503f,2021-02-24_21h22.16.385,Colour_Similarity_Experiment,2020.2.10,Win32,60,6036d0d9a84aa1626184a6ef,17.15476087,16.68140665,16.66335938,16.66503328,16.66397436,16.66844342,,,,,,,,,,,,,,,,,,,4,PF,strong,3,51.20001221,104.7999951,1,0,0,response1disk_5,7,7,3.182585,0.800011456,-4.800006509,1,0,0,rectangle_8,108.0000131,40.79999417,1,0,0,6,-6.399939823,-8.000006557,1,0,0,0,4,4,3,1,response1disk_7,6,rectangle_4,,,,,,,,,,,,,,,,,,,,,,,,,,,,,,,,,,,,,,,,,,,,,,,,,,,,,,,,,,
,,,,,,,,,,,,,,,,,,,,,,,,,,,,,,,,,,,,,,,,,,5b8fe84a1a3ec10001a81642,6036eda1c18d8f66cec1503f,2021-02-24_21h22.16.385,Colour_Similarity_Experiment,2020.2.10,Win32,60,6036d0d9a84aa1626184a6ef,17.15476087,16.68140665,16.66335938,16.66503328,16.66397436,16.66844342,,,,,,,,,,,,,,,,,,,7,PF,strong,3,-90.39994107,29.599994,1,0,0,response7disk_5,7,1,7.032535,-3.999988616,-0.800006449,1,0,0,rectangle_8,-3.999988616,-0.800006449,1,0,0,6,-3.999988616,-0.800006449,1,0,0,0,5,5,0,1,,,,,,,,,,,,,,,,,,,,,,,,,,,,,,,,,,,,,,,,,,,,,,,,,,,,,,,,,,,,,
,,,,,,,,,,,,,,,,,,,,,,,,,,,,,,,,,,,,,,,,,,5b8fe84a1a3ec10001a81642,6036eda1c18d8f66cec1503f,2021-02-24_21h22.16.385,Colour_Similarity_Experiment,2020.2.10,Win32,60,6036d0d9a84aa1626184a6ef,17.15476087,16.68140665,16.66335938,16.66503328,16.66397436,16.66844342,,,,,,,,,,,,,,,,,,,8,PF,strong,3,-92.79998994,-41.60000706,1,0,0,response5disk_5,6,2,4.466055,1.600060296,-8.000006557,1,0,0,rectangle_8,1.600060296,-8.000006557,1,0,0,6,1.600060296,-8.000006557,1,0,0,0,6,6,2,1,,,,,,,,,,,,,,,,,,,,,,,,,,,,,,,,,,,,,,,,,,,,,,,,,,,,,,,,,,,,,
,,,,,,,,,,,,,,,,,,,,,,,,,,,,,,,,,,,,,,,,,,5b8fe84a1a3ec10001a81642,6036eda1c18d8f66cec1503f,2021-02-24_21h22.16.385,Colour_Similarity_Experiment,2020.2.10,Win32,60,6036d0d9a84aa1626184a6ef,17.15476087,16.68140665,16.66335938,16.66503328,16.66397436,16.66844342,,,,,,,,,,,,,,,,,,,,PF,strong,3,,,,,,,,2,6.21552,,,,,,,,,,,,,,,,,,,,,,,,,,space,3.380975,6,strong,-83.99998981,-43.20000708,1,0,0,response5disk,7,1,3.200011492,2.399993598,1,0,0,rectangle,3.200011492,2.399993598,1,0,0,,4,0,0.00148,3.200011492,2.399993598,1,0,0,0,0,0,18,1,,,,,,,,,,,,,,,,,,,,,
,,,,,,,,,,,,,,,,,,,,,,,,,,,,,,,,,,,,,,,,,,5b8fe84a1a3ec10001a81642,6036eda1c18d8f66cec1503f,2021-02-24_21h22.16.385,Colour_Similarity_Experiment,2020.2.10,Win32,60,6036d0d9a84aa1626184a6ef,17.15476087,16.68140665,16.66335938,16.66503328,16.66397436,16.66844342,,,,,,,,,,,,,,,,,,,,PF,strong,3,,,,,,,,0,2.61724,,,,,,,,,,,,,,,,,,,,,,,,,,,,9,strong,-38.3999403,92.79999495,1,0,0,response7disk,7,2,-3.999988616,-3.200006485,1,0,0,rectangle,-3.999988616,-3.200006485,1,0,0,,5,0,0.00057,-3.999988616,-3.200006485,1,0,0,0,1,1,100,1,,,,,,,,,,,,,,,,,,,,,
,,,,,,,,,,,,,,,,,,,,,,,,,,,,,,,,,,,,,,,,,,5b8fe84a1a3ec10001a81642,6036eda1c18d8f66cec1503f,2021-02-24_21h22.16.385,Colour_Similarity_Experiment,2020.2.10,Win32,60,6036d0d9a84aa1626184a6ef,17.15476087,16.68140665,16.66335938,16.66503328,16.66397436,16.66844342,,,,,,,,,,,,,,,,,,,,PF,weak,3,,,,,,,,7,6.349095,,,,,,,,,,,,,,,,,,,,,,,,,,,,6,weak,43.20001209,104.7999951,1,0,0,response1disk,4,3,-11.99998873,0.799993575,1,0,0,rectangle,-11.99998873,0.799993575,1,0,0,,3,0,0.000645,-11.99998873,0.799993575,1,0,0,0,2,2,33,1,,,,,,,,,,,,,,,,,,,,,
,,,,,,,,,,,,,,,,,,,,,,,,,,,,,,,,,,,,,,,,,,5b8fe84a1a3ec10001a81642,6036eda1c18d8f66cec1503f,2021-02-24_21h22.16.385,Colour_Similarity_Experiment,2020.2.10,Win32,60,6036d0d9a84aa1626184a6ef,17.15476087,16.68140665,16.66335938,16.66503328,16.66397436,16.66844342,,,,,,,,,,,,,,,,,,,,PF,strong,3,,,,,,,,3,4.99924,,,,,,,,,,,,,,,,,,,,,,,,,,,,1,strong,-22.39994006,-110.4000081,1,0,0,response5disk,5,4,10.4000116,-3.200006485,1,0,0,rectangle,10.4000116,-3.200006485,1,0,0,,6,0,0.000615,10.4000116,-3.200006485,1,0,0,0,3,3,82,1,,,,,,,,,,,,,,,,,,,,,
,,,,,,,,,,,,,,,,,,,,,,,,,,,,,,,,,,,,,,,,,,5b8fe84a1a3ec10001a81642,6036eda1c18d8f66cec1503f,2021-02-24_21h22.16.385,Colour_Similarity_Experiment,2020.2.10,Win32,60,6036d0d9a84aa1626184a6ef,17.15476087,16.68140665,16.66335938,16.66503328,16.66397436,16.66844342,,,,,,,,,,,,,,,,,,,,PF,weak,3,,,,,,,,6,5.932975,,,,,,,,,,,,,,,,,,,,,,,,,,,,3,weak,89.60001278,43.99999422,1,0,0,response1disk,6,5,1.14441E-05,6.399993658,1,0,0,rectangle,1.14441E-05,6.399993658,1,0,0,,0,0,0.00051,1.14441E-05,6.399993658,1,0,0,0,4,4,47,1,,,,,,,,,,,,,,,,,,,,,
,,,,,,,,,,,,,,,,,,,,,,,,,,,,,,,,,,,,,,,,,,5b8fe84a1a3ec10001a81642,6036eda1c18d8f66cec1503f,2021-02-24_21h22.16.385,Colour_Similarity_Experiment,2020.2.10,Win32,60,6036d0d9a84aa1626184a6ef,17.15476087,16.68140665,16.66335938,16.66503328,16.66397436,16.66844342,,,,,,,,,,,,,,,,,,,,PF,weak,3,,,,,,,,7,2.299655,,,,,,,,,,,,,,,,,,,,,,,,,,,,2,weak,47.20001215,95.99999499,1,0,0,response1disk,2,6,-5.599988639,3.19999361,1,0,0,rectangle,-5.599988639,3.19999361,1,0,0,,7,0,0.00057,-5.599988639,3.19999361,1,0,0,0,5,5,14,1,,,,,,,,,,,,,,,,,,,,,
,,,,,,,,,,,,,,,,,,,,,,,,,,,,,,,,,,,,,,,,,,5b8fe84a1a3ec10001a81642,6036eda1c18d8f66cec1503f,2021-02-24_21h22.16.385,Colour_Similarity_Experiment,2020.2.10,Win32,60,6036d0d9a84aa1626184a6ef,17.15476087,16.68140665,16.66335938,16.66503328,16.66397436,16.66844342,,,,,,,,,,,,,,,,,,,,PF,weak,3,,,,,,,,7,1.816215,,,,,,,,,,,,,,,,,,,,,,,,,,,,6,weak,46.40001214,101.5999951,1,0,0,response1disk,5,7,-6.399939823,0.799993575,1,0,0,rectangle,-6.399939823,0.799993575,1,0,0,,1,0,0.00058,-6.399939823,0.799993575,1,0,0,0,6,6,59,1,,,,,,,,,,,,,,,,,,,,,
,,,,,,,,,,,,,,,,,,,,,,,,,,,,,,,,,,,,,,,,,,5b8fe84a1a3ec10001a81642,6036eda1c18d8f66cec1503f,2021-02-24_21h22.16.385,Colour_Similarity_Experiment,2020.2.10,Win32,60,6036d0d9a84aa1626184a6ef,17.15476087,16.68140665,16.66335938,16.66503328,16.66397436,16.66844342,,,,,,,,,,,,,,,,,,,,PF,strong,3,,,,,,,,1,7.54988,,,,,,,,,,,,,,,,,,,,,,,,,,,,3,strong,-94.39994113,33.59999406,1,0,0,response7disk,3,8,-12.79998875,0.799993575,1,0,0,rectangle,-12.79998875,0.799993575,1,0,0,,6,0,0.000865,-12.79998875,0.799993575,1,0,0,0,7,7,68,1,,,,,,,,,,,,,,,,,,,,,
,,,,,,,,,,,,,,,,,,,,,,,,,,,,,,,,,,,,,,,,,,5b8fe84a1a3ec10001a81642,6036eda1c18d8f66cec1503f,2021-02-24_21h22.16.385,Colour_Similarity_Experiment,2020.2.10,Win32,60,6036d0d9a84aa1626184a6ef,17.15476087,16.68140665,16.66335938,16.66503328,16.66397436,16.66844342,,,,,,,,,,,,,,,,,,,,PF,weak,3,,,,,,,,7,2.066465,,,,,,,,,,,,,,,,,,,,,,,,,,,,7,weak,49.60006101,94.39999497,1,0,0,response1disk,2,9,-7.999988675,-8.800006568,1,0,0,rectangle,-7.999988675,-8.800006568,1,0,0,,3,0,0.000535,-7.999988675,-8.800006568,1,0,0,0,8,8,32,1,,,,,,,,,,,,,,,,,,,,,
,,,,,,,,,,,,,,,,,,,,,,,,,,,,,,,,,,,,,,,,,,5b8fe84a1a3ec10001a81642,6036eda1c18d8f66cec1503f,2021-02-24_21h22.16.385,Colour_Similarity_Experiment,2020.2.10,Win32,60,6036d0d9a84aa1626184a6ef,17.15476087,16.68140665,16.66335938,16.66503328,16.66397436,16.66844342,,,,,,,,,,,,,,,,,,,,PF,strong,3,,,,,,,,7,3.216635,,,,,,,,,,,,,,,,,,,,,,,,,,,,8,strong,53.60001224,92.79999495,1,0,0,response1disk,6,10,-7.999988675,-10.40000659,1,0,0,rectangle,-7.999988675,-10.40000659,1,0,0,,6,0,0.00063,-7.999988675,-10.40000659,1,0,0,0,9,9,37,1,,,,,,,,,,,,,,,,,,,,,
,,,,,,,,,,,,,,,,,,,,,,,,,,,,,,,,,,,,,,,,,,5b8fe84a1a3ec10001a81642,6036eda1c18d8f66cec1503f,2021-02-24_21h22.16.385,Colour_Similarity_Experiment,2020.2.10,Win32,60,6036d0d9a84aa1626184a6ef,17.15476087,16.68140665,16.66335938,16.66503328,16.66397436,16.66844342,,,,,,,,,,,,,,,,,,,,PF,weak,3,,,,,,,,7,1.682285,,,,,,,,,,,,,,,,,,,,,,,,,,,,7,weak,56.80001229,118.3999953,1,0,0,response1disk,1,11,-3.199988604,1.599993587,1,0,0,rectangle,-3.199988604,1.599993587,1,0,0,,4,0,0.000625,-3.199988604,1.599993587,1,0,0,0,10,10,53,1,,,,,,,,,,,,,,,,,,,,,
,,,,,,,,,,,,,,,,,,,,,,,,,,,,,,,,,,,,,,,,,,5b8fe84a1a3ec10001a81642,6036eda1c18d8f66cec1503f,2021-02-24_21h22.16.385,Colour_Similarity_Experiment,2020.2.10,Win32,60,6036d0d9a84aa1626184a6ef,17.15476087,16.68140665,16.66335938,16.66503328,16.66397436,16.66844342,,,,,,,,,,,,,,,,,,,,PF,weak,3,,,,,,,,4,3.766195,,,,,,,,,,,,,,,,,,,,,,,,,,,,1,weak,28.80001187,-105.6000568,1,0,0,response3disk,2,12,2.40001148,-3.200006485,1,0,0,rectangle,2.40001148,-3.200006485,1,0,0,,1,0,0.000605,2.40001148,-3.200006485,1,0,0,0,11,11,24,1,,,,,,,,,,,,,,,,,,,,,
,,,,,,,,,,,,,,,,,,,,,,,,,,,,,,,,,,,,,,,,,,5b8fe84a1a3ec10001a81642,6036eda1c18d8f66cec1503f,2021-02-24_21h22.16.385,Colour_Similarity_Experiment,2020.2.10,Win32,60,6036d0d9a84aa1626184a6ef,17.15476087,16.68140665,16.66335938,16.66503328,16.66397436,16.66844342,,,,,,,,,,,,,,,,,,,,PF,weak,3,,,,,,,,6,3.5336,,,,,,,,,,,,,,,,,,,,,,,,,,,,8,weak,92.80001283,54.39999437,1,0,0,response1disk,6,13,7.200011551,-1.600006461,1,0,0,rectangle,43.20001209,110.3999952,1,0,0,7,7,1,3.132835,-1.59998858,-7.200006545,1,0,0,0,12,12,161,1,response1disk_3,rectangle,,,,,,,,,,,,,,,,,,,
,,,,,,,,,,,,,,,,,,,,,,,,,,,,,,,,,,,,,,,,,,5b8fe84a1a3ec10001a81642,6036eda1c18d8f66cec1503f,2021-02-24_21h22.16.385,Colour_Similarity_Experiment,2020.2.10,Win32,60,6036d0d9a84aa1626184a6ef,17.15476087,16.68140665,16.66335938,16.66503328,16.66397436,16.66844342,,,,,,,,,,,,,,,,,,,,PF,strong,3,,,,,,,,3,5.58233,,,,,,,,,,,,,,,,,,,,,,,,,,,,1,strong,-39.99998915,-71.2000075,1,0,0,response5disk,7,14,-4.799988627,-1.600006461,1,0,0,rectangle,-4.799988627,-1.600006461,1,0,0,7,3,0,0.00062,-4.799988627,-1.600006461,1,0,0,0,13,13,137,1,,,,,,,,,,,,,,,,,,,,,
,,,,,,,,,,,,,,,,,,,,,,,,,,,,,,,,,,,,,,,,,,5b8fe84a1a3ec10001a81642,6036eda1c18d8f66cec1503f,2021-02-24_21h22.16.385,Colour_Similarity_Experiment,2020.2.10,Win32,60,6036d0d9a84aa1626184a6ef,17.15476087,16.68140665,16.66335938,16.66503328,16.66397436,16.66844342,,,,,,,,,,,,,,,,,,,,PF,strong,3,,,,,,,,4,3.183075,,,,,,,,,,,,,,,,,,,,,,,,,,,,2,strong,40.00001204,-94.40000784,1,0,0,response3disk,8,15,-10.39993988,-1.600006461,1,0,0,rectangle,-10.39993988,-1.600006461,1,0,0,7,3,0,0.000115,-10.39993988,-1.600006461,1,0,0,0,14,14,62,1,,,,,,,,,,,,,,,,,,,,,
,,,,,,,,,,,,,,,,,,,,,,,,,,,,,,,,,,,,,,,,,,5b8fe84a1a3ec10001a81642,6036eda1c18d8f66cec1503f,2021-02-24_21h22.16.385,Colour_Similarity_Experiment,2020.2.10,Win32,60,6036d0d9a84aa1626184a6ef,17.15476087,16.68140665,16.66335938,16.66503328,16.66397436,16.66844342,,,,,,,,,,,,,,,,,,,,PF,weak,3,,,,,,,,7,1.182895,,,,,,,,,,,,,,,,,,,,,,,,,,,,7,weak,40.80001205,109.5999952,1,0,0,response1disk,3,16,-16.79998881,0.799993575,1,0,0,rectangle,-16.79998881,0.799993575,1,0,0,7,1,0,0.001385,-16.79998881,0.799993575,1,0,0,0,15,15,81,1,,,,,,,,,,,,,,,,,,,,,
,,,,,,,,,,,,,,,,,,,,,,,,,,,,,,,,,,,,,,,,,,5b8fe84a1a3ec10001a81642,6036eda1c18d8f66cec1503f,2021-02-24_21h22.16.385,Colour_Similarity_Experiment,2020.2.10,Win32,60,6036d0d9a84aa1626184a6ef,17.15476087,16.68140665,16.66335938,16.66503328,16.66397436,16.66844342,,,,,,,,,,,,,,,,,,,,PF,strong,3,,,,,,,,1,2.349925,,,,,,,,,,,,,,,,,,,,,,,,,,,,5,strong,-95.19998997,42.39999419,1,0,0,response7disk,4,17,-7.199988663,-4.800006509,1,0,0,rectangle,-7.199988663,-4.800006509,1,0,0,7,0,0,0.00056,-7.199988663,-4.800006509,1,0,0,0,16,16,8,1,,,,,,,,,,,,,,,,,,,,,
,,,,,,,,,,,,,,,,,,,,,,,,,,,,,,,,,,,,,,,,,,5b8fe84a1a3ec10001a81642,6036eda1c18d8f66cec1503f,2021-02-24_21h22.16.385,Colour_Similarity_Experiment,2020.2.10,Win32,60,6036d0d9a84aa1626184a6ef,17.15476087,16.68140665,16.66335938,16.66503328,16.66397436,16.66844342,,,,,,,,,,,,,,,,,,,,PF,weak,3,,,,,,,,0,1.91651,,,,,,,,,,,,,,,,,,,,,,,,,,,,1,weak,-47.19998926,115.1999709,1,0,0,response7disk,4,18,-9.599988699,9.599993706,1,0,0,rectangle,-9.599988699,9.599993706,1,0,0,7,4,0,0.000745,-9.599988699,9.599993706,1,0,0,0,17,17,139,1,,,,,,,,,,,,,,,,,,,,,
,,,,,,,,,,,,,,,,,,,,,,,,,,,,,,,,,,,,,,,,,,5b8fe84a1a3ec10001a81642,6036eda1c18d8f66cec1503f,2021-02-24_21h22.16.385,Colour_Similarity_Experiment,2020.2.10,Win32,60,6036d0d9a84aa1626184a6ef,17.15476087,16.68140665,16.66335938,16.66503328,16.66397436,16.66844342,,,,,,,,,,,,,,,,,,,,PF,weak,3,,,,,,,,7,1.333185,,,,,,,,,,,,,,,,,,,,,,,,,,,,2,weak,38.40001202,99.99999505,1,0,0,response1disk,7,19,-7.999988675,0.799993575,1,0,0,rectangle,-7.999988675,0.799993575,1,0,0,7,0,0,0.001015,-7.999988675,0.799993575,1,0,0,0,18,18,107,1,,,,,,,,,,,,,,,,,,,,,
,,,,,,,,,,,,,,,,,,,,,,,,,,,,,,,,,,,,,,,,,,5b8fe84a1a3ec10001a81642,6036eda1c18d8f66cec1503f,2021-02-24_21h22.16.385,Colour_Similarity_Experiment,2020.2.10,Win32,60,6036d0d9a84aa1626184a6ef,17.15476087,16.68140665,16.66335938,16.66503328,16.66397436,16.66844342,,,,,,,,,,,,,,,,,,,,PF,weak,3,,,,,,,,4,2.6494,,,,,,,,,,,,,,,,,,,,,,,,,,,,1,weak,56.80001229,-96.80000788,1,0,0,response3disk,8,20,17.60006053,1.599993587,1,0,0,rectangle,17.60006053,1.599993587,1,0,0,7,2,0,0.00062,17.60006053,1.599993587,1,0,0,0,19,19,65,1,,,,,,,,,,,,,,,,,,,,,
,,,,,,,,,,,,,,,,,,,,,,,,,,,,,,,,,,,,,,,,,,5b8fe84a1a3ec10001a81642,6036eda1c18d8f66cec1503f,2021-02-24_21h22.16.385,Colour_Similarity_Experiment,2020.2.10,Win32,60,6036d0d9a84aa1626184a6ef,17.15476087,16.68140665,16.66335938,16.66503328,16.66397436,16.66844342,,,,,,,,,,,,,,,,,,,,PF,strong,3,,,,,,,,3,4.766175,,,,,,,,,,,,,,,,,,,,,,,,,,,,7,strong,-37.59998912,-118.4000082,1,0,0,response5disk,9,21,-1.59998858,5.599993646,1,0,0,rectangle,-1.59998858,5.599993646,1,0,0,7,7,0,0.000695,-1.59998858,5.599993646,1,0,0,0,20,20,155,1,,,,,,,,,,,,,,,,,,,,,
,,,,,,,,,,,,,,,,,,,,,,,,,,,,,,,,,,,,,,,,,,5b8fe84a1a3ec10001a81642,6036eda1c18d8f66cec1503f,2021-02-24_21h22.16.385,Colour_Similarity_Experiment,2020.2.10,Win32,60,6036d0d9a84aa1626184a6ef,17.15476087,16.68140665,16.66335938,16.66503328,16.66397436,16.66844342,,,,,,,,,,,,,,,,,,,,PF,weak,3,,,,,,,,7,1.183215,,,,,,,,,,,,,,,,,,,,,,,,,,,,2,weak,54.40001225,121.5999954,1,0,0,response1disk,6,22,-6.399939823,-10.40000659,1,0,0,rectangle,-6.399939823,-10.40000659,1,0,0,7,3,0,0.00052,-6.399939823,-10.40000659,1,0,0,0,21,21,113,1,,,,,,,,,,,,,,,,,,,,,
,,,,,,,,,,,,,,,,,,,,,,,,,,,,,,,,,,,,,,,,,,5b8fe84a1a3ec10001a81642,6036eda1c18d8f66cec1503f,2021-02-24_21h22.16.385,Colour_Similarity_Experiment,2020.2.10,Win32,60,6036d0d9a84aa1626184a6ef,17.15476087,16.68140665,16.66335938,16.66503328,16.66397436,16.66844342,,,,,,,,,,,,,,,,,,,,PF,weak,3,,,,,,,,6,3.41639,,,,,,,,,,,,,,,,,,,,,,,,,,,,3,weak,106.400013,41.59999418,1,0,0,response1disk,3,23,-7.999988675,-4.800006509,1,0,0,rectangle,-7.999988675,-4.800006509,1,0,0,7,4,0,0.000565,-7.999988675,-4.800006509,1,0,0,0,22,22,4,1,,,,,,,,,,,,,,,,,,,,,
,,,,,,,,,,,,,,,,,,,,,,,,,,,,,,,,,,,,,,,,,,5b8fe84a1a3ec10001a81642,6036eda1c18d8f66cec1503f,2021-02-24_21h22.16.385,Colour_Similarity_Experiment,2020.2.10,Win32,60,6036d0d9a84aa1626184a6ef,17.15476087,16.68140665,16.66335938,16.66503328,16.66397436,16.66844342,,,,,,,,,,,,,,,,,,,,PF,weak,3,,,,,,,,0,1.416235,,,,,,,,,,,,,,,,,,,,,,,,,,,,4,weak,-43.99998921,118.3999953,1,0,0,response7disk,3,24,0.800011456,7.999993682,1,0,0,rectangle,0.800011456,7.999993682,1,0,0,7,1,0,0.000525,0.800011456,7.999993682,1,0,0,0,23,23,89,1,,,,,,,,,,,,,,,,,,,,,
,,,,,,,,,,,,,,,,,,,,,,,,,,,,,,,,,,,,,,,,,,5b8fe84a1a3ec10001a81642,6036eda1c18d8f66cec1503f,2021-02-24_21h22.16.385,Colour_Similarity_Experiment,2020.2.10,Win32,60,6036d0d9a84aa1626184a6ef,17.15476087,16.68140665,16.66335938,16.66503328,16.66397436,16.66844342,,,,,,,,,,,,,,,,,,,,PF,weak,3,,,,,,,,0,1.215175,,,,,,,,,,,,,,,,,,,,,,,,,,,,2,weak,-34.39994024,110.3999952,1,0,0,response7disk,3,25,-7.199988663,1.599993587,1,0,0,rectangle,-7.199988663,1.599993587,1,0,0,7,6,0,0.00056,-7.199988663,1.599993587,1,0,0,0,24,24,69,1,,,,,,,,,,,,,,,,,,,,,
,,,,,,,,,,,,,,,,,,,,,,,,,,,,,,,,,,,,,,,,,,5b8fe84a1a3ec10001a81642,6036eda1c18d8f66cec1503f,2021-02-24_21h22.16.385,Colour_Similarity_Experiment,2020.2.10,Win32,60,6036d0d9a84aa1626184a6ef,17.15476087,16.68140665,16.66335938,16.66503328,16.66397436,16.66844342,,,,,,,,,,,,,,,,,,,,PF,strong,3,,,,,,,,7,2.43296,,,,,,,,,,,,,,,,,,,,,,,,,,,,9,strong,42.40001208,112.7999952,1,0,0,response1disk,8,26,1.14441E-05,15.19999379,1,0,0,rectangle,1.14441E-05,15.19999379,1,0,0,7,2,0,0.000645,1.14441E-05,15.19999379,1,0,0,0,25,25,6,1,,,,,,,,,,,,,,,,,,,,,
,,,,,,,,,,,,,,,,,,,,,,,,,,,,,,,,,,,,,,,,,,5b8fe84a1a3ec10001a81642,6036eda1c18d8f66cec1503f,2021-02-24_21h22.16.385,Colour_Similarity_Experiment,2020.2.10,Win32,60,6036d0d9a84aa1626184a6ef,17.15476087,16.68140665,16.66335938,16.66503328,16.66397436,16.66844342,,,,,,,,,,,,,,,,,,,,PF,strong,3,,,,,,,,7,1.832845,,,,,,,,,,,,,,,,,,,,,,,,,,,,7,strong,38.40001202,99.99999505,1,0,0,response1disk,4,27,-7.999988675,7.999993682,1,0,0,rectangle,-7.999988675,7.999993682,1,0,0,7,5,0,0.00081,-7.999988675,7.999993682,1,0,0,0,26,26,158,1,,,,,,,,,,,,,,,,,,,,,
,,,,,,,,,,,,,,,,,,,,,,,,,,,,,,,,,,,,,,,,,,5b8fe84a1a3ec10001a81642,6036eda1c18d8f66cec1503f,2021-02-24_21h22.16.385,Colour_Similarity_Experiment,2020.2.10,Win32,60,6036d0d9a84aa1626184a6ef,17.15476087,16.68140665,16.66335938,16.66503328,16.66397436,16.66844342,,,,,,,,,,,,,,,,,,,,PF,weak,3,,,,,,,,7,3.682725,,,,,,,,,,,,,,,,,,,,,,,,,,,,2,weak,44.0000121,101.5999951,1,0,0,response1disk,9,28,-6.399939823,6.399993658,1,0,0,rectangle,-6.399939823,6.399993658,1,0,0,7,4,0,0.00071,-6.399939823,6.399993658,1,0,0,0,27,27,39,1,,,,,,,,,,,,,,,,,,,,,
,,,,,,,,,,,,,,,,,,,,,,,,,,,,,,,,,,,,,,,,,,5b8fe84a1a3ec10001a81642,6036eda1c18d8f66cec1503f,2021-02-24_21h22.16.385,Colour_Similarity_Experiment,2020.2.10,Win32,60,6036d0d9a84aa1626184a6ef,17.15476087,16.68140665,16.66335938,16.66503328,16.66397436,16.66844342,,,,,,,,,,,,,,,,,,,,PF,weak,3,,,,,,,,7,1.24961,,,,,,,,,,,,,,,,,,,,,,,,,,,,7,weak,56.80001229,109.5999952,1,0,0,response1disk,4,29,8.800011575,15.19999379,1,0,0,rectangle,8.800011575,15.19999379,1,0,0,7,5,0,0.000535,8.800011575,15.19999379,1,0,0,0,28,28,43,1,,,,,,,,,,,,,,,,,,,,,
,,,,,,,,,,,,,,,,,,,,,,,,,,,,,,,,,,,,,,,,,,5b8fe84a1a3ec10001a81642,6036eda1c18d8f66cec1503f,2021-02-24_21h22.16.385,Colour_Similarity_Experiment,2020.2.10,Win32,60,6036d0d9a84aa1626184a6ef,17.15476087,16.68140665,16.66335938,16.66503328,16.66397436,16.66844342,,,,,,,,,,,,,,,,,,,,PF,weak,3,,,,,,,,6,2.36667,,,,,,,,,,,,,,,,,,,,,,,,,,,,7,weak,92.00001281,55.9999944,1,0,0,response1disk,7,30,19.20001173,1.599993587,1,0,0,rectangle,19.20001173,1.599993587,1,0,0,7,6,0,0.000525,19.20001173,1.599993587,1,0,0,0,29,29,51,1,,,,,,,,,,,,,,,,,,,,,
,,,,,,,,,,,,,,,,,,,,,,,,,,,,,,,,,,,,,,,,,,5b8fe84a1a3ec10001a81642,6036eda1c18d8f66cec1503f,2021-02-24_21h22.16.385,Colour_Similarity_Experiment,2020.2.10,Win32,60,6036d0d9a84aa1626184a6ef,17.15476087,16.68140665,16.66335938,16.66503328,16.66397436,16.66844342,,,,,,,,,,,,,,,,,,,,PF,weak,3,,,,,,,,6,1.249665,,,,,,,,,,,,,,,,,,,,,,,,,,,,9,weak,104.000013,50.39999431,1,0,0,response1disk,2,31,17.60006053,0.799993575,1,0,0,rectangle,17.60006053,0.799993575,1,0,0,7,7,0,0.000635,17.60006053,0.799993575,1,0,0,0,30,30,157,1,,,,,,,,,,,,,,,,,,,,,
,,,,,,,,,,,,,,,,,,,,,,,,,,,,,,,,,,,,,,,,,,5b8fe84a1a3ec10001a81642,6036eda1c18d8f66cec1503f,2021-02-24_21h22.16.385,Colour_Similarity_Experiment,2020.2.10,Win32,60,6036d0d9a84aa1626184a6ef,17.15476087,16.68140665,16.66335938,16.66503328,16.66397436,16.66844342,,,,,,,,,,,,,,,,,,,,PF,weak,3,,,,,,,,6,3.483205,,,,,,,,,,,,,,,,,,,,,,,,,,,,3,weak,108.8000131,51.99999434,1,0,0,response1disk,5,32,12.00001162,-8.800006568,1,0,0,rectangle,12.00001162,-8.800006568,1,0,0,7,6,0,0.00055,12.00001162,-8.800006568,1,0,0,0,31,31,66,1,,,,,,,,,,,,,,,,,,,,,
,,,,,,,,,,,,,,,,,,,,,,,,,,,,,,,,,,,,,,,,,,5b8fe84a1a3ec10001a81642,6036eda1c18d8f66cec1503f,2021-02-24_21h22.16.385,Colour_Similarity_Experiment,2020.2.10,Win32,60,6036d0d9a84aa1626184a6ef,17.15476087,16.68140665,16.66335938,16.66503328,16.66397436,16.66844342,,,,,,,,,,,,,,,,,,,,PF,weak,3,,,,,,,,6,1.38004,,,,,,,,,,,,,,,,,,,,,,,,,,,,5,weak,108.8000131,44.79999423,1,0,0,response1disk,2,33,13.60006047,0.799993575,1,0,0,rectangle,13.60006047,0.799993575,1,0,0,7,6,0,0.00017,13.60006047,0.799993575,1,0,0,0,32,32,129,1,,,,,,,,,,,,,,,,,,,,,
,,,,,,,,,,,,,,,,,,,,,,,,,,,,,,,,,,,,,,,,,,5b8fe84a1a3ec10001a81642,6036eda1c18d8f66cec1503f,2021-02-24_21h22.16.385,Colour_Similarity_Experiment,2020.2.10,Win32,60,6036d0d9a84aa1626184a6ef,17.15476087,16.68140665,16.66335938,16.66503328,16.66397436,16.66844342,,,,,,,,,,,,,,,,,,,,PF,strong,3,,,,,,,,7,2.783325,,,,,,,,,,,,,,,,,,,,,,,,,,,,5,strong,52.00001222,97.59999502,1,0,0,response1disk,8,34,-3.199988604,4.799993634,1,0,0,rectangle,-3.199988604,4.799993634,1,0,0,7,5,0,0.000515,-3.199988604,4.799993634,1,0,0,0,33,33,16,1,,,,,,,,,,,,,,,,,,,,,
,,,,,,,,,,,,,,,,,,,,,,,,,,,,,,,,,,,,,,,,,,5b8fe84a1a3ec10001a81642,6036eda1c18d8f66cec1503f,2021-02-24_21h22.16.385,Colour_Similarity_Experiment,2020.2.10,Win32,60,6036d0d9a84aa1626184a6ef,17.15476087,16.68140665,16.66335938,16.66503328,16.66397436,16.66844342,,,,,,,,,,,,,,,,,,,,PF,weak,3,,,,,,,,6,1.283135,,,,,,,,,,,,,,,,,,,,,,,,,,,,5,weak,98.40001291,38.39999413,1,0,0,response1disk,5,35,19.20001173,-8.800006568,1,0,0,rectangle,19.20001173,-8.800006568,1,0,0,7,1,0,0.000585,19.20001173,-8.800006568,1,0,0,0,34,34,94,1,,,,,,,,,,,,,,,,,,,,,
,,,,,,,,,,,,,,,,,,,,,,,,,,,,,,,,,,,,,,,,,,5b8fe84a1a3ec10001a81642,6036eda1c18d8f66cec1503f,2021-02-24_21h22.16.385,Colour_Similarity_Experiment,2020.2.10,Win32,60,6036d0d9a84aa1626184a6ef,17.15476087,16.68140665,16.66335938,16.66503328,16.66397436,16.66844342,,,,,,,,,,,,,,,,,,,,PF,strong,3,,,,,,,,6,3.96644,,,,,,,,,,,,,,,,,,,,,,,,,,,,7,strong,107.200013,49.5999943,1,0,0,response1disk,7,36,12.00001162,1.599993587,1,0,0,rectangle,12.00001162,1.599993587,1,0,0,7,2,0,0.00056,12.00001162,1.599993587,1,0,0,0,35,35,34,1,,,,,,,,,,,,,,,,,,,,,
,,,,,,,,,,,,,,,,,,,,,,,,,,,,,,,,,,,,,,,,,,5b8fe84a1a3ec10001a81642,6036eda1c18d8f66cec1503f,2021-02-24_21h22.16.385,Colour_Similarity_Experiment,2020.2.10,Win32,60,6036d0d9a84aa1626184a6ef,17.15476087,16.68140665,16.66335938,16.66503328,16.66397436,16.66844342,,,,,,,,,,,,,,,,,,,,PF,weak,3,,,,,,,,2,2.96691,,,,,,,,,,,,,,,,,,,,,,,,,,,,6,weak,-94.39994113,-35.20000696,1,0,0,response5disk,6,37,13.60006047,-10.40000659,1,0,0,rectangle,13.60006047,-10.40000659,1,0,0,7,3,0,0.00051,13.60006047,-10.40000659,1,0,0,0,36,36,0,1,,,,,,,,,,,,,,,,,,,,,
,,,,,,,,,,,,,,,,,,,,,,,,,,,,,,,,,,,,,,,,,,5b8fe84a1a3ec10001a81642,6036eda1c18d8f66cec1503f,2021-02-24_21h22.16.385,Colour_Similarity_Experiment,2020.2.10,Win32,60,6036d0d9a84aa1626184a6ef,17.15476087,16.68140665,16.66335938,16.66503328,16.66397436,16.66844342,,,,,,,,,,,,,,,,,,,,PF,weak,3,,,,,,,,5,1.899735,,,,,,,,,,,,,,,,,,,,,,,,,,,,6,weak,92.80001283,-39.20000702,1,0,0,response3disk,3,38,-4.799988627,-9.60000658,1,0,0,rectangle,-4.799988627,-9.60000658,1,0,0,7,6,0,0.000495,-4.799988627,-9.60000658,1,0,0,0,37,37,26,1,,,,,,,,,,,,,,,,,,,,,
,,,,,,,,,,,,,,,,,,,,,,,,,,,,,,,,,,,,,,,,,,5b8fe84a1a3ec10001a81642,6036eda1c18d8f66cec1503f,2021-02-24_21h22.16.385,Colour_Similarity_Experiment,2020.2.10,Win32,60,6036d0d9a84aa1626184a6ef,17.15476087,16.68140665,16.66335938,16.66503328,16.66397436,16.66844342,,,,,,,,,,,,,,,,,,,,PF,strong,3,,,,,,,,1,1.94953,,,,,,,,,,,,,,,,,,,,,,,,,,,,3,strong,-100.7999901,45.59999424,1,0,0,response7disk,4,39,-5.599988639,-4.000006497,1,0,0,rectangle,-5.599988639,-4.000006497,1,0,0,7,6,0,8E-05,-5.599988639,-4.000006497,1,0,0,0,38,38,110,1,,,,,,,,,,,,,,,,,,,,,
,,,,,,,,,,,,,,,,,,,,,,,,,,,,,,,,,,,,,,,,,,5b8fe84a1a3ec10001a81642,6036eda1c18d8f66cec1503f,2021-02-24_21h22.16.385,Colour_Similarity_Experiment,2020.2.10,Win32,60,6036d0d9a84aa1626184a6ef,17.15476087,16.68140665,16.66335938,16.66503328,16.66397436,16.66844342,,,,,,,,,,,,,,,,,,,,PF,strong,3,,,,,,,,7,5.066505,,,,,,,,,,,,,,,,,,,,,,,,,,,,8,strong,41.60006089,94.39999497,1,0,0,response1disk,9,40,-3.199988604,6.399993658,1,0,0,rectangle,-3.199988604,6.399993658,1,0,0,7,3,0,0.00059,-3.199988604,6.399993658,1,0,0,0,39,39,105,1,,,,,,,,,,,,,,,,,,,,,
,,,,,,,,,,,,,,,,,,,,,,,,,,,,,,,,,,,,,,,,,,5b8fe84a1a3ec10001a81642,6036eda1c18d8f66cec1503f,2021-02-24_21h22.16.385,Colour_Similarity_Experiment,2020.2.10,Win32,60,6036d0d9a84aa1626184a6ef,17.15476087,16.68140665,16.66335938,16.66503328,16.66397436,16.66844342,,,,,,,,,,,,,,,,,,,,PF,weak,3,,,,,,,,6,2.982635,,,,,,,,,,,,,,,,,,,,,,,,,,,,5,weak,104.800013,48.79999429,1,0,0,response1disk,7,41,24.0000118,3.19999361,1,0,0,rectangle,24.0000118,3.19999361,1,0,0,7,1,0,0.00055,24.0000118,3.19999361,1,0,0,0,40,40,146,1,,,,,,,,,,,,,,,,,,,,,
,,,,,,,,,,,,,,,,,,,,,,,,,,,,,,,,,,,,,,,,,,5b8fe84a1a3ec10001a81642,6036eda1c18d8f66cec1503f,2021-02-24_21h22.16.385,Colour_Similarity_Experiment,2020.2.10,Win32,60,6036d0d9a84aa1626184a6ef,17.15476087,16.68140665,16.66335938,16.66503328,16.66397436,16.66844342,,,,,,,,,,,,,,,,,,,,PF,strong,3,,,,,,,,0,1.18314,,,,,,,,,,,,,,,,,,,,,,,,,,,,5,strong,-45.59998924,103.1999707,1,0,0,response7disk,7,42,10.4000116,0.799993575,1,0,0,rectangle,10.4000116,0.799993575,1,0,0,7,5,0,0.00064,10.4000116,0.799993575,1,0,0,0,41,41,7,1,,,,,,,,,,,,,,,,,,,,,
,,,,,,,,,,,,,,,,,,,,,,,,,,,,,,,,,,,,,,,,,,5b8fe84a1a3ec10001a81642,6036eda1c18d8f66cec1503f,2021-02-24_21h22.16.385,Colour_Similarity_Experiment,2020.2.10,Win32,60,6036d0d9a84aa1626184a6ef,17.15476087,16.68140665,16.66335938,16.66503328,16.66397436,16.66844342,,,,,,,,,,,,,,,,,,,,PF,strong,3,,,,,,,,6,5.566415,,,,,,,,,,,,,,,,,,,,,,,,,,,,6,strong,113.6000131,38.39999413,1,0,0,response1disk,9,43,22.40001178,3.19999361,1,0,0,rectangle,-37.59998912,104.7999951,1,0,0,0,0,1,2.499845,-2.399939764,-4.800006509,1,0,0,0,42,42,160,1,response7disk_3,rectangle,,,,,,,,,,,,,,,,,,,
,,,,,,,,,,,,,,,,,,,,,,,,,,,,,,,,,,,,,,,,,,5b8fe84a1a3ec10001a81642,6036eda1c18d8f66cec1503f,2021-02-24_21h22.16.385,Colour_Similarity_Experiment,2020.2.10,Win32,60,6036d0d9a84aa1626184a6ef,17.15476087,16.68140665,16.66335938,16.66503328,16.66397436,16.66844342,,,,,,,,,,,,,,,,,,,,PF,weak,3,,,,,,,,5,6.016825,,,,,,,,,,,,,,,,,,,,,,,,,,,,4,weak,77.6000126,-40.00000703,1,0,0,response3disk,2,44,1.14441E-05,1.599993587,1,0,0,rectangle,1.14441E-05,1.599993587,1,0,0,0,4,0,0.000715,1.14441E-05,1.599993587,1,0,0,0,43,43,108,1,,,,,,,,,,,,,,,,,,,,,
,,,,,,,,,,,,,,,,,,,,,,,,,,,,,,,,,,,,,,,,,,5b8fe84a1a3ec10001a81642,6036eda1c18d8f66cec1503f,2021-02-24_21h22.16.385,Colour_Similarity_Experiment,2020.2.10,Win32,60,6036d0d9a84aa1626184a6ef,17.15476087,16.68140665,16.66335938,16.66503328,16.66397436,16.66844342,,,,,,,,,,,,,,,,,,,,PF,weak,3,,,,,,,,3,2.399225,,,,,,,,,,,,,,,,,,,,,,,,,,,,5,weak,-35.99998909,-101.6000568,1,0,0,response5disk,1,45,1.600060296,-6.4373E-06,1,0,0,rectangle,-37.59998912,101.5999951,1,0,0,0,0,1,1.899815,-5.599988639,-8.800006568,1,0,0,0,44,44,159,1,response7disk_3,rectangle,,,,,,,,,,,,,,,,,,,
,,,,,,,,,,,,,,,,,,,,,,,,,,,,,,,,,,,,,,,,,,5b8fe84a1a3ec10001a81642,6036eda1c18d8f66cec1503f,2021-02-24_21h22.16.385,Colour_Similarity_Experiment,2020.2.10,Win32,60,6036d0d9a84aa1626184a6ef,17.15476087,16.68140665,16.66335938,16.66503328,16.66397436,16.66844342,,,,,,,,,,,,,,,,,,,,PF,strong,3,,,,,,,,7,1.416175,,,,,,,,,,,,,,,,,,,,,,,,,,,,9,strong,50.4000122,110.3999952,1,0,0,response1disk,5,46,2.40001148,-12.80000663,1,0,0,rectangle,2.40001148,-12.80000663,1,0,0,0,2,0,0.00053,2.40001148,-12.80000663,1,0,0,0,45,45,128,1,,,,,,,,,,,,,,,,,,,,,
,,,,,,,,,,,,,,,,,,,,,,,,,,,,,,,,,,,,,,,,,,5b8fe84a1a3ec10001a81642,6036eda1c18d8f66cec1503f,2021-02-24_21h22.16.385,Colour_Similarity_Experiment,2020.2.10,Win32,60,6036d0d9a84aa1626184a6ef,17.15476087,16.68140665,16.66335938,16.66503328,16.66397436,16.66844342,,,,,,,,,,,,,,,,,,,,PF,strong,3,,,,,,,,2,1.76652,,,,,,,,,,,,,,,,,,,,,,,,,,,,7,strong,-103.9999901,-47.20000714,1,0,0,response5disk,3,47,-0.799988568,-6.4373E-06,1,0,0,rectangle,-0.799988568,-6.4373E-06,1,0,0,0,7,0,0.000565,-0.799988568,-6.4373E-06,1,0,0,0,46,46,73,1,,,,,,,,,,,,,,,,,,,,,
,,,,,,,,,,,,,,,,,,,,,,,,,,,,,,,,,,,,,,,,,,5b8fe84a1a3ec10001a81642,6036eda1c18d8f66cec1503f,2021-02-24_21h22.16.385,Colour_Similarity_Experiment,2020.2.10,Win32,60,6036d0d9a84aa1626184a6ef,17.15476087,16.68140665,16.66335938,16.66503328,16.66397436,16.66844342,,,,,,,,,,,,,,,,,,,,PF,weak,3,,,,,,,,7,1.099805,,,,,,,,,,,,,,,,,,,,,,,,,,,,6,weak,56.00001228,107.9999952,1,0,0,response1disk,1,48,8.800011575,-0.800006449,1,0,0,rectangle,8.800011575,-0.800006449,1,0,0,0,5,0,0.000545,8.800011575,-0.800006449,1,0,0,0,47,47,46,1,,,,,,,,,,,,,,,,,,,,,
,,,,,,,,,,,,,,,,,,,,,,,,,,,,,,,,,,,,,,,,,,5b8fe84a1a3ec10001a81642,6036eda1c18d8f66cec1503f,2021-02-24_21h22.16.385,Colour_Similarity_Experiment,2020.2.10,Win32,60,6036d0d9a84aa1626184a6ef,17.15476087,16.68140665,16.66335938,16.66503328,16.66397436,16.66844342,,,,,,,,,,,,,,,,,,,,PF,weak,3,,,,,,,,7,1.933205,,,,,,,,,,,,,,,,,,,,,,,,,,,,7,weak,45.60006095,111.9999952,1,0,0,response1disk,5,49,7.200011551,12.79999375,1,0,0,rectangle,7.200011551,12.79999375,1,0,0,0,6,0,0.000575,7.200011551,12.79999375,1,0,0,0,48,48,92,1,,,,,,,,,,,,,,,,,,,,,
,,,,,,,,,,,,,,,,,,,,,,,,,,,,,,,,,,,,,,,,,,5b8fe84a1a3ec10001a81642,6036eda1c18d8f66cec1503f,2021-02-24_21h22.16.385,Colour_Similarity_Experiment,2020.2.10,Win32,60,6036d0d9a84aa1626184a6ef,17.15476087,16.68140665,16.66335938,16.66503328,16.66397436,16.66844342,,,,,,,,,,,,,,,,,,,,PF,strong,3,,,,,,,,5,1.89987,,,,,,,,,,,,,,,,,,,,,,,,,,,,4,strong,88.80001277,-32.00000691,1,0,0,response3disk,7,50,10.4000116,-4.800006509,1,0,0,rectangle,10.4000116,-4.800006509,1,0,0,0,1,0,0.00073,10.4000116,-4.800006509,1,0,0,0,49,49,87,1,,,,,,,,,,,,,,,,,,,,,
,,,,,,,,,,,,,,,,,,,,,,,,,,,,,,,,,,,,,,,,,,5b8fe84a1a3ec10001a81642,6036eda1c18d8f66cec1503f,2021-02-24_21h22.16.385,Colour_Similarity_Experiment,2020.2.10,Win32,60,6036d0d9a84aa1626184a6ef,17.15476087,16.68140665,16.66335938,16.66503328,16.66397436,16.66844342,,,,,,,,,,,,,,,,,,,,PF,weak,3,,,,,,,,5,2.266405,,,,,,,,,,,,,,,,,,,,,,,,,,,,9,weak,77.6000126,-41.60000706,1,0,0,response3disk,3,51,7.200011551,-4.800006509,1,0,0,rectangle,7.200011551,-4.800006509,1,0,0,0,2,0,0.000645,7.200011551,-4.800006509,1,0,0,0,50,50,119,1,,,,,,,,,,,,,,,,,,,,,
,,,,,,,,,,,,,,,,,,,,,,,,,,,,,,,,,,,,,,,,,,5b8fe84a1a3ec10001a81642,6036eda1c18d8f66cec1503f,2021-02-24_21h22.16.385,Colour_Similarity_Experiment,2020.2.10,Win32,60,6036d0d9a84aa1626184a6ef,17.15476087,16.68140665,16.66335938,16.66503328,16.66397436,16.66844342,,,,,,,,,,,,,,,,,,,,PF,strong,3,,,,,,,,7,1.74934,,,,,,,,,,,,,,,,,,,,,,,,,,,,8,strong,35.20001197,113.5999953,1,0,0,response1disk,1,52,8.800011575,6.399993658,1,0,0,rectangle,8.800011575,6.399993658,1,0,0,0,2,0,0.000065,8.800011575,6.399993658,1,0,0,0,51,51,20,1,,,,,,,,,,,,,,,,,,,,,
,,,,,,,,,,,,,,,,,,,,,,,,,,,,,,,,,,,,,,,,,,5b8fe84a1a3ec10001a81642,6036eda1c18d8f66cec1503f,2021-02-24_21h22.16.385,Colour_Similarity_Experiment,2020.2.10,Win32,60,6036d0d9a84aa1626184a6ef,17.15476087,16.68140665,16.66335938,16.66503328,16.66397436,16.66844342,,,,,,,,,,,,,,,,,,,,PF,strong,3,,,,,,,,7,1.166615,,,,,,,,,,,,,,,,,,,,,,,,,,,,8,strong,46.40001214,101.5999951,1,0,0,response1disk,7,53,-3.199988604,12.79999375,1,0,0,rectangle,-3.199988604,12.79999375,1,0,0,0,3,0,0.000835,-3.199988604,12.79999375,1,0,0,0,52,52,86,1,,,,,,,,,,,,,,,,,,,,,
,,,,,,,,,,,,,,,,,,,,,,,,,,,,,,,,,,,,,,,,,,5b8fe84a1a3ec10001a81642,6036eda1c18d8f66cec1503f,2021-02-24_21h22.16.385,Colour_Similarity_Experiment,2020.2.10,Win32,60,6036d0d9a84aa1626184a6ef,17.15476087,16.68140665,16.66335938,16.66503328,16.66397436,16.66844342,,,,,,,,,,,,,,,,,,,,PF,strong,3,,,,,,,,7,3.63333,,,,,,,,,,,,,,,,,,,,,,,,,,,,3,strong,40.80001205,85.59999484,1,0,0,response1disk,2,54,-1.59998858,0.799993575,1,0,0,rectangle,-1.59998858,0.799993575,1,0,0,0,0,0,0.00064,-1.59998858,0.799993575,1,0,0,0,53,53,93,1,,,,,,,,,,,,,,,,,,,,,
,,,,,,,,,,,,,,,,,,,,,,,,,,,,,,,,,,,,,,,,,,5b8fe84a1a3ec10001a81642,6036eda1c18d8f66cec1503f,2021-02-24_21h22.16.385,Colour_Similarity_Experiment,2020.2.10,Win32,60,6036d0d9a84aa1626184a6ef,17.15476087,16.68140665,16.66335938,16.66503328,16.66397436,16.66844342,,,,,,,,,,,,,,,,,,,,PF,strong,3,,,,,,,,6,1.766125,,,,,,,,,,,,,,,,,,,,,,,,,,,,3,strong,96.80001289,49.5999943,1,0,0,response1disk,6,55,7.200011551,11.19999373,1,0,0,rectangle,7.200011551,11.19999373,1,0,0,0,0,0,7E-05,7.200011551,11.19999373,1,0,0,0,54,54,95,1,,,,,,,,,,,,,,,,,,,,,
,,,,,,,,,,,,,,,,,,,,,,,,,,,,,,,,,,,,,,,,,,5b8fe84a1a3ec10001a81642,6036eda1c18d8f66cec1503f,2021-02-24_21h22.16.385,Colour_Similarity_Experiment,2020.2.10,Win32,60,6036d0d9a84aa1626184a6ef,17.15476087,16.68140665,16.66335938,16.66503328,16.66397436,16.66844342,,,,,,,,,,,,,,,,,,,,PF,strong,3,,,,,,,,0,1.249635,,,,,,,,,,,,,,,,,,,,,,,,,,,,9,strong,-35.99998909,116.7999953,1,0,0,response7disk,6,56,7.200011551,4.799993634,1,0,0,rectangle,7.200011551,4.799993634,1,0,0,0,6,0,0.00049,7.200011551,4.799993634,1,0,0,0,55,55,117,1,,,,,,,,,,,,,,,,,,,,,
,,,,,,,,,,,,,,,,,,,,,,,,,,,,,,,,,,,,,,,,,,5b8fe84a1a3ec10001a81642,6036eda1c18d8f66cec1503f,2021-02-24_21h22.16.385,Colour_Similarity_Experiment,2020.2.10,Win32,60,6036d0d9a84aa1626184a6ef,17.15476087,16.68140665,16.66335938,16.66503328,16.66397436,16.66844342,,,,,,,,,,,,,,,,,,,,PF,weak,3,,,,,,,,6,1.09993,,,,,,,,,,,,,,,,,,,,,,,,,,,,6,weak,98.40001291,39.99999416,1,0,0,response1disk,2,57,8.800011575,-5.600006521,1,0,0,rectangle,8.800011575,-5.600006521,1,0,0,0,6,0,6E-05,8.800011575,-5.600006521,1,0,0,0,56,56,130,1,,,,,,,,,,,,,,,,,,,,,
,,,,,,,,,,,,,,,,,,,,,,,,,,,,,,,,,,,,,,,,,,5b8fe84a1a3ec10001a81642,6036eda1c18d8f66cec1503f,2021-02-24_21h22.16.385,Colour_Similarity_Experiment,2020.2.10,Win32,60,6036d0d9a84aa1626184a6ef,17.15476087,16.68140665,16.66335938,16.66503328,16.66397436,16.66844342,,,,,,,,,,,,,,,,,,,,PF,weak,3,,,,,,,,7,1.283135,,,,,,,,,,,,,,,,,,,,,,,,,,,,1,weak,43.20001209,99.99999505,1,0,0,response1disk,7,58,-4.799988627,16.79999381,1,0,0,rectangle,-4.799988627,16.79999381,1,0,0,0,6,0,7E-05,-4.799988627,16.79999381,1,0,0,0,57,57,150,1,,,,,,,,,,,,,,,,,,,,,
,,,,,,,,,,,,,,,,,,,,,,,,,,,,,,,,,,,,,,,,,,5b8fe84a1a3ec10001a81642,6036eda1c18d8f66cec1503f,2021-02-24_21h22.16.385,Colour_Similarity_Experiment,2020.2.10,Win32,60,6036d0d9a84aa1626184a6ef,17.15476087,16.68140665,16.66335938,16.66503328,16.66397436,16.66844342,,,,,,,,,,,,,,,,,,,,PF,weak,3,,,,,,,,6,1.383545,,,,,,,,,,,,,,,,,,,,,,,,,,,,7,weak,104.000013,47.19996985,1,0,0,response1disk,8,59,19.20001173,-7.200006545,1,0,0,rectangle,19.20001173,-7.200006545,1,0,0,0,6,0,0.00018,19.20001173,-7.200006545,1,0,0,0,58,58,140,1,,,,,,,,,,,,,,,,,,,,,
,,,,,,,,,,,,,,,,,,,,,,,,,,,,,,,,,,,,,,,,,,5b8fe84a1a3ec10001a81642,6036eda1c18d8f66cec1503f,2021-02-24_21h22.16.385,Colour_Similarity_Experiment,2020.2.10,Win32,60,6036d0d9a84aa1626184a6ef,17.15476087,16.68140665,16.66335938,16.66503328,16.66397436,16.66844342,,,,,,,,,,,,,,,,,,,,PF,weak,3,,,,,,,,6,3.349715,,,,,,,,,,,,,,,,,,,,,,,,,,,,4,weak,85.60001272,39.19996973,1,0,0,response1disk,7,60,2.40001148,-4.000006497,1,0,0,rectangle,2.40001148,-4.000006497,1,0,0,0,4,0,0.000595,2.40001148,-4.000006497,1,0,0,0,59,59,38,1,,,,,,,,,,,,,,,,,,,,,
,,,,,,,,,,,,,,,,,,,,,,,,,,,,,,,,,,,,,,,,,,5b8fe84a1a3ec10001a81642,6036eda1c18d8f66cec1503f,2021-02-24_21h22.16.385,Colour_Similarity_Experiment,2020.2.10,Win32,60,6036d0d9a84aa1626184a6ef,17.15476087,16.68140665,16.66335938,16.66503328,16.66397436,16.66844342,,,,,,,,,,,,,,,,,,,,PF,weak,3,,,,,,,,1,3.7662,,,,,,,,,,,,,,,,,,,,,,,,,,,,4,weak,-79.19998974,39.99999416,1,0,0,response7disk,8,61,-5.599988639,7.999993682,1,0,0,rectangle,-5.599988639,7.999993682,1,0,0,0,1,0,0.00069,-5.599988639,7.999993682,1,0,0,0,60,60,124,1,,,,,,,,,,,,,,,,,,,,,
,,,,,,,,,,,,,,,,,,,,,,,,,,,,,,,,,,,,,,,,,,5b8fe84a1a3ec10001a81642,6036eda1c18d8f66cec1503f,2021-02-24_21h22.16.385,Colour_Similarity_Experiment,2020.2.10,Win32,60,6036d0d9a84aa1626184a6ef,17.15476087,16.68140665,16.66335938,16.66503328,16.66397436,16.66844342,,,,,,,,,,,,,,,,,,,,PF,strong,3,,,,,,,,7,1.36664,,,,,,,,,,,,,,,,,,,,,,,,,,,,6,strong,52.00001222,113.5999953,1,0,0,response1disk,2,62,4.000011504,4.799993634,1,0,0,rectangle,4.000011504,4.799993634,1,0,0,0,1,0,8E-05,4.000011504,4.799993634,1,0,0,0,61,61,112,1,,,,,,,,,,,,,,,,,,,,,
,,,,,,,,,,,,,,,,,,,,,,,,,,,,,,,,,,,,,,,,,,5b8fe84a1a3ec10001a81642,6036eda1c18d8f66cec1503f,2021-02-24_21h22.16.385,Colour_Similarity_Experiment,2020.2.10,Win32,60,6036d0d9a84aa1626184a6ef,17.15476087,16.68140665,16.66335938,16.66503328,16.66397436,16.66844342,,,,,,,,,,,,,,,,,,,,PF,weak,3,,,,,,,,7,1.25035,,,,,,,,,,,,,,,,,,,,,,,,,,,,9,weak,49.60006101,97.59999502,1,0,0,response1disk,8,63,10.4000116,-4.000006497,1,0,0,rectangle,10.4000116,-4.000006497,1,0,0,0,1,0,6E-05,10.4000116,-4.000006497,1,0,0,0,62,62,67,1,,,,,,,,,,,,,,,,,,,,,
,,,,,,,,,,,,,,,,,,,,,,,,,,,,,,,,,,,,,,,,,,5b8fe84a1a3ec10001a81642,6036eda1c18d8f66cec1503f,2021-02-24_21h22.16.385,Colour_Similarity_Experiment,2020.2.10,Win32,60,6036d0d9a84aa1626184a6ef,17.15476087,16.68140665,16.66335938,16.66503328,16.66397436,16.66844342,,,,,,,,,,,,,,,,,,,,PF,weak,3,,,,,,,,5,3.50052,,,,,,,,,,,,,,,,,,,,,,,,,,,,8,weak,70.40001249,-47.20000714,1,0,0,response3disk,9,64,-23.99998891,-6.4373E-06,1,0,0,rectangle,-23.99998891,-6.4373E-06,1,0,0,0,5,0,0.00081,-23.99998891,-6.4373E-06,1,0,0,0,63,63,42,1,,,,,,,,,,,,,,,,,,,,,
,,,,,,,,,,,,,,,,,,,,,,,,,,,,,,,,,,,,,,,,,,5b8fe84a1a3ec10001a81642,6036eda1c18d8f66cec1503f,2021-02-24_21h22.16.385,Colour_Similarity_Experiment,2020.2.10,Win32,60,6036d0d9a84aa1626184a6ef,17.15476087,16.68140665,16.66335938,16.66503328,16.66397436,16.66844342,,,,,,,,,,,,,,,,,,,,PF,strong,3,,,,,,,,3,4.96898,,,,,,,,,,,,,,,,,,,,,,,,,,,,5,strong,-56.7999894,-82.40000767,1,0,0,response5disk,1,65,-12.79998875,11.99999374,1,0,0,rectangle,-12.79998875,11.99999374,1,0,0,0,6,0,0.00076,-12.79998875,11.99999374,1,0,0,0,64,64,131,1,,,,,,,,,,,,,,,,,,,,,
,,,,,,,,,,,,,,,,,,,,,,,,,,,,,,,,,,,,,,,,,,5b8fe84a1a3ec10001a81642,6036eda1c18d8f66cec1503f,2021-02-24_21h22.16.385,Colour_Similarity_Experiment,2020.2.10,Win32,60,6036d0d9a84aa1626184a6ef,17.15476087,16.68140665,16.66335938,16.66503328,16.66397436,16.66844342,,,,,,,,,,,,,,,,,,,,PF,strong,3,,,,,,,,6,1.98308,,,,,,,,,,,,,,,,,,,,,,,,,,,,2,strong,78.40001261,33.59999406,1,0,0,response1disk,6,66,-10.39993988,4.799993634,1,0,0,rectangle,-10.39993988,4.799993634,1,0,0,0,3,0,0.0006,-10.39993988,4.799993634,1,0,0,0,65,65,40,1,,,,,,,,,,,,,,,,,,,,,
,,,,,,,,,,,,,,,,,,,,,,,,,,,,,,,,,,,,,,,,,,5b8fe84a1a3ec10001a81642,6036eda1c18d8f66cec1503f,2021-02-24_21h22.16.385,Colour_Similarity_Experiment,2020.2.10,Win32,60,6036d0d9a84aa1626184a6ef,17.15476087,16.68140665,16.66335938,16.66503328,16.66397436,16.66844342,,,,,,,,,,,,,,,,,,,,PF,strong,3,,,,,,,,6,1.99998,,,,,,,,,,,,,,,,,,,,,,,,,,,,2,strong,100.8000129,26.39999396,1,0,0,response1disk,3,67,20.80001175,13.59999377,1,0,0,rectangle,47.20001215,-93.60005666,1,0,0,4,4,1,2.666405,5.600060356,3.999993622,1,0,0,0,66,66,104,1,response3disk_3,rectangle,,,,,,,,,,,,,,,,,,,
,,,,,,,,,,,,,,,,,,,,,,,,,,,,,,,,,,,,,,,,,,5b8fe84a1a3ec10001a81642,6036eda1c18d8f66cec1503f,2021-02-24_21h22.16.385,Colour_Similarity_Experiment,2020.2.10,Win32,60,6036d0d9a84aa1626184a6ef,17.15476087,16.68140665,16.66335938,16.66503328,16.66397436,16.66844342,,,,,,,,,,,,,,,,,,,,PF,weak,3,,,,,,,,7,1.116865,,,,,,,,,,,,,,,,,,,,,,,,,,,,1,weak,38.40001202,109.5999952,1,0,0,response1disk,9,68,3.200011492,-0.800006449,1,0,0,rectangle,3.200011492,-0.800006449,1,0,0,4,1,0,0.000555,3.200011492,-0.800006449,1,0,0,0,67,67,15,1,,,,,,,,,,,,,,,,,,,,,
,,,,,,,,,,,,,,,,,,,,,,,,,,,,,,,,,,,,,,,,,,5b8fe84a1a3ec10001a81642,6036eda1c18d8f66cec1503f,2021-02-24_21h22.16.385,Colour_Similarity_Experiment,2020.2.10,Win32,60,6036d0d9a84aa1626184a6ef,17.15476087,16.68140665,16.66335938,16.66503328,16.66397436,16.66844342,,,,,,,,,,,,,,,,,,,,PF,strong,3,,,,,,,,6,1.26643,,,,,,,,,,,,,,,,,,,,,,,,,,,,3,strong,83.20001268,44.79999423,1,0,0,response1disk,7,69,7.200011551,6.399993658,1,0,0,rectangle,7.200011551,6.399993658,1,0,0,4,0,0,0.00063,7.200011551,6.399993658,1,0,0,0,68,68,118,1,,,,,,,,,,,,,,,,,,,,,
,,,,,,,,,,,,,,,,,,,,,,,,,,,,,,,,,,,,,,,,,,5b8fe84a1a3ec10001a81642,6036eda1c18d8f66cec1503f,2021-02-24_21h22.16.385,Colour_Similarity_Experiment,2020.2.10,Win32,60,6036d0d9a84aa1626184a6ef,17.15476087,16.68140665,16.66335938,16.66503328,16.66397436,16.66844342,,,,,,,,,,,,,,,,,,,,PF,weak,3,,,,,,,,7,0.98343,,,,,,,,,,,,,,,,,,,,,,,,,,,,3,weak,51.20001221,113.5999953,1,0,0,response1disk,1,70,16.00001168,13.59999377,1,0,0,rectangle,16.00001168,13.59999377,1,0,0,4,5,0,0.000535,16.00001168,13.59999377,1,0,0,0,69,69,96,1,,,,,,,,,,,,,,,,,,,,,
,,,,,,,,,,,,,,,,,,,,,,,,,,,,,,,,,,,,,,,,,,5b8fe84a1a3ec10001a81642,6036eda1c18d8f66cec1503f,2021-02-24_21h22.16.385,Colour_Similarity_Experiment,2020.2.10,Win32,60,6036d0d9a84aa1626184a6ef,17.15476087,16.68140665,16.66335938,16.66503328,16.66397436,16.66844342,,,,,,,,,,,,,,,,,,,,PF,weak,3,,,,,,,,7,1.48333,,,,,,,,,,,,,,,,,,,,,,,,,,,,4,weak,44.80001211,115.1999709,1,0,0,response1disk,6,71,-5.599988639,-5.600006521,1,0,0,rectangle,-5.599988639,-5.600006521,1,0,0,4,0,0,0.000615,-5.599988639,-5.600006521,1,0,0,0,70,70,120,1,,,,,,,,,,,,,,,,,,,,,
,,,,,,,,,,,,,,,,,,,,,,,,,,,,,,,,,,,,,,,,,,5b8fe84a1a3ec10001a81642,6036eda1c18d8f66cec1503f,2021-02-24_21h22.16.385,Colour_Similarity_Experiment,2020.2.10,Win32,60,6036d0d9a84aa1626184a6ef,17.15476087,16.68140665,16.66335938,16.66503328,16.66397436,16.66844342,,,,,,,,,,,,,,,,,,,,PF,strong,3,,,,,,,,7,0.849395,,,,,,,,,,,,,,,,,,,,,,,,,,,,7,strong,41.60006089,113.5999953,1,0,0,response1disk,1,72,5.600060356,-4.800006509,1,0,0,rectangle,5.600060356,-4.800006509,1,0,0,4,1,0,0.0005,5.600060356,-4.800006509,1,0,0,0,71,71,132,1,,,,,,,,,,,,,,,,,,,,,
,,,,,,,,,,,,,,,,,,,,,,,,,,,,,,,,,,,,,,,,,,5b8fe84a1a3ec10001a81642,6036eda1c18d8f66cec1503f,2021-02-24_21h22.16.385,Colour_Similarity_Experiment,2020.2.10,Win32,60,6036d0d9a84aa1626184a6ef,17.15476087,16.68140665,16.66335938,16.66503328,16.66397436,16.66844342,,,,,,,,,,,,,,,,,,,,PF,weak,3,,,,,,,,6,1.716315,,,,,,,,,,,,,,,,,,,,,,,,,,,,5,weak,112.8000131,46.39999425,1,0,0,response1disk,4,73,1.600060296,3.19999361,1,0,0,rectangle,1.600060296,3.19999361,1,0,0,4,0,0,0.000575,1.600060296,3.19999361,1,0,0,0,72,72,54,1,,,,,,,,,,,,,,,,,,,,,
,,,,,,,,,,,,,,,,,,,,,,,,,,,,,,,,,,,,,,,,,,5b8fe84a1a3ec10001a81642,6036eda1c18d8f66cec1503f,2021-02-24_21h22.16.385,Colour_Similarity_Experiment,2020.2.10,Win32,60,6036d0d9a84aa1626184a6ef,17.15476087,16.68140665,16.66335938,16.66503328,16.66397436,16.66844342,,,,,,,,,,,,,,,,,,,,PF,strong,3,,,,,,,,7,3.399095,,,,,,,,,,,,,,,,,,,,,,,,,,,,2,strong,55.20001227,91.19997051,1,0,0,response1disk,7,74,4.000011504,7.999993682,1,0,0,rectangle,4.000011504,7.999993682,1,0,0,4,0,0,0.000065,4.000011504,7.999993682,1,0,0,0,73,73,63,1,,,,,,,,,,,,,,,,,,,,,
,,,,,,,,,,,,,,,,,,,,,,,,,,,,,,,,,,,,,,,,,,5b8fe84a1a3ec10001a81642,6036eda1c18d8f66cec1503f,2021-02-24_21h22.16.385,Colour_Similarity_Experiment,2020.2.10,Win32,60,6036d0d9a84aa1626184a6ef,17.15476087,16.68140665,16.66335938,16.66503328,16.66397436,16.66844342,,,,,,,,,,,,,,,,,,,,PF,weak,3,,,,,,,,7,1.099875,,,,,,,,,,,,,,,,,,,,,,,,,,,,7,weak,52.00001222,109.5999952,1,0,0,response1disk,9,75,-0.799988568,-6.4373E-06,1,0,0,rectangle,-0.799988568,-6.4373E-06,1,0,0,4,1,0,0.001125,-0.799988568,-6.4373E-06,1,0,0,0,74,74,10,1,,,,,,,,,,,,,,,,,,,,,
,,,,,,,,,,,,,,,,,,,,,,,,,,,,,,,,,,,,,,,,,,5b8fe84a1a3ec10001a81642,6036eda1c18d8f66cec1503f,2021-02-24_21h22.16.385,Colour_Similarity_Experiment,2020.2.10,Win32,60,6036d0d9a84aa1626184a6ef,17.15476087,16.68140665,16.66335938,16.66503328,16.66397436,16.66844342,,,,,,,,,,,,,,,,,,,,PF,strong,3,,,,,,,,5,3.316335,,,,,,,,,,,,,,,,,,,,,,,,,,,,2,strong,83.20001268,-36.00000697,1,0,0,response3disk,5,76,10.4000116,-10.40000659,1,0,0,rectangle,10.4000116,-10.40000659,1,0,0,4,6,0,0.00075,10.4000116,-10.40000659,1,0,0,0,75,75,80,1,,,,,,,,,,,,,,,,,,,,,
,,,,,,,,,,,,,,,,,,,,,,,,,,,,,,,,,,,,,,,,,,5b8fe84a1a3ec10001a81642,6036eda1c18d8f66cec1503f,2021-02-24_21h22.16.385,Colour_Similarity_Experiment,2020.2.10,Win32,60,6036d0d9a84aa1626184a6ef,17.15476087,16.68140665,16.66335938,16.66503328,16.66397436,16.66844342,,,,,,,,,,,,,,,,,,,,PF,strong,3,,,,,,,,3,2.58309,,,,,,,,,,,,,,,,,,,,,,,,,,,,6,strong,-39.99998915,-76.00000757,1,0,0,response5disk,3,77,-11.19998872,-8.000006557,1,0,0,rectangle,-11.19998872,-8.000006557,1,0,0,4,0,0,0.00058,-11.19998872,-8.000006557,1,0,0,0,76,76,21,1,,,,,,,,,,,,,,,,,,,,,
,,,,,,,,,,,,,,,,,,,,,,,,,,,,,,,,,,,,,,,,,,5b8fe84a1a3ec10001a81642,6036eda1c18d8f66cec1503f,2021-02-24_21h22.16.385,Colour_Similarity_Experiment,2020.2.10,Win32,60,6036d0d9a84aa1626184a6ef,17.15476087,16.68140665,16.66335938,16.66503328,16.66397436,16.66844342,,,,,,,,,,,,,,,,,,,,PF,weak,3,,,,,,,,7,1.233025,,,,,,,,,,,,,,,,,,,,,,,,,,,,3,weak,49.60006101,106.3999951,1,0,0,response1disk,8,78,19.20001173,9.599993706,1,0,0,rectangle,19.20001173,9.599993706,1,0,0,4,0,0,0.000075,19.20001173,9.599993706,1,0,0,0,77,77,3,1,,,,,,,,,,,,,,,,,,,,,
,,,,,,,,,,,,,,,,,,,,,,,,,,,,,,,,,,,,,,,,,,5b8fe84a1a3ec10001a81642,6036eda1c18d8f66cec1503f,2021-02-24_21h22.16.385,Colour_Similarity_Experiment,2020.2.10,Win32,60,6036d0d9a84aa1626184a6ef,17.15476087,16.68140665,16.66335938,16.66503328,16.66397436,16.66844342,,,,,,,,,,,,,,,,,,,,PF,weak,3,,,,,,,,7,1.766445,,,,,,,,,,,,,,,,,,,,,,,,,,,,2,weak,39.20001203,97.59999502,1,0,0,response1disk,4,79,24.0000118,9.599993706,1,0,0,rectangle,24.0000118,9.599993706,1,0,0,4,2,0,0.00054,24.0000118,9.599993706,1,0,0,0,78,78,127,1,,,,,,,,,,,,,,,,,,,,,
,,,,,,,,,,,,,,,,,,,,,,,,,,,,,,,,,,,,,,,,,,5b8fe84a1a3ec10001a81642,6036eda1c18d8f66cec1503f,2021-02-24_21h22.16.385,Colour_Similarity_Experiment,2020.2.10,Win32,60,6036d0d9a84aa1626184a6ef,17.15476087,16.68140665,16.66335938,16.66503328,16.66397436,16.66844342,,,,,,,,,,,,,,,,,,,,PF,weak,3,,,,,,,,7,1.816425,,,,,,,,,,,,,,,,,,,,,,,,,,,,2,weak,36.00001198,101.5999951,1,0,0,response1disk,1,80,13.60006047,4.799993634,1,0,0,rectangle,13.60006047,4.799993634,1,0,0,4,5,0,0.000945,13.60006047,4.799993634,1,0,0,0,79,79,9,1,,,,,,,,,,,,,,,,,,,,,
,,,,,,,,,,,,,,,,,,,,,,,,,,,,,,,,,,,,,,,,,,5b8fe84a1a3ec10001a81642,6036eda1c18d8f66cec1503f,2021-02-24_21h22.16.385,Colour_Similarity_Experiment,2020.2.10,Win32,60,6036d0d9a84aa1626184a6ef,17.15476087,16.68140665,16.66335938,16.66503328,16.66397436,16.66844342,,,,,,,,,,,,,,,,,,,,PF,strong,3,,,,,,,,4,2.599165,,,,,,,,,,,,,,,,,,,,,,,,,,,,7,strong,42.40001208,-97.60005672,1,0,0,response3disk,2,81,1.14441E-05,-4.800006509,1,0,0,rectangle,1.14441E-05,-4.800006509,1,0,0,4,2,0,0.00068,1.14441E-05,-4.800006509,1,0,0,0,80,80,138,1,,,,,,,,,,,,,,,,,,,,,
,,,,,,,,,,,,,,,,,,,,,,,,,,,,,,,,,,,,,,,,,,5b8fe84a1a3ec10001a81642,6036eda1c18d8f66cec1503f,2021-02-24_21h22.16.385,Colour_Similarity_Experiment,2020.2.10,Win32,60,6036d0d9a84aa1626184a6ef,17.15476087,16.68140665,16.66335938,16.66503328,16.66397436,16.66844342,,,,,,,,,,,,,,,,,,,,PF,strong,3,,,,,,,,5,2.68252,,,,,,,,,,,,,,,,,,,,,,,,,,,,2,strong,84.80001271,-39.20000702,1,0,0,response3disk,4,82,-0.799988568,-8.000006557,1,0,0,rectangle,-0.799988568,-8.000006557,1,0,0,4,4,0,0.00067,-0.799988568,-8.000006557,1,0,0,0,81,81,145,1,,,,,,,,,,,,,,,,,,,,,
,,,,,,,,,,,,,,,,,,,,,,,,,,,,,,,,,,,,,,,,,,5b8fe84a1a3ec10001a81642,6036eda1c18d8f66cec1503f,2021-02-24_21h22.16.385,Colour_Similarity_Experiment,2020.2.10,Win32,60,6036d0d9a84aa1626184a6ef,17.15476087,16.68140665,16.66335938,16.66503328,16.66397436,16.66844342,,,,,,,,,,,,,,,,,,,,PF,weak,3,,,,,,,,7,1.083025,,,,,,,,,,,,,,,,,,,,,,,,,,,,2,weak,37.60006083,97.59999502,1,0,0,response1disk,8,83,4.000011504,0.799993575,1,0,0,rectangle,4.000011504,0.799993575,1,0,0,4,0,0,0.00066,4.000011504,0.799993575,1,0,0,0,82,82,52,1,,,,,,,,,,,,,,,,,,,,,
,,,,,,,,,,,,,,,,,,,,,,,,,,,,,,,,,,,,,,,,,,5b8fe84a1a3ec10001a81642,6036eda1c18d8f66cec1503f,2021-02-24_21h22.16.385,Colour_Similarity_Experiment,2020.2.10,Win32,60,6036d0d9a84aa1626184a6ef,17.15476087,16.68140665,16.66335938,16.66503328,16.66397436,16.66844342,,,,,,,,,,,,,,,,,,,,PF,strong,3,,,,,,,,7,3.883465,,,,,,,,,,,,,,,,,,,,,,,,,,,,3,strong,50.4000122,109.5999952,1,0,0,response1disk,5,84,8.800011575,-4.000006497,1,0,0,rectangle,8.800011575,-4.000006497,1,0,0,4,6,0,0.000765,8.800011575,-4.000006497,1,0,0,0,83,83,101,1,,,,,,,,,,,,,,,,,,,,,
,,,,,,,,,,,,,,,,,,,,,,,,,,,,,,,,,,,,,,,,,,5b8fe84a1a3ec10001a81642,6036eda1c18d8f66cec1503f,2021-02-24_21h22.16.385,Colour_Similarity_Experiment,2020.2.10,Win32,60,6036d0d9a84aa1626184a6ef,17.15476087,16.68140665,16.66335938,16.66503328,16.66397436,16.66844342,,,,,,,,,,,,,,,,,,,,PF,strong,3,,,,,,,,7,1.084105,,,,,,,,,,,,,,,,,,,,,,,,,,,,1,strong,48.80001217,97.59999502,1,0,0,response1disk,1,85,10.4000116,4.799993634,1,0,0,rectangle,10.4000116,4.799993634,1,0,0,4,1,0,0.00067,10.4000116,4.799993634,1,0,0,0,84,84,151,1,,,,,,,,,,,,,,,,,,,,,
,,,,,,,,,,,,,,,,,,,,,,,,,,,,,,,,,,,,,,,,,,5b8fe84a1a3ec10001a81642,6036eda1c18d8f66cec1503f,2021-02-24_21h22.16.385,Colour_Similarity_Experiment,2020.2.10,Win32,60,6036d0d9a84aa1626184a6ef,17.15476087,16.68140665,16.66335938,16.66503328,16.66397436,16.66844342,,,,,,,,,,,,,,,,,,,,PF,strong,3,,,,,,,,0,0.983285,,,,,,,,,,,,,,,,,,,,,,,,,,,,3,strong,-42.39994036,107.9999952,1,0,0,response7disk,1,86,-11.19998872,8.799993694,1,0,0,rectangle,-11.19998872,8.799993694,1,0,0,4,3,0,0.00133,-11.19998872,8.799993694,1,0,0,0,85,85,125,1,,,,,,,,,,,,,,,,,,,,,
,,,,,,,,,,,,,,,,,,,,,,,,,,,,,,,,,,,,,,,,,,5b8fe84a1a3ec10001a81642,6036eda1c18d8f66cec1503f,2021-02-24_21h22.16.385,Colour_Similarity_Experiment,2020.2.10,Win32,60,6036d0d9a84aa1626184a6ef,17.15476087,16.68140665,16.66335938,16.66503328,16.66397436,16.66844342,,,,,,,,,,,,,,,,,,,,PF,strong,3,,,,,,,,7,2.2663,,,,,,,,,,,,,,,,,,,,,,,,,,,,5,strong,63.20001239,109.5999952,1,0,0,response1disk,3,87,8.800011575,-2.400006473,1,0,0,rectangle,8.800011575,-2.400006473,1,0,0,4,1,0,0.000775,8.800011575,-2.400006473,1,0,0,0,86,86,25,1,,,,,,,,,,,,,,,,,,,,,
,,,,,,,,,,,,,,,,,,,,,,,,,,,,,,,,,,,,,,,,,,5b8fe84a1a3ec10001a81642,6036eda1c18d8f66cec1503f,2021-02-24_21h22.16.385,Colour_Similarity_Experiment,2020.2.10,Win32,60,6036d0d9a84aa1626184a6ef,17.15476087,16.68140665,16.66335938,16.66503328,16.66397436,16.66844342,,,,,,,,,,,,,,,,,,,,PF,strong,3,,,,,,,,1,1.3829,,,,,,,,,,,,,,,,,,,,,,,,,,,,4,strong,-102.3999413,49.5999943,1,0,0,response7disk,4,88,-7.199988663,1.599993587,1,0,0,rectangle,-7.199988663,1.599993587,1,0,0,4,1,0,9E-05,-7.199988663,1.599993587,1,0,0,0,87,87,84,1,,,,,,,,,,,,,,,,,,,,,
,,,,,,,,,,,,,,,,,,,,,,,,,,,,,,,,,,,,,,,,,,5b8fe84a1a3ec10001a81642,6036eda1c18d8f66cec1503f,2021-02-24_21h22.16.385,Colour_Similarity_Experiment,2020.2.10,Win32,60,6036d0d9a84aa1626184a6ef,17.15476087,16.68140665,16.66335938,16.66503328,16.66397436,16.66844342,,,,,,,,,,,,,,,,,,,,PF,strong,3,,,,,,,,0,1.215905,,,,,,,,,,,,,,,,,,,,,,,,,,,,6,strong,-37.59998912,113.5999953,1,0,0,response7disk,4,89,2.40001148,3.19999361,1,0,0,rectangle,2.40001148,3.19999361,1,0,0,4,2,0,0.000655,2.40001148,3.19999361,1,0,0,0,88,88,56,1,,,,,,,,,,,,,,,,,,,,,
,,,,,,,,,,,,,,,,,,,,,,,,,,,,,,,,,,,,,,,,,,5b8fe84a1a3ec10001a81642,6036eda1c18d8f66cec1503f,2021-02-24_21h22.16.385,Colour_Similarity_Experiment,2020.2.10,Win32,60,6036d0d9a84aa1626184a6ef,17.15476087,16.68140665,16.66335938,16.66503328,16.66397436,16.66844342,,,,,,,,,,,,,,,,,,,,PF,strong,3,,,,,,,,1,1.04972,,,,,,,,,,,,,,,,,,,,,,,,,,,,9,strong,-111.1999902,39.19996973,1,0,0,response7disk,3,90,-7.199988663,2.399993598,1,0,0,rectangle,-7.199988663,2.399993598,1,0,0,4,5,0,0.000665,-7.199988663,2.399993598,1,0,0,0,89,89,141,1,,,,,,,,,,,,,,,,,,,,,
,,,,,,,,,,,,,,,,,,,,,,,,,,,,,,,,,,,,,,,,,,5b8fe84a1a3ec10001a81642,6036eda1c18d8f66cec1503f,2021-02-24_21h22.16.385,Colour_Similarity_Experiment,2020.2.10,Win32,60,6036d0d9a84aa1626184a6ef,17.15476087,16.68140665,16.66335938,16.66503328,16.66397436,16.66844342,,,,,,,,,,,,,,,,,,,,PF,strong,3,,,,,,,,6,1.84984,,,,,,,,,,,,,,,,,,,,,,,,,,,,5,strong,98.40001291,51.99999434,1,0,0,response1disk,2,91,5.600060356,-0.800006449,1,0,0,rectangle,109.6000131,41.59999418,1,0,0,6,6,1,2.73316,-6.399939823,2.399993598,1,0,0,0,90,90,55,1,response1disk_3,rectangle,,,,,,,,,,,,,,,,,,,
,,,,,,,,,,,,,,,,,,,,,,,,,,,,,,,,,,,,,,,,,,5b8fe84a1a3ec10001a81642,6036eda1c18d8f66cec1503f,2021-02-24_21h22.16.385,Colour_Similarity_Experiment,2020.2.10,Win32,60,6036d0d9a84aa1626184a6ef,17.15476087,16.68140665,16.66335938,16.66503328,16.66397436,16.66844342,,,,,,,,,,,,,,,,,,,,PF,strong,3,,,,,,,,6,1.250575,,,,,,,,,,,,,,,,,,,,,,,,,,,,2,strong,93.60001284,31.99999404,1,0,0,response1disk,9,92,-10.39993988,2.399993598,1,0,0,rectangle,-10.39993988,2.399993598,1,0,0,6,4,0,0.00057,-10.39993988,2.399993598,1,0,0,0,91,91,72,1,,,,,,,,,,,,,,,,,,,,,
,,,,,,,,,,,,,,,,,,,,,,,,,,,,,,,,,,,,,,,,,,5b8fe84a1a3ec10001a81642,6036eda1c18d8f66cec1503f,2021-02-24_21h22.16.385,Colour_Similarity_Experiment,2020.2.10,Win32,60,6036d0d9a84aa1626184a6ef,17.15476087,16.68140665,16.66335938,16.66503328,16.66397436,16.66844342,,,,,,,,,,,,,,,,,,,,PF,strong,3,,,,,,,,7,1.615705,,,,,,,,,,,,,,,,,,,,,,,,,,,,1,strong,51.20001221,98.39999503,1,0,0,response1disk,3,93,22.40001178,4.799993634,1,0,0,rectangle,22.40001178,4.799993634,1,0,0,6,6,0,0.00058,22.40001178,4.799993634,1,0,0,0,92,92,99,1,,,,,,,,,,,,,,,,,,,,,
,,,,,,,,,,,,,,,,,,,,,,,,,,,,,,,,,,,,,,,,,,5b8fe84a1a3ec10001a81642,6036eda1c18d8f66cec1503f,2021-02-24_21h22.16.385,Colour_Similarity_Experiment,2020.2.10,Win32,60,6036d0d9a84aa1626184a6ef,17.15476087,16.68140665,16.66335938,16.66503328,16.66397436,16.66844342,,,,,,,,,,,,,,,,,,,,PF,strong,3,,,,,,,,3,1.432785,,,,,,,,,,,,,,,,,,,,,,,,,,,,8,strong,-47.99998927,-104.000008,1,0,0,response5disk,5,94,2.40001148,-6.400006533,1,0,0,rectangle,2.40001148,-6.400006533,1,0,0,6,6,0,0.000135,2.40001148,-6.400006533,1,0,0,0,93,93,152,1,,,,,,,,,,,,,,,,,,,,,
,,,,,,,,,,,,,,,,,,,,,,,,,,,,,,,,,,,,,,,,,,5b8fe84a1a3ec10001a81642,6036eda1c18d8f66cec1503f,2021-02-24_21h22.16.385,Colour_Similarity_Experiment,2020.2.10,Win32,60,6036d0d9a84aa1626184a6ef,17.15476087,16.68140665,16.66335938,16.66503328,16.66397436,16.66844342,,,,,,,,,,,,,,,,,,,,PF,weak,3,,,,,,,,7,1.44958,,,,,,,,,,,,,,,,,,,,,,,,,,,,3,weak,52.00001222,94.39999497,1,0,0,response1disk,7,95,-10.39993988,-0.800006449,1,0,0,rectangle,-10.39993988,-0.800006449,1,0,0,6,1,0,0.000975,-10.39993988,-0.800006449,1,0,0,0,94,94,41,1,,,,,,,,,,,,,,,,,,,,,
,,,,,,,,,,,,,,,,,,,,,,,,,,,,,,,,,,,,,,,,,,5b8fe84a1a3ec10001a81642,6036eda1c18d8f66cec1503f,2021-02-24_21h22.16.385,Colour_Similarity_Experiment,2020.2.10,Win32,60,6036d0d9a84aa1626184a6ef,17.15476087,16.68140665,16.66335938,16.66503328,16.66397436,16.66844342,,,,,,,,,,,,,,,,,,,,PF,weak,3,,,,,,,,7,1.13271,,,,,,,,,,,,,,,,,,,,,,,,,,,,9,weak,40.00001204,103.1999707,1,0,0,response1disk,9,96,17.60006053,3.19999361,1,0,0,rectangle,17.60006053,3.19999361,1,0,0,6,0,0,0.000665,17.60006053,3.19999361,1,0,0,0,95,95,106,1,,,,,,,,,,,,,,,,,,,,,
,,,,,,,,,,,,,,,,,,,,,,,,,,,,,,,,,,,,,,,,,,5b8fe84a1a3ec10001a81642,6036eda1c18d8f66cec1503f,2021-02-24_21h22.16.385,Colour_Similarity_Experiment,2020.2.10,Win32,60,6036d0d9a84aa1626184a6ef,17.15476087,16.68140665,16.66335938,16.66503328,16.66397436,16.66844342,,,,,,,,,,,,,,,,,,,,PF,strong,3,,,,,,,,7,2.433065,,,,,,,,,,,,,,,,,,,,,,,,,,,,5,strong,33.60006077,113.5999953,1,0,0,response1disk,5,97,13.60006047,-16.00000668,1,0,0,rectangle,13.60006047,-16.00000668,1,0,0,6,0,0,0.000225,13.60006047,-16.00000668,1,0,0,0,96,96,19,1,,,,,,,,,,,,,,,,,,,,,
,,,,,,,,,,,,,,,,,,,,,,,,,,,,,,,,,,,,,,,,,,5b8fe84a1a3ec10001a81642,6036eda1c18d8f66cec1503f,2021-02-24_21h22.16.385,Colour_Similarity_Experiment,2020.2.10,Win32,60,6036d0d9a84aa1626184a6ef,17.15476087,16.68140665,16.66335938,16.66503328,16.66397436,16.66844342,,,,,,,,,,,,,,,,,,,,PF,strong,3,,,,,,,,6,0.89975,,,,,,,,,,,,,,,,,,,,,,,,,,,,6,strong,97.6000129,46.39999425,1,0,0,response1disk,6,98,13.60006047,6.399993658,1,0,0,rectangle,13.60006047,6.399993658,1,0,0,6,7,0,0.00053,13.60006047,6.399993658,1,0,0,0,97,97,91,1,,,,,,,,,,,,,,,,,,,,,
,,,,,,,,,,,,,,,,,,,,,,,,,,,,,,,,,,,,,,,,,,5b8fe84a1a3ec10001a81642,6036eda1c18d8f66cec1503f,2021-02-24_21h22.16.385,Colour_Similarity_Experiment,2020.2.10,Win32,60,6036d0d9a84aa1626184a6ef,17.15476087,16.68140665,16.66335938,16.66503328,16.66397436,16.66844342,,,,,,,,,,,,,,,,,,,,PF,strong,3,,,,,,,,0,1.199795,,,,,,,,,,,,,,,,,,,,,,,,,,,,1,strong,-50.39994048,107.9999952,1,0,0,response7disk,6,99,0.800011456,12.79999375,1,0,0,rectangle,0.800011456,12.79999375,1,0,0,6,5,0,0.000725,0.800011456,12.79999375,1,0,0,0,98,98,58,1,,,,,,,,,,,,,,,,,,,,,
,,,,,,,,,,,,,,,,,,,,,,,,,,,,,,,,,,,,,,,,,,5b8fe84a1a3ec10001a81642,6036eda1c18d8f66cec1503f,2021-02-24_21h22.16.385,Colour_Similarity_Experiment,2020.2.10,Win32,60,6036d0d9a84aa1626184a6ef,17.15476087,16.68140665,16.66335938,16.66503328,16.66397436,16.66844342,,,,,,,,,,,,,,,,,,,,PF,strong,3,,,,,,,,7,1.349885,,,,,,,,,,,,,,,,,,,,,,,,,,,,1,strong,53.60001224,87.99999487,1,0,0,response1disk,4,100,22.40001178,16.79999381,1,0,0,rectangle,22.40001178,16.79999381,1,0,0,6,7,0,0.00057,22.40001178,16.79999381,1,0,0,0,99,99,135,1,,,,,,,,,,,,,,,,,,,,,
,,,,,,,,,,,,,,,,,,,,,,,,,,,,,,,,,,,,,,,,,,5b8fe84a1a3ec10001a81642,6036eda1c18d8f66cec1503f,2021-02-24_21h22.16.385,Colour_Similarity_Experiment,2020.2.10,Win32,60,6036d0d9a84aa1626184a6ef,17.15476087,16.68140665,16.66335938,16.66503328,16.66397436,16.66844342,,,,,,,,,,,,,,,,,,,,PF,weak,3,,,,,,,,7,1.09957,,,,,,,,,,,,,,,,,,,,,,,,,,,,9,weak,50.4000122,97.59999502,1,0,0,response1disk,1,101,5.600060356,1.599993587,1,0,0,rectangle,5.600060356,1.599993587,1,0,0,6,6,0,0.00055,5.600060356,1.599993587,1,0,0,0,100,100,74,1,,,,,,,,,,,,,,,,,,,,,
,,,,,,,,,,,,,,,,,,,,,,,,,,,,,,,,,,,,,,,,,,5b8fe84a1a3ec10001a81642,6036eda1c18d8f66cec1503f,2021-02-24_21h22.16.385,Colour_Similarity_Experiment,2020.2.10,Win32,60,6036d0d9a84aa1626184a6ef,17.15476087,16.68140665,16.66335938,16.66503328,16.66397436,16.66844342,,,,,,,,,,,,,,,,,,,,PF,strong,3,,,,,,,,7,1.683065,,,,,,,,,,,,,,,,,,,,,,,,,,,,4,strong,56.80001229,116.7999953,1,0,0,response1disk,6,102,-10.39993988,12.79999375,1,0,0,rectangle,-10.39993988,12.79999375,1,0,0,6,6,0,0.000135,-10.39993988,12.79999375,1,0,0,0,101,101,122,1,,,,,,,,,,,,,,,,,,,,,
,,,,,,,,,,,,,,,,,,,,,,,,,,,,,,,,,,,,,,,,,,5b8fe84a1a3ec10001a81642,6036eda1c18d8f66cec1503f,2021-02-24_21h22.16.385,Colour_Similarity_Experiment,2020.2.10,Win32,60,6036d0d9a84aa1626184a6ef,17.15476087,16.68140665,16.66335938,16.66503328,16.66397436,16.66844342,,,,,,,,,,,,,,,,,,,,PF,weak,3,,,,,,,,4,2.33291,,,,,,,,,,,,,,,,,,,,,,,,,,,,1,weak,50.4000122,-94.40000784,1,0,0,response3disk,5,103,1.600060296,-6.400006533,1,0,0,rectangle,1.600060296,-6.400006533,1,0,0,6,4,0,0.00049,1.600060296,-6.400006533,1,0,0,0,102,102,28,1,,,,,,,,,,,,,,,,,,,,,
,,,,,,,,,,,,,,,,,,,,,,,,,,,,,,,,,,,,,,,,,,5b8fe84a1a3ec10001a81642,6036eda1c18d8f66cec1503f,2021-02-24_21h22.16.385,Colour_Similarity_Experiment,2020.2.10,Win32,60,6036d0d9a84aa1626184a6ef,17.15476087,16.68140665,16.66335938,16.66503328,16.66397436,16.66844342,,,,,,,,,,,,,,,,,,,,PF,strong,3,,,,,,,,0,1.131385,,,,,,,,,,,,,,,,,,,,,,,,,,,,7,strong,-37.59998912,87.99999487,1,0,0,response7disk,5,104,9.600060415,13.59999377,1,0,0,rectangle,9.600060415,13.59999377,1,0,0,6,3,0,0.000835,9.600060415,13.59999377,1,0,0,0,103,103,156,1,,,,,,,,,,,,,,,,,,,,,
,,,,,,,,,,,,,,,,,,,,,,,,,,,,,,,,,,,,,,,,,,5b8fe84a1a3ec10001a81642,6036eda1c18d8f66cec1503f,2021-02-24_21h22.16.385,Colour_Similarity_Experiment,2020.2.10,Win32,60,6036d0d9a84aa1626184a6ef,17.15476087,16.68140665,16.66335938,16.66503328,16.66397436,16.66844342,,,,,,,,,,,,,,,,,,,,PF,strong,3,,,,,,,,7,1.133255,,,,,,,,,,,,,,,,,,,,,,,,,,,,2,strong,37.60006083,98.39999503,1,0,0,response1disk,1,105,11.20001161,-8.800006568,1,0,0,rectangle,11.20001161,-8.800006568,1,0,0,6,5,0,0.0006,11.20001161,-8.800006568,1,0,0,0,104,104,85,1,,,,,,,,,,,,,,,,,,,,,
,,,,,,,,,,,,,,,,,,,,,,,,,,,,,,,,,,,,,,,,,,5b8fe84a1a3ec10001a81642,6036eda1c18d8f66cec1503f,2021-02-24_21h22.16.385,Colour_Similarity_Experiment,2020.2.10,Win32,60,6036d0d9a84aa1626184a6ef,17.15476087,16.68140665,16.66335938,16.66503328,16.66397436,16.66844342,,,,,,,,,,,,,,,,,,,,PF,weak,3,,,,,,,,7,2.28306,,,,,,,,,,,,,,,,,,,,,,,,,,,,5,weak,38.40001202,101.5999951,1,0,0,response1disk,6,106,7.200011551,12.79999375,1,0,0,rectangle,7.200011551,12.79999375,1,0,0,6,5,0,0.00018,7.200011551,12.79999375,1,0,0,0,105,105,103,1,,,,,,,,,,,,,,,,,,,,,
,,,,,,,,,,,,,,,,,,,,,,,,,,,,,,,,,,,,,,,,,,5b8fe84a1a3ec10001a81642,6036eda1c18d8f66cec1503f,2021-02-24_21h22.16.385,Colour_Similarity_Experiment,2020.2.10,Win32,60,6036d0d9a84aa1626184a6ef,17.15476087,16.68140665,16.66335938,16.66503328,16.66397436,16.66844342,,,,,,,,,,,,,,,,,,,,PF,weak,3,,,,,,,,7,0.83338,,,,,,,,,,,,,,,,,,,,,,,,,,,,4,weak,48.00001216,106.3999951,1,0,0,response1disk,1,107,28.00001186,16.79999381,1,0,0,rectangle,28.00001186,16.79999381,1,0,0,6,2,0,0.000485,28.00001186,16.79999381,1,0,0,0,106,106,115,1,,,,,,,,,,,,,,,,,,,,,
,,,,,,,,,,,,,,,,,,,,,,,,,,,,,,,,,,,,,,,,,,5b8fe84a1a3ec10001a81642,6036eda1c18d8f66cec1503f,2021-02-24_21h22.16.385,Colour_Similarity_Experiment,2020.2.10,Win32,60,6036d0d9a84aa1626184a6ef,17.15476087,16.68140665,16.66335938,16.66503328,16.66397436,16.66844342,,,,,,,,,,,,,,,,,,,,PF,strong,3,,,,,,,,4,1.249865,,,,,,,,,,,,,,,,,,,,,,,,,,,,1,strong,37.60006083,-84.8000077,1,0,0,response3disk,2,108,-7.199988663,-4.800006509,1,0,0,rectangle,-7.199988663,-4.800006509,1,0,0,6,3,0,0.00104,-7.199988663,-4.800006509,1,0,0,0,107,107,2,1,,,,,,,,,,,,,,,,,,,,,
,,,,,,,,,,,,,,,,,,,,,,,,,,,,,,,,,,,,,,,,,,5b8fe84a1a3ec10001a81642,6036eda1c18d8f66cec1503f,2021-02-24_21h22.16.385,Colour_Similarity_Experiment,2020.2.10,Win32,60,6036d0d9a84aa1626184a6ef,17.15476087,16.68140665,16.66335938,16.66503328,16.66397436,16.66844342,,,,,,,,,,,,,,,,,,,,PF,weak,3,,,,,,,,4,1.41621,,,,,,,,,,,,,,,,,,,,,,,,,,,,8,weak,37.60006083,-91.2000078,1,0,0,response3disk,1,109,-10.39993988,-6.4373E-06,1,0,0,rectangle,-10.39993988,-6.4373E-06,1,0,0,6,0,0,0.00072,-10.39993988,-6.4373E-06,1,0,0,0,108,108,57,1,,,,,,,,,,,,,,,,,,,,,
,,,,,,,,,,,,,,,,,,,,,,,,,,,,,,,,,,,,,,,,,,5b8fe84a1a3ec10001a81642,6036eda1c18d8f66cec1503f,2021-02-24_21h22.16.385,Colour_Similarity_Experiment,2020.2.10,Win32,60,6036d0d9a84aa1626184a6ef,17.15476087,16.68140665,16.66335938,16.66503328,16.66397436,16.66844342,,,,,,,,,,,,,,,,,,,,PF,strong,3,,,,,,,,7,1.182335,,,,,,,,,,,,,,,,,,,,,,,,,,,,8,strong,64.80001241,99.99999505,1,0,0,response1disk,3,110,-9.599988699,-14.40000665,1,0,0,rectangle,-9.599988699,-14.40000665,1,0,0,6,6,0,0.000705,-9.599988699,-14.40000665,1,0,0,0,109,109,154,1,,,,,,,,,,,,,,,,,,,,,
,,,,,,,,,,,,,,,,,,,,,,,,,,,,,,,,,,,,,,,,,,5b8fe84a1a3ec10001a81642,6036eda1c18d8f66cec1503f,2021-02-24_21h22.16.385,Colour_Similarity_Experiment,2020.2.10,Win32,60,6036d0d9a84aa1626184a6ef,17.15476087,16.68140665,16.66335938,16.66503328,16.66397436,16.66844342,,,,,,,,,,,,,,,,,,,,PF,weak,3,,,,,,,,6,1.29982,,,,,,,,,,,,,,,,,,,,,,,,,,,,1,weak,107.200013,49.5999943,1,0,0,response1disk,6,111,8.800011575,-4.000006497,1,0,0,rectangle,8.800011575,-4.000006497,1,0,0,6,5,0,0.000655,8.800011575,-4.000006497,1,0,0,0,110,110,144,1,,,,,,,,,,,,,,,,,,,,,
,,,,,,,,,,,,,,,,,,,,,,,,,,,,,,,,,,,,,,,,,,5b8fe84a1a3ec10001a81642,6036eda1c18d8f66cec1503f,2021-02-24_21h22.16.385,Colour_Similarity_Experiment,2020.2.10,Win32,60,6036d0d9a84aa1626184a6ef,17.15476087,16.68140665,16.66335938,16.66503328,16.66397436,16.66844342,,,,,,,,,,,,,,,,,,,,PF,weak,3,,,,,,,,5,2.449715,,,,,,,,,,,,,,,,,,,,,,,,,,,,2,weak,72.80001253,-33.60000694,1,0,0,response3disk,5,112,1.600060296,-12.00000662,1,0,0,rectangle,1.600060296,-12.00000662,1,0,0,6,0,0,0.00074,1.600060296,-12.00000662,1,0,0,0,111,111,147,1,,,,,,,,,,,,,,,,,,,,,
,,,,,,,,,,,,,,,,,,,,,,,,,,,,,,,,,,,,,,,,,,5b8fe84a1a3ec10001a81642,6036eda1c18d8f66cec1503f,2021-02-24_21h22.16.385,Colour_Similarity_Experiment,2020.2.10,Win32,60,6036d0d9a84aa1626184a6ef,17.15476087,16.68140665,16.66335938,16.66503328,16.66397436,16.66844342,,,,,,,,,,,,,,,,,,,,PF,weak,3,,,,,,,,7,1.016635,,,,,,,,,,,,,,,,,,,,,,,,,,,,5,weak,50.4000122,99.99999505,1,0,0,response1disk,9,113,3.200011492,-5.600006521,1,0,0,rectangle,-82.39994096,31.99999404,1,0,0,1,1,1,2.083435,-4.799988627,9.599993706,1,0,0,0,112,112,136,1,response7disk_3,rectangle,,,,,,,,,,,,,,,,,,,
,,,,,,,,,,,,,,,,,,,,,,,,,,,,,,,,,,,,,,,,,,5b8fe84a1a3ec10001a81642,6036eda1c18d8f66cec1503f,2021-02-24_21h22.16.385,Colour_Similarity_Experiment,2020.2.10,Win32,60,6036d0d9a84aa1626184a6ef,17.15476087,16.68140665,16.66335938,16.66503328,16.66397436,16.66844342,,,,,,,,,,,,,,,,,,,,PF,strong,3,,,,,,,,3,2.83287,,,,,,,,,,,,,,,,,,,,,,,,,,,,1,strong,-47.99998927,-94.40000784,1,0,0,response5disk,8,114,1.14441E-05,8.799993694,1,0,0,rectangle,1.14441E-05,8.799993694,1,0,0,1,0,0,0.00069,1.14441E-05,8.799993694,1,0,0,0,113,113,27,1,,,,,,,,,,,,,,,,,,,,,
,,,,,,,,,,,,,,,,,,,,,,,,,,,,,,,,,,,,,,,,,,5b8fe84a1a3ec10001a81642,6036eda1c18d8f66cec1503f,2021-02-24_21h22.16.385,Colour_Similarity_Experiment,2020.2.10,Win32,60,6036d0d9a84aa1626184a6ef,17.15476087,16.68140665,16.66335938,16.66503328,16.66397436,16.66844342,,,,,,,,,,,,,,,,,,,,PF,weak,3,,,,,,,,4,1.41638,,,,,,,,,,,,,,,,,,,,,,,,,,,,9,weak,38.40001202,-65.60000741,1,0,0,response3disk,6,115,-3.199988604,-13.60000664,1,0,0,rectangle,-3.199988604,-13.60000664,1,0,0,1,3,0,0.000515,-3.199988604,-13.60000664,1,0,0,0,114,114,148,1,,,,,,,,,,,,,,,,,,,,,
,,,,,,,,,,,,,,,,,,,,,,,,,,,,,,,,,,,,,,,,,,5b8fe84a1a3ec10001a81642,6036eda1c18d8f66cec1503f,2021-02-24_21h22.16.385,Colour_Similarity_Experiment,2020.2.10,Win32,60,6036d0d9a84aa1626184a6ef,17.15476087,16.68140665,16.66335938,16.66503328,16.66397436,16.66844342,,,,,,,,,,,,,,,,,,,,PF,weak,3,,,,,,,,6,2.73244,,,,,,,,,,,,,,,,,,,,,,,,,,,,5,weak,107.200013,46.39999425,1,0,0,response1disk,3,116,10.4000116,6.399993658,1,0,0,rectangle,10.4000116,6.399993658,1,0,0,1,4,0,0.00179,10.4000116,6.399993658,1,0,0,0,115,115,109,1,,,,,,,,,,,,,,,,,,,,,
,,,,,,,,,,,,,,,,,,,,,,,,,,,,,,,,,,,,,,,,,,5b8fe84a1a3ec10001a81642,6036eda1c18d8f66cec1503f,2021-02-24_21h22.16.385,Colour_Similarity_Experiment,2020.2.10,Win32,60,6036d0d9a84aa1626184a6ef,17.15476087,16.68140665,16.66335938,16.66503328,16.66397436,16.66844342,,,,,,,,,,,,,,,,,,,,PF,weak,3,,,,,,,,1,1.116735,,,,,,,,,,,,,,,,,,,,,,,,,,,,9,weak,-107.9999902,40.79999417,1,0,0,response7disk,4,117,8.800011575,-3.200006485,1,0,0,rectangle,8.800011575,-3.200006485,1,0,0,1,7,0,0.00177,8.800011575,-3.200006485,1,0,0,0,116,116,114,1,,,,,,,,,,,,,,,,,,,,,
,,,,,,,,,,,,,,,,,,,,,,,,,,,,,,,,,,,,,,,,,,5b8fe84a1a3ec10001a81642,6036eda1c18d8f66cec1503f,2021-02-24_21h22.16.385,Colour_Similarity_Experiment,2020.2.10,Win32,60,6036d0d9a84aa1626184a6ef,17.15476087,16.68140665,16.66335938,16.66503328,16.66397436,16.66844342,,,,,,,,,,,,,,,,,,,,PF,strong,3,,,,,,,,2,2.11621,,,,,,,,,,,,,,,,,,,,,,,,,,,,4,strong,-93.59998995,-43.20000708,1,0,0,response5disk,3,118,-21.59998888,-1.600006461,1,0,0,rectangle,-21.59998888,-1.600006461,1,0,0,1,5,0,0.00057,-21.59998888,-1.600006461,1,0,0,0,117,117,77,1,,,,,,,,,,,,,,,,,,,,,
,,,,,,,,,,,,,,,,,,,,,,,,,,,,,,,,,,,,,,,,,,5b8fe84a1a3ec10001a81642,6036eda1c18d8f66cec1503f,2021-02-24_21h22.16.385,Colour_Similarity_Experiment,2020.2.10,Win32,60,6036d0d9a84aa1626184a6ef,17.15476087,16.68140665,16.66335938,16.66503328,16.66397436,16.66844342,,,,,,,,,,,,,,,,,,,,PF,strong,3,,,,,,,,7,1.033365,,,,,,,,,,,,,,,,,,,,,,,,,,,,6,strong,50.4000122,110.3999952,1,0,0,response1disk,8,119,4.000011504,3.19999361,1,0,0,rectangle,4.000011504,3.19999361,1,0,0,1,3,0,0.00091,4.000011504,3.19999361,1,0,0,0,118,118,133,1,,,,,,,,,,,,,,,,,,,,,
,,,,,,,,,,,,,,,,,,,,,,,,,,,,,,,,,,,,,,,,,,5b8fe84a1a3ec10001a81642,6036eda1c18d8f66cec1503f,2021-02-24_21h22.16.385,Colour_Similarity_Experiment,2020.2.10,Win32,60,6036d0d9a84aa1626184a6ef,17.15476087,16.68140665,16.66335938,16.66503328,16.66397436,16.66844342,,,,,,,,,,,,,,,,,,,,PF,strong,3,,,,,,,,0,0.98299,,,,,,,,,,,,,,,,,,,,,,,,,,,,8,strong,-43.99998921,116.7999953,1,0,0,response7disk,8,120,-3.999988616,11.19999373,1,0,0,rectangle,-3.999988616,11.19999373,1,0,0,1,2,0,0.001445,-3.999988616,11.19999373,1,0,0,0,119,119,48,1,,,,,,,,,,,,,,,,,,,,,
,,,,,,,,,,,,,,,,,,,,,,,,,,,,,,,,,,,,,,,,,,5b8fe84a1a3ec10001a81642,6036eda1c18d8f66cec1503f,2021-02-24_21h22.16.385,Colour_Similarity_Experiment,2020.2.10,Win32,60,6036d0d9a84aa1626184a6ef,17.15476087,16.68140665,16.66335938,16.66503328,16.66397436,16.66844342,,,,,,,,,,,,,,,,,,,,PF,weak,3,,,,,,,,5,1.649845,,,,,,,,,,,,,,,,,,,,,,,,,,,,9,weak,60.80001235,-37.600007,1,0,0,response3disk,7,121,19.20001173,2.399993598,1,0,0,rectangle,19.20001173,2.399993598,1,0,0,1,1,0,0.000805,19.20001173,2.399993598,1,0,0,0,120,120,121,1,,,,,,,,,,,,,,,,,,,,,
,,,,,,,,,,,,,,,,,,,,,,,,,,,,,,,,,,,,,,,,,,5b8fe84a1a3ec10001a81642,6036eda1c18d8f66cec1503f,2021-02-24_21h22.16.385,Colour_Similarity_Experiment,2020.2.10,Win32,60,6036d0d9a84aa1626184a6ef,17.15476087,16.68140665,16.66335938,16.66503328,16.66397436,16.66844342,,,,,,,,,,,,,,,,,,,,PF,weak,3,,,,,,,,7,1.033215,,,,,,,,,,,,,,,,,,,,,,,,,,,,8,weak,43.20001209,97.59999502,1,0,0,response1disk,3,122,2.40001148,6.399993658,1,0,0,rectangle,2.40001148,6.399993658,1,0,0,1,3,0,0.0009,2.40001148,6.399993658,1,0,0,0,121,121,71,1,,,,,,,,,,,,,,,,,,,,,
,,,,,,,,,,,,,,,,,,,,,,,,,,,,,,,,,,,,,,,,,,5b8fe84a1a3ec10001a81642,6036eda1c18d8f66cec1503f,2021-02-24_21h22.16.385,Colour_Similarity_Experiment,2020.2.10,Win32,60,6036d0d9a84aa1626184a6ef,17.15476087,16.68140665,16.66335938,16.66503328,16.66397436,16.66844342,,,,,,,,,,,,,,,,,,,,PF,weak,3,,,,,,,,7,0.785335,,,,,,,,,,,,,,,,,,,,,,,,,,,,6,weak,40.80001205,110.3999952,1,0,0,response1disk,9,123,7.200011551,12.79999375,1,0,0,rectangle,7.200011551,12.79999375,1,0,0,1,6,0,0.000565,7.200011551,12.79999375,1,0,0,0,122,122,45,1,,,,,,,,,,,,,,,,,,,,,
,,,,,,,,,,,,,,,,,,,,,,,,,,,,,,,,,,,,,,,,,,5b8fe84a1a3ec10001a81642,6036eda1c18d8f66cec1503f,2021-02-24_21h22.16.385,Colour_Similarity_Experiment,2020.2.10,Win32,60,6036d0d9a84aa1626184a6ef,17.15476087,16.68140665,16.66335938,16.66503328,16.66397436,16.66844342,,,,,,,,,,,,,,,,,,,,PF,weak,3,,,,,,,,6,0.999225,,,,,,,,,,,,,,,,,,,,,,,,,,,,8,weak,99.20001292,31.19996961,1,0,0,response1disk,8,124,4.000011504,-2.400006473,1,0,0,rectangle,4.000011504,-2.400006473,1,0,0,1,7,0,0.00064,4.000011504,-2.400006473,1,0,0,0,123,123,153,1,,,,,,,,,,,,,,,,,,,,,
,,,,,,,,,,,,,,,,,,,,,,,,,,,,,,,,,,,,,,,,,,5b8fe84a1a3ec10001a81642,6036eda1c18d8f66cec1503f,2021-02-24_21h22.16.385,Colour_Similarity_Experiment,2020.2.10,Win32,60,6036d0d9a84aa1626184a6ef,17.15476087,16.68140665,16.66335938,16.66503328,16.66397436,16.66844342,,,,,,,,,,,,,,,,,,,,PF,weak,3,,,,,,,,7,0.932865,,,,,,,,,,,,,,,,,,,,,,,,,,,,9,weak,43.20001209,109.5999952,1,0,0,response1disk,5,125,20.80001175,-5.600006521,1,0,0,rectangle,20.80001175,-5.600006521,1,0,0,1,5,0,0.000775,20.80001175,-5.600006521,1,0,0,0,124,124,134,1,,,,,,,,,,,,,,,,,,,,,
,,,,,,,,,,,,,,,,,,,,,,,,,,,,,,,,,,,,,,,,,,5b8fe84a1a3ec10001a81642,6036eda1c18d8f66cec1503f,2021-02-24_21h22.16.385,Colour_Similarity_Experiment,2020.2.10,Win32,60,6036d0d9a84aa1626184a6ef,17.15476087,16.68140665,16.66335938,16.66503328,16.66397436,16.66844342,,,,,,,,,,,,,,,,,,,,PF,strong,3,,,,,,,,1,2.199595,,,,,,,,,,,,,,,,,,,,,,,,,,,,8,strong,-114.3999414,44.79999423,1,0,0,response7disk,4,126,-11.19998872,11.19999373,1,0,0,rectangle,-11.19998872,11.19999373,1,0,0,1,5,0,0.00017,-11.19998872,11.19999373,1,0,0,0,125,125,88,1,,,,,,,,,,,,,,,,,,,,,
,,,,,,,,,,,,,,,,,,,,,,,,,,,,,,,,,,,,,,,,,,5b8fe84a1a3ec10001a81642,6036eda1c18d8f66cec1503f,2021-02-24_21h22.16.385,Colour_Similarity_Experiment,2020.2.10,Win32,60,6036d0d9a84aa1626184a6ef,17.15476087,16.68140665,16.66335938,16.66503328,16.66397436,16.66844342,,,,,,,,,,,,,,,,,,,,PF,weak,3,,,,,,,,7,1.066415,,,,,,,,,,,,,,,,,,,,,,,,,,,,8,weak,43.20001209,98.39999503,1,0,0,response1disk,2,127,-3.199988604,16.79999381,1,0,0,rectangle,-3.199988604,16.79999381,1,0,0,1,1,0,0.00076,-3.199988604,16.79999381,1,0,0,0,126,126,83,1,,,,,,,,,,,,,,,,,,,,,
,,,,,,,,,,,,,,,,,,,,,,,,,,,,,,,,,,,,,,,,,,5b8fe84a1a3ec10001a81642,6036eda1c18d8f66cec1503f,2021-02-24_21h22.16.385,Colour_Similarity_Experiment,2020.2.10,Win32,60,6036d0d9a84aa1626184a6ef,17.15476087,16.68140665,16.66335938,16.66503328,16.66397436,16.66844342,,,,,,,,,,,,,,,,,,,,PF,weak,3,,,,,,,,7,1.43296,,,,,,,,,,,,,,,,,,,,,,,,,,,,3,weak,44.80001211,92.79999495,1,0,0,response1disk,4,128,8.800011575,7.999993682,1,0,0,rectangle,8.800011575,7.999993682,1,0,0,1,2,0,0.000605,8.800011575,7.999993682,1,0,0,0,127,127,30,1,,,,,,,,,,,,,,,,,,,,,
,,,,,,,,,,,,,,,,,,,,,,,,,,,,,,,,,,,,,,,,,,5b8fe84a1a3ec10001a81642,6036eda1c18d8f66cec1503f,2021-02-24_21h22.16.385,Colour_Similarity_Experiment,2020.2.10,Win32,60,6036d0d9a84aa1626184a6ef,17.15476087,16.68140665,16.66335938,16.66503328,16.66397436,16.66844342,,,,,,,,,,,,,,,,,,,,PF,strong,3,,,,,,,,7,0.99982,,,,,,,,,,,,,,,,,,,,,,,,,,,,9,strong,56.80001229,118.3999953,1,0,0,response1disk,2,129,-1.59998858,-5.600006521,1,0,0,rectangle,-100.7999901,45.59999424,1,0,0,1,1,1,2.116035,1.14441E-05,-6.4373E-06,1,0,0,0,128,128,11,1,response7disk_3,rectangle,,,,,,,,,,,,,,,,,,,
,,,,,,,,,,,,,,,,,,,,,,,,,,,,,,,,,,,,,,,,,,5b8fe84a1a3ec10001a81642,6036eda1c18d8f66cec1503f,2021-02-24_21h22.16.385,Colour_Similarity_Experiment,2020.2.10,Win32,60,6036d0d9a84aa1626184a6ef,17.15476087,16.68140665,16.66335938,16.66503328,16.66397436,16.66844342,,,,,,,,,,,,,,,,,,,,PF,strong,3,,,,,,,,4,1.2003,,,,,,,,,,,,,,,,,,,,,,,,,,,,6,strong,34.40001196,-78.40000761,1,0,0,response3disk,1,130,-1.59998858,-8.000006557,1,0,0,rectangle,-1.59998858,-8.000006557,1,0,0,1,1,0,0.000195,-1.59998858,-8.000006557,1,0,0,0,129,129,5,1,,,,,,,,,,,,,,,,,,,,,
,,,,,,,,,,,,,,,,,,,,,,,,,,,,,,,,,,,,,,,,,,5b8fe84a1a3ec10001a81642,6036eda1c18d8f66cec1503f,2021-02-24_21h22.16.385,Colour_Similarity_Experiment,2020.2.10,Win32,60,6036d0d9a84aa1626184a6ef,17.15476087,16.68140665,16.66335938,16.66503328,16.66397436,16.66844342,,,,,,,,,,,,,,,,,,,,PF,strong,3,,,,,,,,5,1.21727,,,,,,,,,,,,,,,,,,,,,,,,,,,,3,strong,86.40001273,-39.20000702,1,0,0,response3disk,9,131,5.600060356,-4.800006509,1,0,0,rectangle,5.600060356,-4.800006509,1,0,0,1,3,0,0.00093,5.600060356,-4.800006509,1,0,0,0,130,130,143,1,,,,,,,,,,,,,,,,,,,,,
,,,,,,,,,,,,,,,,,,,,,,,,,,,,,,,,,,,,,,,,,,5b8fe84a1a3ec10001a81642,6036eda1c18d8f66cec1503f,2021-02-24_21h22.16.385,Colour_Similarity_Experiment,2020.2.10,Win32,60,6036d0d9a84aa1626184a6ef,17.15476087,16.68140665,16.66335938,16.66503328,16.66397436,16.66844342,,,,,,,,,,,,,,,,,,,,PF,weak,3,,,,,,,,7,1.44981,,,,,,,,,,,,,,,,,,,,,,,,,,,,8,weak,41.60006089,109.5999952,1,0,0,response1disk,7,132,-1.59998858,1.599993587,1,0,0,rectangle,-1.59998858,1.599993587,1,0,0,1,6,0,0.000785,-1.59998858,1.599993587,1,0,0,0,131,131,23,1,,,,,,,,,,,,,,,,,,,,,
,,,,,,,,,,,,,,,,,,,,,,,,,,,,,,,,,,,,,,,,,,5b8fe84a1a3ec10001a81642,6036eda1c18d8f66cec1503f,2021-02-24_21h22.16.385,Colour_Similarity_Experiment,2020.2.10,Win32,60,6036d0d9a84aa1626184a6ef,17.15476087,16.68140665,16.66335938,16.66503328,16.66397436,16.66844342,,,,,,,,,,,,,,,,,,,,PF,strong,3,,,,,,,,6,1.10044,,,,,,,,,,,,,,,,,,,,,,,,,,,,4,strong,98.40001291,32.79999405,1,0,0,response1disk,5,133,-6.399939823,3.19999361,1,0,0,rectangle,-6.399939823,3.19999361,1,0,0,1,0,0,0.00106,-6.399939823,3.19999361,1,0,0,0,132,132,116,1,,,,,,,,,,,,,,,,,,,,,
,,,,,,,,,,,,,,,,,,,,,,,,,,,,,,,,,,,,,,,,,,5b8fe84a1a3ec10001a81642,6036eda1c18d8f66cec1503f,2021-02-24_21h22.16.385,Colour_Similarity_Experiment,2020.2.10,Win32,60,6036d0d9a84aa1626184a6ef,17.15476087,16.68140665,16.66335938,16.66503328,16.66397436,16.66844342,,,,,,,,,,,,,,,,,,,,PF,weak,3,,,,,,,,5,1.599255,,,,,,,,,,,,,,,,,,,,,,,,,,,,7,weak,103.200013,-31.2000069,1,0,0,response3disk,6,134,-6.399939823,-15.20000666,1,0,0,rectangle,-6.399939823,-15.20000666,1,0,0,1,4,0,0.0006,-6.399939823,-15.20000666,1,0,0,0,133,133,29,1,,,,,,,,,,,,,,,,,,,,,
,,,,,,,,,,,,,,,,,,,,,,,,,,,,,,,,,,,,,,,,,,5b8fe84a1a3ec10001a81642,6036eda1c18d8f66cec1503f,2021-02-24_21h22.16.385,Colour_Similarity_Experiment,2020.2.10,Win32,60,6036d0d9a84aa1626184a6ef,17.15476087,16.68140665,16.66335938,16.66503328,16.66397436,16.66844342,,,,,,,,,,,,,,,,,,,,PF,weak,3,,,,,,,,5,1.199305,,,,,,,,,,,,,,,,,,,,,,,,,,,,8,weak,88.80001277,-42.40000707,1,0,0,response3disk,5,135,12.00001162,-12.00000662,1,0,0,rectangle,12.00001162,-12.00000662,1,0,0,1,0,0,0.000665,12.00001162,-12.00000662,1,0,0,0,134,134,98,1,,,,,,,,,,,,,,,,,,,,,
,,,,,,,,,,,,,,,,,,,,,,,,,,,,,,,,,,,,,,,,,,5b8fe84a1a3ec10001a81642,6036eda1c18d8f66cec1503f,2021-02-24_21h22.16.385,Colour_Similarity_Experiment,2020.2.10,Win32,60,6036d0d9a84aa1626184a6ef,17.15476087,16.68140665,16.66335938,16.66503328,16.66397436,16.66844342,,,,,,,,,,,,,,,,,,,,PF,strong,3,,,,,,,,5,0.899105,,,,,,,,,,,,,,,,,,,,,,,,,,,,7,strong,89.60001278,-48.00000715,1,0,0,response3disk,6,136,5.600060356,-12.00000662,1,0,0,rectangle,5.600060356,-12.00000662,1,0,0,1,5,0,0.000595,5.600060356,-12.00000662,1,0,0,0,135,135,31,1,,,,,,,,,,,,,,,,,,,,,
,,,,,,,,,,,,,,,,,,,,,,,,,,,,,,,,,,,,,,,,,,5b8fe84a1a3ec10001a81642,6036eda1c18d8f66cec1503f,2021-02-24_21h22.16.385,Colour_Similarity_Experiment,2020.2.10,Win32,60,6036d0d9a84aa1626184a6ef,17.15476087,16.68140665,16.66335938,16.66503328,16.66397436,16.66844342,,,,,,,,,,,,,,,,,,,,PF,weak,3,,,,,,,,6,1.232535,,,,,,,,,,,,,,,,,,,,,,,,,,,,6,weak,96.80001289,51.99999434,1,0,0,response1disk,8,137,1.600060296,11.19999373,1,0,0,rectangle,1.600060296,11.19999373,1,0,0,1,6,0,0.00071,1.600060296,11.19999373,1,0,0,0,136,136,64,1,,,,,,,,,,,,,,,,,,,,,
,,,,,,,,,,,,,,,,,,,,,,,,,,,,,,,,,,,,,,,,,,5b8fe84a1a3ec10001a81642,6036eda1c18d8f66cec1503f,2021-02-24_21h22.16.385,Colour_Similarity_Experiment,2020.2.10,Win32,60,6036d0d9a84aa1626184a6ef,17.15476087,16.68140665,16.66335938,16.66503328,16.66397436,16.66844342,,,,,,,,,,,,,,,,,,,,PF,strong,3,,,,,,,,7,1.349925,,,,,,,,,,,,,,,,,,,,,,,,,,,,9,strong,44.80001211,92.79999495,1,0,0,response1disk,1,138,5.600060356,4.799993634,1,0,0,rectangle,5.600060356,4.799993634,1,0,0,1,0,0,0.000665,5.600060356,4.799993634,1,0,0,0,137,137,111,1,,,,,,,,,,,,,,,,,,,,,
,,,,,,,,,,,,,,,,,,,,,,,,,,,,,,,,,,,,,,,,,,5b8fe84a1a3ec10001a81642,6036eda1c18d8f66cec1503f,2021-02-24_21h22.16.385,Colour_Similarity_Experiment,2020.2.10,Win32,60,6036d0d9a84aa1626184a6ef,17.15476087,16.68140665,16.66335938,16.66503328,16.66397436,16.66844342,,,,,,,,,,,,,,,,,,,,PF,weak,3,,,,,,,,5,2.36658,,,,,,,,,,,,,,,,,,,,,,,,,,,,3,weak,93.60001284,-51.2000072,1,0,0,response3disk,9,139,7.200011551,2.399993598,1,0,0,rectangle,7.200011551,2.399993598,1,0,0,1,6,0,0.000515,7.200011551,2.399993598,1,0,0,0,138,138,79,1,,,,,,,,,,,,,,,,,,,,,
,,,,,,,,,,,,,,,,,,,,,,,,,,,,,,,,,,,,,,,,,,5b8fe84a1a3ec10001a81642,6036eda1c18d8f66cec1503f,2021-02-24_21h22.16.385,Colour_Similarity_Experiment,2020.2.10,Win32,60,6036d0d9a84aa1626184a6ef,17.15476087,16.68140665,16.66335938,16.66503328,16.66397436,16.66844342,,,,,,,,,,,,,,,,,,,,PF,weak,3,,,,,,,,7,1.066,,,,,,,,,,,,,,,,,,,,,,,,,,,,4,weak,53.60001224,103.1999707,1,0,0,response1disk,4,140,10.4000116,-5.600006521,1,0,0,rectangle,10.4000116,-5.600006521,1,0,0,1,1,0,0.00088,10.4000116,-5.600006521,1,0,0,0,139,139,70,1,,,,,,,,,,,,,,,,,,,,,
,,,,,,,,,,,,,,,,,,,,,,,,,,,,,,,,,,,,,,,,,,5b8fe84a1a3ec10001a81642,6036eda1c18d8f66cec1503f,2021-02-24_21h22.16.385,Colour_Similarity_Experiment,2020.2.10,Win32,60,6036d0d9a84aa1626184a6ef,17.15476087,16.68140665,16.66335938,16.66503328,16.66397436,16.66844342,,,,,,,,,,,,,,,,,,,,PF,strong,3,,,,,,,,7,0.91629,,,,,,,,,,,,,,,,,,,,,,,,,,,,5,strong,47.20001215,99.99999505,1,0,0,response1disk,9,141,12.00001162,1.599993587,1,0,0,rectangle,12.00001162,1.599993587,1,0,0,1,5,0,0.000675,12.00001162,1.599993587,1,0,0,0,140,140,61,1,,,,,,,,,,,,,,,,,,,,,
,,,,,,,,,,,,,,,,,,,,,,,,,,,,,,,,,,,,,,,,,,5b8fe84a1a3ec10001a81642,6036eda1c18d8f66cec1503f,2021-02-24_21h22.16.385,Colour_Similarity_Experiment,2020.2.10,Win32,60,6036d0d9a84aa1626184a6ef,17.15476087,16.68140665,16.66335938,16.66503328,16.66397436,16.66844342,,,,,,,,,,,,,,,,,,,,PF,strong,3,,,,,,,,6,1.03273,,,,,,,,,,,,,,,,,,,,,,,,,,,,4,strong,109.6000131,38.39999413,1,0,0,response1disk,2,142,-16.79998881,9.599993706,1,0,0,rectangle,-16.79998881,9.599993706,1,0,0,1,5,0,0.00019,-16.79998881,9.599993706,1,0,0,0,141,141,13,1,,,,,,,,,,,,,,,,,,,,,
,,,,,,,,,,,,,,,,,,,,,,,,,,,,,,,,,,,,,,,,,,5b8fe84a1a3ec10001a81642,6036eda1c18d8f66cec1503f,2021-02-24_21h22.16.385,Colour_Similarity_Experiment,2020.2.10,Win32,60,6036d0d9a84aa1626184a6ef,17.15476087,16.68140665,16.66335938,16.66503328,16.66397436,16.66844342,,,,,,,,,,,,,,,,,,,,PF,weak,3,,,,,,,,7,0.882745,,,,,,,,,,,,,,,,,,,,,,,,,,,,8,weak,44.0000121,95.99999499,1,0,0,response1disk,4,143,19.20001173,4.799993634,1,0,0,rectangle,19.20001173,4.799993634,1,0,0,1,7,0,0.00073,19.20001173,4.799993634,1,0,0,0,142,142,78,1,,,,,,,,,,,,,,,,,,,,,
,,,,,,,,,,,,,,,,,,,,,,,,,,,,,,,,,,,,,,,,,,5b8fe84a1a3ec10001a81642,6036eda1c18d8f66cec1503f,2021-02-24_21h22.16.385,Colour_Similarity_Experiment,2020.2.10,Win32,60,6036d0d9a84aa1626184a6ef,17.15476087,16.68140665,16.66335938,16.66503328,16.66397436,16.66844342,,,,,,,,,,,,,,,,,,,,PF,weak,3,,,,,,,,7,1.066025,,,,,,,,,,,,,,,,,,,,,,,,,,,,3,weak,53.60001224,97.59999502,1,0,0,response1disk,2,144,-3.199988604,13.59999377,1,0,0,rectangle,98.40001291,-36.00000697,1,0,0,5,5,1,2.20012,-6.399939823,1.599993587,1,0,0,0,143,143,36,1,response3disk_3,rectangle,,,,,,,,,,,,,,,,,,,
,,,,,,,,,,,,,,,,,,,,,,,,,,,,,,,,,,,,,,,,,,5b8fe84a1a3ec10001a81642,6036eda1c18d8f66cec1503f,2021-02-24_21h22.16.385,Colour_Similarity_Experiment,2020.2.10,Win32,60,6036d0d9a84aa1626184a6ef,17.15476087,16.68140665,16.66335938,16.66503328,16.66397436,16.66844342,,,,,,,,,,,,,,,,,,,,PF,strong,3,,,,,,,,5,1.165555,,,,,,,,,,,,,,,,,,,,,,,,,,,,4,strong,113.6000131,-41.60000706,1,0,0,response3disk,1,145,1.600060296,-6.400006533,1,0,0,rectangle,1.600060296,-6.400006533,1,0,0,5,7,0,0.00062,1.600060296,-6.400006533,1,0,0,0,144,144,102,1,,,,,,,,,,,,,,,,,,,,,
,,,,,,,,,,,,,,,,,,,,,,,,,,,,,,,,,,,,,,,,,,5b8fe84a1a3ec10001a81642,6036eda1c18d8f66cec1503f,2021-02-24_21h22.16.385,Colour_Similarity_Experiment,2020.2.10,Win32,60,6036d0d9a84aa1626184a6ef,17.15476087,16.68140665,16.66335938,16.66503328,16.66397436,16.66844342,,,,,,,,,,,,,,,,,,,,PF,strong,3,,,,,,,,6,1.03227,,,,,,,,,,,,,,,,,,,,,,,,,,,,9,strong,99.20001292,49.5999943,1,0,0,response1disk,9,146,2.40001148,-6.4373E-06,1,0,0,rectangle,2.40001148,-6.4373E-06,1,0,0,5,4,0,0.00079,2.40001148,-6.4373E-06,1,0,0,0,145,145,17,1,,,,,,,,,,,,,,,,,,,,,
,,,,,,,,,,,,,,,,,,,,,,,,,,,,,,,,,,,,,,,,,,5b8fe84a1a3ec10001a81642,6036eda1c18d8f66cec1503f,2021-02-24_21h22.16.385,Colour_Similarity_Experiment,2020.2.10,Win32,60,6036d0d9a84aa1626184a6ef,17.15476087,16.68140665,16.66335938,16.66503328,16.66397436,16.66844342,,,,,,,,,,,,,,,,,,,,PF,strong,3,,,,,,,,7,1.18291,,,,,,,,,,,,,,,,,,,,,,,,,,,,6,strong,42.40001208,101.5999951,1,0,0,response1disk,5,147,5.600060356,-2.400006473,1,0,0,rectangle,5.600060356,-2.400006473,1,0,0,5,4,0,0.00014,5.600060356,-2.400006473,1,0,0,0,146,146,126,1,,,,,,,,,,,,,,,,,,,,,
,,,,,,,,,,,,,,,,,,,,,,,,,,,,,,,,,,,,,,,,,,5b8fe84a1a3ec10001a81642,6036eda1c18d8f66cec1503f,2021-02-24_21h22.16.385,Colour_Similarity_Experiment,2020.2.10,Win32,60,6036d0d9a84aa1626184a6ef,17.15476087,16.68140665,16.66335938,16.66503328,16.66397436,16.66844342,,,,,,,,,,,,,,,,,,,,PF,strong,3,,,,,,,,7,1.63273,,,,,,,,,,,,,,,,,,,,,,,,,,,,2,strong,38.40001202,97.59999502,1,0,0,response1disk,2,148,13.60006047,-4.000006497,1,0,0,rectangle,13.60006047,-4.000006497,1,0,0,5,2,0,0.00056,13.60006047,-4.000006497,1,0,0,0,147,147,142,1,,,,,,,,,,,,,,,,,,,,,
,,,,,,,,,,,,,,,,,,,,,,,,,,,,,,,,,,,,,,,,,,5b8fe84a1a3ec10001a81642,6036eda1c18d8f66cec1503f,2021-02-24_21h22.16.385,Colour_Similarity_Experiment,2020.2.10,Win32,60,6036d0d9a84aa1626184a6ef,17.15476087,16.68140665,16.66335938,16.66503328,16.66397436,16.66844342,,,,,,,,,,,,,,,,,,,,PF,strong,3,,,,,,,,6,1.80165,,,,,,,,,,,,,,,,,,,,,,,,,,,,4,strong,102.400013,35.9999941,1,0,0,response1disk,9,149,19.20001173,-5.600006521,1,0,0,rectangle,19.20001173,-5.600006521,1,0,0,5,4,0,0.000565,19.20001173,-5.600006521,1,0,0,0,148,148,90,1,,,,,,,,,,,,,,,,,,,,,
,,,,,,,,,,,,,,,,,,,,,,,,,,,,,,,,,,,,,,,,,,5b8fe84a1a3ec10001a81642,6036eda1c18d8f66cec1503f,2021-02-24_21h22.16.385,Colour_Similarity_Experiment,2020.2.10,Win32,60,6036d0d9a84aa1626184a6ef,17.15476087,16.68140665,16.66335938,16.66503328,16.66397436,16.66844342,,,,,,,,,,,,,,,,,,,,PF,strong,3,,,,,,,,7,1.266365,,,,,,,,,,,,,,,,,,,,,,,,,,,,5,strong,50.4000122,95.99999499,1,0,0,response1disk,6,150,4.000011504,-4.000006497,1,0,0,rectangle,4.000011504,-4.000006497,1,0,0,5,1,0,0.000625,4.000011504,-4.000006497,1,0,0,0,149,149,12,1,,,,,,,,,,,,,,,,,,,,,
,,,,,,,,,,,,,,,,,,,,,,,,,,,,,,,,,,,,,,,,,,5b8fe84a1a3ec10001a81642,6036eda1c18d8f66cec1503f,2021-02-24_21h22.16.385,Colour_Similarity_Experiment,2020.2.10,Win32,60,6036d0d9a84aa1626184a6ef,17.15476087,16.68140665,16.66335938,16.66503328,16.66397436,16.66844342,,,,,,,,,,,,,,,,,,,,PF,weak,3,,,,,,,,7,1.59984,,,,,,,,,,,,,,,,,,,,,,,,,,,,4,weak,50.4000122,111.9999952,1,0,0,response1disk,9,151,1.600060296,7.999993682,1,0,0,rectangle,1.600060296,7.999993682,1,0,0,5,5,0,0.000655,1.600060296,7.999993682,1,0,0,0,150,150,75,1,,,,,,,,,,,,,,,,,,,,,
,,,,,,,,,,,,,,,,,,,,,,,,,,,,,,,,,,,,,,,,,,5b8fe84a1a3ec10001a81642,6036eda1c18d8f66cec1503f,2021-02-24_21h22.16.385,Colour_Similarity_Experiment,2020.2.10,Win32,60,6036d0d9a84aa1626184a6ef,17.15476087,16.68140665,16.66335938,16.66503328,16.66397436,16.66844342,,,,,,,,,,,,,,,,,,,,PF,weak,3,,,,,,,,4,1.79963,,,,,,,,,,,,,,,,,,,,,,,,,,,,1,weak,50.4000122,-94.40000784,1,0,0,response3disk,1,152,-15.99998879,-4.800006509,1,0,0,rectangle,-33.59998906,104.7999951,1,0,0,0,0,1,2.06612,-8.799988687,-6.400006533,1,0,0,0,151,151,76,1,response7disk_3,rectangle,,,,,,,,,,,,,,,,,,,
,,,,,,,,,,,,,,,,,,,,,,,,,,,,,,,,,,,,,,,,,,5b8fe84a1a3ec10001a81642,6036eda1c18d8f66cec1503f,2021-02-24_21h22.16.385,Colour_Similarity_Experiment,2020.2.10,Win32,60,6036d0d9a84aa1626184a6ef,17.15476087,16.68140665,16.66335938,16.66503328,16.66397436,16.66844342,,,,,,,,,,,,,,,,,,,,PF,strong,3,,,,,,,,5,1.96657,,,,,,,,,,,,,,,,,,,,,,,,,,,,1,strong,68.80001247,-50.40000719,1,0,0,response3disk,9,153,-4.799988627,-4.800006509,1,0,0,rectangle,-4.799988627,-4.800006509,1,0,0,0,4,0,0.00058,-4.799988627,-4.800006509,1,0,0,0,152,152,123,1,,,,,,,,,,,,,,,,,,,,,
,,,,,,,,,,,,,,,,,,,,,,,,,,,,,,,,,,,,,,,,,,5b8fe84a1a3ec10001a81642,6036eda1c18d8f66cec1503f,2021-02-24_21h22.16.385,Colour_Similarity_Experiment,2020.2.10,Win32,60,6036d0d9a84aa1626184a6ef,17.15476087,16.68140665,16.66335938,16.66503328,16.66397436,16.66844342,,,,,,,,,,,,,,,,,,,,PF,weak,3,,,,,,,,4,1.91608,,,,,,,,,,,,,,,,,,,,,,,,,,,,5,weak,42.40001208,-87.20000774,1,0,0,response3disk,8,154,1.600060296,-16.80000669,1,0,0,rectangle,1.600060296,-16.80000669,1,0,0,0,4,0,0.000135,1.600060296,-16.80000669,1,0,0,0,153,153,149,1,,,,,,,,,,,,,,,,,,,,,
,,,,,,,,,,,,,,,,,,,,,,,,,,,,,,,,,,,,,,,,,,5b8fe84a1a3ec10001a81642,6036eda1c18d8f66cec1503f,2021-02-24_21h22.16.385,Colour_Similarity_Experiment,2020.2.10,Win32,60,6036d0d9a84aa1626184a6ef,17.15476087,16.68140665,16.66335938,16.66503328,16.66397436,16.66844342,,,,,,,,,,,,,,,,,,,,PF,strong,3,,,,,,,,0,1.01645,,,,,,,,,,,,,,,,,,,,,,,,,,,,3,strong,-49.5999893,107.9999952,1,0,0,response7disk,8,155,15.20001167,7.999993682,1,0,0,rectangle,15.20001167,7.999993682,1,0,0,0,6,0,0.00092,15.20001167,7.999993682,1,0,0,0,154,154,44,1,,,,,,,,,,,,,,,,,,,,,
,,,,,,,,,,,,,,,,,,,,,,,,,,,,,,,,,,,,,,,,,,5b8fe84a1a3ec10001a81642,6036eda1c18d8f66cec1503f,2021-02-24_21h22.16.385,Colour_Similarity_Experiment,2020.2.10,Win32,60,6036d0d9a84aa1626184a6ef,17.15476087,16.68140665,16.66335938,16.66503328,16.66397436,16.66844342,,,,,,,,,,,,,,,,,,,,PF,strong,3,,,,,,,,7,1.19984,,,,,,,,,,,,,,,,,,,,,,,,,,,,8,strong,34.40001196,110.3999952,1,0,0,response1disk,2,156,1.600060296,12.79999375,1,0,0,rectangle,1.600060296,12.79999375,1,0,0,0,2,0,0.00059,1.600060296,12.79999375,1,0,0,0,155,155,22,1,,,,,,,,,,,,,,,,,,,,,
,,,,,,,,,,,,,,,,,,,,,,,,,,,,,,,,,,,,,,,,,,5b8fe84a1a3ec10001a81642,6036eda1c18d8f66cec1503f,2021-02-24_21h22.16.385,Colour_Similarity_Experiment,2020.2.10,Win32,60,6036d0d9a84aa1626184a6ef,17.15476087,16.68140665,16.66335938,16.66503328,16.66397436,16.66844342,,,,,,,,,,,,,,,,,,,,PF,weak,3,,,,,,,,7,1.933375,,,,,,,,,,,,,,,,,,,,,,,,,,,,1,weak,38.40001202,85.59999484,1,0,0,response1disk,3,157,5.600060356,12.79999375,1,0,0,rectangle,5.600060356,12.79999375,1,0,0,0,1,0,0.000715,5.600060356,12.79999375,1,0,0,0,156,156,1,1,,,,,,,,,,,,,,,,,,,,,
,,,,,,,,,,,,,,,,,,,,,,,,,,,,,,,,,,,,,,,,,,5b8fe84a1a3ec10001a81642,6036eda1c18d8f66cec1503f,2021-02-24_21h22.16.385,Colour_Similarity_Experiment,2020.2.10,Win32,60,6036d0d9a84aa1626184a6ef,17.15476087,16.68140665,16.66335938,16.66503328,16.66397436,16.66844342,,,,,,,,,,,,,,,,,,,,PF,weak,3,,,,,,,,1,1.74967,,,,,,,,,,,,,,,,,,,,,,,,,,,,4,weak,-97.59999001,34.39999408,1,0,0,response7disk,5,158,-17.59998882,9.599993706,1,0,0,rectangle,-17.59998882,9.599993706,1,0,0,0,5,0,0.000565,-17.59998882,9.599993706,1,0,0,0,157,157,49,1,,,,,,,,,,,,,,,,,,,,,
,,,,,,,,,,,,,,,,,,,,,,,,,,,,,,,,,,,,,,,,,,5b8fe84a1a3ec10001a81642,6036eda1c18d8f66cec1503f,2021-02-24_21h22.16.385,Colour_Similarity_Experiment,2020.2.10,Win32,60,6036d0d9a84aa1626184a6ef,17.15476087,16.68140665,16.66335938,16.66503328,16.66397436,16.66844342,,,,,,,,,,,,,,,,,,,,PF,weak,3,,,,,,,,7,1.083265,,,,,,,,,,,,,,,,,,,,,,,,,,,,6,weak,43.20001209,91.19997051,1,0,0,response1disk,7,159,14.40001166,12.79999375,1,0,0,rectangle,14.40001166,12.79999375,1,0,0,0,7,0,0.000855,14.40001166,12.79999375,1,0,0,0,158,158,50,1,,,,,,,,,,,,,,,,,,,,,
,,,,,,,,,,,,,,,,,,,,,,,,,,,,,,,,,,,,,,,,,,5b8fe84a1a3ec10001a81642,6036eda1c18d8f66cec1503f,2021-02-24_21h22.16.385,Colour_Similarity_Experiment,2020.2.10,Win32,60,6036d0d9a84aa1626184a6ef,17.15476087,16.68140665,16.66335938,16.66503328,16.66397436,16.66844342,,,,,,,,,,,,,,,,,,,,PF,strong,3,,,,,,,,5,1.28315,,,,,,,,,,,,,,,,,,,,,,,,,,,,4,strong,97.6000129,-53.60000724,1,0,0,response3disk,8,160,1.14441E-05,3.999993622,1,0,0,rectangle,1.14441E-05,3.999993622,1,0,0,0,7,0,0.000145,1.14441E-05,3.999993622,1,0,0,0,159,159,35,1,,,,,,,,,,,,,,,,,,,,,
,,,,,,,,,,,,,,,,,,,,,,,,,,,,,,,,,,,,,,,,,,5b8fe84a1a3ec10001a81642,6036eda1c18d8f66cec1503f,2021-02-24_21h22.16.385,Colour_Similarity_Experiment,2020.2.10,Win32,60,6036d0d9a84aa1626184a6ef,17.15476087,16.68140665,16.66335938,16.66503328,16.66397436,16.66844342,,,,,,,,,,,,,,,,,,,,PF,strong,3,,,,,,,,0,1.09956,,,,,,,,,,,,,,,,,,,,,,,,,,,,7,strong,-32.79998904,104.7999951,1,0,0,response7disk,8,161,-3.999988616,-2.400006473,1,0,0,rectangle,-42.39994036,-88.80000776,1,0,0,3,3,1,1.783265,10.4000116,-6.4373E-06,1,0,0,0,160,160,97,1,response5disk_3,rectangle,,,,,,,,,,,,,,,,,,,
,,,,,,,,,,,,,,,,,,,,,,,,,,,,,,,,,,,,,,,,,,5b8fe84a1a3ec10001a81642,6036eda1c18d8f66cec1503f,2021-02-24_21h22.16.385,Colour_Similarity_Experiment,2020.2.10,Win32,60,6036d0d9a84aa1626184a6ef,17.15476087,16.68140665,16.66335938,16.66503328,16.66397436,16.66844342,,,,,,,,,,,,,,,,,,,,PF,strong,3,,,,,,,,7,1.78276,,,,,,,,,,,,,,,,,,,,,,,,,,,,9,strong,41.60006089,91.19997051,1,0,0,response1disk,4,162,-15.19998878,6.399993658,1,0,0,rectangle,-15.19998878,6.399993658,1,0,0,3,0,0,0.00068,-15.19998878,6.399993658,1,0,0,0,161,161,60,1,,,,,,,,,,,,,,,,,,,,,
,,,,,,,,,,,,,,,,,,,,,,,,,,,,,,,,,,,,,,,,,,5b8fe84a1a3ec10001a81642,6036eda1c18d8f66cec1503f,2021-02-24_21h22.16.385,Colour_Similarity_Experiment,2020.2.10,Win32,60,6036d0d9a84aa1626184a6ef,17.15476087,16.68140665,16.66335938,16.66503328,16.66397436,16.66844342,,,,,,,,,,,,,,,,,,,,,,,,,,,,,,,,,,,,,,,,,,,,,,,,,,,,,,,,,,,,,,,,,,,,,,,,,,,,,,,,,,,,,,,,,,,,,,,,0,0,0,0,1,,,,,,,,,,,,,,
,,,,,,,,,,,,,,,,,,,,,,,,,,,,,,,,,,,,,,,,,,5b8fe84a1a3ec10001a81642,6036eda1c18d8f66cec1503f,2021-02-24_21h22.16.385,Colour_Similarity_Experiment,2020.2.10,Win32,60,6036d0d9a84aa1626184a6ef,17.15476087,16.68140665,16.66335938,16.66503328,16.66397436,16.66844342,,,,,,,,,,,,,,,,,,,,PF,strong,3,,,,,,,,6,0.83442,,,,,,,,,,,,,,,,,,,,,,,,,,,,6,strong,90.40001279,41.59999418,1,0,0,response1disk,7,163,17.60006053,6.399993658,1,0,0,rectangle,17.60006053,6.399993658,1,0,0,3,4,0,0.00052,17.60006053,6.399993658,1,0,0,0,0,0,18,1,,,,,,,,,,,,,,,,,,,,,
,,,,,,,,,,,,,,,,,,,,,,,,,,,,,,,,,,,,,,,,,,5b8fe84a1a3ec10001a81642,6036eda1c18d8f66cec1503f,2021-02-24_21h22.16.385,Colour_Similarity_Experiment,2020.2.10,Win32,60,6036d0d9a84aa1626184a6ef,17.15476087,16.68140665,16.66335938,16.66503328,16.66397436,16.66844342,,,,,,,,,,,,,,,,,,,,PF,strong,3,,,,,,,,0,1.0498,,,,,,,,,,,,,,,,,,,,,,,,,,,,9,strong,-42.39994036,110.3999952,1,0,0,response7disk,7,164,2.40001148,0.799993575,1,0,0,rectangle,2.40001148,0.799993575,1,0,0,3,5,0,0.001325,2.40001148,0.799993575,1,0,0,0,1,1,100,1,,,,,,,,,,,,,,,,,,,,,
,,,,,,,,,,,,,,,,,,,,,,,,,,,,,,,,,,,,,,,,,,5b8fe84a1a3ec10001a81642,6036eda1c18d8f66cec1503f,2021-02-24_21h22.16.385,Colour_Similarity_Experiment,2020.2.10,Win32,60,6036d0d9a84aa1626184a6ef,17.15476087,16.68140665,16.66335938,16.66503328,16.66397436,16.66844342,,,,,,,,,,,,,,,,,,,,PF,weak,3,,,,,,,,7,1.15025,,,,,,,,,,,,,,,,,,,,,,,,,,,,6,weak,44.80001211,115.1999709,1,0,0,response1disk,4,165,7.200011551,4.799993634,1,0,0,rectangle,7.200011551,4.799993634,1,0,0,3,3,0,0.00071,7.200011551,4.799993634,1,0,0,0,2,2,33,1,,,,,,,,,,,,,,,,,,,,,
,,,,,,,,,,,,,,,,,,,,,,,,,,,,,,,,,,,,,,,,,,5b8fe84a1a3ec10001a81642,6036eda1c18d8f66cec1503f,2021-02-24_21h22.16.385,Colour_Similarity_Experiment,2020.2.10,Win32,60,6036d0d9a84aa1626184a6ef,17.15476087,16.68140665,16.66335938,16.66503328,16.66397436,16.66844342,,,,,,,,,,,,,,,,,,,,PF,strong,3,,,,,,,,2,1.14832,,,,,,,,,,,,,,,,,,,,,,,,,,,,1,strong,-76.7999897,-35.20000696,1,0,0,response5disk,5,166,-9.599988699,-1.600006461,1,0,0,rectangle,-9.599988699,-1.600006461,1,0,0,3,6,0,0.00076,-9.599988699,-1.600006461,1,0,0,0,3,3,82,1,,,,,,,,,,,,,,,,,,,,,
,,,,,,,,,,,,,,,,,,,,,,,,,,,,,,,,,,,,,,,,,,5b8fe84a1a3ec10001a81642,6036eda1c18d8f66cec1503f,2021-02-24_21h22.16.385,Colour_Similarity_Experiment,2020.2.10,Win32,60,6036d0d9a84aa1626184a6ef,17.15476087,16.68140665,16.66335938,16.66503328,16.66397436,16.66844342,,,,,,,,,,,,,,,,,,,,PF,weak,3,,,,,,,,5,1.932685,,,,,,,,,,,,,,,,,,,,,,,,,,,,3,weak,75.20001256,-49.60000718,1,0,0,response3disk,6,167,1.600060296,-9.60000658,1,0,0,rectangle,1.600060296,-9.60000658,1,0,0,3,0,0,0.001065,1.600060296,-9.60000658,1,0,0,0,4,4,47,1,,,,,,,,,,,,,,,,,,,,,
