key_resp.keys,key_resp.rt,key_resp_16.keys,key_resp_16.rt,key_resp_2.keys,key_resp_2.rt,X Scale,ratio_pxpermm,screen_size_x,screen_size_y,testsize,key_resp_3.keys,key_resp_4.keys,key_resp_4.rt,line_size,key_resp_5.keys,key_resp_5.rt,key_resp_6.keys,key_resp_6.rt,key_resp_8.keys,key_resp_8.rt,key_resp_7.keys,key_resp_7.rt,key_resp_12.keys,key_resp_12.rt,key_resp_11.keys,key_resp_11.rt,key_resp_18.keys,key_resp_18.rt,key_resp_21.keys,key_resp_21.rt,key_resp_13.keys,key_resp_13.rt,key_resp_19.keys,key_resp_19.rt,ballposx,viewer_distance,trials.thisRepN,trials.thisTrialN,trials.thisN,trials.thisIndex,trials.ran,participant,session,date,expName,psychopyVersion,OS,frameRate,study_id,realFrameRate1,realFrameRate2,realFrameRate3,realFrameRate4,realFrameRate5,realFrameRate,viewerdistancecm,DVA_to_distance,radius_F,radius_P,r_F,R_P,key_resp_20.keys,key_resp_20.rt,key_resp_14.keys,key_resp_14.rt,key_resp_15.keys,key_resp_15.rt,key_resp_17.keys,key_resp_17.rt,key_resp_9.keys,key_resp_9.rt,key_resp_10.keys,key_resp_10.rt,Colour_1,Ecc,maskCon,mask_frames,mouse_5.x,mouse_5.y,mouse_5.leftButton,mouse_5.midButton,mouse_5.rightButton,mouse_5.clicked_name,Colour_2,similarity,response_time,mouse_10.x,mouse_10.y,mouse_10.leftButton,mouse_10.midButton,mouse_10.rightButton,mouse_10.clicked_name,mouse_7.x,mouse_7.y,mouse_7.leftButton,mouse_7.midButton,mouse_7.rightButton,catchnumberprac,mouse_6.x,mouse_6.y,mouse_6.leftButton,mouse_6.midButton,mouse_6.rightButton,duringprac.thisRepN,duringprac.thisTrialN,duringprac.thisN,duringprac.thisIndex,duringprac.ran,mouse_7.clicked_name,catchprac,mouse_6.clicked_name,key_resp_22.keys,key_resp_22.rt,Colour1,maskCon1,mouse.x,mouse.y,mouse.leftButton,mouse.midButton,mouse.rightButton,mouse.clicked_name,Colour2,trialnumber,mouse_2.x,mouse_2.y,mouse_2.leftButton,mouse_2.midButton,mouse_2.rightButton,mouse_2.clicked_name,mouse_3.x,mouse_3.y,mouse_3.leftButton,mouse_3.midButton,mouse_3.rightButton,mouse_3.clicked_name,catchresponse,catchnumber,Catch,response_time_catch,mouse_11.x,mouse_11.y,mouse_11.leftButton,mouse_11.midButton,mouse_11.rightButton,mouse_11.clicked_name,trials_2.thisRepN,trials_2.thisTrialN,trials_2.thisN,trials_2.thisIndex,trials_2.ran,trials_3.thisRepN,trials_3.thisTrialN,trials_3.thisN,trials_3.thisIndex,trials_3.ran,answer1,rt1,answer2,rt2,answer3,rt3,answer4,rt4,answer5,rt5,answer6,rt6,answer7,rt7
space,3.76804,space,11.71831,space,3.967935,35.2,3.52,409.0909091,255.6818182,1440,,space,39.481405,70.4,space,4.015635,space,2.6664,space,3.96801,space,6.23467,space,7.354145,space,10.650405,space,9.46476,space,15.319215,space,25.803595,return,34.03353,-2142.72,3217.127271,0,0,0,0,1,5c0a6c9c886b630001638ba8,6036d8409deb447ce1c51022,2021-02-24_22h51.02.787,Colour_Similarity_Experiment,2020.2.10,MacIntel,60,6036d0d9a84aa1626184a6ef,17.03248529,16.66611348,16.66223611,16.66530367,16.70848066,16.67553348,,,,,,,,,,,,,,,,,,,,,,,,,,,,,,,,,,,,,,,,,,,,,,,,,,,,,,,,,,,,,,,,,,,,,,,,,,,,,,,,,,,,,,,,,,,,,,,,,,,,,,,,,,,,,,,,,,
,,,,,,,,,,,,,,,,,,,,,,,,,,,,,,,,,return,4.47799,-43.2,732.7143679,1,0,1,0,1,5c0a6c9c886b630001638ba8,6036d8409deb447ce1c51022,2021-02-24_22h51.02.787,Colour_Similarity_Experiment,2020.2.10,MacIntel,60,6036d0d9a84aa1626184a6ef,17.03248529,16.66611348,16.66223611,16.66530367,16.70848066,16.67553348,,,,,,,,,,,,,,,,,,,,,,,,,,,,,,,,,,,,,,,,,,,,,,,,,,,,,,,,,,,,,,,,,,,,,,,,,,,,,,,,,,,,,,,,,,,,,,,,,,,,,,,,,,,,,,,,,,
,,,,,,,,,,,,,,,,,,,,,,,,,,,,,,,,,return,3.749775,51.84,620.2512323,2,0,2,0,1,5c0a6c9c886b630001638ba8,6036d8409deb447ce1c51022,2021-02-24_22h51.02.787,Colour_Similarity_Experiment,2020.2.10,MacIntel,60,6036d0d9a84aa1626184a6ef,17.03248529,16.66611348,16.66223611,16.66530367,16.70848066,16.67553348,,,,,,,,,,,,,,,,,,,,,,,,,,,,,,,,,,,,,,,,,,,,,,,,,,,,,,,,,,,,,,,,,,,,,,,,,,,,,,,,,,,,,,,,,,,,,,,,,,,,,,,,,,,,,,,,,,
,,,,,,,,,,,,,,,,,,,,,,,,,,,,,,,,,return,5.11724,-125.28,829.8416213,3,0,3,0,1,5c0a6c9c886b630001638ba8,6036d8409deb447ce1c51022,2021-02-24_22h51.02.787,Colour_Similarity_Experiment,2020.2.10,MacIntel,60,6036d0d9a84aa1626184a6ef,17.03248529,16.66611348,16.66223611,16.66530367,16.70848066,16.67553348,,,,,,,,,,,,,,,,,,,,,,,,,,,,,,,,,,,,,,,,,,,,,,,,,,,,,,,,,,,,,,,,,,,,,,,,,,,,,,,,,,,,,,,,,,,,,,,,,,,,,,,,,,,,,,,,,,
,,,,,,,,,,,,,,,,,,,,,,,,,,,,,,,,,return,5.91639,-228.96,952.5286782,4,0,4,0,1,5c0a6c9c886b630001638ba8,6036d8409deb447ce1c51022,2021-02-24_22h51.02.787,Colour_Similarity_Experiment,2020.2.10,MacIntel,60,6036d0d9a84aa1626184a6ef,17.03248529,16.66611348,16.66223611,16.66530367,16.70848066,16.67553348,,,,,,,,,,,,,,,,,,,,,,,,,,,,,,,,,,,,,,,,,,,,,,,,,,,,,,,,,,,,,,,,,,,,,,,,,,,,,,,,,,,,,,,,,,,,,,,,,,,,,,,,,,,,,,,,,,
,,,,,,,,,,,,,,,,,,,,,,,,,,,,,,,,,,,,,,,,,,5c0a6c9c886b630001638ba8,6036d8409deb447ce1c51022,2021-02-24_22h51.02.787,Colour_Similarity_Experiment,2020.2.10,MacIntel,60,6036d0d9a84aa1626184a6ef,17.03248529,16.66611348,16.66223611,16.66530367,16.70848066,16.67553348,73,12.74219284,67.2787782,448.525188,44.8525188,201.8363346,space,5.71571,space,20.32751,space,45.70059,space,7.717225,space,2.60071,space,4.833495,4,PF,weak,3,-78.6640625,31.61328125,1,0,0,response7disk_5,6,1,6.034855,1.75,1.22265625,1,0,0,rectangle_8,1.75,1.22265625,1,0,0,7,1.75,1.22265625,1,0,0,0,0,0,4,1,,,,,,,,,,,,,,,,,,,,,,,,,,,,,,,,,,,,,,,,,,,,,,,,,,,,,,,,,,,,,
,,,,,,,,,,,,,,,,,,,,,,,,,,,,,,,,,,,,,,,,,,5c0a6c9c886b630001638ba8,6036d8409deb447ce1c51022,2021-02-24_22h51.02.787,Colour_Similarity_Experiment,2020.2.10,MacIntel,60,6036d0d9a84aa1626184a6ef,17.03248529,16.66611348,16.66223611,16.66530367,16.70848066,16.67553348,,,,,,,,,,,,,,,,,,,8,PF,weak,3,-58.84375,-79.34375,1,0,0,response5disk_5,4,3,5.31673,10.9609375,-2.17578125,1,0,0,rectangle_8,33.6640625,95.64453125,1,0,0,7,-9.51953125,1.4296875,1,0,0,0,1,1,6,1,response1disk_7,7,rectangle_4,,,,,,,,,,,,,,,,,,,,,,,,,,,,,,,,,,,,,,,,,,,,,,,,,,,,,,,,,,
,,,,,,,,,,,,,,,,,,,,,,,,,,,,,,,,,,,,,,,,,,5c0a6c9c886b630001638ba8,6036d8409deb447ce1c51022,2021-02-24_22h51.02.787,Colour_Similarity_Experiment,2020.2.10,MacIntel,60,6036d0d9a84aa1626184a6ef,17.03248529,16.66611348,16.66223611,16.66530367,16.70848066,16.67553348,,,,,,,,,,,,,,,,,,,2,PF,weak,3,69.875,-34.82421875,1,0,0,response3disk_5,5,5,5.88339,-0.0078125,-1.84765625,1,0,0,rectangle_8,-0.0078125,-1.84765625,1,0,0,7,-0.0078125,-1.84765625,1,0,0,0,2,2,1,1,,,,,,,,,,,,,,,,,,,,,,,,,,,,,,,,,,,,,,,,,,,,,,,,,,,,,,,,,,,,,
,,,,,,,,,,,,,,,,,,,,,,,,,,,,,,,,,,,,,,,,,,5c0a6c9c886b630001638ba8,6036d8409deb447ce1c51022,2021-02-24_22h51.02.787,Colour_Similarity_Experiment,2020.2.10,MacIntel,60,6036d0d9a84aa1626184a6ef,17.03248529,16.66611348,16.66223611,16.66530367,16.70848066,16.67553348,,,,,,,,,,,,,,,,,,,2,PF,strong,3,-73.921875,-53.14453125,1,0,0,response5disk_5,3,2,2.794965,3.015625,2.1796875,1,0,0,rectangle_8,3.015625,2.1796875,1,0,0,7,3.015625,2.1796875,1,0,0,0,3,3,2,1,,,,,,,,,,,,,,,,,,,,,,,,,,,,,,,,,,,,,,,,,,,,,,,,,,,,,,,,,,,,,
,,,,,,,,,,,,,,,,,,,,,,,,,,,,,,,,,,,,,,,,,,5c0a6c9c886b630001638ba8,6036d8409deb447ce1c51022,2021-02-24_22h51.02.787,Colour_Similarity_Experiment,2020.2.10,MacIntel,60,6036d0d9a84aa1626184a6ef,17.03248529,16.66611348,16.66223611,16.66530367,16.70848066,16.67553348,,,,,,,,,,,,,,,,,,,3,PF,weak,3,38.515625,81.27734375,1,0,0,response1disk_5,7,7,1.46474,-6.171875,2.859375,1,0,0,rectangle_8,27.33203125,95.48828125,1,0,0,7,0.8828125,-7.30859375,1,0,0,0,4,4,5,1,response1disk_7,7,rectangle_4,,,,,,,,,,,,,,,,,,,,,,,,,,,,,,,,,,,,,,,,,,,,,,,,,,,,,,,,,,
,,,,,,,,,,,,,,,,,,,,,,,,,,,,,,,,,,,,,,,,,,5c0a6c9c886b630001638ba8,6036d8409deb447ce1c51022,2021-02-24_22h51.02.787,Colour_Similarity_Experiment,2020.2.10,MacIntel,60,6036d0d9a84aa1626184a6ef,17.03248529,16.66611348,16.66223611,16.66530367,16.70848066,16.67553348,,,,,,,,,,,,,,,,,,,3,PF,strong,3,47.75390625,67.59375,1,0,0,response1disk_5,2,7,3.530385,4.734375,0.71484375,1,0,0,rectangle_8,4.734375,0.71484375,1,0,0,7,4.734375,0.71484375,1,0,0,0,5,5,3,1,,,,,,,,,,,,,,,,,,,,,,,,,,,,,,,,,,,,,,,,,,,,,,,,,,,,,,,,,,,,,
,,,,,,,,,,,,,,,,,,,,,,,,,,,,,,,,,,,,,,,,,,5c0a6c9c886b630001638ba8,6036d8409deb447ce1c51022,2021-02-24_22h51.02.787,Colour_Similarity_Experiment,2020.2.10,MacIntel,60,6036d0d9a84aa1626184a6ef,17.03248529,16.66611348,16.66223611,16.66530367,16.70848066,16.67553348,,,,,,,,,,,,,,,,,,,7,PF,strong,3,48.6328125,60.984375,1,0,0,response1disk_5,9,7,1.79765,-12.07421875,8.375,1,0,0,rectangle_8,-12.07421875,8.375,1,0,0,7,-12.07421875,8.375,1,0,0,0,6,6,0,1,,,,,,,,,,,,,,,,,,,,,,,,,,,,,,,,,,,,,,,,,,,,,,,,,,,,,,,,,,,,,
,,,,,,,,,,,,,,,,,,,,,,,,,,,,,,,,,,,,,,,,,,5c0a6c9c886b630001638ba8,6036d8409deb447ce1c51022,2021-02-24_22h51.02.787,Colour_Similarity_Experiment,2020.2.10,MacIntel,60,6036d0d9a84aa1626184a6ef,17.03248529,16.66611348,16.66223611,16.66530367,16.70848066,16.67553348,,,,,,,,,,,,,,,,,,,,PF,weak,3,,,,,,,,3,2.41419,,,,,,,,,,,,,,,,,,,,,,,,,,space,4.256745,3,weak,-71.6171875,-80.23046875,1,0,0,response5disk,2,1,-8.66015625,4.1328125,1,0,0,rectangle,71.47265625,26.31640625,1,0,0,response1disk_3,6,6,1,6.000405,-10.49609375,-5.96875,1,0,0,rectangle,0,0,0,36,1,,,,,,,,,,,,,,,,,,,
,,,,,,,,,,,,,,,,,,,,,,,,,,,,,,,,,,,,,,,,,,5c0a6c9c886b630001638ba8,6036d8409deb447ce1c51022,2021-02-24_22h51.02.787,Colour_Similarity_Experiment,2020.2.10,MacIntel,60,6036d0d9a84aa1626184a6ef,17.03248529,16.66611348,16.66223611,16.66530367,16.70848066,16.67553348,,,,,,,,,,,,,,,,,,,,PF,weak,3,,,,,,,,3,1.74824,,,,,,,,,,,,,,,,,,,,,,,,,,,,5,weak,-40.6484375,-90.04296875,1,0,0,response5disk,8,2,4.65234375,2.20703125,1,0,0,rectangle,4.65234375,2.20703125,1,0,0,,6,1,0,0.00194,4.65234375,2.20703125,1,0,0,,0,1,1,149,1,,,,,,,,,,,,,,,,,,,
,,,,,,,,,,,,,,,,,,,,,,,,,,,,,,,,,,,,,,,,,,5c0a6c9c886b630001638ba8,6036d8409deb447ce1c51022,2021-02-24_22h51.02.787,Colour_Similarity_Experiment,2020.2.10,MacIntel,60,6036d0d9a84aa1626184a6ef,17.03248529,16.66611348,16.66223611,16.66530367,16.70848066,16.67553348,,,,,,,,,,,,,,,,,,,,PF,weak,3,,,,,,,,7,1.89973,,,,,,,,,,,,,,,,,,,,,,,,,,,,8,weak,46.5390625,66.39453125,1,0,0,response1disk,4,3,11.41015625,7.38671875,1,0,0,rectangle,11.41015625,7.38671875,1,0,0,,6,6,0,0.001155,11.41015625,7.38671875,1,0,0,,0,2,2,78,1,,,,,,,,,,,,,,,,,,,
,,,,,,,,,,,,,,,,,,,,,,,,,,,,,,,,,,,,,,,,,,5c0a6c9c886b630001638ba8,6036d8409deb447ce1c51022,2021-02-24_22h51.02.787,Colour_Similarity_Experiment,2020.2.10,MacIntel,60,6036d0d9a84aa1626184a6ef,17.03248529,16.66611348,16.66223611,16.66530367,16.70848066,16.67553348,,,,,,,,,,,,,,,,,,,,PF,strong,3,,,,,,,,1,2.766725,,,,,,,,,,,,,,,,,,,,,,,,,,,,8,strong,-84.0703125,37.54296875,1,0,0,response7disk,6,4,4.5703125,-2.63671875,1,0,0,rectangle,4.5703125,-2.63671875,1,0,0,,6,6,0,0.00019,4.5703125,-2.63671875,1,0,0,,0,3,3,37,1,,,,,,,,,,,,,,,,,,,
,,,,,,,,,,,,,,,,,,,,,,,,,,,,,,,,,,,,,,,,,,5c0a6c9c886b630001638ba8,6036d8409deb447ce1c51022,2021-02-24_22h51.02.787,Colour_Similarity_Experiment,2020.2.10,MacIntel,60,6036d0d9a84aa1626184a6ef,17.03248529,16.66611348,16.66223611,16.66530367,16.70848066,16.67553348,,,,,,,,,,,,,,,,,,,,PF,weak,3,,,,,,,,7,1.54542,,,,,,,,,,,,,,,,,,,,,,,,,,,,4,weak,59.21875,75.4375,1,0,0,response1disk,7,5,0.5390625,6.640625,1,0,0,rectangle,0.5390625,6.640625,1,0,0,,6,7,0,0.001515,0.5390625,6.640625,1,0,0,,0,4,4,38,1,,,,,,,,,,,,,,,,,,,
,,,,,,,,,,,,,,,,,,,,,,,,,,,,,,,,,,,,,,,,,,5c0a6c9c886b630001638ba8,6036d8409deb447ce1c51022,2021-02-24_22h51.02.787,Colour_Similarity_Experiment,2020.2.10,MacIntel,60,6036d0d9a84aa1626184a6ef,17.03248529,16.66611348,16.66223611,16.66530367,16.70848066,16.67553348,,,,,,,,,,,,,,,,,,,,PF,strong,3,,,,,,,,7,1.63829,,,,,,,,,,,,,,,,,,,,,,,,,,,,9,strong,62.93359375,98.4609375,1,0,0,response1disk,1,6,1.13671875,7.9609375,1,0,0,rectangle,1.13671875,7.9609375,1,0,0,,6,3,0,0.00141,1.13671875,7.9609375,1,0,0,,0,5,5,111,1,,,,,,,,,,,,,,,,,,,
,,,,,,,,,,,,,,,,,,,,,,,,,,,,,,,,,,,,,,,,,,5c0a6c9c886b630001638ba8,6036d8409deb447ce1c51022,2021-02-24_22h51.02.787,Colour_Similarity_Experiment,2020.2.10,MacIntel,60,6036d0d9a84aa1626184a6ef,17.03248529,16.66611348,16.66223611,16.66530367,16.70848066,16.67553348,,,,,,,,,,,,,,,,,,,,PF,weak,3,,,,,,,,5,2.70664,,,,,,,,,,,,,,,,,,,,,,,,,,,,4,weak,66.29296875,-26.0859375,1,0,0,response3disk,3,7,-6.0234375,1.375,1,0,0,rectangle,-6.0234375,1.375,1,0,0,,6,4,0,0.001885,-6.0234375,1.375,1,0,0,,0,6,6,89,1,,,,,,,,,,,,,,,,,,,
,,,,,,,,,,,,,,,,,,,,,,,,,,,,,,,,,,,,,,,,,,5c0a6c9c886b630001638ba8,6036d8409deb447ce1c51022,2021-02-24_22h51.02.787,Colour_Similarity_Experiment,2020.2.10,MacIntel,60,6036d0d9a84aa1626184a6ef,17.03248529,16.66611348,16.66223611,16.66530367,16.70848066,16.67553348,,,,,,,,,,,,,,,,,,,,PF,strong,3,,,,,,,,0,2.878375,,,,,,,,,,,,,,,,,,,,,,,,,,,,5,strong,-50.77734375,89.28125,1,0,0,response7disk,8,8,-3.19921875,-2.09765625,1,0,0,rectangle,-3.19921875,-2.09765625,1,0,0,,6,5,0,0.000875,-3.19921875,-2.09765625,1,0,0,,0,7,7,16,1,,,,,,,,,,,,,,,,,,,
,,,,,,,,,,,,,,,,,,,,,,,,,,,,,,,,,,,,,,,,,,5c0a6c9c886b630001638ba8,6036d8409deb447ce1c51022,2021-02-24_22h51.02.787,Colour_Similarity_Experiment,2020.2.10,MacIntel,60,6036d0d9a84aa1626184a6ef,17.03248529,16.66611348,16.66223611,16.66530367,16.70848066,16.67553348,,,,,,,,,,,,,,,,,,,,PF,weak,3,,,,,,,,7,1.7396,,,,,,,,,,,,,,,,,,,,,,,,,,,,9,weak,39.1328125,75.08984375,1,0,0,response1disk,6,9,8.51171875,4.33984375,1,0,0,rectangle,8.51171875,4.33984375,1,0,0,,6,3,0,0.001795,8.51171875,4.33984375,1,0,0,,0,8,8,148,1,,,,,,,,,,,,,,,,,,,
,,,,,,,,,,,,,,,,,,,,,,,,,,,,,,,,,,,,,,,,,,5c0a6c9c886b630001638ba8,6036d8409deb447ce1c51022,2021-02-24_22h51.02.787,Colour_Similarity_Experiment,2020.2.10,MacIntel,60,6036d0d9a84aa1626184a6ef,17.03248529,16.66611348,16.66223611,16.66530367,16.70848066,16.67553348,,,,,,,,,,,,,,,,,,,,PF,strong,3,,,,,,,,4,2.213285,,,,,,,,,,,,,,,,,,,,,,,,,,,,1,strong,30.42578125,-75.9453125,1,0,0,response3disk,9,10,-1.57421875,-4.9453125,1,0,0,rectangle,-1.57421875,-4.9453125,1,0,0,,6,5,0,0.001045,-1.57421875,-4.9453125,1,0,0,,0,9,9,123,1,,,,,,,,,,,,,,,,,,,
,,,,,,,,,,,,,,,,,,,,,,,,,,,,,,,,,,,,,,,,,,5c0a6c9c886b630001638ba8,6036d8409deb447ce1c51022,2021-02-24_22h51.02.787,Colour_Similarity_Experiment,2020.2.10,MacIntel,60,6036d0d9a84aa1626184a6ef,17.03248529,16.66611348,16.66223611,16.66530367,16.70848066,16.67553348,,,,,,,,,,,,,,,,,,,,PF,strong,3,,,,,,,,5,1.972775,,,,,,,,,,,,,,,,,,,,,,,,,,,,5,strong,45.5,-30.65625,1,0,0,response3disk,7,11,-3.20703125,6.6484375,1,0,0,rectangle,-3.20703125,6.6484375,1,0,0,,6,5,0,0.00019,-3.20703125,6.6484375,1,0,0,,0,10,10,7,1,,,,,,,,,,,,,,,,,,,
,,,,,,,,,,,,,,,,,,,,,,,,,,,,,,,,,,,,,,,,,,5c0a6c9c886b630001638ba8,6036d8409deb447ce1c51022,2021-02-24_22h51.02.787,Colour_Similarity_Experiment,2020.2.10,MacIntel,60,6036d0d9a84aa1626184a6ef,17.03248529,16.66611348,16.66223611,16.66530367,16.70848066,16.67553348,,,,,,,,,,,,,,,,,,,,PF,weak,3,,,,,,,,7,1.188465,,,,,,,,,,,,,,,,,,,,,,,,,,,,2,weak,41.48828125,95,1,0,0,response1disk,7,12,5.671875,7.74609375,1,0,0,rectangle,5.671875,7.74609375,1,0,0,,6,5,0,0.000135,5.671875,7.74609375,1,0,0,,0,11,11,107,1,,,,,,,,,,,,,,,,,,,
,,,,,,,,,,,,,,,,,,,,,,,,,,,,,,,,,,,,,,,,,,5c0a6c9c886b630001638ba8,6036d8409deb447ce1c51022,2021-02-24_22h51.02.787,Colour_Similarity_Experiment,2020.2.10,MacIntel,60,6036d0d9a84aa1626184a6ef,17.03248529,16.66611348,16.66223611,16.66530367,16.70848066,16.67553348,,,,,,,,,,,,,,,,,,,,PF,strong,3,,,,,,,,6,3.228135,,,,,,,,,,,,,,,,,,,,,,,,,,,,2,strong,67.55078125,37.52734375,1,0,0,response1disk,4,13,-10.09375,2.828125,1,0,0,rectangle,-10.09375,2.828125,1,0,0,,6,0,0,0.00113,-10.09375,2.828125,1,0,0,,0,12,12,145,1,,,,,,,,,,,,,,,,,,,
,,,,,,,,,,,,,,,,,,,,,,,,,,,,,,,,,,,,,,,,,,5c0a6c9c886b630001638ba8,6036d8409deb447ce1c51022,2021-02-24_22h51.02.787,Colour_Similarity_Experiment,2020.2.10,MacIntel,60,6036d0d9a84aa1626184a6ef,17.03248529,16.66611348,16.66223611,16.66530367,16.70848066,16.67553348,,,,,,,,,,,,,,,,,,,,PF,strong,3,,,,,,,,3,1.727845,,,,,,,,,,,,,,,,,,,,,,,,,,,,9,strong,-63.796875,-73.90234375,1,0,0,response5disk,3,14,-5.375,5.58203125,1,0,0,rectangle,-5.375,5.58203125,1,0,0,,6,5,0,0.001195,-5.375,5.58203125,1,0,0,,0,13,13,141,1,,,,,,,,,,,,,,,,,,,
,,,,,,,,,,,,,,,,,,,,,,,,,,,,,,,,,,,,,,,,,,5c0a6c9c886b630001638ba8,6036d8409deb447ce1c51022,2021-02-24_22h51.02.787,Colour_Similarity_Experiment,2020.2.10,MacIntel,60,6036d0d9a84aa1626184a6ef,17.03248529,16.66611348,16.66223611,16.66530367,16.70848066,16.67553348,,,,,,,,,,,,,,,,,,,,PF,strong,3,,,,,,,,5,1.720825,,,,,,,,,,,,,,,,,,,,,,,,,,,,4,strong,62.078125,-50.66015625,1,0,0,response3disk,2,15,-12.359375,1.9921875,1,0,0,rectangle,-12.359375,1.9921875,1,0,0,,6,6,0,0.00094,-12.359375,1.9921875,1,0,0,,0,14,14,13,1,,,,,,,,,,,,,,,,,,,
,,,,,,,,,,,,,,,,,,,,,,,,,,,,,,,,,,,,,,,,,,5c0a6c9c886b630001638ba8,6036d8409deb447ce1c51022,2021-02-24_22h51.02.787,Colour_Similarity_Experiment,2020.2.10,MacIntel,60,6036d0d9a84aa1626184a6ef,17.03248529,16.66611348,16.66223611,16.66530367,16.70848066,16.67553348,,,,,,,,,,,,,,,,,,,,PF,weak,3,,,,,,,,7,1.101575,,,,,,,,,,,,,,,,,,,,,,,,,,,,9,weak,39.04296875,80.8671875,1,0,0,response1disk,7,16,4.49609375,4.52734375,1,0,0,rectangle,4.49609375,4.52734375,1,0,0,,6,6,0,0.000185,4.49609375,4.52734375,1,0,0,,0,15,15,121,1,,,,,,,,,,,,,,,,,,,
,,,,,,,,,,,,,,,,,,,,,,,,,,,,,,,,,,,,,,,,,,5c0a6c9c886b630001638ba8,6036d8409deb447ce1c51022,2021-02-24_22h51.02.787,Colour_Similarity_Experiment,2020.2.10,MacIntel,60,6036d0d9a84aa1626184a6ef,17.03248529,16.66611348,16.66223611,16.66530367,16.70848066,16.67553348,,,,,,,,,,,,,,,,,,,,PF,strong,3,,,,,,,,6,1.538535,,,,,,,,,,,,,,,,,,,,,,,,,,,,1,strong,67.265625,43.96875,1,0,0,response1disk,1,17,-1.53125,2.890625,1,0,0,rectangle,-1.53125,2.890625,1,0,0,,6,1,0,0.001305,-1.53125,2.890625,1,0,0,,0,16,16,151,1,,,,,,,,,,,,,,,,,,,
,,,,,,,,,,,,,,,,,,,,,,,,,,,,,,,,,,,,,,,,,,5c0a6c9c886b630001638ba8,6036d8409deb447ce1c51022,2021-02-24_22h51.02.787,Colour_Similarity_Experiment,2020.2.10,MacIntel,60,6036d0d9a84aa1626184a6ef,17.03248529,16.66611348,16.66223611,16.66530367,16.70848066,16.67553348,,,,,,,,,,,,,,,,,,,,PF,weak,3,,,,,,,,6,5.07156,,,,,,,,,,,,,,,,,,,,,,,,,,,,4,weak,96.76953125,48.59375,1,0,0,response1disk,4,18,8.265625,-3.9609375,1,0,0,rectangle,8.265625,-3.9609375,1,0,0,,6,5,0,0.00219,8.265625,-3.9609375,1,0,0,,0,17,17,70,1,,,,,,,,,,,,,,,,,,,
,,,,,,,,,,,,,,,,,,,,,,,,,,,,,,,,,,,,,,,,,,5c0a6c9c886b630001638ba8,6036d8409deb447ce1c51022,2021-02-24_22h51.02.787,Colour_Similarity_Experiment,2020.2.10,MacIntel,60,6036d0d9a84aa1626184a6ef,17.03248529,16.66611348,16.66223611,16.66530367,16.70848066,16.67553348,,,,,,,,,,,,,,,,,,,,PF,strong,3,,,,,,,,7,1.63357,,,,,,,,,,,,,,,,,,,,,,,,,,,,2,strong,56.26953125,90.36328125,1,0,0,response1disk,1,19,3.94140625,-0.359375,1,0,0,rectangle,3.94140625,-0.359375,1,0,0,,6,0,0,0.001715,3.94140625,-0.359375,1,0,0,,0,18,18,85,1,,,,,,,,,,,,,,,,,,,
,,,,,,,,,,,,,,,,,,,,,,,,,,,,,,,,,,,,,,,,,,5c0a6c9c886b630001638ba8,6036d8409deb447ce1c51022,2021-02-24_22h51.02.787,Colour_Similarity_Experiment,2020.2.10,MacIntel,60,6036d0d9a84aa1626184a6ef,17.03248529,16.66611348,16.66223611,16.66530367,16.70848066,16.67553348,,,,,,,,,,,,,,,,,,,,PF,weak,3,,,,,,,,7,1.197795,,,,,,,,,,,,,,,,,,,,,,,,,,,,9,weak,37.84375,89.484375,1,0,0,response1disk,8,20,-2.87890625,3.83984375,1,0,0,rectangle,-2.87890625,3.83984375,1,0,0,,6,0,0,0.000195,-2.87890625,3.83984375,1,0,0,,0,19,19,67,1,,,,,,,,,,,,,,,,,,,
,,,,,,,,,,,,,,,,,,,,,,,,,,,,,,,,,,,,,,,,,,5c0a6c9c886b630001638ba8,6036d8409deb447ce1c51022,2021-02-24_22h51.02.787,Colour_Similarity_Experiment,2020.2.10,MacIntel,60,6036d0d9a84aa1626184a6ef,17.03248529,16.66611348,16.66223611,16.66530367,16.70848066,16.67553348,,,,,,,,,,,,,,,,,,,,PF,strong,3,,,,,,,,0,1.616205,,,,,,,,,,,,,,,,,,,,,,,,,,,,9,strong,-40.890625,87.96875,1,0,0,response7disk,2,21,-9.1796875,3.23046875,1,0,0,rectangle,83.1484375,43.6875,1,0,0,response1disk_3,6,6,1,2.80042,2.24609375,7.70703125,1,0,0,rectangle,0,20,20,11,1,,,,,,,,,,,,,,,,,,,
,,,,,,,,,,,,,,,,,,,,,,,,,,,,,,,,,,,,,,,,,,5c0a6c9c886b630001638ba8,6036d8409deb447ce1c51022,2021-02-24_22h51.02.787,Colour_Similarity_Experiment,2020.2.10,MacIntel,60,6036d0d9a84aa1626184a6ef,17.03248529,16.66611348,16.66223611,16.66530367,16.70848066,16.67553348,,,,,,,,,,,,,,,,,,,,PF,strong,3,,,,,,,,6,2.266695,,,,,,,,,,,,,,,,,,,,,,,,,,,,4,strong,63.35546875,38.87109375,1,0,0,response1disk,4,22,1.97265625,3.59375,1,0,0,rectangle,1.97265625,3.59375,1,0,0,,6,7,0,0.00109,1.97265625,3.59375,1,0,0,,0,21,21,84,1,,,,,,,,,,,,,,,,,,,
,,,,,,,,,,,,,,,,,,,,,,,,,,,,,,,,,,,,,,,,,,5c0a6c9c886b630001638ba8,6036d8409deb447ce1c51022,2021-02-24_22h51.02.787,Colour_Similarity_Experiment,2020.2.10,MacIntel,60,6036d0d9a84aa1626184a6ef,17.03248529,16.66611348,16.66223611,16.66530367,16.70848066,16.67553348,,,,,,,,,,,,,,,,,,,,PF,strong,3,,,,,,,,0,1.330875,,,,,,,,,,,,,,,,,,,,,,,,,,,,3,strong,-36.55078125,84.75,1,0,0,response7disk,7,23,-19.34765625,12.12109375,1,0,0,rectangle,-19.34765625,12.12109375,1,0,0,,6,1,0,0.00172,-19.34765625,12.12109375,1,0,0,,0,22,22,118,1,,,,,,,,,,,,,,,,,,,
,,,,,,,,,,,,,,,,,,,,,,,,,,,,,,,,,,,,,,,,,,5c0a6c9c886b630001638ba8,6036d8409deb447ce1c51022,2021-02-24_22h51.02.787,Colour_Similarity_Experiment,2020.2.10,MacIntel,60,6036d0d9a84aa1626184a6ef,17.03248529,16.66611348,16.66223611,16.66530367,16.70848066,16.67553348,,,,,,,,,,,,,,,,,,,,PF,strong,3,,,,,,,,0,1.23808,,,,,,,,,,,,,,,,,,,,,,,,,,,,3,strong,-39.19140625,70.5625,1,0,0,response7disk,5,24,-6.4296875,5.078125,1,0,0,rectangle,-6.4296875,5.078125,1,0,0,,6,4,0,0.001395,-6.4296875,5.078125,1,0,0,,0,23,23,101,1,,,,,,,,,,,,,,,,,,,
,,,,,,,,,,,,,,,,,,,,,,,,,,,,,,,,,,,,,,,,,,5c0a6c9c886b630001638ba8,6036d8409deb447ce1c51022,2021-02-24_22h51.02.787,Colour_Similarity_Experiment,2020.2.10,MacIntel,60,6036d0d9a84aa1626184a6ef,17.03248529,16.66611348,16.66223611,16.66530367,16.70848066,16.67553348,,,,,,,,,,,,,,,,,,,,PF,weak,3,,,,,,,,0,0.771685,,,,,,,,,,,,,,,,,,,,,,,,,,,,4,weak,-32.2890625,57.87109375,1,0,0,response7disk,8,25,-4.49609375,1.44921875,1,0,0,rectangle,-4.49609375,1.44921875,1,0,0,,6,4,0,0.00017,-4.49609375,1.44921875,1,0,0,,0,24,24,124,1,,,,,,,,,,,,,,,,,,,
,,,,,,,,,,,,,,,,,,,,,,,,,,,,,,,,,,,,,,,,,,5c0a6c9c886b630001638ba8,6036d8409deb447ce1c51022,2021-02-24_22h51.02.787,Colour_Similarity_Experiment,2020.2.10,MacIntel,60,6036d0d9a84aa1626184a6ef,17.03248529,16.66611348,16.66223611,16.66530367,16.70848066,16.67553348,,,,,,,,,,,,,,,,,,,,PF,weak,3,,,,,,,,7,1.19016,,,,,,,,,,,,,,,,,,,,,,,,,,,,7,weak,50.51171875,79.1875,1,0,0,response1disk,8,26,3.390625,5.14453125,1,0,0,rectangle,3.390625,5.14453125,1,0,0,,6,1,0,0.001745,3.390625,5.14453125,1,0,0,,0,25,25,140,1,,,,,,,,,,,,,,,,,,,
,,,,,,,,,,,,,,,,,,,,,,,,,,,,,,,,,,,,,,,,,,5c0a6c9c886b630001638ba8,6036d8409deb447ce1c51022,2021-02-24_22h51.02.787,Colour_Similarity_Experiment,2020.2.10,MacIntel,60,6036d0d9a84aa1626184a6ef,17.03248529,16.66611348,16.66223611,16.66530367,16.70848066,16.67553348,,,,,,,,,,,,,,,,,,,,PF,strong,3,,,,,,,,7,2.503475,,,,,,,,,,,,,,,,,,,,,,,,,,,,2,strong,73.70703125,103.7890625,1,0,0,response1disk,8,27,-1.85546875,5.6328125,1,0,0,rectangle,-1.85546875,5.6328125,1,0,0,,6,5,0,0.001395,-1.85546875,5.6328125,1,0,0,,0,26,26,62,1,,,,,,,,,,,,,,,,,,,
,,,,,,,,,,,,,,,,,,,,,,,,,,,,,,,,,,,,,,,,,,5c0a6c9c886b630001638ba8,6036d8409deb447ce1c51022,2021-02-24_22h51.02.787,Colour_Similarity_Experiment,2020.2.10,MacIntel,60,6036d0d9a84aa1626184a6ef,17.03248529,16.66611348,16.66223611,16.66530367,16.70848066,16.67553348,,,,,,,,,,,,,,,,,,,,PF,strong,3,,,,,,,,7,1.008025,,,,,,,,,,,,,,,,,,,,,,,,,,,,7,strong,36.7890625,113.4960938,1,0,0,response1disk,6,28,7.2890625,10.44140625,1,0,0,rectangle,7.2890625,10.44140625,1,0,0,,6,7,0,0.000635,7.2890625,10.44140625,1,0,0,,0,27,27,31,1,,,,,,,,,,,,,,,,,,,
,,,,,,,,,,,,,,,,,,,,,,,,,,,,,,,,,,,,,,,,,,5c0a6c9c886b630001638ba8,6036d8409deb447ce1c51022,2021-02-24_22h51.02.787,Colour_Similarity_Experiment,2020.2.10,MacIntel,60,6036d0d9a84aa1626184a6ef,17.03248529,16.66611348,16.66223611,16.66530367,16.70848066,16.67553348,,,,,,,,,,,,,,,,,,,,PF,weak,3,,,,,,,,7,1.683295,,,,,,,,,,,,,,,,,,,,,,,,,,,,9,weak,61.8671875,102.8320313,1,0,0,response1disk,1,29,-15.76171875,6.73046875,1,0,0,rectangle,-15.76171875,6.73046875,1,0,0,,6,1,0,0.001445,-15.76171875,6.73046875,1,0,0,,0,28,28,74,1,,,,,,,,,,,,,,,,,,,
,,,,,,,,,,,,,,,,,,,,,,,,,,,,,,,,,,,,,,,,,,5c0a6c9c886b630001638ba8,6036d8409deb447ce1c51022,2021-02-24_22h51.02.787,Colour_Similarity_Experiment,2020.2.10,MacIntel,60,6036d0d9a84aa1626184a6ef,17.03248529,16.66611348,16.66223611,16.66530367,16.70848066,16.67553348,,,,,,,,,,,,,,,,,,,,PF,strong,3,,,,,,,,7,3.199885,,,,,,,,,,,,,,,,,,,,,,,,,,,,3,strong,33.18359375,98.9296875,1,0,0,response1disk,8,30,3.48828125,11.703125,1,0,0,rectangle,3.48828125,11.703125,1,0,0,,6,4,0,0.00123,3.48828125,11.703125,1,0,0,,0,29,29,44,1,,,,,,,,,,,,,,,,,,,
,,,,,,,,,,,,,,,,,,,,,,,,,,,,,,,,,,,,,,,,,,5c0a6c9c886b630001638ba8,6036d8409deb447ce1c51022,2021-02-24_22h51.02.787,Colour_Similarity_Experiment,2020.2.10,MacIntel,60,6036d0d9a84aa1626184a6ef,17.03248529,16.66611348,16.66223611,16.66530367,16.70848066,16.67553348,,,,,,,,,,,,,,,,,,,,PF,weak,3,,,,,,,,7,0.81593,,,,,,,,,,,,,,,,,,,,,,,,,,,,6,weak,35.75390625,97.6953125,1,0,0,response1disk,4,31,-0.0546875,9.578125,1,0,0,rectangle,-0.0546875,9.578125,1,0,0,,6,5,0,0.00072,-0.0546875,9.578125,1,0,0,,0,30,30,33,1,,,,,,,,,,,,,,,,,,,
,,,,,,,,,,,,,,,,,,,,,,,,,,,,,,,,,,,,,,,,,,5c0a6c9c886b630001638ba8,6036d8409deb447ce1c51022,2021-02-24_22h51.02.787,Colour_Similarity_Experiment,2020.2.10,MacIntel,60,6036d0d9a84aa1626184a6ef,17.03248529,16.66611348,16.66223611,16.66530367,16.70848066,16.67553348,,,,,,,,,,,,,,,,,,,,PF,strong,3,,,,,,,,7,0.98293,,,,,,,,,,,,,,,,,,,,,,,,,,,,1,strong,43.83984375,97.046875,1,0,0,response1disk,4,32,1.8203125,12.9921875,1,0,0,rectangle,1.8203125,12.9921875,1,0,0,,6,0,0,0.00147,1.8203125,12.9921875,1,0,0,,0,31,31,135,1,,,,,,,,,,,,,,,,,,,
,,,,,,,,,,,,,,,,,,,,,,,,,,,,,,,,,,,,,,,,,,5c0a6c9c886b630001638ba8,6036d8409deb447ce1c51022,2021-02-24_22h51.02.787,Colour_Similarity_Experiment,2020.2.10,MacIntel,60,6036d0d9a84aa1626184a6ef,17.03248529,16.66611348,16.66223611,16.66530367,16.70848066,16.67553348,,,,,,,,,,,,,,,,,,,,PF,strong,3,,,,,,,,6,1.165845,,,,,,,,,,,,,,,,,,,,,,,,,,,,5,strong,79.9140625,50.50390625,1,0,0,response1disk,2,33,1.08203125,1.91796875,1,0,0,rectangle,-53.54296875,-92.046875,1,0,0,response5disk_3,3,3,1,2.61629,4.39453125,4.3125,1,0,0,rectangle,0,32,32,55,1,,,,,,,,,,,,,,,,,,,
,,,,,,,,,,,,,,,,,,,,,,,,,,,,,,,,,,,,,,,,,,5c0a6c9c886b630001638ba8,6036d8409deb447ce1c51022,2021-02-24_22h51.02.787,Colour_Similarity_Experiment,2020.2.10,MacIntel,60,6036d0d9a84aa1626184a6ef,17.03248529,16.66611348,16.66223611,16.66530367,16.70848066,16.67553348,,,,,,,,,,,,,,,,,,,,PF,strong,3,,,,,,,,2,2.115855,,,,,,,,,,,,,,,,,,,,,,,,,,,,5,strong,-58.78125,-43.24609375,1,0,0,response5disk,9,34,-4.7578125,8.1875,1,0,0,rectangle,-4.7578125,8.1875,1,0,0,,3,1,0,0.001725,-4.7578125,8.1875,1,0,0,,0,33,33,61,1,,,,,,,,,,,,,,,,,,,
,,,,,,,,,,,,,,,,,,,,,,,,,,,,,,,,,,,,,,,,,,5c0a6c9c886b630001638ba8,6036d8409deb447ce1c51022,2021-02-24_22h51.02.787,Colour_Similarity_Experiment,2020.2.10,MacIntel,60,6036d0d9a84aa1626184a6ef,17.03248529,16.66611348,16.66223611,16.66530367,16.70848066,16.67553348,,,,,,,,,,,,,,,,,,,,PF,strong,3,,,,,,,,1,1.59571,,,,,,,,,,,,,,,,,,,,,,,,,,,,5,strong,-85.23046875,21.96875,1,0,0,response7disk,5,35,-6.3125,-0.19140625,1,0,0,rectangle,-6.3125,-0.19140625,1,0,0,,3,2,0,0.002035,-6.3125,-0.19140625,1,0,0,,0,34,34,19,1,,,,,,,,,,,,,,,,,,,
,,,,,,,,,,,,,,,,,,,,,,,,,,,,,,,,,,,,,,,,,,5c0a6c9c886b630001638ba8,6036d8409deb447ce1c51022,2021-02-24_22h51.02.787,Colour_Similarity_Experiment,2020.2.10,MacIntel,60,6036d0d9a84aa1626184a6ef,17.03248529,16.66611348,16.66223611,16.66530367,16.70848066,16.67553348,,,,,,,,,,,,,,,,,,,,PF,weak,3,,,,,,,,1,0.8947,,,,,,,,,,,,,,,,,,,,,,,,,,,,5,weak,-80.31640625,39.19921875,1,0,0,response7disk,3,36,-4.44921875,1.66796875,1,0,0,rectangle,-4.44921875,1.66796875,1,0,0,,3,0,0,0.00138,-4.44921875,1.66796875,1,0,0,,0,35,35,109,1,,,,,,,,,,,,,,,,,,,
,,,,,,,,,,,,,,,,,,,,,,,,,,,,,,,,,,,,,,,,,,5c0a6c9c886b630001638ba8,6036d8409deb447ce1c51022,2021-02-24_22h51.02.787,Colour_Similarity_Experiment,2020.2.10,MacIntel,60,6036d0d9a84aa1626184a6ef,17.03248529,16.66611348,16.66223611,16.66530367,16.70848066,16.67553348,,,,,,,,,,,,,,,,,,,,PF,strong,3,,,,,,,,7,1.41683,,,,,,,,,,,,,,,,,,,,,,,,,,,,2,strong,40.67578125,86.9921875,1,0,0,response1disk,7,37,-1.87109375,-2.37890625,1,0,0,rectangle,-1.87109375,-2.37890625,1,0,0,,3,7,0,0.00144,-1.87109375,-2.37890625,1,0,0,,0,36,36,63,1,,,,,,,,,,,,,,,,,,,
,,,,,,,,,,,,,,,,,,,,,,,,,,,,,,,,,,,,,,,,,,5c0a6c9c886b630001638ba8,6036d8409deb447ce1c51022,2021-02-24_22h51.02.787,Colour_Similarity_Experiment,2020.2.10,MacIntel,60,6036d0d9a84aa1626184a6ef,17.03248529,16.66611348,16.66223611,16.66530367,16.70848066,16.67553348,,,,,,,,,,,,,,,,,,,,PF,strong,3,,,,,,,,7,1.07293,,,,,,,,,,,,,,,,,,,,,,,,,,,,6,strong,42.32421875,81.28125,1,0,0,response1disk,8,38,4.90234375,5.5703125,1,0,0,rectangle,4.90234375,5.5703125,1,0,0,,3,0,0,0.001475,4.90234375,5.5703125,1,0,0,,0,37,37,133,1,,,,,,,,,,,,,,,,,,,
,,,,,,,,,,,,,,,,,,,,,,,,,,,,,,,,,,,,,,,,,,5c0a6c9c886b630001638ba8,6036d8409deb447ce1c51022,2021-02-24_22h51.02.787,Colour_Similarity_Experiment,2020.2.10,MacIntel,60,6036d0d9a84aa1626184a6ef,17.03248529,16.66611348,16.66223611,16.66530367,16.70848066,16.67553348,,,,,,,,,,,,,,,,,,,,PF,weak,3,,,,,,,,7,0.773325,,,,,,,,,,,,,,,,,,,,,,,,,,,,4,weak,40.22265625,99.4609375,1,0,0,response1disk,5,39,-2.01953125,-6.8046875,1,0,0,rectangle,-2.01953125,-6.8046875,1,0,0,,3,2,0,0.00134,-2.01953125,-6.8046875,1,0,0,,0,38,38,49,1,,,,,,,,,,,,,,,,,,,
,,,,,,,,,,,,,,,,,,,,,,,,,,,,,,,,,,,,,,,,,,5c0a6c9c886b630001638ba8,6036d8409deb447ce1c51022,2021-02-24_22h51.02.787,Colour_Similarity_Experiment,2020.2.10,MacIntel,60,6036d0d9a84aa1626184a6ef,17.03248529,16.66611348,16.66223611,16.66530367,16.70848066,16.67553348,,,,,,,,,,,,,,,,,,,,PF,strong,3,,,,,,,,7,1.14478,,,,,,,,,,,,,,,,,,,,,,,,,,,,1,strong,25.96484375,73.4375,1,0,0,response1disk,2,40,-2.20703125,2.22265625,1,0,0,rectangle,-2.20703125,2.22265625,1,0,0,,3,7,0,0.001335,-2.20703125,2.22265625,1,0,0,,0,39,39,2,1,,,,,,,,,,,,,,,,,,,
,,,,,,,,,,,,,,,,,,,,,,,,,,,,,,,,,,,,,,,,,,5c0a6c9c886b630001638ba8,6036d8409deb447ce1c51022,2021-02-24_22h51.02.787,Colour_Similarity_Experiment,2020.2.10,MacIntel,60,6036d0d9a84aa1626184a6ef,17.03248529,16.66611348,16.66223611,16.66530367,16.70848066,16.67553348,,,,,,,,,,,,,,,,,,,,PF,weak,3,,,,,,,,3,1.99673,,,,,,,,,,,,,,,,,,,,,,,,,,,,8,weak,-36.59375,-69.6328125,1,0,0,response5disk,7,41,-9.04296875,-3.515625,1,0,0,rectangle,-9.04296875,-3.515625,1,0,0,,3,1,0,0.001725,-9.04296875,-3.515625,1,0,0,,0,40,40,23,1,,,,,,,,,,,,,,,,,,,
,,,,,,,,,,,,,,,,,,,,,,,,,,,,,,,,,,,,,,,,,,5c0a6c9c886b630001638ba8,6036d8409deb447ce1c51022,2021-02-24_22h51.02.787,Colour_Similarity_Experiment,2020.2.10,MacIntel,60,6036d0d9a84aa1626184a6ef,17.03248529,16.66611348,16.66223611,16.66530367,16.70848066,16.67553348,,,,,,,,,,,,,,,,,,,,PF,strong,3,,,,,,,,7,1.837725,,,,,,,,,,,,,,,,,,,,,,,,,,,,7,strong,23.3828125,76.6484375,1,0,0,response1disk,2,42,-1.921875,-13.1171875,1,0,0,rectangle,-1.921875,-13.1171875,1,0,0,,3,4,0,0.00168,-1.921875,-13.1171875,1,0,0,,0,41,41,138,1,,,,,,,,,,,,,,,,,,,
,,,,,,,,,,,,,,,,,,,,,,,,,,,,,,,,,,,,,,,,,,5c0a6c9c886b630001638ba8,6036d8409deb447ce1c51022,2021-02-24_22h51.02.787,Colour_Similarity_Experiment,2020.2.10,MacIntel,60,6036d0d9a84aa1626184a6ef,17.03248529,16.66611348,16.66223611,16.66530367,16.70848066,16.67553348,,,,,,,,,,,,,,,,,,,,PF,strong,3,,,,,,,,7,1.677745,,,,,,,,,,,,,,,,,,,,,,,,,,,,1,strong,42.05859375,73.7109375,1,0,0,response1disk,7,43,6.73046875,7.8046875,1,0,0,rectangle,6.73046875,7.8046875,1,0,0,,3,6,0,0.00187,6.73046875,7.8046875,1,0,0,,0,42,42,137,1,,,,,,,,,,,,,,,,,,,
,,,,,,,,,,,,,,,,,,,,,,,,,,,,,,,,,,,,,,,,,,5c0a6c9c886b630001638ba8,6036d8409deb447ce1c51022,2021-02-24_22h51.02.787,Colour_Similarity_Experiment,2020.2.10,MacIntel,60,6036d0d9a84aa1626184a6ef,17.03248529,16.66611348,16.66223611,16.66530367,16.70848066,16.67553348,,,,,,,,,,,,,,,,,,,,PF,weak,3,,,,,,,,7,1.3345,,,,,,,,,,,,,,,,,,,,,,,,,,,,6,weak,37.921875,87.41796875,1,0,0,response1disk,2,44,4.05859375,3.5703125,1,0,0,rectangle,4.05859375,3.5703125,1,0,0,,3,6,0,0.000185,4.05859375,3.5703125,1,0,0,,0,43,43,130,1,,,,,,,,,,,,,,,,,,,
,,,,,,,,,,,,,,,,,,,,,,,,,,,,,,,,,,,,,,,,,,5c0a6c9c886b630001638ba8,6036d8409deb447ce1c51022,2021-02-24_22h51.02.787,Colour_Similarity_Experiment,2020.2.10,MacIntel,60,6036d0d9a84aa1626184a6ef,17.03248529,16.66611348,16.66223611,16.66530367,16.70848066,16.67553348,,,,,,,,,,,,,,,,,,,,PF,strong,3,,,,,,,,7,1.47135,,,,,,,,,,,,,,,,,,,,,,,,,,,,1,strong,46.44921875,79.890625,1,0,0,response1disk,6,45,5.828125,7.265625,1,0,0,rectangle,5.828125,7.265625,1,0,0,,3,5,0,0.001475,5.828125,7.265625,1,0,0,,0,44,44,58,1,,,,,,,,,,,,,,,,,,,
,,,,,,,,,,,,,,,,,,,,,,,,,,,,,,,,,,,,,,,,,,5c0a6c9c886b630001638ba8,6036d8409deb447ce1c51022,2021-02-24_22h51.02.787,Colour_Similarity_Experiment,2020.2.10,MacIntel,60,6036d0d9a84aa1626184a6ef,17.03248529,16.66611348,16.66223611,16.66530367,16.70848066,16.67553348,,,,,,,,,,,,,,,,,,,,PF,weak,3,,,,,,,,6,1.198975,,,,,,,,,,,,,,,,,,,,,,,,,,,,4,weak,94.1484375,36.65234375,1,0,0,response1disk,1,46,-16,-3.0390625,1,0,0,rectangle,-16,-3.0390625,1,0,0,,3,1,0,0.001685,-16,-3.0390625,1,0,0,,0,45,45,115,1,,,,,,,,,,,,,,,,,,,
,,,,,,,,,,,,,,,,,,,,,,,,,,,,,,,,,,,,,,,,,,5c0a6c9c886b630001638ba8,6036d8409deb447ce1c51022,2021-02-24_22h51.02.787,Colour_Similarity_Experiment,2020.2.10,MacIntel,60,6036d0d9a84aa1626184a6ef,17.03248529,16.66611348,16.66223611,16.66530367,16.70848066,16.67553348,,,,,,,,,,,,,,,,,,,,PF,strong,3,,,,,,,,6,1.16217,,,,,,,,,,,,,,,,,,,,,,,,,,,,2,strong,65.73828125,37.7265625,1,0,0,response1disk,9,47,-11.68359375,-0.4140625,1,0,0,rectangle,-11.68359375,-0.4140625,1,0,0,,3,2,0,0.001275,-11.68359375,-0.4140625,1,0,0,,0,46,46,72,1,,,,,,,,,,,,,,,,,,,
,,,,,,,,,,,,,,,,,,,,,,,,,,,,,,,,,,,,,,,,,,5c0a6c9c886b630001638ba8,6036d8409deb447ce1c51022,2021-02-24_22h51.02.787,Colour_Similarity_Experiment,2020.2.10,MacIntel,60,6036d0d9a84aa1626184a6ef,17.03248529,16.66611348,16.66223611,16.66530367,16.70848066,16.67553348,,,,,,,,,,,,,,,,,,,,PF,weak,3,,,,,,,,7,1.088315,,,,,,,,,,,,,,,,,,,,,,,,,,,,7,weak,22.109375,58.0546875,1,0,0,response1disk,2,48,5.640625,3.41015625,1,0,0,rectangle,5.640625,3.41015625,1,0,0,,3,0,0,0.000985,5.640625,3.41015625,1,0,0,,0,47,47,32,1,,,,,,,,,,,,,,,,,,,
,,,,,,,,,,,,,,,,,,,,,,,,,,,,,,,,,,,,,,,,,,5c0a6c9c886b630001638ba8,6036d8409deb447ce1c51022,2021-02-24_22h51.02.787,Colour_Similarity_Experiment,2020.2.10,MacIntel,60,6036d0d9a84aa1626184a6ef,17.03248529,16.66611348,16.66223611,16.66530367,16.70848066,16.67553348,,,,,,,,,,,,,,,,,,,,PF,strong,3,,,,,,,,3,1.656635,,,,,,,,,,,,,,,,,,,,,,,,,,,,6,strong,-50.84765625,-78.37109375,1,0,0,response5disk,7,49,-7.97265625,-4.203125,1,0,0,rectangle,-7.97265625,-4.203125,1,0,0,,3,7,0,0.00135,-7.97265625,-4.203125,1,0,0,,0,48,48,18,1,,,,,,,,,,,,,,,,,,,
,,,,,,,,,,,,,,,,,,,,,,,,,,,,,,,,,,,,,,,,,,5c0a6c9c886b630001638ba8,6036d8409deb447ce1c51022,2021-02-24_22h51.02.787,Colour_Similarity_Experiment,2020.2.10,MacIntel,60,6036d0d9a84aa1626184a6ef,17.03248529,16.66611348,16.66223611,16.66530367,16.70848066,16.67553348,,,,,,,,,,,,,,,,,,,,PF,strong,3,,,,,,,,5,1.738435,,,,,,,,,,,,,,,,,,,,,,,,,,,,8,strong,72.921875,-52.421875,1,0,0,response3disk,2,50,-1.06640625,-5.48046875,1,0,0,rectangle,-1.06640625,-5.48046875,1,0,0,,3,3,0,0.001355,-1.06640625,-5.48046875,1,0,0,,0,49,49,22,1,,,,,,,,,,,,,,,,,,,
,,,,,,,,,,,,,,,,,,,,,,,,,,,,,,,,,,,,,,,,,,5c0a6c9c886b630001638ba8,6036d8409deb447ce1c51022,2021-02-24_22h51.02.787,Colour_Similarity_Experiment,2020.2.10,MacIntel,60,6036d0d9a84aa1626184a6ef,17.03248529,16.66611348,16.66223611,16.66530367,16.70848066,16.67553348,,,,,,,,,,,,,,,,,,,,PF,strong,3,,,,,,,,1,2.00091,,,,,,,,,,,,,,,,,,,,,,,,,,,,9,strong,-72.94921875,42.50390625,1,0,0,response7disk,5,51,-4.80859375,-1.3359375,1,0,0,rectangle,-4.80859375,-1.3359375,1,0,0,,3,2,0,0.00143,-4.80859375,-1.3359375,1,0,0,,0,50,50,128,1,,,,,,,,,,,,,,,,,,,
,,,,,,,,,,,,,,,,,,,,,,,,,,,,,,,,,,,,,,,,,,5c0a6c9c886b630001638ba8,6036d8409deb447ce1c51022,2021-02-24_22h51.02.787,Colour_Similarity_Experiment,2020.2.10,MacIntel,60,6036d0d9a84aa1626184a6ef,17.03248529,16.66611348,16.66223611,16.66530367,16.70848066,16.67553348,,,,,,,,,,,,,,,,,,,,PF,weak,3,,,,,,,,7,2.64696,,,,,,,,,,,,,,,,,,,,,,,,,,,,3,weak,27.67578125,78.546875,1,0,0,response1disk,4,52,8.3046875,9.15625,1,0,0,rectangle,8.3046875,9.15625,1,0,0,,3,2,0,0.000185,8.3046875,9.15625,1,0,0,,0,51,51,30,1,,,,,,,,,,,,,,,,,,,
,,,,,,,,,,,,,,,,,,,,,,,,,,,,,,,,,,,,,,,,,,5c0a6c9c886b630001638ba8,6036d8409deb447ce1c51022,2021-02-24_22h51.02.787,Colour_Similarity_Experiment,2020.2.10,MacIntel,60,6036d0d9a84aa1626184a6ef,17.03248529,16.66611348,16.66223611,16.66530367,16.70848066,16.67553348,,,,,,,,,,,,,,,,,,,,PF,weak,3,,,,,,,,1,1.81506,,,,,,,,,,,,,,,,,,,,,,,,,,,,3,weak,-61.28125,35.01953125,1,0,0,response7disk,5,53,-1.5859375,-1.17578125,1,0,0,rectangle,-1.5859375,-1.17578125,1,0,0,,3,6,0,0.00105,-1.5859375,-1.17578125,1,0,0,,0,52,52,66,1,,,,,,,,,,,,,,,,,,,
,,,,,,,,,,,,,,,,,,,,,,,,,,,,,,,,,,,,,,,,,,5c0a6c9c886b630001638ba8,6036d8409deb447ce1c51022,2021-02-24_22h51.02.787,Colour_Similarity_Experiment,2020.2.10,MacIntel,60,6036d0d9a84aa1626184a6ef,17.03248529,16.66611348,16.66223611,16.66530367,16.70848066,16.67553348,,,,,,,,,,,,,,,,,,,,PF,weak,3,,,,,,,,7,2.364755,,,,,,,,,,,,,,,,,,,,,,,,,,,,1,weak,54.30859375,74.6484375,1,0,0,response1disk,7,54,18.73828125,14.05859375,1,0,0,rectangle,18.73828125,14.05859375,1,0,0,,3,5,0,0.00119,18.73828125,14.05859375,1,0,0,,0,53,53,150,1,,,,,,,,,,,,,,,,,,,
,,,,,,,,,,,,,,,,,,,,,,,,,,,,,,,,,,,,,,,,,,5c0a6c9c886b630001638ba8,6036d8409deb447ce1c51022,2021-02-24_22h51.02.787,Colour_Similarity_Experiment,2020.2.10,MacIntel,60,6036d0d9a84aa1626184a6ef,17.03248529,16.66611348,16.66223611,16.66530367,16.70848066,16.67553348,,,,,,,,,,,,,,,,,,,,PF,weak,3,,,,,,,,6,1.063025,,,,,,,,,,,,,,,,,,,,,,,,,,,,2,weak,56.984375,39.5625,1,0,0,response1disk,4,55,-2.83984375,-4.5234375,1,0,0,rectangle,-2.83984375,-4.5234375,1,0,0,,3,4,0,0.001375,-2.83984375,-4.5234375,1,0,0,,0,54,54,127,1,,,,,,,,,,,,,,,,,,,
,,,,,,,,,,,,,,,,,,,,,,,,,,,,,,,,,,,,,,,,,,5c0a6c9c886b630001638ba8,6036d8409deb447ce1c51022,2021-02-24_22h51.02.787,Colour_Similarity_Experiment,2020.2.10,MacIntel,60,6036d0d9a84aa1626184a6ef,17.03248529,16.66611348,16.66223611,16.66530367,16.70848066,16.67553348,,,,,,,,,,,,,,,,,,,,PF,weak,3,,,,,,,,7,1.188285,,,,,,,,,,,,,,,,,,,,,,,,,,,,1,weak,32.765625,92.08203125,1,0,0,response1disk,5,56,-2.19140625,1.01953125,1,0,0,rectangle,-2.19140625,1.01953125,1,0,0,,3,2,0,0.000995,-2.19140625,1.01953125,1,0,0,,0,55,55,28,1,,,,,,,,,,,,,,,,,,,
,,,,,,,,,,,,,,,,,,,,,,,,,,,,,,,,,,,,,,,,,,5c0a6c9c886b630001638ba8,6036d8409deb447ce1c51022,2021-02-24_22h51.02.787,Colour_Similarity_Experiment,2020.2.10,MacIntel,60,6036d0d9a84aa1626184a6ef,17.03248529,16.66611348,16.66223611,16.66530367,16.70848066,16.67553348,,,,,,,,,,,,,,,,,,,,PF,weak,3,,,,,,,,6,1.12373,,,,,,,,,,,,,,,,,,,,,,,,,,,,9,weak,74.65234375,47.17578125,1,0,0,response1disk,9,57,-0.8203125,2.52734375,1,0,0,rectangle,-0.8203125,2.52734375,1,0,0,,3,3,0,0.001325,-0.8203125,2.52734375,1,0,0,,0,56,56,106,1,,,,,,,,,,,,,,,,,,,
,,,,,,,,,,,,,,,,,,,,,,,,,,,,,,,,,,,,,,,,,,5c0a6c9c886b630001638ba8,6036d8409deb447ce1c51022,2021-02-24_22h51.02.787,Colour_Similarity_Experiment,2020.2.10,MacIntel,60,6036d0d9a84aa1626184a6ef,17.03248529,16.66611348,16.66223611,16.66530367,16.70848066,16.67553348,,,,,,,,,,,,,,,,,,,,PF,strong,3,,,,,,,,2,1.57264,,,,,,,,,,,,,,,,,,,,,,,,,,,,7,strong,-55.30078125,-26.38671875,1,0,0,response5disk,8,58,3.1953125,1.8984375,1,0,0,rectangle,76.7265625,-35.94921875,1,0,0,response3disk_3,5,5,1,2.43398,-1.04296875,-2.36328125,1,0,0,rectangle,0,57,57,97,1,,,,,,,,,,,,,,,,,,,
,,,,,,,,,,,,,,,,,,,,,,,,,,,,,,,,,,,,,,,,,,5c0a6c9c886b630001638ba8,6036d8409deb447ce1c51022,2021-02-24_22h51.02.787,Colour_Similarity_Experiment,2020.2.10,MacIntel,60,6036d0d9a84aa1626184a6ef,17.03248529,16.66611348,16.66223611,16.66530367,16.70848066,16.67553348,,,,,,,,,,,,,,,,,,,,PF,weak,3,,,,,,,,7,0.88345,,,,,,,,,,,,,,,,,,,,,,,,,,,,5,weak,30.11328125,80.91015625,1,0,0,response1disk,9,59,6.75390625,-17.09375,1,0,0,rectangle,-71.2578125,-42.18359375,1,0,0,response5disk_3,5,2,1,2.365665,-8.359375,-3.26171875,1,0,0,rectangle,0,58,58,136,1,,,,,,,,,,,,,,,,,,,
,,,,,,,,,,,,,,,,,,,,,,,,,,,,,,,,,,,,,,,,,,5c0a6c9c886b630001638ba8,6036d8409deb447ce1c51022,2021-02-24_22h51.02.787,Colour_Similarity_Experiment,2020.2.10,MacIntel,60,6036d0d9a84aa1626184a6ef,17.03248529,16.66611348,16.66223611,16.66530367,16.70848066,16.67553348,,,,,,,,,,,,,,,,,,,,PF,weak,3,,,,,,,,7,0.731035,,,,,,,,,,,,,,,,,,,,,,,,,,,,7,weak,36.453125,71.6640625,1,0,0,response1disk,3,60,12.10546875,-15.6484375,1,0,0,rectangle,12.10546875,-15.6484375,1,0,0,,5,4,0,0.001045,12.10546875,-15.6484375,1,0,0,,0,59,59,81,1,,,,,,,,,,,,,,,,,,,
,,,,,,,,,,,,,,,,,,,,,,,,,,,,,,,,,,,,,,,,,,5c0a6c9c886b630001638ba8,6036d8409deb447ce1c51022,2021-02-24_22h51.02.787,Colour_Similarity_Experiment,2020.2.10,MacIntel,60,6036d0d9a84aa1626184a6ef,17.03248529,16.66611348,16.66223611,16.66530367,16.70848066,16.67553348,,,,,,,,,,,,,,,,,,,,PF,strong,3,,,,,,,,1,1.25057,,,,,,,,,,,,,,,,,,,,,,,,,,,,6,strong,-82.68359375,33.4375,1,0,0,response7disk,9,61,-1.484375,-0.4921875,1,0,0,rectangle,51.6015625,-77.01171875,1,0,0,response3disk_3,4,4,1,2.450015,2.6328125,2.46484375,1,0,0,rectangle,0,60,60,160,1,,,,,,,,,,,,,,,,,,,
,,,,,,,,,,,,,,,,,,,,,,,,,,,,,,,,,,,,,,,,,,5c0a6c9c886b630001638ba8,6036d8409deb447ce1c51022,2021-02-24_22h51.02.787,Colour_Similarity_Experiment,2020.2.10,MacIntel,60,6036d0d9a84aa1626184a6ef,17.03248529,16.66611348,16.66223611,16.66530367,16.70848066,16.67553348,,,,,,,,,,,,,,,,,,,,PF,weak,3,,,,,,,,7,3.06572,,,,,,,,,,,,,,,,,,,,,,,,,,,,1,weak,35.74609375,96.765625,1,0,0,response1disk,6,62,9.2734375,-11.09375,1,0,0,rectangle,9.2734375,-11.09375,1,0,0,,4,5,0,0.0014,9.2734375,-11.09375,1,0,0,,0,61,61,144,1,,,,,,,,,,,,,,,,,,,
,,,,,,,,,,,,,,,,,,,,,,,,,,,,,,,,,,,,,,,,,,5c0a6c9c886b630001638ba8,6036d8409deb447ce1c51022,2021-02-24_22h51.02.787,Colour_Similarity_Experiment,2020.2.10,MacIntel,60,6036d0d9a84aa1626184a6ef,17.03248529,16.66611348,16.66223611,16.66530367,16.70848066,16.67553348,,,,,,,,,,,,,,,,,,,,PF,weak,3,,,,,,,,5,1.22338,,,,,,,,,,,,,,,,,,,,,,,,,,,,9,weak,75.78125,-17.6953125,1,0,0,response3disk,4,63,7.23828125,-11.2265625,1,0,0,rectangle,7.23828125,-11.2265625,1,0,0,,4,1,0,0.002,7.23828125,-11.2265625,1,0,0,,0,62,62,114,1,,,,,,,,,,,,,,,,,,,
,,,,,,,,,,,,,,,,,,,,,,,,,,,,,,,,,,,,,,,,,,5c0a6c9c886b630001638ba8,6036d8409deb447ce1c51022,2021-02-24_22h51.02.787,Colour_Similarity_Experiment,2020.2.10,MacIntel,60,6036d0d9a84aa1626184a6ef,17.03248529,16.66611348,16.66223611,16.66530367,16.70848066,16.67553348,,,,,,,,,,,,,,,,,,,,PF,weak,3,,,,,,,,6,1.672615,,,,,,,,,,,,,,,,,,,,,,,,,,,,8,weak,81.609375,39.26953125,1,0,0,response1disk,6,64,3.6875,5.390625,1,0,0,rectangle,-33.90625,-83.62890625,1,0,0,response5disk_3,3,3,1,1.949885,-9.43359375,-0.02734375,1,0,0,rectangle,0,63,63,161,1,,,,,,,,,,,,,,,,,,,
,,,,,,,,,,,,,,,,,,,,,,,,,,,,,,,,,,,,,,,,,,5c0a6c9c886b630001638ba8,6036d8409deb447ce1c51022,2021-02-24_22h51.02.787,Colour_Similarity_Experiment,2020.2.10,MacIntel,60,6036d0d9a84aa1626184a6ef,17.03248529,16.66611348,16.66223611,16.66530367,16.70848066,16.67553348,,,,,,,,,,,,,,,,,,,,PF,strong,3,,,,,,,,7,1.01093,,,,,,,,,,,,,,,,,,,,,,,,,,,,7,strong,47.203125,78.9609375,1,0,0,response1disk,1,65,21.3125,4.66015625,1,0,0,rectangle,21.3125,4.66015625,1,0,0,,3,1,0,0.001655,21.3125,4.66015625,1,0,0,,0,64,64,132,1,,,,,,,,,,,,,,,,,,,
,,,,,,,,,,,,,,,,,,,,,,,,,,,,,,,,,,,,,,,,,,5c0a6c9c886b630001638ba8,6036d8409deb447ce1c51022,2021-02-24_22h51.02.787,Colour_Similarity_Experiment,2020.2.10,MacIntel,60,6036d0d9a84aa1626184a6ef,17.03248529,16.66611348,16.66223611,16.66530367,16.70848066,16.67553348,,,,,,,,,,,,,,,,,,,,PF,weak,3,,,,,,,,7,1.22168,,,,,,,,,,,,,,,,,,,,,,,,,,,,1,weak,42.10546875,88.99609375,1,0,0,response1disk,3,66,9.703125,5.06640625,1,0,0,rectangle,9.703125,5.06640625,1,0,0,,3,6,0,0.00163,9.703125,5.06640625,1,0,0,,0,65,65,1,1,,,,,,,,,,,,,,,,,,,
,,,,,,,,,,,,,,,,,,,,,,,,,,,,,,,,,,,,,,,,,,5c0a6c9c886b630001638ba8,6036d8409deb447ce1c51022,2021-02-24_22h51.02.787,Colour_Similarity_Experiment,2020.2.10,MacIntel,60,6036d0d9a84aa1626184a6ef,17.03248529,16.66611348,16.66223611,16.66530367,16.70848066,16.67553348,,,,,,,,,,,,,,,,,,,,PF,strong,3,,,,,,,,7,1.071895,,,,,,,,,,,,,,,,,,,,,,,,,,,,7,strong,53.73828125,71.47265625,1,0,0,response1disk,7,67,3.70703125,0.15234375,1,0,0,rectangle,3.70703125,0.15234375,1,0,0,,3,4,0,0.001445,3.70703125,0.15234375,1,0,0,,0,66,66,34,1,,,,,,,,,,,,,,,,,,,
,,,,,,,,,,,,,,,,,,,,,,,,,,,,,,,,,,,,,,,,,,5c0a6c9c886b630001638ba8,6036d8409deb447ce1c51022,2021-02-24_22h51.02.787,Colour_Similarity_Experiment,2020.2.10,MacIntel,60,6036d0d9a84aa1626184a6ef,17.03248529,16.66611348,16.66223611,16.66530367,16.70848066,16.67553348,,,,,,,,,,,,,,,,,,,,PF,strong,3,,,,,,,,7,0.87808,,,,,,,,,,,,,,,,,,,,,,,,,,,,4,strong,22.703125,85.1796875,1,0,0,response1disk,1,68,15.70703125,-5,1,0,0,rectangle,15.70703125,-5,1,0,0,,3,1,0,0.00157,15.70703125,-5,1,0,0,,0,67,67,102,1,,,,,,,,,,,,,,,,,,,
,,,,,,,,,,,,,,,,,,,,,,,,,,,,,,,,,,,,,,,,,,5c0a6c9c886b630001638ba8,6036d8409deb447ce1c51022,2021-02-24_22h51.02.787,Colour_Similarity_Experiment,2020.2.10,MacIntel,60,6036d0d9a84aa1626184a6ef,17.03248529,16.66611348,16.66223611,16.66530367,16.70848066,16.67553348,,,,,,,,,,,,,,,,,,,,PF,weak,3,,,,,,,,7,0.74047,,,,,,,,,,,,,,,,,,,,,,,,,,,,6,weak,35.11328125,80.82421875,1,0,0,response1disk,7,69,8.96484375,0.66015625,1,0,0,rectangle,8.96484375,0.66015625,1,0,0,,3,7,0,0.001475,8.96484375,0.66015625,1,0,0,,0,68,68,50,1,,,,,,,,,,,,,,,,,,,
,,,,,,,,,,,,,,,,,,,,,,,,,,,,,,,,,,,,,,,,,,5c0a6c9c886b630001638ba8,6036d8409deb447ce1c51022,2021-02-24_22h51.02.787,Colour_Similarity_Experiment,2020.2.10,MacIntel,60,6036d0d9a84aa1626184a6ef,17.03248529,16.66611348,16.66223611,16.66530367,16.70848066,16.67553348,,,,,,,,,,,,,,,,,,,,PF,weak,3,,,,,,,,6,0.888505,,,,,,,,,,,,,,,,,,,,,,,,,,,,9,weak,88.17578125,37.61328125,1,0,0,response1disk,3,70,-7.2890625,3.78515625,1,0,0,rectangle,-7.2890625,3.78515625,1,0,0,,3,6,0,0.001395,-7.2890625,3.78515625,1,0,0,,0,69,69,119,1,,,,,,,,,,,,,,,,,,,
,,,,,,,,,,,,,,,,,,,,,,,,,,,,,,,,,,,,,,,,,,5c0a6c9c886b630001638ba8,6036d8409deb447ce1c51022,2021-02-24_22h51.02.787,Colour_Similarity_Experiment,2020.2.10,MacIntel,60,6036d0d9a84aa1626184a6ef,17.03248529,16.66611348,16.66223611,16.66530367,16.70848066,16.67553348,,,,,,,,,,,,,,,,,,,,PF,strong,3,,,,,,,,7,0.911855,,,,,,,,,,,,,,,,,,,,,,,,,,,,7,strong,22.328125,54.08203125,1,0,0,response1disk,4,71,5.9765625,-12.94921875,1,0,0,rectangle,5.9765625,-12.94921875,1,0,0,,3,0,0,0.00106,5.9765625,-12.94921875,1,0,0,,0,70,70,158,1,,,,,,,,,,,,,,,,,,,
,,,,,,,,,,,,,,,,,,,,,,,,,,,,,,,,,,,,,,,,,,5c0a6c9c886b630001638ba8,6036d8409deb447ce1c51022,2021-02-24_22h51.02.787,Colour_Similarity_Experiment,2020.2.10,MacIntel,60,6036d0d9a84aa1626184a6ef,17.03248529,16.66611348,16.66223611,16.66530367,16.70848066,16.67553348,,,,,,,,,,,,,,,,,,,,PF,weak,3,,,,,,,,7,0.82304,,,,,,,,,,,,,,,,,,,,,,,,,,,,5,weak,57.296875,68.52734375,1,0,0,response1disk,6,72,14.7734375,-1.7734375,1,0,0,rectangle,14.7734375,-1.7734375,1,0,0,,3,5,0,0.00098,14.7734375,-1.7734375,1,0,0,,0,71,71,103,1,,,,,,,,,,,,,,,,,,,
,,,,,,,,,,,,,,,,,,,,,,,,,,,,,,,,,,,,,,,,,,5c0a6c9c886b630001638ba8,6036d8409deb447ce1c51022,2021-02-24_22h51.02.787,Colour_Similarity_Experiment,2020.2.10,MacIntel,60,6036d0d9a84aa1626184a6ef,17.03248529,16.66611348,16.66223611,16.66530367,16.70848066,16.67553348,,,,,,,,,,,,,,,,,,,,PF,weak,3,,,,,,,,6,0.704165,,,,,,,,,,,,,,,,,,,,,,,,,,,,2,weak,79.4765625,48.5,1,0,0,response1disk,2,73,10.40234375,1.8046875,1,0,0,rectangle,10.40234375,1.8046875,1,0,0,,3,7,0,0.001175,10.40234375,1.8046875,1,0,0,,0,72,72,14,1,,,,,,,,,,,,,,,,,,,
,,,,,,,,,,,,,,,,,,,,,,,,,,,,,,,,,,,,,,,,,,5c0a6c9c886b630001638ba8,6036d8409deb447ce1c51022,2021-02-24_22h51.02.787,Colour_Similarity_Experiment,2020.2.10,MacIntel,60,6036d0d9a84aa1626184a6ef,17.03248529,16.66611348,16.66223611,16.66530367,16.70848066,16.67553348,,,,,,,,,,,,,,,,,,,,PF,weak,3,,,,,,,,6,0.91373,,,,,,,,,,,,,,,,,,,,,,,,,,,,7,weak,75.27734375,53.03515625,1,0,0,response1disk,5,74,-7.0546875,13.23046875,1,0,0,rectangle,-7.0546875,13.23046875,1,0,0,,3,0,0,0.001415,-7.0546875,13.23046875,1,0,0,,0,73,73,92,1,,,,,,,,,,,,,,,,,,,
,,,,,,,,,,,,,,,,,,,,,,,,,,,,,,,,,,,,,,,,,,5c0a6c9c886b630001638ba8,6036d8409deb447ce1c51022,2021-02-24_22h51.02.787,Colour_Similarity_Experiment,2020.2.10,MacIntel,60,6036d0d9a84aa1626184a6ef,17.03248529,16.66611348,16.66223611,16.66530367,16.70848066,16.67553348,,,,,,,,,,,,,,,,,,,,PF,weak,3,,,,,,,,7,0.616955,,,,,,,,,,,,,,,,,,,,,,,,,,,,8,weak,33.515625,88.2578125,1,0,0,response1disk,9,75,12.15234375,-1.61328125,1,0,0,rectangle,12.15234375,-1.61328125,1,0,0,,3,1,0,0.001045,12.15234375,-1.61328125,1,0,0,,0,74,74,42,1,,,,,,,,,,,,,,,,,,,
,,,,,,,,,,,,,,,,,,,,,,,,,,,,,,,,,,,,,,,,,,5c0a6c9c886b630001638ba8,6036d8409deb447ce1c51022,2021-02-24_22h51.02.787,Colour_Similarity_Experiment,2020.2.10,MacIntel,60,6036d0d9a84aa1626184a6ef,17.03248529,16.66611348,16.66223611,16.66530367,16.70848066,16.67553348,,,,,,,,,,,,,,,,,,,,PF,strong,3,,,,,,,,1,1.498475,,,,,,,,,,,,,,,,,,,,,,,,,,,,8,strong,-63.484375,20.41015625,1,0,0,response7disk,7,76,0.18359375,-8.77734375,1,0,0,rectangle,0.18359375,-8.77734375,1,0,0,,3,3,0,0.000985,0.18359375,-8.77734375,1,0,0,,0,75,75,86,1,,,,,,,,,,,,,,,,,,,
,,,,,,,,,,,,,,,,,,,,,,,,,,,,,,,,,,,,,,,,,,5c0a6c9c886b630001638ba8,6036d8409deb447ce1c51022,2021-02-24_22h51.02.787,Colour_Similarity_Experiment,2020.2.10,MacIntel,60,6036d0d9a84aa1626184a6ef,17.03248529,16.66611348,16.66223611,16.66530367,16.70848066,16.67553348,,,,,,,,,,,,,,,,,,,,PF,strong,3,,,,,,,,7,0.96463,,,,,,,,,,,,,,,,,,,,,,,,,,,,6,strong,30.33203125,93.91796875,1,0,0,response1disk,6,77,18.078125,9.71875,1,0,0,rectangle,18.078125,9.71875,1,0,0,,3,4,0,0.00133,18.078125,9.71875,1,0,0,,0,76,76,91,1,,,,,,,,,,,,,,,,,,,
,,,,,,,,,,,,,,,,,,,,,,,,,,,,,,,,,,,,,,,,,,5c0a6c9c886b630001638ba8,6036d8409deb447ce1c51022,2021-02-24_22h51.02.787,Colour_Similarity_Experiment,2020.2.10,MacIntel,60,6036d0d9a84aa1626184a6ef,17.03248529,16.66611348,16.66223611,16.66530367,16.70848066,16.67553348,,,,,,,,,,,,,,,,,,,,PF,strong,3,,,,,,,,7,0.999795,,,,,,,,,,,,,,,,,,,,,,,,,,,,9,strong,58.06640625,75.98046875,1,0,0,response1disk,6,78,14.76953125,2.80859375,1,0,0,rectangle,14.76953125,2.80859375,1,0,0,,3,6,0,0.00126,14.76953125,2.80859375,1,0,0,,0,77,77,117,1,,,,,,,,,,,,,,,,,,,
,,,,,,,,,,,,,,,,,,,,,,,,,,,,,,,,,,,,,,,,,,5c0a6c9c886b630001638ba8,6036d8409deb447ce1c51022,2021-02-24_22h51.02.787,Colour_Similarity_Experiment,2020.2.10,MacIntel,60,6036d0d9a84aa1626184a6ef,17.03248529,16.66611348,16.66223611,16.66530367,16.70848066,16.67553348,,,,,,,,,,,,,,,,,,,,PF,strong,3,,,,,,,,1,0.89514,,,,,,,,,,,,,,,,,,,,,,,,,,,,8,strong,-96.1328125,23.7265625,1,0,0,response7disk,3,79,4.71484375,-8.44921875,1,0,0,rectangle,4.71484375,-8.44921875,1,0,0,,3,6,0,0.000165,4.71484375,-8.44921875,1,0,0,,0,78,78,154,1,,,,,,,,,,,,,,,,,,,
,,,,,,,,,,,,,,,,,,,,,,,,,,,,,,,,,,,,,,,,,,5c0a6c9c886b630001638ba8,6036d8409deb447ce1c51022,2021-02-24_22h51.02.787,Colour_Similarity_Experiment,2020.2.10,MacIntel,60,6036d0d9a84aa1626184a6ef,17.03248529,16.66611348,16.66223611,16.66530367,16.70848066,16.67553348,,,,,,,,,,,,,,,,,,,,PF,strong,3,,,,,,,,6,1.240255,,,,,,,,,,,,,,,,,,,,,,,,,,,,4,strong,79.734375,40.1640625,1,0,0,response1disk,3,80,26.9140625,10.52734375,1,0,0,rectangle,26.9140625,10.52734375,1,0,0,,3,3,0,0.0015,26.9140625,10.52734375,1,0,0,,0,79,79,77,1,,,,,,,,,,,,,,,,,,,
,,,,,,,,,,,,,,,,,,,,,,,,,,,,,,,,,,,,,,,,,,5c0a6c9c886b630001638ba8,6036d8409deb447ce1c51022,2021-02-24_22h51.02.787,Colour_Similarity_Experiment,2020.2.10,MacIntel,60,6036d0d9a84aa1626184a6ef,17.03248529,16.66611348,16.66223611,16.66530367,16.70848066,16.67553348,,,,,,,,,,,,,,,,,,,,PF,weak,3,,,,,,,,6,1.28206,,,,,,,,,,,,,,,,,,,,,,,,,,,,2,weak,83.50390625,46.96484375,1,0,0,response1disk,1,81,1.4765625,4.0546875,1,0,0,rectangle,1.4765625,4.0546875,1,0,0,,3,1,0,0.001335,1.4765625,4.0546875,1,0,0,,0,80,80,9,1,,,,,,,,,,,,,,,,,,,
,,,,,,,,,,,,,,,,,,,,,,,,,,,,,,,,,,,,,,,,,,5c0a6c9c886b630001638ba8,6036d8409deb447ce1c51022,2021-02-24_22h51.02.787,Colour_Similarity_Experiment,2020.2.10,MacIntel,60,6036d0d9a84aa1626184a6ef,17.03248529,16.66611348,16.66223611,16.66530367,16.70848066,16.67553348,,,,,,,,,,,,,,,,,,,,PF,strong,3,,,,,,,,6,0.730635,,,,,,,,,,,,,,,,,,,,,,,,,,,,9,strong,73.37109375,32.65234375,1,0,0,response1disk,7,82,6.4609375,-1.125,1,0,0,rectangle,6.4609375,-1.125,1,0,0,,3,4,0,0.0013,6.4609375,-1.125,1,0,0,,0,81,81,100,1,,,,,,,,,,,,,,,,,,,
,,,,,,,,,,,,,,,,,,,,,,,,,,,,,,,,,,,,,,,,,,5c0a6c9c886b630001638ba8,6036d8409deb447ce1c51022,2021-02-24_22h51.02.787,Colour_Similarity_Experiment,2020.2.10,MacIntel,60,6036d0d9a84aa1626184a6ef,17.03248529,16.66611348,16.66223611,16.66530367,16.70848066,16.67553348,,,,,,,,,,,,,,,,,,,,PF,strong,3,,,,,,,,6,0.848755,,,,,,,,,,,,,,,,,,,,,,,,,,,,1,strong,106.6835938,52.640625,1,0,0,response1disk,3,83,12.046875,-3.0859375,1,0,0,rectangle,12.046875,-3.0859375,1,0,0,,3,4,0,0.00017,12.046875,-3.0859375,1,0,0,,0,82,82,99,1,,,,,,,,,,,,,,,,,,,
,,,,,,,,,,,,,,,,,,,,,,,,,,,,,,,,,,,,,,,,,,5c0a6c9c886b630001638ba8,6036d8409deb447ce1c51022,2021-02-24_22h51.02.787,Colour_Similarity_Experiment,2020.2.10,MacIntel,60,6036d0d9a84aa1626184a6ef,17.03248529,16.66611348,16.66223611,16.66530367,16.70848066,16.67553348,,,,,,,,,,,,,,,,,,,,PF,weak,3,,,,,,,,7,0.615085,,,,,,,,,,,,,,,,,,,,,,,,,,,,6,weak,40.71875,76,1,0,0,response1disk,3,84,13.4296875,13.26953125,1,0,0,rectangle,13.4296875,13.26953125,1,0,0,,3,0,0,0.00208,13.4296875,13.26953125,1,0,0,,0,83,83,26,1,,,,,,,,,,,,,,,,,,,
,,,,,,,,,,,,,,,,,,,,,,,,,,,,,,,,,,,,,,,,,,5c0a6c9c886b630001638ba8,6036d8409deb447ce1c51022,2021-02-24_22h51.02.787,Colour_Similarity_Experiment,2020.2.10,MacIntel,60,6036d0d9a84aa1626184a6ef,17.03248529,16.66611348,16.66223611,16.66530367,16.70848066,16.67553348,,,,,,,,,,,,,,,,,,,,PF,weak,3,,,,,,,,0,1.387815,,,,,,,,,,,,,,,,,,,,,,,,,,,,7,weak,-40.04296875,100.09375,1,0,0,response7disk,4,85,-10.12890625,8.65625,1,0,0,rectangle,-10.12890625,8.65625,1,0,0,,3,1,0,0.001225,-10.12890625,8.65625,1,0,0,,0,84,84,43,1,,,,,,,,,,,,,,,,,,,
,,,,,,,,,,,,,,,,,,,,,,,,,,,,,,,,,,,,,,,,,,5c0a6c9c886b630001638ba8,6036d8409deb447ce1c51022,2021-02-24_22h51.02.787,Colour_Similarity_Experiment,2020.2.10,MacIntel,60,6036d0d9a84aa1626184a6ef,17.03248529,16.66611348,16.66223611,16.66530367,16.70848066,16.67553348,,,,,,,,,,,,,,,,,,,,PF,strong,3,,,,,,,,0,0.829875,,,,,,,,,,,,,,,,,,,,,,,,,,,,6,strong,-51.62109375,92.84375,1,0,0,response7disk,3,86,-21.4921875,12.984375,1,0,0,rectangle,-21.4921875,12.984375,1,0,0,,3,5,0,0.00169,-21.4921875,12.984375,1,0,0,,0,85,85,21,1,,,,,,,,,,,,,,,,,,,
,,,,,,,,,,,,,,,,,,,,,,,,,,,,,,,,,,,,,,,,,,5c0a6c9c886b630001638ba8,6036d8409deb447ce1c51022,2021-02-24_22h51.02.787,Colour_Similarity_Experiment,2020.2.10,MacIntel,60,6036d0d9a84aa1626184a6ef,17.03248529,16.66611348,16.66223611,16.66530367,16.70848066,16.67553348,,,,,,,,,,,,,,,,,,,,PF,strong,3,,,,,,,,7,0.884065,,,,,,,,,,,,,,,,,,,,,,,,,,,,4,strong,25.2109375,71.39453125,1,0,0,response1disk,7,87,3.91796875,-5.140625,1,0,0,rectangle,3.91796875,-5.140625,1,0,0,,3,5,0,0.000195,3.91796875,-5.140625,1,0,0,,0,86,86,87,1,,,,,,,,,,,,,,,,,,,
,,,,,,,,,,,,,,,,,,,,,,,,,,,,,,,,,,,,,,,,,,5c0a6c9c886b630001638ba8,6036d8409deb447ce1c51022,2021-02-24_22h51.02.787,Colour_Similarity_Experiment,2020.2.10,MacIntel,60,6036d0d9a84aa1626184a6ef,17.03248529,16.66611348,16.66223611,16.66530367,16.70848066,16.67553348,,,,,,,,,,,,,,,,,,,,PF,weak,3,,,,,,,,7,0.7311,,,,,,,,,,,,,,,,,,,,,,,,,,,,1,weak,38.80078125,73.1171875,1,0,0,response1disk,1,88,2.03515625,5.9921875,1,0,0,rectangle,-53.71875,100.203125,1,0,0,response7disk_3,0,0,1,2.583095,-6.87890625,7.34765625,1,0,0,rectangle,0,87,87,76,1,,,,,,,,,,,,,,,,,,,
,,,,,,,,,,,,,,,,,,,,,,,,,,,,,,,,,,,,,,,,,,5c0a6c9c886b630001638ba8,6036d8409deb447ce1c51022,2021-02-24_22h51.02.787,Colour_Similarity_Experiment,2020.2.10,MacIntel,60,6036d0d9a84aa1626184a6ef,17.03248529,16.66611348,16.66223611,16.66530367,16.70848066,16.67553348,,,,,,,,,,,,,,,,,,,,PF,weak,3,,,,,,,,7,0.797085,,,,,,,,,,,,,,,,,,,,,,,,,,,,8,weak,32.71875,102.7578125,1,0,0,response1disk,3,89,-1.46875,7.98046875,1,0,0,rectangle,-1.46875,7.98046875,1,0,0,,0,3,0,0.001075,-1.46875,7.98046875,1,0,0,,0,88,88,71,1,,,,,,,,,,,,,,,,,,,
,,,,,,,,,,,,,,,,,,,,,,,,,,,,,,,,,,,,,,,,,,5c0a6c9c886b630001638ba8,6036d8409deb447ce1c51022,2021-02-24_22h51.02.787,Colour_Similarity_Experiment,2020.2.10,MacIntel,60,6036d0d9a84aa1626184a6ef,17.03248529,16.66611348,16.66223611,16.66530367,16.70848066,16.67553348,,,,,,,,,,,,,,,,,,,,PF,strong,3,,,,,,,,7,0.696435,,,,,,,,,,,,,,,,,,,,,,,,,,,,4,strong,39.7578125,81.2109375,1,0,0,response1disk,8,90,7.60546875,12.9765625,1,0,0,rectangle,7.60546875,12.9765625,1,0,0,,0,2,0,0.00142,7.60546875,12.9765625,1,0,0,,0,89,89,35,1,,,,,,,,,,,,,,,,,,,
,,,,,,,,,,,,,,,,,,,,,,,,,,,,,,,,,,,,,,,,,,5c0a6c9c886b630001638ba8,6036d8409deb447ce1c51022,2021-02-24_22h51.02.787,Colour_Similarity_Experiment,2020.2.10,MacIntel,60,6036d0d9a84aa1626184a6ef,17.03248529,16.66611348,16.66223611,16.66530367,16.70848066,16.67553348,,,,,,,,,,,,,,,,,,,,PF,strong,3,,,,,,,,7,0.76208,,,,,,,,,,,,,,,,,,,,,,,,,,,,8,strong,36.37109375,93.484375,1,0,0,response1disk,8,91,19.48828125,5.82421875,1,0,0,rectangle,19.48828125,5.82421875,1,0,0,,0,5,0,0.00134,19.48828125,5.82421875,1,0,0,,0,90,90,48,1,,,,,,,,,,,,,,,,,,,
,,,,,,,,,,,,,,,,,,,,,,,,,,,,,,,,,,,,,,,,,,5c0a6c9c886b630001638ba8,6036d8409deb447ce1c51022,2021-02-24_22h51.02.787,Colour_Similarity_Experiment,2020.2.10,MacIntel,60,6036d0d9a84aa1626184a6ef,17.03248529,16.66611348,16.66223611,16.66530367,16.70848066,16.67553348,,,,,,,,,,,,,,,,,,,,PF,strong,3,,,,,,,,7,0.672465,,,,,,,,,,,,,,,,,,,,,,,,,,,,7,strong,39.828125,75.40625,1,0,0,response1disk,9,92,16.40234375,-6.07421875,1,0,0,rectangle,16.40234375,-6.07421875,1,0,0,,0,6,0,0.00168,16.40234375,-6.07421875,1,0,0,,0,91,91,155,1,,,,,,,,,,,,,,,,,,,
,,,,,,,,,,,,,,,,,,,,,,,,,,,,,,,,,,,,,,,,,,5c0a6c9c886b630001638ba8,6036d8409deb447ce1c51022,2021-02-24_22h51.02.787,Colour_Similarity_Experiment,2020.2.10,MacIntel,60,6036d0d9a84aa1626184a6ef,17.03248529,16.66611348,16.66223611,16.66530367,16.70848066,16.67553348,,,,,,,,,,,,,,,,,,,,PF,weak,3,,,,,,,,6,0.80746,,,,,,,,,,,,,,,,,,,,,,,,,,,,5,weak,67.46875,24.625,1,0,0,response1disk,5,93,-23.453125,-3.09375,1,0,0,rectangle,-23.453125,-3.09375,1,0,0,,0,1,0,0.00141,-23.453125,-3.09375,1,0,0,,0,92,92,94,1,,,,,,,,,,,,,,,,,,,
,,,,,,,,,,,,,,,,,,,,,,,,,,,,,,,,,,,,,,,,,,5c0a6c9c886b630001638ba8,6036d8409deb447ce1c51022,2021-02-24_22h51.02.787,Colour_Similarity_Experiment,2020.2.10,MacIntel,60,6036d0d9a84aa1626184a6ef,17.03248529,16.66611348,16.66223611,16.66530367,16.70848066,16.67553348,,,,,,,,,,,,,,,,,,,,PF,strong,3,,,,,,,,7,0.87818,,,,,,,,,,,,,,,,,,,,,,,,,,,,6,strong,35.3671875,106.5898438,1,0,0,response1disk,1,94,15.76953125,-6.07421875,1,0,0,rectangle,15.76953125,-6.07421875,1,0,0,,0,1,0,0.00018,15.76953125,-6.07421875,1,0,0,,0,93,93,5,1,,,,,,,,,,,,,,,,,,,
,,,,,,,,,,,,,,,,,,,,,,,,,,,,,,,,,,,,,,,,,,5c0a6c9c886b630001638ba8,6036d8409deb447ce1c51022,2021-02-24_22h51.02.787,Colour_Similarity_Experiment,2020.2.10,MacIntel,60,6036d0d9a84aa1626184a6ef,17.03248529,16.66611348,16.66223611,16.66530367,16.70848066,16.67553348,,,,,,,,,,,,,,,,,,,,PF,weak,3,,,,,,,,6,0.67254,,,,,,,,,,,,,,,,,,,,,,,,,,,,3,weak,82.58203125,42.0703125,1,0,0,response1disk,8,95,2.66796875,4.5,1,0,0,rectangle,2.66796875,4.5,1,0,0,,0,1,0,0.00019,2.66796875,4.5,1,0,0,,0,94,94,3,1,,,,,,,,,,,,,,,,,,,
,,,,,,,,,,,,,,,,,,,,,,,,,,,,,,,,,,,,,,,,,,5c0a6c9c886b630001638ba8,6036d8409deb447ce1c51022,2021-02-24_22h51.02.787,Colour_Similarity_Experiment,2020.2.10,MacIntel,60,6036d0d9a84aa1626184a6ef,17.03248529,16.66611348,16.66223611,16.66530367,16.70848066,16.67553348,,,,,,,,,,,,,,,,,,,,PF,weak,3,,,,,,,,7,0.649835,,,,,,,,,,,,,,,,,,,,,,,,,,,,6,weak,34.69140625,77.8203125,1,0,0,response1disk,8,96,2.76171875,-9.4140625,1,0,0,rectangle,2.76171875,-9.4140625,1,0,0,,0,6,0,0.00161,2.76171875,-9.4140625,1,0,0,,0,95,95,64,1,,,,,,,,,,,,,,,,,,,
,,,,,,,,,,,,,,,,,,,,,,,,,,,,,,,,,,,,,,,,,,5c0a6c9c886b630001638ba8,6036d8409deb447ce1c51022,2021-02-24_22h51.02.787,Colour_Similarity_Experiment,2020.2.10,MacIntel,60,6036d0d9a84aa1626184a6ef,17.03248529,16.66611348,16.66223611,16.66530367,16.70848066,16.67553348,,,,,,,,,,,,,,,,,,,,PF,weak,3,,,,,,,,6,0.661405,,,,,,,,,,,,,,,,,,,,,,,,,,,,2,weak,57.7109375,42.734375,1,0,0,response1disk,5,97,-0.61328125,3.9375,1,0,0,rectangle,-0.61328125,3.9375,1,0,0,,0,1,0,0.001245,-0.61328125,3.9375,1,0,0,,0,96,96,147,1,,,,,,,,,,,,,,,,,,,
,,,,,,,,,,,,,,,,,,,,,,,,,,,,,,,,,,,,,,,,,,5c0a6c9c886b630001638ba8,6036d8409deb447ce1c51022,2021-02-24_22h51.02.787,Colour_Similarity_Experiment,2020.2.10,MacIntel,60,6036d0d9a84aa1626184a6ef,17.03248529,16.66611348,16.66223611,16.66530367,16.70848066,16.67553348,,,,,,,,,,,,,,,,,,,,PF,strong,3,,,,,,,,7,0.738295,,,,,,,,,,,,,,,,,,,,,,,,,,,,1,strong,19.140625,67.57421875,1,0,0,response1disk,8,98,0.25,0.61328125,1,0,0,rectangle,0.25,0.61328125,1,0,0,,0,6,0,0.001435,0.25,0.61328125,1,0,0,,0,97,97,27,1,,,,,,,,,,,,,,,,,,,
,,,,,,,,,,,,,,,,,,,,,,,,,,,,,,,,,,,,,,,,,,5c0a6c9c886b630001638ba8,6036d8409deb447ce1c51022,2021-02-24_22h51.02.787,Colour_Similarity_Experiment,2020.2.10,MacIntel,60,6036d0d9a84aa1626184a6ef,17.03248529,16.66611348,16.66223611,16.66530367,16.70848066,16.67553348,,,,,,,,,,,,,,,,,,,,PF,weak,3,,,,,,,,7,0.521115,,,,,,,,,,,,,,,,,,,,,,,,,,,,6,weak,42.80859375,100.6679688,1,0,0,response1disk,5,99,8.6796875,8.9375,1,0,0,rectangle,8.6796875,8.9375,1,0,0,,0,7,0,0.001625,8.6796875,8.9375,1,0,0,,0,98,98,59,1,,,,,,,,,,,,,,,,,,,
,,,,,,,,,,,,,,,,,,,,,,,,,,,,,,,,,,,,,,,,,,5c0a6c9c886b630001638ba8,6036d8409deb447ce1c51022,2021-02-24_22h51.02.787,Colour_Similarity_Experiment,2020.2.10,MacIntel,60,6036d0d9a84aa1626184a6ef,17.03248529,16.66611348,16.66223611,16.66530367,16.70848066,16.67553348,,,,,,,,,,,,,,,,,,,,PF,weak,3,,,,,,,,6,0.796315,,,,,,,,,,,,,,,,,,,,,,,,,,,,4,weak,95.515625,60.97265625,1,0,0,response1disk,6,100,22.9921875,9.078125,1,0,0,rectangle,22.9921875,9.078125,1,0,0,,0,6,0,0.001355,22.9921875,9.078125,1,0,0,,0,99,99,120,1,,,,,,,,,,,,,,,,,,,
,,,,,,,,,,,,,,,,,,,,,,,,,,,,,,,,,,,,,,,,,,5c0a6c9c886b630001638ba8,6036d8409deb447ce1c51022,2021-02-24_22h51.02.787,Colour_Similarity_Experiment,2020.2.10,MacIntel,60,6036d0d9a84aa1626184a6ef,17.03248529,16.66611348,16.66223611,16.66530367,16.70848066,16.67553348,,,,,,,,,,,,,,,,,,,,PF,strong,3,,,,,,,,1,1.328365,,,,,,,,,,,,,,,,,,,,,,,,,,,,4,strong,-68.28515625,24.84765625,1,0,0,response7disk,9,101,-9.703125,5.26953125,1,0,0,rectangle,-9.703125,5.26953125,1,0,0,,0,0,0,0.00166,-9.703125,5.26953125,1,0,0,,0,100,100,90,1,,,,,,,,,,,,,,,,,,,
,,,,,,,,,,,,,,,,,,,,,,,,,,,,,,,,,,,,,,,,,,5c0a6c9c886b630001638ba8,6036d8409deb447ce1c51022,2021-02-24_22h51.02.787,Colour_Similarity_Experiment,2020.2.10,MacIntel,60,6036d0d9a84aa1626184a6ef,17.03248529,16.66611348,16.66223611,16.66530367,16.70848066,16.67553348,,,,,,,,,,,,,,,,,,,,PF,strong,3,,,,,,,,6,0.68918,,,,,,,,,,,,,,,,,,,,,,,,,,,,8,strong,66.640625,54.67578125,1,0,0,response1disk,5,102,19.13671875,9.87890625,1,0,0,rectangle,19.13671875,9.87890625,1,0,0,,0,1,0,0.001495,19.13671875,9.87890625,1,0,0,,0,101,101,152,1,,,,,,,,,,,,,,,,,,,
,,,,,,,,,,,,,,,,,,,,,,,,,,,,,,,,,,,,,,,,,,5c0a6c9c886b630001638ba8,6036d8409deb447ce1c51022,2021-02-24_22h51.02.787,Colour_Similarity_Experiment,2020.2.10,MacIntel,60,6036d0d9a84aa1626184a6ef,17.03248529,16.66611348,16.66223611,16.66530367,16.70848066,16.67553348,,,,,,,,,,,,,,,,,,,,PF,strong,3,,,,,,,,7,0.955005,,,,,,,,,,,,,,,,,,,,,,,,,,,,5,strong,46.515625,106.3945313,1,0,0,response1disk,3,103,9.8984375,4.0625,1,0,0,rectangle,9.8984375,4.0625,1,0,0,,0,5,0,0.00142,9.8984375,4.0625,1,0,0,,0,102,102,25,1,,,,,,,,,,,,,,,,,,,
,,,,,,,,,,,,,,,,,,,,,,,,,,,,,,,,,,,,,,,,,,5c0a6c9c886b630001638ba8,6036d8409deb447ce1c51022,2021-02-24_22h51.02.787,Colour_Similarity_Experiment,2020.2.10,MacIntel,60,6036d0d9a84aa1626184a6ef,17.03248529,16.66611348,16.66223611,16.66530367,16.70848066,16.67553348,,,,,,,,,,,,,,,,,,,,PF,strong,3,,,,,,,,2,1.44996,,,,,,,,,,,,,,,,,,,,,,,,,,,,3,strong,-96.8515625,-42.5859375,1,0,0,response5disk,6,104,-9.23828125,10.5546875,1,0,0,rectangle,-9.23828125,10.5546875,1,0,0,,0,7,0,0.00113,-9.23828125,10.5546875,1,0,0,,0,103,103,95,1,,,,,,,,,,,,,,,,,,,
,,,,,,,,,,,,,,,,,,,,,,,,,,,,,,,,,,,,,,,,,,5c0a6c9c886b630001638ba8,6036d8409deb447ce1c51022,2021-02-24_22h51.02.787,Colour_Similarity_Experiment,2020.2.10,MacIntel,60,6036d0d9a84aa1626184a6ef,17.03248529,16.66611348,16.66223611,16.66530367,16.70848066,16.67553348,,,,,,,,,,,,,,,,,,,,PF,strong,3,,,,,,,,6,1.049525,,,,,,,,,,,,,,,,,,,,,,,,,,,,2,strong,52.33203125,40.01953125,1,0,0,response1disk,2,105,2.35546875,11.11328125,1,0,0,rectangle,2.35546875,11.11328125,1,0,0,,0,6,0,0.00098,2.35546875,11.11328125,1,0,0,,0,104,104,142,1,,,,,,,,,,,,,,,,,,,
,,,,,,,,,,,,,,,,,,,,,,,,,,,,,,,,,,,,,,,,,,5c0a6c9c886b630001638ba8,6036d8409deb447ce1c51022,2021-02-24_22h51.02.787,Colour_Similarity_Experiment,2020.2.10,MacIntel,60,6036d0d9a84aa1626184a6ef,17.03248529,16.66611348,16.66223611,16.66530367,16.70848066,16.67553348,,,,,,,,,,,,,,,,,,,,PF,weak,3,,,,,,,,6,1.19478,,,,,,,,,,,,,,,,,,,,,,,,,,,,6,weak,77.44140625,50.6953125,1,0,0,response1disk,6,106,-13.828125,8.5,1,0,0,rectangle,-13.828125,8.5,1,0,0,,0,7,0,0.00132,-13.828125,8.5,1,0,0,,0,105,105,0,1,,,,,,,,,,,,,,,,,,,
,,,,,,,,,,,,,,,,,,,,,,,,,,,,,,,,,,,,,,,,,,5c0a6c9c886b630001638ba8,6036d8409deb447ce1c51022,2021-02-24_22h51.02.787,Colour_Similarity_Experiment,2020.2.10,MacIntel,60,6036d0d9a84aa1626184a6ef,17.03248529,16.66611348,16.66223611,16.66530367,16.70848066,16.67553348,,,,,,,,,,,,,,,,,,,,PF,weak,3,,,,,,,,7,1.848315,,,,,,,,,,,,,,,,,,,,,,,,,,,,2,weak,32.70703125,84.03515625,1,0,0,response1disk,9,107,9.19921875,-4.77734375,1,0,0,rectangle,9.19921875,-4.77734375,1,0,0,,0,4,0,0.001265,9.19921875,-4.77734375,1,0,0,,0,106,106,39,1,,,,,,,,,,,,,,,,,,,
,,,,,,,,,,,,,,,,,,,,,,,,,,,,,,,,,,,,,,,,,,5c0a6c9c886b630001638ba8,6036d8409deb447ce1c51022,2021-02-24_22h51.02.787,Colour_Similarity_Experiment,2020.2.10,MacIntel,60,6036d0d9a84aa1626184a6ef,17.03248529,16.66611348,16.66223611,16.66530367,16.70848066,16.67553348,,,,,,,,,,,,,,,,,,,,PF,strong,3,,,,,,,,5,1.049145,,,,,,,,,,,,,,,,,,,,,,,,,,,,5,strong,64.33984375,-32.65234375,1,0,0,response3disk,1,108,-2.08203125,-7.81640625,1,0,0,rectangle,-2.08203125,-7.81640625,1,0,0,,0,3,0,0.001255,-2.08203125,-7.81640625,1,0,0,,0,107,107,131,1,,,,,,,,,,,,,,,,,,,
,,,,,,,,,,,,,,,,,,,,,,,,,,,,,,,,,,,,,,,,,,5c0a6c9c886b630001638ba8,6036d8409deb447ce1c51022,2021-02-24_22h51.02.787,Colour_Similarity_Experiment,2020.2.10,MacIntel,60,6036d0d9a84aa1626184a6ef,17.03248529,16.66611348,16.66223611,16.66530367,16.70848066,16.67553348,,,,,,,,,,,,,,,,,,,,PF,weak,3,,,,,,,,6,2.215975,,,,,,,,,,,,,,,,,,,,,,,,,,,,3,weak,65.74609375,29.29296875,1,0,0,response1disk,1,109,-10.1015625,6.3515625,1,0,0,rectangle,-10.1015625,6.3515625,1,0,0,,0,5,0,0.001255,-10.1015625,6.3515625,1,0,0,,0,108,108,96,1,,,,,,,,,,,,,,,,,,,
,,,,,,,,,,,,,,,,,,,,,,,,,,,,,,,,,,,,,,,,,,5c0a6c9c886b630001638ba8,6036d8409deb447ce1c51022,2021-02-24_22h51.02.787,Colour_Similarity_Experiment,2020.2.10,MacIntel,60,6036d0d9a84aa1626184a6ef,17.03248529,16.66611348,16.66223611,16.66530367,16.70848066,16.67553348,,,,,,,,,,,,,,,,,,,,PF,strong,3,,,,,,,,0,1.62938,,,,,,,,,,,,,,,,,,,,,,,,,,,,3,strong,-51.19921875,84.27734375,1,0,0,response7disk,3,110,-14.125,7.91015625,1,0,0,rectangle,-14.125,7.91015625,1,0,0,,0,5,0,0.000075,-14.125,7.91015625,1,0,0,,0,109,109,68,1,,,,,,,,,,,,,,,,,,,
,,,,,,,,,,,,,,,,,,,,,,,,,,,,,,,,,,,,,,,,,,5c0a6c9c886b630001638ba8,6036d8409deb447ce1c51022,2021-02-24_22h51.02.787,Colour_Similarity_Experiment,2020.2.10,MacIntel,60,6036d0d9a84aa1626184a6ef,17.03248529,16.66611348,16.66223611,16.66530367,16.70848066,16.67553348,,,,,,,,,,,,,,,,,,,,PF,weak,3,,,,,,,,6,0.932445,,,,,,,,,,,,,,,,,,,,,,,,,,,,1,weak,61.9453125,48.50390625,1,0,0,response1disk,9,111,-12.15625,-9.7421875,1,0,0,rectangle,-12.15625,-9.7421875,1,0,0,,0,5,0,0.0002,-12.15625,-9.7421875,1,0,0,,0,110,110,15,1,,,,,,,,,,,,,,,,,,,
,,,,,,,,,,,,,,,,,,,,,,,,,,,,,,,,,,,,,,,,,,5c0a6c9c886b630001638ba8,6036d8409deb447ce1c51022,2021-02-24_22h51.02.787,Colour_Similarity_Experiment,2020.2.10,MacIntel,60,6036d0d9a84aa1626184a6ef,17.03248529,16.66611348,16.66223611,16.66530367,16.70848066,16.67553348,,,,,,,,,,,,,,,,,,,,PF,strong,3,,,,,,,,6,1.01085,,,,,,,,,,,,,,,,,,,,,,,,,,,,3,strong,108.8671875,52.09375,1,0,0,response1disk,9,112,-20.921875,1.765625,1,0,0,rectangle,-20.921875,1.765625,1,0,0,,0,3,0,0.001395,-20.921875,1.765625,1,0,0,,0,111,111,143,1,,,,,,,,,,,,,,,,,,,
,,,,,,,,,,,,,,,,,,,,,,,,,,,,,,,,,,,,,,,,,,5c0a6c9c886b630001638ba8,6036d8409deb447ce1c51022,2021-02-24_22h51.02.787,Colour_Similarity_Experiment,2020.2.10,MacIntel,60,6036d0d9a84aa1626184a6ef,17.03248529,16.66611348,16.66223611,16.66530367,16.70848066,16.67553348,,,,,,,,,,,,,,,,,,,,PF,weak,3,,,,,,,,6,1.78108,,,,,,,,,,,,,,,,,,,,,,,,,,,,1,weak,62.765625,39.9921875,1,0,0,response1disk,2,113,-11.5078125,-9.37890625,1,0,0,rectangle,-11.5078125,-9.37890625,1,0,0,,0,2,0,0.001035,-11.5078125,-9.37890625,1,0,0,,0,112,112,24,1,,,,,,,,,,,,,,,,,,,
,,,,,,,,,,,,,,,,,,,,,,,,,,,,,,,,,,,,,,,,,,5c0a6c9c886b630001638ba8,6036d8409deb447ce1c51022,2021-02-24_22h51.02.787,Colour_Similarity_Experiment,2020.2.10,MacIntel,60,6036d0d9a84aa1626184a6ef,17.03248529,16.66611348,16.66223611,16.66530367,16.70848066,16.67553348,,,,,,,,,,,,,,,,,,,,PF,strong,3,,,,,,,,6,1.029755,,,,,,,,,,,,,,,,,,,,,,,,,,,,1,strong,56.5390625,43.6484375,1,0,0,response1disk,5,114,-18.015625,-9.9609375,1,0,0,rectangle,-18.015625,-9.9609375,1,0,0,,0,6,0,0.00133,-18.015625,-9.9609375,1,0,0,,0,113,113,82,1,,,,,,,,,,,,,,,,,,,
,,,,,,,,,,,,,,,,,,,,,,,,,,,,,,,,,,,,,,,,,,5c0a6c9c886b630001638ba8,6036d8409deb447ce1c51022,2021-02-24_22h51.02.787,Colour_Similarity_Experiment,2020.2.10,MacIntel,60,6036d0d9a84aa1626184a6ef,17.03248529,16.66611348,16.66223611,16.66530367,16.70848066,16.67553348,,,,,,,,,,,,,,,,,,,,PF,weak,3,,,,,,,,6,1.807845,,,,,,,,,,,,,,,,,,,,,,,,,,,,3,weak,76.93359375,40.68359375,1,0,0,response1disk,7,115,0.30078125,14.62109375,1,0,0,rectangle,0.30078125,14.62109375,1,0,0,,0,5,0,0.001745,0.30078125,14.62109375,1,0,0,,0,114,114,41,1,,,,,,,,,,,,,,,,,,,
,,,,,,,,,,,,,,,,,,,,,,,,,,,,,,,,,,,,,,,,,,5c0a6c9c886b630001638ba8,6036d8409deb447ce1c51022,2021-02-24_22h51.02.787,Colour_Similarity_Experiment,2020.2.10,MacIntel,60,6036d0d9a84aa1626184a6ef,17.03248529,16.66611348,16.66223611,16.66530367,16.70848066,16.67553348,,,,,,,,,,,,,,,,,,,,PF,strong,3,,,,,,,,6,0.896735,,,,,,,,,,,,,,,,,,,,,,,,,,,,8,strong,62.640625,52.30078125,1,0,0,response1disk,9,116,9.83984375,9.5859375,1,0,0,rectangle,9.83984375,9.5859375,1,0,0,,0,6,0,0.001035,9.83984375,9.5859375,1,0,0,,0,115,115,105,1,,,,,,,,,,,,,,,,,,,
,,,,,,,,,,,,,,,,,,,,,,,,,,,,,,,,,,,,,,,,,,5c0a6c9c886b630001638ba8,6036d8409deb447ce1c51022,2021-02-24_22h51.02.787,Colour_Similarity_Experiment,2020.2.10,MacIntel,60,6036d0d9a84aa1626184a6ef,17.03248529,16.66611348,16.66223611,16.66530367,16.70848066,16.67553348,,,,,,,,,,,,,,,,,,,,PF,strong,3,,,,,,,,7,0.76232,,,,,,,,,,,,,,,,,,,,,,,,,,,,6,strong,55.64453125,106.53125,1,0,0,response1disk,5,117,10.34375,10.64453125,1,0,0,rectangle,10.34375,10.64453125,1,0,0,,0,7,0,0.00077,10.34375,10.64453125,1,0,0,,0,116,116,126,1,,,,,,,,,,,,,,,,,,,
,,,,,,,,,,,,,,,,,,,,,,,,,,,,,,,,,,,,,,,,,,5c0a6c9c886b630001638ba8,6036d8409deb447ce1c51022,2021-02-24_22h51.02.787,Colour_Similarity_Experiment,2020.2.10,MacIntel,60,6036d0d9a84aa1626184a6ef,17.03248529,16.66611348,16.66223611,16.66530367,16.70848066,16.67553348,,,,,,,,,,,,,,,,,,,,PF,weak,3,,,,,,,,6,0.761025,,,,,,,,,,,,,,,,,,,,,,,,,,,,6,weak,76.48828125,43.0078125,1,0,0,response1disk,1,118,-4.08203125,9.50390625,1,0,0,rectangle,-4.08203125,9.50390625,1,0,0,,0,7,0,0.000165,-4.08203125,9.50390625,1,0,0,,0,117,117,46,1,,,,,,,,,,,,,,,,,,,
,,,,,,,,,,,,,,,,,,,,,,,,,,,,,,,,,,,,,,,,,,5c0a6c9c886b630001638ba8,6036d8409deb447ce1c51022,2021-02-24_22h51.02.787,Colour_Similarity_Experiment,2020.2.10,MacIntel,60,6036d0d9a84aa1626184a6ef,17.03248529,16.66611348,16.66223611,16.66530367,16.70848066,16.67553348,,,,,,,,,,,,,,,,,,,,PF,weak,3,,,,,,,,6,0.94728,,,,,,,,,,,,,,,,,,,,,,,,,,,,2,weak,98.76171875,52.41015625,1,0,0,response1disk,3,119,11.7890625,9.125,1,0,0,rectangle,11.7890625,9.125,1,0,0,,0,4,0,0.001255,11.7890625,9.125,1,0,0,,0,118,118,69,1,,,,,,,,,,,,,,,,,,,
,,,,,,,,,,,,,,,,,,,,,,,,,,,,,,,,,,,,,,,,,,5c0a6c9c886b630001638ba8,6036d8409deb447ce1c51022,2021-02-24_22h51.02.787,Colour_Similarity_Experiment,2020.2.10,MacIntel,60,6036d0d9a84aa1626184a6ef,17.03248529,16.66611348,16.66223611,16.66530367,16.70848066,16.67553348,,,,,,,,,,,,,,,,,,,,PF,strong,3,,,,,,,,7,1.32342,,,,,,,,,,,,,,,,,,,,,,,,,,,,3,strong,54.64453125,93.33984375,1,0,0,response1disk,1,120,24.9921875,10.4453125,1,0,0,rectangle,24.9921875,10.4453125,1,0,0,,0,0,0,0.001565,24.9921875,10.4453125,1,0,0,,0,119,119,125,1,,,,,,,,,,,,,,,,,,,
,,,,,,,,,,,,,,,,,,,,,,,,,,,,,,,,,,,,,,,,,,5c0a6c9c886b630001638ba8,6036d8409deb447ce1c51022,2021-02-24_22h51.02.787,Colour_Similarity_Experiment,2020.2.10,MacIntel,60,6036d0d9a84aa1626184a6ef,17.03248529,16.66611348,16.66223611,16.66530367,16.70848066,16.67553348,,,,,,,,,,,,,,,,,,,,PF,strong,3,,,,,,,,6,0.91099,,,,,,,,,,,,,,,,,,,,,,,,,,,,4,strong,121.8671875,53.859375,1,0,0,response1disk,5,121,6.51953125,10.2421875,1,0,0,rectangle,6.51953125,10.2421875,1,0,0,,0,6,0,0.001655,6.51953125,10.2421875,1,0,0,,0,120,120,116,1,,,,,,,,,,,,,,,,,,,
,,,,,,,,,,,,,,,,,,,,,,,,,,,,,,,,,,,,,,,,,,5c0a6c9c886b630001638ba8,6036d8409deb447ce1c51022,2021-02-24_22h51.02.787,Colour_Similarity_Experiment,2020.2.10,MacIntel,60,6036d0d9a84aa1626184a6ef,17.03248529,16.66611348,16.66223611,16.66530367,16.70848066,16.67553348,,,,,,,,,,,,,,,,,,,,PF,weak,3,,,,,,,,7,0.961895,,,,,,,,,,,,,,,,,,,,,,,,,,,,1,weak,47.67578125,76.78125,1,0,0,response1disk,4,122,8.16015625,5.3671875,1,0,0,rectangle,8.16015625,5.3671875,1,0,0,,0,0,0,0.00137,8.16015625,5.3671875,1,0,0,,0,121,121,139,1,,,,,,,,,,,,,,,,,,,
,,,,,,,,,,,,,,,,,,,,,,,,,,,,,,,,,,,,,,,,,,5c0a6c9c886b630001638ba8,6036d8409deb447ce1c51022,2021-02-24_22h51.02.787,Colour_Similarity_Experiment,2020.2.10,MacIntel,60,6036d0d9a84aa1626184a6ef,17.03248529,16.66611348,16.66223611,16.66530367,16.70848066,16.67553348,,,,,,,,,,,,,,,,,,,,PF,weak,3,,,,,,,,4,2.274555,,,,,,,,,,,,,,,,,,,,,,,,,,,,9,weak,27.85546875,-71.9609375,1,0,0,response3disk,5,123,21.109375,0.90625,1,0,0,rectangle,21.109375,0.90625,1,0,0,,0,1,0,0.001485,21.109375,0.90625,1,0,0,,0,122,122,134,1,,,,,,,,,,,,,,,,,,,
,,,,,,,,,,,,,,,,,,,,,,,,,,,,,,,,,,,,,,,,,,5c0a6c9c886b630001638ba8,6036d8409deb447ce1c51022,2021-02-24_22h51.02.787,Colour_Similarity_Experiment,2020.2.10,MacIntel,60,6036d0d9a84aa1626184a6ef,17.03248529,16.66611348,16.66223611,16.66530367,16.70848066,16.67553348,,,,,,,,,,,,,,,,,,,,PF,weak,3,,,,,,,,5,1.28789,,,,,,,,,,,,,,,,,,,,,,,,,,,,8,weak,68.984375,-27.234375,1,0,0,response3disk,8,124,18.1640625,-10.71875,1,0,0,rectangle,18.1640625,-10.71875,1,0,0,,0,7,0,0.00121,18.1640625,-10.71875,1,0,0,,0,123,123,153,1,,,,,,,,,,,,,,,,,,,
,,,,,,,,,,,,,,,,,,,,,,,,,,,,,,,,,,,,,,,,,,5c0a6c9c886b630001638ba8,6036d8409deb447ce1c51022,2021-02-24_22h51.02.787,Colour_Similarity_Experiment,2020.2.10,MacIntel,60,6036d0d9a84aa1626184a6ef,17.03248529,16.66611348,16.66223611,16.66530367,16.70848066,16.67553348,,,,,,,,,,,,,,,,,,,,PF,strong,3,,,,,,,,6,1.29654,,,,,,,,,,,,,,,,,,,,,,,,,,,,6,strong,83.0234375,48.484375,1,0,0,response1disk,4,125,1.66796875,-3.59765625,1,0,0,rectangle,1.66796875,-3.59765625,1,0,0,,0,4,0,0.00224,1.66796875,-3.59765625,1,0,0,,0,124,124,56,1,,,,,,,,,,,,,,,,,,,
,,,,,,,,,,,,,,,,,,,,,,,,,,,,,,,,,,,,,,,,,,5c0a6c9c886b630001638ba8,6036d8409deb447ce1c51022,2021-02-24_22h51.02.787,Colour_Similarity_Experiment,2020.2.10,MacIntel,60,6036d0d9a84aa1626184a6ef,17.03248529,16.66611348,16.66223611,16.66530367,16.70848066,16.67553348,,,,,,,,,,,,,,,,,,,,PF,weak,3,,,,,,,,7,1.02281,,,,,,,,,,,,,,,,,,,,,,,,,,,,3,weak,41.9375,70.7421875,1,0,0,response1disk,3,126,-18.46875,-6.52734375,1,0,0,rectangle,-18.46875,-6.52734375,1,0,0,,0,4,0,0.000275,-18.46875,-6.52734375,1,0,0,,0,125,125,4,1,,,,,,,,,,,,,,,,,,,
,,,,,,,,,,,,,,,,,,,,,,,,,,,,,,,,,,,,,,,,,,5c0a6c9c886b630001638ba8,6036d8409deb447ce1c51022,2021-02-24_22h51.02.787,Colour_Similarity_Experiment,2020.2.10,MacIntel,60,6036d0d9a84aa1626184a6ef,17.03248529,16.66611348,16.66223611,16.66530367,16.70848066,16.67553348,,,,,,,,,,,,,,,,,,,,PF,strong,3,,,,,,,,6,2.150295,,,,,,,,,,,,,,,,,,,,,,,,,,,,2,strong,59.81640625,32.453125,1,0,0,response1disk,6,127,-14.27734375,2.50390625,1,0,0,rectangle,-14.27734375,2.50390625,1,0,0,,0,3,0,0.000875,-14.27734375,2.50390625,1,0,0,,0,126,126,40,1,,,,,,,,,,,,,,,,,,,
,,,,,,,,,,,,,,,,,,,,,,,,,,,,,,,,,,,,,,,,,,5c0a6c9c886b630001638ba8,6036d8409deb447ce1c51022,2021-02-24_22h51.02.787,Colour_Similarity_Experiment,2020.2.10,MacIntel,60,6036d0d9a84aa1626184a6ef,17.03248529,16.66611348,16.66223611,16.66530367,16.70848066,16.67553348,,,,,,,,,,,,,,,,,,,,PF,weak,3,,,,,,,,6,0.898005,,,,,,,,,,,,,,,,,,,,,,,,,,,,5,weak,80.890625,37.35546875,1,0,0,response1disk,7,128,-14.88671875,-3.390625,1,0,0,rectangle,-14.88671875,-3.390625,1,0,0,,0,7,0,0.00123,-14.88671875,-3.390625,1,0,0,,0,127,127,146,1,,,,,,,,,,,,,,,,,,,
,,,,,,,,,,,,,,,,,,,,,,,,,,,,,,,,,,,,,,,,,,5c0a6c9c886b630001638ba8,6036d8409deb447ce1c51022,2021-02-24_22h51.02.787,Colour_Similarity_Experiment,2020.2.10,MacIntel,60,6036d0d9a84aa1626184a6ef,17.03248529,16.66611348,16.66223611,16.66530367,16.70848066,16.67553348,,,,,,,,,,,,,,,,,,,,PF,weak,3,,,,,,,,6,0.682145,,,,,,,,,,,,,,,,,,,,,,,,,,,,3,weak,86.953125,20.18359375,1,0,0,response1disk,6,129,5.0859375,3.69921875,1,0,0,rectangle,5.0859375,3.69921875,1,0,0,,0,0,0,0.005095,5.0859375,3.69921875,1,0,0,,0,128,128,47,1,,,,,,,,,,,,,,,,,,,
,,,,,,,,,,,,,,,,,,,,,,,,,,,,,,,,,,,,,,,,,,5c0a6c9c886b630001638ba8,6036d8409deb447ce1c51022,2021-02-24_22h51.02.787,Colour_Similarity_Experiment,2020.2.10,MacIntel,60,6036d0d9a84aa1626184a6ef,17.03248529,16.66611348,16.66223611,16.66530367,16.70848066,16.67553348,,,,,,,,,,,,,,,,,,,,PF,strong,3,,,,,,,,3,0.903635,,,,,,,,,,,,,,,,,,,,,,,,,,,,5,strong,-48.94140625,-65.98046875,1,0,0,response5disk,6,130,9.75390625,3.56640625,1,0,0,rectangle,9.75390625,3.56640625,1,0,0,,0,0,0,0.00019,9.75390625,3.56640625,1,0,0,,0,129,129,12,1,,,,,,,,,,,,,,,,,,,
,,,,,,,,,,,,,,,,,,,,,,,,,,,,,,,,,,,,,,,,,,5c0a6c9c886b630001638ba8,6036d8409deb447ce1c51022,2021-02-24_22h51.02.787,Colour_Similarity_Experiment,2020.2.10,MacIntel,60,6036d0d9a84aa1626184a6ef,17.03248529,16.66611348,16.66223611,16.66530367,16.70848066,16.67553348,,,,,,,,,,,,,,,,,,,,PF,weak,3,,,,,,,,4,0.823075,,,,,,,,,,,,,,,,,,,,,,,,,,,,3,weak,29.1484375,-70.3984375,1,0,0,response3disk,9,131,6.53515625,-11.90234375,1,0,0,rectangle,6.53515625,-11.90234375,1,0,0,,0,3,0,0.00144,6.53515625,-11.90234375,1,0,0,,0,130,130,79,1,,,,,,,,,,,,,,,,,,,
,,,,,,,,,,,,,,,,,,,,,,,,,,,,,,,,,,,,,,,,,,5c0a6c9c886b630001638ba8,6036d8409deb447ce1c51022,2021-02-24_22h51.02.787,Colour_Similarity_Experiment,2020.2.10,MacIntel,60,6036d0d9a84aa1626184a6ef,17.03248529,16.66611348,16.66223611,16.66530367,16.70848066,16.67553348,,,,,,,,,,,,,,,,,,,,PF,strong,3,,,,,,,,7,1.021375,,,,,,,,,,,,,,,,,,,,,,,,,,,,9,strong,73.78515625,89.9453125,1,0,0,response1disk,4,132,12.0703125,2.44921875,1,0,0,rectangle,12.0703125,2.44921875,1,0,0,,0,5,0,0.001385,12.0703125,2.44921875,1,0,0,,0,131,131,60,1,,,,,,,,,,,,,,,,,,,
,,,,,,,,,,,,,,,,,,,,,,,,,,,,,,,,,,,,,,,,,,5c0a6c9c886b630001638ba8,6036d8409deb447ce1c51022,2021-02-24_22h51.02.787,Colour_Similarity_Experiment,2020.2.10,MacIntel,60,6036d0d9a84aa1626184a6ef,17.03248529,16.66611348,16.66223611,16.66530367,16.70848066,16.67553348,,,,,,,,,,,,,,,,,,,,PF,strong,3,,,,,,,,7,1.09485,,,,,,,,,,,,,,,,,,,,,,,,,,,,9,strong,67.8203125,106.4257813,1,0,0,response1disk,8,133,3.71484375,1.734375,1,0,0,rectangle,3.71484375,1.734375,1,0,0,,0,7,0,0.00118,3.71484375,1.734375,1,0,0,,0,132,132,6,1,,,,,,,,,,,,,,,,,,,
,,,,,,,,,,,,,,,,,,,,,,,,,,,,,,,,,,,,,,,,,,5c0a6c9c886b630001638ba8,6036d8409deb447ce1c51022,2021-02-24_22h51.02.787,Colour_Similarity_Experiment,2020.2.10,MacIntel,60,6036d0d9a84aa1626184a6ef,17.03248529,16.66611348,16.66223611,16.66530367,16.70848066,16.67553348,,,,,,,,,,,,,,,,,,,,PF,weak,3,,,,,,,,7,0.65535,,,,,,,,,,,,,,,,,,,,,,,,,,,,4,weak,45.00390625,104.6796875,1,0,0,response1disk,2,134,1.69140625,-6.6484375,1,0,0,rectangle,1.69140625,-6.6484375,1,0,0,,0,0,0,0.000925,1.69140625,-6.6484375,1,0,0,,0,133,133,108,1,,,,,,,,,,,,,,,,,,,
,,,,,,,,,,,,,,,,,,,,,,,,,,,,,,,,,,,,,,,,,,5c0a6c9c886b630001638ba8,6036d8409deb447ce1c51022,2021-02-24_22h51.02.787,Colour_Similarity_Experiment,2020.2.10,MacIntel,60,6036d0d9a84aa1626184a6ef,17.03248529,16.66611348,16.66223611,16.66530367,16.70848066,16.67553348,,,,,,,,,,,,,,,,,,,,PF,strong,3,,,,,,,,7,0.838385,,,,,,,,,,,,,,,,,,,,,,,,,,,,2,strong,34.36328125,75.89453125,1,0,0,response1disk,5,135,-7.1328125,2.0625,1,0,0,rectangle,-7.1328125,2.0625,1,0,0,,0,2,0,0.00149,-7.1328125,2.0625,1,0,0,,0,134,134,80,1,,,,,,,,,,,,,,,,,,,
,,,,,,,,,,,,,,,,,,,,,,,,,,,,,,,,,,,,,,,,,,5c0a6c9c886b630001638ba8,6036d8409deb447ce1c51022,2021-02-24_22h51.02.787,Colour_Similarity_Experiment,2020.2.10,MacIntel,60,6036d0d9a84aa1626184a6ef,17.03248529,16.66611348,16.66223611,16.66530367,16.70848066,16.67553348,,,,,,,,,,,,,,,,,,,,PF,strong,3,,,,,,,,6,1.16446,,,,,,,,,,,,,,,,,,,,,,,,,,,,8,strong,73.2109375,37.7421875,1,0,0,response1disk,1,136,-4.20703125,4.66796875,1,0,0,rectangle,-4.20703125,4.66796875,1,0,0,,0,2,0,0.000385,-4.20703125,4.66796875,1,0,0,,0,135,135,20,1,,,,,,,,,,,,,,,,,,,
,,,,,,,,,,,,,,,,,,,,,,,,,,,,,,,,,,,,,,,,,,5c0a6c9c886b630001638ba8,6036d8409deb447ce1c51022,2021-02-24_22h51.02.787,Colour_Similarity_Experiment,2020.2.10,MacIntel,60,6036d0d9a84aa1626184a6ef,17.03248529,16.66611348,16.66223611,16.66530367,16.70848066,16.67553348,,,,,,,,,,,,,,,,,,,,PF,weak,3,,,,,,,,6,0.79658,,,,,,,,,,,,,,,,,,,,,,,,,,,,7,weak,99.32421875,43.2890625,1,0,0,response1disk,1,137,-5.1328125,4.4765625,1,0,0,rectangle,-5.1328125,4.4765625,1,0,0,,0,3,0,0.00148,-5.1328125,4.4765625,1,0,0,,0,136,136,53,1,,,,,,,,,,,,,,,,,,,
,,,,,,,,,,,,,,,,,,,,,,,,,,,,,,,,,,,,,,,,,,5c0a6c9c886b630001638ba8,6036d8409deb447ce1c51022,2021-02-24_22h51.02.787,Colour_Similarity_Experiment,2020.2.10,MacIntel,60,6036d0d9a84aa1626184a6ef,17.03248529,16.66611348,16.66223611,16.66530367,16.70848066,16.67553348,,,,,,,,,,,,,,,,,,,,PF,weak,3,,,,,,,,7,0.695815,,,,,,,,,,,,,,,,,,,,,,,,,,,,5,weak,76.97265625,91.56640625,1,0,0,response1disk,1,138,17.82421875,6.43359375,1,0,0,rectangle,-42.4375,87.08203125,1,0,0,response7disk_3,0,0,1,2.283335,-8.015625,15.90625,1,0,0,rectangle,0,137,137,159,1,,,,,,,,,,,,,,,,,,,
,,,,,,,,,,,,,,,,,,,,,,,,,,,,,,,,,,,,,,,,,,5c0a6c9c886b630001638ba8,6036d8409deb447ce1c51022,2021-02-24_22h51.02.787,Colour_Similarity_Experiment,2020.2.10,MacIntel,60,6036d0d9a84aa1626184a6ef,17.03248529,16.66611348,16.66223611,16.66530367,16.70848066,16.67553348,,,,,,,,,,,,,,,,,,,,PF,strong,3,,,,,,,,7,0.6881,,,,,,,,,,,,,,,,,,,,,,,,,,,,8,strong,18.0546875,68.19140625,1,0,0,response1disk,4,139,1.453125,-15.34765625,1,0,0,rectangle,1.453125,-15.34765625,1,0,0,,0,3,0,0.001455,1.453125,-15.34765625,1,0,0,,0,138,138,88,1,,,,,,,,,,,,,,,,,,,
,,,,,,,,,,,,,,,,,,,,,,,,,,,,,,,,,,,,,,,,,,5c0a6c9c886b630001638ba8,6036d8409deb447ce1c51022,2021-02-24_22h51.02.787,Colour_Similarity_Experiment,2020.2.10,MacIntel,60,6036d0d9a84aa1626184a6ef,17.03248529,16.66611348,16.66223611,16.66530367,16.70848066,16.67553348,,,,,,,,,,,,,,,,,,,,PF,strong,3,,,,,,,,5,1.006815,,,,,,,,,,,,,,,,,,,,,,,,,,,,5,strong,69.546875,-41.421875,1,0,0,response3disk,4,140,-0.23828125,-0.5,1,0,0,rectangle,-0.23828125,-0.5,1,0,0,,0,0,0,0.001055,-0.23828125,-0.5,1,0,0,,0,139,139,8,1,,,,,,,,,,,,,,,,,,,
,,,,,,,,,,,,,,,,,,,,,,,,,,,,,,,,,,,,,,,,,,5c0a6c9c886b630001638ba8,6036d8409deb447ce1c51022,2021-02-24_22h51.02.787,Colour_Similarity_Experiment,2020.2.10,MacIntel,60,6036d0d9a84aa1626184a6ef,17.03248529,16.66611348,16.66223611,16.66530367,16.70848066,16.67553348,,,,,,,,,,,,,,,,,,,,PF,weak,3,,,,,,,,7,0.793935,,,,,,,,,,,,,,,,,,,,,,,,,,,,8,weak,39.33984375,74.65234375,1,0,0,response1disk,5,141,4.5546875,-0.76953125,1,0,0,rectangle,4.5546875,-0.76953125,1,0,0,,0,7,0,0.00104,4.5546875,-0.76953125,1,0,0,,0,140,140,98,1,,,,,,,,,,,,,,,,,,,
,,,,,,,,,,,,,,,,,,,,,,,,,,,,,,,,,,,,,,,,,,5c0a6c9c886b630001638ba8,6036d8409deb447ce1c51022,2021-02-24_22h51.02.787,Colour_Similarity_Experiment,2020.2.10,MacIntel,60,6036d0d9a84aa1626184a6ef,17.03248529,16.66611348,16.66223611,16.66530367,16.70848066,16.67553348,,,,,,,,,,,,,,,,,,,,PF,weak,3,,,,,,,,1,1.5898,,,,,,,,,,,,,,,,,,,,,,,,,,,,8,weak,-77.1875,51.2890625,1,0,0,response7disk,2,142,-12.47265625,-0.90234375,1,0,0,rectangle,-12.47265625,-0.90234375,1,0,0,,0,6,0,0.00136,-12.47265625,-0.90234375,1,0,0,,0,141,141,83,1,,,,,,,,,,,,,,,,,,,
,,,,,,,,,,,,,,,,,,,,,,,,,,,,,,,,,,,,,,,,,,5c0a6c9c886b630001638ba8,6036d8409deb447ce1c51022,2021-02-24_22h51.02.787,Colour_Similarity_Experiment,2020.2.10,MacIntel,60,6036d0d9a84aa1626184a6ef,17.03248529,16.66611348,16.66223611,16.66530367,16.70848066,16.67553348,,,,,,,,,,,,,,,,,,,,PF,weak,3,,,,,,,,6,1.2876,,,,,,,,,,,,,,,,,,,,,,,,,,,,6,weak,57.96875,38.671875,1,0,0,response1disk,9,143,-8.58984375,-1.81640625,1,0,0,rectangle,-8.58984375,-1.81640625,1,0,0,,0,4,0,0.00126,-8.58984375,-1.81640625,1,0,0,,0,142,142,45,1,,,,,,,,,,,,,,,,,,,
,,,,,,,,,,,,,,,,,,,,,,,,,,,,,,,,,,,,,,,,,,5c0a6c9c886b630001638ba8,6036d8409deb447ce1c51022,2021-02-24_22h51.02.787,Colour_Similarity_Experiment,2020.2.10,MacIntel,60,6036d0d9a84aa1626184a6ef,17.03248529,16.66611348,16.66223611,16.66530367,16.70848066,16.67553348,,,,,,,,,,,,,,,,,,,,PF,strong,3,,,,,,,,7,1.250515,,,,,,,,,,,,,,,,,,,,,,,,,,,,3,strong,37.80859375,84.8203125,1,0,0,response1disk,4,144,-8.3046875,-9.265625,1,0,0,rectangle,-8.3046875,-9.265625,1,0,0,,0,6,0,0.00143,-8.3046875,-9.265625,1,0,0,,0,143,143,110,1,,,,,,,,,,,,,,,,,,,
,,,,,,,,,,,,,,,,,,,,,,,,,,,,,,,,,,,,,,,,,,5c0a6c9c886b630001638ba8,6036d8409deb447ce1c51022,2021-02-24_22h51.02.787,Colour_Similarity_Experiment,2020.2.10,MacIntel,60,6036d0d9a84aa1626184a6ef,17.03248529,16.66611348,16.66223611,16.66530367,16.70848066,16.67553348,,,,,,,,,,,,,,,,,,,,PF,strong,3,,,,,,,,6,1.039465,,,,,,,,,,,,,,,,,,,,,,,,,,,,2,strong,73.2890625,26.734375,1,0,0,response1disk,3,145,-14.0234375,5.16015625,1,0,0,rectangle,-43.1640625,-87.234375,1,0,0,response5disk_3,3,3,1,2.2335,-13.1328125,0.17578125,1,0,0,rectangle,0,144,144,104,1,,,,,,,,,,,,,,,,,,,
,,,,,,,,,,,,,,,,,,,,,,,,,,,,,,,,,,,,,,,,,,5c0a6c9c886b630001638ba8,6036d8409deb447ce1c51022,2021-02-24_22h51.02.787,Colour_Similarity_Experiment,2020.2.10,MacIntel,60,6036d0d9a84aa1626184a6ef,17.03248529,16.66611348,16.66223611,16.66530367,16.70848066,16.67553348,,,,,,,,,,,,,,,,,,,,PF,weak,3,,,,,,,,7,0.82106,,,,,,,,,,,,,,,,,,,,,,,,,,,,7,weak,39.578125,96.015625,1,0,0,response1disk,7,146,-2.84765625,-14.94140625,1,0,0,rectangle,-2.84765625,-14.94140625,1,0,0,,3,6,0,0.00128,-2.84765625,-14.94140625,1,0,0,,0,145,145,51,1,,,,,,,,,,,,,,,,,,,
,,,,,,,,,,,,,,,,,,,,,,,,,,,,,,,,,,,,,,,,,,5c0a6c9c886b630001638ba8,6036d8409deb447ce1c51022,2021-02-24_22h51.02.787,Colour_Similarity_Experiment,2020.2.10,MacIntel,60,6036d0d9a84aa1626184a6ef,17.03248529,16.66611348,16.66223611,16.66530367,16.70848066,16.67553348,,,,,,,,,,,,,,,,,,,,PF,weak,3,,,,,,,,6,0.63826,,,,,,,,,,,,,,,,,,,,,,,,,,,,2,weak,85.703125,48.05859375,1,0,0,response1disk,6,147,-7.078125,-2.2734375,1,0,0,rectangle,-7.078125,-2.2734375,1,0,0,,3,2,0,0.000935,-7.078125,-2.2734375,1,0,0,,0,146,146,113,1,,,,,,,,,,,,,,,,,,,
,,,,,,,,,,,,,,,,,,,,,,,,,,,,,,,,,,,,,,,,,,5c0a6c9c886b630001638ba8,6036d8409deb447ce1c51022,2021-02-24_22h51.02.787,Colour_Similarity_Experiment,2020.2.10,MacIntel,60,6036d0d9a84aa1626184a6ef,17.03248529,16.66611348,16.66223611,16.66530367,16.70848066,16.67553348,,,,,,,,,,,,,,,,,,,,PF,strong,3,,,,,,,,7,0.951125,,,,,,,,,,,,,,,,,,,,,,,,,,,,3,strong,62.32421875,78.51953125,1,0,0,response1disk,2,148,7.12109375,9.4765625,1,0,0,rectangle,7.12109375,9.4765625,1,0,0,,3,0,0,0.00135,7.12109375,9.4765625,1,0,0,,0,147,147,93,1,,,,,,,,,,,,,,,,,,,
,,,,,,,,,,,,,,,,,,,,,,,,,,,,,,,,,,,,,,,,,,5c0a6c9c886b630001638ba8,6036d8409deb447ce1c51022,2021-02-24_22h51.02.787,Colour_Similarity_Experiment,2020.2.10,MacIntel,60,6036d0d9a84aa1626184a6ef,17.03248529,16.66611348,16.66223611,16.66530367,16.70848066,16.67553348,,,,,,,,,,,,,,,,,,,,PF,weak,3,,,,,,,,7,0.655775,,,,,,,,,,,,,,,,,,,,,,,,,,,,8,weak,41.9765625,95.734375,1,0,0,response1disk,1,149,2.796875,6.5,1,0,0,rectangle,2.796875,6.5,1,0,0,,3,3,0,0.001435,2.796875,6.5,1,0,0,,0,148,148,57,1,,,,,,,,,,,,,,,,,,,
,,,,,,,,,,,,,,,,,,,,,,,,,,,,,,,,,,,,,,,,,,5c0a6c9c886b630001638ba8,6036d8409deb447ce1c51022,2021-02-24_22h51.02.787,Colour_Similarity_Experiment,2020.2.10,MacIntel,60,6036d0d9a84aa1626184a6ef,17.03248529,16.66611348,16.66223611,16.66530367,16.70848066,16.67553348,,,,,,,,,,,,,,,,,,,,PF,weak,3,,,,,,,,6,0.932,,,,,,,,,,,,,,,,,,,,,,,,,,,,5,weak,78.83203125,41.625,1,0,0,response1disk,2,150,12.13671875,6.72265625,1,0,0,rectangle,12.13671875,6.72265625,1,0,0,,3,2,0,0.001495,12.13671875,6.72265625,1,0,0,,0,149,149,129,1,,,,,,,,,,,,,,,,,,,
,,,,,,,,,,,,,,,,,,,,,,,,,,,,,,,,,,,,,,,,,,5c0a6c9c886b630001638ba8,6036d8409deb447ce1c51022,2021-02-24_22h51.02.787,Colour_Similarity_Experiment,2020.2.10,MacIntel,60,6036d0d9a84aa1626184a6ef,17.03248529,16.66611348,16.66223611,16.66530367,16.70848066,16.67553348,,,,,,,,,,,,,,,,,,,,PF,strong,3,,,,,,,,7,2.05652,,,,,,,,,,,,,,,,,,,,,,,,,,,,9,strong,31.74609375,88.578125,1,0,0,response1disk,9,151,21.78125,-4.13671875,1,0,0,rectangle,21.78125,-4.13671875,1,0,0,,3,1,0,0.00124,21.78125,-4.13671875,1,0,0,,0,150,150,17,1,,,,,,,,,,,,,,,,,,,
,,,,,,,,,,,,,,,,,,,,,,,,,,,,,,,,,,,,,,,,,,5c0a6c9c886b630001638ba8,6036d8409deb447ce1c51022,2021-02-24_22h51.02.787,Colour_Similarity_Experiment,2020.2.10,MacIntel,60,6036d0d9a84aa1626184a6ef,17.03248529,16.66611348,16.66223611,16.66530367,16.70848066,16.67553348,,,,,,,,,,,,,,,,,,,,PF,weak,3,,,,,,,,7,1.06866,,,,,,,,,,,,,,,,,,,,,,,,,,,,1,weak,47.7578125,107.0039063,1,0,0,response1disk,8,152,13.34375,9.8359375,1,0,0,rectangle,13.34375,9.8359375,1,0,0,,3,0,0,0.001245,13.34375,9.8359375,1,0,0,,0,151,151,65,1,,,,,,,,,,,,,,,,,,,
,,,,,,,,,,,,,,,,,,,,,,,,,,,,,,,,,,,,,,,,,,5c0a6c9c886b630001638ba8,6036d8409deb447ce1c51022,2021-02-24_22h51.02.787,Colour_Similarity_Experiment,2020.2.10,MacIntel,60,6036d0d9a84aa1626184a6ef,17.03248529,16.66611348,16.66223611,16.66530367,16.70848066,16.67553348,,,,,,,,,,,,,,,,,,,,PF,weak,3,,,,,,,,6,0.93304,,,,,,,,,,,,,,,,,,,,,,,,,,,,7,weak,80.80859375,44.05078125,1,0,0,response1disk,9,153,24.26171875,13.57421875,1,0,0,rectangle,24.26171875,13.57421875,1,0,0,,3,5,0,0.001035,24.26171875,13.57421875,1,0,0,,0,152,152,10,1,,,,,,,,,,,,,,,,,,,
,,,,,,,,,,,,,,,,,,,,,,,,,,,,,,,,,,,,,,,,,,5c0a6c9c886b630001638ba8,6036d8409deb447ce1c51022,2021-02-24_22h51.02.787,Colour_Similarity_Experiment,2020.2.10,MacIntel,60,6036d0d9a84aa1626184a6ef,17.03248529,16.66611348,16.66223611,16.66530367,16.70848066,16.67553348,,,,,,,,,,,,,,,,,,,,PF,strong,3,,,,,,,,3,1.38135,,,,,,,,,,,,,,,,,,,,,,,,,,,,7,strong,-31.4921875,-51.82421875,1,0,0,response5disk,5,154,2.515625,-2.015625,1,0,0,rectangle,2.515625,-2.015625,1,0,0,,3,3,0,0.001195,2.515625,-2.015625,1,0,0,,0,153,153,156,1,,,,,,,,,,,,,,,,,,,
,,,,,,,,,,,,,,,,,,,,,,,,,,,,,,,,,,,,,,,,,,5c0a6c9c886b630001638ba8,6036d8409deb447ce1c51022,2021-02-24_22h51.02.787,Colour_Similarity_Experiment,2020.2.10,MacIntel,60,6036d0d9a84aa1626184a6ef,17.03248529,16.66611348,16.66223611,16.66530367,16.70848066,16.67553348,,,,,,,,,,,,,,,,,,,,PF,weak,3,,,,,,,,7,1.001495,,,,,,,,,,,,,,,,,,,,,,,,,,,,2,weak,43.29296875,85.6875,1,0,0,response1disk,8,155,23.31640625,8.44921875,1,0,0,rectangle,23.31640625,8.44921875,1,0,0,,3,0,0,0.002875,23.31640625,8.44921875,1,0,0,,0,154,154,52,1,,,,,,,,,,,,,,,,,,,
,,,,,,,,,,,,,,,,,,,,,,,,,,,,,,,,,,,,,,,,,,5c0a6c9c886b630001638ba8,6036d8409deb447ce1c51022,2021-02-24_22h51.02.787,Colour_Similarity_Experiment,2020.2.10,MacIntel,60,6036d0d9a84aa1626184a6ef,17.03248529,16.66611348,16.66223611,16.66530367,16.70848066,16.67553348,,,,,,,,,,,,,,,,,,,,PF,strong,3,,,,,,,,6,0.9453,,,,,,,,,,,,,,,,,,,,,,,,,,,,4,strong,92.16015625,51.29296875,1,0,0,response1disk,6,156,-11.73046875,-9.15234375,1,0,0,rectangle,-11.73046875,-9.15234375,1,0,0,,3,5,0,0.00198,-11.73046875,-9.15234375,1,0,0,,0,155,155,122,1,,,,,,,,,,,,,,,,,,,
,,,,,,,,,,,,,,,,,,,,,,,,,,,,,,,,,,,,,,,,,,5c0a6c9c886b630001638ba8,6036d8409deb447ce1c51022,2021-02-24_22h51.02.787,Colour_Similarity_Experiment,2020.2.10,MacIntel,60,6036d0d9a84aa1626184a6ef,17.03248529,16.66611348,16.66223611,16.66530367,16.70848066,16.67553348,,,,,,,,,,,,,,,,,,,,PF,weak,3,,,,,,,,6,0.75094,,,,,,,,,,,,,,,,,,,,,,,,,,,,5,weak,79.51171875,24.2890625,1,0,0,response1disk,4,157,-23.0078125,-10.96875,1,0,0,rectangle,-23.0078125,-10.96875,1,0,0,,3,2,0,0.003045,-23.0078125,-10.96875,1,0,0,,0,156,156,54,1,,,,,,,,,,,,,,,,,,,
,,,,,,,,,,,,,,,,,,,,,,,,,,,,,,,,,,,,,,,,,,5c0a6c9c886b630001638ba8,6036d8409deb447ce1c51022,2021-02-24_22h51.02.787,Colour_Similarity_Experiment,2020.2.10,MacIntel,60,6036d0d9a84aa1626184a6ef,17.03248529,16.66611348,16.66223611,16.66530367,16.70848066,16.67553348,,,,,,,,,,,,,,,,,,,,PF,strong,3,,,,,,,,7,0.899315,,,,,,,,,,,,,,,,,,,,,,,,,,,,6,strong,28.359375,80.24609375,1,0,0,response1disk,2,158,8.29296875,7.01953125,1,0,0,rectangle,8.29296875,7.01953125,1,0,0,,3,6,0,0.00233,8.29296875,7.01953125,1,0,0,,0,157,157,112,1,,,,,,,,,,,,,,,,,,,
,,,,,,,,,,,,,,,,,,,,,,,,,,,,,,,,,,,,,,,,,,5c0a6c9c886b630001638ba8,6036d8409deb447ce1c51022,2021-02-24_22h51.02.787,Colour_Similarity_Experiment,2020.2.10,MacIntel,60,6036d0d9a84aa1626184a6ef,17.03248529,16.66611348,16.66223611,16.66530367,16.70848066,16.67553348,,,,,,,,,,,,,,,,,,,,PF,strong,3,,,,,,,,7,1.061975,,,,,,,,,,,,,,,,,,,,,,,,,,,,7,strong,58.3671875,84.0703125,1,0,0,response1disk,3,159,29.26953125,0.71875,1,0,0,rectangle,29.26953125,0.71875,1,0,0,,3,1,0,0.001335,29.26953125,0.71875,1,0,0,,0,158,158,73,1,,,,,,,,,,,,,,,,,,,
,,,,,,,,,,,,,,,,,,,,,,,,,,,,,,,,,,,,,,,,,,5c0a6c9c886b630001638ba8,6036d8409deb447ce1c51022,2021-02-24_22h51.02.787,Colour_Similarity_Experiment,2020.2.10,MacIntel,60,6036d0d9a84aa1626184a6ef,17.03248529,16.66611348,16.66223611,16.66530367,16.70848066,16.67553348,,,,,,,,,,,,,,,,,,,,PF,weak,3,,,,,,,,7,0.91567,,,,,,,,,,,,,,,,,,,,,,,,,,,,4,weak,51.60546875,85.953125,1,0,0,response1disk,9,160,19.7734375,-1.3125,1,0,0,rectangle,19.7734375,-1.3125,1,0,0,,3,0,0,0.001515,19.7734375,-1.3125,1,0,0,,0,159,159,75,1,,,,,,,,,,,,,,,,,,,
,,,,,,,,,,,,,,,,,,,,,,,,,,,,,,,,,,,,,,,,,,5c0a6c9c886b630001638ba8,6036d8409deb447ce1c51022,2021-02-24_22h51.02.787,Colour_Similarity_Experiment,2020.2.10,MacIntel,60,6036d0d9a84aa1626184a6ef,17.03248529,16.66611348,16.66223611,16.66530367,16.70848066,16.67553348,,,,,,,,,,,,,,,,,,,,PF,weak,3,,,,,,,,6,0.717385,,,,,,,,,,,,,,,,,,,,,,,,,,,,7,weak,83.3203125,40.45703125,1,0,0,response1disk,6,161,5.94140625,3.296875,1,0,0,rectangle,5.94140625,3.296875,1,0,0,,3,6,0,0.001785,5.94140625,3.296875,1,0,0,,0,160,160,29,1,,,,,,,,,,,,,,,,,,,
,,,,,,,,,,,,,,,,,,,,,,,,,,,,,,,,,,,,,,,,,,5c0a6c9c886b630001638ba8,6036d8409deb447ce1c51022,2021-02-24_22h51.02.787,Colour_Similarity_Experiment,2020.2.10,MacIntel,60,6036d0d9a84aa1626184a6ef,17.03248529,16.66611348,16.66223611,16.66530367,16.70848066,16.67553348,,,,,,,,,,,,,,,,,,,,PF,weak,3,,,,,,,,7,0.78309,,,,,,,,,,,,,,,,,,,,,,,,,,,,9,weak,44.56640625,89.84375,1,0,0,response1disk,2,162,3.890625,-11.49609375,1,0,0,rectangle,3.890625,-11.49609375,1,0,0,,3,7,0,0.001695,3.890625,-11.49609375,1,0,0,,0,161,161,157,1,,,,,,,,,,,,,,,,,,,
,,,,,,,,,,,,,,,,,,,,,,,,,,,,,,,,,,,,,,,,,,5c0a6c9c886b630001638ba8,6036d8409deb447ce1c51022,2021-02-24_22h51.02.787,Colour_Similarity_Experiment,2020.2.10,MacIntel,60,6036d0d9a84aa1626184a6ef,17.03248529,16.66611348,16.66223611,16.66530367,16.70848066,16.67553348,,,,,,,,,,,,,,,,,,,,,,,,,,,,,,,,,,,,,,,,,,,,,,,,,,,,,,,,,,,,,,,,,,,,,,,,,,,,,,,,,,,,,,,,,,,,,,,,0,0,0,0,1,,,,,,,,,,,,,,
,,,,,,,,,,,,,,,,,,,,,,,,,,,,,,,,,,,,,,,,,,5c0a6c9c886b630001638ba8,6036d8409deb447ce1c51022,2021-02-24_22h51.02.787,Colour_Similarity_Experiment,2020.2.10,MacIntel,60,6036d0d9a84aa1626184a6ef,17.03248529,16.66611348,16.66223611,16.66530367,16.70848066,16.67553348,,,,,,,,,,,,,,,,,,,,PF,weak,3,,,,,,,,7,0.57059,,,,,,,,,,,,,,,,,,,,,,,,,,,,3,weak,45.25,88.21484375,1,0,0,response1disk,2,163,30.9765625,-3.5,1,0,0,rectangle,102.3945313,39.51953125,1,0,0,response1disk_3,6,6,1,1.9668,4.41015625,-6.3828125,1,0,0,rectangle,0,0,0,36,1,,,,,,,,,,,,,,,,,,,
,,,,,,,,,,,,,,,,,,,,,,,,,,,,,,,,,,,,,,,,,,5c0a6c9c886b630001638ba8,6036d8409deb447ce1c51022,2021-02-24_22h51.02.787,Colour_Similarity_Experiment,2020.2.10,MacIntel,60,6036d0d9a84aa1626184a6ef,17.03248529,16.66611348,16.66223611,16.66530367,16.70848066,16.67553348,,,,,,,,,,,,,,,,,,,,PF,weak,3,,,,,,,,7,0.98425,,,,,,,,,,,,,,,,,,,,,,,,,,,,5,weak,54.94140625,87.4296875,1,0,0,response1disk,8,164,8.7890625,-11.71484375,1,0,0,rectangle,8.7890625,-11.71484375,1,0,0,,6,1,0,0.00138,8.7890625,-11.71484375,1,0,0,,0,1,1,149,1,,,,,,,,,,,,,,,,,,,
,,,,,,,,,,,,,,,,,,,,,,,,,,,,,,,,,,,,,,,,,,5c0a6c9c886b630001638ba8,6036d8409deb447ce1c51022,2021-02-24_22h51.02.787,Colour_Similarity_Experiment,2020.2.10,MacIntel,60,6036d0d9a84aa1626184a6ef,17.03248529,16.66611348,16.66223611,16.66530367,16.70848066,16.67553348,,,,,,,,,,,,,,,,,,,,PF,weak,3,,,,,,,,6,1.04945,,,,,,,,,,,,,,,,,,,,,,,,,,,,8,weak,69.92578125,51.77734375,1,0,0,response1disk,4,165,-9.90625,9.14453125,1,0,0,rectangle,-9.90625,9.14453125,1,0,0,,6,6,0,0.001455,-9.90625,9.14453125,1,0,0,,0,2,2,78,1,,,,,,,,,,,,,,,,,,,
,,,,,,,,,,,,,,,,,,,,,,,,,,,,,,,,,,,,,,,,,,5c0a6c9c886b630001638ba8,6036d8409deb447ce1c51022,2021-02-24_22h51.02.787,Colour_Similarity_Experiment,2020.2.10,MacIntel,60,6036d0d9a84aa1626184a6ef,17.03248529,16.66611348,16.66223611,16.66530367,16.70848066,16.67553348,,,,,,,,,,,,,,,,,,,,PF,strong,3,,,,,,,,5,1.183255,,,,,,,,,,,,,,,,,,,,,,,,,,,,8,strong,63.82421875,-21.94140625,1,0,0,response3disk,6,166,5.8671875,-3.25390625,1,0,0,rectangle,5.8671875,-3.25390625,1,0,0,,6,6,0,0.000135,5.8671875,-3.25390625,1,0,0,,0,3,3,37,1,,,,,,,,,,,,,,,,,,,
,,,,,,,,,,,,,,,,,,,,,,,,,,,,,,,,,,,,,,,,,,5c0a6c9c886b630001638ba8,6036d8409deb447ce1c51022,2021-02-24_22h51.02.787,Colour_Similarity_Experiment,2020.2.10,MacIntel,60,6036d0d9a84aa1626184a6ef,17.03248529,16.66611348,16.66223611,16.66530367,16.70848066,16.67553348,,,,,,,,,,,,,,,,,,,,PF,weak,3,,,,,,,,6,0.998495,,,,,,,,,,,,,,,,,,,,,,,,,,,,4,weak,84.8984375,28.79296875,1,0,0,response1disk,7,167,-2.88671875,9.87890625,1,0,0,rectangle,-2.88671875,9.87890625,1,0,0,,6,7,0,0.00197,-2.88671875,9.87890625,1,0,0,,0,4,4,38,1,,,,,,,,,,,,,,,,,,,
,,,,,,,,,,,,,,,,,,,,,,,,,,,,,,,,,,,,,,,,,,5c0a6c9c886b630001638ba8,6036d8409deb447ce1c51022,2021-02-24_22h51.02.787,Colour_Similarity_Experiment,2020.2.10,MacIntel,60,6036d0d9a84aa1626184a6ef,17.03248529,16.66611348,16.66223611,16.66530367,16.70848066,16.67553348,,,,,,,,,,,,,,,,,,,,PF,strong,3,,,,,,,,6,1.016745,,,,,,,,,,,,,,,,,,,,,,,,,,,,9,strong,90.265625,57.43359375,1,0,0,response1disk,1,168,-19.28515625,10.7109375,1,0,0,rectangle,-19.28515625,10.7109375,1,0,0,,6,3,0,0.00135,-19.28515625,10.7109375,1,0,0,,0,5,5,111,1,,,,,,,,,,,,,,,,,,,
,,,,,,,,,,,,,,,,,,,,,,,,,,,,,,,,,,,,,,,,,,5c0a6c9c886b630001638ba8,6036d8409deb447ce1c51022,2021-02-24_22h51.02.787,Colour_Similarity_Experiment,2020.2.10,MacIntel,60,6036d0d9a84aa1626184a6ef,17.03248529,16.66611348,16.66223611,16.66530367,16.70848066,16.67553348,,,,,,,,,,,,,,,,,,,,PF,weak,3,,,,,,,,7,1.04958,,,,,,,,,,,,,,,,,,,,,,,,,,,,4,weak,28.82421875,76.65625,1,0,0,response1disk,3,169,6.4453125,15.5390625,1,0,0,rectangle,6.4453125,15.5390625,1,0,0,,6,4,0,0.000865,6.4453125,15.5390625,1,0,0,,0,6,6,89,1,,,,,,,,,,,,,,,,,,,
