key_resp.keys,key_resp.rt,key_resp_16.keys,key_resp_16.rt,key_resp_2.keys,key_resp_2.rt,X Scale,ratio_pxpermm,screen_size_x,screen_size_y,testsize,key_resp_3.keys,key_resp_4.keys,key_resp_4.rt,line_size,key_resp_5.keys,key_resp_5.rt,key_resp_6.keys,key_resp_6.rt,key_resp_8.keys,key_resp_8.rt,key_resp_7.keys,key_resp_7.rt,key_resp_12.keys,key_resp_12.rt,key_resp_11.keys,key_resp_11.rt,key_resp_18.keys,key_resp_18.rt,key_resp_21.keys,key_resp_21.rt,key_resp_13.keys,key_resp_13.rt,key_resp_19.keys,key_resp_19.rt,ballposx,viewer_distance,trials.thisRepN,trials.thisTrialN,trials.thisN,trials.thisIndex,trials.ran,participant,session,date,expName,psychopyVersion,OS,frameRate,study_id,realFrameRate1,realFrameRate2,realFrameRate3,realFrameRate4,realFrameRate5,realFrameRate,viewerdistancecm,DVA_to_distance,radius_F,radius_P,r_F,R_P,key_resp_20.keys,key_resp_20.rt,key_resp_14.keys,key_resp_14.rt,key_resp_15.keys,key_resp_15.rt,key_resp_17.keys,key_resp_17.rt,key_resp_9.keys,key_resp_9.rt,key_resp_10.keys,key_resp_10.rt,Colour_1,Ecc,maskCon,mask_frames,mouse_5.x,mouse_5.y,mouse_5.leftButton,mouse_5.midButton,mouse_5.rightButton,mouse_5.clicked_name,Colour_2,similarity,response_time,mouse_10.x,mouse_10.y,mouse_10.leftButton,mouse_10.midButton,mouse_10.rightButton,mouse_10.clicked_name,mouse_7.x,mouse_7.y,mouse_7.leftButton,mouse_7.midButton,mouse_7.rightButton,catchnumberprac,mouse_6.x,mouse_6.y,mouse_6.leftButton,mouse_6.midButton,mouse_6.rightButton,duringprac.thisRepN,duringprac.thisTrialN,duringprac.thisN,duringprac.thisIndex,duringprac.ran,mouse_7.clicked_name,catchprac,mouse_6.clicked_name,key_resp_22.keys,key_resp_22.rt,Colour1,maskCon1,mouse.x,mouse.y,mouse.leftButton,mouse.midButton,mouse.rightButton,mouse.clicked_name,Colour2,trialnumber,mouse_2.x,mouse_2.y,mouse_2.leftButton,mouse_2.midButton,mouse_2.rightButton,mouse_2.clicked_name,mouse_3.x,mouse_3.y,mouse_3.leftButton,mouse_3.midButton,mouse_3.rightButton,catchresponse,catchnumber,Catch,response_time_catch,mouse_11.x,mouse_11.y,mouse_11.leftButton,mouse_11.midButton,mouse_11.rightButton,trials_2.thisRepN,trials_2.thisTrialN,trials_2.thisN,trials_2.thisIndex,trials_2.ran,mouse_3.clicked_name,mouse_11.clicked_name,trials_3.thisRepN,trials_3.thisTrialN,trials_3.thisN,trials_3.thisIndex,trials_3.ran,answer1,rt1,answer2,rt2,answer3,rt3,answer4,rt4,answer5,rt5,answer6,rt6,answer7,rt7
space,3.210605,space,33.724285,space,10.900425,39.8,3.98,343.2160804,192.9648241,1366,,space,7.57614,79.6,space,24.49259,space,7.054745,space,1.122685,space,9.99146,space,11.388975,space,13.802605,space,6.202815,space,24.626265,space,26.8296,return,6.072525,-239.733,822.7338742,0,0,0,0,1,5c71b17c891e3200012477a2,6036d830b9a6038d520a84cc,2021-02-24_23h53.06.196,Colour_Similarity_Experiment,2020.2.10,Win32,60,6036d0d9a84aa1626184a6ef,17.31168317,16.65689196,16.65026418,16.66201313,16.65088198,16.65501281,,,,,,,,,,,,,,,,,,,,,,,,,,,,,,,,,,,,,,,,,,,,,,,,,,,,,,,,,,,,,,,,,,,,,,,,,,,,,,,,,,,,,,,,,,,,,,,,,,,,,,,,,,,,,,,,,,
,,,,,,,,,,,,,,,,,,,,,,,,,,,,,,,,,return,4.5209,-45.078,619.0161035,1,0,1,0,1,5c71b17c891e3200012477a2,6036d830b9a6038d520a84cc,2021-02-24_23h53.06.196,Colour_Similarity_Experiment,2020.2.10,Win32,60,6036d0d9a84aa1626184a6ef,17.31168317,16.65689196,16.65026418,16.66201313,16.65088198,16.65501281,,,,,,,,,,,,,,,,,,,,,,,,,,,,,,,,,,,,,,,,,,,,,,,,,,,,,,,,,,,,,,,,,,,,,,,,,,,,,,,,,,,,,,,,,,,,,,,,,,,,,,,,,,,,,,,,,,
,,,,,,,,,,,,,,,,,,,,,,,,,,,,,,,,,return,6.159505,-247.929,831.3114646,2,0,2,0,1,5c71b17c891e3200012477a2,6036d830b9a6038d520a84cc,2021-02-24_23h53.06.196,Colour_Similarity_Experiment,2020.2.10,Win32,60,6036d0d9a84aa1626184a6ef,17.31168317,16.65689196,16.65026418,16.66201313,16.65088198,16.65501281,,,,,,,,,,,,,,,,,,,,,,,,,,,,,,,,,,,,,,,,,,,,,,,,,,,,,,,,,,,,,,,,,,,,,,,,,,,,,,,,,,,,,,,,,,,,,,,,,,,,,,,,,,,,,,,,,,
,,,,,,,,,,,,,,,,,,,,,,,,,,,,,,,,,return,5.958305,-223.341,805.5786935,3,0,3,0,1,5c71b17c891e3200012477a2,6036d830b9a6038d520a84cc,2021-02-24_23h53.06.196,Colour_Similarity_Experiment,2020.2.10,Win32,60,6036d0d9a84aa1626184a6ef,17.31168317,16.65689196,16.65026418,16.66201313,16.65088198,16.65501281,,,,,,,,,,,,,,,,,,,,,,,,,,,,,,,,,,,,,,,,,,,,,,,,,,,,,,,,,,,,,,,,,,,,,,,,,,,,,,,,,,,,,,,,,,,,,,,,,,,,,,,,,,,,,,,,,,
,,,,,,,,,,,,,,,,,,,,,,,,,,,,,,,,,return,5.347035,-147.528,726.2359828,4,0,4,0,1,5c71b17c891e3200012477a2,6036d830b9a6038d520a84cc,2021-02-24_23h53.06.196,Colour_Similarity_Experiment,2020.2.10,Win32,60,6036d0d9a84aa1626184a6ef,17.31168317,16.65689196,16.65026418,16.66201313,16.65088198,16.65501281,,,,,,,,,,,,,,,,,,,,,,,,,,,,,,,,,,,,,,,,,,,,,,,,,,,,,,,,,,,,,,,,,,,,,,,,,,,,,,,,,,,,,,,,,,,,,,,,,,,,,,,,,,,,,,,,,,
,,,,,,,,,,,,,,,,,,,,,,,,,,,,,,,,,,,,,,,,,,5c71b17c891e3200012477a2,6036d830b9a6038d520a84cc,2021-02-24_23h53.06.196,Colour_Similarity_Experiment,2020.2.10,Win32,60,6036d0d9a84aa1626184a6ef,17.31168317,16.65689196,16.65026418,16.66201313,16.65088198,16.65501281,81,14.13859754,84.40742729,562.7161819,56.27161819,253.2222819,space,5.98658,space,22.78194,space,50.12355,space,24.031205,space,6.3097,space,10.74856,6,PF,weak,3,-36,96,1,0,0,response7disk_5,5,0,31.097965,0,0,1,0,0,rectangle_8,0,0,1,0,0,5,0,0,1,0,0,0,0,0,1,1,,,,,,,,,,,,,,,,,,,,,,,,,,,,,,,,,,,,,,,,,,,,,,,,,,,,,,,,,,,,,
,,,,,,,,,,,,,,,,,,,,,,,,,,,,,,,,,,,,,,,,,,5c71b17c891e3200012477a2,6036d830b9a6038d520a84cc,2021-02-24_23h53.06.196,Colour_Similarity_Experiment,2020.2.10,Win32,60,6036d0d9a84aa1626184a6ef,17.31168317,16.65689196,16.65026418,16.66201313,16.65088198,16.65501281,,,,,,,,,,,,,,,,,,,1,PF,weak,3,40,96,1,0,0,response1disk_5,7,7,6.82497,-5,-4,1,0,0,rectangle_8,-5,-4,1,0,0,5,-5,-4,1,0,0,0,1,1,5,1,,,,,,,,,,,,,,,,,,,,,,,,,,,,,,,,,,,,,,,,,,,,,,,,,,,,,,,,,,,,,
,,,,,,,,,,,,,,,,,,,,,,,,,,,,,,,,,,,,,,,,,,5c71b17c891e3200012477a2,6036d830b9a6038d520a84cc,2021-02-24_23h53.06.196,Colour_Similarity_Experiment,2020.2.10,Win32,60,6036d0d9a84aa1626184a6ef,17.31168317,16.65689196,16.65026418,16.66201313,16.65088198,16.65501281,,,,,,,,,,,,,,,,,,,1,PF,strong,3,-83,-36,1,0,0,response5disk_5,4,2,11.20056,-8,-5,1,0,0,rectangle_8,-8,-5,1,0,0,5,-8,-5,1,0,0,0,2,2,2,1,,,,,,,,,,,,,,,,,,,,,,,,,,,,,,,,,,,,,,,,,,,,,,,,,,,,,,,,,,,,,
,,,,,,,,,,,,,,,,,,,,,,,,,,,,,,,,,,,,,,,,,,5c71b17c891e3200012477a2,6036d830b9a6038d520a84cc,2021-02-24_23h53.06.196,Colour_Similarity_Experiment,2020.2.10,Win32,60,6036d0d9a84aa1626184a6ef,17.31168317,16.65689196,16.65026418,16.66201313,16.65088198,16.65501281,,,,,,,,,,,,,,,,,,,5,PF,weak,3,93,37,1,0,0,response1disk_5,9,6,5.972015,-6,6,1,0,0,rectangle_8,-6,6,1,0,0,5,-6,6,1,0,0,0,3,3,6,1,,,,,,,,,,,,,,,,,,,,,,,,,,,,,,,,,,,,,,,,,,,,,,,,,,,,,,,,,,,,,
,,,,,,,,,,,,,,,,,,,,,,,,,,,,,,,,,,,,,,,,,,5c71b17c891e3200012477a2,6036d830b9a6038d520a84cc,2021-02-24_23h53.06.196,Colour_Similarity_Experiment,2020.2.10,Win32,60,6036d0d9a84aa1626184a6ef,17.31168317,16.65689196,16.65026418,16.66201313,16.65088198,16.65501281,,,,,,,,,,,,,,,,,,,7,PF,weak,3,101,49,1,0,0,response1disk_5,4,6,5.610755,-12,-4,1,0,0,rectangle_8,85,-35,1,0,0,5,-9,-3,1,0,0,0,4,4,4,1,response3disk_7,5,rectangle_4,,,,,,,,,,,,,,,,,,,,,,,,,,,,,,,,,,,,,,,,,,,,,,,,,,,,,,,,,,
,,,,,,,,,,,,,,,,,,,,,,,,,,,,,,,,,,,,,,,,,,5c71b17c891e3200012477a2,6036d830b9a6038d520a84cc,2021-02-24_23h53.06.196,Colour_Similarity_Experiment,2020.2.10,Win32,60,6036d0d9a84aa1626184a6ef,17.31168317,16.65689196,16.65026418,16.66201313,16.65088198,16.65501281,,,,,,,,,,,,,,,,,,,2,PF,strong,3,59,73,1,0,0,response1disk_5,2,7,2.247995,3,6,1,0,0,rectangle_8,3,6,1,0,0,5,3,6,1,0,0,0,5,5,0,1,,,,,,,,,,,,,,,,,,,,,,,,,,,,,,,,,,,,,,,,,,,,,,,,,,,,,,,,,,,,,
,,,,,,,,,,,,,,,,,,,,,,,,,,,,,,,,,,,,,,,,,,5c71b17c891e3200012477a2,6036d830b9a6038d520a84cc,2021-02-24_23h53.06.196,Colour_Similarity_Experiment,2020.2.10,Win32,60,6036d0d9a84aa1626184a6ef,17.31168317,16.65689196,16.65026418,16.66201313,16.65088198,16.65501281,,,,,,,,,,,,,,,,,,,3,PF,strong,3,49,94,1,0,0,response1disk_5,1,7,2.214065,1,8,1,0,0,rectangle_8,1,8,1,0,0,5,1,8,1,0,0,0,6,6,3,1,,,,,,,,,,,,,,,,,,,,,,,,,,,,,,,,,,,,,,,,,,,,,,,,,,,,,,,,,,,,,
,,,,,,,,,,,,,,,,,,,,,,,,,,,,,,,,,,,,,,,,,,5c71b17c891e3200012477a2,6036d830b9a6038d520a84cc,2021-02-24_23h53.06.196,Colour_Similarity_Experiment,2020.2.10,Win32,60,6036d0d9a84aa1626184a6ef,17.31168317,16.65689196,16.65026418,16.66201313,16.65088198,16.65501281,,,,,,,,,,,,,,,,,,,,PF,strong,3,,,,,,,,7,4.926735,,,,,,,,,,,,,,,,,,,,,,,,,,space,5.77708,9,strong,34,100,1,0,0,response1disk,3,1,3,8,1,0,0,rectangle,3,8,1,0,0,,3,0,0.001705,3,8,1,0,0,0,0,0,141,1,,,,,,,,,,,,,,,,,,,,,
,,,,,,,,,,,,,,,,,,,,,,,,,,,,,,,,,,,,,,,,,,5c71b17c891e3200012477a2,6036d830b9a6038d520a84cc,2021-02-24_23h53.06.196,Colour_Similarity_Experiment,2020.2.10,Win32,60,6036d0d9a84aa1626184a6ef,17.31168317,16.65689196,16.65026418,16.66201313,16.65088198,16.65501281,,,,,,,,,,,,,,,,,,,,PF,strong,3,,,,,,,,7,5.24493,,,,,,,,,,,,,,,,,,,,,,,,,,,,1,strong,48,80,1,0,0,response1disk,8,2,-1,0,1,0,0,rectangle,-1,0,1,0,0,,5,0,0.003635,-1,0,1,0,0,0,1,1,27,1,,,,,,,,,,,,,,,,,,,,,
,,,,,,,,,,,,,,,,,,,,,,,,,,,,,,,,,,,,,,,,,,5c71b17c891e3200012477a2,6036d830b9a6038d520a84cc,2021-02-24_23h53.06.196,Colour_Similarity_Experiment,2020.2.10,Win32,60,6036d0d9a84aa1626184a6ef,17.31168317,16.65689196,16.65026418,16.66201313,16.65088198,16.65501281,,,,,,,,,,,,,,,,,,,,PF,weak,3,,,,,,,,7,1.46442,,,,,,,,,,,,,,,,,,,,,,,,,,,,4,weak,34,96,1,0,0,response1disk,1,3,-7,0,1,0,0,rectangle,-7,0,1,0,0,,5,0,0.0003,-7,0,1,0,0,0,2,2,115,1,,,,,,,,,,,,,,,,,,,,,
,,,,,,,,,,,,,,,,,,,,,,,,,,,,,,,,,,,,,,,,,,5c71b17c891e3200012477a2,6036d830b9a6038d520a84cc,2021-02-24_23h53.06.196,Colour_Similarity_Experiment,2020.2.10,Win32,60,6036d0d9a84aa1626184a6ef,17.31168317,16.65689196,16.65026418,16.66201313,16.65088198,16.65501281,,,,,,,,,,,,,,,,,,,,PF,strong,3,,,,,,,,7,1.398565,,,,,,,,,,,,,,,,,,,,,,,,,,,,8,strong,42,107,1,0,0,response1disk,2,4,3,7,1,0,0,rectangle,3,7,1,0,0,,1,0,0.00275,3,7,1,0,0,0,3,3,22,1,,,,,,,,,,,,,,,,,,,,,
,,,,,,,,,,,,,,,,,,,,,,,,,,,,,,,,,,,,,,,,,,5c71b17c891e3200012477a2,6036d830b9a6038d520a84cc,2021-02-24_23h53.06.196,Colour_Similarity_Experiment,2020.2.10,Win32,60,6036d0d9a84aa1626184a6ef,17.31168317,16.65689196,16.65026418,16.66201313,16.65088198,16.65501281,,,,,,,,,,,,,,,,,,,,PF,weak,3,,,,,,,,7,1.1821,,,,,,,,,,,,,,,,,,,,,,,,,,,,5,weak,30,102,1,0,0,response1disk,1,5,-2,7,1,0,0,rectangle,-82,31,1,0,0,1,1,1,3.514025,0,8,1,0,0,0,4,4,159,1,response7disk_3,rectangle,,,,,,,,,,,,,,,,,,,
,,,,,,,,,,,,,,,,,,,,,,,,,,,,,,,,,,,,,,,,,,5c71b17c891e3200012477a2,6036d830b9a6038d520a84cc,2021-02-24_23h53.06.196,Colour_Similarity_Experiment,2020.2.10,Win32,60,6036d0d9a84aa1626184a6ef,17.31168317,16.65689196,16.65026418,16.66201313,16.65088198,16.65501281,,,,,,,,,,,,,,,,,,,,PF,strong,3,,,,,,,,7,1.515425,,,,,,,,,,,,,,,,,,,,,,,,,,,,4,strong,32,82,1,0,0,response1disk,9,6,3,7,1,0,0,rectangle,3,7,1,0,0,1,6,0,0.002915,3,7,1,0,0,0,5,5,90,1,,,,,,,,,,,,,,,,,,,,,
,,,,,,,,,,,,,,,,,,,,,,,,,,,,,,,,,,,,,,,,,,5c71b17c891e3200012477a2,6036d830b9a6038d520a84cc,2021-02-24_23h53.06.196,Colour_Similarity_Experiment,2020.2.10,Win32,60,6036d0d9a84aa1626184a6ef,17.31168317,16.65689196,16.65026418,16.66201313,16.65088198,16.65501281,,,,,,,,,,,,,,,,,,,,PF,strong,3,,,,,,,,1,3.829785,,,,,,,,,,,,,,,,,,,,,,,,,,,,3,strong,-71,42,1,0,0,response7disk,3,7,3,1,1,0,0,rectangle,3,1,1,0,0,1,3,0,0.003,3,1,1,0,0,0,6,6,68,1,,,,,,,,,,,,,,,,,,,,,
,,,,,,,,,,,,,,,,,,,,,,,,,,,,,,,,,,,,,,,,,,5c71b17c891e3200012477a2,6036d830b9a6038d520a84cc,2021-02-24_23h53.06.196,Colour_Similarity_Experiment,2020.2.10,Win32,60,6036d0d9a84aa1626184a6ef,17.31168317,16.65689196,16.65026418,16.66201313,16.65088198,16.65501281,,,,,,,,,,,,,,,,,,,,PF,weak,3,,,,,,,,7,2.11438,,,,,,,,,,,,,,,,,,,,,,,,,,,,3,weak,41,77,1,0,0,response1disk,9,8,8,4,1,0,0,rectangle,8,4,1,0,0,1,1,0,0.0028,8,4,1,0,0,0,7,7,79,1,,,,,,,,,,,,,,,,,,,,,
,,,,,,,,,,,,,,,,,,,,,,,,,,,,,,,,,,,,,,,,,,5c71b17c891e3200012477a2,6036d830b9a6038d520a84cc,2021-02-24_23h53.06.196,Colour_Similarity_Experiment,2020.2.10,Win32,60,6036d0d9a84aa1626184a6ef,17.31168317,16.65689196,16.65026418,16.66201313,16.65088198,16.65501281,,,,,,,,,,,,,,,,,,,,PF,strong,3,,,,,,,,7,2.04811,,,,,,,,,,,,,,,,,,,,,,,,,,,,3,strong,39,102,1,0,0,response1disk,2,9,-7,-13,1,0,0,rectangle,-7,-13,1,0,0,1,2,0,0.003115,-7,-13,1,0,0,0,8,8,93,1,,,,,,,,,,,,,,,,,,,,,
,,,,,,,,,,,,,,,,,,,,,,,,,,,,,,,,,,,,,,,,,,5c71b17c891e3200012477a2,6036d830b9a6038d520a84cc,2021-02-24_23h53.06.196,Colour_Similarity_Experiment,2020.2.10,Win32,60,6036d0d9a84aa1626184a6ef,17.31168317,16.65689196,16.65026418,16.66201313,16.65088198,16.65501281,,,,,,,,,,,,,,,,,,,,PF,weak,3,,,,,,,,2,2.74729,,,,,,,,,,,,,,,,,,,,,,,,,,,,8,weak,-72,-61,1,0,0,response5disk,6,10,-2,0,1,0,0,rectangle,-39,-99,1,0,0,3,3,1,4.01235,5,-5,1,0,0,0,9,9,161,1,response5disk_3,rectangle,,,,,,,,,,,,,,,,,,,
,,,,,,,,,,,,,,,,,,,,,,,,,,,,,,,,,,,,,,,,,,5c71b17c891e3200012477a2,6036d830b9a6038d520a84cc,2021-02-24_23h53.06.196,Colour_Similarity_Experiment,2020.2.10,Win32,60,6036d0d9a84aa1626184a6ef,17.31168317,16.65689196,16.65026418,16.66201313,16.65088198,16.65501281,,,,,,,,,,,,,,,,,,,,PF,weak,3,,,,,,,,0,3.347865,,,,,,,,,,,,,,,,,,,,,,,,,,,,9,weak,-27,98,1,0,0,response7disk,9,11,10,8,1,0,0,rectangle,10,8,1,0,0,3,7,0,0.00187,10,8,1,0,0,0,10,10,106,1,,,,,,,,,,,,,,,,,,,,,
,,,,,,,,,,,,,,,,,,,,,,,,,,,,,,,,,,,,,,,,,,5c71b17c891e3200012477a2,6036d830b9a6038d520a84cc,2021-02-24_23h53.06.196,Colour_Similarity_Experiment,2020.2.10,Win32,60,6036d0d9a84aa1626184a6ef,17.31168317,16.65689196,16.65026418,16.66201313,16.65088198,16.65501281,,,,,,,,,,,,,,,,,,,,PF,weak,3,,,,,,,,7,1.84811,,,,,,,,,,,,,,,,,,,,,,,,,,,,2,weak,57,107,1,0,0,response1disk,5,12,0,9,1,0,0,rectangle,0,9,1,0,0,3,6,0,0.00266,0,9,1,0,0,0,11,11,147,1,,,,,,,,,,,,,,,,,,,,,
,,,,,,,,,,,,,,,,,,,,,,,,,,,,,,,,,,,,,,,,,,5c71b17c891e3200012477a2,6036d830b9a6038d520a84cc,2021-02-24_23h53.06.196,Colour_Similarity_Experiment,2020.2.10,Win32,60,6036d0d9a84aa1626184a6ef,17.31168317,16.65689196,16.65026418,16.66201313,16.65088198,16.65501281,,,,,,,,,,,,,,,,,,,,PF,weak,3,,,,,,,,0,1.730215,,,,,,,,,,,,,,,,,,,,,,,,,,,,7,weak,-30,81,1,0,0,response7disk,7,13,4,8,1,0,0,rectangle,4,8,1,0,0,3,7,0,0.00245,4,8,1,0,0,0,12,12,51,1,,,,,,,,,,,,,,,,,,,,,
,,,,,,,,,,,,,,,,,,,,,,,,,,,,,,,,,,,,,,,,,,5c71b17c891e3200012477a2,6036d830b9a6038d520a84cc,2021-02-24_23h53.06.196,Colour_Similarity_Experiment,2020.2.10,Win32,60,6036d0d9a84aa1626184a6ef,17.31168317,16.65689196,16.65026418,16.66201313,16.65088198,16.65501281,,,,,,,,,,,,,,,,,,,,PF,strong,3,,,,,,,,2,2.747545,,,,,,,,,,,,,,,,,,,,,,,,,,,,3,strong,-92,-59,1,0,0,response5disk,5,14,-7,0,1,0,0,rectangle,-7,0,1,0,0,3,1,0,0.003295,-7,0,1,0,0,0,13,13,101,1,,,,,,,,,,,,,,,,,,,,,
,,,,,,,,,,,,,,,,,,,,,,,,,,,,,,,,,,,,,,,,,,5c71b17c891e3200012477a2,6036d830b9a6038d520a84cc,2021-02-24_23h53.06.196,Colour_Similarity_Experiment,2020.2.10,Win32,60,6036d0d9a84aa1626184a6ef,17.31168317,16.65689196,16.65026418,16.66201313,16.65088198,16.65501281,,,,,,,,,,,,,,,,,,,,PF,strong,3,,,,,,,,7,2.61151,,,,,,,,,,,,,,,,,,,,,,,,,,,,7,strong,45,96,1,0,0,response1disk,5,15,3,4,1,0,0,rectangle,3,4,1,0,0,3,2,0,0.002125,3,4,1,0,0,0,14,14,156,1,,,,,,,,,,,,,,,,,,,,,
,,,,,,,,,,,,,,,,,,,,,,,,,,,,,,,,,,,,,,,,,,5c71b17c891e3200012477a2,6036d830b9a6038d520a84cc,2021-02-24_23h53.06.196,Colour_Similarity_Experiment,2020.2.10,Win32,60,6036d0d9a84aa1626184a6ef,17.31168317,16.65689196,16.65026418,16.66201313,16.65088198,16.65501281,,,,,,,,,,,,,,,,,,,,PF,strong,3,,,,,,,,7,2.231285,,,,,,,,,,,,,,,,,,,,,,,,,,,,7,strong,49,96,1,0,0,response1disk,6,16,-1,-3,1,0,0,rectangle,-1,-3,1,0,0,3,2,0,0.0002,-1,-3,1,0,0,0,15,15,31,1,,,,,,,,,,,,,,,,,,,,,
,,,,,,,,,,,,,,,,,,,,,,,,,,,,,,,,,,,,,,,,,,5c71b17c891e3200012477a2,6036d830b9a6038d520a84cc,2021-02-24_23h53.06.196,Colour_Similarity_Experiment,2020.2.10,Win32,60,6036d0d9a84aa1626184a6ef,17.31168317,16.65689196,16.65026418,16.66201313,16.65088198,16.65501281,,,,,,,,,,,,,,,,,,,,PF,strong,3,,,,,,,,7,1.248495,,,,,,,,,,,,,,,,,,,,,,,,,,,,1,strong,59,95,1,0,0,response1disk,6,17,-5,0,1,0,0,rectangle,-5,0,1,0,0,3,2,0,0.000205,-5,0,1,0,0,0,16,16,58,1,,,,,,,,,,,,,,,,,,,,,
,,,,,,,,,,,,,,,,,,,,,,,,,,,,,,,,,,,,,,,,,,5c71b17c891e3200012477a2,6036d830b9a6038d520a84cc,2021-02-24_23h53.06.196,Colour_Similarity_Experiment,2020.2.10,Win32,60,6036d0d9a84aa1626184a6ef,17.31168317,16.65689196,16.65026418,16.66201313,16.65088198,16.65501281,,,,,,,,,,,,,,,,,,,,PF,strong,3,,,,,,,,7,1.198895,,,,,,,,,,,,,,,,,,,,,,,,,,,,7,strong,39,90,1,0,0,response1disk,1,18,-1,2,1,0,0,rectangle,-1,2,1,0,0,3,0,0,0.00244,-1,2,1,0,0,0,17,17,132,1,,,,,,,,,,,,,,,,,,,,,
,,,,,,,,,,,,,,,,,,,,,,,,,,,,,,,,,,,,,,,,,,5c71b17c891e3200012477a2,6036d830b9a6038d520a84cc,2021-02-24_23h53.06.196,Colour_Similarity_Experiment,2020.2.10,Win32,60,6036d0d9a84aa1626184a6ef,17.31168317,16.65689196,16.65026418,16.66201313,16.65088198,16.65501281,,,,,,,,,,,,,,,,,,,,PF,strong,3,,,,,,,,7,1.36495,,,,,,,,,,,,,,,,,,,,,,,,,,,,6,strong,23,49,1,0,0,response1disk,4,19,4,-7,1,0,0,rectangle,4,-7,1,0,0,3,5,0,0.002825,4,-7,1,0,0,0,18,18,56,1,,,,,,,,,,,,,,,,,,,,,
,,,,,,,,,,,,,,,,,,,,,,,,,,,,,,,,,,,,,,,,,,5c71b17c891e3200012477a2,6036d830b9a6038d520a84cc,2021-02-24_23h53.06.196,Colour_Similarity_Experiment,2020.2.10,Win32,60,6036d0d9a84aa1626184a6ef,17.31168317,16.65689196,16.65026418,16.66201313,16.65088198,16.65501281,,,,,,,,,,,,,,,,,,,,PF,weak,3,,,,,,,,7,0.828565,,,,,,,,,,,,,,,,,,,,,,,,,,,,2,weak,37,52,1,0,0,response1disk,3,20,17,-14,1,0,0,rectangle,17,-14,1,0,0,3,1,0,0.002845,17,-14,1,0,0,0,19,19,69,1,,,,,,,,,,,,,,,,,,,,,
,,,,,,,,,,,,,,,,,,,,,,,,,,,,,,,,,,,,,,,,,,5c71b17c891e3200012477a2,6036d830b9a6038d520a84cc,2021-02-24_23h53.06.196,Colour_Similarity_Experiment,2020.2.10,Win32,60,6036d0d9a84aa1626184a6ef,17.31168317,16.65689196,16.65026418,16.66201313,16.65088198,16.65501281,,,,,,,,,,,,,,,,,,,,PF,weak,3,,,,,,,,7,0.87764,,,,,,,,,,,,,,,,,,,,,,,,,,,,2,weak,56,80,1,0,0,response1disk,7,21,2,-1,1,0,0,rectangle,2,-1,1,0,0,3,3,0,0.00174,2,-1,1,0,0,0,20,20,107,1,,,,,,,,,,,,,,,,,,,,,
,,,,,,,,,,,,,,,,,,,,,,,,,,,,,,,,,,,,,,,,,,5c71b17c891e3200012477a2,6036d830b9a6038d520a84cc,2021-02-24_23h53.06.196,Colour_Similarity_Experiment,2020.2.10,Win32,60,6036d0d9a84aa1626184a6ef,17.31168317,16.65689196,16.65026418,16.66201313,16.65088198,16.65501281,,,,,,,,,,,,,,,,,,,,PF,strong,3,,,,,,,,7,0.699485,,,,,,,,,,,,,,,,,,,,,,,,,,,,4,strong,45,84,1,0,0,response1disk,7,22,14,-2,1,0,0,rectangle,14,-2,1,0,0,3,2,0,0.002935,14,-2,1,0,0,0,21,21,87,1,,,,,,,,,,,,,,,,,,,,,
,,,,,,,,,,,,,,,,,,,,,,,,,,,,,,,,,,,,,,,,,,5c71b17c891e3200012477a2,6036d830b9a6038d520a84cc,2021-02-24_23h53.06.196,Colour_Similarity_Experiment,2020.2.10,Win32,60,6036d0d9a84aa1626184a6ef,17.31168317,16.65689196,16.65026418,16.66201313,16.65088198,16.65501281,,,,,,,,,,,,,,,,,,,,PF,weak,3,,,,,,,,7,1.398495,,,,,,,,,,,,,,,,,,,,,,,,,,,,4,weak,35,73,1,0,0,response1disk,8,23,-7,-14,1,0,0,rectangle,-7,-14,1,0,0,3,3,0,0.00286,-7,-14,1,0,0,0,22,22,124,1,,,,,,,,,,,,,,,,,,,,,
,,,,,,,,,,,,,,,,,,,,,,,,,,,,,,,,,,,,,,,,,,5c71b17c891e3200012477a2,6036d830b9a6038d520a84cc,2021-02-24_23h53.06.196,Colour_Similarity_Experiment,2020.2.10,Win32,60,6036d0d9a84aa1626184a6ef,17.31168317,16.65689196,16.65026418,16.66201313,16.65088198,16.65501281,,,,,,,,,,,,,,,,,,,,PF,weak,3,,,,,,,,7,0.799065,,,,,,,,,,,,,,,,,,,,,,,,,,,,2,weak,34,64,1,0,0,response1disk,1,24,6,11,1,0,0,rectangle,6,11,1,0,0,3,1,0,0.002655,6,11,1,0,0,0,23,23,9,1,,,,,,,,,,,,,,,,,,,,,
,,,,,,,,,,,,,,,,,,,,,,,,,,,,,,,,,,,,,,,,,,5c71b17c891e3200012477a2,6036d830b9a6038d520a84cc,2021-02-24_23h53.06.196,Colour_Similarity_Experiment,2020.2.10,Win32,60,6036d0d9a84aa1626184a6ef,17.31168317,16.65689196,16.65026418,16.66201313,16.65088198,16.65501281,,,,,,,,,,,,,,,,,,,,PF,strong,3,,,,,,,,7,0.816265,,,,,,,,,,,,,,,,,,,,,,,,,,,,1,strong,32,66,1,0,0,response1disk,5,25,-4,-2,1,0,0,rectangle,-4,-2,1,0,0,3,3,0,0.002315,-4,-2,1,0,0,0,24,24,82,1,,,,,,,,,,,,,,,,,,,,,
,,,,,,,,,,,,,,,,,,,,,,,,,,,,,,,,,,,,,,,,,,5c71b17c891e3200012477a2,6036d830b9a6038d520a84cc,2021-02-24_23h53.06.196,Colour_Similarity_Experiment,2020.2.10,Win32,60,6036d0d9a84aa1626184a6ef,17.31168317,16.65689196,16.65026418,16.66201313,16.65088198,16.65501281,,,,,,,,,,,,,,,,,,,,PF,weak,3,,,,,,,,7,0.6322,,,,,,,,,,,,,,,,,,,,,,,,,,,,1,weak,38,65,1,0,0,response1disk,3,26,5,12,1,0,0,rectangle,5,12,1,0,0,3,2,0,0.002735,5,12,1,0,0,0,25,25,1,1,,,,,,,,,,,,,,,,,,,,,
,,,,,,,,,,,,,,,,,,,,,,,,,,,,,,,,,,,,,,,,,,5c71b17c891e3200012477a2,6036d830b9a6038d520a84cc,2021-02-24_23h53.06.196,Colour_Similarity_Experiment,2020.2.10,Win32,60,6036d0d9a84aa1626184a6ef,17.31168317,16.65689196,16.65026418,16.66201313,16.65088198,16.65501281,,,,,,,,,,,,,,,,,,,,PF,weak,3,,,,,,,,7,0.58279,,,,,,,,,,,,,,,,,,,,,,,,,,,,1,weak,37,70,1,0,0,response1disk,2,27,10,7,1,0,0,rectangle,10,7,1,0,0,3,1,0,0.00344,10,7,1,0,0,0,26,26,24,1,,,,,,,,,,,,,,,,,,,,,
,,,,,,,,,,,,,,,,,,,,,,,,,,,,,,,,,,,,,,,,,,5c71b17c891e3200012477a2,6036d830b9a6038d520a84cc,2021-02-24_23h53.06.196,Colour_Similarity_Experiment,2020.2.10,Win32,60,6036d0d9a84aa1626184a6ef,17.31168317,16.65689196,16.65026418,16.66201313,16.65088198,16.65501281,,,,,,,,,,,,,,,,,,,,PF,weak,3,,,,,,,,7,0.901455,,,,,,,,,,,,,,,,,,,,,,,,,,,,7,weak,38,58,1,0,0,response1disk,3,28,-6,-4,1,0,0,rectangle,-6,-4,1,0,0,3,3,0,0.002965,-6,-4,1,0,0,0,27,27,81,1,,,,,,,,,,,,,,,,,,,,,
,,,,,,,,,,,,,,,,,,,,,,,,,,,,,,,,,,,,,,,,,,5c71b17c891e3200012477a2,6036d830b9a6038d520a84cc,2021-02-24_23h53.06.196,Colour_Similarity_Experiment,2020.2.10,Win32,60,6036d0d9a84aa1626184a6ef,17.31168317,16.65689196,16.65026418,16.66201313,16.65088198,16.65501281,,,,,,,,,,,,,,,,,,,,PF,strong,3,,,,,,,,7,0.711385,,,,,,,,,,,,,,,,,,,,,,,,,,,,6,strong,45,85,1,0,0,response1disk,1,29,1,8,1,0,0,rectangle,1,8,1,0,0,3,7,0,0.002405,1,8,1,0,0,0,28,28,5,1,,,,,,,,,,,,,,,,,,,,,
,,,,,,,,,,,,,,,,,,,,,,,,,,,,,,,,,,,,,,,,,,5c71b17c891e3200012477a2,6036d830b9a6038d520a84cc,2021-02-24_23h53.06.196,Colour_Similarity_Experiment,2020.2.10,Win32,60,6036d0d9a84aa1626184a6ef,17.31168317,16.65689196,16.65026418,16.66201313,16.65088198,16.65501281,,,,,,,,,,,,,,,,,,,,PF,strong,3,,,,,,,,7,0.732925,,,,,,,,,,,,,,,,,,,,,,,,,,,,5,strong,36,73,1,0,0,response1disk,7,30,-14,-1,1,0,0,rectangle,-14,-1,1,0,0,3,5,0,0.00343,-14,-1,1,0,0,0,29,29,7,1,,,,,,,,,,,,,,,,,,,,,
,,,,,,,,,,,,,,,,,,,,,,,,,,,,,,,,,,,,,,,,,,5c71b17c891e3200012477a2,6036d830b9a6038d520a84cc,2021-02-24_23h53.06.196,Colour_Similarity_Experiment,2020.2.10,Win32,60,6036d0d9a84aa1626184a6ef,17.31168317,16.65689196,16.65026418,16.66201313,16.65088198,16.65501281,,,,,,,,,,,,,,,,,,,,PF,weak,3,,,,,,,,0,1.56499,,,,,,,,,,,,,,,,,,,,,,,,,,,,4,weak,-24,84,1,0,0,response7disk,4,31,4,2,1,0,0,rectangle,4,2,1,0,0,3,0,0,0.00278,4,2,1,0,0,0,30,30,70,1,,,,,,,,,,,,,,,,,,,,,
,,,,,,,,,,,,,,,,,,,,,,,,,,,,,,,,,,,,,,,,,,5c71b17c891e3200012477a2,6036d830b9a6038d520a84cc,2021-02-24_23h53.06.196,Colour_Similarity_Experiment,2020.2.10,Win32,60,6036d0d9a84aa1626184a6ef,17.31168317,16.65689196,16.65026418,16.66201313,16.65088198,16.65501281,,,,,,,,,,,,,,,,,,,,PF,strong,3,,,,,,,,7,1.58122,,,,,,,,,,,,,,,,,,,,,,,,,,,,9,strong,38,77,1,0,0,response1disk,8,32,-2,0,1,0,0,rectangle,-2,0,1,0,0,3,3,0,0.00266,-2,0,1,0,0,0,31,31,6,1,,,,,,,,,,,,,,,,,,,,,
,,,,,,,,,,,,,,,,,,,,,,,,,,,,,,,,,,,,,,,,,,5c71b17c891e3200012477a2,6036d830b9a6038d520a84cc,2021-02-24_23h53.06.196,Colour_Similarity_Experiment,2020.2.10,Win32,60,6036d0d9a84aa1626184a6ef,17.31168317,16.65689196,16.65026418,16.66201313,16.65088198,16.65501281,,,,,,,,,,,,,,,,,,,,PF,weak,3,,,,,,,,7,0.816065,,,,,,,,,,,,,,,,,,,,,,,,,,,,9,weak,43,73,1,0,0,response1disk,4,33,3,-4,1,0,0,rectangle,3,-4,1,0,0,3,0,0,0.002465,3,-4,1,0,0,0,32,32,114,1,,,,,,,,,,,,,,,,,,,,,
,,,,,,,,,,,,,,,,,,,,,,,,,,,,,,,,,,,,,,,,,,5c71b17c891e3200012477a2,6036d830b9a6038d520a84cc,2021-02-24_23h53.06.196,Colour_Similarity_Experiment,2020.2.10,Win32,60,6036d0d9a84aa1626184a6ef,17.31168317,16.65689196,16.65026418,16.66201313,16.65088198,16.65501281,,,,,,,,,,,,,,,,,,,,PF,weak,3,,,,,,,,7,0.598985,,,,,,,,,,,,,,,,,,,,,,,,,,,,2,weak,55,74,1,0,0,response1disk,9,34,3,5,1,0,0,rectangle,3,5,1,0,0,3,0,0,0.000185,3,5,1,0,0,0,33,33,39,1,,,,,,,,,,,,,,,,,,,,,
,,,,,,,,,,,,,,,,,,,,,,,,,,,,,,,,,,,,,,,,,,5c71b17c891e3200012477a2,6036d830b9a6038d520a84cc,2021-02-24_23h53.06.196,Colour_Similarity_Experiment,2020.2.10,Win32,60,6036d0d9a84aa1626184a6ef,17.31168317,16.65689196,16.65026418,16.66201313,16.65088198,16.65501281,,,,,,,,,,,,,,,,,,,,PF,weak,3,,,,,,,,7,4.820385,,,,,,,,,,,,,,,,,,,,,,,,,,,,8,weak,46,75,1,0,0,response1disk,1,35,0,6,1,0,0,rectangle,0,6,1,0,0,3,2,0,0.001755,0,6,1,0,0,0,34,34,57,1,,,,,,,,,,,,,,,,,,,,,
,,,,,,,,,,,,,,,,,,,,,,,,,,,,,,,,,,,,,,,,,,5c71b17c891e3200012477a2,6036d830b9a6038d520a84cc,2021-02-24_23h53.06.196,Colour_Similarity_Experiment,2020.2.10,Win32,60,6036d0d9a84aa1626184a6ef,17.31168317,16.65689196,16.65026418,16.66201313,16.65088198,16.65501281,,,,,,,,,,,,,,,,,,,,PF,weak,3,,,,,,,,7,1.798075,,,,,,,,,,,,,,,,,,,,,,,,,,,,2,weak,26,73,1,0,0,response1disk,2,36,-3,11,1,0,0,rectangle,-3,11,1,0,0,3,5,0,0.00441,-3,11,1,0,0,0,35,35,14,1,,,,,,,,,,,,,,,,,,,,,
,,,,,,,,,,,,,,,,,,,,,,,,,,,,,,,,,,,,,,,,,,5c71b17c891e3200012477a2,6036d830b9a6038d520a84cc,2021-02-24_23h53.06.196,Colour_Similarity_Experiment,2020.2.10,Win32,60,6036d0d9a84aa1626184a6ef,17.31168317,16.65689196,16.65026418,16.66201313,16.65088198,16.65501281,,,,,,,,,,,,,,,,,,,,PF,weak,3,,,,,,,,1,2.247735,,,,,,,,,,,,,,,,,,,,,,,,,,,,3,weak,-75,46,1,0,0,response7disk,3,37,-11,1,1,0,0,rectangle,-11,1,1,0,0,3,4,0,0.00277,-11,1,1,0,0,0,36,36,4,1,,,,,,,,,,,,,,,,,,,,,
,,,,,,,,,,,,,,,,,,,,,,,,,,,,,,,,,,,,,,,,,,5c71b17c891e3200012477a2,6036d830b9a6038d520a84cc,2021-02-24_23h53.06.196,Colour_Similarity_Experiment,2020.2.10,Win32,60,6036d0d9a84aa1626184a6ef,17.31168317,16.65689196,16.65026418,16.66201313,16.65088198,16.65501281,,,,,,,,,,,,,,,,,,,,PF,weak,3,,,,,,,,2,1.59835,,,,,,,,,,,,,,,,,,,,,,,,,,,,7,weak,-88,-54,1,0,0,response5disk,8,38,-11,-3,1,0,0,rectangle,-11,-3,1,0,0,3,5,0,0.00337,-11,-3,1,0,0,0,37,37,140,1,,,,,,,,,,,,,,,,,,,,,
,,,,,,,,,,,,,,,,,,,,,,,,,,,,,,,,,,,,,,,,,,5c71b17c891e3200012477a2,6036d830b9a6038d520a84cc,2021-02-24_23h53.06.196,Colour_Similarity_Experiment,2020.2.10,Win32,60,6036d0d9a84aa1626184a6ef,17.31168317,16.65689196,16.65026418,16.66201313,16.65088198,16.65501281,,,,,,,,,,,,,,,,,,,,PF,strong,3,,,,,,,,7,1.82789,,,,,,,,,,,,,,,,,,,,,,,,,,,,1,strong,46,109,1,0,0,response1disk,2,39,-6,5,1,0,0,rectangle,-6,5,1,0,0,3,7,0,0.002405,-6,5,1,0,0,0,38,38,2,1,,,,,,,,,,,,,,,,,,,,,
,,,,,,,,,,,,,,,,,,,,,,,,,,,,,,,,,,,,,,,,,,5c71b17c891e3200012477a2,6036d830b9a6038d520a84cc,2021-02-24_23h53.06.196,Colour_Similarity_Experiment,2020.2.10,Win32,60,6036d0d9a84aa1626184a6ef,17.31168317,16.65689196,16.65026418,16.66201313,16.65088198,16.65501281,,,,,,,,,,,,,,,,,,,,PF,weak,3,,,,,,,,7,0.632425,,,,,,,,,,,,,,,,,,,,,,,,,,,,9,weak,23,67,1,0,0,response1disk,8,40,-10,-9,1,0,0,rectangle,-10,-9,1,0,0,3,7,0,0.000265,-10,-9,1,0,0,0,39,39,67,1,,,,,,,,,,,,,,,,,,,,,
,,,,,,,,,,,,,,,,,,,,,,,,,,,,,,,,,,,,,,,,,,5c71b17c891e3200012477a2,6036d830b9a6038d520a84cc,2021-02-24_23h53.06.196,Colour_Similarity_Experiment,2020.2.10,Win32,60,6036d0d9a84aa1626184a6ef,17.31168317,16.65689196,16.65026418,16.66201313,16.65088198,16.65501281,,,,,,,,,,,,,,,,,,,,PF,weak,3,,,,,,,,7,1.049265,,,,,,,,,,,,,,,,,,,,,,,,,,,,7,weak,39,91,1,0,0,response1disk,4,41,8,1,1,0,0,rectangle,8,1,1,0,0,3,0,0,0.00219,8,1,1,0,0,0,40,40,43,1,,,,,,,,,,,,,,,,,,,,,
,,,,,,,,,,,,,,,,,,,,,,,,,,,,,,,,,,,,,,,,,,5c71b17c891e3200012477a2,6036d830b9a6038d520a84cc,2021-02-24_23h53.06.196,Colour_Similarity_Experiment,2020.2.10,Win32,60,6036d0d9a84aa1626184a6ef,17.31168317,16.65689196,16.65026418,16.66201313,16.65088198,16.65501281,,,,,,,,,,,,,,,,,,,,PF,weak,3,,,,,,,,7,0.76594,,,,,,,,,,,,,,,,,,,,,,,,,,,,6,weak,42,80,1,0,0,response1disk,2,42,-1,1,1,0,0,rectangle,-1,1,1,0,0,3,0,0,0.000195,-1,1,1,0,0,0,41,41,130,1,,,,,,,,,,,,,,,,,,,,,
,,,,,,,,,,,,,,,,,,,,,,,,,,,,,,,,,,,,,,,,,,5c71b17c891e3200012477a2,6036d830b9a6038d520a84cc,2021-02-24_23h53.06.196,Colour_Similarity_Experiment,2020.2.10,Win32,60,6036d0d9a84aa1626184a6ef,17.31168317,16.65689196,16.65026418,16.66201313,16.65088198,16.65501281,,,,,,,,,,,,,,,,,,,,PF,strong,3,,,,,,,,7,0.67883,,,,,,,,,,,,,,,,,,,,,,,,,,,,2,strong,29,68,1,0,0,response1disk,5,43,-2,-2,1,0,0,rectangle,-2,-2,1,0,0,3,4,0,0.002325,-2,-2,1,0,0,0,42,42,80,1,,,,,,,,,,,,,,,,,,,,,
,,,,,,,,,,,,,,,,,,,,,,,,,,,,,,,,,,,,,,,,,,5c71b17c891e3200012477a2,6036d830b9a6038d520a84cc,2021-02-24_23h53.06.196,Colour_Similarity_Experiment,2020.2.10,Win32,60,6036d0d9a84aa1626184a6ef,17.31168317,16.65689196,16.65026418,16.66201313,16.65088198,16.65501281,,,,,,,,,,,,,,,,,,,,PF,strong,3,,,,,,,,7,0.64898,,,,,,,,,,,,,,,,,,,,,,,,,,,,6,strong,35,77,1,0,0,response1disk,9,44,-2,-2,1,0,0,rectangle,-37,98,1,0,0,0,0,1,2.19766,4,7,1,0,0,0,43,43,160,1,response7disk_3,rectangle,,,,,,,,,,,,,,,,,,,
,,,,,,,,,,,,,,,,,,,,,,,,,,,,,,,,,,,,,,,,,,5c71b17c891e3200012477a2,6036d830b9a6038d520a84cc,2021-02-24_23h53.06.196,Colour_Similarity_Experiment,2020.2.10,Win32,60,6036d0d9a84aa1626184a6ef,17.31168317,16.65689196,16.65026418,16.66201313,16.65088198,16.65501281,,,,,,,,,,,,,,,,,,,,PF,weak,3,,,,,,,,7,1.61536,,,,,,,,,,,,,,,,,,,,,,,,,,,,4,weak,42,75,1,0,0,response1disk,9,45,6,5,1,0,0,rectangle,6,5,1,0,0,0,4,0,0.002785,6,5,1,0,0,0,44,44,75,1,,,,,,,,,,,,,,,,,,,,,
,,,,,,,,,,,,,,,,,,,,,,,,,,,,,,,,,,,,,,,,,,5c71b17c891e3200012477a2,6036d830b9a6038d520a84cc,2021-02-24_23h53.06.196,Colour_Similarity_Experiment,2020.2.10,Win32,60,6036d0d9a84aa1626184a6ef,17.31168317,16.65689196,16.65026418,16.66201313,16.65088198,16.65501281,,,,,,,,,,,,,,,,,,,,PF,weak,3,,,,,,,,0,1.77844,,,,,,,,,,,,,,,,,,,,,,,,,,,,8,weak,-33,84,1,0,0,response7disk,8,46,10,6,1,0,0,rectangle,10,6,1,0,0,0,6,0,0.00237,10,6,1,0,0,0,45,45,153,1,,,,,,,,,,,,,,,,,,,,,
,,,,,,,,,,,,,,,,,,,,,,,,,,,,,,,,,,,,,,,,,,5c71b17c891e3200012477a2,6036d830b9a6038d520a84cc,2021-02-24_23h53.06.196,Colour_Similarity_Experiment,2020.2.10,Win32,60,6036d0d9a84aa1626184a6ef,17.31168317,16.65689196,16.65026418,16.66201313,16.65088198,16.65501281,,,,,,,,,,,,,,,,,,,,PF,weak,3,,,,,,,,7,1.964395,,,,,,,,,,,,,,,,,,,,,,,,,,,,7,weak,54,83,1,0,0,response1disk,5,47,5,9,1,0,0,rectangle,5,9,1,0,0,0,6,0,0.00016,5,9,1,0,0,0,46,46,92,1,,,,,,,,,,,,,,,,,,,,,
,,,,,,,,,,,,,,,,,,,,,,,,,,,,,,,,,,,,,,,,,,5c71b17c891e3200012477a2,6036d830b9a6038d520a84cc,2021-02-24_23h53.06.196,Colour_Similarity_Experiment,2020.2.10,Win32,60,6036d0d9a84aa1626184a6ef,17.31168317,16.65689196,16.65026418,16.66201313,16.65088198,16.65501281,,,,,,,,,,,,,,,,,,,,PF,weak,3,,,,,,,,7,0.77725,,,,,,,,,,,,,,,,,,,,,,,,,,,,8,weak,25,64,1,0,0,response1disk,5,48,-6,-5,1,0,0,rectangle,-6,-5,1,0,0,0,4,0,0.003325,-6,-5,1,0,0,0,47,47,98,1,,,,,,,,,,,,,,,,,,,,,
,,,,,,,,,,,,,,,,,,,,,,,,,,,,,,,,,,,,,,,,,,5c71b17c891e3200012477a2,6036d830b9a6038d520a84cc,2021-02-24_23h53.06.196,Colour_Similarity_Experiment,2020.2.10,Win32,60,6036d0d9a84aa1626184a6ef,17.31168317,16.65689196,16.65026418,16.66201313,16.65088198,16.65501281,,,,,,,,,,,,,,,,,,,,PF,strong,3,,,,,,,,1,3.27989,,,,,,,,,,,,,,,,,,,,,,,,,,,,4,strong,-93,43,1,0,0,response7disk,4,49,0,5,1,0,0,rectangle,0,5,1,0,0,0,5,0,0.00327,0,5,1,0,0,0,48,48,84,1,,,,,,,,,,,,,,,,,,,,,
,,,,,,,,,,,,,,,,,,,,,,,,,,,,,,,,,,,,,,,,,,5c71b17c891e3200012477a2,6036d830b9a6038d520a84cc,2021-02-24_23h53.06.196,Colour_Similarity_Experiment,2020.2.10,Win32,60,6036d0d9a84aa1626184a6ef,17.31168317,16.65689196,16.65026418,16.66201313,16.65088198,16.65501281,,,,,,,,,,,,,,,,,,,,PF,strong,3,,,,,,,,7,1.398855,,,,,,,,,,,,,,,,,,,,,,,,,,,,2,strong,57,84,1,0,0,response1disk,7,50,-4,8,1,0,0,rectangle,-4,8,1,0,0,0,5,0,0.000225,-4,8,1,0,0,0,49,49,63,1,,,,,,,,,,,,,,,,,,,,,
,,,,,,,,,,,,,,,,,,,,,,,,,,,,,,,,,,,,,,,,,,5c71b17c891e3200012477a2,6036d830b9a6038d520a84cc,2021-02-24_23h53.06.196,Colour_Similarity_Experiment,2020.2.10,Win32,60,6036d0d9a84aa1626184a6ef,17.31168317,16.65689196,16.65026418,16.66201313,16.65088198,16.65501281,,,,,,,,,,,,,,,,,,,,PF,strong,3,,,,,,,,7,1.08084,,,,,,,,,,,,,,,,,,,,,,,,,,,,9,strong,36,67,1,0,0,response1disk,2,51,-11,0,1,0,0,rectangle,39,97,1,0,0,7,7,1,2.713335,-2,3,1,0,0,0,50,50,11,1,response1disk_3,rectangle,,,,,,,,,,,,,,,,,,,
,,,,,,,,,,,,,,,,,,,,,,,,,,,,,,,,,,,,,,,,,,5c71b17c891e3200012477a2,6036d830b9a6038d520a84cc,2021-02-24_23h53.06.196,Colour_Similarity_Experiment,2020.2.10,Win32,60,6036d0d9a84aa1626184a6ef,17.31168317,16.65689196,16.65026418,16.66201313,16.65088198,16.65501281,,,,,,,,,,,,,,,,,,,,PF,weak,3,,,,,,,,1,1.58193,,,,,,,,,,,,,,,,,,,,,,,,,,,,4,weak,-66,37,1,0,0,response7disk,3,52,-11,3,1,0,0,rectangle,-11,3,1,0,0,7,4,0,0.00251,-11,3,1,0,0,0,51,51,89,1,,,,,,,,,,,,,,,,,,,,,
,,,,,,,,,,,,,,,,,,,,,,,,,,,,,,,,,,,,,,,,,,5c71b17c891e3200012477a2,6036d830b9a6038d520a84cc,2021-02-24_23h53.06.196,Colour_Similarity_Experiment,2020.2.10,Win32,60,6036d0d9a84aa1626184a6ef,17.31168317,16.65689196,16.65026418,16.66201313,16.65088198,16.65501281,,,,,,,,,,,,,,,,,,,,PF,strong,3,,,,,,,,7,1.99838,,,,,,,,,,,,,,,,,,,,,,,,,,,,8,strong,30,65,1,0,0,response1disk,5,53,5,1,1,0,0,rectangle,5,1,1,0,0,7,3,0,0.00239,5,1,1,0,0,0,52,52,152,1,,,,,,,,,,,,,,,,,,,,,
,,,,,,,,,,,,,,,,,,,,,,,,,,,,,,,,,,,,,,,,,,5c71b17c891e3200012477a2,6036d830b9a6038d520a84cc,2021-02-24_23h53.06.196,Colour_Similarity_Experiment,2020.2.10,Win32,60,6036d0d9a84aa1626184a6ef,17.31168317,16.65689196,16.65026418,16.66201313,16.65088198,16.65501281,,,,,,,,,,,,,,,,,,,,PF,strong,3,,,,,,,,1,2.114805,,,,,,,,,,,,,,,,,,,,,,,,,,,,4,strong,-86,49,1,0,0,response7disk,3,54,0,-5,1,0,0,rectangle,0,-5,1,0,0,7,0,0,0.003305,0,-5,1,0,0,0,53,53,77,1,,,,,,,,,,,,,,,,,,,,,
,,,,,,,,,,,,,,,,,,,,,,,,,,,,,,,,,,,,,,,,,,5c71b17c891e3200012477a2,6036d830b9a6038d520a84cc,2021-02-24_23h53.06.196,Colour_Similarity_Experiment,2020.2.10,Win32,60,6036d0d9a84aa1626184a6ef,17.31168317,16.65689196,16.65026418,16.66201313,16.65088198,16.65501281,,,,,,,,,,,,,,,,,,,,PF,strong,3,,,,,,,,7,1.731565,,,,,,,,,,,,,,,,,,,,,,,,,,,,1,strong,43,92,1,0,0,response1disk,3,55,-12,-4,1,0,0,rectangle,-12,-4,1,0,0,7,3,0,0.00282,-12,-4,1,0,0,0,54,54,99,1,,,,,,,,,,,,,,,,,,,,,
,,,,,,,,,,,,,,,,,,,,,,,,,,,,,,,,,,,,,,,,,,5c71b17c891e3200012477a2,6036d830b9a6038d520a84cc,2021-02-24_23h53.06.196,Colour_Similarity_Experiment,2020.2.10,Win32,60,6036d0d9a84aa1626184a6ef,17.31168317,16.65689196,16.65026418,16.66201313,16.65088198,16.65501281,,,,,,,,,,,,,,,,,,,,PF,weak,3,,,,,,,,7,1.09942,,,,,,,,,,,,,,,,,,,,,,,,,,,,9,weak,26,56,1,0,0,response1disk,7,56,-8,-5,1,0,0,rectangle,-8,-5,1,0,0,7,6,0,0.00228,-8,-5,1,0,0,0,55,55,121,1,,,,,,,,,,,,,,,,,,,,,
,,,,,,,,,,,,,,,,,,,,,,,,,,,,,,,,,,,,,,,,,,5c71b17c891e3200012477a2,6036d830b9a6038d520a84cc,2021-02-24_23h53.06.196,Colour_Similarity_Experiment,2020.2.10,Win32,60,6036d0d9a84aa1626184a6ef,17.31168317,16.65689196,16.65026418,16.66201313,16.65088198,16.65501281,,,,,,,,,,,,,,,,,,,,PF,strong,3,,,,,,,,7,1.0823,,,,,,,,,,,,,,,,,,,,,,,,,,,,2,strong,45,73,1,0,0,response1disk,1,57,-3,4,1,0,0,rectangle,-3,4,1,0,0,7,0,0,0.00073,-3,4,1,0,0,0,56,56,85,1,,,,,,,,,,,,,,,,,,,,,
,,,,,,,,,,,,,,,,,,,,,,,,,,,,,,,,,,,,,,,,,,5c71b17c891e3200012477a2,6036d830b9a6038d520a84cc,2021-02-24_23h53.06.196,Colour_Similarity_Experiment,2020.2.10,Win32,60,6036d0d9a84aa1626184a6ef,17.31168317,16.65689196,16.65026418,16.66201313,16.65088198,16.65501281,,,,,,,,,,,,,,,,,,,,PF,strong,3,,,,,,,,7,1.082565,,,,,,,,,,,,,,,,,,,,,,,,,,,,4,strong,38,83,1,0,0,response1disk,8,58,-3,9,1,0,0,rectangle,-3,9,1,0,0,7,3,0,0.003265,-3,9,1,0,0,0,57,57,35,1,,,,,,,,,,,,,,,,,,,,,
,,,,,,,,,,,,,,,,,,,,,,,,,,,,,,,,,,,,,,,,,,5c71b17c891e3200012477a2,6036d830b9a6038d520a84cc,2021-02-24_23h53.06.196,Colour_Similarity_Experiment,2020.2.10,Win32,60,6036d0d9a84aa1626184a6ef,17.31168317,16.65689196,16.65026418,16.66201313,16.65088198,16.65501281,,,,,,,,,,,,,,,,,,,,PF,strong,3,,,,,,,,7,1.015685,,,,,,,,,,,,,,,,,,,,,,,,,,,,1,strong,52,84,1,0,0,response1disk,4,59,-7,-5,1,0,0,rectangle,-7,-5,1,0,0,7,2,0,0.003515,-7,-5,1,0,0,0,58,58,135,1,,,,,,,,,,,,,,,,,,,,,
,,,,,,,,,,,,,,,,,,,,,,,,,,,,,,,,,,,,,,,,,,5c71b17c891e3200012477a2,6036d830b9a6038d520a84cc,2021-02-24_23h53.06.196,Colour_Similarity_Experiment,2020.2.10,Win32,60,6036d0d9a84aa1626184a6ef,17.31168317,16.65689196,16.65026418,16.66201313,16.65088198,16.65501281,,,,,,,,,,,,,,,,,,,,PF,strong,3,,,,,,,,3,2.544205,,,,,,,,,,,,,,,,,,,,,,,,,,,,8,strong,-30,-87,1,0,0,response5disk,7,60,-9,0,1,0,0,rectangle,-9,0,1,0,0,7,1,0,0.00203,-9,0,1,0,0,0,59,59,86,1,,,,,,,,,,,,,,,,,,,,,
,,,,,,,,,,,,,,,,,,,,,,,,,,,,,,,,,,,,,,,,,,5c71b17c891e3200012477a2,6036d830b9a6038d520a84cc,2021-02-24_23h53.06.196,Colour_Similarity_Experiment,2020.2.10,Win32,60,6036d0d9a84aa1626184a6ef,17.31168317,16.65689196,16.65026418,16.66201313,16.65088198,16.65501281,,,,,,,,,,,,,,,,,,,,PF,strong,3,,,,,,,,1,2.24432,,,,,,,,,,,,,,,,,,,,,,,,,,,,3,strong,-92,41,1,0,0,response7disk,4,61,4,-7,1,0,0,rectangle,4,-7,1,0,0,7,0,0,0.001725,4,-7,1,0,0,0,60,60,110,1,,,,,,,,,,,,,,,,,,,,,
,,,,,,,,,,,,,,,,,,,,,,,,,,,,,,,,,,,,,,,,,,5c71b17c891e3200012477a2,6036d830b9a6038d520a84cc,2021-02-24_23h53.06.196,Colour_Similarity_Experiment,2020.2.10,Win32,60,6036d0d9a84aa1626184a6ef,17.31168317,16.65689196,16.65026418,16.66201313,16.65088198,16.65501281,,,,,,,,,,,,,,,,,,,,PF,strong,3,,,,,,,,3,1.414995,,,,,,,,,,,,,,,,,,,,,,,,,,,,5,strong,-23,-93,1,0,0,response5disk,3,62,-2,-1,1,0,0,rectangle,-2,-1,1,0,0,7,1,0,0.003215,-2,-1,1,0,0,0,61,61,25,1,,,,,,,,,,,,,,,,,,,,,
,,,,,,,,,,,,,,,,,,,,,,,,,,,,,,,,,,,,,,,,,,5c71b17c891e3200012477a2,6036d830b9a6038d520a84cc,2021-02-24_23h53.06.196,Colour_Similarity_Experiment,2020.2.10,Win32,60,6036d0d9a84aa1626184a6ef,17.31168317,16.65689196,16.65026418,16.66201313,16.65088198,16.65501281,,,,,,,,,,,,,,,,,,,,PF,weak,3,,,,,,,,7,1.33203,,,,,,,,,,,,,,,,,,,,,,,,,,,,8,weak,34,82,1,0,0,response1disk,4,63,6,1,1,0,0,rectangle,6,1,1,0,0,7,4,0,0.002835,6,1,1,0,0,0,62,62,78,1,,,,,,,,,,,,,,,,,,,,,
,,,,,,,,,,,,,,,,,,,,,,,,,,,,,,,,,,,,,,,,,,5c71b17c891e3200012477a2,6036d830b9a6038d520a84cc,2021-02-24_23h53.06.196,Colour_Similarity_Experiment,2020.2.10,Win32,60,6036d0d9a84aa1626184a6ef,17.31168317,16.65689196,16.65026418,16.66201313,16.65088198,16.65501281,,,,,,,,,,,,,,,,,,,,PF,weak,3,,,,,,,,7,3.03012,,,,,,,,,,,,,,,,,,,,,,,,,,,,6,weak,40,79,1,0,0,response1disk,5,64,-10,-12,1,0,0,rectangle,-10,-12,1,0,0,7,2,0,0.003015,-10,-12,1,0,0,0,63,63,59,1,,,,,,,,,,,,,,,,,,,,,
,,,,,,,,,,,,,,,,,,,,,,,,,,,,,,,,,,,,,,,,,,5c71b17c891e3200012477a2,6036d830b9a6038d520a84cc,2021-02-24_23h53.06.196,Colour_Similarity_Experiment,2020.2.10,Win32,60,6036d0d9a84aa1626184a6ef,17.31168317,16.65689196,16.65026418,16.66201313,16.65088198,16.65501281,,,,,,,,,,,,,,,,,,,,PF,weak,3,,,,,,,,7,1.03224,,,,,,,,,,,,,,,,,,,,,,,,,,,,3,weak,29,91,1,0,0,response1disk,7,65,2,13,1,0,0,rectangle,2,13,1,0,0,7,3,0,0.00326,2,13,1,0,0,0,64,64,41,1,,,,,,,,,,,,,,,,,,,,,
,,,,,,,,,,,,,,,,,,,,,,,,,,,,,,,,,,,,,,,,,,5c71b17c891e3200012477a2,6036d830b9a6038d520a84cc,2021-02-24_23h53.06.196,Colour_Similarity_Experiment,2020.2.10,Win32,60,6036d0d9a84aa1626184a6ef,17.31168317,16.65689196,16.65026418,16.66201313,16.65088198,16.65501281,,,,,,,,,,,,,,,,,,,,PF,weak,3,,,,,,,,0,2.996905,,,,,,,,,,,,,,,,,,,,,,,,,,,,1,weak,-31,84,1,0,0,response7disk,1,66,8,12,1,0,0,rectangle,101,39,1,0,0,6,6,1,2.56383,10,8,1,0,0,0,65,65,76,1,response1disk_3,rectangle,,,,,,,,,,,,,,,,,,,
,,,,,,,,,,,,,,,,,,,,,,,,,,,,,,,,,,,,,,,,,,5c71b17c891e3200012477a2,6036d830b9a6038d520a84cc,2021-02-24_23h53.06.196,Colour_Similarity_Experiment,2020.2.10,Win32,60,6036d0d9a84aa1626184a6ef,17.31168317,16.65689196,16.65026418,16.66201313,16.65088198,16.65501281,,,,,,,,,,,,,,,,,,,,PF,weak,3,,,,,,,,7,11.405825,,,,,,,,,,,,,,,,,,,,,,,,,,,,3,weak,40,93,1,0,0,response1disk,2,67,1,7,1,0,0,rectangle,-83,-42,1,0,0,6,2,1,2.530345,-2,6,1,0,0,0,66,66,36,1,response5disk_3,rectangle,,,,,,,,,,,,,,,,,,,
,,,,,,,,,,,,,,,,,,,,,,,,,,,,,,,,,,,,,,,,,,5c71b17c891e3200012477a2,6036d830b9a6038d520a84cc,2021-02-24_23h53.06.196,Colour_Similarity_Experiment,2020.2.10,Win32,60,6036d0d9a84aa1626184a6ef,17.31168317,16.65689196,16.65026418,16.66201313,16.65088198,16.65501281,,,,,,,,,,,,,,,,,,,,PF,strong,3,,,,,,,,7,3.04696,,,,,,,,,,,,,,,,,,,,,,,,,,,,9,strong,41,89,1,0,0,response1disk,1,68,-18,-8,1,0,0,rectangle,-18,-8,1,0,0,6,4,0,0.002765,-18,-8,1,0,0,0,67,67,111,1,,,,,,,,,,,,,,,,,,,,,
,,,,,,,,,,,,,,,,,,,,,,,,,,,,,,,,,,,,,,,,,,5c71b17c891e3200012477a2,6036d830b9a6038d520a84cc,2021-02-24_23h53.06.196,Colour_Similarity_Experiment,2020.2.10,Win32,60,6036d0d9a84aa1626184a6ef,17.31168317,16.65689196,16.65026418,16.66201313,16.65088198,16.65501281,,,,,,,,,,,,,,,,,,,,PF,weak,3,,,,,,,,7,0.896505,,,,,,,,,,,,,,,,,,,,,,,,,,,,4,weak,23,66,1,0,0,response1disk,7,69,0,-9,1,0,0,rectangle,0,-9,1,0,0,6,2,0,0.001945,0,-9,1,0,0,0,68,68,38,1,,,,,,,,,,,,,,,,,,,,,
,,,,,,,,,,,,,,,,,,,,,,,,,,,,,,,,,,,,,,,,,,5c71b17c891e3200012477a2,6036d830b9a6038d520a84cc,2021-02-24_23h53.06.196,Colour_Similarity_Experiment,2020.2.10,Win32,60,6036d0d9a84aa1626184a6ef,17.31168317,16.65689196,16.65026418,16.66201313,16.65088198,16.65501281,,,,,,,,,,,,,,,,,,,,PF,weak,3,,,,,,,,7,0.848375,,,,,,,,,,,,,,,,,,,,,,,,,,,,6,weak,44,71,1,0,0,response1disk,4,70,0,-3,1,0,0,rectangle,0,-3,1,0,0,6,7,0,0.00331,0,-3,1,0,0,0,69,69,33,1,,,,,,,,,,,,,,,,,,,,,
,,,,,,,,,,,,,,,,,,,,,,,,,,,,,,,,,,,,,,,,,,5c71b17c891e3200012477a2,6036d830b9a6038d520a84cc,2021-02-24_23h53.06.196,Colour_Similarity_Experiment,2020.2.10,Win32,60,6036d0d9a84aa1626184a6ef,17.31168317,16.65689196,16.65026418,16.66201313,16.65088198,16.65501281,,,,,,,,,,,,,,,,,,,,PF,strong,3,,,,,,,,3,1.89793,,,,,,,,,,,,,,,,,,,,,,,,,,,,8,strong,-46,-78,1,0,0,response5disk,8,71,-8,-7,1,0,0,rectangle,-8,-7,1,0,0,6,7,0,0.000235,-8,-7,1,0,0,0,70,70,48,1,,,,,,,,,,,,,,,,,,,,,
,,,,,,,,,,,,,,,,,,,,,,,,,,,,,,,,,,,,,,,,,,5c71b17c891e3200012477a2,6036d830b9a6038d520a84cc,2021-02-24_23h53.06.196,Colour_Similarity_Experiment,2020.2.10,Win32,60,6036d0d9a84aa1626184a6ef,17.31168317,16.65689196,16.65026418,16.66201313,16.65088198,16.65501281,,,,,,,,,,,,,,,,,,,,PF,weak,3,,,,,,,,5,5.161485,,,,,,,,,,,,,,,,,,,,,,,,,,,,6,weak,52,-46,1,0,0,response3disk,8,72,11,1,1,0,0,rectangle,11,1,1,0,0,6,1,0,0.0029,11,1,1,0,0,0,71,71,64,1,,,,,,,,,,,,,,,,,,,,,
,,,,,,,,,,,,,,,,,,,,,,,,,,,,,,,,,,,,,,,,,,5c71b17c891e3200012477a2,6036d830b9a6038d520a84cc,2021-02-24_23h53.06.196,Colour_Similarity_Experiment,2020.2.10,Win32,60,6036d0d9a84aa1626184a6ef,17.31168317,16.65689196,16.65026418,16.66201313,16.65088198,16.65501281,,,,,,,,,,,,,,,,,,,,PF,strong,3,,,,,,,,7,1.58185,,,,,,,,,,,,,,,,,,,,,,,,,,,,7,strong,45,69,1,0,0,response1disk,4,73,-4,0,1,0,0,rectangle,-4,0,1,0,0,6,2,0,0.002755,-4,0,1,0,0,0,72,72,158,1,,,,,,,,,,,,,,,,,,,,,
,,,,,,,,,,,,,,,,,,,,,,,,,,,,,,,,,,,,,,,,,,5c71b17c891e3200012477a2,6036d830b9a6038d520a84cc,2021-02-24_23h53.06.196,Colour_Similarity_Experiment,2020.2.10,Win32,60,6036d0d9a84aa1626184a6ef,17.31168317,16.65689196,16.65026418,16.66201313,16.65088198,16.65501281,,,,,,,,,,,,,,,,,,,,PF,weak,3,,,,,,,,7,1.148995,,,,,,,,,,,,,,,,,,,,,,,,,,,,4,weak,36,84,1,0,0,response1disk,6,74,0,0,1,0,0,rectangle,0,0,1,0,0,6,3,0,0.00292,0,0,1,0,0,0,73,73,120,1,,,,,,,,,,,,,,,,,,,,,
,,,,,,,,,,,,,,,,,,,,,,,,,,,,,,,,,,,,,,,,,,5c71b17c891e3200012477a2,6036d830b9a6038d520a84cc,2021-02-24_23h53.06.196,Colour_Similarity_Experiment,2020.2.10,Win32,60,6036d0d9a84aa1626184a6ef,17.31168317,16.65689196,16.65026418,16.66201313,16.65088198,16.65501281,,,,,,,,,,,,,,,,,,,,PF,strong,3,,,,,,,,7,1.082075,,,,,,,,,,,,,,,,,,,,,,,,,,,,2,strong,35,69,1,0,0,response1disk,8,75,-1,1,1,0,0,rectangle,-1,1,1,0,0,6,7,0,0.003205,-1,1,1,0,0,0,74,74,62,1,,,,,,,,,,,,,,,,,,,,,
,,,,,,,,,,,,,,,,,,,,,,,,,,,,,,,,,,,,,,,,,,5c71b17c891e3200012477a2,6036d830b9a6038d520a84cc,2021-02-24_23h53.06.196,Colour_Similarity_Experiment,2020.2.10,Win32,60,6036d0d9a84aa1626184a6ef,17.31168317,16.65689196,16.65026418,16.66201313,16.65088198,16.65501281,,,,,,,,,,,,,,,,,,,,PF,strong,3,,,,,,,,7,1.03307,,,,,,,,,,,,,,,,,,,,,,,,,,,,7,strong,58,94,1,0,0,response1disk,3,76,4,1,1,0,0,rectangle,4,1,1,0,0,6,7,0,0.000195,4,1,1,0,0,0,75,75,73,1,,,,,,,,,,,,,,,,,,,,,
,,,,,,,,,,,,,,,,,,,,,,,,,,,,,,,,,,,,,,,,,,5c71b17c891e3200012477a2,6036d830b9a6038d520a84cc,2021-02-24_23h53.06.196,Colour_Similarity_Experiment,2020.2.10,Win32,60,6036d0d9a84aa1626184a6ef,17.31168317,16.65689196,16.65026418,16.66201313,16.65088198,16.65501281,,,,,,,,,,,,,,,,,,,,PF,weak,3,,,,,,,,7,0.89849,,,,,,,,,,,,,,,,,,,,,,,,,,,,5,weak,37,67,1,0,0,response1disk,8,77,-1,3,1,0,0,rectangle,-1,3,1,0,0,6,3,0,0.00305,-1,3,1,0,0,0,76,76,149,1,,,,,,,,,,,,,,,,,,,,,
,,,,,,,,,,,,,,,,,,,,,,,,,,,,,,,,,,,,,,,,,,5c71b17c891e3200012477a2,6036d830b9a6038d520a84cc,2021-02-24_23h53.06.196,Colour_Similarity_Experiment,2020.2.10,Win32,60,6036d0d9a84aa1626184a6ef,17.31168317,16.65689196,16.65026418,16.66201313,16.65088198,16.65501281,,,,,,,,,,,,,,,,,,,,PF,weak,3,,,,,,,,7,2.111925,,,,,,,,,,,,,,,,,,,,,,,,,,,,9,weak,34,94,1,0,0,response1disk,1,78,1,15,1,0,0,rectangle,1,15,1,0,0,6,0,0,0.002895,1,15,1,0,0,0,77,77,74,1,,,,,,,,,,,,,,,,,,,,,
,,,,,,,,,,,,,,,,,,,,,,,,,,,,,,,,,,,,,,,,,,5c71b17c891e3200012477a2,6036d830b9a6038d520a84cc,2021-02-24_23h53.06.196,Colour_Similarity_Experiment,2020.2.10,Win32,60,6036d0d9a84aa1626184a6ef,17.31168317,16.65689196,16.65026418,16.66201313,16.65088198,16.65501281,,,,,,,,,,,,,,,,,,,,PF,weak,3,,,,,,,,7,1.04864,,,,,,,,,,,,,,,,,,,,,,,,,,,,3,weak,45,77,1,0,0,response1disk,6,79,-2,3,1,0,0,rectangle,-2,3,1,0,0,6,4,0,0.002985,-2,3,1,0,0,0,78,78,47,1,,,,,,,,,,,,,,,,,,,,,
,,,,,,,,,,,,,,,,,,,,,,,,,,,,,,,,,,,,,,,,,,5c71b17c891e3200012477a2,6036d830b9a6038d520a84cc,2021-02-24_23h53.06.196,Colour_Similarity_Experiment,2020.2.10,Win32,60,6036d0d9a84aa1626184a6ef,17.31168317,16.65689196,16.65026418,16.66201313,16.65088198,16.65501281,,,,,,,,,,,,,,,,,,,,PF,strong,3,,,,,,,,7,0.715275,,,,,,,,,,,,,,,,,,,,,,,,,,,,3,strong,39,62,1,0,0,response1disk,1,80,-2,1,1,0,0,rectangle,-2,1,1,0,0,6,5,0,0.00305,-2,1,1,0,0,0,79,79,125,1,,,,,,,,,,,,,,,,,,,,,
,,,,,,,,,,,,,,,,,,,,,,,,,,,,,,,,,,,,,,,,,,5c71b17c891e3200012477a2,6036d830b9a6038d520a84cc,2021-02-24_23h53.06.196,Colour_Similarity_Experiment,2020.2.10,Win32,60,6036d0d9a84aa1626184a6ef,17.31168317,16.65689196,16.65026418,16.66201313,16.65088198,16.65501281,,,,,,,,,,,,,,,,,,,,PF,weak,3,,,,,,,,7,1.245765,,,,,,,,,,,,,,,,,,,,,,,,,,,,8,weak,32,65,1,0,0,response1disk,3,81,-5,7,1,0,0,rectangle,-5,7,1,0,0,6,4,0,0.002425,-5,7,1,0,0,0,80,80,71,1,,,,,,,,,,,,,,,,,,,,,
,,,,,,,,,,,,,,,,,,,,,,,,,,,,,,,,,,,,,,,,,,5c71b17c891e3200012477a2,6036d830b9a6038d520a84cc,2021-02-24_23h53.06.196,Colour_Similarity_Experiment,2020.2.10,Win32,60,6036d0d9a84aa1626184a6ef,17.31168317,16.65689196,16.65026418,16.66201313,16.65088198,16.65501281,,,,,,,,,,,,,,,,,,,,PF,weak,3,,,,,,,,0,1.36536,,,,,,,,,,,,,,,,,,,,,,,,,,,,6,weak,-29,83,1,0,0,response7disk,6,82,3,8,1,0,0,rectangle,3,8,1,0,0,6,7,0,0.002465,3,8,1,0,0,0,81,81,0,1,,,,,,,,,,,,,,,,,,,,,
,,,,,,,,,,,,,,,,,,,,,,,,,,,,,,,,,,,,,,,,,,5c71b17c891e3200012477a2,6036d830b9a6038d520a84cc,2021-02-24_23h53.06.196,Colour_Similarity_Experiment,2020.2.10,Win32,60,6036d0d9a84aa1626184a6ef,17.31168317,16.65689196,16.65026418,16.66201313,16.65088198,16.65501281,,,,,,,,,,,,,,,,,,,,PF,strong,3,,,,,,,,7,1.18242,,,,,,,,,,,,,,,,,,,,,,,,,,,,5,strong,43,84,1,0,0,response1disk,6,83,1,9,1,0,0,rectangle,1,9,1,0,0,6,5,0,0.00289,1,9,1,0,0,0,82,82,12,1,,,,,,,,,,,,,,,,,,,,,
,,,,,,,,,,,,,,,,,,,,,,,,,,,,,,,,,,,,,,,,,,5c71b17c891e3200012477a2,6036d830b9a6038d520a84cc,2021-02-24_23h53.06.196,Colour_Similarity_Experiment,2020.2.10,Win32,60,6036d0d9a84aa1626184a6ef,17.31168317,16.65689196,16.65026418,16.66201313,16.65088198,16.65501281,,,,,,,,,,,,,,,,,,,,PF,strong,3,,,,,,,,7,1.048855,,,,,,,,,,,,,,,,,,,,,,,,,,,,3,strong,48,83,1,0,0,response1disk,6,84,4,6,1,0,0,rectangle,4,6,1,0,0,6,6,0,0.00282,4,6,1,0,0,0,83,83,95,1,,,,,,,,,,,,,,,,,,,,,
,,,,,,,,,,,,,,,,,,,,,,,,,,,,,,,,,,,,,,,,,,5c71b17c891e3200012477a2,6036d830b9a6038d520a84cc,2021-02-24_23h53.06.196,Colour_Similarity_Experiment,2020.2.10,Win32,60,6036d0d9a84aa1626184a6ef,17.31168317,16.65689196,16.65026418,16.66201313,16.65088198,16.65501281,,,,,,,,,,,,,,,,,,,,PF,strong,3,,,,,,,,7,1.07686,,,,,,,,,,,,,,,,,,,,,,,,,,,,9,strong,46,84,1,0,0,response1disk,5,85,-6,3,1,0,0,rectangle,-6,3,1,0,0,6,3,0,0.00178,-6,3,1,0,0,0,84,84,128,1,,,,,,,,,,,,,,,,,,,,,
,,,,,,,,,,,,,,,,,,,,,,,,,,,,,,,,,,,,,,,,,,5c71b17c891e3200012477a2,6036d830b9a6038d520a84cc,2021-02-24_23h53.06.196,Colour_Similarity_Experiment,2020.2.10,Win32,60,6036d0d9a84aa1626184a6ef,17.31168317,16.65689196,16.65026418,16.66201313,16.65088198,16.65501281,,,,,,,,,,,,,,,,,,,,PF,weak,3,,,,,,,,7,1.21559,,,,,,,,,,,,,,,,,,,,,,,,,,,,1,weak,40,92,1,0,0,response1disk,5,86,-4,3,1,0,0,rectangle,-4,3,1,0,0,6,3,0,0.00018,-4,3,1,0,0,0,85,85,28,1,,,,,,,,,,,,,,,,,,,,,
,,,,,,,,,,,,,,,,,,,,,,,,,,,,,,,,,,,,,,,,,,5c71b17c891e3200012477a2,6036d830b9a6038d520a84cc,2021-02-24_23h53.06.196,Colour_Similarity_Experiment,2020.2.10,Win32,60,6036d0d9a84aa1626184a6ef,17.31168317,16.65689196,16.65026418,16.66201313,16.65088198,16.65501281,,,,,,,,,,,,,,,,,,,,PF,strong,3,,,,,,,,1,2.04768,,,,,,,,,,,,,,,,,,,,,,,,,,,,5,strong,-71,42,1,0,0,response7disk,5,87,4,12,1,0,0,rectangle,4,12,1,0,0,6,3,0,0.000135,4,12,1,0,0,0,86,86,19,1,,,,,,,,,,,,,,,,,,,,,
,,,,,,,,,,,,,,,,,,,,,,,,,,,,,,,,,,,,,,,,,,5c71b17c891e3200012477a2,6036d830b9a6038d520a84cc,2021-02-24_23h53.06.196,Colour_Similarity_Experiment,2020.2.10,Win32,60,6036d0d9a84aa1626184a6ef,17.31168317,16.65689196,16.65026418,16.66201313,16.65088198,16.65501281,,,,,,,,,,,,,,,,,,,,PF,strong,3,,,,,,,,7,1.194355,,,,,,,,,,,,,,,,,,,,,,,,,,,,8,strong,20,65,1,0,0,response1disk,9,88,1,4,1,0,0,rectangle,1,4,1,0,0,6,4,0,0.00169,1,4,1,0,0,0,87,87,105,1,,,,,,,,,,,,,,,,,,,,,
,,,,,,,,,,,,,,,,,,,,,,,,,,,,,,,,,,,,,,,,,,5c71b17c891e3200012477a2,6036d830b9a6038d520a84cc,2021-02-24_23h53.06.196,Colour_Similarity_Experiment,2020.2.10,Win32,60,6036d0d9a84aa1626184a6ef,17.31168317,16.65689196,16.65026418,16.66201313,16.65088198,16.65501281,,,,,,,,,,,,,,,,,,,,PF,weak,3,,,,,,,,3,2.897015,,,,,,,,,,,,,,,,,,,,,,,,,,,,6,weak,-35,-95,1,0,0,response5disk,7,89,6,-11,1,0,0,rectangle,6,-11,1,0,0,6,1,0,0.00264,6,-11,1,0,0,0,88,88,50,1,,,,,,,,,,,,,,,,,,,,,
,,,,,,,,,,,,,,,,,,,,,,,,,,,,,,,,,,,,,,,,,,5c71b17c891e3200012477a2,6036d830b9a6038d520a84cc,2021-02-24_23h53.06.196,Colour_Similarity_Experiment,2020.2.10,Win32,60,6036d0d9a84aa1626184a6ef,17.31168317,16.65689196,16.65026418,16.66201313,16.65088198,16.65501281,,,,,,,,,,,,,,,,,,,,PF,weak,3,,,,,,,,7,1.108965,,,,,,,,,,,,,,,,,,,,,,,,,,,,3,weak,29,63,1,0,0,response1disk,8,90,-6,-2,1,0,0,rectangle,-6,-2,1,0,0,6,4,0,0.00174,-6,-2,1,0,0,0,89,89,3,1,,,,,,,,,,,,,,,,,,,,,
,,,,,,,,,,,,,,,,,,,,,,,,,,,,,,,,,,,,,,,,,,5c71b17c891e3200012477a2,6036d830b9a6038d520a84cc,2021-02-24_23h53.06.196,Colour_Similarity_Experiment,2020.2.10,Win32,60,6036d0d9a84aa1626184a6ef,17.31168317,16.65689196,16.65026418,16.66201313,16.65088198,16.65501281,,,,,,,,,,,,,,,,,,,,PF,strong,3,,,,,,,,7,1.148175,,,,,,,,,,,,,,,,,,,,,,,,,,,,2,strong,20,47,1,0,0,response1disk,4,91,1,5,1,0,0,rectangle,1,5,1,0,0,6,5,0,0.002055,1,5,1,0,0,0,90,90,145,1,,,,,,,,,,,,,,,,,,,,,
,,,,,,,,,,,,,,,,,,,,,,,,,,,,,,,,,,,,,,,,,,5c71b17c891e3200012477a2,6036d830b9a6038d520a84cc,2021-02-24_23h53.06.196,Colour_Similarity_Experiment,2020.2.10,Win32,60,6036d0d9a84aa1626184a6ef,17.31168317,16.65689196,16.65026418,16.66201313,16.65088198,16.65501281,,,,,,,,,,,,,,,,,,,,PF,strong,3,,,,,,,,1,2.031075,,,,,,,,,,,,,,,,,,,,,,,,,,,,8,strong,-63,42,1,0,0,response7disk,6,92,-7,-2,1,0,0,rectangle,-7,-2,1,0,0,6,1,0,0.00266,-7,-2,1,0,0,0,91,91,37,1,,,,,,,,,,,,,,,,,,,,,
,,,,,,,,,,,,,,,,,,,,,,,,,,,,,,,,,,,,,,,,,,5c71b17c891e3200012477a2,6036d830b9a6038d520a84cc,2021-02-24_23h53.06.196,Colour_Similarity_Experiment,2020.2.10,Win32,60,6036d0d9a84aa1626184a6ef,17.31168317,16.65689196,16.65026418,16.66201313,16.65088198,16.65501281,,,,,,,,,,,,,,,,,,,,PF,strong,3,,,,,,,,0,2.347545,,,,,,,,,,,,,,,,,,,,,,,,,,,,9,strong,-42,80,1,0,0,response7disk,9,93,-4,7,1,0,0,rectangle,-4,7,1,0,0,6,6,0,0.002685,-4,7,1,0,0,0,92,92,17,1,,,,,,,,,,,,,,,,,,,,,
,,,,,,,,,,,,,,,,,,,,,,,,,,,,,,,,,,,,,,,,,,5c71b17c891e3200012477a2,6036d830b9a6038d520a84cc,2021-02-24_23h53.06.196,Colour_Similarity_Experiment,2020.2.10,Win32,60,6036d0d9a84aa1626184a6ef,17.31168317,16.65689196,16.65026418,16.66201313,16.65088198,16.65501281,,,,,,,,,,,,,,,,,,,,PF,strong,3,,,,,,,,7,0.99835,,,,,,,,,,,,,,,,,,,,,,,,,,,,4,strong,46,89,1,0,0,response1disk,6,94,-3,7,1,0,0,rectangle,-3,7,1,0,0,6,1,0,0.003275,-3,7,1,0,0,0,93,93,122,1,,,,,,,,,,,,,,,,,,,,,
,,,,,,,,,,,,,,,,,,,,,,,,,,,,,,,,,,,,,,,,,,5c71b17c891e3200012477a2,6036d830b9a6038d520a84cc,2021-02-24_23h53.06.196,Colour_Similarity_Experiment,2020.2.10,Win32,60,6036d0d9a84aa1626184a6ef,17.31168317,16.65689196,16.65026418,16.66201313,16.65088198,16.65501281,,,,,,,,,,,,,,,,,,,,PF,strong,3,,,,,,,,7,0.74768,,,,,,,,,,,,,,,,,,,,,,,,,,,,4,strong,30,71,1,0,0,response1disk,2,95,4,8,1,0,0,rectangle,4,8,1,0,0,6,6,0,0.00299,4,8,1,0,0,0,94,94,13,1,,,,,,,,,,,,,,,,,,,,,
,,,,,,,,,,,,,,,,,,,,,,,,,,,,,,,,,,,,,,,,,,5c71b17c891e3200012477a2,6036d830b9a6038d520a84cc,2021-02-24_23h53.06.196,Colour_Similarity_Experiment,2020.2.10,Win32,60,6036d0d9a84aa1626184a6ef,17.31168317,16.65689196,16.65026418,16.66201313,16.65088198,16.65501281,,,,,,,,,,,,,,,,,,,,PF,strong,3,,,,,,,,6,3.130195,,,,,,,,,,,,,,,,,,,,,,,,,,,,7,strong,78,31,1,0,0,response1disk,8,96,2,-10,1,0,0,rectangle,82,-35,1,0,0,5,5,1,2.380805,-1,-6,1,0,0,0,95,95,97,1,response3disk_3,rectangle,,,,,,,,,,,,,,,,,,,
,,,,,,,,,,,,,,,,,,,,,,,,,,,,,,,,,,,,,,,,,,5c71b17c891e3200012477a2,6036d830b9a6038d520a84cc,2021-02-24_23h53.06.196,Colour_Similarity_Experiment,2020.2.10,Win32,60,6036d0d9a84aa1626184a6ef,17.31168317,16.65689196,16.65026418,16.66201313,16.65088198,16.65501281,,,,,,,,,,,,,,,,,,,,PF,strong,3,,,,,,,,7,1.69803,,,,,,,,,,,,,,,,,,,,,,,,,,,,8,strong,34,75,1,0,0,response1disk,3,97,8,-4,1,0,0,rectangle,8,-4,1,0,0,5,4,0,0.00244,8,-4,1,0,0,0,96,96,154,1,,,,,,,,,,,,,,,,,,,,,
,,,,,,,,,,,,,,,,,,,,,,,,,,,,,,,,,,,,,,,,,,5c71b17c891e3200012477a2,6036d830b9a6038d520a84cc,2021-02-24_23h53.06.196,Colour_Similarity_Experiment,2020.2.10,Win32,60,6036d0d9a84aa1626184a6ef,17.31168317,16.65689196,16.65026418,16.66201313,16.65088198,16.65501281,,,,,,,,,,,,,,,,,,,,PF,weak,3,,,,,,,,7,1.19014,,,,,,,,,,,,,,,,,,,,,,,,,,,,5,weak,30,62,1,0,0,response1disk,6,98,0,9,1,0,0,rectangle,0,9,1,0,0,5,3,0,0.001635,0,9,1,0,0,0,97,97,103,1,,,,,,,,,,,,,,,,,,,,,
,,,,,,,,,,,,,,,,,,,,,,,,,,,,,,,,,,,,,,,,,,5c71b17c891e3200012477a2,6036d830b9a6038d520a84cc,2021-02-24_23h53.06.196,Colour_Similarity_Experiment,2020.2.10,Win32,60,6036d0d9a84aa1626184a6ef,17.31168317,16.65689196,16.65026418,16.66201313,16.65088198,16.65501281,,,,,,,,,,,,,,,,,,,,PF,weak,3,,,,,,,,7,1.06548,,,,,,,,,,,,,,,,,,,,,,,,,,,,5,weak,37,77,1,0,0,response1disk,2,99,-1,7,1,0,0,rectangle,-1,7,1,0,0,5,3,0,0.00255,-1,7,1,0,0,0,98,98,129,1,,,,,,,,,,,,,,,,,,,,,
,,,,,,,,,,,,,,,,,,,,,,,,,,,,,,,,,,,,,,,,,,5c71b17c891e3200012477a2,6036d830b9a6038d520a84cc,2021-02-24_23h53.06.196,Colour_Similarity_Experiment,2020.2.10,Win32,60,6036d0d9a84aa1626184a6ef,17.31168317,16.65689196,16.65026418,16.66201313,16.65088198,16.65501281,,,,,,,,,,,,,,,,,,,,PF,strong,3,,,,,,,,7,0.696345,,,,,,,,,,,,,,,,,,,,,,,,,,,,5,strong,28,72,1,0,0,response1disk,1,100,-12,1,1,0,0,rectangle,-12,1,1,0,0,5,6,0,0.003195,-12,1,1,0,0,0,99,99,131,1,,,,,,,,,,,,,,,,,,,,,
,,,,,,,,,,,,,,,,,,,,,,,,,,,,,,,,,,,,,,,,,,5c71b17c891e3200012477a2,6036d830b9a6038d520a84cc,2021-02-24_23h53.06.196,Colour_Similarity_Experiment,2020.2.10,Win32,60,6036d0d9a84aa1626184a6ef,17.31168317,16.65689196,16.65026418,16.66201313,16.65088198,16.65501281,,,,,,,,,,,,,,,,,,,,PF,strong,3,,,,,,,,6,2.09773,,,,,,,,,,,,,,,,,,,,,,,,,,,,6,strong,65,42,1,0,0,response1disk,7,101,2,0,1,0,0,rectangle,2,0,1,0,0,5,6,0,0.00026,2,0,1,0,0,0,100,100,18,1,,,,,,,,,,,,,,,,,,,,,
,,,,,,,,,,,,,,,,,,,,,,,,,,,,,,,,,,,,,,,,,,5c71b17c891e3200012477a2,6036d830b9a6038d520a84cc,2021-02-24_23h53.06.196,Colour_Similarity_Experiment,2020.2.10,Win32,60,6036d0d9a84aa1626184a6ef,17.31168317,16.65689196,16.65026418,16.66201313,16.65088198,16.65501281,,,,,,,,,,,,,,,,,,,,PF,strong,3,,,,,,,,7,2.33075,,,,,,,,,,,,,,,,,,,,,,,,,,,,2,strong,25,59,1,0,0,response1disk,9,102,10,1,1,0,0,rectangle,10,1,1,0,0,5,5,0,0.00338,10,1,1,0,0,0,101,101,72,1,,,,,,,,,,,,,,,,,,,,,
,,,,,,,,,,,,,,,,,,,,,,,,,,,,,,,,,,,,,,,,,,5c71b17c891e3200012477a2,6036d830b9a6038d520a84cc,2021-02-24_23h53.06.196,Colour_Similarity_Experiment,2020.2.10,Win32,60,6036d0d9a84aa1626184a6ef,17.31168317,16.65689196,16.65026418,16.66201313,16.65088198,16.65501281,,,,,,,,,,,,,,,,,,,,PF,weak,3,,,,,,,,7,1.01617,,,,,,,,,,,,,,,,,,,,,,,,,,,,9,weak,52,83,1,0,0,response1disk,5,103,10,6,1,0,0,rectangle,10,6,1,0,0,5,3,0,0.002595,10,6,1,0,0,0,102,102,134,1,,,,,,,,,,,,,,,,,,,,,
,,,,,,,,,,,,,,,,,,,,,,,,,,,,,,,,,,,,,,,,,,5c71b17c891e3200012477a2,6036d830b9a6038d520a84cc,2021-02-24_23h53.06.196,Colour_Similarity_Experiment,2020.2.10,Win32,60,6036d0d9a84aa1626184a6ef,17.31168317,16.65689196,16.65026418,16.66201313,16.65088198,16.65501281,,,,,,,,,,,,,,,,,,,,PF,strong,3,,,,,,,,7,1.081965,,,,,,,,,,,,,,,,,,,,,,,,,,,,6,strong,39,63,1,0,0,response1disk,8,104,2,-9,1,0,0,rectangle,2,-9,1,0,0,5,7,0,0.00321,2,-9,1,0,0,0,103,103,133,1,,,,,,,,,,,,,,,,,,,,,
,,,,,,,,,,,,,,,,,,,,,,,,,,,,,,,,,,,,,,,,,,5c71b17c891e3200012477a2,6036d830b9a6038d520a84cc,2021-02-24_23h53.06.196,Colour_Similarity_Experiment,2020.2.10,Win32,60,6036d0d9a84aa1626184a6ef,17.31168317,16.65689196,16.65026418,16.66201313,16.65088198,16.65501281,,,,,,,,,,,,,,,,,,,,PF,weak,3,,,,,,,,7,1.281735,,,,,,,,,,,,,,,,,,,,,,,,,,,,2,weak,17,61,1,0,0,response1disk,8,105,1,-3,1,0,0,rectangle,1,-3,1,0,0,5,5,0,0.002895,1,-3,1,0,0,0,104,104,52,1,,,,,,,,,,,,,,,,,,,,,
,,,,,,,,,,,,,,,,,,,,,,,,,,,,,,,,,,,,,,,,,,5c71b17c891e3200012477a2,6036d830b9a6038d520a84cc,2021-02-24_23h53.06.196,Colour_Similarity_Experiment,2020.2.10,Win32,60,6036d0d9a84aa1626184a6ef,17.31168317,16.65689196,16.65026418,16.66201313,16.65088198,16.65501281,,,,,,,,,,,,,,,,,,,,PF,strong,3,,,,,,,,7,1.132625,,,,,,,,,,,,,,,,,,,,,,,,,,,,5,strong,28,64,1,0,0,response1disk,2,106,1,8,1,0,0,rectangle,-33,94,1,0,0,0,0,1,2.34747,1,4,1,0,0,0,105,105,55,1,response7disk_3,rectangle,,,,,,,,,,,,,,,,,,,
,,,,,,,,,,,,,,,,,,,,,,,,,,,,,,,,,,,,,,,,,,5c71b17c891e3200012477a2,6036d830b9a6038d520a84cc,2021-02-24_23h53.06.196,Colour_Similarity_Experiment,2020.2.10,Win32,60,6036d0d9a84aa1626184a6ef,17.31168317,16.65689196,16.65026418,16.66201313,16.65088198,16.65501281,,,,,,,,,,,,,,,,,,,,PF,weak,3,,,,,,,,7,1.98135,,,,,,,,,,,,,,,,,,,,,,,,,,,,9,weak,36,92,1,0,0,response1disk,3,107,7,3,1,0,0,rectangle,7,3,1,0,0,0,5,0,0.00241,7,3,1,0,0,0,106,106,119,1,,,,,,,,,,,,,,,,,,,,,
,,,,,,,,,,,,,,,,,,,,,,,,,,,,,,,,,,,,,,,,,,5c71b17c891e3200012477a2,6036d830b9a6038d520a84cc,2021-02-24_23h53.06.196,Colour_Similarity_Experiment,2020.2.10,Win32,60,6036d0d9a84aa1626184a6ef,17.31168317,16.65689196,16.65026418,16.66201313,16.65088198,16.65501281,,,,,,,,,,,,,,,,,,,,PF,strong,3,,,,,,,,7,1.01565,,,,,,,,,,,,,,,,,,,,,,,,,,,,6,strong,34,78,1,0,0,response1disk,2,108,-5,1,1,0,0,rectangle,-5,1,1,0,0,0,6,0,0.00293,-5,1,1,0,0,0,107,107,112,1,,,,,,,,,,,,,,,,,,,,,
,,,,,,,,,,,,,,,,,,,,,,,,,,,,,,,,,,,,,,,,,,5c71b17c891e3200012477a2,6036d830b9a6038d520a84cc,2021-02-24_23h53.06.196,Colour_Similarity_Experiment,2020.2.10,Win32,60,6036d0d9a84aa1626184a6ef,17.31168317,16.65689196,16.65026418,16.66201313,16.65088198,16.65501281,,,,,,,,,,,,,,,,,,,,PF,strong,3,,,,,,,,7,1.11506,,,,,,,,,,,,,,,,,,,,,,,,,,,,1,strong,42,69,1,0,0,response1disk,7,109,7,6,1,0,0,rectangle,7,6,1,0,0,0,6,0,0.00022,7,6,1,0,0,0,108,108,137,1,,,,,,,,,,,,,,,,,,,,,
,,,,,,,,,,,,,,,,,,,,,,,,,,,,,,,,,,,,,,,,,,5c71b17c891e3200012477a2,6036d830b9a6038d520a84cc,2021-02-24_23h53.06.196,Colour_Similarity_Experiment,2020.2.10,Win32,60,6036d0d9a84aa1626184a6ef,17.31168317,16.65689196,16.65026418,16.66201313,16.65088198,16.65501281,,,,,,,,,,,,,,,,,,,,PF,strong,3,,,,,,,,7,1.19831,,,,,,,,,,,,,,,,,,,,,,,,,,,,8,strong,32,72,1,0,0,response1disk,4,110,-6,12,1,0,0,rectangle,-6,12,1,0,0,0,0,0,0.002815,-6,12,1,0,0,0,109,109,88,1,,,,,,,,,,,,,,,,,,,,,
,,,,,,,,,,,,,,,,,,,,,,,,,,,,,,,,,,,,,,,,,,5c71b17c891e3200012477a2,6036d830b9a6038d520a84cc,2021-02-24_23h53.06.196,Colour_Similarity_Experiment,2020.2.10,Win32,60,6036d0d9a84aa1626184a6ef,17.31168317,16.65689196,16.65026418,16.66201313,16.65088198,16.65501281,,,,,,,,,,,,,,,,,,,,PF,weak,3,,,,,,,,6,1.33035,,,,,,,,,,,,,,,,,,,,,,,,,,,,3,weak,89,42,1,0,0,response1disk,4,111,-3,1,1,0,0,rectangle,-3,1,1,0,0,0,7,0,0.00185,-3,1,1,0,0,0,110,110,30,1,,,,,,,,,,,,,,,,,,,,,
,,,,,,,,,,,,,,,,,,,,,,,,,,,,,,,,,,,,,,,,,,5c71b17c891e3200012477a2,6036d830b9a6038d520a84cc,2021-02-24_23h53.06.196,Colour_Similarity_Experiment,2020.2.10,Win32,60,6036d0d9a84aa1626184a6ef,17.31168317,16.65689196,16.65026418,16.66201313,16.65088198,16.65501281,,,,,,,,,,,,,,,,,,,,PF,weak,3,,,,,,,,7,1.08241,,,,,,,,,,,,,,,,,,,,,,,,,,,,6,weak,32,47,1,0,0,response1disk,9,112,-3,8,1,0,0,rectangle,-3,8,1,0,0,0,0,0,0.00292,-3,8,1,0,0,0,111,111,45,1,,,,,,,,,,,,,,,,,,,,,
,,,,,,,,,,,,,,,,,,,,,,,,,,,,,,,,,,,,,,,,,,5c71b17c891e3200012477a2,6036d830b9a6038d520a84cc,2021-02-24_23h53.06.196,Colour_Similarity_Experiment,2020.2.10,Win32,60,6036d0d9a84aa1626184a6ef,17.31168317,16.65689196,16.65026418,16.66201313,16.65088198,16.65501281,,,,,,,,,,,,,,,,,,,,PF,strong,3,,,,,,,,7,1.028745,,,,,,,,,,,,,,,,,,,,,,,,,,,,3,strong,50,88,1,0,0,response1disk,9,113,-1,8,1,0,0,rectangle,-1,8,1,0,0,0,0,0,0.0001,-1,8,1,0,0,0,112,112,143,1,,,,,,,,,,,,,,,,,,,,,
,,,,,,,,,,,,,,,,,,,,,,,,,,,,,,,,,,,,,,,,,,5c71b17c891e3200012477a2,6036d830b9a6038d520a84cc,2021-02-24_23h53.06.196,Colour_Similarity_Experiment,2020.2.10,Win32,60,6036d0d9a84aa1626184a6ef,17.31168317,16.65689196,16.65026418,16.66201313,16.65088198,16.65501281,,,,,,,,,,,,,,,,,,,,PF,strong,3,,,,,,,,7,1.01538,,,,,,,,,,,,,,,,,,,,,,,,,,,,6,strong,29,59,1,0,0,response1disk,5,114,2,1,1,0,0,rectangle,2,1,1,0,0,0,3,0,0.00242,2,1,1,0,0,0,113,113,126,1,,,,,,,,,,,,,,,,,,,,,
,,,,,,,,,,,,,,,,,,,,,,,,,,,,,,,,,,,,,,,,,,5c71b17c891e3200012477a2,6036d830b9a6038d520a84cc,2021-02-24_23h53.06.196,Colour_Similarity_Experiment,2020.2.10,Win32,60,6036d0d9a84aa1626184a6ef,17.31168317,16.65689196,16.65026418,16.66201313,16.65088198,16.65501281,,,,,,,,,,,,,,,,,,,,PF,strong,3,,,,,,,,6,1.931475,,,,,,,,,,,,,,,,,,,,,,,,,,,,5,strong,93,30,1,0,0,response1disk,4,115,-4,-7,1,0,0,rectangle,-4,-7,1,0,0,0,1,0,0.003385,-4,-7,1,0,0,0,114,114,8,1,,,,,,,,,,,,,,,,,,,,,
,,,,,,,,,,,,,,,,,,,,,,,,,,,,,,,,,,,,,,,,,,5c71b17c891e3200012477a2,6036d830b9a6038d520a84cc,2021-02-24_23h53.06.196,Colour_Similarity_Experiment,2020.2.10,Win32,60,6036d0d9a84aa1626184a6ef,17.31168317,16.65689196,16.65026418,16.66201313,16.65088198,16.65501281,,,,,,,,,,,,,,,,,,,,PF,weak,3,,,,,,,,6,2.875465,,,,,,,,,,,,,,,,,,,,,,,,,,,,3,weak,91,39,1,0,0,response1disk,5,116,-15,1,1,0,0,rectangle,-15,1,1,0,0,0,3,0,0.001765,-15,1,1,0,0,0,115,115,66,1,,,,,,,,,,,,,,,,,,,,,
,,,,,,,,,,,,,,,,,,,,,,,,,,,,,,,,,,,,,,,,,,5c71b17c891e3200012477a2,6036d830b9a6038d520a84cc,2021-02-24_23h53.06.196,Colour_Similarity_Experiment,2020.2.10,Win32,60,6036d0d9a84aa1626184a6ef,17.31168317,16.65689196,16.65026418,16.66201313,16.65088198,16.65501281,,,,,,,,,,,,,,,,,,,,PF,strong,3,,,,,,,,7,1.216,,,,,,,,,,,,,,,,,,,,,,,,,,,,7,strong,28,70,1,0,0,response1disk,2,117,0,1,1,0,0,rectangle,0,1,1,0,0,0,2,0,0.00331,0,1,1,0,0,0,116,116,138,1,,,,,,,,,,,,,,,,,,,,,
,,,,,,,,,,,,,,,,,,,,,,,,,,,,,,,,,,,,,,,,,,5c71b17c891e3200012477a2,6036d830b9a6038d520a84cc,2021-02-24_23h53.06.196,Colour_Similarity_Experiment,2020.2.10,Win32,60,6036d0d9a84aa1626184a6ef,17.31168317,16.65689196,16.65026418,16.66201313,16.65088198,16.65501281,,,,,,,,,,,,,,,,,,,,PF,strong,3,,,,,,,,7,1.09821,,,,,,,,,,,,,,,,,,,,,,,,,,,,9,strong,31,76,1,0,0,response1disk,4,118,-9,5,1,0,0,rectangle,-9,5,1,0,0,0,6,0,0.003345,-9,5,1,0,0,0,117,117,60,1,,,,,,,,,,,,,,,,,,,,,
,,,,,,,,,,,,,,,,,,,,,,,,,,,,,,,,,,,,,,,,,,5c71b17c891e3200012477a2,6036d830b9a6038d520a84cc,2021-02-24_23h53.06.196,Colour_Similarity_Experiment,2020.2.10,Win32,60,6036d0d9a84aa1626184a6ef,17.31168317,16.65689196,16.65026418,16.66201313,16.65088198,16.65501281,,,,,,,,,,,,,,,,,,,,PF,strong,3,,,,,,,,7,1.814225,,,,,,,,,,,,,,,,,,,,,,,,,,,,9,strong,33,81,1,0,0,response1disk,7,119,1,-1,1,0,0,rectangle,1,-1,1,0,0,0,3,0,0.00321,1,-1,1,0,0,0,118,118,100,1,,,,,,,,,,,,,,,,,,,,,
,,,,,,,,,,,,,,,,,,,,,,,,,,,,,,,,,,,,,,,,,,5c71b17c891e3200012477a2,6036d830b9a6038d520a84cc,2021-02-24_23h53.06.196,Colour_Similarity_Experiment,2020.2.10,Win32,60,6036d0d9a84aa1626184a6ef,17.31168317,16.65689196,16.65026418,16.66201313,16.65088198,16.65501281,,,,,,,,,,,,,,,,,,,,PF,strong,3,,,,,,,,0,1.632025,,,,,,,,,,,,,,,,,,,,,,,,,,,,1,strong,-35,82,1,0,0,response7disk,1,120,2,-5,1,0,0,rectangle,2,-5,1,0,0,0,5,0,0.002675,2,-5,1,0,0,0,119,119,151,1,,,,,,,,,,,,,,,,,,,,,
,,,,,,,,,,,,,,,,,,,,,,,,,,,,,,,,,,,,,,,,,,5c71b17c891e3200012477a2,6036d830b9a6038d520a84cc,2021-02-24_23h53.06.196,Colour_Similarity_Experiment,2020.2.10,Win32,60,6036d0d9a84aa1626184a6ef,17.31168317,16.65689196,16.65026418,16.66201313,16.65088198,16.65501281,,,,,,,,,,,,,,,,,,,,PF,strong,3,,,,,,,,7,1.11071,,,,,,,,,,,,,,,,,,,,,,,,,,,,5,strong,28,72,1,0,0,response1disk,8,121,5,6,1,0,0,rectangle,5,6,1,0,0,0,6,0,0.00193,5,6,1,0,0,0,120,120,16,1,,,,,,,,,,,,,,,,,,,,,
,,,,,,,,,,,,,,,,,,,,,,,,,,,,,,,,,,,,,,,,,,5c71b17c891e3200012477a2,6036d830b9a6038d520a84cc,2021-02-24_23h53.06.196,Colour_Similarity_Experiment,2020.2.10,Win32,60,6036d0d9a84aa1626184a6ef,17.31168317,16.65689196,16.65026418,16.66201313,16.65088198,16.65501281,,,,,,,,,,,,,,,,,,,,PF,weak,3,,,,,,,,6,1.43174,,,,,,,,,,,,,,,,,,,,,,,,,,,,5,weak,69,43,1,0,0,response1disk,4,122,7,7,1,0,0,rectangle,7,7,1,0,0,0,5,0,0.00282,7,7,1,0,0,0,121,121,54,1,,,,,,,,,,,,,,,,,,,,,
,,,,,,,,,,,,,,,,,,,,,,,,,,,,,,,,,,,,,,,,,,5c71b17c891e3200012477a2,6036d830b9a6038d520a84cc,2021-02-24_23h53.06.196,Colour_Similarity_Experiment,2020.2.10,Win32,60,6036d0d9a84aa1626184a6ef,17.31168317,16.65689196,16.65026418,16.66201313,16.65088198,16.65501281,,,,,,,,,,,,,,,,,,,,PF,weak,3,,,,,,,,7,0.88252,,,,,,,,,,,,,,,,,,,,,,,,,,,,7,weak,27,83,1,0,0,response1disk,9,123,-4,5,1,0,0,rectangle,-4,5,1,0,0,0,0,0,0.002925,-4,5,1,0,0,0,122,122,10,1,,,,,,,,,,,,,,,,,,,,,
,,,,,,,,,,,,,,,,,,,,,,,,,,,,,,,,,,,,,,,,,,5c71b17c891e3200012477a2,6036d830b9a6038d520a84cc,2021-02-24_23h53.06.196,Colour_Similarity_Experiment,2020.2.10,Win32,60,6036d0d9a84aa1626184a6ef,17.31168317,16.65689196,16.65026418,16.66201313,16.65088198,16.65501281,,,,,,,,,,,,,,,,,,,,PF,weak,3,,,,,,,,7,0.88235,,,,,,,,,,,,,,,,,,,,,,,,,,,,5,weak,25,56,1,0,0,response1disk,9,124,6,7,1,0,0,rectangle,35,95,1,0,0,7,7,1,2.46332,13,2,1,0,0,0,123,123,136,1,response1disk_3,rectangle,,,,,,,,,,,,,,,,,,,
,,,,,,,,,,,,,,,,,,,,,,,,,,,,,,,,,,,,,,,,,,5c71b17c891e3200012477a2,6036d830b9a6038d520a84cc,2021-02-24_23h53.06.196,Colour_Similarity_Experiment,2020.2.10,Win32,60,6036d0d9a84aa1626184a6ef,17.31168317,16.65689196,16.65026418,16.66201313,16.65088198,16.65501281,,,,,,,,,,,,,,,,,,,,PF,weak,3,,,,,,,,7,0.93279,,,,,,,,,,,,,,,,,,,,,,,,,,,,2,weak,45,77,1,0,0,response1disk,6,125,-1,-13,1,0,0,rectangle,-1,-13,1,0,0,7,3,0,0.002595,-1,-13,1,0,0,0,124,124,113,1,,,,,,,,,,,,,,,,,,,,,
,,,,,,,,,,,,,,,,,,,,,,,,,,,,,,,,,,,,,,,,,,5c71b17c891e3200012477a2,6036d830b9a6038d520a84cc,2021-02-24_23h53.06.196,Colour_Similarity_Experiment,2020.2.10,Win32,60,6036d0d9a84aa1626184a6ef,17.31168317,16.65689196,16.65026418,16.66201313,16.65088198,16.65501281,,,,,,,,,,,,,,,,,,,,PF,weak,3,,,,,,,,7,0.91161,,,,,,,,,,,,,,,,,,,,,,,,,,,,8,weak,26,101,1,0,0,response1disk,9,126,-10,13,1,0,0,rectangle,-10,13,1,0,0,7,5,0,0.00192,-10,13,1,0,0,0,125,125,42,1,,,,,,,,,,,,,,,,,,,,,
,,,,,,,,,,,,,,,,,,,,,,,,,,,,,,,,,,,,,,,,,,5c71b17c891e3200012477a2,6036d830b9a6038d520a84cc,2021-02-24_23h53.06.196,Colour_Similarity_Experiment,2020.2.10,Win32,60,6036d0d9a84aa1626184a6ef,17.31168317,16.65689196,16.65026418,16.66201313,16.65088198,16.65501281,,,,,,,,,,,,,,,,,,,,PF,weak,3,,,,,,,,6,1.415175,,,,,,,,,,,,,,,,,,,,,,,,,,,,5,weak,62,32,1,0,0,response1disk,3,127,-3,-9,1,0,0,rectangle,-3,-9,1,0,0,7,6,0,0.003,-3,-9,1,0,0,0,126,126,109,1,,,,,,,,,,,,,,,,,,,,,
,,,,,,,,,,,,,,,,,,,,,,,,,,,,,,,,,,,,,,,,,,5c71b17c891e3200012477a2,6036d830b9a6038d520a84cc,2021-02-24_23h53.06.196,Colour_Similarity_Experiment,2020.2.10,Win32,60,6036d0d9a84aa1626184a6ef,17.31168317,16.65689196,16.65026418,16.66201313,16.65088198,16.65501281,,,,,,,,,,,,,,,,,,,,PF,weak,3,,,,,,,,7,1.03224,,,,,,,,,,,,,,,,,,,,,,,,,,,,1,weak,45,75,1,0,0,response1disk,9,128,-5,3,1,0,0,rectangle,-5,3,1,0,0,7,7,0,0.003495,-5,3,1,0,0,0,127,127,15,1,,,,,,,,,,,,,,,,,,,,,
,,,,,,,,,,,,,,,,,,,,,,,,,,,,,,,,,,,,,,,,,,5c71b17c891e3200012477a2,6036d830b9a6038d520a84cc,2021-02-24_23h53.06.196,Colour_Similarity_Experiment,2020.2.10,Win32,60,6036d0d9a84aa1626184a6ef,17.31168317,16.65689196,16.65026418,16.66201313,16.65088198,16.65501281,,,,,,,,,,,,,,,,,,,,PF,weak,3,,,,,,,,7,1.050195,,,,,,,,,,,,,,,,,,,,,,,,,,,,1,weak,40,70,1,0,0,response1disk,8,129,0,-4,1,0,0,rectangle,0,-4,1,0,0,7,6,0,0.003585,0,-4,1,0,0,0,128,128,65,1,,,,,,,,,,,,,,,,,,,,,
,,,,,,,,,,,,,,,,,,,,,,,,,,,,,,,,,,,,,,,,,,5c71b17c891e3200012477a2,6036d830b9a6038d520a84cc,2021-02-24_23h53.06.196,Colour_Similarity_Experiment,2020.2.10,Win32,60,6036d0d9a84aa1626184a6ef,17.31168317,16.65689196,16.65026418,16.66201313,16.65088198,16.65501281,,,,,,,,,,,,,,,,,,,,PF,weak,3,,,,,,,,6,1.215125,,,,,,,,,,,,,,,,,,,,,,,,,,,,4,weak,54,28,1,0,0,response1disk,5,130,-3,-1,1,0,0,rectangle,-3,-1,1,0,0,7,2,0,0.00309,-3,-1,1,0,0,0,129,129,49,1,,,,,,,,,,,,,,,,,,,,,
,,,,,,,,,,,,,,,,,,,,,,,,,,,,,,,,,,,,,,,,,,5c71b17c891e3200012477a2,6036d830b9a6038d520a84cc,2021-02-24_23h53.06.196,Colour_Similarity_Experiment,2020.2.10,Win32,60,6036d0d9a84aa1626184a6ef,17.31168317,16.65689196,16.65026418,16.66201313,16.65088198,16.65501281,,,,,,,,,,,,,,,,,,,,PF,weak,3,,,,,,,,7,1.39876,,,,,,,,,,,,,,,,,,,,,,,,,,,,1,weak,34,88,1,0,0,response1disk,4,131,-6,5,1,0,0,rectangle,-6,5,1,0,0,7,0,0,0.003175,-6,5,1,0,0,0,130,130,139,1,,,,,,,,,,,,,,,,,,,,,
,,,,,,,,,,,,,,,,,,,,,,,,,,,,,,,,,,,,,,,,,,5c71b17c891e3200012477a2,6036d830b9a6038d520a84cc,2021-02-24_23h53.06.196,Colour_Similarity_Experiment,2020.2.10,Win32,60,6036d0d9a84aa1626184a6ef,17.31168317,16.65689196,16.65026418,16.66201313,16.65088198,16.65501281,,,,,,,,,,,,,,,,,,,,PF,strong,3,,,,,,,,7,1.06531,,,,,,,,,,,,,,,,,,,,,,,,,,,,9,strong,50,106,1,0,0,response1disk,6,132,-3,10,1,0,0,rectangle,-3,10,1,0,0,7,1,0,0.002895,-3,10,1,0,0,0,131,131,117,1,,,,,,,,,,,,,,,,,,,,,
,,,,,,,,,,,,,,,,,,,,,,,,,,,,,,,,,,,,,,,,,,5c71b17c891e3200012477a2,6036d830b9a6038d520a84cc,2021-02-24_23h53.06.196,Colour_Similarity_Experiment,2020.2.10,Win32,60,6036d0d9a84aa1626184a6ef,17.31168317,16.65689196,16.65026418,16.66201313,16.65088198,16.65501281,,,,,,,,,,,,,,,,,,,,PF,weak,3,,,,,,,,7,0.849185,,,,,,,,,,,,,,,,,,,,,,,,,,,,4,weak,27,74,1,0,0,response1disk,2,133,-13,8,1,0,0,rectangle,-13,8,1,0,0,7,4,0,0.00246,-13,8,1,0,0,0,132,132,108,1,,,,,,,,,,,,,,,,,,,,,
,,,,,,,,,,,,,,,,,,,,,,,,,,,,,,,,,,,,,,,,,,5c71b17c891e3200012477a2,6036d830b9a6038d520a84cc,2021-02-24_23h53.06.196,Colour_Similarity_Experiment,2020.2.10,Win32,60,6036d0d9a84aa1626184a6ef,17.31168317,16.65689196,16.65026418,16.66201313,16.65088198,16.65501281,,,,,,,,,,,,,,,,,,,,PF,strong,3,,,,,,,,0,1.547665,,,,,,,,,,,,,,,,,,,,,,,,,,,,2,strong,-43,75,1,0,0,response7disk,2,134,2,-3,1,0,0,rectangle,2,-3,1,0,0,7,1,0,0.00285,2,-3,1,0,0,0,133,133,142,1,,,,,,,,,,,,,,,,,,,,,
,,,,,,,,,,,,,,,,,,,,,,,,,,,,,,,,,,,,,,,,,,5c71b17c891e3200012477a2,6036d830b9a6038d520a84cc,2021-02-24_23h53.06.196,Colour_Similarity_Experiment,2020.2.10,Win32,60,6036d0d9a84aa1626184a6ef,17.31168317,16.65689196,16.65026418,16.66201313,16.65088198,16.65501281,,,,,,,,,,,,,,,,,,,,PF,strong,3,,,,,,,,0,1.265055,,,,,,,,,,,,,,,,,,,,,,,,,,,,6,strong,-30,69,1,0,0,response7disk,6,135,-2,-4,1,0,0,rectangle,-2,-4,1,0,0,7,2,0,0.003005,-2,-4,1,0,0,0,134,134,91,1,,,,,,,,,,,,,,,,,,,,,
,,,,,,,,,,,,,,,,,,,,,,,,,,,,,,,,,,,,,,,,,,5c71b17c891e3200012477a2,6036d830b9a6038d520a84cc,2021-02-24_23h53.06.196,Colour_Similarity_Experiment,2020.2.10,Win32,60,6036d0d9a84aa1626184a6ef,17.31168317,16.65689196,16.65026418,16.66201313,16.65088198,16.65501281,,,,,,,,,,,,,,,,,,,,PF,strong,3,,,,,,,,7,1.29822,,,,,,,,,,,,,,,,,,,,,,,,,,,,2,strong,40,69,1,0,0,response1disk,6,136,1,-2,1,0,0,rectangle,1,-2,1,0,0,7,5,0,0.0037,1,-2,1,0,0,0,135,135,40,1,,,,,,,,,,,,,,,,,,,,,
,,,,,,,,,,,,,,,,,,,,,,,,,,,,,,,,,,,,,,,,,,5c71b17c891e3200012477a2,6036d830b9a6038d520a84cc,2021-02-24_23h53.06.196,Colour_Similarity_Experiment,2020.2.10,Win32,60,6036d0d9a84aa1626184a6ef,17.31168317,16.65689196,16.65026418,16.66201313,16.65088198,16.65501281,,,,,,,,,,,,,,,,,,,,PF,strong,3,,,,,,,,7,0.94604,,,,,,,,,,,,,,,,,,,,,,,,,,,,3,strong,43,97,1,0,0,response1disk,8,137,-10,4,1,0,0,rectangle,-10,4,1,0,0,7,3,0,0.00205,-10,4,1,0,0,0,136,136,44,1,,,,,,,,,,,,,,,,,,,,,
,,,,,,,,,,,,,,,,,,,,,,,,,,,,,,,,,,,,,,,,,,5c71b17c891e3200012477a2,6036d830b9a6038d520a84cc,2021-02-24_23h53.06.196,Colour_Similarity_Experiment,2020.2.10,Win32,60,6036d0d9a84aa1626184a6ef,17.31168317,16.65689196,16.65026418,16.66201313,16.65088198,16.65501281,,,,,,,,,,,,,,,,,,,,PF,weak,3,,,,,,,,7,0.944985,,,,,,,,,,,,,,,,,,,,,,,,,,,,3,weak,31,56,1,0,0,response1disk,1,138,-3,2,1,0,0,rectangle,-3,2,1,0,0,7,7,0,0.00179,-3,2,1,0,0,0,137,137,96,1,,,,,,,,,,,,,,,,,,,,,
,,,,,,,,,,,,,,,,,,,,,,,,,,,,,,,,,,,,,,,,,,5c71b17c891e3200012477a2,6036d830b9a6038d520a84cc,2021-02-24_23h53.06.196,Colour_Similarity_Experiment,2020.2.10,Win32,60,6036d0d9a84aa1626184a6ef,17.31168317,16.65689196,16.65026418,16.66201313,16.65088198,16.65501281,,,,,,,,,,,,,,,,,,,,PF,weak,3,,,,,,,,7,0.594535,,,,,,,,,,,,,,,,,,,,,,,,,,,,7,weak,19,52,1,0,0,response1disk,2,139,0,9,1,0,0,rectangle,0,9,1,0,0,7,0,0,0.00166,0,9,1,0,0,0,138,138,32,1,,,,,,,,,,,,,,,,,,,,,
,,,,,,,,,,,,,,,,,,,,,,,,,,,,,,,,,,,,,,,,,,5c71b17c891e3200012477a2,6036d830b9a6038d520a84cc,2021-02-24_23h53.06.196,Colour_Similarity_Experiment,2020.2.10,Win32,60,6036d0d9a84aa1626184a6ef,17.31168317,16.65689196,16.65026418,16.66201313,16.65088198,16.65501281,,,,,,,,,,,,,,,,,,,,PF,weak,3,,,,,,,,7,0.599285,,,,,,,,,,,,,,,,,,,,,,,,,,,,1,weak,25,64,1,0,0,response1disk,6,140,-2,0,1,0,0,rectangle,-2,0,1,0,0,7,1,0,0.003105,-2,0,1,0,0,0,139,139,144,1,,,,,,,,,,,,,,,,,,,,,
,,,,,,,,,,,,,,,,,,,,,,,,,,,,,,,,,,,,,,,,,,5c71b17c891e3200012477a2,6036d830b9a6038d520a84cc,2021-02-24_23h53.06.196,Colour_Similarity_Experiment,2020.2.10,Win32,60,6036d0d9a84aa1626184a6ef,17.31168317,16.65689196,16.65026418,16.66201313,16.65088198,16.65501281,,,,,,,,,,,,,,,,,,,,PF,strong,3,,,,,,,,7,0.948875,,,,,,,,,,,,,,,,,,,,,,,,,,,,1,strong,33,72,1,0,0,response1disk,9,141,5,-6,1,0,0,rectangle,5,-6,1,0,0,7,7,0,0.003625,5,-6,1,0,0,0,140,140,123,1,,,,,,,,,,,,,,,,,,,,,
,,,,,,,,,,,,,,,,,,,,,,,,,,,,,,,,,,,,,,,,,,5c71b17c891e3200012477a2,6036d830b9a6038d520a84cc,2021-02-24_23h53.06.196,Colour_Similarity_Experiment,2020.2.10,Win32,60,6036d0d9a84aa1626184a6ef,17.31168317,16.65689196,16.65026418,16.66201313,16.65088198,16.65501281,,,,,,,,,,,,,,,,,,,,PF,strong,3,,,,,,,,7,1.015675,,,,,,,,,,,,,,,,,,,,,,,,,,,,4,strong,36,91,1,0,0,response1disk,1,142,-7,4,1,0,0,rectangle,-7,4,1,0,0,7,3,0,0.00356,-7,4,1,0,0,0,141,141,102,1,,,,,,,,,,,,,,,,,,,,,
,,,,,,,,,,,,,,,,,,,,,,,,,,,,,,,,,,,,,,,,,,5c71b17c891e3200012477a2,6036d830b9a6038d520a84cc,2021-02-24_23h53.06.196,Colour_Similarity_Experiment,2020.2.10,Win32,60,6036d0d9a84aa1626184a6ef,17.31168317,16.65689196,16.65026418,16.66201313,16.65088198,16.65501281,,,,,,,,,,,,,,,,,,,,PF,weak,3,,,,,,,,7,0.89905,,,,,,,,,,,,,,,,,,,,,,,,,,,,6,weak,43,62,1,0,0,response1disk,3,143,4,4,1,0,0,rectangle,4,4,1,0,0,7,6,0,0.002995,4,4,1,0,0,0,142,142,26,1,,,,,,,,,,,,,,,,,,,,,
,,,,,,,,,,,,,,,,,,,,,,,,,,,,,,,,,,,,,,,,,,5c71b17c891e3200012477a2,6036d830b9a6038d520a84cc,2021-02-24_23h53.06.196,Colour_Similarity_Experiment,2020.2.10,Win32,60,6036d0d9a84aa1626184a6ef,17.31168317,16.65689196,16.65026418,16.66201313,16.65088198,16.65501281,,,,,,,,,,,,,,,,,,,,PF,weak,3,,,,,,,,7,0.949135,,,,,,,,,,,,,,,,,,,,,,,,,,,,1,weak,31,102,1,0,0,response1disk,7,144,-7,1,1,0,0,rectangle,-7,1,1,0,0,7,6,0,0.00018,-7,1,1,0,0,0,143,143,150,1,,,,,,,,,,,,,,,,,,,,,
,,,,,,,,,,,,,,,,,,,,,,,,,,,,,,,,,,,,,,,,,,5c71b17c891e3200012477a2,6036d830b9a6038d520a84cc,2021-02-24_23h53.06.196,Colour_Similarity_Experiment,2020.2.10,Win32,60,6036d0d9a84aa1626184a6ef,17.31168317,16.65689196,16.65026418,16.66201313,16.65088198,16.65501281,,,,,,,,,,,,,,,,,,,,PF,weak,3,,,,,,,,6,1.231995,,,,,,,,,,,,,,,,,,,,,,,,,,,,8,weak,63,35,1,0,0,response1disk,7,145,-1,1,1,0,0,rectangle,-1,1,1,0,0,7,2,0,0.00297,-1,1,1,0,0,0,144,144,23,1,,,,,,,,,,,,,,,,,,,,,
,,,,,,,,,,,,,,,,,,,,,,,,,,,,,,,,,,,,,,,,,,5c71b17c891e3200012477a2,6036d830b9a6038d520a84cc,2021-02-24_23h53.06.196,Colour_Similarity_Experiment,2020.2.10,Win32,60,6036d0d9a84aa1626184a6ef,17.31168317,16.65689196,16.65026418,16.66201313,16.65088198,16.65501281,,,,,,,,,,,,,,,,,,,,PF,strong,3,,,,,,,,7,1.098825,,,,,,,,,,,,,,,,,,,,,,,,,,,,8,strong,30,85,1,0,0,response1disk,1,146,-2,5,1,0,0,rectangle,-2,5,1,0,0,7,7,0,0.003595,-2,5,1,0,0,0,145,145,20,1,,,,,,,,,,,,,,,,,,,,,
,,,,,,,,,,,,,,,,,,,,,,,,,,,,,,,,,,,,,,,,,,5c71b17c891e3200012477a2,6036d830b9a6038d520a84cc,2021-02-24_23h53.06.196,Colour_Similarity_Experiment,2020.2.10,Win32,60,6036d0d9a84aa1626184a6ef,17.31168317,16.65689196,16.65026418,16.66201313,16.65088198,16.65501281,,,,,,,,,,,,,,,,,,,,PF,weak,3,,,,,,,,7,1.28236,,,,,,,,,,,,,,,,,,,,,,,,,,,,2,weak,42,73,1,0,0,response1disk,4,147,-1,-1,1,0,0,rectangle,-1,-1,1,0,0,7,3,0,0.002935,-1,-1,1,0,0,0,146,146,127,1,,,,,,,,,,,,,,,,,,,,,
,,,,,,,,,,,,,,,,,,,,,,,,,,,,,,,,,,,,,,,,,,5c71b17c891e3200012477a2,6036d830b9a6038d520a84cc,2021-02-24_23h53.06.196,Colour_Similarity_Experiment,2020.2.10,Win32,60,6036d0d9a84aa1626184a6ef,17.31168317,16.65689196,16.65026418,16.66201313,16.65088198,16.65501281,,,,,,,,,,,,,,,,,,,,PF,weak,3,,,,,,,,6,1.477985,,,,,,,,,,,,,,,,,,,,,,,,,,,,7,weak,60,27,1,0,0,response1disk,6,148,-8,5,1,0,0,rectangle,-8,5,1,0,0,7,4,0,0.00264,-8,5,1,0,0,0,147,147,29,1,,,,,,,,,,,,,,,,,,,,,
,,,,,,,,,,,,,,,,,,,,,,,,,,,,,,,,,,,,,,,,,,5c71b17c891e3200012477a2,6036d830b9a6038d520a84cc,2021-02-24_23h53.06.196,Colour_Similarity_Experiment,2020.2.10,Win32,60,6036d0d9a84aa1626184a6ef,17.31168317,16.65689196,16.65026418,16.66201313,16.65088198,16.65501281,,,,,,,,,,,,,,,,,,,,PF,weak,3,,,,,,,,1,1.815525,,,,,,,,,,,,,,,,,,,,,,,,,,,,5,weak,-62,46,1,0,0,response7disk,5,149,1,-3,1,0,0,rectangle,1,-3,1,0,0,7,7,0,0.003275,1,-3,1,0,0,0,148,148,94,1,,,,,,,,,,,,,,,,,,,,,
,,,,,,,,,,,,,,,,,,,,,,,,,,,,,,,,,,,,,,,,,,5c71b17c891e3200012477a2,6036d830b9a6038d520a84cc,2021-02-24_23h53.06.196,Colour_Similarity_Experiment,2020.2.10,Win32,60,6036d0d9a84aa1626184a6ef,17.31168317,16.65689196,16.65026418,16.66201313,16.65088198,16.65501281,,,,,,,,,,,,,,,,,,,,PF,weak,3,,,,,,,,7,1.031705,,,,,,,,,,,,,,,,,,,,,,,,,,,,9,weak,30,74,1,0,0,response1disk,2,150,-1,4,1,0,0,rectangle,-1,4,1,0,0,7,6,0,0.002725,-1,4,1,0,0,0,149,149,157,1,,,,,,,,,,,,,,,,,,,,,
,,,,,,,,,,,,,,,,,,,,,,,,,,,,,,,,,,,,,,,,,,5c71b17c891e3200012477a2,6036d830b9a6038d520a84cc,2021-02-24_23h53.06.196,Colour_Similarity_Experiment,2020.2.10,Win32,60,6036d0d9a84aa1626184a6ef,17.31168317,16.65689196,16.65026418,16.66201313,16.65088198,16.65501281,,,,,,,,,,,,,,,,,,,,PF,strong,3,,,,,,,,7,1.681855,,,,,,,,,,,,,,,,,,,,,,,,,,,,7,strong,38,64,1,0,0,response1disk,9,151,-4,-6,1,0,0,rectangle,-4,-6,1,0,0,7,6,0,0.000235,-4,-6,1,0,0,0,150,150,155,1,,,,,,,,,,,,,,,,,,,,,
,,,,,,,,,,,,,,,,,,,,,,,,,,,,,,,,,,,,,,,,,,5c71b17c891e3200012477a2,6036d830b9a6038d520a84cc,2021-02-24_23h53.06.196,Colour_Similarity_Experiment,2020.2.10,Win32,60,6036d0d9a84aa1626184a6ef,17.31168317,16.65689196,16.65026418,16.66201313,16.65088198,16.65501281,,,,,,,,,,,,,,,,,,,,PF,weak,3,,,,,,,,7,0.96588,,,,,,,,,,,,,,,,,,,,,,,,,,,,8,weak,42,111,1,0,0,response1disk,2,152,-5,9,1,0,0,rectangle,-5,9,1,0,0,7,1,0,0.003145,-5,9,1,0,0,0,151,151,83,1,,,,,,,,,,,,,,,,,,,,,
,,,,,,,,,,,,,,,,,,,,,,,,,,,,,,,,,,,,,,,,,,5c71b17c891e3200012477a2,6036d830b9a6038d520a84cc,2021-02-24_23h53.06.196,Colour_Similarity_Experiment,2020.2.10,Win32,60,6036d0d9a84aa1626184a6ef,17.31168317,16.65689196,16.65026418,16.66201313,16.65088198,16.65501281,,,,,,,,,,,,,,,,,,,,PF,strong,3,,,,,,,,7,1.132135,,,,,,,,,,,,,,,,,,,,,,,,,,,,6,strong,33,68,1,0,0,response1disk,3,153,-5,5,1,0,0,rectangle,-5,5,1,0,0,7,4,0,0.00333,-5,5,1,0,0,0,152,152,21,1,,,,,,,,,,,,,,,,,,,,,
,,,,,,,,,,,,,,,,,,,,,,,,,,,,,,,,,,,,,,,,,,5c71b17c891e3200012477a2,6036d830b9a6038d520a84cc,2021-02-24_23h53.06.196,Colour_Similarity_Experiment,2020.2.10,Win32,60,6036d0d9a84aa1626184a6ef,17.31168317,16.65689196,16.65026418,16.66201313,16.65088198,16.65501281,,,,,,,,,,,,,,,,,,,,PF,strong,3,,,,,,,,7,1.78102,,,,,,,,,,,,,,,,,,,,,,,,,,,,5,strong,33,69,1,0,0,response1disk,9,154,1,11,1,0,0,rectangle,1,11,1,0,0,7,3,0,0.00281,1,11,1,0,0,0,153,153,61,1,,,,,,,,,,,,,,,,,,,,,
,,,,,,,,,,,,,,,,,,,,,,,,,,,,,,,,,,,,,,,,,,5c71b17c891e3200012477a2,6036d830b9a6038d520a84cc,2021-02-24_23h53.06.196,Colour_Similarity_Experiment,2020.2.10,Win32,60,6036d0d9a84aa1626184a6ef,17.31168317,16.65689196,16.65026418,16.66201313,16.65088198,16.65501281,,,,,,,,,,,,,,,,,,,,PF,weak,3,,,,,,,,7,0.895415,,,,,,,,,,,,,,,,,,,,,,,,,,,,9,weak,28,74,1,0,0,response1disk,6,155,-10,1,1,0,0,rectangle,-10,1,1,0,0,7,2,0,0.002035,-10,1,1,0,0,0,154,154,148,1,,,,,,,,,,,,,,,,,,,,,
,,,,,,,,,,,,,,,,,,,,,,,,,,,,,,,,,,,,,,,,,,5c71b17c891e3200012477a2,6036d830b9a6038d520a84cc,2021-02-24_23h53.06.196,Colour_Similarity_Experiment,2020.2.10,Win32,60,6036d0d9a84aa1626184a6ef,17.31168317,16.65689196,16.65026418,16.66201313,16.65088198,16.65501281,,,,,,,,,,,,,,,,,,,,PF,weak,3,,,,,,,,7,1.34828,,,,,,,,,,,,,,,,,,,,,,,,,,,,5,weak,42,74,1,0,0,response1disk,7,156,-12,-8,1,0,0,rectangle,-12,-8,1,0,0,7,7,0,0.002485,-12,-8,1,0,0,0,155,155,146,1,,,,,,,,,,,,,,,,,,,,,
,,,,,,,,,,,,,,,,,,,,,,,,,,,,,,,,,,,,,,,,,,5c71b17c891e3200012477a2,6036d830b9a6038d520a84cc,2021-02-24_23h53.06.196,Colour_Similarity_Experiment,2020.2.10,Win32,60,6036d0d9a84aa1626184a6ef,17.31168317,16.65689196,16.65026418,16.66201313,16.65088198,16.65501281,,,,,,,,,,,,,,,,,,,,PF,strong,3,,,,,,,,7,1.194805,,,,,,,,,,,,,,,,,,,,,,,,,,,,3,strong,36,65,1,0,0,response1disk,7,157,1,7,1,0,0,rectangle,1,7,1,0,0,7,0,0,0.001005,1,7,1,0,0,0,156,156,118,1,,,,,,,,,,,,,,,,,,,,,
,,,,,,,,,,,,,,,,,,,,,,,,,,,,,,,,,,,,,,,,,,5c71b17c891e3200012477a2,6036d830b9a6038d520a84cc,2021-02-24_23h53.06.196,Colour_Similarity_Experiment,2020.2.10,Win32,60,6036d0d9a84aa1626184a6ef,17.31168317,16.65689196,16.65026418,16.66201313,16.65088198,16.65501281,,,,,,,,,,,,,,,,,,,,PF,strong,3,,,,,,,,7,1.28169,,,,,,,,,,,,,,,,,,,,,,,,,,,,2,strong,42,75,1,0,0,response1disk,3,158,6,7,1,0,0,rectangle,-81,-34,1,0,0,7,2,1,2.91318,2,2,1,0,0,0,157,157,104,1,response5disk_3,rectangle,,,,,,,,,,,,,,,,,,,
,,,,,,,,,,,,,,,,,,,,,,,,,,,,,,,,,,,,,,,,,,5c71b17c891e3200012477a2,6036d830b9a6038d520a84cc,2021-02-24_23h53.06.196,Colour_Similarity_Experiment,2020.2.10,Win32,60,6036d0d9a84aa1626184a6ef,17.31168317,16.65689196,16.65026418,16.66201313,16.65088198,16.65501281,,,,,,,,,,,,,,,,,,,,PF,strong,3,,,,,,,,6,1.63233,,,,,,,,,,,,,,,,,,,,,,,,,,,,4,strong,85,47,1,0,0,response1disk,5,159,3,-1,1,0,0,rectangle,3,-1,1,0,0,7,1,0,0.003785,3,-1,1,0,0,0,158,158,116,1,,,,,,,,,,,,,,,,,,,,,
,,,,,,,,,,,,,,,,,,,,,,,,,,,,,,,,,,,,,,,,,,5c71b17c891e3200012477a2,6036d830b9a6038d520a84cc,2021-02-24_23h53.06.196,Colour_Similarity_Experiment,2020.2.10,Win32,60,6036d0d9a84aa1626184a6ef,17.31168317,16.65689196,16.65026418,16.66201313,16.65088198,16.65501281,,,,,,,,,,,,,,,,,,,,PF,strong,3,,,,,,,,7,1.39871,,,,,,,,,,,,,,,,,,,,,,,,,,,,7,strong,34,81,1,0,0,response1disk,7,160,4,-4,1,0,0,rectangle,4,-4,1,0,0,7,0,0,0.00309,4,-4,1,0,0,0,159,159,34,1,,,,,,,,,,,,,,,,,,,,,
,,,,,,,,,,,,,,,,,,,,,,,,,,,,,,,,,,,,,,,,,,5c71b17c891e3200012477a2,6036d830b9a6038d520a84cc,2021-02-24_23h53.06.196,Colour_Similarity_Experiment,2020.2.10,Win32,60,6036d0d9a84aa1626184a6ef,17.31168317,16.65689196,16.65026418,16.66201313,16.65088198,16.65501281,,,,,,,,,,,,,,,,,,,,PF,weak,3,,,,,,,,7,0.998985,,,,,,,,,,,,,,,,,,,,,,,,,,,,7,weak,26,63,1,0,0,response1disk,1,161,5,5,1,0,0,rectangle,5,5,1,0,0,7,1,0,0.00366,5,5,1,0,0,0,160,160,53,1,,,,,,,,,,,,,,,,,,,,,
,,,,,,,,,,,,,,,,,,,,,,,,,,,,,,,,,,,,,,,,,,5c71b17c891e3200012477a2,6036d830b9a6038d520a84cc,2021-02-24_23h53.06.196,Colour_Similarity_Experiment,2020.2.10,Win32,60,6036d0d9a84aa1626184a6ef,17.31168317,16.65689196,16.65026418,16.66201313,16.65088198,16.65501281,,,,,,,,,,,,,,,,,,,,PF,weak,3,,,,,,,,7,0.88247,,,,,,,,,,,,,,,,,,,,,,,,,,,,6,weak,32,87,1,0,0,response1disk,1,162,-5,-5,1,0,0,rectangle,-5,-5,1,0,0,7,2,0,0.00294,-5,-5,1,0,0,0,161,161,46,1,,,,,,,,,,,,,,,,,,,,,
,,,,,,,,,,,,,,,,,,,,,,,,,,,,,,,,,,,,,,,,,,5c71b17c891e3200012477a2,6036d830b9a6038d520a84cc,2021-02-24_23h53.06.196,Colour_Similarity_Experiment,2020.2.10,Win32,60,6036d0d9a84aa1626184a6ef,17.31168317,16.65689196,16.65026418,16.66201313,16.65088198,16.65501281,,,,,,,,,,,,,,,,,,,,,,,,,,,,,,,,,,,,,,,,,,,,,,,,,,,,,,,,,,,,,,,,,,,,,,,,,,,,,,,,,,,,,,,,,,,,,,,,0,0,0,0,1,,,,,,,,,,,,,,
,,,,,,,,,,,,,,,,,,,,,,,,,,,,,,,,,,,,,,,,,,5c71b17c891e3200012477a2,6036d830b9a6038d520a84cc,2021-02-24_23h53.06.196,Colour_Similarity_Experiment,2020.2.10,Win32,60,6036d0d9a84aa1626184a6ef,17.31168317,16.65689196,16.65026418,16.66201313,16.65088198,16.65501281,,,,,,,,,,,,,,,,,,,,PF,strong,3,,,,,,,,7,1.09921,,,,,,,,,,,,,,,,,,,,,,,,,,,,9,strong,49,93,1,0,0,response1disk,3,163,-5,6,1,0,0,rectangle,-5,6,1,0,0,7,3,0,0.002925,-5,6,1,0,0,0,0,0,141,1,,,,,,,,,,,,,,,,,,,,,
,,,,,,,,,,,,,,,,,,,,,,,,,,,,,,,,,,,,,,,,,,5c71b17c891e3200012477a2,6036d830b9a6038d520a84cc,2021-02-24_23h53.06.196,Colour_Similarity_Experiment,2020.2.10,Win32,60,6036d0d9a84aa1626184a6ef,17.31168317,16.65689196,16.65026418,16.66201313,16.65088198,16.65501281,,,,,,,,,,,,,,,,,,,,PF,strong,3,,,,,,,,7,1.680075,,,,,,,,,,,,,,,,,,,,,,,,,,,,1,strong,27,65,1,0,0,response1disk,8,164,-21,3,1,0,0,rectangle,-21,3,1,0,0,7,5,0,0.00287,-21,3,1,0,0,0,1,1,27,1,,,,,,,,,,,,,,,,,,,,,
,,,,,,,,,,,,,,,,,,,,,,,,,,,,,,,,,,,,,,,,,,5c71b17c891e3200012477a2,6036d830b9a6038d520a84cc,2021-02-24_23h53.06.196,Colour_Similarity_Experiment,2020.2.10,Win32,60,6036d0d9a84aa1626184a6ef,17.31168317,16.65689196,16.65026418,16.66201313,16.65088198,16.65501281,,,,,,,,,,,,,,,,,,,,PF,weak,3,,,,,,,,7,1.377255,,,,,,,,,,,,,,,,,,,,,,,,,,,,4,weak,34,76,1,0,0,response1disk,1,165,6,12,1,0,0,rectangle,6,12,1,0,0,7,5,0,0.00076,6,12,1,0,0,0,2,2,115,1,,,,,,,,,,,,,,,,,,,,,
,,,,,,,,,,,,,,,,,,,,,,,,,,,,,,,,,,,,,,,,,,5c71b17c891e3200012477a2,6036d830b9a6038d520a84cc,2021-02-24_23h53.06.196,Colour_Similarity_Experiment,2020.2.10,Win32,60,6036d0d9a84aa1626184a6ef,17.31168317,16.65689196,16.65026418,16.66201313,16.65088198,16.65501281,,,,,,,,,,,,,,,,,,,,PF,strong,3,,,,,,,,7,1.045205,,,,,,,,,,,,,,,,,,,,,,,,,,,,8,strong,39,66,1,0,0,response1disk,2,166,-5,-4,1,0,0,rectangle,-5,-4,1,0,0,7,1,0,0.00308,-5,-4,1,0,0,0,3,3,22,1,,,,,,,,,,,,,,,,,,,,,
,,,,,,,,,,,,,,,,,,,,,,,,,,,,,,,,,,,,,,,,,,5c71b17c891e3200012477a2,6036d830b9a6038d520a84cc,2021-02-24_23h53.06.196,Colour_Similarity_Experiment,2020.2.10,Win32,60,6036d0d9a84aa1626184a6ef,17.31168317,16.65689196,16.65026418,16.66201313,16.65088198,16.65501281,,,,,,,,,,,,,,,,,,,,PF,weak,3,,,,,,,,7,0.94872,,,,,,,,,,,,,,,,,,,,,,,,,,,,5,weak,47,88,1,0,0,response1disk,1,167,-2,1,1,0,0,rectangle,-73,41,1,0,0,1,1,1,2.580845,-5,7,1,0,0,0,4,4,159,1,response7disk_3,rectangle,,,,,,,,,,,,,,,,,,,
,,,,,,,,,,,,,,,,,,,,,,,,,,,,,,,,,,,,,,,,,,5c71b17c891e3200012477a2,6036d830b9a6038d520a84cc,2021-02-24_23h53.06.196,Colour_Similarity_Experiment,2020.2.10,Win32,60,6036d0d9a84aa1626184a6ef,17.31168317,16.65689196,16.65026418,16.66201313,16.65088198,16.65501281,,,,,,,,,,,,,,,,,,,,PF,strong,3,,,,,,,,7,1.032365,,,,,,,,,,,,,,,,,,,,,,,,,,,,4,strong,28,73,1,0,0,response1disk,9,168,-2,9,1,0,0,rectangle,-2,9,1,0,0,1,6,0,0.003,-2,9,1,0,0,0,5,5,90,1,,,,,,,,,,,,,,,,,,,,,
,,,,,,,,,,,,,,,,,,,,,,,,,,,,,,,,,,,,,,,,,,5c71b17c891e3200012477a2,6036d830b9a6038d520a84cc,2021-02-24_23h53.06.196,Colour_Similarity_Experiment,2020.2.10,Win32,60,6036d0d9a84aa1626184a6ef,17.31168317,16.65689196,16.65026418,16.66201313,16.65088198,16.65501281,,,,,,,,,,,,,,,,,,,,PF,strong,3,,,,,,,,1,1.59797,,,,,,,,,,,,,,,,,,,,,,,,,,,,3,strong,-83,49,1,0,0,response7disk,3,169,-8,1,1,0,0,rectangle,-8,1,1,0,0,1,3,0,0.002145,-8,1,1,0,0,0,6,6,68,1,,,,,,,,,,,,,,,,,,,,,
,,,,,,,,,,,,,,,,,,,,,,,,,,,,,,,,,,,,,,,,,,5c71b17c891e3200012477a2,6036d830b9a6038d520a84cc,2021-02-24_23h53.06.196,Colour_Similarity_Experiment,2020.2.10,Win32,60,6036d0d9a84aa1626184a6ef,17.31168317,16.65689196,16.65026418,16.66201313,16.65088198,16.65501281,,,,,,,,,,,,,,,,,,,,PF,weak,3,,,,,,,,7,0.949205,,,,,,,,,,,,,,,,,,,,,,,,,,,,3,weak,36,59,1,0,0,response1disk,9,170,-9,-7,1,0,0,rectangle,-9,-7,1,0,0,1,1,0,0.003485,-9,-7,1,0,0,0,7,7,79,1,,,,,,,,,,,,,,,,,,,,,
,,,,,,,,,,,,,,,,,,,,,,,,,,,,,,,,,,,,,,,,,,5c71b17c891e3200012477a2,6036d830b9a6038d520a84cc,2021-02-24_23h53.06.196,Colour_Similarity_Experiment,2020.2.10,Win32,60,6036d0d9a84aa1626184a6ef,17.31168317,16.65689196,16.65026418,16.66201313,16.65088198,16.65501281,,,,,,,,,,,,,,,,,,,,PF,strong,3,,,,,,,,7,1.032375,,,,,,,,,,,,,,,,,,,,,,,,,,,,3,strong,37,60,1,0,0,response1disk,2,171,0,9,1,0,0,rectangle,0,9,1,0,0,1,2,0,0.00324,0,9,1,0,0,0,8,8,93,1,,,,,,,,,,,,,,,,,,,,,
,,,,,,,,,,,,,,,,,,,,,,,,,,,,,,,,,,,,,,,,,,5c71b17c891e3200012477a2,6036d830b9a6038d520a84cc,2021-02-24_23h53.06.196,Colour_Similarity_Experiment,2020.2.10,Win32,60,6036d0d9a84aa1626184a6ef,17.31168317,16.65689196,16.65026418,16.66201313,16.65088198,16.65501281,,,,,,,,,,,,,,,,,,,,PF,weak,3,,,,,,,,6,1.6986,,,,,,,,,,,,,,,,,,,,,,,,,,,,8,weak,68,45,1,0,0,response1disk,6,172,5,0,1,0,0,rectangle,-44,-107,1,0,0,3,3,1,2.33079,1,5,1,0,0,0,9,9,161,1,response5disk_3,rectangle,,,,,,,,,,,,,,,,,,,
,,,,,,,,,,,,,,,,,,,,,,,,,,,,,,,,,,,,,,,,,,5c71b17c891e3200012477a2,6036d830b9a6038d520a84cc,2021-02-24_23h53.06.196,Colour_Similarity_Experiment,2020.2.10,Win32,60,6036d0d9a84aa1626184a6ef,17.31168317,16.65689196,16.65026418,16.66201313,16.65088198,16.65501281,,,,,,,,,,,,,,,,,,,,PF,weak,3,,,,,,,,0,1.46495,,,,,,,,,,,,,,,,,,,,,,,,,,,,9,weak,-21,78,1,0,0,response7disk,9,173,5,1,1,0,0,rectangle,5,1,1,0,0,3,7,0,0.00374,5,1,1,0,0,0,10,10,106,1,,,,,,,,,,,,,,,,,,,,,
,,,,,,,,,,,,,,,,,,,,,,,,,,,,,,,,,,,,,,,,,,5c71b17c891e3200012477a2,6036d830b9a6038d520a84cc,2021-02-24_23h53.06.196,Colour_Similarity_Experiment,2020.2.10,Win32,60,6036d0d9a84aa1626184a6ef,17.31168317,16.65689196,16.65026418,16.66201313,16.65088198,16.65501281,,,,,,,,,,,,,,,,,,,,PF,weak,3,,,,,,,,7,1.23181,,,,,,,,,,,,,,,,,,,,,,,,,,,,2,weak,45,64,1,0,0,response1disk,5,174,3,-6,1,0,0,rectangle,3,-6,1,0,0,3,6,0,0.00314,3,-6,1,0,0,0,11,11,147,1,,,,,,,,,,,,,,,,,,,,,
,,,,,,,,,,,,,,,,,,,,,,,,,,,,,,,,,,,,,,,,,,5c71b17c891e3200012477a2,6036d830b9a6038d520a84cc,2021-02-24_23h53.06.196,Colour_Similarity_Experiment,2020.2.10,Win32,60,6036d0d9a84aa1626184a6ef,17.31168317,16.65689196,16.65026418,16.66201313,16.65088198,16.65501281,,,,,,,,,,,,,,,,,,,,PF,weak,3,,,,,,,,0,2.047685,,,,,,,,,,,,,,,,,,,,,,,,,,,,7,weak,-52,66,1,0,0,response7disk,7,175,0,4,1,0,0,rectangle,0,4,1,0,0,3,7,0,0.00293,0,4,1,0,0,0,12,12,51,1,,,,,,,,,,,,,,,,,,,,,
,,,,,,,,,,,,,,,,,,,,,,,,,,,,,,,,,,,,,,,,,,5c71b17c891e3200012477a2,6036d830b9a6038d520a84cc,2021-02-24_23h53.06.196,Colour_Similarity_Experiment,2020.2.10,Win32,60,6036d0d9a84aa1626184a6ef,17.31168317,16.65689196,16.65026418,16.66201313,16.65088198,16.65501281,,,,,,,,,,,,,,,,,,,,PF,strong,3,,,,,,,,3,2.647295,,,,,,,,,,,,,,,,,,,,,,,,,,,,3,strong,-28,-76,1,0,0,response5disk,5,176,-11,1,1,0,0,rectangle,-11,1,1,0,0,3,1,0,0.00298,-11,1,1,0,0,0,13,13,101,1,,,,,,,,,,,,,,,,,,,,,
,,,,,,,,,,,,,,,,,,,,,,,,,,,,,,,,,,,,,,,,,,5c71b17c891e3200012477a2,6036d830b9a6038d520a84cc,2021-02-24_23h53.06.196,Colour_Similarity_Experiment,2020.2.10,Win32,60,6036d0d9a84aa1626184a6ef,17.31168317,16.65689196,16.65026418,16.66201313,16.65088198,16.65501281,,,,,,,,,,,,,,,,,,,,PF,strong,3,,,,,,,,7,1.348815,,,,,,,,,,,,,,,,,,,,,,,,,,,,7,strong,43,90,1,0,0,response1disk,5,177,9,9,1,0,0,rectangle,9,9,1,0,0,3,2,0,0.003165,9,9,1,0,0,0,14,14,156,1,,,,,,,,,,,,,,,,,,,,,
,,,,,,,,,,,,,,,,,,,,,,,,,,,,,,,,,,,,,,,,,,5c71b17c891e3200012477a2,6036d830b9a6038d520a84cc,2021-02-24_23h53.06.196,Colour_Similarity_Experiment,2020.2.10,Win32,60,6036d0d9a84aa1626184a6ef,17.31168317,16.65689196,16.65026418,16.66201313,16.65088198,16.65501281,,,,,,,,,,,,,,,,,,,,PF,strong,3,,,,,,,,1,2.764245,,,,,,,,,,,,,,,,,,,,,,,,,,,,7,strong,-69,38,1,0,0,response7disk,6,178,-13,10,1,0,0,rectangle,-13,10,1,0,0,3,2,0,0.000205,-13,10,1,0,0,0,15,15,31,1,,,,,,,,,,,,,,,,,,,,,
,,,,,,,,,,,,,,,,,,,,,,,,,,,,,,,,,,,,,,,,,,5c71b17c891e3200012477a2,6036d830b9a6038d520a84cc,2021-02-24_23h53.06.196,Colour_Similarity_Experiment,2020.2.10,Win32,60,6036d0d9a84aa1626184a6ef,17.31168317,16.65689196,16.65026418,16.66201313,16.65088198,16.65501281,,,,,,,,,,,,,,,,,,,,PF,strong,3,,,,,,,,7,1.099245,,,,,,,,,,,,,,,,,,,,,,,,,,,,1,strong,33,91,1,0,0,response1disk,6,179,-1,10,1,0,0,rectangle,-1,10,1,0,0,3,2,0,0.000245,-1,10,1,0,0,0,16,16,58,1,,,,,,,,,,,,,,,,,,,,,
,,,,,,,,,,,,,,,,,,,,,,,,,,,,,,,,,,,,,,,,,,5c71b17c891e3200012477a2,6036d830b9a6038d520a84cc,2021-02-24_23h53.06.196,Colour_Similarity_Experiment,2020.2.10,Win32,60,6036d0d9a84aa1626184a6ef,17.31168317,16.65689196,16.65026418,16.66201313,16.65088198,16.65501281,,,,,,,,,,,,,,,,,,,,PF,strong,3,,,,,,,,7,1.082665,,,,,,,,,,,,,,,,,,,,,,,,,,,,7,strong,34,65,1,0,0,response1disk,1,180,6,5,1,0,0,rectangle,6,5,1,0,0,3,0,0,0.00327,6,5,1,0,0,0,17,17,132,1,,,,,,,,,,,,,,,,,,,,,
,,,,,,,,,,,,,,,,,,,,,,,,,,,,,,,,,,,,,,,,,,5c71b17c891e3200012477a2,6036d830b9a6038d520a84cc,2021-02-24_23h53.06.196,Colour_Similarity_Experiment,2020.2.10,Win32,60,6036d0d9a84aa1626184a6ef,17.31168317,16.65689196,16.65026418,16.66201313,16.65088198,16.65501281,,,,,,,,,,,,,,,,,,,,PF,strong,3,,,,,,,,7,0.91601,,,,,,,,,,,,,,,,,,,,,,,,,,,,6,strong,37,81,1,0,0,response1disk,4,181,0,2,1,0,0,rectangle,0,2,1,0,0,3,5,0,0.00138,0,2,1,0,0,0,18,18,56,1,,,,,,,,,,,,,,,,,,,,,
,,,,,,,,,,,,,,,,,,,,,,,,,,,,,,,,,,,,,,,,,,5c71b17c891e3200012477a2,6036d830b9a6038d520a84cc,2021-02-24_23h53.06.196,Colour_Similarity_Experiment,2020.2.10,Win32,60,6036d0d9a84aa1626184a6ef,17.31168317,16.65689196,16.65026418,16.66201313,16.65088198,16.65501281,,,,,,,,,,,,,,,,,,,,PF,weak,3,,,,,,,,2,2.49747,,,,,,,,,,,,,,,,,,,,,,,,,,,,2,weak,-70,-37,1,0,0,response5disk,3,182,-2,-7,1,0,0,rectangle,-2,-7,1,0,0,3,1,0,0.00211,-2,-7,1,0,0,0,19,19,69,1,,,,,,,,,,,,,,,,,,,,,
,,,,,,,,,,,,,,,,,,,,,,,,,,,,,,,,,,,,,,,,,,5c71b17c891e3200012477a2,6036d830b9a6038d520a84cc,2021-02-24_23h53.06.196,Colour_Similarity_Experiment,2020.2.10,Win32,60,6036d0d9a84aa1626184a6ef,17.31168317,16.65689196,16.65026418,16.66201313,16.65088198,16.65501281,,,,,,,,,,,,,,,,,,,,PF,weak,3,,,,,,,,7,1.03191,,,,,,,,,,,,,,,,,,,,,,,,,,,,2,weak,47,59,1,0,0,response1disk,7,183,-2,-7,1,0,0,rectangle,-2,-7,1,0,0,3,3,0,0.003,-2,-7,1,0,0,0,20,20,107,1,,,,,,,,,,,,,,,,,,,,,
,,,,,,,,,,,,,,,,,,,,,,,,,,,,,,,,,,,,,,,,,,5c71b17c891e3200012477a2,6036d830b9a6038d520a84cc,2021-02-24_23h53.06.196,Colour_Similarity_Experiment,2020.2.10,Win32,60,6036d0d9a84aa1626184a6ef,17.31168317,16.65689196,16.65026418,16.66201313,16.65088198,16.65501281,,,,,,,,,,,,,,,,,,,,PF,strong,3,,,,,,,,7,0.748765,,,,,,,,,,,,,,,,,,,,,,,,,,,,4,strong,35,56,1,0,0,response1disk,7,184,0,4,1,0,0,rectangle,0,4,1,0,0,3,2,0,0.002915,0,4,1,0,0,0,21,21,87,1,,,,,,,,,,,,,,,,,,,,,
,,,,,,,,,,,,,,,,,,,,,,,,,,,,,,,,,,,,,,,,,,5c71b17c891e3200012477a2,6036d830b9a6038d520a84cc,2021-02-24_23h53.06.196,Colour_Similarity_Experiment,2020.2.10,Win32,60,6036d0d9a84aa1626184a6ef,17.31168317,16.65689196,16.65026418,16.66201313,16.65088198,16.65501281,,,,,,,,,,,,,,,,,,,,PF,weak,3,,,,,,,,7,0.998965,,,,,,,,,,,,,,,,,,,,,,,,,,,,4,weak,27,79,1,0,0,response1disk,8,185,-2,12,1,0,0,rectangle,-2,12,1,0,0,3,3,0,0.00308,-2,12,1,0,0,0,22,22,124,1,,,,,,,,,,,,,,,,,,,,,
,,,,,,,,,,,,,,,,,,,,,,,,,,,,,,,,,,,,,,,,,,5c71b17c891e3200012477a2,6036d830b9a6038d520a84cc,2021-02-24_23h53.06.196,Colour_Similarity_Experiment,2020.2.10,Win32,60,6036d0d9a84aa1626184a6ef,17.31168317,16.65689196,16.65026418,16.66201313,16.65088198,16.65501281,,,,,,,,,,,,,,,,,,,,PF,weak,3,,,,,,,,7,0.96546,,,,,,,,,,,,,,,,,,,,,,,,,,,,2,weak,32,66,1,0,0,response1disk,1,186,1,1,1,0,0,rectangle,1,1,1,0,0,3,1,0,0.003065,1,1,1,0,0,0,23,23,9,1,,,,,,,,,,,,,,,,,,,,,
,,,,,,,,,,,,,,,,,,,,,,,,,,,,,,,,,,,,,,,,,,5c71b17c891e3200012477a2,6036d830b9a6038d520a84cc,2021-02-24_23h53.06.196,Colour_Similarity_Experiment,2020.2.10,Win32,60,6036d0d9a84aa1626184a6ef,17.31168317,16.65689196,16.65026418,16.66201313,16.65088198,16.65501281,,,,,,,,,,,,,,,,,,,,PF,strong,3,,,,,,,,7,6.31063,,,,,,,,,,,,,,,,,,,,,,,,,,,,1,strong,41,83,1,0,0,response1disk,5,187,3,6,1,0,0,rectangle,3,6,1,0,0,3,3,0,0.004565,3,6,1,0,0,0,24,24,82,1,,,,,,,,,,,,,,,,,,,,,
,,,,,,,,,,,,,,,,,,,,,,,,,,,,,,,,,,,,,,,,,,5c71b17c891e3200012477a2,6036d830b9a6038d520a84cc,2021-02-24_23h53.06.196,Colour_Similarity_Experiment,2020.2.10,Win32,60,6036d0d9a84aa1626184a6ef,17.31168317,16.65689196,16.65026418,16.66201313,16.65088198,16.65501281,,,,,,,,,,,,,,,,,,,,PF,weak,3,,,,,,,,7,1.099205,,,,,,,,,,,,,,,,,,,,,,,,,,,,1,weak,33,78,1,0,0,response1disk,3,188,4,-8,1,0,0,rectangle,4,-8,1,0,0,3,2,0,0.003075,4,-8,1,0,0,0,25,25,1,1,,,,,,,,,,,,,,,,,,,,,
,,,,,,,,,,,,,,,,,,,,,,,,,,,,,,,,,,,,,,,,,,5c71b17c891e3200012477a2,6036d830b9a6038d520a84cc,2021-02-24_23h53.06.196,Colour_Similarity_Experiment,2020.2.10,Win32,60,6036d0d9a84aa1626184a6ef,17.31168317,16.65689196,16.65026418,16.66201313,16.65088198,16.65501281,,,,,,,,,,,,,,,,,,,,PF,weak,3,,,,,,,,7,1.28141,,,,,,,,,,,,,,,,,,,,,,,,,,,,1,weak,21,69,1,0,0,response1disk,2,189,-1,8,1,0,0,rectangle,-1,8,1,0,0,3,1,0,0.00296,-1,8,1,0,0,0,26,26,24,1,,,,,,,,,,,,,,,,,,,,,
,,,,,,,,,,,,,,,,,,,,,,,,,,,,,,,,,,,,,,,,,,5c71b17c891e3200012477a2,6036d830b9a6038d520a84cc,2021-02-24_23h53.06.196,Colour_Similarity_Experiment,2020.2.10,Win32,60,6036d0d9a84aa1626184a6ef,17.31168317,16.65689196,16.65026418,16.66201313,16.65088198,16.65501281,,,,,,,,,,,,,,,,,,,,PF,weak,3,,,,,,,,7,0.83247,,,,,,,,,,,,,,,,,,,,,,,,,,,,7,weak,34,80,1,0,0,response1disk,3,190,-4,-2,1,0,0,rectangle,-4,-2,1,0,0,3,3,0,0.003615,-4,-2,1,0,0,0,27,27,81,1,,,,,,,,,,,,,,,,,,,,,
,,,,,,,,,,,,,,,,,,,,,,,,,,,,,,,,,,,,,,,,,,5c71b17c891e3200012477a2,6036d830b9a6038d520a84cc,2021-02-24_23h53.06.196,Colour_Similarity_Experiment,2020.2.10,Win32,60,6036d0d9a84aa1626184a6ef,17.31168317,16.65689196,16.65026418,16.66201313,16.65088198,16.65501281,,,,,,,,,,,,,,,,,,,,PF,strong,3,,,,,,,,7,1.68199,,,,,,,,,,,,,,,,,,,,,,,,,,,,6,strong,35,87,1,0,0,response1disk,1,191,-6,-5,1,0,0,rectangle,-6,-5,1,0,0,3,7,0,0.002955,-6,-5,1,0,0,0,28,28,5,1,,,,,,,,,,,,,,,,,,,,,
,,,,,,,,,,,,,,,,,,,,,,,,,,,,,,,,,,,,,,,,,,5c71b17c891e3200012477a2,6036d830b9a6038d520a84cc,2021-02-24_23h53.06.196,Colour_Similarity_Experiment,2020.2.10,Win32,60,6036d0d9a84aa1626184a6ef,17.31168317,16.65689196,16.65026418,16.66201313,16.65088198,16.65501281,,,,,,,,,,,,,,,,,,,,PF,strong,3,,,,,,,,7,0.949035,,,,,,,,,,,,,,,,,,,,,,,,,,,,5,strong,37,89,1,0,0,response1disk,7,192,-6,1,1,0,0,rectangle,-6,1,1,0,0,3,5,0,0.003645,-6,1,1,0,0,0,29,29,7,1,,,,,,,,,,,,,,,,,,,,,
,,,,,,,,,,,,,,,,,,,,,,,,,,,,,,,,,,,,,,,,,,5c71b17c891e3200012477a2,6036d830b9a6038d520a84cc,2021-02-24_23h53.06.196,Colour_Similarity_Experiment,2020.2.10,Win32,60,6036d0d9a84aa1626184a6ef,17.31168317,16.65689196,16.65026418,16.66201313,16.65088198,16.65501281,,,,,,,,,,,,,,,,,,,,PF,weak,3,,,,,,,,7,8.108865,,,,,,,,,,,,,,,,,,,,,,,,,,,,4,weak,26,66,1,0,0,response1disk,4,193,-1,6,1,0,0,rectangle,-1,6,1,0,0,3,0,0,0.003485,-1,6,1,0,0,0,30,30,70,1,,,,,,,,,,,,,,,,,,,,,
,,,,,,,,,,,,,,,,,,,,,,,,,,,,,,,,,,,,,,,,,,5c71b17c891e3200012477a2,6036d830b9a6038d520a84cc,2021-02-24_23h53.06.196,Colour_Similarity_Experiment,2020.2.10,Win32,60,6036d0d9a84aa1626184a6ef,17.31168317,16.65689196,16.65026418,16.66201313,16.65088198,16.65501281,,,,,,,,,,,,,,,,,,,,PF,strong,3,,,,,,,,7,1.032395,,,,,,,,,,,,,,,,,,,,,,,,,,,,9,strong,47,95,1,0,0,response1disk,8,194,-7,6,1,0,0,rectangle,-7,6,1,0,0,3,3,0,0.003635,-7,6,1,0,0,0,31,31,6,1,,,,,,,,,,,,,,,,,,,,,
,,,,,,,,,,,,,,,,,,,,,,,,,,,,,,,,,,,,,,,,,,5c71b17c891e3200012477a2,6036d830b9a6038d520a84cc,2021-02-24_23h53.06.196,Colour_Similarity_Experiment,2020.2.10,Win32,60,6036d0d9a84aa1626184a6ef,17.31168317,16.65689196,16.65026418,16.66201313,16.65088198,16.65501281,,,,,,,,,,,,,,,,,,,,PF,weak,3,,,,,,,,7,0.999105,,,,,,,,,,,,,,,,,,,,,,,,,,,,9,weak,28,61,1,0,0,response1disk,4,195,1,4,1,0,0,rectangle,1,4,1,0,0,3,0,0,0.00288,1,4,1,0,0,0,32,32,114,1,,,,,,,,,,,,,,,,,,,,,
