key_resp.keys,key_resp.rt,key_resp_16.keys,key_resp_16.rt,key_resp_2.keys,key_resp_2.rt,X Scale,ratio_pxpermm,screen_size_x,screen_size_y,testsize,key_resp_3.keys,key_resp_4.keys,key_resp_4.rt,line_size,key_resp_5.keys,key_resp_5.rt,key_resp_6.keys,key_resp_6.rt,key_resp_8.keys,key_resp_8.rt,key_resp_7.keys,key_resp_7.rt,key_resp_12.keys,key_resp_12.rt,key_resp_11.keys,key_resp_11.rt,key_resp_18.keys,key_resp_18.rt,key_resp_21.keys,key_resp_21.rt,key_resp_13.keys,key_resp_13.rt,key_resp_19.keys,key_resp_19.rt,ballposx,viewer_distance,trials.thisRepN,trials.thisTrialN,trials.thisN,trials.thisIndex,trials.ran,participant,session,date,expName,psychopyVersion,OS,frameRate,study_id,realFrameRate1,realFrameRate2,realFrameRate3,realFrameRate4,realFrameRate5,realFrameRate,viewerdistancecm,DVA_to_distance,radius_F,radius_P,r_F,R_P,key_resp_20.keys,key_resp_20.rt,key_resp_14.keys,key_resp_14.rt,key_resp_15.keys,key_resp_15.rt,key_resp_17.keys,key_resp_17.rt,key_resp_9.keys,key_resp_9.rt,key_resp_10.keys,key_resp_10.rt,Colour_1,Ecc,maskCon,mask_frames,mouse_5.x,mouse_5.y,mouse_5.leftButton,mouse_5.midButton,mouse_5.rightButton,mouse_5.clicked_name,Colour_2,similarity,response_time,mouse_10.x,mouse_10.y,mouse_10.leftButton,mouse_10.midButton,mouse_10.rightButton,mouse_10.clicked_name,mouse_7.x,mouse_7.y,mouse_7.leftButton,mouse_7.midButton,mouse_7.rightButton,mouse_7.clicked_name,catchprac,catchnumberprac,mouse_6.x,mouse_6.y,mouse_6.leftButton,mouse_6.midButton,mouse_6.rightButton,mouse_6.clicked_name,duringprac.thisRepN,duringprac.thisTrialN,duringprac.thisN,duringprac.thisIndex,duringprac.ran,key_resp_22.keys,key_resp_22.rt,Colour1,maskCon1,mouse.x,mouse.y,mouse.leftButton,mouse.midButton,mouse.rightButton,mouse.clicked_name,Colour2,trialnumber,mouse_2.x,mouse_2.y,mouse_2.leftButton,mouse_2.midButton,mouse_2.rightButton,mouse_2.clicked_name,mouse_3.x,mouse_3.y,mouse_3.leftButton,mouse_3.midButton,mouse_3.rightButton,mouse_3.clicked_name,catchresponse,catchnumber,Catch,response_time_catch,mouse_11.x,mouse_11.y,mouse_11.leftButton,mouse_11.midButton,mouse_11.rightButton,mouse_11.clicked_name,trials_2.thisRepN,trials_2.thisTrialN,trials_2.thisN,trials_2.thisIndex,trials_2.ran,trials_3.thisRepN,trials_3.thisTrialN,trials_3.thisN,trials_3.thisIndex,trials_3.ran,answer1,rt1,answer2,rt2,answer3,rt3,answer4,rt4,answer5,rt5,answer6,rt6,answer7,rt7
space,0.736945,space,10.09715,space,6.570185,41.1,4.11,373.7226277,210.2189781,1536,,space,33.329495,82.2,space,46.90725,space,3.472955,space,1.180715,space,4.139385,space,25.05667,space,6.021605,space,7.535865,space,16.369865,space,6.28611,return,3.61871,71.424,550.2819093,0,0,0,0,1,5df14bb169a117069e70b11d,6036d829c86f840bc7dbe8ae,2021-02-24_22h53.07.543,Colour_Similarity_Experiment,2020.2.10,Win32,60,6036d0d9a84aa1626184a6ef,14.04357868,14.54420487,16.66758221,16.68217641,16.68515678,16.14478007,,,,,,,,,,,,,,,,,,,,,,,,,,,,,,,,,,,,,,,,,,,,,,,,,,,,,,,,,,,,,,,,,,,,,,,,,,,,,,,,,,,,,,,,,,,,,,,,,,,,,,,,,,,,,,,,,,
,,,,,,,,,,,,,,,,,,,,,,,,,,,,,,,,,return,3.95167,25.344,596.9819299,1,0,1,0,1,5df14bb169a117069e70b11d,6036d829c86f840bc7dbe8ae,2021-02-24_22h53.07.543,Colour_Similarity_Experiment,2020.2.10,Win32,60,6036d0d9a84aa1626184a6ef,14.04357868,14.54420487,16.66758221,16.68217641,16.68515678,16.14478007,,,,,,,,,,,,,,,,,,,,,,,,,,,,,,,,,,,,,,,,,,,,,,,,,,,,,,,,,,,,,,,,,,,,,,,,,,,,,,,,,,,,,,,,,,,,,,,,,,,,,,,,,,,,,,,,,,
,,,,,,,,,,,,,,,,,,,,,,,,,,,,,,,,,return,3.354765,108.288,512.9218929,2,0,2,0,1,5df14bb169a117069e70b11d,6036d829c86f840bc7dbe8ae,2021-02-24_22h53.07.543,Colour_Similarity_Experiment,2020.2.10,Win32,60,6036d0d9a84aa1626184a6ef,14.04357868,14.54420487,16.66758221,16.68217641,16.68515678,16.14478007,,,,,,,,,,,,,,,,,,,,,,,,,,,,,,,,,,,,,,,,,,,,,,,,,,,,,,,,,,,,,,,,,,,,,,,,,,,,,,,,,,,,,,,,,,,,,,,,,,,,,,,,,,,,,,,,,,
,,,,,,,,,,,,,,,,,,,,,,,,,,,,,,,,,return,4.313035,-25.344,648.3519526,3,0,3,0,1,5df14bb169a117069e70b11d,6036d829c86f840bc7dbe8ae,2021-02-24_22h53.07.543,Colour_Similarity_Experiment,2020.2.10,Win32,60,6036d0d9a84aa1626184a6ef,14.04357868,14.54420487,16.66758221,16.68217641,16.68515678,16.14478007,,,,,,,,,,,,,,,,,,,,,,,,,,,,,,,,,,,,,,,,,,,,,,,,,,,,,,,,,,,,,,,,,,,,,,,,,,,,,,,,,,,,,,,,,,,,,,,,,,,,,,,,,,,,,,,,,,
,,,,,,,,,,,,,,,,,,,,,,,,,,,,,,,,,return,4.972905,-115.2,739.4169927,4,0,4,0,1,5df14bb169a117069e70b11d,6036d829c86f840bc7dbe8ae,2021-02-24_22h53.07.543,Colour_Similarity_Experiment,2020.2.10,Win32,60,6036d0d9a84aa1626184a6ef,14.04357868,14.54420487,16.66758221,16.68217641,16.68515678,16.14478007,,,,,,,,,,,,,,,,,,,,,,,,,,,,,,,,,,,,,,,,,,,,,,,,,,,,,,,,,,,,,,,,,,,,,,,,,,,,,,,,,,,,,,,,,,,,,,,,,,,,,,,,,,,,,,,,,,
,,,,,,,,,,,,,,,,,,,,,,,,,,,,,,,,,,,,,,,,,,5df14bb169a117069e70b11d,6036d829c86f840bc7dbe8ae,2021-02-24_22h53.07.543,Colour_Similarity_Experiment,2020.2.10,Win32,60,6036d0d9a84aa1626184a6ef,14.04357868,14.54420487,16.66758221,16.68217641,16.68515678,16.14478007,60,10.47303521,64.56626208,430.4417472,43.04417472,193.6987862,space,5.67417,space,8.47264,space,24.95293,space,9.20173,space,1.02093,space,4.083515,6,PF,weak,3,64.0000124,-108.000008,1,0,0,response3disk_5,8,4,4.390185,-5.599988639,2.399993598,1,0,0,rectangle_8,-45.59998924,-96.00000787,1,0,0,response5disk_7,3,3,8.800011575,-5.600006521,1,0,0,rectangle_4,0,0,0,6,1,,,,,,,,,,,,,,,,,,,,,,,,,,,,,,,,,,,,,,,,,,,,,,,,,,,,,,,,,,
,,,,,,,,,,,,,,,,,,,,,,,,,,,,,,,,,,,,,,,,,,5df14bb169a117069e70b11d,6036d829c86f840bc7dbe8ae,2021-02-24_22h53.07.543,Colour_Similarity_Experiment,2020.2.10,Win32,60,6036d0d9a84aa1626184a6ef,14.04357868,14.54420487,16.66758221,16.68217641,16.68515678,16.14478007,,,,,,,,,,,,,,,,,,,4,PF,strong,3,47.20001215,-92.80000782,1,0,0,response3disk_5,7,4,5.167005,5.600060356,-1.600006461,1,0,0,rectangle_8,5.600060356,-1.600006461,1,0,0,,,3,5.600060356,-1.600006461,1,0,0,,0,1,1,2,1,,,,,,,,,,,,,,,,,,,,,,,,,,,,,,,,,,,,,,,,,,,,,,,,,,,,,,,,,,
,,,,,,,,,,,,,,,,,,,,,,,,,,,,,,,,,,,,,,,,,,5df14bb169a117069e70b11d,6036d829c86f840bc7dbe8ae,2021-02-24_22h53.07.543,Colour_Similarity_Experiment,2020.2.10,Win32,60,6036d0d9a84aa1626184a6ef,14.04357868,14.54420487,16.66758221,16.68217641,16.68515678,16.14478007,,,,,,,,,,,,,,,,,,,2,PF,strong,3,-42.39994036,79.99999475,1,0,0,response7disk_5,4,0,3.90336,12.80001163,-4.000006497,1,0,0,rectangle_8,12.80001163,-4.000006497,1,0,0,,,3,12.80001163,-4.000006497,1,0,0,,0,2,2,3,1,,,,,,,,,,,,,,,,,,,,,,,,,,,,,,,,,,,,,,,,,,,,,,,,,,,,,,,,,,
,,,,,,,,,,,,,,,,,,,,,,,,,,,,,,,,,,,,,,,,,,5df14bb169a117069e70b11d,6036d829c86f840bc7dbe8ae,2021-02-24_22h53.07.543,Colour_Similarity_Experiment,2020.2.10,Win32,60,6036d0d9a84aa1626184a6ef,14.04357868,14.54420487,16.66758221,16.68217641,16.68515678,16.14478007,,,,,,,,,,,,,,,,,,,5,PF,weak,3,-85.59998983,-67.20000744,1,0,0,response5disk_5,1,2,3.63928,-19.19998884,-5.600006521,1,0,0,rectangle_8,-19.19998884,-5.600006521,1,0,0,,,3,-19.19998884,-5.600006521,1,0,0,,0,3,3,4,1,,,,,,,,,,,,,,,,,,,,,,,,,,,,,,,,,,,,,,,,,,,,,,,,,,,,,,,,,,
,,,,,,,,,,,,,,,,,,,,,,,,,,,,,,,,,,,,,,,,,,5df14bb169a117069e70b11d,6036d829c86f840bc7dbe8ae,2021-02-24_22h53.07.543,Colour_Similarity_Experiment,2020.2.10,Win32,60,6036d0d9a84aa1626184a6ef,14.04357868,14.54420487,16.66758221,16.68217641,16.68515678,16.14478007,,,,,,,,,,,,,,,,,,,7,PF,weak,3,96.80001289,32.79999405,1,0,0,response1disk_5,4,6,3.312635,3.200011492,-2.400006473,1,0,0,rectangle_8,3.200011492,-2.400006473,1,0,0,,,3,3.200011492,-2.400006473,1,0,0,,0,4,4,1,1,,,,,,,,,,,,,,,,,,,,,,,,,,,,,,,,,,,,,,,,,,,,,,,,,,,,,,,,,,
,,,,,,,,,,,,,,,,,,,,,,,,,,,,,,,,,,,,,,,,,,5df14bb169a117069e70b11d,6036d829c86f840bc7dbe8ae,2021-02-24_22h53.07.543,Colour_Similarity_Experiment,2020.2.10,Win32,60,6036d0d9a84aa1626184a6ef,14.04357868,14.54420487,16.66758221,16.68217641,16.68515678,16.14478007,,,,,,,,,,,,,,,,,,,5,PF,strong,3,-26.39994012,-97.60005672,1,0,0,response5disk_5,7,3,3.083395,13.60006047,-3.200006485,1,0,0,rectangle_8,13.60006047,-3.200006485,1,0,0,,,3,13.60006047,-3.200006485,1,0,0,,0,5,5,0,1,,,,,,,,,,,,,,,,,,,,,,,,,,,,,,,,,,,,,,,,,,,,,,,,,,,,,,,,,,
,,,,,,,,,,,,,,,,,,,,,,,,,,,,,,,,,,,,,,,,,,5df14bb169a117069e70b11d,6036d829c86f840bc7dbe8ae,2021-02-24_22h53.07.543,Colour_Similarity_Experiment,2020.2.10,Win32,60,6036d0d9a84aa1626184a6ef,14.04357868,14.54420487,16.66758221,16.68217641,16.68515678,16.14478007,,,,,,,,,,,,,,,,,,,6,PF,weak,3,68.00001246,-49.60000718,1,0,0,response3disk_5,3,5,3.618935,0.800011456,-3.200006485,1,0,0,rectangle_8,0.800011456,-3.200006485,1,0,0,,,3,0.800011456,-3.200006485,1,0,0,,0,6,6,5,1,,,,,,,,,,,,,,,,,,,,,,,,,,,,,,,,,,,,,,,,,,,,,,,,,,,,,,,,,,
,,,,,,,,,,,,,,,,,,,,,,,,,,,,,,,,,,,,,,,,,,5df14bb169a117069e70b11d,6036d829c86f840bc7dbe8ae,2021-02-24_22h53.07.543,Colour_Similarity_Experiment,2020.2.10,Win32,60,6036d0d9a84aa1626184a6ef,14.04357868,14.54420487,16.66758221,16.68217641,16.68515678,16.14478007,,,,,,,,,,,,,,,,,,,,PF,weak,3,,,,,,,,5,2.280675,,,,,,,,,,,,,,,,,,,,,,,,,,space,4.250515,5,weak,56.80001229,-30.40000689,1,0,0,response3disk,9,1,-1.59998858,-0.800006449,1,0,0,rectangle,115.2000132,43.19996979,1,0,0,response1disk_3,6,6,1,5.293815,1.600060296,-6.4373E-06,1,0,0,rectangle,0,0,0,136,1,,,,,,,,,,,,,,,,,,,
,,,,,,,,,,,,,,,,,,,,,,,,,,,,,,,,,,,,,,,,,,5df14bb169a117069e70b11d,6036d829c86f840bc7dbe8ae,2021-02-24_22h53.07.543,Colour_Similarity_Experiment,2020.2.10,Win32,60,6036d0d9a84aa1626184a6ef,14.04357868,14.54420487,16.66758221,16.68217641,16.68515678,16.14478007,,,,,,,,,,,,,,,,,,,,PF,weak,3,,,,,,,,4,1.93123,,,,,,,,,,,,,,,,,,,,,,,,,,,,9,weak,36.80001199,-60.80000734,1,0,0,response3disk,6,2,-7.999988675,-6.4373E-06,1,0,0,rectangle,-7.999988675,-6.4373E-06,1,0,0,,6,2,0,0.000915,-7.999988675,-6.4373E-06,1,0,0,,0,1,1,148,1,,,,,,,,,,,,,,,,,,,
,,,,,,,,,,,,,,,,,,,,,,,,,,,,,,,,,,,,,,,,,,5df14bb169a117069e70b11d,6036d829c86f840bc7dbe8ae,2021-02-24_22h53.07.543,Colour_Similarity_Experiment,2020.2.10,Win32,60,6036d0d9a84aa1626184a6ef,14.04357868,14.54420487,16.66758221,16.68217641,16.68515678,16.14478007,,,,,,,,,,,,,,,,,,,,PF,strong,3,,,,,,,,5,1.632,,,,,,,,,,,,,,,,,,,,,,,,,,,,1,strong,79.20001262,-54.40000725,1,0,0,response3disk,1,3,2.40001148,-2.400006473,1,0,0,rectangle,2.40001148,-2.400006473,1,0,0,,6,7,0,0.00122,2.40001148,-2.400006473,1,0,0,,0,2,2,151,1,,,,,,,,,,,,,,,,,,,
,,,,,,,,,,,,,,,,,,,,,,,,,,,,,,,,,,,,,,,,,,5df14bb169a117069e70b11d,6036d829c86f840bc7dbe8ae,2021-02-24_22h53.07.543,Colour_Similarity_Experiment,2020.2.10,Win32,60,6036d0d9a84aa1626184a6ef,14.04357868,14.54420487,16.66758221,16.68217641,16.68515678,16.14478007,,,,,,,,,,,,,,,,,,,,PF,strong,3,,,,,,,,3,2.396045,,,,,,,,,,,,,,,,,,,,,,,,,,,,1,strong,-18.39994,-77.60000759,1,0,0,response5disk,8,4,-3.999988616,5.599993646,1,0,0,rectangle,-3.999988616,5.599993646,1,0,0,,6,3,0,0.001005,-3.999988616,5.599993646,1,0,0,,0,3,3,27,1,,,,,,,,,,,,,,,,,,,
,,,,,,,,,,,,,,,,,,,,,,,,,,,,,,,,,,,,,,,,,,5df14bb169a117069e70b11d,6036d829c86f840bc7dbe8ae,2021-02-24_22h53.07.543,Colour_Similarity_Experiment,2020.2.10,Win32,60,6036d0d9a84aa1626184a6ef,14.04357868,14.54420487,16.66758221,16.68217641,16.68515678,16.14478007,,,,,,,,,,,,,,,,,,,,PF,strong,3,,,,,,,,4,0.750595,,,,,,,,,,,,,,,,,,,,,,,,,,,,9,strong,36.80001199,-77.60000759,1,0,0,response3disk,9,5,-2.399939764,-2.400006473,1,0,0,rectangle,-2.399939764,-2.400006473,1,0,0,,6,5,0,0.000645,-2.399939764,-2.400006473,1,0,0,,0,4,4,17,1,,,,,,,,,,,,,,,,,,,
,,,,,,,,,,,,,,,,,,,,,,,,,,,,,,,,,,,,,,,,,,5df14bb169a117069e70b11d,6036d829c86f840bc7dbe8ae,2021-02-24_22h53.07.543,Colour_Similarity_Experiment,2020.2.10,Win32,60,6036d0d9a84aa1626184a6ef,14.04357868,14.54420487,16.66758221,16.68217641,16.68515678,16.14478007,,,,,,,,,,,,,,,,,,,,PF,weak,3,,,,,,,,2,1.98636,,,,,,,,,,,,,,,,,,,,,,,,,,,,4,weak,-62.39994066,-57.6000073,1,0,0,response5disk,5,6,8.800011575,3.999993622,1,0,0,rectangle,8.800011575,3.999993622,1,0,0,,6,4,0,0.000615,8.800011575,3.999993622,1,0,0,,0,5,5,49,1,,,,,,,,,,,,,,,,,,,
,,,,,,,,,,,,,,,,,,,,,,,,,,,,,,,,,,,,,,,,,,5df14bb169a117069e70b11d,6036d829c86f840bc7dbe8ae,2021-02-24_22h53.07.543,Colour_Similarity_Experiment,2020.2.10,Win32,60,6036d0d9a84aa1626184a6ef,14.04357868,14.54420487,16.66758221,16.68217641,16.68515678,16.14478007,,,,,,,,,,,,,,,,,,,,PF,weak,3,,,,,,,,4,0.986545,,,,,,,,,,,,,,,,,,,,,,,,,,,,5,weak,39.20001203,-90.40000778,1,0,0,response3disk,3,7,1.14441E-05,-4.000006497,1,0,0,rectangle,1.14441E-05,-4.000006497,1,0,0,,6,4,0,0.000125,1.14441E-05,-4.000006497,1,0,0,,0,6,6,109,1,,,,,,,,,,,,,,,,,,,
,,,,,,,,,,,,,,,,,,,,,,,,,,,,,,,,,,,,,,,,,,5df14bb169a117069e70b11d,6036d829c86f840bc7dbe8ae,2021-02-24_22h53.07.543,Colour_Similarity_Experiment,2020.2.10,Win32,60,6036d0d9a84aa1626184a6ef,14.04357868,14.54420487,16.66758221,16.68217641,16.68515678,16.14478007,,,,,,,,,,,,,,,,,,,,PF,weak,3,,,,,,,,2,1.06997,,,,,,,,,,,,,,,,,,,,,,,,,,,,3,weak,-75.19998968,-49.60000718,1,0,0,response5disk,2,8,1.600060296,-6.4373E-06,1,0,0,rectangle,-103.1999901,-48.00000715,1,0,0,response5disk_3,6,2,1,3.798245,8.000011563,-5.600006521,1,0,0,rectangle,0,7,7,36,1,,,,,,,,,,,,,,,,,,,
,,,,,,,,,,,,,,,,,,,,,,,,,,,,,,,,,,,,,,,,,,5df14bb169a117069e70b11d,6036d829c86f840bc7dbe8ae,2021-02-24_22h53.07.543,Colour_Similarity_Experiment,2020.2.10,Win32,60,6036d0d9a84aa1626184a6ef,14.04357868,14.54420487,16.66758221,16.68217641,16.68515678,16.14478007,,,,,,,,,,,,,,,,,,,,PF,strong,3,,,,,,,,3,1.271185,,,,,,,,,,,,,,,,,,,,,,,,,,,,4,strong,-51.99998933,-76.80000758,1,0,0,response5disk,8,9,-1.59998858,-0.800006449,1,0,0,rectangle,-1.59998858,-0.800006449,1,0,0,,6,5,0,0.00105,-1.59998858,-0.800006449,1,0,0,,0,8,8,35,1,,,,,,,,,,,,,,,,,,,
,,,,,,,,,,,,,,,,,,,,,,,,,,,,,,,,,,,,,,,,,,5df14bb169a117069e70b11d,6036d829c86f840bc7dbe8ae,2021-02-24_22h53.07.543,Colour_Similarity_Experiment,2020.2.10,Win32,60,6036d0d9a84aa1626184a6ef,14.04357868,14.54420487,16.66758221,16.68217641,16.68515678,16.14478007,,,,,,,,,,,,,,,,,,,,PF,weak,3,,,,,,,,4,2.33181,,,,,,,,,,,,,,,,,,,,,,,,,,,,3,weak,42.40001208,-76.00000757,1,0,0,response3disk,1,10,0.800011456,1.599993587,1,0,0,rectangle,0.800011456,1.599993587,1,0,0,,6,7,0,0.000865,0.800011456,1.599993587,1,0,0,,0,9,9,96,1,,,,,,,,,,,,,,,,,,,
,,,,,,,,,,,,,,,,,,,,,,,,,,,,,,,,,,,,,,,,,,5df14bb169a117069e70b11d,6036d829c86f840bc7dbe8ae,2021-02-24_22h53.07.543,Colour_Similarity_Experiment,2020.2.10,Win32,60,6036d0d9a84aa1626184a6ef,14.04357868,14.54420487,16.66758221,16.68217641,16.68515678,16.14478007,,,,,,,,,,,,,,,,,,,,PF,strong,3,,,,,,,,2,1.16715,,,,,,,,,,,,,,,,,,,,,,,,,,,,6,strong,-82.39994096,-56.00000727,1,0,0,response5disk,9,11,-0.799988568,-1.600006461,1,0,0,rectangle,-95.19998997,-42.40000707,1,0,0,response5disk_3,6,2,1,3.035435,1.600060296,-7.200006545,1,0,0,rectangle,0,10,10,160,1,,,,,,,,,,,,,,,,,,,
,,,,,,,,,,,,,,,,,,,,,,,,,,,,,,,,,,,,,,,,,,5df14bb169a117069e70b11d,6036d829c86f840bc7dbe8ae,2021-02-24_22h53.07.543,Colour_Similarity_Experiment,2020.2.10,Win32,60,6036d0d9a84aa1626184a6ef,14.04357868,14.54420487,16.66758221,16.68217641,16.68515678,16.14478007,,,,,,,,,,,,,,,,,,,,PF,strong,3,,,,,,,,0,8.187405,,,,,,,,,,,,,,,,,,,,,,,,,,,,4,strong,-56.7999894,83.19997039,1,0,0,response7disk,4,12,-1.59998858,-5.600006521,1,0,0,rectangle,-1.59998858,-5.600006521,1,0,0,,6,2,0,9E-05,-1.59998858,-5.600006521,1,0,0,,0,11,11,84,1,,,,,,,,,,,,,,,,,,,
,,,,,,,,,,,,,,,,,,,,,,,,,,,,,,,,,,,,,,,,,,5df14bb169a117069e70b11d,6036d829c86f840bc7dbe8ae,2021-02-24_22h53.07.543,Colour_Similarity_Experiment,2020.2.10,Win32,60,6036d0d9a84aa1626184a6ef,14.04357868,14.54420487,16.66758221,16.68217641,16.68515678,16.14478007,,,,,,,,,,,,,,,,,,,,PF,weak,3,,,,,,,,3,1.02116,,,,,,,,,,,,,,,,,,,,,,,,,,,,6,weak,-41.59998918,-72.80000752,1,0,0,response5disk,3,13,-5.599988639,3.999993622,1,0,0,rectangle,-5.599988639,3.999993622,1,0,0,,6,4,0,0.00076,-5.599988639,3.999993622,1,0,0,,0,12,12,26,1,,,,,,,,,,,,,,,,,,,
,,,,,,,,,,,,,,,,,,,,,,,,,,,,,,,,,,,,,,,,,,5df14bb169a117069e70b11d,6036d829c86f840bc7dbe8ae,2021-02-24_22h53.07.543,Colour_Similarity_Experiment,2020.2.10,Win32,60,6036d0d9a84aa1626184a6ef,14.04357868,14.54420487,16.66758221,16.68217641,16.68515678,16.14478007,,,,,,,,,,,,,,,,,,,,PF,weak,3,,,,,,,,4,0.55532,,,,,,,,,,,,,,,,,,,,,,,,,,,,2,weak,19.20001173,-72.00000751,1,0,0,response3disk,6,14,-11.19998872,1.599993587,1,0,0,rectangle,-11.19998872,1.599993587,1,0,0,,6,0,0,0.00052,-11.19998872,1.599993587,1,0,0,,0,13,13,113,1,,,,,,,,,,,,,,,,,,,
,,,,,,,,,,,,,,,,,,,,,,,,,,,,,,,,,,,,,,,,,,5df14bb169a117069e70b11d,6036d829c86f840bc7dbe8ae,2021-02-24_22h53.07.543,Colour_Similarity_Experiment,2020.2.10,Win32,60,6036d0d9a84aa1626184a6ef,14.04357868,14.54420487,16.66758221,16.68217641,16.68515678,16.14478007,,,,,,,,,,,,,,,,,,,,PF,weak,3,,,,,,,,2,1.820545,,,,,,,,,,,,,,,,,,,,,,,,,,,,7,weak,-84.79998982,-53.60000724,1,0,0,response5disk,5,15,-1.59998858,-7.200006545,1,0,0,rectangle,-1.59998858,-7.200006545,1,0,0,,6,7,0,0.00211,-1.59998858,-7.200006545,1,0,0,,0,14,14,92,1,,,,,,,,,,,,,,,,,,,
,,,,,,,,,,,,,,,,,,,,,,,,,,,,,,,,,,,,,,,,,,5df14bb169a117069e70b11d,6036d829c86f840bc7dbe8ae,2021-02-24_22h53.07.543,Colour_Similarity_Experiment,2020.2.10,Win32,60,6036d0d9a84aa1626184a6ef,14.04357868,14.54420487,16.66758221,16.68217641,16.68515678,16.14478007,,,,,,,,,,,,,,,,,,,,PF,strong,3,,,,,,,,4,0.99999,,,,,,,,,,,,,,,,,,,,,,,,,,,,3,strong,36.00001198,-82.40000767,1,0,0,response3disk,4,16,-7.199988663,3.999993622,1,0,0,rectangle,-7.199988663,3.999993622,1,0,0,,6,4,0,0.00085,-7.199988663,3.999993622,1,0,0,,0,15,15,110,1,,,,,,,,,,,,,,,,,,,
,,,,,,,,,,,,,,,,,,,,,,,,,,,,,,,,,,,,,,,,,,5df14bb169a117069e70b11d,6036d829c86f840bc7dbe8ae,2021-02-24_22h53.07.543,Colour_Similarity_Experiment,2020.2.10,Win32,60,6036d0d9a84aa1626184a6ef,14.04357868,14.54420487,16.66758221,16.68217641,16.68515678,16.14478007,,,,,,,,,,,,,,,,,,,,PF,weak,3,,,,,,,,3,0.702075,,,,,,,,,,,,,,,,,,,,,,,,,,,,4,weak,-48.79998928,-84.8000077,1,0,0,response5disk,6,17,2.40001148,-3.200006485,1,0,0,rectangle,2.40001148,-3.200006485,1,0,0,,6,1,0,0.00086,2.40001148,-3.200006485,1,0,0,,0,16,16,120,1,,,,,,,,,,,,,,,,,,,
,,,,,,,,,,,,,,,,,,,,,,,,,,,,,,,,,,,,,,,,,,5df14bb169a117069e70b11d,6036d829c86f840bc7dbe8ae,2021-02-24_22h53.07.543,Colour_Similarity_Experiment,2020.2.10,Win32,60,6036d0d9a84aa1626184a6ef,14.04357868,14.54420487,16.66758221,16.68217641,16.68515678,16.14478007,,,,,,,,,,,,,,,,,,,,PF,weak,3,,,,,,,,4,1.063325,,,,,,,,,,,,,,,,,,,,,,,,,,,,1,weak,40.80001205,-75.20000756,1,0,0,response3disk,8,18,1.14441E-05,-0.800006449,1,0,0,rectangle,1.14441E-05,-0.800006449,1,0,0,,6,3,0,0.00056,1.14441E-05,-0.800006449,1,0,0,,0,17,17,65,1,,,,,,,,,,,,,,,,,,,
,,,,,,,,,,,,,,,,,,,,,,,,,,,,,,,,,,,,,,,,,,5df14bb169a117069e70b11d,6036d829c86f840bc7dbe8ae,2021-02-24_22h53.07.543,Colour_Similarity_Experiment,2020.2.10,Win32,60,6036d0d9a84aa1626184a6ef,14.04357868,14.54420487,16.66758221,16.68217641,16.68515678,16.14478007,,,,,,,,,,,,,,,,,,,,PF,weak,3,,,,,,,,3,0.529495,,,,,,,,,,,,,,,,,,,,,,,,,,,,1,weak,-39.99998915,-68.80000746,1,0,0,response5disk,3,19,1.14441E-05,-6.400006533,1,0,0,rectangle,1.14441E-05,-6.400006533,1,0,0,,6,2,0,0.001785,1.14441E-05,-6.400006533,1,0,0,,0,18,18,1,1,,,,,,,,,,,,,,,,,,,
,,,,,,,,,,,,,,,,,,,,,,,,,,,,,,,,,,,,,,,,,,5df14bb169a117069e70b11d,6036d829c86f840bc7dbe8ae,2021-02-24_22h53.07.543,Colour_Similarity_Experiment,2020.2.10,Win32,60,6036d0d9a84aa1626184a6ef,14.04357868,14.54420487,16.66758221,16.68217641,16.68515678,16.14478007,,,,,,,,,,,,,,,,,,,,PF,weak,3,,,,,,,,6,1.716085,,,,,,,,,,,,,,,,,,,,,,,,,,,,1,weak,88.00001276,27.99999398,1,0,0,response1disk,4,20,-2.399939764,8.799993694,1,0,0,rectangle,-2.399939764,8.799993694,1,0,0,,6,5,0,0.001455,-2.399939764,8.799993694,1,0,0,,0,19,19,139,1,,,,,,,,,,,,,,,,,,,
,,,,,,,,,,,,,,,,,,,,,,,,,,,,,,,,,,,,,,,,,,5df14bb169a117069e70b11d,6036d829c86f840bc7dbe8ae,2021-02-24_22h53.07.543,Colour_Similarity_Experiment,2020.2.10,Win32,60,6036d0d9a84aa1626184a6ef,14.04357868,14.54420487,16.66758221,16.68217641,16.68515678,16.14478007,,,,,,,,,,,,,,,,,,,,PF,weak,3,,,,,,,,5,1.619185,,,,,,,,,,,,,,,,,,,,,,,,,,,,5,weak,71.20001251,-40.80000705,1,0,0,response3disk,1,21,-18.39994,-1.600006461,1,0,0,rectangle,112.0000131,51.19996991,1,0,0,response1disk_3,6,6,1,3.650245,-3.999988616,1.599993587,1,0,0,rectangle,0,20,20,159,1,,,,,,,,,,,,,,,,,,,
,,,,,,,,,,,,,,,,,,,,,,,,,,,,,,,,,,,,,,,,,,5df14bb169a117069e70b11d,6036d829c86f840bc7dbe8ae,2021-02-24_22h53.07.543,Colour_Similarity_Experiment,2020.2.10,Win32,60,6036d0d9a84aa1626184a6ef,14.04357868,14.54420487,16.66758221,16.68217641,16.68515678,16.14478007,,,,,,,,,,,,,,,,,,,,PF,weak,3,,,,,,,,0,1.96737,,,,,,,,,,,,,,,,,,,,,,,,,,,,9,weak,-60.79998946,91.99999493,1,0,0,response7disk,9,22,0.800011456,4.799993634,1,0,0,rectangle,0.800011456,4.799993634,1,0,0,,6,2,0,0.00063,0.800011456,4.799993634,1,0,0,,0,21,21,106,1,,,,,,,,,,,,,,,,,,,
,,,,,,,,,,,,,,,,,,,,,,,,,,,,,,,,,,,,,,,,,,5df14bb169a117069e70b11d,6036d829c86f840bc7dbe8ae,2021-02-24_22h53.07.543,Colour_Similarity_Experiment,2020.2.10,Win32,60,6036d0d9a84aa1626184a6ef,14.04357868,14.54420487,16.66758221,16.68217641,16.68515678,16.14478007,,,,,,,,,,,,,,,,,,,,PF,weak,3,,,,,,,,5,1.29935,,,,,,,,,,,,,,,,,,,,,,,,,,,,6,weak,72.80001253,-44.8000071,1,0,0,response3disk,2,23,-11.99998873,5.599993646,1,0,0,rectangle,-11.99998873,5.599993646,1,0,0,,6,3,0,0.00083,-11.99998873,5.599993646,1,0,0,,0,22,22,130,1,,,,,,,,,,,,,,,,,,,
,,,,,,,,,,,,,,,,,,,,,,,,,,,,,,,,,,,,,,,,,,5df14bb169a117069e70b11d,6036d829c86f840bc7dbe8ae,2021-02-24_22h53.07.543,Colour_Similarity_Experiment,2020.2.10,Win32,60,6036d0d9a84aa1626184a6ef,14.04357868,14.54420487,16.66758221,16.68217641,16.68515678,16.14478007,,,,,,,,,,,,,,,,,,,,PF,weak,3,,,,,,,,1,1.702155,,,,,,,,,,,,,,,,,,,,,,,,,,,,8,weak,-93.59998995,16.79999381,1,0,0,response7disk,8,24,11.20001161,3.999993622,1,0,0,rectangle,11.20001161,3.999993622,1,0,0,,6,5,0,0.00066,11.20001161,3.999993622,1,0,0,,0,23,23,153,1,,,,,,,,,,,,,,,,,,,
,,,,,,,,,,,,,,,,,,,,,,,,,,,,,,,,,,,,,,,,,,5df14bb169a117069e70b11d,6036d829c86f840bc7dbe8ae,2021-02-24_22h53.07.543,Colour_Similarity_Experiment,2020.2.10,Win32,60,6036d0d9a84aa1626184a6ef,14.04357868,14.54420487,16.66758221,16.68217641,16.68515678,16.14478007,,,,,,,,,,,,,,,,,,,,PF,weak,3,,,,,,,,4,1.50023,,,,,,,,,,,,,,,,,,,,,,,,,,,,7,weak,30.4000119,-75.20000756,1,0,0,response3disk,3,25,-10.39993988,0.799993575,1,0,0,rectangle,-10.39993988,0.799993575,1,0,0,,6,1,0,0.00172,-10.39993988,0.799993575,1,0,0,,0,24,24,81,1,,,,,,,,,,,,,,,,,,,
,,,,,,,,,,,,,,,,,,,,,,,,,,,,,,,,,,,,,,,,,,5df14bb169a117069e70b11d,6036d829c86f840bc7dbe8ae,2021-02-24_22h53.07.543,Colour_Similarity_Experiment,2020.2.10,Win32,60,6036d0d9a84aa1626184a6ef,14.04357868,14.54420487,16.66758221,16.68217641,16.68515678,16.14478007,,,,,,,,,,,,,,,,,,,,PF,weak,3,,,,,,,,5,1.70182,,,,,,,,,,,,,,,,,,,,,,,,,,,,5,weak,83.20001268,-57.6000073,1,0,0,response3disk,2,26,1.600060296,-2.400006473,1,0,0,rectangle,1.600060296,-2.400006473,1,0,0,,6,6,0,0.00077,1.600060296,-2.400006473,1,0,0,,0,25,25,129,1,,,,,,,,,,,,,,,,,,,
,,,,,,,,,,,,,,,,,,,,,,,,,,,,,,,,,,,,,,,,,,5df14bb169a117069e70b11d,6036d829c86f840bc7dbe8ae,2021-02-24_22h53.07.543,Colour_Similarity_Experiment,2020.2.10,Win32,60,6036d0d9a84aa1626184a6ef,14.04357868,14.54420487,16.66758221,16.68217641,16.68515678,16.14478007,,,,,,,,,,,,,,,,,,,,PF,strong,3,,,,,,,,6,2.370475,,,,,,,,,,,,,,,,,,,,,,,,,,,,6,strong,88.00001276,41.59999418,1,0,0,response1disk,3,27,-0.799988568,5.599993646,1,0,0,rectangle,-0.799988568,5.599993646,1,0,0,,6,1,0,0.00083,-0.799988568,5.599993646,1,0,0,,0,26,26,21,1,,,,,,,,,,,,,,,,,,,
,,,,,,,,,,,,,,,,,,,,,,,,,,,,,,,,,,,,,,,,,,5df14bb169a117069e70b11d,6036d829c86f840bc7dbe8ae,2021-02-24_22h53.07.543,Colour_Similarity_Experiment,2020.2.10,Win32,60,6036d0d9a84aa1626184a6ef,14.04357868,14.54420487,16.66758221,16.68217641,16.68515678,16.14478007,,,,,,,,,,,,,,,,,,,,PF,strong,3,,,,,,,,7,2.068315,,,,,,,,,,,,,,,,,,,,,,,,,,,,1,strong,43.20001209,75.19997027,1,0,0,response1disk,6,28,5.600060356,5.599993646,1,0,0,rectangle,5.600060356,5.599993646,1,0,0,,6,7,0,0.000925,5.600060356,5.599993646,1,0,0,,0,27,27,58,1,,,,,,,,,,,,,,,,,,,
,,,,,,,,,,,,,,,,,,,,,,,,,,,,,,,,,,,,,,,,,,5df14bb169a117069e70b11d,6036d829c86f840bc7dbe8ae,2021-02-24_22h53.07.543,Colour_Similarity_Experiment,2020.2.10,Win32,60,6036d0d9a84aa1626184a6ef,14.04357868,14.54420487,16.66758221,16.68217641,16.68515678,16.14478007,,,,,,,,,,,,,,,,,,,,PF,weak,3,,,,,,,,5,1.71615,,,,,,,,,,,,,,,,,,,,,,,,,,,,3,weak,81.60001266,-51.2000072,1,0,0,response3disk,8,29,0.800011456,-4.800006509,1,0,0,rectangle,0.800011456,-4.800006509,1,0,0,,6,6,0,0.001945,0.800011456,-4.800006509,1,0,0,,0,28,28,3,1,,,,,,,,,,,,,,,,,,,
,,,,,,,,,,,,,,,,,,,,,,,,,,,,,,,,,,,,,,,,,,5df14bb169a117069e70b11d,6036d829c86f840bc7dbe8ae,2021-02-24_22h53.07.543,Colour_Similarity_Experiment,2020.2.10,Win32,60,6036d0d9a84aa1626184a6ef,14.04357868,14.54420487,16.66758221,16.68217641,16.68515678,16.14478007,,,,,,,,,,,,,,,,,,,,PF,weak,3,,,,,,,,3,1.382285,,,,,,,,,,,,,,,,,,,,,,,,,,,,1,weak,-39.19998914,-80.80000764,1,0,0,response5disk,2,30,-13.59998876,-9.60000658,1,0,0,rectangle,-13.59998876,-9.60000658,1,0,0,,6,7,0,0.00129,-13.59998876,-9.60000658,1,0,0,,0,29,29,24,1,,,,,,,,,,,,,,,,,,,
,,,,,,,,,,,,,,,,,,,,,,,,,,,,,,,,,,,,,,,,,,5df14bb169a117069e70b11d,6036d829c86f840bc7dbe8ae,2021-02-24_22h53.07.543,Colour_Similarity_Experiment,2020.2.10,Win32,60,6036d0d9a84aa1626184a6ef,14.04357868,14.54420487,16.66758221,16.68217641,16.68515678,16.14478007,,,,,,,,,,,,,,,,,,,,PF,weak,3,,,,,,,,4,1.402605,,,,,,,,,,,,,,,,,,,,,,,,,,,,9,weak,40.00001204,-89.6000566,1,0,0,response3disk,2,31,-7.199988663,3.19999361,1,0,0,rectangle,-7.199988663,3.19999361,1,0,0,,6,4,0,0.000555,-7.199988663,3.19999361,1,0,0,,0,30,30,157,1,,,,,,,,,,,,,,,,,,,
,,,,,,,,,,,,,,,,,,,,,,,,,,,,,,,,,,,,,,,,,,5df14bb169a117069e70b11d,6036d829c86f840bc7dbe8ae,2021-02-24_22h53.07.543,Colour_Similarity_Experiment,2020.2.10,Win32,60,6036d0d9a84aa1626184a6ef,14.04357868,14.54420487,16.66758221,16.68217641,16.68515678,16.14478007,,,,,,,,,,,,,,,,,,,,PF,strong,3,,,,,,,,5,1.49694,,,,,,,,,,,,,,,,,,,,,,,,,,,,4,strong,116.8000132,-40.00000703,1,0,0,response3disk,9,32,8.000011563,0.799993575,1,0,0,rectangle,8.000011563,0.799993575,1,0,0,,6,5,0,0.00062,8.000011563,0.799993575,1,0,0,,0,31,31,90,1,,,,,,,,,,,,,,,,,,,
,,,,,,,,,,,,,,,,,,,,,,,,,,,,,,,,,,,,,,,,,,5df14bb169a117069e70b11d,6036d829c86f840bc7dbe8ae,2021-02-24_22h53.07.543,Colour_Similarity_Experiment,2020.2.10,Win32,60,6036d0d9a84aa1626184a6ef,14.04357868,14.54420487,16.66758221,16.68217641,16.68515678,16.14478007,,,,,,,,,,,,,,,,,,,,PF,weak,3,,,,,,,,3,0.881735,,,,,,,,,,,,,,,,,,,,,,,,,,,,5,weak,-36.7999891,-82.40000767,1,0,0,response5disk,6,33,6.400011539,5.599993646,1,0,0,rectangle,6.400011539,5.599993646,1,0,0,,6,7,0,0.00145,6.400011539,5.599993646,1,0,0,,0,32,32,103,1,,,,,,,,,,,,,,,,,,,
,,,,,,,,,,,,,,,,,,,,,,,,,,,,,,,,,,,,,,,,,,5df14bb169a117069e70b11d,6036d829c86f840bc7dbe8ae,2021-02-24_22h53.07.543,Colour_Similarity_Experiment,2020.2.10,Win32,60,6036d0d9a84aa1626184a6ef,14.04357868,14.54420487,16.66758221,16.68217641,16.68515678,16.14478007,,,,,,,,,,,,,,,,,,,,PF,strong,3,,,,,,,,5,1.41394,,,,,,,,,,,,,,,,,,,,,,,,,,,,2,strong,86.40001273,-52.80000722,1,0,0,response3disk,3,34,3.200011492,2.399993598,1,0,0,rectangle,107.200013,47.99999428,1,0,0,response1disk_3,6,6,1,4.069395,4.800011516,3.19999361,1,0,0,rectangle,0,33,33,104,1,,,,,,,,,,,,,,,,,,,
,,,,,,,,,,,,,,,,,,,,,,,,,,,,,,,,,,,,,,,,,,5df14bb169a117069e70b11d,6036d829c86f840bc7dbe8ae,2021-02-24_22h53.07.543,Colour_Similarity_Experiment,2020.2.10,Win32,60,6036d0d9a84aa1626184a6ef,14.04357868,14.54420487,16.66758221,16.68217641,16.68515678,16.14478007,,,,,,,,,,,,,,,,,,,,PF,strong,3,,,,,,,,3,1.04908,,,,,,,,,,,,,,,,,,,,,,,,,,,,1,strong,-30.39994018,-63.20000738,1,0,0,response5disk,7,35,-3.999988616,5.599993646,1,0,0,rectangle,-3.999988616,5.599993646,1,0,0,,6,2,0,0.000565,-3.999988616,5.599993646,1,0,0,,0,34,34,137,1,,,,,,,,,,,,,,,,,,,
,,,,,,,,,,,,,,,,,,,,,,,,,,,,,,,,,,,,,,,,,,5df14bb169a117069e70b11d,6036d829c86f840bc7dbe8ae,2021-02-24_22h53.07.543,Colour_Similarity_Experiment,2020.2.10,Win32,60,6036d0d9a84aa1626184a6ef,14.04357868,14.54420487,16.66758221,16.68217641,16.68515678,16.14478007,,,,,,,,,,,,,,,,,,,,PF,strong,3,,,,,,,,4,0.77086,,,,,,,,,,,,,,,,,,,,,,,,,,,,8,strong,35.20001197,-73.60000753,1,0,0,response3disk,2,36,-9.599988699,-2.400006473,1,0,0,rectangle,-9.599988699,-2.400006473,1,0,0,,6,3,0,0.00256,-9.599988699,-2.400006473,1,0,0,,0,35,35,22,1,,,,,,,,,,,,,,,,,,,
,,,,,,,,,,,,,,,,,,,,,,,,,,,,,,,,,,,,,,,,,,5df14bb169a117069e70b11d,6036d829c86f840bc7dbe8ae,2021-02-24_22h53.07.543,Colour_Similarity_Experiment,2020.2.10,Win32,60,6036d0d9a84aa1626184a6ef,14.04357868,14.54420487,16.66758221,16.68217641,16.68515678,16.14478007,,,,,,,,,,,,,,,,,,,,PF,strong,3,,,,,,,,2,0.813935,,,,,,,,,,,,,,,,,,,,,,,,,,,,7,strong,-75.19998968,-42.40000707,1,0,0,response5disk,4,37,-4.799988627,5.599993646,1,0,0,rectangle,-4.799988627,5.599993646,1,0,0,,6,3,0,7E-05,-4.799988627,5.599993646,1,0,0,,0,36,36,158,1,,,,,,,,,,,,,,,,,,,
,,,,,,,,,,,,,,,,,,,,,,,,,,,,,,,,,,,,,,,,,,5df14bb169a117069e70b11d,6036d829c86f840bc7dbe8ae,2021-02-24_22h53.07.543,Colour_Similarity_Experiment,2020.2.10,Win32,60,6036d0d9a84aa1626184a6ef,14.04357868,14.54420487,16.66758221,16.68217641,16.68515678,16.14478007,,,,,,,,,,,,,,,,,,,,PF,strong,3,,,,,,,,5,0.567455,,,,,,,,,,,,,,,,,,,,,,,,,,,,5,strong,58.40001231,-21.60000676,1,0,0,response3disk,2,38,1.600060296,0.799993575,1,0,0,rectangle,40.80001205,103.9999951,1,0,0,response1disk_3,7,7,1,1.818695,-9.599988699,-4.000006497,1,0,0,rectangle,0,37,37,55,1,,,,,,,,,,,,,,,,,,,
,,,,,,,,,,,,,,,,,,,,,,,,,,,,,,,,,,,,,,,,,,5df14bb169a117069e70b11d,6036d829c86f840bc7dbe8ae,2021-02-24_22h53.07.543,Colour_Similarity_Experiment,2020.2.10,Win32,60,6036d0d9a84aa1626184a6ef,14.04357868,14.54420487,16.66758221,16.68217641,16.68515678,16.14478007,,,,,,,,,,,,,,,,,,,,PF,strong,3,,,,,,,,3,1.583825,,,,,,,,,,,,,,,,,,,,,,,,,,,,5,strong,-46.39994042,-75.20000756,1,0,0,response5disk,3,39,7.200011551,1.599993587,1,0,0,rectangle,7.200011551,1.599993587,1,0,0,,7,1,0,0.00058,7.200011551,1.599993587,1,0,0,,0,38,38,25,1,,,,,,,,,,,,,,,,,,,
,,,,,,,,,,,,,,,,,,,,,,,,,,,,,,,,,,,,,,,,,,5df14bb169a117069e70b11d,6036d829c86f840bc7dbe8ae,2021-02-24_22h53.07.543,Colour_Similarity_Experiment,2020.2.10,Win32,60,6036d0d9a84aa1626184a6ef,14.04357868,14.54420487,16.66758221,16.68217641,16.68515678,16.14478007,,,,,,,,,,,,,,,,,,,,PF,weak,3,,,,,,,,5,0.883655,,,,,,,,,,,,,,,,,,,,,,,,,,,,9,weak,76.00001258,-44.00000709,1,0,0,response3disk,4,40,2.40001148,-7.200006545,1,0,0,rectangle,2.40001148,-7.200006545,1,0,0,,7,7,0,0.000605,2.40001148,-7.200006545,1,0,0,,0,39,39,114,1,,,,,,,,,,,,,,,,,,,
,,,,,,,,,,,,,,,,,,,,,,,,,,,,,,,,,,,,,,,,,,5df14bb169a117069e70b11d,6036d829c86f840bc7dbe8ae,2021-02-24_22h53.07.543,Colour_Similarity_Experiment,2020.2.10,Win32,60,6036d0d9a84aa1626184a6ef,14.04357868,14.54420487,16.66758221,16.68217641,16.68515678,16.14478007,,,,,,,,,,,,,,,,,,,,PF,strong,3,,,,,,,,4,1.0221,,,,,,,,,,,,,,,,,,,,,,,,,,,,9,strong,46.40001214,-68.80000746,1,0,0,response3disk,2,41,6.400011539,3.999993622,1,0,0,rectangle,-51.99998933,-95.20000786,1,0,0,response5disk_3,3,3,1,1.82227,5.600060356,-1.600006461,1,0,0,rectangle,0,40,40,11,1,,,,,,,,,,,,,,,,,,,
,,,,,,,,,,,,,,,,,,,,,,,,,,,,,,,,,,,,,,,,,,5df14bb169a117069e70b11d,6036d829c86f840bc7dbe8ae,2021-02-24_22h53.07.543,Colour_Similarity_Experiment,2020.2.10,Win32,60,6036d0d9a84aa1626184a6ef,14.04357868,14.54420487,16.66758221,16.68217641,16.68515678,16.14478007,,,,,,,,,,,,,,,,,,,,PF,strong,3,,,,,,,,2,0.88189,,,,,,,,,,,,,,,,,,,,,,,,,,,,5,strong,-104.7999901,-49.60000718,1,0,0,response5disk,1,42,-2.399939764,-1.600006461,1,0,0,rectangle,-2.399939764,-1.600006461,1,0,0,,3,2,0,0.000995,-2.399939764,-1.600006461,1,0,0,,0,41,41,131,1,,,,,,,,,,,,,,,,,,,
,,,,,,,,,,,,,,,,,,,,,,,,,,,,,,,,,,,,,,,,,,5df14bb169a117069e70b11d,6036d829c86f840bc7dbe8ae,2021-02-24_22h53.07.543,Colour_Similarity_Experiment,2020.2.10,Win32,60,6036d0d9a84aa1626184a6ef,14.04357868,14.54420487,16.66758221,16.68217641,16.68515678,16.14478007,,,,,,,,,,,,,,,,,,,,PF,strong,3,,,,,,,,6,1.852815,,,,,,,,,,,,,,,,,,,,,,,,,,,,4,strong,102.400013,43.99999422,1,0,0,response1disk,1,43,0.800011456,8.799993694,1,0,0,rectangle,0.800011456,8.799993694,1,0,0,,3,6,0,0.000825,0.800011456,8.799993694,1,0,0,,0,42,42,102,1,,,,,,,,,,,,,,,,,,,
,,,,,,,,,,,,,,,,,,,,,,,,,,,,,,,,,,,,,,,,,,5df14bb169a117069e70b11d,6036d829c86f840bc7dbe8ae,2021-02-24_22h53.07.543,Colour_Similarity_Experiment,2020.2.10,Win32,60,6036d0d9a84aa1626184a6ef,14.04357868,14.54420487,16.66758221,16.68217641,16.68515678,16.14478007,,,,,,,,,,,,,,,,,,,,PF,strong,3,,,,,,,,4,6.784875,,,,,,,,,,,,,,,,,,,,,,,,,,,,8,strong,50.4000122,-91.2000078,1,0,0,response3disk,5,44,-5.599988639,-6.4373E-06,1,0,0,rectangle,-5.599988639,-6.4373E-06,1,0,0,,3,3,0,0.001125,-5.599988639,-6.4373E-06,1,0,0,,0,43,43,152,1,,,,,,,,,,,,,,,,,,,
,,,,,,,,,,,,,,,,,,,,,,,,,,,,,,,,,,,,,,,,,,5df14bb169a117069e70b11d,6036d829c86f840bc7dbe8ae,2021-02-24_22h53.07.543,Colour_Similarity_Experiment,2020.2.10,Win32,60,6036d0d9a84aa1626184a6ef,14.04357868,14.54420487,16.66758221,16.68217641,16.68515678,16.14478007,,,,,,,,,,,,,,,,,,,,PF,strong,3,,,,,,,,5,1.72716,,,,,,,,,,,,,,,,,,,,,,,,,,,,1,strong,60.80001235,-40.80000705,1,0,0,response3disk,4,45,4.800011516,-6.400006533,1,0,0,rectangle,4.800011516,-6.400006533,1,0,0,,3,0,0,0.001885,4.800011516,-6.400006533,1,0,0,,0,44,44,135,1,,,,,,,,,,,,,,,,,,,
,,,,,,,,,,,,,,,,,,,,,,,,,,,,,,,,,,,,,,,,,,5df14bb169a117069e70b11d,6036d829c86f840bc7dbe8ae,2021-02-24_22h53.07.543,Colour_Similarity_Experiment,2020.2.10,Win32,60,6036d0d9a84aa1626184a6ef,14.04357868,14.54420487,16.66758221,16.68217641,16.68515678,16.14478007,,,,,,,,,,,,,,,,,,,,PF,strong,3,,,,,,,,3,0.50033,,,,,,,,,,,,,,,,,,,,,,,,,,,,9,strong,-23.99998891,-65.60000741,1,0,0,response5disk,7,46,2.40001148,-10.40000659,1,0,0,rectangle,2.40001148,-10.40000659,1,0,0,,3,1,0,0.00109,2.40001148,-10.40000659,1,0,0,,0,45,45,100,1,,,,,,,,,,,,,,,,,,,
,,,,,,,,,,,,,,,,,,,,,,,,,,,,,,,,,,,,,,,,,,5df14bb169a117069e70b11d,6036d829c86f840bc7dbe8ae,2021-02-24_22h53.07.543,Colour_Similarity_Experiment,2020.2.10,Win32,60,6036d0d9a84aa1626184a6ef,14.04357868,14.54420487,16.66758221,16.68217641,16.68515678,16.14478007,,,,,,,,,,,,,,,,,,,,PF,strong,3,,,,,,,,2,1.58363,,,,,,,,,,,,,,,,,,,,,,,,,,,,2,strong,-73.59998965,-48.80000716,1,0,0,response5disk,7,47,2.40001148,-6.4373E-06,1,0,0,rectangle,2.40001148,-6.4373E-06,1,0,0,,3,7,0,0.001255,2.40001148,-6.4373E-06,1,0,0,,0,46,46,63,1,,,,,,,,,,,,,,,,,,,
,,,,,,,,,,,,,,,,,,,,,,,,,,,,,,,,,,,,,,,,,,5df14bb169a117069e70b11d,6036d829c86f840bc7dbe8ae,2021-02-24_22h53.07.543,Colour_Similarity_Experiment,2020.2.10,Win32,60,6036d0d9a84aa1626184a6ef,14.04357868,14.54420487,16.66758221,16.68217641,16.68515678,16.14478007,,,,,,,,,,,,,,,,,,,,PF,strong,3,,,,,,,,4,0.58406,,,,,,,,,,,,,,,,,,,,,,,,,,,,9,strong,36.80001199,-66.40000743,1,0,0,response3disk,5,48,1.600060296,-10.40000659,1,0,0,rectangle,1.600060296,-10.40000659,1,0,0,,3,5,0,0.00054,1.600060296,-10.40000659,1,0,0,,0,47,47,128,1,,,,,,,,,,,,,,,,,,,
,,,,,,,,,,,,,,,,,,,,,,,,,,,,,,,,,,,,,,,,,,5df14bb169a117069e70b11d,6036d829c86f840bc7dbe8ae,2021-02-24_22h53.07.543,Colour_Similarity_Experiment,2020.2.10,Win32,60,6036d0d9a84aa1626184a6ef,14.04357868,14.54420487,16.66758221,16.68217641,16.68515678,16.14478007,,,,,,,,,,,,,,,,,,,,PF,strong,3,,,,,,,,5,2.14589,,,,,,,,,,,,,,,,,,,,,,,,,,,,4,strong,60.80001235,-45.60000712,1,0,0,response3disk,3,49,10.4000116,-8.800006568,1,0,0,rectangle,10.4000116,-8.800006568,1,0,0,,3,2,0,0.000755,10.4000116,-8.800006568,1,0,0,,0,48,48,77,1,,,,,,,,,,,,,,,,,,,
,,,,,,,,,,,,,,,,,,,,,,,,,,,,,,,,,,,,,,,,,,5df14bb169a117069e70b11d,6036d829c86f840bc7dbe8ae,2021-02-24_22h53.07.543,Colour_Similarity_Experiment,2020.2.10,Win32,60,6036d0d9a84aa1626184a6ef,14.04357868,14.54420487,16.66758221,16.68217641,16.68515678,16.14478007,,,,,,,,,,,,,,,,,,,,PF,weak,3,,,,,,,,3,0.452195,,,,,,,,,,,,,,,,,,,,,,,,,,,,2,weak,-55.99998939,-88.00000775,1,0,0,response5disk,9,50,7.200011551,-3.200006485,1,0,0,rectangle,7.200011551,-3.200006485,1,0,0,,3,1,0,0.00113,7.200011551,-3.200006485,1,0,0,,0,49,49,39,1,,,,,,,,,,,,,,,,,,,
,,,,,,,,,,,,,,,,,,,,,,,,,,,,,,,,,,,,,,,,,,5df14bb169a117069e70b11d,6036d829c86f840bc7dbe8ae,2021-02-24_22h53.07.543,Colour_Similarity_Experiment,2020.2.10,Win32,60,6036d0d9a84aa1626184a6ef,14.04357868,14.54420487,16.66758221,16.68217641,16.68515678,16.14478007,,,,,,,,,,,,,,,,,,,,PF,strong,3,,,,,,,,2,0.590965,,,,,,,,,,,,,,,,,,,,,,,,,,,,7,strong,-55.19998938,-42.40000707,1,0,0,response5disk,5,51,8.000011563,-4.000006497,1,0,0,rectangle,8.000011563,-4.000006497,1,0,0,,3,4,0,0.00117,8.000011563,-4.000006497,1,0,0,,0,50,50,156,1,,,,,,,,,,,,,,,,,,,
,,,,,,,,,,,,,,,,,,,,,,,,,,,,,,,,,,,,,,,,,,5df14bb169a117069e70b11d,6036d829c86f840bc7dbe8ae,2021-02-24_22h53.07.543,Colour_Similarity_Experiment,2020.2.10,Win32,60,6036d0d9a84aa1626184a6ef,14.04357868,14.54420487,16.66758221,16.68217641,16.68515678,16.14478007,,,,,,,,,,,,,,,,,,,,PF,strong,3,,,,,,,,0,1.798135,,,,,,,,,,,,,,,,,,,,,,,,,,,,7,strong,-48.79998928,81.59999478,1,0,0,response7disk,6,52,-4.799988627,3.19999361,1,0,0,rectangle,-4.799988627,3.19999361,1,0,0,,3,7,0,0.000565,-4.799988627,3.19999361,1,0,0,,0,51,51,31,1,,,,,,,,,,,,,,,,,,,
,,,,,,,,,,,,,,,,,,,,,,,,,,,,,,,,,,,,,,,,,,5df14bb169a117069e70b11d,6036d829c86f840bc7dbe8ae,2021-02-24_22h53.07.543,Colour_Similarity_Experiment,2020.2.10,Win32,60,6036d0d9a84aa1626184a6ef,14.04357868,14.54420487,16.66758221,16.68217641,16.68515678,16.14478007,,,,,,,,,,,,,,,,,,,,PF,strong,3,,,,,,,,6,1.75008,,,,,,,,,,,,,,,,,,,,,,,,,,,,9,strong,78.40001261,27.99999398,1,0,0,response1disk,1,53,-8.799988687,4.799993634,1,0,0,rectangle,-8.799988687,4.799993634,1,0,0,,3,5,0,0.001185,-8.799988687,4.799993634,1,0,0,,0,52,52,111,1,,,,,,,,,,,,,,,,,,,
,,,,,,,,,,,,,,,,,,,,,,,,,,,,,,,,,,,,,,,,,,5df14bb169a117069e70b11d,6036d829c86f840bc7dbe8ae,2021-02-24_22h53.07.543,Colour_Similarity_Experiment,2020.2.10,Win32,60,6036d0d9a84aa1626184a6ef,14.04357868,14.54420487,16.66758221,16.68217641,16.68515678,16.14478007,,,,,,,,,,,,,,,,,,,,PF,weak,3,,,,,,,,5,1.18511,,,,,,,,,,,,,,,,,,,,,,,,,,,,2,weak,78.40001261,-45.60000712,1,0,0,response3disk,3,54,15.20001167,-10.40000659,1,0,0,rectangle,15.20001167,-10.40000659,1,0,0,,3,6,0,0.000865,15.20001167,-10.40000659,1,0,0,,0,53,53,69,1,,,,,,,,,,,,,,,,,,,
,,,,,,,,,,,,,,,,,,,,,,,,,,,,,,,,,,,,,,,,,,5df14bb169a117069e70b11d,6036d829c86f840bc7dbe8ae,2021-02-24_22h53.07.543,Colour_Similarity_Experiment,2020.2.10,Win32,60,6036d0d9a84aa1626184a6ef,14.04357868,14.54420487,16.66758221,16.68217641,16.68515678,16.14478007,,,,,,,,,,,,,,,,,,,,PF,strong,3,,,,,,,,3,1.3177,,,,,,,,,,,,,,,,,,,,,,,,,,,,7,strong,-42.39994036,-71.2000075,1,0,0,response5disk,8,55,2.40001148,7.19999367,1,0,0,rectangle,96.00001287,46.39999425,1,0,0,response1disk_3,6,6,1,2.75737,-3.199988604,-2.400006473,1,0,0,rectangle,0,54,54,97,1,,,,,,,,,,,,,,,,,,,
,,,,,,,,,,,,,,,,,,,,,,,,,,,,,,,,,,,,,,,,,,5df14bb169a117069e70b11d,6036d829c86f840bc7dbe8ae,2021-02-24_22h53.07.543,Colour_Similarity_Experiment,2020.2.10,Win32,60,6036d0d9a84aa1626184a6ef,14.04357868,14.54420487,16.66758221,16.68217641,16.68515678,16.14478007,,,,,,,,,,,,,,,,,,,,PF,weak,3,,,,,,,,2,1.372845,,,,,,,,,,,,,,,,,,,,,,,,,,,,7,weak,-78.3999409,-40.80000705,1,0,0,response5disk,8,56,2.40001148,-3.200006485,1,0,0,rectangle,2.40001148,-3.200006485,1,0,0,,6,5,0,0.002105,2.40001148,-3.200006485,1,0,0,,0,55,55,140,1,,,,,,,,,,,,,,,,,,,
,,,,,,,,,,,,,,,,,,,,,,,,,,,,,,,,,,,,,,,,,,5df14bb169a117069e70b11d,6036d829c86f840bc7dbe8ae,2021-02-24_22h53.07.543,Colour_Similarity_Experiment,2020.2.10,Win32,60,6036d0d9a84aa1626184a6ef,14.04357868,14.54420487,16.66758221,16.68217641,16.68515678,16.14478007,,,,,,,,,,,,,,,,,,,,PF,strong,3,,,,,,,,5,0.904915,,,,,,,,,,,,,,,,,,,,,,,,,,,,8,strong,64.0000124,-35.20000696,1,0,0,response3disk,9,57,4.000011504,-0.800006449,1,0,0,rectangle,4.000011504,-0.800006449,1,0,0,,6,5,0,8.5E-05,4.000011504,-0.800006449,1,0,0,,0,56,56,105,1,,,,,,,,,,,,,,,,,,,
,,,,,,,,,,,,,,,,,,,,,,,,,,,,,,,,,,,,,,,,,,5df14bb169a117069e70b11d,6036d829c86f840bc7dbe8ae,2021-02-24_22h53.07.543,Colour_Similarity_Experiment,2020.2.10,Win32,60,6036d0d9a84aa1626184a6ef,14.04357868,14.54420487,16.66758221,16.68217641,16.68515678,16.14478007,,,,,,,,,,,,,,,,,,,,PF,weak,3,,,,,,,,4,1.1531,,,,,,,,,,,,,,,,,,,,,,,,,,,,1,weak,51.20001221,-91.2000078,1,0,0,response3disk,5,58,5.600060356,2.399993598,1,0,0,rectangle,5.600060356,2.399993598,1,0,0,,6,1,0,0.00066,5.600060356,2.399993598,1,0,0,,0,57,57,28,1,,,,,,,,,,,,,,,,,,,
,,,,,,,,,,,,,,,,,,,,,,,,,,,,,,,,,,,,,,,,,,5df14bb169a117069e70b11d,6036d829c86f840bc7dbe8ae,2021-02-24_22h53.07.543,Colour_Similarity_Experiment,2020.2.10,Win32,60,6036d0d9a84aa1626184a6ef,14.04357868,14.54420487,16.66758221,16.68217641,16.68515678,16.14478007,,,,,,,,,,,,,,,,,,,,PF,weak,3,,,,,,,,5,1.000105,,,,,,,,,,,,,,,,,,,,,,,,,,,,9,weak,108.8000131,-47.20000714,1,0,0,response3disk,3,59,-12.79998875,-3.200006485,1,0,0,rectangle,-12.79998875,-3.200006485,1,0,0,,6,6,0,0.000635,-12.79998875,-3.200006485,1,0,0,,0,58,58,119,1,,,,,,,,,,,,,,,,,,,
,,,,,,,,,,,,,,,,,,,,,,,,,,,,,,,,,,,,,,,,,,5df14bb169a117069e70b11d,6036d829c86f840bc7dbe8ae,2021-02-24_22h53.07.543,Colour_Similarity_Experiment,2020.2.10,Win32,60,6036d0d9a84aa1626184a6ef,14.04357868,14.54420487,16.66758221,16.68217641,16.68515678,16.14478007,,,,,,,,,,,,,,,,,,,,PF,strong,3,,,,,,,,6,1.499995,,,,,,,,,,,,,,,,,,,,,,,,,,,,7,strong,96.00001287,55.19996997,1,0,0,response1disk,3,60,-3.199988604,-6.4373E-06,1,0,0,rectangle,-3.199988604,-6.4373E-06,1,0,0,,6,5,0,0.00055,-3.199988604,-6.4373E-06,1,0,0,,0,59,59,73,1,,,,,,,,,,,,,,,,,,,
,,,,,,,,,,,,,,,,,,,,,,,,,,,,,,,,,,,,,,,,,,5df14bb169a117069e70b11d,6036d829c86f840bc7dbe8ae,2021-02-24_22h53.07.543,Colour_Similarity_Experiment,2020.2.10,Win32,60,6036d0d9a84aa1626184a6ef,14.04357868,14.54420487,16.66758221,16.68217641,16.68515678,16.14478007,,,,,,,,,,,,,,,,,,,,PF,weak,3,,,,,,,,3,1.548695,,,,,,,,,,,,,,,,,,,,,,,,,,,,5,weak,-38.3999403,-61.60000736,1,0,0,response5disk,7,61,3.200011492,11.19999373,1,0,0,rectangle,3.200011492,11.19999373,1,0,0,,6,1,0,0.0006,3.200011492,11.19999373,1,0,0,,0,60,60,146,1,,,,,,,,,,,,,,,,,,,
,,,,,,,,,,,,,,,,,,,,,,,,,,,,,,,,,,,,,,,,,,5df14bb169a117069e70b11d,6036d829c86f840bc7dbe8ae,2021-02-24_22h53.07.543,Colour_Similarity_Experiment,2020.2.10,Win32,60,6036d0d9a84aa1626184a6ef,14.04357868,14.54420487,16.66758221,16.68217641,16.68515678,16.14478007,,,,,,,,,,,,,,,,,,,,PF,weak,3,,,,,,,,7,2.200895,,,,,,,,,,,,,,,,,,,,,,,,,,,,2,weak,34.40001196,86.39999485,1,0,0,response1disk,7,62,1.14441E-05,11.19999373,1,0,0,rectangle,1.14441E-05,11.19999373,1,0,0,,6,5,0,0.000655,1.14441E-05,11.19999373,1,0,0,,0,61,61,107,1,,,,,,,,,,,,,,,,,,,
,,,,,,,,,,,,,,,,,,,,,,,,,,,,,,,,,,,,,,,,,,5df14bb169a117069e70b11d,6036d829c86f840bc7dbe8ae,2021-02-24_22h53.07.543,Colour_Similarity_Experiment,2020.2.10,Win32,60,6036d0d9a84aa1626184a6ef,14.04357868,14.54420487,16.66758221,16.68217641,16.68515678,16.14478007,,,,,,,,,,,,,,,,,,,,PF,strong,3,,,,,,,,3,2.33323,,,,,,,,,,,,,,,,,,,,,,,,,,,,9,strong,-32.79998904,-76.80000758,1,0,0,response5disk,8,63,5.600060356,2.399993598,1,0,0,rectangle,5.600060356,2.399993598,1,0,0,,6,7,0,0.00057,5.600060356,2.399993598,1,0,0,,0,62,62,6,1,,,,,,,,,,,,,,,,,,,
,,,,,,,,,,,,,,,,,,,,,,,,,,,,,,,,,,,,,,,,,,5df14bb169a117069e70b11d,6036d829c86f840bc7dbe8ae,2021-02-24_22h53.07.543,Colour_Similarity_Experiment,2020.2.10,Win32,60,6036d0d9a84aa1626184a6ef,14.04357868,14.54420487,16.66758221,16.68217641,16.68515678,16.14478007,,,,,,,,,,,,,,,,,,,,PF,weak,3,,,,,,,,0,2.38915,,,,,,,,,,,,,,,,,,,,,,,,,,,,1,weak,-47.99998927,79.19997033,1,0,0,response7disk,9,64,-0.799988568,-1.600006461,1,0,0,rectangle,-0.799988568,-1.600006461,1,0,0,,6,2,0,0.00059,-0.799988568,-1.600006461,1,0,0,,0,63,63,15,1,,,,,,,,,,,,,,,,,,,
,,,,,,,,,,,,,,,,,,,,,,,,,,,,,,,,,,,,,,,,,,5df14bb169a117069e70b11d,6036d829c86f840bc7dbe8ae,2021-02-24_22h53.07.543,Colour_Similarity_Experiment,2020.2.10,Win32,60,6036d0d9a84aa1626184a6ef,14.04357868,14.54420487,16.66758221,16.68217641,16.68515678,16.14478007,,,,,,,,,,,,,,,,,,,,PF,strong,3,,,,,,,,4,1.23545,,,,,,,,,,,,,,,,,,,,,,,,,,,,1,strong,48.00001216,-77.60000759,1,0,0,response3disk,2,65,-3.999988616,7.19999367,1,0,0,rectangle,-3.999988616,7.19999367,1,0,0,,6,2,0,7E-05,-3.999988616,7.19999367,1,0,0,,0,64,64,2,1,,,,,,,,,,,,,,,,,,,
,,,,,,,,,,,,,,,,,,,,,,,,,,,,,,,,,,,,,,,,,,5df14bb169a117069e70b11d,6036d829c86f840bc7dbe8ae,2021-02-24_22h53.07.543,Colour_Similarity_Experiment,2020.2.10,Win32,60,6036d0d9a84aa1626184a6ef,14.04357868,14.54420487,16.66758221,16.68217641,16.68515678,16.14478007,,,,,,,,,,,,,,,,,,,,PF,strong,3,,,,,,,,3,0.652685,,,,,,,,,,,,,,,,,,,,,,,,,,,,6,strong,-38.3999403,-72.80000752,1,0,0,response5disk,8,66,8.000011563,16.79999381,1,0,0,rectangle,8.000011563,16.79999381,1,0,0,,6,7,0,0.00052,8.000011563,16.79999381,1,0,0,,0,65,65,133,1,,,,,,,,,,,,,,,,,,,
,,,,,,,,,,,,,,,,,,,,,,,,,,,,,,,,,,,,,,,,,,5df14bb169a117069e70b11d,6036d829c86f840bc7dbe8ae,2021-02-24_22h53.07.543,Colour_Similarity_Experiment,2020.2.10,Win32,60,6036d0d9a84aa1626184a6ef,14.04357868,14.54420487,16.66758221,16.68217641,16.68515678,16.14478007,,,,,,,,,,,,,,,,,,,,PF,weak,3,,,,,,,,5,0.632175,,,,,,,,,,,,,,,,,,,,,,,,,,,,8,weak,77.6000126,-52.00000721,1,0,0,response3disk,1,67,3.200011492,-4.800006509,1,0,0,rectangle,3.200011492,-4.800006509,1,0,0,,6,3,0,0.0034,3.200011492,-4.800006509,1,0,0,,0,66,66,57,1,,,,,,,,,,,,,,,,,,,
,,,,,,,,,,,,,,,,,,,,,,,,,,,,,,,,,,,,,,,,,,5df14bb169a117069e70b11d,6036d829c86f840bc7dbe8ae,2021-02-24_22h53.07.543,Colour_Similarity_Experiment,2020.2.10,Win32,60,6036d0d9a84aa1626184a6ef,14.04357868,14.54420487,16.66758221,16.68217641,16.68515678,16.14478007,,,,,,,,,,,,,,,,,,,,PF,weak,3,,,,,,,,4,1.46566,,,,,,,,,,,,,,,,,,,,,,,,,,,,5,weak,36.00001198,-84.00000769,1,0,0,response3disk,4,68,4.000011504,-1.600006461,1,0,0,rectangle,4.000011504,-1.600006461,1,0,0,,6,5,0,0.000535,4.000011504,-1.600006461,1,0,0,,0,67,67,54,1,,,,,,,,,,,,,,,,,,,
,,,,,,,,,,,,,,,,,,,,,,,,,,,,,,,,,,,,,,,,,,5df14bb169a117069e70b11d,6036d829c86f840bc7dbe8ae,2021-02-24_22h53.07.543,Colour_Similarity_Experiment,2020.2.10,Win32,60,6036d0d9a84aa1626184a6ef,14.04357868,14.54420487,16.66758221,16.68217641,16.68515678,16.14478007,,,,,,,,,,,,,,,,,,,,PF,weak,3,,,,,,,,3,0.437185,,,,,,,,,,,,,,,,,,,,,,,,,,,,4,weak,-50.39994048,-100.8000079,1,0,0,response5disk,1,69,-5.599988639,-6.400006533,1,0,0,rectangle,-5.599988639,-6.400006533,1,0,0,,6,1,0,0.000525,-5.599988639,-6.400006533,1,0,0,,0,68,68,115,1,,,,,,,,,,,,,,,,,,,
,,,,,,,,,,,,,,,,,,,,,,,,,,,,,,,,,,,,,,,,,,5df14bb169a117069e70b11d,6036d829c86f840bc7dbe8ae,2021-02-24_22h53.07.543,Colour_Similarity_Experiment,2020.2.10,Win32,60,6036d0d9a84aa1626184a6ef,14.04357868,14.54420487,16.66758221,16.68217641,16.68515678,16.14478007,,,,,,,,,,,,,,,,,,,,PF,weak,3,,,,,,,,2,0.56964,,,,,,,,,,,,,,,,,,,,,,,,,,,,6,weak,-59.99998945,-40.00000703,1,0,0,response5disk,1,70,-9.599988699,11.19999373,1,0,0,rectangle,-9.599988699,11.19999373,1,0,0,,6,2,0,0.000575,-9.599988699,11.19999373,1,0,0,,0,69,69,46,1,,,,,,,,,,,,,,,,,,,
,,,,,,,,,,,,,,,,,,,,,,,,,,,,,,,,,,,,,,,,,,5df14bb169a117069e70b11d,6036d829c86f840bc7dbe8ae,2021-02-24_22h53.07.543,Colour_Similarity_Experiment,2020.2.10,Win32,60,6036d0d9a84aa1626184a6ef,14.04357868,14.54420487,16.66758221,16.68217641,16.68515678,16.14478007,,,,,,,,,,,,,,,,,,,,PF,weak,3,,,,,,,,5,0.59707,,,,,,,,,,,,,,,,,,,,,,,,,,,,3,weak,64.80001241,-37.600007,1,0,0,response3disk,7,71,-7.999988675,10.39999372,1,0,0,rectangle,-7.999988675,10.39999372,1,0,0,,6,4,0,0.000515,-7.999988675,10.39999372,1,0,0,,0,70,70,41,1,,,,,,,,,,,,,,,,,,,
,,,,,,,,,,,,,,,,,,,,,,,,,,,,,,,,,,,,,,,,,,5df14bb169a117069e70b11d,6036d829c86f840bc7dbe8ae,2021-02-24_22h53.07.543,Colour_Similarity_Experiment,2020.2.10,Win32,60,6036d0d9a84aa1626184a6ef,14.04357868,14.54420487,16.66758221,16.68217641,16.68515678,16.14478007,,,,,,,,,,,,,,,,,,,,PF,strong,3,,,,,,,,2,0.46535,,,,,,,,,,,,,,,,,,,,,,,,,,,,3,strong,-57.59998941,-36.00000697,1,0,0,response5disk,9,72,-2.399939764,-6.4373E-06,1,0,0,rectangle,-2.399939764,-6.4373E-06,1,0,0,,6,2,0,0.00065,-2.399939764,-6.4373E-06,1,0,0,,0,71,71,143,1,,,,,,,,,,,,,,,,,,,
,,,,,,,,,,,,,,,,,,,,,,,,,,,,,,,,,,,,,,,,,,5df14bb169a117069e70b11d,6036d829c86f840bc7dbe8ae,2021-02-24_22h53.07.543,Colour_Similarity_Experiment,2020.2.10,Win32,60,6036d0d9a84aa1626184a6ef,14.04357868,14.54420487,16.66758221,16.68217641,16.68515678,16.14478007,,,,,,,,,,,,,,,,,,,,PF,weak,3,,,,,,,,3,0.485885,,,,,,,,,,,,,,,,,,,,,,,,,,,,2,weak,-24.79998893,-78.40000761,1,0,0,response5disk,5,73,2.40001148,-1.600006461,1,0,0,rectangle,2.40001148,-1.600006461,1,0,0,,6,2,0,6E-05,2.40001148,-1.600006461,1,0,0,,0,72,72,147,1,,,,,,,,,,,,,,,,,,,
,,,,,,,,,,,,,,,,,,,,,,,,,,,,,,,,,,,,,,,,,,5df14bb169a117069e70b11d,6036d829c86f840bc7dbe8ae,2021-02-24_22h53.07.543,Colour_Similarity_Experiment,2020.2.10,Win32,60,6036d0d9a84aa1626184a6ef,14.04357868,14.54420487,16.66758221,16.68217641,16.68515678,16.14478007,,,,,,,,,,,,,,,,,,,,PF,weak,3,,,,,,,,5,0.36806,,,,,,,,,,,,,,,,,,,,,,,,,,,,9,weak,65.60001242,-37.600007,1,0,0,response3disk,7,74,1.600060296,-3.200006485,1,0,0,rectangle,1.600060296,-3.200006485,1,0,0,,6,7,0,0.000665,1.600060296,-3.200006485,1,0,0,,0,73,73,121,1,,,,,,,,,,,,,,,,,,,
,,,,,,,,,,,,,,,,,,,,,,,,,,,,,,,,,,,,,,,,,,5df14bb169a117069e70b11d,6036d829c86f840bc7dbe8ae,2021-02-24_22h53.07.543,Colour_Similarity_Experiment,2020.2.10,Win32,60,6036d0d9a84aa1626184a6ef,14.04357868,14.54420487,16.66758221,16.68217641,16.68515678,16.14478007,,,,,,,,,,,,,,,,,,,,PF,strong,3,,,,,,,,1,0.55354,,,,,,,,,,,,,,,,,,,,,,,,,,,,5,strong,-80.79998976,37.59999412,1,0,0,response7disk,8,75,-23.99998891,8.799993694,1,0,0,rectangle,-23.99998891,8.799993694,1,0,0,,6,0,0,0.00061,-23.99998891,8.799993694,1,0,0,,0,74,74,16,1,,,,,,,,,,,,,,,,,,,
,,,,,,,,,,,,,,,,,,,,,,,,,,,,,,,,,,,,,,,,,,5df14bb169a117069e70b11d,6036d829c86f840bc7dbe8ae,2021-02-24_22h53.07.543,Colour_Similarity_Experiment,2020.2.10,Win32,60,6036d0d9a84aa1626184a6ef,14.04357868,14.54420487,16.66758221,16.68217641,16.68515678,16.14478007,,,,,,,,,,,,,,,,,,,,PF,strong,3,,,,,,,,7,1.316345,,,,,,,,,,,,,,,,,,,,,,,,,,,,2,strong,48.00001216,74.39999467,1,0,0,response1disk,1,76,-3.999988616,4.799993634,1,0,0,rectangle,-3.999988616,4.799993634,1,0,0,,6,0,0,7.5E-05,-3.999988616,4.799993634,1,0,0,,0,75,75,85,1,,,,,,,,,,,,,,,,,,,
,,,,,,,,,,,,,,,,,,,,,,,,,,,,,,,,,,,,,,,,,,5df14bb169a117069e70b11d,6036d829c86f840bc7dbe8ae,2021-02-24_22h53.07.543,Colour_Similarity_Experiment,2020.2.10,Win32,60,6036d0d9a84aa1626184a6ef,14.04357868,14.54420487,16.66758221,16.68217641,16.68515678,16.14478007,,,,,,,,,,,,,,,,,,,,PF,weak,3,,,,,,,,2,0.63181,,,,,,,,,,,,,,,,,,,,,,,,,,,,2,weak,-82.39994096,-55.20000726,1,0,0,response5disk,8,77,9.600060415,-3.200006485,1,0,0,rectangle,9.600060415,-3.200006485,1,0,0,,6,4,0,0.001245,9.600060415,-3.200006485,1,0,0,,0,76,76,52,1,,,,,,,,,,,,,,,,,,,
,,,,,,,,,,,,,,,,,,,,,,,,,,,,,,,,,,,,,,,,,,5df14bb169a117069e70b11d,6036d829c86f840bc7dbe8ae,2021-02-24_22h53.07.543,Colour_Similarity_Experiment,2020.2.10,Win32,60,6036d0d9a84aa1626184a6ef,14.04357868,14.54420487,16.66758221,16.68217641,16.68515678,16.14478007,,,,,,,,,,,,,,,,,,,,PF,weak,3,,,,,,,,5,0.58358,,,,,,,,,,,,,,,,,,,,,,,,,,,,8,weak,64.0000124,-46.40000713,1,0,0,response3disk,3,78,-11.99998873,4.799993634,1,0,0,rectangle,-11.99998873,4.799993634,1,0,0,,6,2,0,0.000845,-11.99998873,4.799993634,1,0,0,,0,77,77,71,1,,,,,,,,,,,,,,,,,,,
,,,,,,,,,,,,,,,,,,,,,,,,,,,,,,,,,,,,,,,,,,5df14bb169a117069e70b11d,6036d829c86f840bc7dbe8ae,2021-02-24_22h53.07.543,Colour_Similarity_Experiment,2020.2.10,Win32,60,6036d0d9a84aa1626184a6ef,14.04357868,14.54420487,16.66758221,16.68217641,16.68515678,16.14478007,,,,,,,,,,,,,,,,,,,,PF,strong,3,,,,,,,,3,0.89569,,,,,,,,,,,,,,,,,,,,,,,,,,,,4,strong,-19.99998885,-68.00000745,1,0,0,response5disk,5,79,3.200011492,-0.800006449,1,0,0,rectangle,3.200011492,-0.800006449,1,0,0,,6,6,0,0.00089,3.200011492,-0.800006449,1,0,0,,0,78,78,116,1,,,,,,,,,,,,,,,,,,,
,,,,,,,,,,,,,,,,,,,,,,,,,,,,,,,,,,,,,,,,,,5df14bb169a117069e70b11d,6036d829c86f840bc7dbe8ae,2021-02-24_22h53.07.543,Colour_Similarity_Experiment,2020.2.10,Win32,60,6036d0d9a84aa1626184a6ef,14.04357868,14.54420487,16.66758221,16.68217641,16.68515678,16.14478007,,,,,,,,,,,,,,,,,,,,PF,strong,3,,,,,,,,4,1.284785,,,,,,,,,,,,,,,,,,,,,,,,,,,,6,strong,31.20001191,-65.60000741,1,0,0,response3disk,7,80,9.600060415,-4.000006497,1,0,0,rectangle,9.600060415,-4.000006497,1,0,0,,6,0,0,0.001105,9.600060415,-4.000006497,1,0,0,,0,79,79,18,1,,,,,,,,,,,,,,,,,,,
,,,,,,,,,,,,,,,,,,,,,,,,,,,,,,,,,,,,,,,,,,5df14bb169a117069e70b11d,6036d829c86f840bc7dbe8ae,2021-02-24_22h53.07.543,Colour_Similarity_Experiment,2020.2.10,Win32,60,6036d0d9a84aa1626184a6ef,14.04357868,14.54420487,16.66758221,16.68217641,16.68515678,16.14478007,,,,,,,,,,,,,,,,,,,,PF,weak,3,,,,,,,,3,0.515975,,,,,,,,,,,,,,,,,,,,,,,,,,,,7,weak,-50.39994048,-61.60000736,1,0,0,response5disk,1,81,4.800011516,5.599993646,1,0,0,rectangle,4.800011516,5.599993646,1,0,0,,6,3,0,0.00074,4.800011516,5.599993646,1,0,0,,0,80,80,53,1,,,,,,,,,,,,,,,,,,,
,,,,,,,,,,,,,,,,,,,,,,,,,,,,,,,,,,,,,,,,,,5df14bb169a117069e70b11d,6036d829c86f840bc7dbe8ae,2021-02-24_22h53.07.543,Colour_Similarity_Experiment,2020.2.10,Win32,60,6036d0d9a84aa1626184a6ef,14.04357868,14.54420487,16.66758221,16.68217641,16.68515678,16.14478007,,,,,,,,,,,,,,,,,,,,PF,strong,3,,,,,,,,2,0.785245,,,,,,,,,,,,,,,,,,,,,,,,,,,,2,strong,-87.19998986,-43.20000708,1,0,0,response5disk,5,82,3.200011492,3.19999361,1,0,0,rectangle,3.200011492,3.19999361,1,0,0,,6,4,0,0.001195,3.200011492,3.19999361,1,0,0,,0,81,81,80,1,,,,,,,,,,,,,,,,,,,
,,,,,,,,,,,,,,,,,,,,,,,,,,,,,,,,,,,,,,,,,,5df14bb169a117069e70b11d,6036d829c86f840bc7dbe8ae,2021-02-24_22h53.07.543,Colour_Similarity_Experiment,2020.2.10,Win32,60,6036d0d9a84aa1626184a6ef,14.04357868,14.54420487,16.66758221,16.68217641,16.68515678,16.14478007,,,,,,,,,,,,,,,,,,,,PF,strong,3,,,,,,,,6,1.10125,,,,,,,,,,,,,,,,,,,,,,,,,,,,3,strong,79.20001262,39.99999416,1,0,0,response1disk,7,83,5.600060356,-3.200006485,1,0,0,rectangle,5.600060356,-3.200006485,1,0,0,,6,3,0,0.001015,5.600060356,-3.200006485,1,0,0,,0,82,82,118,1,,,,,,,,,,,,,,,,,,,
,,,,,,,,,,,,,,,,,,,,,,,,,,,,,,,,,,,,,,,,,,5df14bb169a117069e70b11d,6036d829c86f840bc7dbe8ae,2021-02-24_22h53.07.543,Colour_Similarity_Experiment,2020.2.10,Win32,60,6036d0d9a84aa1626184a6ef,14.04357868,14.54420487,16.66758221,16.68217641,16.68515678,16.14478007,,,,,,,,,,,,,,,,,,,,PF,weak,3,,,,,,,,7,1.35384,,,,,,,,,,,,,,,,,,,,,,,,,,,,2,weak,38.40001202,71.99999464,1,0,0,response1disk,1,84,8.000011563,8.799993694,1,0,0,rectangle,8.000011563,8.799993694,1,0,0,,6,7,0,0.00059,8.000011563,8.799993694,1,0,0,,0,83,83,9,1,,,,,,,,,,,,,,,,,,,
,,,,,,,,,,,,,,,,,,,,,,,,,,,,,,,,,,,,,,,,,,5df14bb169a117069e70b11d,6036d829c86f840bc7dbe8ae,2021-02-24_22h53.07.543,Colour_Similarity_Experiment,2020.2.10,Win32,60,6036d0d9a84aa1626184a6ef,14.04357868,14.54420487,16.66758221,16.68217641,16.68515678,16.14478007,,,,,,,,,,,,,,,,,,,,PF,strong,3,,,,,,,,0,1.653065,,,,,,,,,,,,,,,,,,,,,,,,,,,,8,strong,-44.79998922,79.19997033,1,0,0,response7disk,8,85,16.00001168,-7.200006545,1,0,0,rectangle,16.00001168,-7.200006545,1,0,0,,6,0,0,0.000595,16.00001168,-7.200006545,1,0,0,,0,84,84,48,1,,,,,,,,,,,,,,,,,,,
,,,,,,,,,,,,,,,,,,,,,,,,,,,,,,,,,,,,,,,,,,5df14bb169a117069e70b11d,6036d829c86f840bc7dbe8ae,2021-02-24_22h53.07.543,Colour_Similarity_Experiment,2020.2.10,Win32,60,6036d0d9a84aa1626184a6ef,14.04357868,14.54420487,16.66758221,16.68217641,16.68515678,16.14478007,,,,,,,,,,,,,,,,,,,,PF,weak,3,,,,,,,,5,0.80602,,,,,,,,,,,,,,,,,,,,,,,,,,,,3,weak,81.60001266,-30.40000689,1,0,0,response3disk,9,86,8.000011563,-6.400006533,1,0,0,rectangle,8.000011563,-6.400006533,1,0,0,,6,1,0,0.00062,8.000011563,-6.400006533,1,0,0,,0,85,85,79,1,,,,,,,,,,,,,,,,,,,
,,,,,,,,,,,,,,,,,,,,,,,,,,,,,,,,,,,,,,,,,,5df14bb169a117069e70b11d,6036d829c86f840bc7dbe8ae,2021-02-24_22h53.07.543,Colour_Similarity_Experiment,2020.2.10,Win32,60,6036d0d9a84aa1626184a6ef,14.04357868,14.54420487,16.66758221,16.68217641,16.68515678,16.14478007,,,,,,,,,,,,,,,,,,,,PF,strong,3,,,,,,,,2,1.26408,,,,,,,,,,,,,,,,,,,,,,,,,,,,1,strong,-65.59998953,-39.20000702,1,0,0,response5disk,5,87,1.14441E-05,-4.800006509,1,0,0,rectangle,1.14441E-05,-4.800006509,1,0,0,,6,6,0,0.000915,1.14441E-05,-4.800006509,1,0,0,,0,86,86,82,1,,,,,,,,,,,,,,,,,,,
,,,,,,,,,,,,,,,,,,,,,,,,,,,,,,,,,,,,,,,,,,5df14bb169a117069e70b11d,6036d829c86f840bc7dbe8ae,2021-02-24_22h53.07.543,Colour_Similarity_Experiment,2020.2.10,Win32,60,6036d0d9a84aa1626184a6ef,14.04357868,14.54420487,16.66758221,16.68217641,16.68515678,16.14478007,,,,,,,,,,,,,,,,,,,,PF,weak,3,,,,,,,,3,0.63146,,,,,,,,,,,,,,,,,,,,,,,,,,,,4,weak,-38.3999403,-65.60000741,1,0,0,response5disk,3,88,-2.399939764,7.999993682,1,0,0,rectangle,-2.399939764,7.999993682,1,0,0,,6,5,0,0.001,-2.399939764,7.999993682,1,0,0,,0,87,87,89,1,,,,,,,,,,,,,,,,,,,
,,,,,,,,,,,,,,,,,,,,,,,,,,,,,,,,,,,,,,,,,,5df14bb169a117069e70b11d,6036d829c86f840bc7dbe8ae,2021-02-24_22h53.07.543,Colour_Similarity_Experiment,2020.2.10,Win32,60,6036d0d9a84aa1626184a6ef,14.04357868,14.54420487,16.66758221,16.68217641,16.68515678,16.14478007,,,,,,,,,,,,,,,,,,,,PF,strong,3,,,,,,,,4,0.44451,,,,,,,,,,,,,,,,,,,,,,,,,,,,4,strong,35.20001197,-64.8000074,1,0,0,response3disk,7,89,4.800011516,-4.800006509,1,0,0,rectangle,4.800011516,-4.800006509,1,0,0,,6,4,0,0.00076,4.800011516,-4.800006509,1,0,0,,0,88,88,87,1,,,,,,,,,,,,,,,,,,,
,,,,,,,,,,,,,,,,,,,,,,,,,,,,,,,,,,,,,,,,,,5df14bb169a117069e70b11d,6036d829c86f840bc7dbe8ae,2021-02-24_22h53.07.543,Colour_Similarity_Experiment,2020.2.10,Win32,60,6036d0d9a84aa1626184a6ef,14.04357868,14.54420487,16.66758221,16.68217641,16.68515678,16.14478007,,,,,,,,,,,,,,,,,,,,PF,strong,3,,,,,,,,1,0.66687,,,,,,,,,,,,,,,,,,,,,,,,,,,,3,strong,-89.59998989,39.99999416,1,0,0,response7disk,6,90,-24.79998893,8.799993694,1,0,0,rectangle,-24.79998893,8.799993694,1,0,0,,6,5,0,0.00137,-24.79998893,8.799993694,1,0,0,,0,89,89,95,1,,,,,,,,,,,,,,,,,,,
,,,,,,,,,,,,,,,,,,,,,,,,,,,,,,,,,,,,,,,,,,5df14bb169a117069e70b11d,6036d829c86f840bc7dbe8ae,2021-02-24_22h53.07.543,Colour_Similarity_Experiment,2020.2.10,Win32,60,6036d0d9a84aa1626184a6ef,14.04357868,14.54420487,16.66758221,16.68217641,16.68515678,16.14478007,,,,,,,,,,,,,,,,,,,,PF,weak,3,,,,,,,,5,0.533015,,,,,,,,,,,,,,,,,,,,,,,,,,,,4,weak,66.40001243,-46.40000713,1,0,0,response3disk,9,91,-3.199988604,-0.800006449,1,0,0,rectangle,-3.199988604,-0.800006449,1,0,0,,6,4,0,0.000615,-3.199988604,-0.800006449,1,0,0,,0,90,90,75,1,,,,,,,,,,,,,,,,,,,
,,,,,,,,,,,,,,,,,,,,,,,,,,,,,,,,,,,,,,,,,,5df14bb169a117069e70b11d,6036d829c86f840bc7dbe8ae,2021-02-24_22h53.07.543,Colour_Similarity_Experiment,2020.2.10,Win32,60,6036d0d9a84aa1626184a6ef,14.04357868,14.54420487,16.66758221,16.68217641,16.68515678,16.14478007,,,,,,,,,,,,,,,,,,,,PF,strong,3,,,,,,,,2,0.44156,,,,,,,,,,,,,,,,,,,,,,,,,,,,3,strong,-60.79998946,-50.40000719,1,0,0,response5disk,5,92,9.600060415,-3.200006485,1,0,0,rectangle,9.600060415,-3.200006485,1,0,0,,6,3,0,0.00061,9.600060415,-3.200006485,1,0,0,,0,91,91,101,1,,,,,,,,,,,,,,,,,,,
,,,,,,,,,,,,,,,,,,,,,,,,,,,,,,,,,,,,,,,,,,5df14bb169a117069e70b11d,6036d829c86f840bc7dbe8ae,2021-02-24_22h53.07.543,Colour_Similarity_Experiment,2020.2.10,Win32,60,6036d0d9a84aa1626184a6ef,14.04357868,14.54420487,16.66758221,16.68217641,16.68515678,16.14478007,,,,,,,,,,,,,,,,,,,,PF,weak,3,,,,,,,,3,0.43736,,,,,,,,,,,,,,,,,,,,,,,,,,,,4,weak,-25.59998894,-72.80000752,1,0,0,response5disk,8,93,12.00001162,-3.200006485,1,0,0,rectangle,12.00001162,-3.200006485,1,0,0,,6,1,0,0.000565,12.00001162,-3.200006485,1,0,0,,0,92,92,124,1,,,,,,,,,,,,,,,,,,,
,,,,,,,,,,,,,,,,,,,,,,,,,,,,,,,,,,,,,,,,,,5df14bb169a117069e70b11d,6036d829c86f840bc7dbe8ae,2021-02-24_22h53.07.543,Colour_Similarity_Experiment,2020.2.10,Win32,60,6036d0d9a84aa1626184a6ef,14.04357868,14.54420487,16.66758221,16.68217641,16.68515678,16.14478007,,,,,,,,,,,,,,,,,,,,PF,strong,3,,,,,,,,4,0.36813,,,,,,,,,,,,,,,,,,,,,,,,,,,,2,strong,37.60006083,-80.80000764,1,0,0,response3disk,8,94,-2.399939764,-2.400006473,1,0,0,rectangle,-2.399939764,-2.400006473,1,0,0,,6,3,0,0.000805,-2.399939764,-2.400006473,1,0,0,,0,93,93,62,1,,,,,,,,,,,,,,,,,,,
,,,,,,,,,,,,,,,,,,,,,,,,,,,,,,,,,,,,,,,,,,5df14bb169a117069e70b11d,6036d829c86f840bc7dbe8ae,2021-02-24_22h53.07.543,Colour_Similarity_Experiment,2020.2.10,Win32,60,6036d0d9a84aa1626184a6ef,14.04357868,14.54420487,16.66758221,16.68217641,16.68515678,16.14478007,,,,,,,,,,,,,,,,,,,,PF,weak,3,,,,,,,,5,0.348905,,,,,,,,,,,,,,,,,,,,,,,,,,,,6,weak,76.80001259,-40.00000703,1,0,0,response3disk,9,95,8.000011563,-1.600006461,1,0,0,rectangle,8.000011563,-1.600006461,1,0,0,,6,5,0,0.00058,8.000011563,-1.600006461,1,0,0,,0,94,94,45,1,,,,,,,,,,,,,,,,,,,
,,,,,,,,,,,,,,,,,,,,,,,,,,,,,,,,,,,,,,,,,,5df14bb169a117069e70b11d,6036d829c86f840bc7dbe8ae,2021-02-24_22h53.07.543,Colour_Similarity_Experiment,2020.2.10,Win32,60,6036d0d9a84aa1626184a6ef,14.04357868,14.54420487,16.66758221,16.68217641,16.68515678,16.14478007,,,,,,,,,,,,,,,,,,,,PF,weak,3,,,,,,,,3,0.35452,,,,,,,,,,,,,,,,,,,,,,,,,,,,6,weak,-37.59998912,-71.2000075,1,0,0,response5disk,6,96,2.40001148,-3.200006485,1,0,0,rectangle,2.40001148,-3.200006485,1,0,0,,6,6,0,0.00057,2.40001148,-3.200006485,1,0,0,,0,95,95,0,1,,,,,,,,,,,,,,,,,,,
,,,,,,,,,,,,,,,,,,,,,,,,,,,,,,,,,,,,,,,,,,5df14bb169a117069e70b11d,6036d829c86f840bc7dbe8ae,2021-02-24_22h53.07.543,Colour_Similarity_Experiment,2020.2.10,Win32,60,6036d0d9a84aa1626184a6ef,14.04357868,14.54420487,16.66758221,16.68217641,16.68515678,16.14478007,,,,,,,,,,,,,,,,,,,,PF,weak,3,,,,,,,,2,0.26322,,,,,,,,,,,,,,,,,,,,,,,,,,,,2,weak,-89.59998989,-43.20000708,1,0,0,response5disk,4,97,-5.599988639,-0.800006449,1,0,0,rectangle,-5.599988639,-0.800006449,1,0,0,,6,4,0,0.0006,-5.599988639,-0.800006449,1,0,0,,0,96,96,127,1,,,,,,,,,,,,,,,,,,,
,,,,,,,,,,,,,,,,,,,,,,,,,,,,,,,,,,,,,,,,,,5df14bb169a117069e70b11d,6036d829c86f840bc7dbe8ae,2021-02-24_22h53.07.543,Colour_Similarity_Experiment,2020.2.10,Win32,60,6036d0d9a84aa1626184a6ef,14.04357868,14.54420487,16.66758221,16.68217641,16.68515678,16.14478007,,,,,,,,,,,,,,,,,,,,PF,weak,3,,,,,,,,6,1.244595,,,,,,,,,,,,,,,,,,,,,,,,,,,,4,weak,64.0000124,40.79999417,1,0,0,response1disk,7,98,2.40001148,-10.40000659,1,0,0,rectangle,2.40001148,-10.40000659,1,0,0,,6,0,0,0.001035,2.40001148,-10.40000659,1,0,0,,0,97,97,38,1,,,,,,,,,,,,,,,,,,,
,,,,,,,,,,,,,,,,,,,,,,,,,,,,,,,,,,,,,,,,,,5df14bb169a117069e70b11d,6036d829c86f840bc7dbe8ae,2021-02-24_22h53.07.543,Colour_Similarity_Experiment,2020.2.10,Win32,60,6036d0d9a84aa1626184a6ef,14.04357868,14.54420487,16.66758221,16.68217641,16.68515678,16.14478007,,,,,,,,,,,,,,,,,,,,PF,strong,3,,,,,,,,3,0.61757,,,,,,,,,,,,,,,,,,,,,,,,,,,,3,strong,-28.79998899,-58.40000731,1,0,0,response5disk,3,99,13.60006047,4.799993634,1,0,0,rectangle,13.60006047,4.799993634,1,0,0,,6,7,0,0.0005,13.60006047,4.799993634,1,0,0,,0,98,98,68,1,,,,,,,,,,,,,,,,,,,
,,,,,,,,,,,,,,,,,,,,,,,,,,,,,,,,,,,,,,,,,,5df14bb169a117069e70b11d,6036d829c86f840bc7dbe8ae,2021-02-24_22h53.07.543,Colour_Similarity_Experiment,2020.2.10,Win32,60,6036d0d9a84aa1626184a6ef,14.04357868,14.54420487,16.66758221,16.68217641,16.68515678,16.14478007,,,,,,,,,,,,,,,,,,,,PF,strong,3,,,,,,,,4,0.55438,,,,,,,,,,,,,,,,,,,,,,,,,,,,4,strong,40.00001204,-71.2000075,1,0,0,response3disk,6,100,-2.399939764,-0.800006449,1,0,0,rectangle,-2.399939764,-0.800006449,1,0,0,,6,7,0,6.5E-05,-2.399939764,-0.800006449,1,0,0,,0,99,99,122,1,,,,,,,,,,,,,,,,,,,
,,,,,,,,,,,,,,,,,,,,,,,,,,,,,,,,,,,,,,,,,,5df14bb169a117069e70b11d,6036d829c86f840bc7dbe8ae,2021-02-24_22h53.07.543,Colour_Similarity_Experiment,2020.2.10,Win32,60,6036d0d9a84aa1626184a6ef,14.04357868,14.54420487,16.66758221,16.68217641,16.68515678,16.14478007,,,,,,,,,,,,,,,,,,,,PF,weak,3,,,,,,,,3,0.444695,,,,,,,,,,,,,,,,,,,,,,,,,,,,8,weak,-43.99998921,-93.60005666,1,0,0,response5disk,6,101,5.600060356,-3.200006485,1,0,0,rectangle,-112.7999902,50.39999431,1,0,0,response7disk_3,1,1,1,2.27746,-5.599988639,5.599993646,1,0,0,rectangle,0,100,100,161,1,,,,,,,,,,,,,,,,,,,
,,,,,,,,,,,,,,,,,,,,,,,,,,,,,,,,,,,,,,,,,,5df14bb169a117069e70b11d,6036d829c86f840bc7dbe8ae,2021-02-24_22h53.07.543,Colour_Similarity_Experiment,2020.2.10,Win32,60,6036d0d9a84aa1626184a6ef,14.04357868,14.54420487,16.66758221,16.68217641,16.68515678,16.14478007,,,,,,,,,,,,,,,,,,,,PF,weak,3,,,,,,,,2,1.527705,,,,,,,,,,,,,,,,,,,,,,,,,,,,7,weak,-81.59998977,-55.20000726,1,0,0,response5disk,6,102,7.200011551,-8.800006568,1,0,0,rectangle,7.200011551,-8.800006568,1,0,0,,1,2,0,0.000745,7.200011551,-8.800006568,1,0,0,,0,101,101,29,1,,,,,,,,,,,,,,,,,,,
,,,,,,,,,,,,,,,,,,,,,,,,,,,,,,,,,,,,,,,,,,5df14bb169a117069e70b11d,6036d829c86f840bc7dbe8ae,2021-02-24_22h53.07.543,Colour_Similarity_Experiment,2020.2.10,Win32,60,6036d0d9a84aa1626184a6ef,14.04357868,14.54420487,16.66758221,16.68217641,16.68515678,16.14478007,,,,,,,,,,,,,,,,,,,,PF,weak,3,,,,,,,,5,1.18037,,,,,,,,,,,,,,,,,,,,,,,,,,,,3,weak,104.000013,-49.60000718,1,0,0,response3disk,5,103,4.800011516,-6.4373E-06,1,0,0,rectangle,4.800011516,-6.4373E-06,1,0,0,,1,2,0,6.5E-05,4.800011516,-6.4373E-06,1,0,0,,0,102,102,66,1,,,,,,,,,,,,,,,,,,,
,,,,,,,,,,,,,,,,,,,,,,,,,,,,,,,,,,,,,,,,,,5df14bb169a117069e70b11d,6036d829c86f840bc7dbe8ae,2021-02-24_22h53.07.543,Colour_Similarity_Experiment,2020.2.10,Win32,60,6036d0d9a84aa1626184a6ef,14.04357868,14.54420487,16.66758221,16.68217641,16.68515678,16.14478007,,,,,,,,,,,,,,,,,,,,PF,weak,3,,,,,,,,3,0.82003,,,,,,,,,,,,,,,,,,,,,,,,,,,,4,weak,-50.39994048,-77.60000759,1,0,0,response5disk,4,104,-1.59998858,-8.800006568,1,0,0,rectangle,-1.59998858,-8.800006568,1,0,0,,1,0,0,0.000515,-1.59998858,-8.800006568,1,0,0,,0,103,103,70,1,,,,,,,,,,,,,,,,,,,
,,,,,,,,,,,,,,,,,,,,,,,,,,,,,,,,,,,,,,,,,,5df14bb169a117069e70b11d,6036d829c86f840bc7dbe8ae,2021-02-24_22h53.07.543,Colour_Similarity_Experiment,2020.2.10,Win32,60,6036d0d9a84aa1626184a6ef,14.04357868,14.54420487,16.66758221,16.68217641,16.68515678,16.14478007,,,,,,,,,,,,,,,,,,,,PF,strong,3,,,,,,,,1,2.667065,,,,,,,,,,,,,,,,,,,,,,,,,,,,2,strong,-83.1999898,30.39999402,1,0,0,response7disk,2,105,7.200011551,-3.200006485,1,0,0,rectangle,7.200011551,-3.200006485,1,0,0,,1,0,0,6.5E-05,7.200011551,-3.200006485,1,0,0,,0,104,104,142,1,,,,,,,,,,,,,,,,,,,
,,,,,,,,,,,,,,,,,,,,,,,,,,,,,,,,,,,,,,,,,,5df14bb169a117069e70b11d,6036d829c86f840bc7dbe8ae,2021-02-24_22h53.07.543,Colour_Similarity_Experiment,2020.2.10,Win32,60,6036d0d9a84aa1626184a6ef,14.04357868,14.54420487,16.66758221,16.68217641,16.68515678,16.14478007,,,,,,,,,,,,,,,,,,,,PF,weak,3,,,,,,,,2,1.069885,,,,,,,,,,,,,,,,,,,,,,,,,,,,6,weak,-62.39994066,-39.20000702,1,0,0,response5disk,5,106,6.400011539,12.79999375,1,0,0,rectangle,6.400011539,12.79999375,1,0,0,,1,0,0,8E-05,6.400011539,12.79999375,1,0,0,,0,105,105,59,1,,,,,,,,,,,,,,,,,,,
,,,,,,,,,,,,,,,,,,,,,,,,,,,,,,,,,,,,,,,,,,5df14bb169a117069e70b11d,6036d829c86f840bc7dbe8ae,2021-02-24_22h53.07.543,Colour_Similarity_Experiment,2020.2.10,Win32,60,6036d0d9a84aa1626184a6ef,14.04357868,14.54420487,16.66758221,16.68217641,16.68515678,16.14478007,,,,,,,,,,,,,,,,,,,,PF,weak,3,,,,,,,,5,0.865395,,,,,,,,,,,,,,,,,,,,,,,,,,,,1,weak,59.20001233,-40.00000703,1,0,0,response3disk,6,107,1.600060296,4.799993634,1,0,0,rectangle,1.600060296,4.799993634,1,0,0,,1,7,0,0.00079,1.600060296,4.799993634,1,0,0,,0,106,106,144,1,,,,,,,,,,,,,,,,,,,
,,,,,,,,,,,,,,,,,,,,,,,,,,,,,,,,,,,,,,,,,,5df14bb169a117069e70b11d,6036d829c86f840bc7dbe8ae,2021-02-24_22h53.07.543,Colour_Similarity_Experiment,2020.2.10,Win32,60,6036d0d9a84aa1626184a6ef,14.04357868,14.54420487,16.66758221,16.68217641,16.68515678,16.14478007,,,,,,,,,,,,,,,,,,,,PF,strong,3,,,,,,,,4,0.819535,,,,,,,,,,,,,,,,,,,,,,,,,,,,2,strong,32.00001192,-92.00000781,1,0,0,response3disk,6,108,-2.399939764,-6.4373E-06,1,0,0,rectangle,-2.399939764,-6.4373E-06,1,0,0,,1,0,0,0.000495,-2.399939764,-6.4373E-06,1,0,0,,0,107,107,40,1,,,,,,,,,,,,,,,,,,,
,,,,,,,,,,,,,,,,,,,,,,,,,,,,,,,,,,,,,,,,,,5df14bb169a117069e70b11d,6036d829c86f840bc7dbe8ae,2021-02-24_22h53.07.543,Colour_Similarity_Experiment,2020.2.10,Win32,60,6036d0d9a84aa1626184a6ef,14.04357868,14.54420487,16.66758221,16.68217641,16.68515678,16.14478007,,,,,,,,,,,,,,,,,,,,PF,strong,3,,,,,,,,7,1.131915,,,,,,,,,,,,,,,,,,,,,,,,,,,,3,strong,34.40001196,80.79999477,1,0,0,response1disk,8,109,4.800011516,11.19999373,1,0,0,rectangle,4.800011516,11.19999373,1,0,0,,1,1,0,0.001475,4.800011516,11.19999373,1,0,0,,0,108,108,44,1,,,,,,,,,,,,,,,,,,,
,,,,,,,,,,,,,,,,,,,,,,,,,,,,,,,,,,,,,,,,,,5df14bb169a117069e70b11d,6036d829c86f840bc7dbe8ae,2021-02-24_22h53.07.543,Colour_Similarity_Experiment,2020.2.10,Win32,60,6036d0d9a84aa1626184a6ef,14.04357868,14.54420487,16.66758221,16.68217641,16.68515678,16.14478007,,,,,,,,,,,,,,,,,,,,PF,weak,3,,,,,,,,5,1.34733,,,,,,,,,,,,,,,,,,,,,,,,,,,,8,weak,76.80001259,-73.60000753,1,0,0,response3disk,9,110,2.40001148,6.399993658,1,0,0,rectangle,2.40001148,6.399993658,1,0,0,,1,0,0,0.000805,2.40001148,6.399993658,1,0,0,,0,109,109,42,1,,,,,,,,,,,,,,,,,,,
,,,,,,,,,,,,,,,,,,,,,,,,,,,,,,,,,,,,,,,,,,5df14bb169a117069e70b11d,6036d829c86f840bc7dbe8ae,2021-02-24_22h53.07.543,Colour_Similarity_Experiment,2020.2.10,Win32,60,6036d0d9a84aa1626184a6ef,14.04357868,14.54420487,16.66758221,16.68217641,16.68515678,16.14478007,,,,,,,,,,,,,,,,,,,,PF,weak,3,,,,,,,,6,1.44922,,,,,,,,,,,,,,,,,,,,,,,,,,,,8,weak,88.80001277,55.9999944,1,0,0,response1disk,4,111,-8.799988687,1.599993587,1,0,0,rectangle,-8.799988687,1.599993587,1,0,0,,1,0,0,0.00018,-8.799988687,1.599993587,1,0,0,,0,110,110,78,1,,,,,,,,,,,,,,,,,,,
,,,,,,,,,,,,,,,,,,,,,,,,,,,,,,,,,,,,,,,,,,5df14bb169a117069e70b11d,6036d829c86f840bc7dbe8ae,2021-02-24_22h53.07.543,Colour_Similarity_Experiment,2020.2.10,Win32,60,6036d0d9a84aa1626184a6ef,14.04357868,14.54420487,16.66758221,16.68217641,16.68515678,16.14478007,,,,,,,,,,,,,,,,,,,,PF,strong,3,,,,,,,,4,0.93792,,,,,,,,,,,,,,,,,,,,,,,,,,,,2,strong,49.60006101,-72.80000752,1,0,0,response3disk,4,112,-0.799988568,-5.600006521,1,0,0,rectangle,-0.799988568,-5.600006521,1,0,0,,1,0,0,6.5E-05,-0.799988568,-5.600006521,1,0,0,,0,111,111,145,1,,,,,,,,,,,,,,,,,,,
,,,,,,,,,,,,,,,,,,,,,,,,,,,,,,,,,,,,,,,,,,5df14bb169a117069e70b11d,6036d829c86f840bc7dbe8ae,2021-02-24_22h53.07.543,Colour_Similarity_Experiment,2020.2.10,Win32,60,6036d0d9a84aa1626184a6ef,14.04357868,14.54420487,16.66758221,16.68217641,16.68515678,16.14478007,,,,,,,,,,,,,,,,,,,,PF,weak,3,,,,,,,,0,0.8826,,,,,,,,,,,,,,,,,,,,,,,,,,,,1,weak,-52.79998934,93.59999496,1,0,0,response7disk,1,113,12.00001162,10.39999372,1,0,0,rectangle,-83.1999898,-50.40000719,1,0,0,response5disk_3,1,2,1,2.62396,-1.59998858,-6.4373E-06,1,0,0,rectangle,0,112,112,76,1,,,,,,,,,,,,,,,,,,,
,,,,,,,,,,,,,,,,,,,,,,,,,,,,,,,,,,,,,,,,,,5df14bb169a117069e70b11d,6036d829c86f840bc7dbe8ae,2021-02-24_22h53.07.543,Colour_Similarity_Experiment,2020.2.10,Win32,60,6036d0d9a84aa1626184a6ef,14.04357868,14.54420487,16.66758221,16.68217641,16.68515678,16.14478007,,,,,,,,,,,,,,,,,,,,PF,strong,3,,,,,,,,5,0.83595,,,,,,,,,,,,,,,,,,,,,,,,,,,,5,strong,82.40001267,-36.00000697,1,0,0,response3disk,6,114,-11.19998872,4.799993634,1,0,0,rectangle,-11.19998872,4.799993634,1,0,0,,1,7,0,0.00094,-11.19998872,4.799993634,1,0,0,,0,113,113,12,1,,,,,,,,,,,,,,,,,,,
,,,,,,,,,,,,,,,,,,,,,,,,,,,,,,,,,,,,,,,,,,5df14bb169a117069e70b11d,6036d829c86f840bc7dbe8ae,2021-02-24_22h53.07.543,Colour_Similarity_Experiment,2020.2.10,Win32,60,6036d0d9a84aa1626184a6ef,14.04357868,14.54420487,16.66758221,16.68217641,16.68515678,16.14478007,,,,,,,,,,,,,,,,,,,,PF,strong,3,,,,,,,,3,1.736245,,,,,,,,,,,,,,,,,,,,,,,,,,,,9,strong,-47.19998926,-81.60005648,1,0,0,response5disk,3,115,4.800011516,0.799993575,1,0,0,rectangle,4.800011516,0.799993575,1,0,0,,1,1,0,0.000525,4.800011516,0.799993575,1,0,0,,0,114,114,141,1,,,,,,,,,,,,,,,,,,,
,,,,,,,,,,,,,,,,,,,,,,,,,,,,,,,,,,,,,,,,,,5df14bb169a117069e70b11d,6036d829c86f840bc7dbe8ae,2021-02-24_22h53.07.543,Colour_Similarity_Experiment,2020.2.10,Win32,60,6036d0d9a84aa1626184a6ef,14.04357868,14.54420487,16.66758221,16.68217641,16.68515678,16.14478007,,,,,,,,,,,,,,,,,,,,PF,strong,3,,,,,,,,2,0.93068,,,,,,,,,,,,,,,,,,,,,,,,,,,,6,strong,-67.99998957,-46.40000713,1,0,0,response5disk,5,116,-4.799988627,7.19999367,1,0,0,rectangle,-4.799988627,7.19999367,1,0,0,,1,4,0,0.001275,-4.799988627,7.19999367,1,0,0,,0,115,115,126,1,,,,,,,,,,,,,,,,,,,
,,,,,,,,,,,,,,,,,,,,,,,,,,,,,,,,,,,,,,,,,,5df14bb169a117069e70b11d,6036d829c86f840bc7dbe8ae,2021-02-24_22h53.07.543,Colour_Similarity_Experiment,2020.2.10,Win32,60,6036d0d9a84aa1626184a6ef,14.04357868,14.54420487,16.66758221,16.68217641,16.68515678,16.14478007,,,,,,,,,,,,,,,,,,,,PF,weak,3,,,,,,,,5,0.57773,,,,,,,,,,,,,,,,,,,,,,,,,,,,8,weak,60.00001234,-32.00000691,1,0,0,response3disk,2,117,4.000011504,5.599993646,1,0,0,rectangle,4.000011504,5.599993646,1,0,0,,1,1,0,0.002395,4.000011504,5.599993646,1,0,0,,0,116,116,83,1,,,,,,,,,,,,,,,,,,,
,,,,,,,,,,,,,,,,,,,,,,,,,,,,,,,,,,,,,,,,,,5df14bb169a117069e70b11d,6036d829c86f840bc7dbe8ae,2021-02-24_22h53.07.543,Colour_Similarity_Experiment,2020.2.10,Win32,60,6036d0d9a84aa1626184a6ef,14.04357868,14.54420487,16.66758221,16.68217641,16.68515678,16.14478007,,,,,,,,,,,,,,,,,,,,PF,strong,3,,,,,,,,3,1.499985,,,,,,,,,,,,,,,,,,,,,,,,,,,,3,strong,-34.39994024,-60.00000733,1,0,0,response5disk,2,118,1.14441E-05,-3.200006485,1,0,0,rectangle,1.14441E-05,-3.200006485,1,0,0,,1,7,0,0.00053,1.14441E-05,-3.200006485,1,0,0,,0,117,117,93,1,,,,,,,,,,,,,,,,,,,
,,,,,,,,,,,,,,,,,,,,,,,,,,,,,,,,,,,,,,,,,,5df14bb169a117069e70b11d,6036d829c86f840bc7dbe8ae,2021-02-24_22h53.07.543,Colour_Similarity_Experiment,2020.2.10,Win32,60,6036d0d9a84aa1626184a6ef,14.04357868,14.54420487,16.66758221,16.68217641,16.68515678,16.14478007,,,,,,,,,,,,,,,,,,,,PF,weak,3,,,,,,,,4,1.33292,,,,,,,,,,,,,,,,,,,,,,,,,,,,3,weak,39.20001203,-70.40000749,1,0,0,response3disk,6,119,-3.199988604,-3.200006485,1,0,0,rectangle,-3.199988604,-3.200006485,1,0,0,,1,7,0,7.5E-05,-3.199988604,-3.200006485,1,0,0,,0,118,118,47,1,,,,,,,,,,,,,,,,,,,
,,,,,,,,,,,,,,,,,,,,,,,,,,,,,,,,,,,,,,,,,,5df14bb169a117069e70b11d,6036d829c86f840bc7dbe8ae,2021-02-24_22h53.07.543,Colour_Similarity_Experiment,2020.2.10,Win32,60,6036d0d9a84aa1626184a6ef,14.04357868,14.54420487,16.66758221,16.68217641,16.68515678,16.14478007,,,,,,,,,,,,,,,,,,,,PF,weak,3,,,,,,,,2,0.681355,,,,,,,,,,,,,,,,,,,,,,,,,,,,9,weak,-83.1999898,-52.80000722,1,0,0,response5disk,5,120,-13.59998876,-8.800006568,1,0,0,rectangle,-13.59998876,-8.800006568,1,0,0,,1,5,0,0.00063,-13.59998876,-8.800006568,1,0,0,,0,119,119,134,1,,,,,,,,,,,,,,,,,,,
,,,,,,,,,,,,,,,,,,,,,,,,,,,,,,,,,,,,,,,,,,5df14bb169a117069e70b11d,6036d829c86f840bc7dbe8ae,2021-02-24_22h53.07.543,Colour_Similarity_Experiment,2020.2.10,Win32,60,6036d0d9a84aa1626184a6ef,14.04357868,14.54420487,16.66758221,16.68217641,16.68515678,16.14478007,,,,,,,,,,,,,,,,,,,,PF,weak,3,,,,,,,,6,0.388385,,,,,,,,,,,,,,,,,,,,,,,,,,,,5,weak,52.80001223,51.99999434,1,0,0,response1disk,8,121,4.800011516,-6.4373E-06,1,0,0,rectangle,4.800011516,-6.4373E-06,1,0,0,,1,5,0,7E-05,4.800011516,-6.4373E-06,1,0,0,,0,120,120,149,1,,,,,,,,,,,,,,,,,,,
,,,,,,,,,,,,,,,,,,,,,,,,,,,,,,,,,,,,,,,,,,5df14bb169a117069e70b11d,6036d829c86f840bc7dbe8ae,2021-02-24_22h53.07.543,Colour_Similarity_Experiment,2020.2.10,Win32,60,6036d0d9a84aa1626184a6ef,14.04357868,14.54420487,16.66758221,16.68217641,16.68515678,16.14478007,,,,,,,,,,,,,,,,,,,,PF,strong,3,,,,,,,,4,0.701205,,,,,,,,,,,,,,,,,,,,,,,,,,,,9,strong,52.80001223,-84.00000769,1,0,0,response3disk,4,122,17.60006053,-0.800006449,1,0,0,rectangle,17.60006053,-0.800006449,1,0,0,,1,4,0,0.00066,17.60006053,-0.800006449,1,0,0,,0,121,121,60,1,,,,,,,,,,,,,,,,,,,
,,,,,,,,,,,,,,,,,,,,,,,,,,,,,,,,,,,,,,,,,,5df14bb169a117069e70b11d,6036d829c86f840bc7dbe8ae,2021-02-24_22h53.07.543,Colour_Similarity_Experiment,2020.2.10,Win32,60,6036d0d9a84aa1626184a6ef,14.04357868,14.54420487,16.66758221,16.68217641,16.68515678,16.14478007,,,,,,,,,,,,,,,,,,,,PF,weak,3,,,,,,,,3,0.41788,,,,,,,,,,,,,,,,,,,,,,,,,,,,7,weak,-38.3999403,-61.60000736,1,0,0,response5disk,7,123,-1.59998858,-8.800006568,1,0,0,rectangle,-1.59998858,-8.800006568,1,0,0,,1,3,0,0.000515,-1.59998858,-8.800006568,1,0,0,,0,122,122,51,1,,,,,,,,,,,,,,,,,,,
,,,,,,,,,,,,,,,,,,,,,,,,,,,,,,,,,,,,,,,,,,5df14bb169a117069e70b11d,6036d829c86f840bc7dbe8ae,2021-02-24_22h53.07.543,Colour_Similarity_Experiment,2020.2.10,Win32,60,6036d0d9a84aa1626184a6ef,14.04357868,14.54420487,16.66758221,16.68217641,16.68515678,16.14478007,,,,,,,,,,,,,,,,,,,,PF,strong,3,,,,,,,,5,0.534715,,,,,,,,,,,,,,,,,,,,,,,,,,,,7,strong,56.80001229,-28.00000685,1,0,0,response3disk,7,124,3.200011492,-4.800006509,1,0,0,rectangle,3.200011492,-4.800006509,1,0,0,,1,6,0,0.00056,3.200011492,-4.800006509,1,0,0,,0,123,123,34,1,,,,,,,,,,,,,,,,,,,
,,,,,,,,,,,,,,,,,,,,,,,,,,,,,,,,,,,,,,,,,,5df14bb169a117069e70b11d,6036d829c86f840bc7dbe8ae,2021-02-24_22h53.07.543,Colour_Similarity_Experiment,2020.2.10,Win32,60,6036d0d9a84aa1626184a6ef,14.04357868,14.54420487,16.66758221,16.68217641,16.68515678,16.14478007,,,,,,,,,,,,,,,,,,,,PF,strong,3,,,,,,,,2,0.534775,,,,,,,,,,,,,,,,,,,,,,,,,,,,3,strong,-71.99998963,-37.600007,1,0,0,response5disk,1,125,13.60006047,-6.400006533,1,0,0,rectangle,13.60006047,-6.400006533,1,0,0,,1,1,0,0.000715,13.60006047,-6.400006533,1,0,0,,0,124,124,125,1,,,,,,,,,,,,,,,,,,,
,,,,,,,,,,,,,,,,,,,,,,,,,,,,,,,,,,,,,,,,,,5df14bb169a117069e70b11d,6036d829c86f840bc7dbe8ae,2021-02-24_22h53.07.543,Colour_Similarity_Experiment,2020.2.10,Win32,60,6036d0d9a84aa1626184a6ef,14.04357868,14.54420487,16.66758221,16.68217641,16.68515678,16.14478007,,,,,,,,,,,,,,,,,,,,PF,strong,3,,,,,,,,5,0.70401,,,,,,,,,,,,,,,,,,,,,,,,,,,,6,strong,114.4000131,-64.00000739,1,0,0,response3disk,4,126,-2.399939764,7.19999367,1,0,0,rectangle,-2.399939764,7.19999367,1,0,0,,1,7,0,0.00066,-2.399939764,7.19999367,1,0,0,,0,125,125,56,1,,,,,,,,,,,,,,,,,,,
,,,,,,,,,,,,,,,,,,,,,,,,,,,,,,,,,,,,,,,,,,5df14bb169a117069e70b11d,6036d829c86f840bc7dbe8ae,2021-02-24_22h53.07.543,Colour_Similarity_Experiment,2020.2.10,Win32,60,6036d0d9a84aa1626184a6ef,14.04357868,14.54420487,16.66758221,16.68217641,16.68515678,16.14478007,,,,,,,,,,,,,,,,,,,,PF,strong,3,,,,,,,,7,1.31901,,,,,,,,,,,,,,,,,,,,,,,,,,,,7,strong,46.40001214,63.99999452,1,0,0,response1disk,9,127,8.800011575,-2.400006473,1,0,0,rectangle,8.800011575,-2.400006473,1,0,0,,1,4,0,0.00054,8.800011575,-2.400006473,1,0,0,,0,126,126,155,1,,,,,,,,,,,,,,,,,,,
,,,,,,,,,,,,,,,,,,,,,,,,,,,,,,,,,,,,,,,,,,5df14bb169a117069e70b11d,6036d829c86f840bc7dbe8ae,2021-02-24_22h53.07.543,Colour_Similarity_Experiment,2020.2.10,Win32,60,6036d0d9a84aa1626184a6ef,14.04357868,14.54420487,16.66758221,16.68217641,16.68515678,16.14478007,,,,,,,,,,,,,,,,,,,,PF,weak,3,,,,,,,,4,3.014415,,,,,,,,,,,,,,,,,,,,,,,,,,,,2,weak,44.0000121,-88.80000776,1,0,0,response3disk,2,128,1.14441E-05,5.599993646,1,0,0,rectangle,1.14441E-05,5.599993646,1,0,0,,1,7,0,0.00051,1.14441E-05,5.599993646,1,0,0,,0,127,127,14,1,,,,,,,,,,,,,,,,,,,
,,,,,,,,,,,,,,,,,,,,,,,,,,,,,,,,,,,,,,,,,,5df14bb169a117069e70b11d,6036d829c86f840bc7dbe8ae,2021-02-24_22h53.07.543,Colour_Similarity_Experiment,2020.2.10,Win32,60,6036d0d9a84aa1626184a6ef,14.04357868,14.54420487,16.66758221,16.68217641,16.68515678,16.14478007,,,,,,,,,,,,,,,,,,,,PF,weak,3,,,,,,,,6,1.367975,,,,,,,,,,,,,,,,,,,,,,,,,,,,9,weak,85.60001272,45.59999424,1,0,0,response1disk,1,129,-2.399939764,-1.600006461,1,0,0,rectangle,-2.399939764,-1.600006461,1,0,0,,1,6,0,0.0011,-2.399939764,-1.600006461,1,0,0,,0,128,128,74,1,,,,,,,,,,,,,,,,,,,
,,,,,,,,,,,,,,,,,,,,,,,,,,,,,,,,,,,,,,,,,,5df14bb169a117069e70b11d,6036d829c86f840bc7dbe8ae,2021-02-24_22h53.07.543,Colour_Similarity_Experiment,2020.2.10,Win32,60,6036d0d9a84aa1626184a6ef,14.04357868,14.54420487,16.66758221,16.68217641,16.68515678,16.14478007,,,,,,,,,,,,,,,,,,,,PF,strong,3,,,,,,,,3,0.9652,,,,,,,,,,,,,,,,,,,,,,,,,,,,6,strong,-30.39994018,-68.80000746,1,0,0,response5disk,1,130,0.800011456,-0.800006449,1,0,0,rectangle,0.800011456,-0.800006449,1,0,0,,1,7,0,0.00084,0.800011456,-0.800006449,1,0,0,,0,129,129,5,1,,,,,,,,,,,,,,,,,,,
,,,,,,,,,,,,,,,,,,,,,,,,,,,,,,,,,,,,,,,,,,5df14bb169a117069e70b11d,6036d829c86f840bc7dbe8ae,2021-02-24_22h53.07.543,Colour_Similarity_Experiment,2020.2.10,Win32,60,6036d0d9a84aa1626184a6ef,14.04357868,14.54420487,16.66758221,16.68217641,16.68515678,16.14478007,,,,,,,,,,,,,,,,,,,,PF,strong,3,,,,,,,,4,0.43521,,,,,,,,,,,,,,,,,,,,,,,,,,,,5,strong,50.4000122,-84.8000077,1,0,0,response3disk,9,131,-0.799988568,3.19999361,1,0,0,rectangle,-0.799988568,3.19999361,1,0,0,,1,5,0,0.00063,-0.799988568,3.19999361,1,0,0,,0,130,130,61,1,,,,,,,,,,,,,,,,,,,
,,,,,,,,,,,,,,,,,,,,,,,,,,,,,,,,,,,,,,,,,,5df14bb169a117069e70b11d,6036d829c86f840bc7dbe8ae,2021-02-24_22h53.07.543,Colour_Similarity_Experiment,2020.2.10,Win32,60,6036d0d9a84aa1626184a6ef,14.04357868,14.54420487,16.66758221,16.68217641,16.68515678,16.14478007,,,,,,,,,,,,,,,,,,,,PF,weak,3,,,,,,,,5,0.582635,,,,,,,,,,,,,,,,,,,,,,,,,,,,7,weak,68.80001247,-39.20000702,1,0,0,response3disk,2,132,-15.19998878,8.799993694,1,0,0,rectangle,-15.19998878,8.799993694,1,0,0,,1,1,0,0.000865,-15.19998878,8.799993694,1,0,0,,0,131,131,32,1,,,,,,,,,,,,,,,,,,,
,,,,,,,,,,,,,,,,,,,,,,,,,,,,,,,,,,,,,,,,,,5df14bb169a117069e70b11d,6036d829c86f840bc7dbe8ae,2021-02-24_22h53.07.543,Colour_Similarity_Experiment,2020.2.10,Win32,60,6036d0d9a84aa1626184a6ef,14.04357868,14.54420487,16.66758221,16.68217641,16.68515678,16.14478007,,,,,,,,,,,,,,,,,,,,PF,weak,3,,,,,,,,6,0.854455,,,,,,,,,,,,,,,,,,,,,,,,,,,,7,weak,77.6000126,35.19996967,1,0,0,response1disk,9,133,16.00001168,-1.600006461,1,0,0,rectangle,16.00001168,-1.600006461,1,0,0,,1,4,0,0.00047,16.00001168,-1.600006461,1,0,0,,0,132,132,10,1,,,,,,,,,,,,,,,,,,,
,,,,,,,,,,,,,,,,,,,,,,,,,,,,,,,,,,,,,,,,,,5df14bb169a117069e70b11d,6036d829c86f840bc7dbe8ae,2021-02-24_22h53.07.543,Colour_Similarity_Experiment,2020.2.10,Win32,60,6036d0d9a84aa1626184a6ef,14.04357868,14.54420487,16.66758221,16.68217641,16.68515678,16.14478007,,,,,,,,,,,,,,,,,,,,PF,weak,3,,,,,,,,4,0.807625,,,,,,,,,,,,,,,,,,,,,,,,,,,,1,weak,42.40001208,-66.40000743,1,0,0,response3disk,7,134,5.600060356,-16.80000669,1,0,0,rectangle,5.600060356,-16.80000669,1,0,0,,1,0,0,0.001085,5.600060356,-16.80000669,1,0,0,,0,133,133,150,1,,,,,,,,,,,,,,,,,,,
,,,,,,,,,,,,,,,,,,,,,,,,,,,,,,,,,,,,,,,,,,5df14bb169a117069e70b11d,6036d829c86f840bc7dbe8ae,2021-02-24_22h53.07.543,Colour_Similarity_Experiment,2020.2.10,Win32,60,6036d0d9a84aa1626184a6ef,14.04357868,14.54420487,16.66758221,16.68217641,16.68515678,16.14478007,,,,,,,,,,,,,,,,,,,,PF,weak,3,,,,,,,,5,0.41793,,,,,,,,,,,,,,,,,,,,,,,,,,,,6,weak,71.20001251,-47.20000714,1,0,0,response3disk,4,135,-19.99998885,3.19999361,1,0,0,rectangle,-19.99998885,3.19999361,1,0,0,,1,3,0,0.00091,-19.99998885,3.19999361,1,0,0,,0,134,134,33,1,,,,,,,,,,,,,,,,,,,
,,,,,,,,,,,,,,,,,,,,,,,,,,,,,,,,,,,,,,,,,,5df14bb169a117069e70b11d,6036d829c86f840bc7dbe8ae,2021-02-24_22h53.07.543,Colour_Similarity_Experiment,2020.2.10,Win32,60,6036d0d9a84aa1626184a6ef,14.04357868,14.54420487,16.66758221,16.68217641,16.68515678,16.14478007,,,,,,,,,,,,,,,,,,,,PF,weak,3,,,,,,,,2,0.767035,,,,,,,,,,,,,,,,,,,,,,,,,,,,6,weak,-65.59998953,-36.00000697,1,0,0,response5disk,7,136,10.4000116,-6.4373E-06,1,0,0,rectangle,10.4000116,-6.4373E-06,1,0,0,,1,1,0,0.00045,10.4000116,-6.4373E-06,1,0,0,,0,135,135,50,1,,,,,,,,,,,,,,,,,,,
,,,,,,,,,,,,,,,,,,,,,,,,,,,,,,,,,,,,,,,,,,5df14bb169a117069e70b11d,6036d829c86f840bc7dbe8ae,2021-02-24_22h53.07.543,Colour_Similarity_Experiment,2020.2.10,Win32,60,6036d0d9a84aa1626184a6ef,14.04357868,14.54420487,16.66758221,16.68217641,16.68515678,16.14478007,,,,,,,,,,,,,,,,,,,,PF,weak,3,,,,,,,,3,1.459085,,,,,,,,,,,,,,,,,,,,,,,,,,,,9,weak,-43.1999892,-71.2000075,1,0,0,response5disk,8,137,9.600060415,14.39999378,1,0,0,rectangle,9.600060415,14.39999378,1,0,0,,1,2,0,0.00069,9.600060415,14.39999378,1,0,0,,0,136,136,67,1,,,,,,,,,,,,,,,,,,,
,,,,,,,,,,,,,,,,,,,,,,,,,,,,,,,,,,,,,,,,,,5df14bb169a117069e70b11d,6036d829c86f840bc7dbe8ae,2021-02-24_22h53.07.543,Colour_Similarity_Experiment,2020.2.10,Win32,60,6036d0d9a84aa1626184a6ef,14.04357868,14.54420487,16.66758221,16.68217641,16.68515678,16.14478007,,,,,,,,,,,,,,,,,,,,PF,weak,3,,,,,,,,6,1.298585,,,,,,,,,,,,,,,,,,,,,,,,,,,,7,weak,72.80001253,55.9999944,1,0,0,response1disk,4,138,5.600060356,-1.600006461,1,0,0,rectangle,5.600060356,-1.600006461,1,0,0,,1,0,0,0.00084,5.600060356,-1.600006461,1,0,0,,0,137,137,43,1,,,,,,,,,,,,,,,,,,,
,,,,,,,,,,,,,,,,,,,,,,,,,,,,,,,,,,,,,,,,,,5df14bb169a117069e70b11d,6036d829c86f840bc7dbe8ae,2021-02-24_22h53.07.543,Colour_Similarity_Experiment,2020.2.10,Win32,60,6036d0d9a84aa1626184a6ef,14.04357868,14.54420487,16.66758221,16.68217641,16.68515678,16.14478007,,,,,,,,,,,,,,,,,,,,PF,strong,3,,,,,,,,3,1.21583,,,,,,,,,,,,,,,,,,,,,,,,,,,,9,strong,-29.599989,-64.8000074,1,0,0,response5disk,6,139,-1.59998858,3.19999361,1,0,0,rectangle,-1.59998858,3.19999361,1,0,0,,1,2,0,0.00092,-1.59998858,3.19999361,1,0,0,,0,138,138,117,1,,,,,,,,,,,,,,,,,,,
,,,,,,,,,,,,,,,,,,,,,,,,,,,,,,,,,,,,,,,,,,5df14bb169a117069e70b11d,6036d829c86f840bc7dbe8ae,2021-02-24_22h53.07.543,Colour_Similarity_Experiment,2020.2.10,Win32,60,6036d0d9a84aa1626184a6ef,14.04357868,14.54420487,16.66758221,16.68217641,16.68515678,16.14478007,,,,,,,,,,,,,,,,,,,,PF,weak,3,,,,,,,,4,0.650675,,,,,,,,,,,,,,,,,,,,,,,,,,,,8,weak,44.0000121,-74.40000755,1,0,0,response3disk,5,140,5.600060356,-4.000006497,1,0,0,rectangle,5.600060356,-4.000006497,1,0,0,,1,6,0,0.000545,5.600060356,-4.000006497,1,0,0,,0,139,139,98,1,,,,,,,,,,,,,,,,,,,
,,,,,,,,,,,,,,,,,,,,,,,,,,,,,,,,,,,,,,,,,,5df14bb169a117069e70b11d,6036d829c86f840bc7dbe8ae,2021-02-24_22h53.07.543,Colour_Similarity_Experiment,2020.2.10,Win32,60,6036d0d9a84aa1626184a6ef,14.04357868,14.54420487,16.66758221,16.68217641,16.68515678,16.14478007,,,,,,,,,,,,,,,,,,,,PF,strong,3,,,,,,,,6,0.84816,,,,,,,,,,,,,,,,,,,,,,,,,,,,8,strong,73.60001254,44.79999423,1,0,0,response1disk,4,141,-9.599988699,4.799993634,1,0,0,rectangle,-9.599988699,4.799993634,1,0,0,,1,5,0,0.00094,-9.599988699,4.799993634,1,0,0,,0,140,140,88,1,,,,,,,,,,,,,,,,,,,
,,,,,,,,,,,,,,,,,,,,,,,,,,,,,,,,,,,,,,,,,,5df14bb169a117069e70b11d,6036d829c86f840bc7dbe8ae,2021-02-24_22h53.07.543,Colour_Similarity_Experiment,2020.2.10,Win32,60,6036d0d9a84aa1626184a6ef,14.04357868,14.54420487,16.66758221,16.68217641,16.68515678,16.14478007,,,,,,,,,,,,,,,,,,,,PF,strong,3,,,,,,,,4,1.152925,,,,,,,,,,,,,,,,,,,,,,,,,,,,8,strong,28.00001186,-72.00000751,1,0,0,response3disk,7,142,-11.19998872,13.59999377,1,0,0,rectangle,-11.19998872,13.59999377,1,0,0,,1,6,0,0.00066,-11.19998872,13.59999377,1,0,0,,0,141,141,86,1,,,,,,,,,,,,,,,,,,,
,,,,,,,,,,,,,,,,,,,,,,,,,,,,,,,,,,,,,,,,,,5df14bb169a117069e70b11d,6036d829c86f840bc7dbe8ae,2021-02-24_22h53.07.543,Colour_Similarity_Experiment,2020.2.10,Win32,60,6036d0d9a84aa1626184a6ef,14.04357868,14.54420487,16.66758221,16.68217641,16.68515678,16.14478007,,,,,,,,,,,,,,,,,,,,PF,strong,3,,,,,,,,3,0.77072,,,,,,,,,,,,,,,,,,,,,,,,,,,,8,strong,-37.59998912,-63.20000738,1,0,0,response5disk,3,143,3.200011492,-3.200006485,1,0,0,rectangle,3.200011492,-3.200006485,1,0,0,,1,5,0,0.000515,3.200011492,-3.200006485,1,0,0,,0,142,142,154,1,,,,,,,,,,,,,,,,,,,
,,,,,,,,,,,,,,,,,,,,,,,,,,,,,,,,,,,,,,,,,,5df14bb169a117069e70b11d,6036d829c86f840bc7dbe8ae,2021-02-24_22h53.07.543,Colour_Similarity_Experiment,2020.2.10,Win32,60,6036d0d9a84aa1626184a6ef,14.04357868,14.54420487,16.66758221,16.68217641,16.68515678,16.14478007,,,,,,,,,,,,,,,,,,,,PF,strong,3,,,,,,,,5,0.636405,,,,,,,,,,,,,,,,,,,,,,,,,,,,6,strong,68.80001247,-32.00000691,1,0,0,response3disk,2,144,1.600060296,5.599993646,1,0,0,rectangle,1.600060296,5.599993646,1,0,0,,1,0,0,0.0005,1.600060296,5.599993646,1,0,0,,0,143,143,112,1,,,,,,,,,,,,,,,,,,,
,,,,,,,,,,,,,,,,,,,,,,,,,,,,,,,,,,,,,,,,,,5df14bb169a117069e70b11d,6036d829c86f840bc7dbe8ae,2021-02-24_22h53.07.543,Colour_Similarity_Experiment,2020.2.10,Win32,60,6036d0d9a84aa1626184a6ef,14.04357868,14.54420487,16.66758221,16.68217641,16.68515678,16.14478007,,,,,,,,,,,,,,,,,,,,PF,weak,3,,,,,,,,4,0.735745,,,,,,,,,,,,,,,,,,,,,,,,,,,,3,weak,40.00001204,-61.60000736,1,0,0,response3disk,4,145,-14.39993994,1.599993587,1,0,0,rectangle,-14.39993994,1.599993587,1,0,0,,1,1,0,0.00163,-14.39993994,1.599993587,1,0,0,,0,144,144,30,1,,,,,,,,,,,,,,,,,,,
,,,,,,,,,,,,,,,,,,,,,,,,,,,,,,,,,,,,,,,,,,5df14bb169a117069e70b11d,6036d829c86f840bc7dbe8ae,2021-02-24_22h53.07.543,Colour_Similarity_Experiment,2020.2.10,Win32,60,6036d0d9a84aa1626184a6ef,14.04357868,14.54420487,16.66758221,16.68217641,16.68515678,16.14478007,,,,,,,,,,,,,,,,,,,,PF,strong,3,,,,,,,,6,1.015105,,,,,,,,,,,,,,,,,,,,,,,,,,,,5,strong,58.40001231,34.39999408,1,0,0,response1disk,7,146,11.20001161,-1.600006461,1,0,0,rectangle,11.20001161,-1.600006461,1,0,0,,1,0,0,0.00057,11.20001161,-1.600006461,1,0,0,,0,145,145,7,1,,,,,,,,,,,,,,,,,,,
,,,,,,,,,,,,,,,,,,,,,,,,,,,,,,,,,,,,,,,,,,5df14bb169a117069e70b11d,6036d829c86f840bc7dbe8ae,2021-02-24_22h53.07.543,Colour_Similarity_Experiment,2020.2.10,Win32,60,6036d0d9a84aa1626184a6ef,14.04357868,14.54420487,16.66758221,16.68217641,16.68515678,16.14478007,,,,,,,,,,,,,,,,,,,,PF,strong,3,,,,,,,,4,1.72193,,,,,,,,,,,,,,,,,,,,,,,,,,,,5,strong,34.40001196,-61.60000736,1,0,0,response3disk,4,147,-9.599988699,3.19999361,1,0,0,rectangle,-9.599988699,3.19999361,1,0,0,,1,3,0,0.00121,-9.599988699,3.19999361,1,0,0,,0,146,146,8,1,,,,,,,,,,,,,,,,,,,
,,,,,,,,,,,,,,,,,,,,,,,,,,,,,,,,,,,,,,,,,,5df14bb169a117069e70b11d,6036d829c86f840bc7dbe8ae,2021-02-24_22h53.07.543,Colour_Similarity_Experiment,2020.2.10,Win32,60,6036d0d9a84aa1626184a6ef,14.04357868,14.54420487,16.66758221,16.68217641,16.68515678,16.14478007,,,,,,,,,,,,,,,,,,,,PF,strong,3,,,,,,,,6,1.402525,,,,,,,,,,,,,,,,,,,,,,,,,,,,7,strong,80.00001264,39.99999416,1,0,0,response1disk,1,148,-3.999988616,-6.4373E-06,1,0,0,rectangle,-3.999988616,-6.4373E-06,1,0,0,,1,5,0,0.001,-3.999988616,-6.4373E-06,1,0,0,,0,147,147,132,1,,,,,,,,,,,,,,,,,,,
,,,,,,,,,,,,,,,,,,,,,,,,,,,,,,,,,,,,,,,,,,5df14bb169a117069e70b11d,6036d829c86f840bc7dbe8ae,2021-02-24_22h53.07.543,Colour_Similarity_Experiment,2020.2.10,Win32,60,6036d0d9a84aa1626184a6ef,14.04357868,14.54420487,16.66758221,16.68217641,16.68515678,16.14478007,,,,,,,,,,,,,,,,,,,,PF,weak,3,,,,,,,,3,0.979725,,,,,,,,,,,,,,,,,,,,,,,,,,,,8,weak,-41.59998918,-64.00000739,1,0,0,response5disk,7,149,-0.799988568,8.799993694,1,0,0,rectangle,-0.799988568,8.799993694,1,0,0,,1,6,0,0.001275,-0.799988568,8.799993694,1,0,0,,0,148,148,23,1,,,,,,,,,,,,,,,,,,,
,,,,,,,,,,,,,,,,,,,,,,,,,,,,,,,,,,,,,,,,,,5df14bb169a117069e70b11d,6036d829c86f840bc7dbe8ae,2021-02-24_22h53.07.543,Colour_Similarity_Experiment,2020.2.10,Win32,60,6036d0d9a84aa1626184a6ef,14.04357868,14.54420487,16.66758221,16.68217641,16.68515678,16.14478007,,,,,,,,,,,,,,,,,,,,PF,strong,3,,,,,,,,4,0.716065,,,,,,,,,,,,,,,,,,,,,,,,,,,,1,strong,55.20001227,-67.20000744,1,0,0,response3disk,9,150,14.40001166,-6.400006533,1,0,0,rectangle,14.40001166,-6.400006533,1,0,0,,1,5,0,0.001195,14.40001166,-6.400006533,1,0,0,,0,149,149,123,1,,,,,,,,,,,,,,,,,,,
,,,,,,,,,,,,,,,,,,,,,,,,,,,,,,,,,,,,,,,,,,5df14bb169a117069e70b11d,6036d829c86f840bc7dbe8ae,2021-02-24_22h53.07.543,Colour_Similarity_Experiment,2020.2.10,Win32,60,6036d0d9a84aa1626184a6ef,14.04357868,14.54420487,16.66758221,16.68217641,16.68515678,16.14478007,,,,,,,,,,,,,,,,,,,,PF,strong,3,,,,,,,,5,0.513945,,,,,,,,,,,,,,,,,,,,,,,,,,,,1,strong,56.80001229,-31.2000069,1,0,0,response3disk,3,151,16.80001169,-0.800006449,1,0,0,rectangle,16.80001169,-0.800006449,1,0,0,,1,4,0,0.00057,16.80001169,-0.800006449,1,0,0,,0,150,150,99,1,,,,,,,,,,,,,,,,,,,
,,,,,,,,,,,,,,,,,,,,,,,,,,,,,,,,,,,,,,,,,,5df14bb169a117069e70b11d,6036d829c86f840bc7dbe8ae,2021-02-24_22h53.07.543,Colour_Similarity_Experiment,2020.2.10,Win32,60,6036d0d9a84aa1626184a6ef,14.04357868,14.54420487,16.66758221,16.68217641,16.68515678,16.14478007,,,,,,,,,,,,,,,,,,,,PF,weak,3,,,,,,,,3,0.46606,,,,,,,,,,,,,,,,,,,,,,,,,,,,4,weak,-51.19998932,-68.00000745,1,0,0,response5disk,2,152,-3.999988616,-10.40000659,1,0,0,rectangle,-3.999988616,-10.40000659,1,0,0,,1,1,0,0.00059,-3.999988616,-10.40000659,1,0,0,,0,151,151,108,1,,,,,,,,,,,,,,,,,,,
,,,,,,,,,,,,,,,,,,,,,,,,,,,,,,,,,,,,,,,,,,5df14bb169a117069e70b11d,6036d829c86f840bc7dbe8ae,2021-02-24_22h53.07.543,Colour_Similarity_Experiment,2020.2.10,Win32,60,6036d0d9a84aa1626184a6ef,14.04357868,14.54420487,16.66758221,16.68217641,16.68515678,16.14478007,,,,,,,,,,,,,,,,,,,,PF,weak,3,,,,,,,,4,0.429765,,,,,,,,,,,,,,,,,,,,,,,,,,,,5,weak,53.60001224,-83.20000768,1,0,0,response3disk,5,153,-3.999988616,-0.800006449,1,0,0,rectangle,-3.999988616,-0.800006449,1,0,0,,1,4,0,0.001235,-3.999988616,-0.800006449,1,0,0,,0,152,152,94,1,,,,,,,,,,,,,,,,,,,
,,,,,,,,,,,,,,,,,,,,,,,,,,,,,,,,,,,,,,,,,,5df14bb169a117069e70b11d,6036d829c86f840bc7dbe8ae,2021-02-24_22h53.07.543,Colour_Similarity_Experiment,2020.2.10,Win32,60,6036d0d9a84aa1626184a6ef,14.04357868,14.54420487,16.66758221,16.68217641,16.68515678,16.14478007,,,,,,,,,,,,,,,,,,,,PF,strong,3,,,,,,,,6,1.180975,,,,,,,,,,,,,,,,,,,,,,,,,,,,6,strong,71.20001251,41.59999418,1,0,0,response1disk,6,154,-7.199988663,0.799993575,1,0,0,rectangle,-7.199988663,0.799993575,1,0,0,,1,6,0,0.00096,-7.199988663,0.799993575,1,0,0,,0,153,153,91,1,,,,,,,,,,,,,,,,,,,
,,,,,,,,,,,,,,,,,,,,,,,,,,,,,,,,,,,,,,,,,,5df14bb169a117069e70b11d,6036d829c86f840bc7dbe8ae,2021-02-24_22h53.07.543,Colour_Similarity_Experiment,2020.2.10,Win32,60,6036d0d9a84aa1626184a6ef,14.04357868,14.54420487,16.66758221,16.68217641,16.68515678,16.14478007,,,,,,,,,,,,,,,,,,,,PF,strong,3,,,,,,,,2,0.77087,,,,,,,,,,,,,,,,,,,,,,,,,,,,7,strong,-74.39994084,-36.80000699,1,0,0,response5disk,2,155,-8.799988687,1.599993587,1,0,0,rectangle,-8.799988687,1.599993587,1,0,0,,1,5,0,0.001045,-8.799988687,1.599993587,1,0,0,,0,154,154,138,1,,,,,,,,,,,,,,,,,,,
,,,,,,,,,,,,,,,,,,,,,,,,,,,,,,,,,,,,,,,,,,5df14bb169a117069e70b11d,6036d829c86f840bc7dbe8ae,2021-02-24_22h53.07.543,Colour_Similarity_Experiment,2020.2.10,Win32,60,6036d0d9a84aa1626184a6ef,14.04357868,14.54420487,16.66758221,16.68217641,16.68515678,16.14478007,,,,,,,,,,,,,,,,,,,,PF,strong,3,,,,,,,,6,0.687515,,,,,,,,,,,,,,,,,,,,,,,,,,,,8,strong,89.60001278,32.79999405,1,0,0,response1disk,6,156,12.00001162,3.19999361,1,0,0,rectangle,12.00001162,3.19999361,1,0,0,,1,2,0,0.00064,12.00001162,3.19999361,1,0,0,,0,155,155,37,1,,,,,,,,,,,,,,,,,,,
,,,,,,,,,,,,,,,,,,,,,,,,,,,,,,,,,,,,,,,,,,5df14bb169a117069e70b11d,6036d829c86f840bc7dbe8ae,2021-02-24_22h53.07.543,Colour_Similarity_Experiment,2020.2.10,Win32,60,6036d0d9a84aa1626184a6ef,14.04357868,14.54420487,16.66758221,16.68217641,16.68515678,16.14478007,,,,,,,,,,,,,,,,,,,,PF,strong,3,,,,,,,,5,1.45029,,,,,,,,,,,,,,,,,,,,,,,,,,,,2,strong,79.20001262,-52.80000722,1,0,0,response3disk,9,157,-13.59998876,-1.600006461,1,0,0,rectangle,-13.59998876,-1.600006461,1,0,0,,1,6,0,0.000775,-13.59998876,-1.600006461,1,0,0,,0,156,156,72,1,,,,,,,,,,,,,,,,,,,
,,,,,,,,,,,,,,,,,,,,,,,,,,,,,,,,,,,,,,,,,,5df14bb169a117069e70b11d,6036d829c86f840bc7dbe8ae,2021-02-24_22h53.07.543,Colour_Similarity_Experiment,2020.2.10,Win32,60,6036d0d9a84aa1626184a6ef,14.04357868,14.54420487,16.66758221,16.68217641,16.68515678,16.14478007,,,,,,,,,,,,,,,,,,,,PF,strong,3,,,,,,,,4,0.73519,,,,,,,,,,,,,,,,,,,,,,,,,,,,8,strong,37.60006083,-80.00000763,1,0,0,response3disk,1,158,-2.399939764,-12.00000662,1,0,0,rectangle,-2.399939764,-12.00000662,1,0,0,,1,6,0,0.000105,-2.399939764,-12.00000662,1,0,0,,0,157,157,20,1,,,,,,,,,,,,,,,,,,,
,,,,,,,,,,,,,,,,,,,,,,,,,,,,,,,,,,,,,,,,,,5df14bb169a117069e70b11d,6036d829c86f840bc7dbe8ae,2021-02-24_22h53.07.543,Colour_Similarity_Experiment,2020.2.10,Win32,60,6036d0d9a84aa1626184a6ef,14.04357868,14.54420487,16.66758221,16.68217641,16.68515678,16.14478007,,,,,,,,,,,,,,,,,,,,PF,weak,3,,,,,,,,3,0.53493,,,,,,,,,,,,,,,,,,,,,,,,,,,,6,weak,-38.3999403,-74.40000755,1,0,0,response5disk,8,159,2.40001148,-5.600006521,1,0,0,rectangle,2.40001148,-5.600006521,1,0,0,,1,5,0,0.00053,2.40001148,-5.600006521,1,0,0,,0,158,158,64,1,,,,,,,,,,,,,,,,,,,
,,,,,,,,,,,,,,,,,,,,,,,,,,,,,,,,,,,,,,,,,,5df14bb169a117069e70b11d,6036d829c86f840bc7dbe8ae,2021-02-24_22h53.07.543,Colour_Similarity_Experiment,2020.2.10,Win32,60,6036d0d9a84aa1626184a6ef,14.04357868,14.54420487,16.66758221,16.68217641,16.68515678,16.14478007,,,,,,,,,,,,,,,,,,,,PF,strong,3,,,,,,,,2,1.146445,,,,,,,,,,,,,,,,,,,,,,,,,,,,4,strong,-95.99998999,-64.8000074,1,0,0,response5disk,2,160,-3.999988616,-10.40000659,1,0,0,rectangle,-3.999988616,-10.40000659,1,0,0,,1,3,0,0.00092,-3.999988616,-10.40000659,1,0,0,,0,159,159,13,1,,,,,,,,,,,,,,,,,,,
,,,,,,,,,,,,,,,,,,,,,,,,,,,,,,,,,,,,,,,,,,5df14bb169a117069e70b11d,6036d829c86f840bc7dbe8ae,2021-02-24_22h53.07.543,Colour_Similarity_Experiment,2020.2.10,Win32,60,6036d0d9a84aa1626184a6ef,14.04357868,14.54420487,16.66758221,16.68217641,16.68515678,16.14478007,,,,,,,,,,,,,,,,,,,,PF,strong,3,,,,,,,,5,0.444875,,,,,,,,,,,,,,,,,,,,,,,,,,,,5,strong,114.4000131,-77.60000759,1,0,0,response3disk,5,161,11.20001161,-2.400006473,1,0,0,rectangle,11.20001161,-2.400006473,1,0,0,,1,3,0,6.5E-05,11.20001161,-2.400006473,1,0,0,,0,160,160,19,1,,,,,,,,,,,,,,,,,,,
,,,,,,,,,,,,,,,,,,,,,,,,,,,,,,,,,,,,,,,,,,5df14bb169a117069e70b11d,6036d829c86f840bc7dbe8ae,2021-02-24_22h53.07.543,Colour_Similarity_Experiment,2020.2.10,Win32,60,6036d0d9a84aa1626184a6ef,14.04357868,14.54420487,16.66758221,16.68217641,16.68515678,16.14478007,,,,,,,,,,,,,,,,,,,,PF,weak,3,,,,,,,,4,0.595435,,,,,,,,,,,,,,,,,,,,,,,,,,,,3,weak,63.20001239,-109.6000569,1,0,0,response3disk,3,162,0.800011456,7.19999367,1,0,0,rectangle,0.800011456,7.19999367,1,0,0,,1,7,0,0.000625,0.800011456,7.19999367,1,0,0,,0,161,161,4,1,,,,,,,,,,,,,,,,,,,
,,,,,,,,,,,,,,,,,,,,,,,,,,,,,,,,,,,,,,,,,,5df14bb169a117069e70b11d,6036d829c86f840bc7dbe8ae,2021-02-24_22h53.07.543,Colour_Similarity_Experiment,2020.2.10,Win32,60,6036d0d9a84aa1626184a6ef,14.04357868,14.54420487,16.66758221,16.68217641,16.68515678,16.14478007,,,,,,,,,,,,,,,,,,,,,,,,,,,,,,,,,,,,,,,,,,,,,,,,,,,,,,,,,,,,,,,,,,,,,,,,,,,,,,,,,,,,,,,,,,,,,,,,0,0,0,0,1,,,,,,,,,,,,,,
,,,,,,,,,,,,,,,,,,,,,,,,,,,,,,,,,,,,,,,,,,5df14bb169a117069e70b11d,6036d829c86f840bc7dbe8ae,2021-02-24_22h53.07.543,Colour_Similarity_Experiment,2020.2.10,Win32,60,6036d0d9a84aa1626184a6ef,14.04357868,14.54420487,16.66758221,16.68217641,16.68515678,16.14478007,,,,,,,,,,,,,,,,,,,,PF,weak,3,,,,,,,,3,0.353535,,,,,,,,,,,,,,,,,,,,,,,,,,,,5,weak,-37.59998912,-81.60005648,1,0,0,response5disk,9,163,10.4000116,-2.400006473,1,0,0,rectangle,109.6000131,52.79999435,1,0,0,response1disk_3,6,6,1,2.05051,-2.399939764,4.799993634,1,0,0,rectangle,0,0,0,136,1,,,,,,,,,,,,,,,,,,,
,,,,,,,,,,,,,,,,,,,,,,,,,,,,,,,,,,,,,,,,,,5df14bb169a117069e70b11d,6036d829c86f840bc7dbe8ae,2021-02-24_22h53.07.543,Colour_Similarity_Experiment,2020.2.10,Win32,60,6036d0d9a84aa1626184a6ef,14.04357868,14.54420487,16.66758221,16.68217641,16.68515678,16.14478007,,,,,,,,,,,,,,,,,,,,PF,weak,3,,,,,,,,2,0.84603,,,,,,,,,,,,,,,,,,,,,,,,,,,,9,weak,-72.79998964,-45.60000712,1,0,0,response5disk,6,164,20.80001175,-6.4373E-06,1,0,0,rectangle,20.80001175,-6.4373E-06,1,0,0,,6,2,0,0.000555,20.80001175,-6.4373E-06,1,0,0,,0,1,1,148,1,,,,,,,,,,,,,,,,,,,
,,,,,,,,,,,,,,,,,,,,,,,,,,,,,,,,,,,,,,,,,,5df14bb169a117069e70b11d,6036d829c86f840bc7dbe8ae,2021-02-24_22h53.07.543,Colour_Similarity_Experiment,2020.2.10,Win32,60,6036d0d9a84aa1626184a6ef,14.04357868,14.54420487,16.66758221,16.68217641,16.68515678,16.14478007,,,,,,,,,,,,,,,,,,,,PF,strong,3,,,,,,,,5,0.611725,,,,,,,,,,,,,,,,,,,,,,,,,,,,1,strong,99.20001292,-40.80000705,1,0,0,response3disk,1,165,2.40001148,0.799993575,1,0,0,rectangle,2.40001148,0.799993575,1,0,0,,6,7,0,0.00096,2.40001148,0.799993575,1,0,0,,0,2,2,151,1,,,,,,,,,,,,,,,,,,,
,,,,,,,,,,,,,,,,,,,,,,,,,,,,,,,,,,,,,,,,,,5df14bb169a117069e70b11d,6036d829c86f840bc7dbe8ae,2021-02-24_22h53.07.543,Colour_Similarity_Experiment,2020.2.10,Win32,60,6036d0d9a84aa1626184a6ef,14.04357868,14.54420487,16.66758221,16.68217641,16.68515678,16.14478007,,,,,,,,,,,,,,,,,,,,PF,strong,3,,,,,,,,6,3.08438,,,,,,,,,,,,,,,,,,,,,,,,,,,,1,strong,71.20001251,39.99999416,1,0,0,response1disk,8,166,2.40001148,7.999993682,1,0,0,rectangle,2.40001148,7.999993682,1,0,0,,6,3,0,0.001925,2.40001148,7.999993682,1,0,0,,0,3,3,27,1,,,,,,,,,,,,,,,,,,,
