key_resp.keys,key_resp.rt,key_resp_16.keys,key_resp_16.rt,key_resp_2.keys,key_resp_2.rt,X Scale,ratio_pxpermm,screen_size_x,screen_size_y,testsize,key_resp_3.keys,key_resp_4.keys,key_resp_4.rt,line_size,key_resp_5.keys,key_resp_5.rt,key_resp_6.keys,key_resp_6.rt,key_resp_8.keys,key_resp_8.rt,key_resp_7.keys,key_resp_7.rt,key_resp_12.keys,key_resp_12.rt,key_resp_11.keys,key_resp_11.rt,key_resp_18.keys,key_resp_18.rt,key_resp_21.keys,key_resp_21.rt,key_resp_13.keys,key_resp_13.rt,key_resp_19.keys,key_resp_19.rt,ballposx,viewer_distance,trials.thisRepN,trials.thisTrialN,trials.thisN,trials.thisIndex,trials.ran,participant,session,date,expName,psychopyVersion,OS,frameRate,study_id,realFrameRate1,realFrameRate2,realFrameRate3,realFrameRate4,realFrameRate5,realFrameRate,viewerdistancecm,DVA_to_distance,radius_F,radius_P,r_F,R_P,key_resp_20.keys,key_resp_20.rt,key_resp_14.keys,key_resp_14.rt,key_resp_15.keys,key_resp_15.rt,key_resp_17.keys,key_resp_17.rt,key_resp_9.keys,key_resp_9.rt,key_resp_10.keys,key_resp_10.rt,Colour_1,Ecc,maskCon,mask_frames,mouse_5.x,mouse_5.y,mouse_5.leftButton,mouse_5.midButton,mouse_5.rightButton,mouse_5.clicked_name,Colour_2,similarity,response_time,mouse_10.x,mouse_10.y,mouse_10.leftButton,mouse_10.midButton,mouse_10.rightButton,mouse_10.clicked_name,mouse_7.x,mouse_7.y,mouse_7.leftButton,mouse_7.midButton,mouse_7.rightButton,catchnumberprac,mouse_6.x,mouse_6.y,mouse_6.leftButton,mouse_6.midButton,mouse_6.rightButton,duringprac.thisRepN,duringprac.thisTrialN,duringprac.thisN,duringprac.thisIndex,duringprac.ran,mouse_7.clicked_name,mouse_6.clicked_name,key_resp_22.keys,key_resp_22.rt,Colour1,maskCon1,mouse.x,mouse.y,mouse.leftButton,mouse.midButton,mouse.rightButton,mouse.clicked_name,Colour2,trialnumber,mouse_2.x,mouse_2.y,mouse_2.leftButton,mouse_2.midButton,mouse_2.rightButton,mouse_2.clicked_name,mouse_3.x,mouse_3.y,mouse_3.leftButton,mouse_3.midButton,mouse_3.rightButton,mouse_3.clicked_name,catchresponse,catchnumber,Catch,response_time_catch,mouse_11.x,mouse_11.y,mouse_11.leftButton,mouse_11.midButton,mouse_11.rightButton,mouse_11.clicked_name,trials_2.thisRepN,trials_2.thisTrialN,trials_2.thisN,trials_2.thisIndex,trials_2.ran,trials_3.thisRepN,trials_3.thisTrialN,trials_3.thisN,trials_3.thisIndex,trials_3.ran,answer1,rt1,answer2,rt2,answer3,rt3,answer4,rt4,answer5,rt5,answer6,rt6,answer7,rt7
space,1.623,space,8.637,space,4.73,51.5,5.15,248.5436893,155.3398058,1280,,space,9.43,103,space,12.325,space,1.519,space,0.019,space,3.298,space,6.148,space,6.081,space,8.704,space,9.97,space,1.284,return,5.798,-180.48,560.0753117,0,0,0,0,1,5e3f0bbe9907e915e0179f44,6036d8b4aeeccd86578d424e,2021-02-24_22h55.45.624,Colour_Similarity_Experiment,2020.2.10,MacIntel,60,6036d0d9a84aa1626184a6ef,19.23684211,17.2281746,17.5703125,18.17241379,18.2519084,17.80570232,,,,,,,,,,,,,,,,,,,,,,,,,,,,,,,,,,,,,,,,,,,,,,,,,,,,,,,,,,,,,,,,,,,,,,,,,,,,,,,,,,,,,,,,,,,,,,,,,,,,,,,,,,,,,,,,,
,,,,,,,,,,,,,,,,,,,,,,,,,,,,,,,,,return,5.839,-180.48,560.0753117,1,0,1,0,1,5e3f0bbe9907e915e0179f44,6036d8b4aeeccd86578d424e,2021-02-24_22h55.45.624,Colour_Similarity_Experiment,2020.2.10,MacIntel,60,6036d0d9a84aa1626184a6ef,19.23684211,17.2281746,17.5703125,18.17241379,18.2519084,17.80570232,,,,,,,,,,,,,,,,,,,,,,,,,,,,,,,,,,,,,,,,,,,,,,,,,,,,,,,,,,,,,,,,,,,,,,,,,,,,,,,,,,,,,,,,,,,,,,,,,,,,,,,,,,,,,,,,,
,,,,,,,,,,,,,,,,,,,,,,,,,,,,,,,,,return,6.051,-199.68,575.6042021,2,0,2,0,1,5e3f0bbe9907e915e0179f44,6036d8b4aeeccd86578d424e,2021-02-24_22h55.45.624,Colour_Similarity_Experiment,2020.2.10,MacIntel,60,6036d0d9a84aa1626184a6ef,19.23684211,17.2281746,17.5703125,18.17241379,18.2519084,17.80570232,,,,,,,,,,,,,,,,,,,,,,,,,,,,,,,,,,,,,,,,,,,,,,,,,,,,,,,,,,,,,,,,,,,,,,,,,,,,,,,,,,,,,,,,,,,,,,,,,,,,,,,,,,,,,,,,,
,,,,,,,,,,,,,,,,,,,,,,,,,,,,,,,,,return,6.214,-218.88,591.1330924,3,0,3,0,1,5e3f0bbe9907e915e0179f44,6036d8b4aeeccd86578d424e,2021-02-24_22h55.45.624,Colour_Similarity_Experiment,2020.2.10,MacIntel,60,6036d0d9a84aa1626184a6ef,19.23684211,17.2281746,17.5703125,18.17241379,18.2519084,17.80570232,,,,,,,,,,,,,,,,,,,,,,,,,,,,,,,,,,,,,,,,,,,,,,,,,,,,,,,,,,,,,,,,,,,,,,,,,,,,,,,,,,,,,,,,,,,,,,,,,,,,,,,,,,,,,,,,,
,,,,,,,,,,,,,,,,,,,,,,,,,,,,,,,,,return,6.348,-232.32,602.0033156,4,0,4,0,1,5e3f0bbe9907e915e0179f44,6036d8b4aeeccd86578d424e,2021-02-24_22h55.45.624,Colour_Similarity_Experiment,2020.2.10,MacIntel,60,6036d0d9a84aa1626184a6ef,19.23684211,17.2281746,17.5703125,18.17241379,18.2519084,17.80570232,,,,,,,,,,,,,,,,,,,,,,,,,,,,,,,,,,,,,,,,,,,,,,,,,,,,,,,,,,,,,,,,,,,,,,,,,,,,,,,,,,,,,,,,,,,,,,,,,,,,,,,,,,,,,,,,,
,,,,,,,,,,,,,,,,,,,,,,,,,,,,,,,,,,,,,,,,,,5e3f0bbe9907e915e0179f44,6036d8b4aeeccd86578d424e,2021-02-24_22h55.45.624,Colour_Similarity_Experiment,2020.2.10,MacIntel,60,6036d0d9a84aa1626184a6ef,19.23684211,17.2281746,17.5703125,18.17241379,18.2519084,17.80570232,58,10.12393404,78.20739044,521.3826029,52.13826029,234.6221713,space,4.43,space,14.983,space,14.883,space,12.634,space,1.037,space,4.384,5,PF,weak,3,-34,98,1,0,0,response7disk_5,2,0,5.596,-4,-2,1,0,0,rectangle_8,-4,-2,1,0,0,2,-4,-2,1,0,0,0,0,0,5,1,,,,,,,,,,,,,,,,,,,,,,,,,,,,,,,,,,,,,,,,,,,,,,,,,,,,,,,,,,,,
,,,,,,,,,,,,,,,,,,,,,,,,,,,,,,,,,,,,,,,,,,5e3f0bbe9907e915e0179f44,6036d8b4aeeccd86578d424e,2021-02-24_22h55.45.624,Colour_Similarity_Experiment,2020.2.10,MacIntel,60,6036d0d9a84aa1626184a6ef,19.23684211,17.2281746,17.5703125,18.17241379,18.2519084,17.80570232,,,,,,,,,,,,,,,,,,,2,PF,weak,3,101,36,1,0,0,response1disk_5,4,6,2.89,-5,-3,1,0,0,rectangle_8,-5,-3,1,0,0,2,-5,-3,1,0,0,0,1,1,1,1,,,,,,,,,,,,,,,,,,,,,,,,,,,,,,,,,,,,,,,,,,,,,,,,,,,,,,,,,,,,
,,,,,,,,,,,,,,,,,,,,,,,,,,,,,,,,,,,,,,,,,,5e3f0bbe9907e915e0179f44,6036d8b4aeeccd86578d424e,2021-02-24_22h55.45.624,Colour_Similarity_Experiment,2020.2.10,MacIntel,60,6036d0d9a84aa1626184a6ef,19.23684211,17.2281746,17.5703125,18.17241379,18.2519084,17.80570232,,,,,,,,,,,,,,,,,,,3,PF,weak,3,78,-38,1,0,0,response3disk_5,6,5,2.973,-4,-1,1,0,0,rectangle_8,-4,-1,1,0,0,2,-4,-1,1,0,0,0,2,2,6,1,,,,,,,,,,,,,,,,,,,,,,,,,,,,,,,,,,,,,,,,,,,,,,,,,,,,,,,,,,,,
,,,,,,,,,,,,,,,,,,,,,,,,,,,,,,,,,,,,,,,,,,5e3f0bbe9907e915e0179f44,6036d8b4aeeccd86578d424e,2021-02-24_22h55.45.624,Colour_Similarity_Experiment,2020.2.10,MacIntel,60,6036d0d9a84aa1626184a6ef,19.23684211,17.2281746,17.5703125,18.17241379,18.2519084,17.80570232,,,,,,,,,,,,,,,,,,,7,PF,strong,3,-38,-71,1,0,0,response5disk_5,8,3,2.221,7,4,1,0,0,rectangle_8,7,4,1,0,0,2,7,4,1,0,0,0,3,3,2,1,,,,,,,,,,,,,,,,,,,,,,,,,,,,,,,,,,,,,,,,,,,,,,,,,,,,,,,,,,,,
,,,,,,,,,,,,,,,,,,,,,,,,,,,,,,,,,,,,,,,,,,5e3f0bbe9907e915e0179f44,6036d8b4aeeccd86578d424e,2021-02-24_22h55.45.624,Colour_Similarity_Experiment,2020.2.10,MacIntel,60,6036d0d9a84aa1626184a6ef,19.23684211,17.2281746,17.5703125,18.17241379,18.2519084,17.80570232,,,,,,,,,,,,,,,,,,,7,PF,weak,3,-60,-71,1,0,0,response5disk_5,5,3,2.797,-4,3,1,0,0,rectangle_8,-87,-32,1,0,0,2,13,1,1,0,0,0,4,4,4,1,response5disk_7,rectangle_4,,,,,,,,,,,,,,,,,,,,,,,,,,,,,,,,,,,,,,,,,,,,,,,,,,,,,,,,,,
,,,,,,,,,,,,,,,,,,,,,,,,,,,,,,,,,,,,,,,,,,5e3f0bbe9907e915e0179f44,6036d8b4aeeccd86578d424e,2021-02-24_22h55.45.624,Colour_Similarity_Experiment,2020.2.10,MacIntel,60,6036d0d9a84aa1626184a6ef,19.23684211,17.2281746,17.5703125,18.17241379,18.2519084,17.80570232,,,,,,,,,,,,,,,,,,,8,PF,strong,3,82,46,1,0,0,response1disk_5,4,6,2.806,3,1,1,0,0,rectangle_8,3,1,1,0,0,2,3,1,1,0,0,0,5,5,3,1,,,,,,,,,,,,,,,,,,,,,,,,,,,,,,,,,,,,,,,,,,,,,,,,,,,,,,,,,,,,
,,,,,,,,,,,,,,,,,,,,,,,,,,,,,,,,,,,,,,,,,,5e3f0bbe9907e915e0179f44,6036d8b4aeeccd86578d424e,2021-02-24_22h55.45.624,Colour_Similarity_Experiment,2020.2.10,MacIntel,60,6036d0d9a84aa1626184a6ef,19.23684211,17.2281746,17.5703125,18.17241379,18.2519084,17.80570232,,,,,,,,,,,,,,,,,,,1,PF,strong,3,-58,-22,1,0,0,response5disk_5,9,2,1.538,-9,-3,1,0,0,rectangle_8,-9,-3,1,0,0,2,-9,-3,1,0,0,0,6,6,0,1,,,,,,,,,,,,,,,,,,,,,,,,,,,,,,,,,,,,,,,,,,,,,,,,,,,,,,,,,,,,
,,,,,,,,,,,,,,,,,,,,,,,,,,,,,,,,,,,,,,,,,,5e3f0bbe9907e915e0179f44,6036d8b4aeeccd86578d424e,2021-02-24_22h55.45.624,Colour_Similarity_Experiment,2020.2.10,MacIntel,60,6036d0d9a84aa1626184a6ef,19.23684211,17.2281746,17.5703125,18.17241379,18.2519084,17.80570232,,,,,,,,,,,,,,,,,,,,PF,weak,3,,,,,,,,3,5.127,,,,,,,,,,,,,,,,,,,,,,,,,space,45.116,3,weak,-42,-97,1,0,0,response5disk,2,1,-7,4,1,0,0,rectangle,86,-43,1,0,0,response3disk_3,5,5,1,3.426,3,2,1,0,0,rectangle,0,0,0,36,1,,,,,,,,,,,,,,,,,,,
,,,,,,,,,,,,,,,,,,,,,,,,,,,,,,,,,,,,,,,,,,5e3f0bbe9907e915e0179f44,6036d8b4aeeccd86578d424e,2021-02-24_22h55.45.624,Colour_Similarity_Experiment,2020.2.10,MacIntel,60,6036d0d9a84aa1626184a6ef,19.23684211,17.2281746,17.5703125,18.17241379,18.2519084,17.80570232,,,,,,,,,,,,,,,,,,,,PF,strong,3,,,,,,,,7,2.522,,,,,,,,,,,,,,,,,,,,,,,,,,,7,strong,56,80,1,0,0,response1disk,1,2,6,-8,1,0,0,rectangle,6,-8,1,0,0,,5,4,0,0.002,6,-8,1,0,0,,0,1,1,132,1,,,,,,,,,,,,,,,,,,,
,,,,,,,,,,,,,,,,,,,,,,,,,,,,,,,,,,,,,,,,,,5e3f0bbe9907e915e0179f44,6036d8b4aeeccd86578d424e,2021-02-24_22h55.45.624,Colour_Similarity_Experiment,2020.2.10,MacIntel,60,6036d0d9a84aa1626184a6ef,19.23684211,17.2281746,17.5703125,18.17241379,18.2519084,17.80570232,,,,,,,,,,,,,,,,,,,,PF,strong,3,,,,,,,,1,2.539,,,,,,,,,,,,,,,,,,,,,,,,,,,9,strong,-69,39,1,0,0,response7disk,9,3,2,-6,1,0,0,rectangle,2,-6,1,0,0,,5,2,0,0.001,2,-6,1,0,0,,0,2,2,17,1,,,,,,,,,,,,,,,,,,,
,,,,,,,,,,,,,,,,,,,,,,,,,,,,,,,,,,,,,,,,,,5e3f0bbe9907e915e0179f44,6036d8b4aeeccd86578d424e,2021-02-24_22h55.45.624,Colour_Similarity_Experiment,2020.2.10,MacIntel,60,6036d0d9a84aa1626184a6ef,19.23684211,17.2281746,17.5703125,18.17241379,18.2519084,17.80570232,,,,,,,,,,,,,,,,,,,,PF,weak,3,,,,,,,,7,1.854,,,,,,,,,,,,,,,,,,,,,,,,,,,8,weak,35,69,1,0,0,response1disk,2,4,1,-1,1,0,0,rectangle,1,-1,1,0,0,,5,5,0,0.001,1,-1,1,0,0,,0,3,3,83,1,,,,,,,,,,,,,,,,,,,
,,,,,,,,,,,,,,,,,,,,,,,,,,,,,,,,,,,,,,,,,,5e3f0bbe9907e915e0179f44,6036d8b4aeeccd86578d424e,2021-02-24_22h55.45.624,Colour_Similarity_Experiment,2020.2.10,MacIntel,60,6036d0d9a84aa1626184a6ef,19.23684211,17.2281746,17.5703125,18.17241379,18.2519084,17.80570232,,,,,,,,,,,,,,,,,,,,PF,weak,3,,,,,,,,7,1.252,,,,,,,,,,,,,,,,,,,,,,,,,,,9,weak,44,76,1,0,0,response1disk,7,5,3,0,1,0,0,rectangle,3,0,1,0,0,,5,5,0,0,3,0,1,0,0,,0,4,4,121,1,,,,,,,,,,,,,,,,,,,
,,,,,,,,,,,,,,,,,,,,,,,,,,,,,,,,,,,,,,,,,,5e3f0bbe9907e915e0179f44,6036d8b4aeeccd86578d424e,2021-02-24_22h55.45.624,Colour_Similarity_Experiment,2020.2.10,MacIntel,60,6036d0d9a84aa1626184a6ef,19.23684211,17.2281746,17.5703125,18.17241379,18.2519084,17.80570232,,,,,,,,,,,,,,,,,,,,PF,weak,3,,,,,,,,5,1.988,,,,,,,,,,,,,,,,,,,,,,,,,,,6,weak,73,-34,1,0,0,response3disk,3,6,-1,-7,1,0,0,rectangle,-1,-7,1,0,0,,5,4,0,0.002,-1,-7,1,0,0,,0,5,5,26,1,,,,,,,,,,,,,,,,,,,
,,,,,,,,,,,,,,,,,,,,,,,,,,,,,,,,,,,,,,,,,,5e3f0bbe9907e915e0179f44,6036d8b4aeeccd86578d424e,2021-02-24_22h55.45.624,Colour_Similarity_Experiment,2020.2.10,MacIntel,60,6036d0d9a84aa1626184a6ef,19.23684211,17.2281746,17.5703125,18.17241379,18.2519084,17.80570232,,,,,,,,,,,,,,,,,,,,PF,weak,3,,,,,,,,0,1.071,,,,,,,,,,,,,,,,,,,,,,,,,,,7,weak,-38,65,1,0,0,response7disk,7,7,13,14,1,0,0,rectangle,13,14,1,0,0,,5,0,0,0.002,13,14,1,0,0,,0,6,6,51,1,,,,,,,,,,,,,,,,,,,
,,,,,,,,,,,,,,,,,,,,,,,,,,,,,,,,,,,,,,,,,,5e3f0bbe9907e915e0179f44,6036d8b4aeeccd86578d424e,2021-02-24_22h55.45.624,Colour_Similarity_Experiment,2020.2.10,MacIntel,60,6036d0d9a84aa1626184a6ef,19.23684211,17.2281746,17.5703125,18.17241379,18.2519084,17.80570232,,,,,,,,,,,,,,,,,,,,PF,weak,3,,,,,,,,3,1.736,,,,,,,,,,,,,,,,,,,,,,,,,,,1,weak,-35,-65,1,0,0,response5disk,9,8,-3,-12,1,0,0,rectangle,-3,-12,1,0,0,,5,2,0,0.001,-3,-12,1,0,0,,0,7,7,15,1,,,,,,,,,,,,,,,,,,,
,,,,,,,,,,,,,,,,,,,,,,,,,,,,,,,,,,,,,,,,,,5e3f0bbe9907e915e0179f44,6036d8b4aeeccd86578d424e,2021-02-24_22h55.45.624,Colour_Similarity_Experiment,2020.2.10,MacIntel,60,6036d0d9a84aa1626184a6ef,19.23684211,17.2281746,17.5703125,18.17241379,18.2519084,17.80570232,,,,,,,,,,,,,,,,,,,,PF,strong,3,,,,,,,,4,1.737,,,,,,,,,,,,,,,,,,,,,,,,,,,2,strong,42,-74,1,0,0,response3disk,1,9,5,-11,1,0,0,rectangle,5,-11,1,0,0,,5,1,0,0.002,5,-11,1,0,0,,0,8,8,85,1,,,,,,,,,,,,,,,,,,,
,,,,,,,,,,,,,,,,,,,,,,,,,,,,,,,,,,,,,,,,,,5e3f0bbe9907e915e0179f44,6036d8b4aeeccd86578d424e,2021-02-24_22h55.45.624,Colour_Similarity_Experiment,2020.2.10,MacIntel,60,6036d0d9a84aa1626184a6ef,19.23684211,17.2281746,17.5703125,18.17241379,18.2519084,17.80570232,,,,,,,,,,,,,,,,,,,,PF,strong,3,,,,,,,,1,1.253,,,,,,,,,,,,,,,,,,,,,,,,,,,3,strong,-75,38,1,0,0,response7disk,3,10,-6,4,1,0,0,rectangle,-6,4,1,0,0,,5,7,0,0.001,-6,4,1,0,0,,0,9,9,68,1,,,,,,,,,,,,,,,,,,,
,,,,,,,,,,,,,,,,,,,,,,,,,,,,,,,,,,,,,,,,,,5e3f0bbe9907e915e0179f44,6036d8b4aeeccd86578d424e,2021-02-24_22h55.45.624,Colour_Similarity_Experiment,2020.2.10,MacIntel,60,6036d0d9a84aa1626184a6ef,19.23684211,17.2281746,17.5703125,18.17241379,18.2519084,17.80570232,,,,,,,,,,,,,,,,,,,,PF,weak,3,,,,,,,,7,1.502,,,,,,,,,,,,,,,,,,,,,,,,,,,1,weak,48,83,1,0,0,response1disk,6,11,10,-15,1,0,0,rectangle,10,-15,1,0,0,,5,1,0,0.002,10,-15,1,0,0,,0,10,10,144,1,,,,,,,,,,,,,,,,,,,
,,,,,,,,,,,,,,,,,,,,,,,,,,,,,,,,,,,,,,,,,,5e3f0bbe9907e915e0179f44,6036d8b4aeeccd86578d424e,2021-02-24_22h55.45.624,Colour_Similarity_Experiment,2020.2.10,MacIntel,60,6036d0d9a84aa1626184a6ef,19.23684211,17.2281746,17.5703125,18.17241379,18.2519084,17.80570232,,,,,,,,,,,,,,,,,,,,PF,weak,3,,,,,,,,6,2.672,,,,,,,,,,,,,,,,,,,,,,,,,,,1,weak,66,37,1,0,0,response1disk,4,12,19,1,1,0,0,rectangle,19,1,1,0,0,,5,5,0,0.002,19,1,1,0,0,,0,11,11,139,1,,,,,,,,,,,,,,,,,,,
,,,,,,,,,,,,,,,,,,,,,,,,,,,,,,,,,,,,,,,,,,5e3f0bbe9907e915e0179f44,6036d8b4aeeccd86578d424e,2021-02-24_22h55.45.624,Colour_Similarity_Experiment,2020.2.10,MacIntel,60,6036d0d9a84aa1626184a6ef,19.23684211,17.2281746,17.5703125,18.17241379,18.2519084,17.80570232,,,,,,,,,,,,,,,,,,,,PF,strong,3,,,,,,,,5,1.67,,,,,,,,,,,,,,,,,,,,,,,,,,,5,strong,78,-38,1,0,0,response3disk,6,13,17,-6,1,0,0,rectangle,17,-6,1,0,0,,5,4,0,0.002,17,-6,1,0,0,,0,12,12,12,1,,,,,,,,,,,,,,,,,,,
,,,,,,,,,,,,,,,,,,,,,,,,,,,,,,,,,,,,,,,,,,5e3f0bbe9907e915e0179f44,6036d8b4aeeccd86578d424e,2021-02-24_22h55.45.624,Colour_Similarity_Experiment,2020.2.10,MacIntel,60,6036d0d9a84aa1626184a6ef,19.23684211,17.2281746,17.5703125,18.17241379,18.2519084,17.80570232,,,,,,,,,,,,,,,,,,,,PF,weak,3,,,,,,,,1,1.431,,,,,,,,,,,,,,,,,,,,,,,,,,,8,weak,-75,38,1,0,0,response7disk,8,14,-9,8,1,0,0,rectangle,-9,8,1,0,0,,5,5,0,0.002,-9,8,1,0,0,,0,13,13,153,1,,,,,,,,,,,,,,,,,,,
,,,,,,,,,,,,,,,,,,,,,,,,,,,,,,,,,,,,,,,,,,5e3f0bbe9907e915e0179f44,6036d8b4aeeccd86578d424e,2021-02-24_22h55.45.624,Colour_Similarity_Experiment,2020.2.10,MacIntel,60,6036d0d9a84aa1626184a6ef,19.23684211,17.2281746,17.5703125,18.17241379,18.2519084,17.80570232,,,,,,,,,,,,,,,,,,,,PF,strong,3,,,,,,,,6,1.637,,,,,,,,,,,,,,,,,,,,,,,,,,,2,strong,78,42,1,0,0,response1disk,4,15,15,-5,1,0,0,rectangle,15,-5,1,0,0,,5,4,0,0.001,15,-5,1,0,0,,0,14,14,145,1,,,,,,,,,,,,,,,,,,,
,,,,,,,,,,,,,,,,,,,,,,,,,,,,,,,,,,,,,,,,,,5e3f0bbe9907e915e0179f44,6036d8b4aeeccd86578d424e,2021-02-24_22h55.45.624,Colour_Similarity_Experiment,2020.2.10,MacIntel,60,6036d0d9a84aa1626184a6ef,19.23684211,17.2281746,17.5703125,18.17241379,18.2519084,17.80570232,,,,,,,,,,,,,,,,,,,,PF,strong,3,,,,,,,,6,1.235,,,,,,,,,,,,,,,,,,,,,,,,,,,3,strong,69,33,1,0,0,response1disk,2,16,10,-16,1,0,0,rectangle,10,-16,1,0,0,,5,2,0,0.003,10,-16,1,0,0,,0,15,15,93,1,,,,,,,,,,,,,,,,,,,
,,,,,,,,,,,,,,,,,,,,,,,,,,,,,,,,,,,,,,,,,,5e3f0bbe9907e915e0179f44,6036d8b4aeeccd86578d424e,2021-02-24_22h55.45.624,Colour_Similarity_Experiment,2020.2.10,MacIntel,60,6036d0d9a84aa1626184a6ef,19.23684211,17.2281746,17.5703125,18.17241379,18.2519084,17.80570232,,,,,,,,,,,,,,,,,,,,PF,strong,3,,,,,,,,5,1.722,,,,,,,,,,,,,,,,,,,,,,,,,,,6,strong,78,-25,1,0,0,response3disk,3,17,3,4,1,0,0,rectangle,3,4,1,0,0,,5,6,0,0.002,3,4,1,0,0,,0,16,16,21,1,,,,,,,,,,,,,,,,,,,
,,,,,,,,,,,,,,,,,,,,,,,,,,,,,,,,,,,,,,,,,,5e3f0bbe9907e915e0179f44,6036d8b4aeeccd86578d424e,2021-02-24_22h55.45.624,Colour_Similarity_Experiment,2020.2.10,MacIntel,60,6036d0d9a84aa1626184a6ef,19.23684211,17.2281746,17.5703125,18.17241379,18.2519084,17.80570232,,,,,,,,,,,,,,,,,,,,PF,strong,3,,,,,,,,7,1.219,,,,,,,,,,,,,,,,,,,,,,,,,,,6,strong,28,74,1,0,0,response1disk,1,18,17,-4,1,0,0,rectangle,17,-4,1,0,0,,5,6,0,0.001,17,-4,1,0,0,,0,17,17,5,1,,,,,,,,,,,,,,,,,,,
,,,,,,,,,,,,,,,,,,,,,,,,,,,,,,,,,,,,,,,,,,5e3f0bbe9907e915e0179f44,6036d8b4aeeccd86578d424e,2021-02-24_22h55.45.624,Colour_Similarity_Experiment,2020.2.10,MacIntel,60,6036d0d9a84aa1626184a6ef,19.23684211,17.2281746,17.5703125,18.17241379,18.2519084,17.80570232,,,,,,,,,,,,,,,,,,,,PF,weak,3,,,,,,,,7,1.201,,,,,,,,,,,,,,,,,,,,,,,,,,,8,weak,41,89,1,0,0,response1disk,4,19,7,3,1,0,0,rectangle,7,3,1,0,0,,5,7,0,0.001,7,3,1,0,0,,0,18,18,78,1,,,,,,,,,,,,,,,,,,,
,,,,,,,,,,,,,,,,,,,,,,,,,,,,,,,,,,,,,,,,,,5e3f0bbe9907e915e0179f44,6036d8b4aeeccd86578d424e,2021-02-24_22h55.45.624,Colour_Similarity_Experiment,2020.2.10,MacIntel,60,6036d0d9a84aa1626184a6ef,19.23684211,17.2281746,17.5703125,18.17241379,18.2519084,17.80570232,,,,,,,,,,,,,,,,,,,,PF,strong,3,,,,,,,,1,1.235,,,,,,,,,,,,,,,,,,,,,,,,,,,2,strong,-62,47,1,0,0,response7disk,2,20,2,-13,1,0,0,rectangle,2,-13,1,0,0,,5,5,0,0.001,2,-13,1,0,0,,0,19,19,142,1,,,,,,,,,,,,,,,,,,,
,,,,,,,,,,,,,,,,,,,,,,,,,,,,,,,,,,,,,,,,,,5e3f0bbe9907e915e0179f44,6036d8b4aeeccd86578d424e,2021-02-24_22h55.45.624,Colour_Similarity_Experiment,2020.2.10,MacIntel,60,6036d0d9a84aa1626184a6ef,19.23684211,17.2281746,17.5703125,18.17241379,18.2519084,17.80570232,,,,,,,,,,,,,,,,,,,,PF,weak,3,,,,,,,,3,2.071,,,,,,,,,,,,,,,,,,,,,,,,,,,7,weak,-30,-74,1,0,0,response5disk,5,21,-8,9,1,0,0,rectangle,-8,9,1,0,0,,5,1,0,0.001,-8,9,1,0,0,,0,20,20,92,1,,,,,,,,,,,,,,,,,,,
,,,,,,,,,,,,,,,,,,,,,,,,,,,,,,,,,,,,,,,,,,5e3f0bbe9907e915e0179f44,6036d8b4aeeccd86578d424e,2021-02-24_22h55.45.624,Colour_Similarity_Experiment,2020.2.10,MacIntel,60,6036d0d9a84aa1626184a6ef,19.23684211,17.2281746,17.5703125,18.17241379,18.2519084,17.80570232,,,,,,,,,,,,,,,,,,,,PF,weak,3,,,,,,,,3,1.239,,,,,,,,,,,,,,,,,,,,,,,,,,,6,weak,-36,-51,1,0,0,response5disk,5,22,-7,3,1,0,0,rectangle,-7,3,1,0,0,,5,7,0,0.001,-7,3,1,0,0,,0,21,21,59,1,,,,,,,,,,,,,,,,,,,
,,,,,,,,,,,,,,,,,,,,,,,,,,,,,,,,,,,,,,,,,,5e3f0bbe9907e915e0179f44,6036d8b4aeeccd86578d424e,2021-02-24_22h55.45.624,Colour_Similarity_Experiment,2020.2.10,MacIntel,60,6036d0d9a84aa1626184a6ef,19.23684211,17.2281746,17.5703125,18.17241379,18.2519084,17.80570232,,,,,,,,,,,,,,,,,,,,PF,weak,3,,,,,,,,5,1.549,,,,,,,,,,,,,,,,,,,,,,,,,,,4,weak,85,-32,1,0,0,response3disk,2,23,-5,-1,1,0,0,rectangle,-5,-1,1,0,0,,5,4,0,0.002,-5,-1,1,0,0,,0,22,22,108,1,,,,,,,,,,,,,,,,,,,
,,,,,,,,,,,,,,,,,,,,,,,,,,,,,,,,,,,,,,,,,,5e3f0bbe9907e915e0179f44,6036d8b4aeeccd86578d424e,2021-02-24_22h55.45.624,Colour_Similarity_Experiment,2020.2.10,MacIntel,60,6036d0d9a84aa1626184a6ef,19.23684211,17.2281746,17.5703125,18.17241379,18.2519084,17.80570232,,,,,,,,,,,,,,,,,,,,PF,weak,3,,,,,,,,7,1.184,,,,,,,,,,,,,,,,,,,,,,,,,,,4,weak,39,70,1,0,0,response1disk,8,24,2,-1,1,0,0,rectangle,2,-1,1,0,0,,5,0,0,0,2,-1,1,0,0,,0,23,23,124,1,,,,,,,,,,,,,,,,,,,
,,,,,,,,,,,,,,,,,,,,,,,,,,,,,,,,,,,,,,,,,,5e3f0bbe9907e915e0179f44,6036d8b4aeeccd86578d424e,2021-02-24_22h55.45.624,Colour_Similarity_Experiment,2020.2.10,MacIntel,60,6036d0d9a84aa1626184a6ef,19.23684211,17.2281746,17.5703125,18.17241379,18.2519084,17.80570232,,,,,,,,,,,,,,,,,,,,PF,strong,3,,,,,,,,7,1.234,,,,,,,,,,,,,,,,,,,,,,,,,,,6,strong,34,72,1,0,0,response1disk,2,25,2,-1,1,0,0,rectangle,2,-1,1,0,0,,5,6,0,0.001,2,-1,1,0,0,,0,24,24,112,1,,,,,,,,,,,,,,,,,,,
,,,,,,,,,,,,,,,,,,,,,,,,,,,,,,,,,,,,,,,,,,5e3f0bbe9907e915e0179f44,6036d8b4aeeccd86578d424e,2021-02-24_22h55.45.624,Colour_Similarity_Experiment,2020.2.10,MacIntel,60,6036d0d9a84aa1626184a6ef,19.23684211,17.2281746,17.5703125,18.17241379,18.2519084,17.80570232,,,,,,,,,,,,,,,,,,,,PF,strong,3,,,,,,,,7,1.169,,,,,,,,,,,,,,,,,,,,,,,,,,,7,strong,30,88,1,0,0,response1disk,3,26,-3,-1,1,0,0,rectangle,-3,-1,1,0,0,,5,6,0,0.001,-3,-1,1,0,0,,0,25,25,73,1,,,,,,,,,,,,,,,,,,,
,,,,,,,,,,,,,,,,,,,,,,,,,,,,,,,,,,,,,,,,,,5e3f0bbe9907e915e0179f44,6036d8b4aeeccd86578d424e,2021-02-24_22h55.45.624,Colour_Similarity_Experiment,2020.2.10,MacIntel,60,6036d0d9a84aa1626184a6ef,19.23684211,17.2281746,17.5703125,18.17241379,18.2519084,17.80570232,,,,,,,,,,,,,,,,,,,,PF,weak,3,,,,,,,,7,2.255,,,,,,,,,,,,,,,,,,,,,,,,,,,4,weak,50,80,1,0,0,response1disk,6,27,8,-9,1,0,0,rectangle,8,-9,1,0,0,,5,3,0,0.001,8,-9,1,0,0,,0,26,26,120,1,,,,,,,,,,,,,,,,,,,
,,,,,,,,,,,,,,,,,,,,,,,,,,,,,,,,,,,,,,,,,,5e3f0bbe9907e915e0179f44,6036d8b4aeeccd86578d424e,2021-02-24_22h55.45.624,Colour_Similarity_Experiment,2020.2.10,MacIntel,60,6036d0d9a84aa1626184a6ef,19.23684211,17.2281746,17.5703125,18.17241379,18.2519084,17.80570232,,,,,,,,,,,,,,,,,,,,PF,weak,3,,,,,,,,2,1.839,,,,,,,,,,,,,,,,,,,,,,,,,,,8,weak,-67,-25,1,0,0,response5disk,7,28,6,2,1,0,0,rectangle,6,2,1,0,0,,5,0,0,0.001,6,2,1,0,0,,0,27,27,23,1,,,,,,,,,,,,,,,,,,,
,,,,,,,,,,,,,,,,,,,,,,,,,,,,,,,,,,,,,,,,,,5e3f0bbe9907e915e0179f44,6036d8b4aeeccd86578d424e,2021-02-24_22h55.45.624,Colour_Similarity_Experiment,2020.2.10,MacIntel,60,6036d0d9a84aa1626184a6ef,19.23684211,17.2281746,17.5703125,18.17241379,18.2519084,17.80570232,,,,,,,,,,,,,,,,,,,,PF,weak,3,,,,,,,,7,1.087,,,,,,,,,,,,,,,,,,,,,,,,,,,4,weak,34,80,1,0,0,response1disk,7,29,-11,4,1,0,0,rectangle,-11,4,1,0,0,,5,0,0,0,-11,4,1,0,0,,0,28,28,38,1,,,,,,,,,,,,,,,,,,,
,,,,,,,,,,,,,,,,,,,,,,,,,,,,,,,,,,,,,,,,,,5e3f0bbe9907e915e0179f44,6036d8b4aeeccd86578d424e,2021-02-24_22h55.45.624,Colour_Similarity_Experiment,2020.2.10,MacIntel,60,6036d0d9a84aa1626184a6ef,19.23684211,17.2281746,17.5703125,18.17241379,18.2519084,17.80570232,,,,,,,,,,,,,,,,,,,,PF,strong,3,,,,,,,,7,3.758,,,,,,,,,,,,,,,,,,,,,,,,,,,2,strong,42,81,1,0,0,response1disk,7,30,-19,2,1,0,0,rectangle,-19,2,1,0,0,,5,7,0,0,-19,2,1,0,0,,0,29,29,63,1,,,,,,,,,,,,,,,,,,,
,,,,,,,,,,,,,,,,,,,,,,,,,,,,,,,,,,,,,,,,,,5e3f0bbe9907e915e0179f44,6036d8b4aeeccd86578d424e,2021-02-24_22h55.45.624,Colour_Similarity_Experiment,2020.2.10,MacIntel,60,6036d0d9a84aa1626184a6ef,19.23684211,17.2281746,17.5703125,18.17241379,18.2519084,17.80570232,,,,,,,,,,,,,,,,,,,,PF,weak,3,,,,,,,,3,2.306,,,,,,,,,,,,,,,,,,,,,,,,,,,5,weak,-43,-66,1,0,0,response5disk,6,31,-6,0,1,0,0,rectangle,-6,0,1,0,0,,5,0,0,0.001,-6,0,1,0,0,,0,30,30,103,1,,,,,,,,,,,,,,,,,,,
,,,,,,,,,,,,,,,,,,,,,,,,,,,,,,,,,,,,,,,,,,5e3f0bbe9907e915e0179f44,6036d8b4aeeccd86578d424e,2021-02-24_22h55.45.624,Colour_Similarity_Experiment,2020.2.10,MacIntel,60,6036d0d9a84aa1626184a6ef,19.23684211,17.2281746,17.5703125,18.17241379,18.2519084,17.80570232,,,,,,,,,,,,,,,,,,,,PF,strong,3,,,,,,,,7,1.269,,,,,,,,,,,,,,,,,,,,,,,,,,,1,strong,31,74,1,0,0,response1disk,4,32,13,0,1,0,0,rectangle,13,0,1,0,0,,5,1,0,0.001,13,0,1,0,0,,0,31,31,135,1,,,,,,,,,,,,,,,,,,,
,,,,,,,,,,,,,,,,,,,,,,,,,,,,,,,,,,,,,,,,,,5e3f0bbe9907e915e0179f44,6036d8b4aeeccd86578d424e,2021-02-24_22h55.45.624,Colour_Similarity_Experiment,2020.2.10,MacIntel,60,6036d0d9a84aa1626184a6ef,19.23684211,17.2281746,17.5703125,18.17241379,18.2519084,17.80570232,,,,,,,,,,,,,,,,,,,,PF,weak,3,,,,,,,,7,3.625,,,,,,,,,,,,,,,,,,,,,,,,,,,2,weak,36,93,1,0,0,response1disk,7,33,-23,9,1,0,0,rectangle,-23,9,1,0,0,,5,0,0,0.002,-23,9,1,0,0,,0,32,32,107,1,,,,,,,,,,,,,,,,,,,
,,,,,,,,,,,,,,,,,,,,,,,,,,,,,,,,,,,,,,,,,,5e3f0bbe9907e915e0179f44,6036d8b4aeeccd86578d424e,2021-02-24_22h55.45.624,Colour_Similarity_Experiment,2020.2.10,MacIntel,60,6036d0d9a84aa1626184a6ef,19.23684211,17.2281746,17.5703125,18.17241379,18.2519084,17.80570232,,,,,,,,,,,,,,,,,,,,PF,strong,3,,,,,,,,7,1.036,,,,,,,,,,,,,,,,,,,,,,,,,,,7,strong,44,83,1,0,0,response1disk,4,34,-2,0,1,0,0,rectangle,-2,0,1,0,0,,5,1,0,0.002,-2,0,1,0,0,,0,33,33,158,1,,,,,,,,,,,,,,,,,,,
,,,,,,,,,,,,,,,,,,,,,,,,,,,,,,,,,,,,,,,,,,5e3f0bbe9907e915e0179f44,6036d8b4aeeccd86578d424e,2021-02-24_22h55.45.624,Colour_Similarity_Experiment,2020.2.10,MacIntel,60,6036d0d9a84aa1626184a6ef,19.23684211,17.2281746,17.5703125,18.17241379,18.2519084,17.80570232,,,,,,,,,,,,,,,,,,,,PF,weak,3,,,,,,,,0,1.303,,,,,,,,,,,,,,,,,,,,,,,,,,,3,weak,-43,80,1,0,0,response7disk,4,35,-2,1,1,0,0,rectangle,-2,1,1,0,0,,5,4,0,0.001,-2,1,1,0,0,,0,34,34,30,1,,,,,,,,,,,,,,,,,,,
,,,,,,,,,,,,,,,,,,,,,,,,,,,,,,,,,,,,,,,,,,5e3f0bbe9907e915e0179f44,6036d8b4aeeccd86578d424e,2021-02-24_22h55.45.624,Colour_Similarity_Experiment,2020.2.10,MacIntel,60,6036d0d9a84aa1626184a6ef,19.23684211,17.2281746,17.5703125,18.17241379,18.2519084,17.80570232,,,,,,,,,,,,,,,,,,,,PF,strong,3,,,,,,,,6,2.304,,,,,,,,,,,,,,,,,,,,,,,,,,,4,strong,86,38,1,0,0,response1disk,2,36,6,11,1,0,0,rectangle,6,11,1,0,0,,5,0,0,0.001,6,11,1,0,0,,0,35,35,13,1,,,,,,,,,,,,,,,,,,,
,,,,,,,,,,,,,,,,,,,,,,,,,,,,,,,,,,,,,,,,,,5e3f0bbe9907e915e0179f44,6036d8b4aeeccd86578d424e,2021-02-24_22h55.45.624,Colour_Similarity_Experiment,2020.2.10,MacIntel,60,6036d0d9a84aa1626184a6ef,19.23684211,17.2281746,17.5703125,18.17241379,18.2519084,17.80570232,,,,,,,,,,,,,,,,,,,,PF,strong,3,,,,,,,,1,1.352,,,,,,,,,,,,,,,,,,,,,,,,,,,6,strong,-95,47,1,0,0,response7disk,7,37,-4,1,1,0,0,rectangle,-4,1,1,0,0,,5,2,0,0,-4,1,1,0,0,,0,36,36,18,1,,,,,,,,,,,,,,,,,,,
,,,,,,,,,,,,,,,,,,,,,,,,,,,,,,,,,,,,,,,,,,5e3f0bbe9907e915e0179f44,6036d8b4aeeccd86578d424e,2021-02-24_22h55.45.624,Colour_Similarity_Experiment,2020.2.10,MacIntel,60,6036d0d9a84aa1626184a6ef,19.23684211,17.2281746,17.5703125,18.17241379,18.2519084,17.80570232,,,,,,,,,,,,,,,,,,,,PF,weak,3,,,,,,,,6,1.317,,,,,,,,,,,,,,,,,,,,,,,,,,,5,weak,95,40,1,0,0,response1disk,7,38,28,0,1,0,0,rectangle,28,0,1,0,0,,5,0,0,0.001,28,0,1,0,0,,0,37,37,146,1,,,,,,,,,,,,,,,,,,,
,,,,,,,,,,,,,,,,,,,,,,,,,,,,,,,,,,,,,,,,,,5e3f0bbe9907e915e0179f44,6036d8b4aeeccd86578d424e,2021-02-24_22h55.45.624,Colour_Similarity_Experiment,2020.2.10,MacIntel,60,6036d0d9a84aa1626184a6ef,19.23684211,17.2281746,17.5703125,18.17241379,18.2519084,17.80570232,,,,,,,,,,,,,,,,,,,,PF,strong,3,,,,,,,,1,1.736,,,,,,,,,,,,,,,,,,,,,,,,,,,5,strong,-60,44,1,0,0,response7disk,4,39,1,-3,1,0,0,rectangle,1,-3,1,0,0,,5,6,0,0.001,1,-3,1,0,0,,0,38,38,8,1,,,,,,,,,,,,,,,,,,,
,,,,,,,,,,,,,,,,,,,,,,,,,,,,,,,,,,,,,,,,,,5e3f0bbe9907e915e0179f44,6036d8b4aeeccd86578d424e,2021-02-24_22h55.45.624,Colour_Similarity_Experiment,2020.2.10,MacIntel,60,6036d0d9a84aa1626184a6ef,19.23684211,17.2281746,17.5703125,18.17241379,18.2519084,17.80570232,,,,,,,,,,,,,,,,,,,,PF,weak,3,,,,,,,,6,1.67,,,,,,,,,,,,,,,,,,,,,,,,,,,9,weak,94,55,1,0,0,response1disk,3,40,4,6,1,0,0,rectangle,4,6,1,0,0,,5,3,0,0.001,4,6,1,0,0,,0,39,39,119,1,,,,,,,,,,,,,,,,,,,
,,,,,,,,,,,,,,,,,,,,,,,,,,,,,,,,,,,,,,,,,,5e3f0bbe9907e915e0179f44,6036d8b4aeeccd86578d424e,2021-02-24_22h55.45.624,Colour_Similarity_Experiment,2020.2.10,MacIntel,60,6036d0d9a84aa1626184a6ef,19.23684211,17.2281746,17.5703125,18.17241379,18.2519084,17.80570232,,,,,,,,,,,,,,,,,,,,PF,strong,3,,,,,,,,6,1.637,,,,,,,,,,,,,,,,,,,,,,,,,,,4,strong,97,50,1,0,0,response1disk,7,41,-18,6,1,0,0,rectangle,-18,6,1,0,0,,5,4,0,0.001,-18,6,1,0,0,,0,40,40,87,1,,,,,,,,,,,,,,,,,,,
,,,,,,,,,,,,,,,,,,,,,,,,,,,,,,,,,,,,,,,,,,5e3f0bbe9907e915e0179f44,6036d8b4aeeccd86578d424e,2021-02-24_22h55.45.624,Colour_Similarity_Experiment,2020.2.10,MacIntel,60,6036d0d9a84aa1626184a6ef,19.23684211,17.2281746,17.5703125,18.17241379,18.2519084,17.80570232,,,,,,,,,,,,,,,,,,,,PF,weak,3,,,,,,,,4,3.073,,,,,,,,,,,,,,,,,,,,,,,,,,,8,weak,40,-85,1,0,0,response3disk,5,42,5,12,1,0,0,rectangle,5,12,1,0,0,,5,0,0,0,5,12,1,0,0,,0,41,41,98,1,,,,,,,,,,,,,,,,,,,
,,,,,,,,,,,,,,,,,,,,,,,,,,,,,,,,,,,,,,,,,,5e3f0bbe9907e915e0179f44,6036d8b4aeeccd86578d424e,2021-02-24_22h55.45.624,Colour_Similarity_Experiment,2020.2.10,MacIntel,60,6036d0d9a84aa1626184a6ef,19.23684211,17.2281746,17.5703125,18.17241379,18.2519084,17.80570232,,,,,,,,,,,,,,,,,,,,PF,weak,3,,,,,,,,7,1.234,,,,,,,,,,,,,,,,,,,,,,,,,,,7,weak,28,80,1,0,0,response1disk,2,43,8,-3,1,0,0,rectangle,8,-3,1,0,0,,5,4,0,0.002,8,-3,1,0,0,,0,42,42,32,1,,,,,,,,,,,,,,,,,,,
,,,,,,,,,,,,,,,,,,,,,,,,,,,,,,,,,,,,,,,,,,5e3f0bbe9907e915e0179f44,6036d8b4aeeccd86578d424e,2021-02-24_22h55.45.624,Colour_Similarity_Experiment,2020.2.10,MacIntel,60,6036d0d9a84aa1626184a6ef,19.23684211,17.2281746,17.5703125,18.17241379,18.2519084,17.80570232,,,,,,,,,,,,,,,,,,,,PF,weak,3,,,,,,,,7,1.236,,,,,,,,,,,,,,,,,,,,,,,,,,,6,weak,40,87,1,0,0,response1disk,1,44,-2,5,1,0,0,rectangle,-2,5,1,0,0,,5,5,0,0.001,-2,5,1,0,0,,0,43,43,46,1,,,,,,,,,,,,,,,,,,,
,,,,,,,,,,,,,,,,,,,,,,,,,,,,,,,,,,,,,,,,,,5e3f0bbe9907e915e0179f44,6036d8b4aeeccd86578d424e,2021-02-24_22h55.45.624,Colour_Similarity_Experiment,2020.2.10,MacIntel,60,6036d0d9a84aa1626184a6ef,19.23684211,17.2281746,17.5703125,18.17241379,18.2519084,17.80570232,,,,,,,,,,,,,,,,,,,,PF,strong,3,,,,,,,,0,0.851,,,,,,,,,,,,,,,,,,,,,,,,,,,4,strong,-39,63,1,0,0,response7disk,4,45,-4,-8,1,0,0,rectangle,-4,-8,1,0,0,,5,0,0,0.001,-4,-8,1,0,0,,0,44,44,84,1,,,,,,,,,,,,,,,,,,,
,,,,,,,,,,,,,,,,,,,,,,,,,,,,,,,,,,,,,,,,,,5e3f0bbe9907e915e0179f44,6036d8b4aeeccd86578d424e,2021-02-24_22h55.45.624,Colour_Similarity_Experiment,2020.2.10,MacIntel,60,6036d0d9a84aa1626184a6ef,19.23684211,17.2281746,17.5703125,18.17241379,18.2519084,17.80570232,,,,,,,,,,,,,,,,,,,,PF,strong,3,,,,,,,,2,1.319,,,,,,,,,,,,,,,,,,,,,,,,,,,8,strong,-89,-33,1,0,0,response5disk,6,46,4,0,1,0,0,rectangle,4,0,1,0,0,,5,0,0,0.001,4,0,1,0,0,,0,45,45,37,1,,,,,,,,,,,,,,,,,,,
,,,,,,,,,,,,,,,,,,,,,,,,,,,,,,,,,,,,,,,,,,5e3f0bbe9907e915e0179f44,6036d8b4aeeccd86578d424e,2021-02-24_22h55.45.624,Colour_Similarity_Experiment,2020.2.10,MacIntel,60,6036d0d9a84aa1626184a6ef,19.23684211,17.2281746,17.5703125,18.17241379,18.2519084,17.80570232,,,,,,,,,,,,,,,,,,,,PF,strong,3,,,,,,,,7,1.171,,,,,,,,,,,,,,,,,,,,,,,,,,,5,strong,42,87,1,0,0,response1disk,2,47,17,2,1,0,0,rectangle,-43,79,1,0,0,response7disk_3,0,0,1,2.004,-3,0,1,0,0,rectangle,0,46,46,55,1,,,,,,,,,,,,,,,,,,,
,,,,,,,,,,,,,,,,,,,,,,,,,,,,,,,,,,,,,,,,,,5e3f0bbe9907e915e0179f44,6036d8b4aeeccd86578d424e,2021-02-24_22h55.45.624,Colour_Similarity_Experiment,2020.2.10,MacIntel,60,6036d0d9a84aa1626184a6ef,19.23684211,17.2281746,17.5703125,18.17241379,18.2519084,17.80570232,,,,,,,,,,,,,,,,,,,,PF,strong,3,,,,,,,,7,0.868,,,,,,,,,,,,,,,,,,,,,,,,,,,7,strong,35,72,1,0,0,response1disk,9,48,1,-6,1,0,0,rectangle,1,-6,1,0,0,,0,7,0,0.001,1,-6,1,0,0,,0,47,47,155,1,,,,,,,,,,,,,,,,,,,
,,,,,,,,,,,,,,,,,,,,,,,,,,,,,,,,,,,,,,,,,,5e3f0bbe9907e915e0179f44,6036d8b4aeeccd86578d424e,2021-02-24_22h55.45.624,Colour_Similarity_Experiment,2020.2.10,MacIntel,60,6036d0d9a84aa1626184a6ef,19.23684211,17.2281746,17.5703125,18.17241379,18.2519084,17.80570232,,,,,,,,,,,,,,,,,,,,PF,weak,3,,,,,,,,2,1.336,,,,,,,,,,,,,,,,,,,,,,,,,,,9,weak,-67,-35,1,0,0,response5disk,8,49,-8,-13,1,0,0,rectangle,-8,-13,1,0,0,,0,2,0,0.002,-8,-13,1,0,0,,0,48,48,67,1,,,,,,,,,,,,,,,,,,,
,,,,,,,,,,,,,,,,,,,,,,,,,,,,,,,,,,,,,,,,,,5e3f0bbe9907e915e0179f44,6036d8b4aeeccd86578d424e,2021-02-24_22h55.45.624,Colour_Similarity_Experiment,2020.2.10,MacIntel,60,6036d0d9a84aa1626184a6ef,19.23684211,17.2281746,17.5703125,18.17241379,18.2519084,17.80570232,,,,,,,,,,,,,,,,,,,,PF,weak,3,,,,,,,,2,1.519,,,,,,,,,,,,,,,,,,,,,,,,,,,4,weak,-78,-31,1,0,0,response5disk,5,50,-8,-8,1,0,0,rectangle,-8,-8,1,0,0,,0,1,0,0.001,-8,-8,1,0,0,,0,49,49,49,1,,,,,,,,,,,,,,,,,,,
,,,,,,,,,,,,,,,,,,,,,,,,,,,,,,,,,,,,,,,,,,5e3f0bbe9907e915e0179f44,6036d8b4aeeccd86578d424e,2021-02-24_22h55.45.624,Colour_Similarity_Experiment,2020.2.10,MacIntel,60,6036d0d9a84aa1626184a6ef,19.23684211,17.2281746,17.5703125,18.17241379,18.2519084,17.80570232,,,,,,,,,,,,,,,,,,,,PF,weak,3,,,,,,,,3,0.832,,,,,,,,,,,,,,,,,,,,,,,,,,,7,weak,-35,-68,1,0,0,response5disk,8,51,-8,3,1,0,0,rectangle,-8,3,1,0,0,,0,6,0,0.002,-8,3,1,0,0,,0,50,50,140,1,,,,,,,,,,,,,,,,,,,
,,,,,,,,,,,,,,,,,,,,,,,,,,,,,,,,,,,,,,,,,,5e3f0bbe9907e915e0179f44,6036d8b4aeeccd86578d424e,2021-02-24_22h55.45.624,Colour_Similarity_Experiment,2020.2.10,MacIntel,60,6036d0d9a84aa1626184a6ef,19.23684211,17.2281746,17.5703125,18.17241379,18.2519084,17.80570232,,,,,,,,,,,,,,,,,,,,PF,weak,3,,,,,,,,3,1.052,,,,,,,,,,,,,,,,,,,,,,,,,,,1,weak,-32,-63,1,0,0,response5disk,8,52,-3,-2,1,0,0,rectangle,-3,-2,1,0,0,,0,5,0,0.001,-3,-2,1,0,0,,0,51,51,65,1,,,,,,,,,,,,,,,,,,,
,,,,,,,,,,,,,,,,,,,,,,,,,,,,,,,,,,,,,,,,,,5e3f0bbe9907e915e0179f44,6036d8b4aeeccd86578d424e,2021-02-24_22h55.45.624,Colour_Similarity_Experiment,2020.2.10,MacIntel,60,6036d0d9a84aa1626184a6ef,19.23684211,17.2281746,17.5703125,18.17241379,18.2519084,17.80570232,,,,,,,,,,,,,,,,,,,,PF,strong,3,,,,,,,,2,1.754,,,,,,,,,,,,,,,,,,,,,,,,,,,8,strong,-76,-30,1,0,0,response5disk,7,53,-7,-4,1,0,0,rectangle,-7,-4,1,0,0,,0,1,0,0.002,-7,-4,1,0,0,,0,52,52,86,1,,,,,,,,,,,,,,,,,,,
,,,,,,,,,,,,,,,,,,,,,,,,,,,,,,,,,,,,,,,,,,5e3f0bbe9907e915e0179f44,6036d8b4aeeccd86578d424e,2021-02-24_22h55.45.624,Colour_Similarity_Experiment,2020.2.10,MacIntel,60,6036d0d9a84aa1626184a6ef,19.23684211,17.2281746,17.5703125,18.17241379,18.2519084,17.80570232,,,,,,,,,,,,,,,,,,,,PF,weak,3,,,,,,,,7,1.218,,,,,,,,,,,,,,,,,,,,,,,,,,,3,weak,43,69,1,0,0,response1disk,1,54,7,5,1,0,0,rectangle,7,5,1,0,0,,0,5,0,0,7,5,1,0,0,,0,53,53,96,1,,,,,,,,,,,,,,,,,,,
,,,,,,,,,,,,,,,,,,,,,,,,,,,,,,,,,,,,,,,,,,5e3f0bbe9907e915e0179f44,6036d8b4aeeccd86578d424e,2021-02-24_22h55.45.624,Colour_Similarity_Experiment,2020.2.10,MacIntel,60,6036d0d9a84aa1626184a6ef,19.23684211,17.2281746,17.5703125,18.17241379,18.2519084,17.80570232,,,,,,,,,,,,,,,,,,,,PF,strong,3,,,,,,,,1,1.486,,,,,,,,,,,,,,,,,,,,,,,,,,,9,strong,-68,40,1,0,0,response7disk,1,55,-12,8,1,0,0,rectangle,-12,8,1,0,0,,0,7,0,0.001,-12,8,1,0,0,,0,54,54,111,1,,,,,,,,,,,,,,,,,,,
,,,,,,,,,,,,,,,,,,,,,,,,,,,,,,,,,,,,,,,,,,5e3f0bbe9907e915e0179f44,6036d8b4aeeccd86578d424e,2021-02-24_22h55.45.624,Colour_Similarity_Experiment,2020.2.10,MacIntel,60,6036d0d9a84aa1626184a6ef,19.23684211,17.2281746,17.5703125,18.17241379,18.2519084,17.80570232,,,,,,,,,,,,,,,,,,,,PF,strong,3,,,,,,,,5,1.888,,,,,,,,,,,,,,,,,,,,,,,,,,,5,strong,73,-35,1,0,0,response3disk,7,56,-2,7,1,0,0,rectangle,-2,7,1,0,0,,0,3,0,0.002,-2,7,1,0,0,,0,55,55,7,1,,,,,,,,,,,,,,,,,,,
,,,,,,,,,,,,,,,,,,,,,,,,,,,,,,,,,,,,,,,,,,5e3f0bbe9907e915e0179f44,6036d8b4aeeccd86578d424e,2021-02-24_22h55.45.624,Colour_Similarity_Experiment,2020.2.10,MacIntel,60,6036d0d9a84aa1626184a6ef,19.23684211,17.2281746,17.5703125,18.17241379,18.2519084,17.80570232,,,,,,,,,,,,,,,,,,,,PF,weak,3,,,,,,,,7,0.734,,,,,,,,,,,,,,,,,,,,,,,,,,,1,weak,38,65,1,0,0,response1disk,3,57,-6,-6,1,0,0,rectangle,-6,-6,1,0,0,,0,5,0,0.003,-6,-6,1,0,0,,0,56,56,1,1,,,,,,,,,,,,,,,,,,,
,,,,,,,,,,,,,,,,,,,,,,,,,,,,,,,,,,,,,,,,,,5e3f0bbe9907e915e0179f44,6036d8b4aeeccd86578d424e,2021-02-24_22h55.45.624,Colour_Similarity_Experiment,2020.2.10,MacIntel,60,6036d0d9a84aa1626184a6ef,19.23684211,17.2281746,17.5703125,18.17241379,18.2519084,17.80570232,,,,,,,,,,,,,,,,,,,,PF,strong,3,,,,,,,,7,0.952,,,,,,,,,,,,,,,,,,,,,,,,,,,8,strong,52,54,1,0,0,response1disk,3,58,14,8,1,0,0,rectangle,14,8,1,0,0,,0,0,0,0.003,14,8,1,0,0,,0,57,57,154,1,,,,,,,,,,,,,,,,,,,
,,,,,,,,,,,,,,,,,,,,,,,,,,,,,,,,,,,,,,,,,,5e3f0bbe9907e915e0179f44,6036d8b4aeeccd86578d424e,2021-02-24_22h55.45.624,Colour_Similarity_Experiment,2020.2.10,MacIntel,60,6036d0d9a84aa1626184a6ef,19.23684211,17.2281746,17.5703125,18.17241379,18.2519084,17.80570232,,,,,,,,,,,,,,,,,,,,PF,strong,3,,,,,,,,2,1.354,,,,,,,,,,,,,,,,,,,,,,,,,,,1,strong,-98,-37,1,0,0,response5disk,2,59,-2,3,1,0,0,rectangle,-2,3,1,0,0,,0,4,0,0.002,-2,3,1,0,0,,0,58,58,2,1,,,,,,,,,,,,,,,,,,,
,,,,,,,,,,,,,,,,,,,,,,,,,,,,,,,,,,,,,,,,,,5e3f0bbe9907e915e0179f44,6036d8b4aeeccd86578d424e,2021-02-24_22h55.45.624,Colour_Similarity_Experiment,2020.2.10,MacIntel,60,6036d0d9a84aa1626184a6ef,19.23684211,17.2281746,17.5703125,18.17241379,18.2519084,17.80570232,,,,,,,,,,,,,,,,,,,,PF,strong,3,,,,,,,,7,2.053,,,,,,,,,,,,,,,,,,,,,,,,,,,2,strong,49,79,1,0,0,response1disk,9,60,16,8,1,0,0,rectangle,16,8,1,0,0,,0,2,0,0.001,16,8,1,0,0,,0,59,59,72,1,,,,,,,,,,,,,,,,,,,
,,,,,,,,,,,,,,,,,,,,,,,,,,,,,,,,,,,,,,,,,,5e3f0bbe9907e915e0179f44,6036d8b4aeeccd86578d424e,2021-02-24_22h55.45.624,Colour_Similarity_Experiment,2020.2.10,MacIntel,60,6036d0d9a84aa1626184a6ef,19.23684211,17.2281746,17.5703125,18.17241379,18.2519084,17.80570232,,,,,,,,,,,,,,,,,,,,PF,strong,3,,,,,,,,7,0.935,,,,,,,,,,,,,,,,,,,,,,,,,,,1,strong,26,59,1,0,0,response1disk,5,61,11,2,1,0,0,rectangle,11,2,1,0,0,,0,1,0,0.001,11,2,1,0,0,,0,60,60,82,1,,,,,,,,,,,,,,,,,,,
,,,,,,,,,,,,,,,,,,,,,,,,,,,,,,,,,,,,,,,,,,5e3f0bbe9907e915e0179f44,6036d8b4aeeccd86578d424e,2021-02-24_22h55.45.624,Colour_Similarity_Experiment,2020.2.10,MacIntel,60,6036d0d9a84aa1626184a6ef,19.23684211,17.2281746,17.5703125,18.17241379,18.2519084,17.80570232,,,,,,,,,,,,,,,,,,,,PF,strong,3,,,,,,,,0,0.852,,,,,,,,,,,,,,,,,,,,,,,,,,,6,strong,-42,106,1,0,0,response7disk,6,62,-11,11,1,0,0,rectangle,-11,11,1,0,0,,0,5,0,0.001,-11,11,1,0,0,,0,61,61,91,1,,,,,,,,,,,,,,,,,,,
,,,,,,,,,,,,,,,,,,,,,,,,,,,,,,,,,,,,,,,,,,5e3f0bbe9907e915e0179f44,6036d8b4aeeccd86578d424e,2021-02-24_22h55.45.624,Colour_Similarity_Experiment,2020.2.10,MacIntel,60,6036d0d9a84aa1626184a6ef,19.23684211,17.2281746,17.5703125,18.17241379,18.2519084,17.80570232,,,,,,,,,,,,,,,,,,,,PF,strong,3,,,,,,,,7,1.306,,,,,,,,,,,,,,,,,,,,,,,,,,,7,strong,40,66,1,0,0,response1disk,2,63,-3,8,1,0,0,rectangle,-3,8,1,0,0,,0,7,0,0.001,-3,8,1,0,0,,0,62,62,138,1,,,,,,,,,,,,,,,,,,,
,,,,,,,,,,,,,,,,,,,,,,,,,,,,,,,,,,,,,,,,,,5e3f0bbe9907e915e0179f44,6036d8b4aeeccd86578d424e,2021-02-24_22h55.45.624,Colour_Similarity_Experiment,2020.2.10,MacIntel,60,6036d0d9a84aa1626184a6ef,19.23684211,17.2281746,17.5703125,18.17241379,18.2519084,17.80570232,,,,,,,,,,,,,,,,,,,,PF,weak,3,,,,,,,,1,1.499,,,,,,,,,,,,,,,,,,,,,,,,,,,8,weak,-81,22,1,0,0,response7disk,9,64,-1,7,1,0,0,rectangle,-1,7,1,0,0,,0,0,0,0.001,-1,7,1,0,0,,0,63,63,42,1,,,,,,,,,,,,,,,,,,,
,,,,,,,,,,,,,,,,,,,,,,,,,,,,,,,,,,,,,,,,,,5e3f0bbe9907e915e0179f44,6036d8b4aeeccd86578d424e,2021-02-24_22h55.45.624,Colour_Similarity_Experiment,2020.2.10,MacIntel,60,6036d0d9a84aa1626184a6ef,19.23684211,17.2281746,17.5703125,18.17241379,18.2519084,17.80570232,,,,,,,,,,,,,,,,,,,,PF,strong,3,,,,,,,,7,0.869,,,,,,,,,,,,,,,,,,,,,,,,,,,2,strong,42,72,1,0,0,response1disk,8,65,-3,9,1,0,0,rectangle,-3,9,1,0,0,,0,4,0,0.001,-3,9,1,0,0,,0,64,64,62,1,,,,,,,,,,,,,,,,,,,
,,,,,,,,,,,,,,,,,,,,,,,,,,,,,,,,,,,,,,,,,,5e3f0bbe9907e915e0179f44,6036d8b4aeeccd86578d424e,2021-02-24_22h55.45.624,Colour_Similarity_Experiment,2020.2.10,MacIntel,60,6036d0d9a84aa1626184a6ef,19.23684211,17.2281746,17.5703125,18.17241379,18.2519084,17.80570232,,,,,,,,,,,,,,,,,,,,PF,strong,3,,,,,,,,2,1.47,,,,,,,,,,,,,,,,,,,,,,,,,,,3,strong,-64,-41,1,0,0,response5disk,5,66,-3,-2,1,0,0,rectangle,-3,-2,1,0,0,,0,5,0,0.002,-3,-2,1,0,0,,0,65,65,101,1,,,,,,,,,,,,,,,,,,,
,,,,,,,,,,,,,,,,,,,,,,,,,,,,,,,,,,,,,,,,,,5e3f0bbe9907e915e0179f44,6036d8b4aeeccd86578d424e,2021-02-24_22h55.45.624,Colour_Similarity_Experiment,2020.2.10,MacIntel,60,6036d0d9a84aa1626184a6ef,19.23684211,17.2281746,17.5703125,18.17241379,18.2519084,17.80570232,,,,,,,,,,,,,,,,,,,,PF,strong,3,,,,,,,,1,1.152,,,,,,,,,,,,,,,,,,,,,,,,,,,5,strong,-68,30,1,0,0,response7disk,3,67,20,-9,1,0,0,rectangle,20,-9,1,0,0,,0,5,0,0,20,-9,1,0,0,,0,66,66,25,1,,,,,,,,,,,,,,,,,,,
,,,,,,,,,,,,,,,,,,,,,,,,,,,,,,,,,,,,,,,,,,5e3f0bbe9907e915e0179f44,6036d8b4aeeccd86578d424e,2021-02-24_22h55.45.624,Colour_Similarity_Experiment,2020.2.10,MacIntel,60,6036d0d9a84aa1626184a6ef,19.23684211,17.2281746,17.5703125,18.17241379,18.2519084,17.80570232,,,,,,,,,,,,,,,,,,,,PF,weak,3,,,,,,,,1,0.869,,,,,,,,,,,,,,,,,,,,,,,,,,,5,weak,-61,25,1,0,0,response7disk,4,68,-5,10,1,0,0,rectangle,-5,10,1,0,0,,0,5,0,0,-5,10,1,0,0,,0,67,67,54,1,,,,,,,,,,,,,,,,,,,
,,,,,,,,,,,,,,,,,,,,,,,,,,,,,,,,,,,,,,,,,,5e3f0bbe9907e915e0179f44,6036d8b4aeeccd86578d424e,2021-02-24_22h55.45.624,Colour_Similarity_Experiment,2020.2.10,MacIntel,60,6036d0d9a84aa1626184a6ef,19.23684211,17.2281746,17.5703125,18.17241379,18.2519084,17.80570232,,,,,,,,,,,,,,,,,,,,PF,strong,3,,,,,,,,7,1.186,,,,,,,,,,,,,,,,,,,,,,,,,,,3,strong,43,69,1,0,0,response1disk,1,69,3,3,1,0,0,rectangle,3,3,1,0,0,,0,0,0,0.002,3,3,1,0,0,,0,68,68,125,1,,,,,,,,,,,,,,,,,,,
,,,,,,,,,,,,,,,,,,,,,,,,,,,,,,,,,,,,,,,,,,5e3f0bbe9907e915e0179f44,6036d8b4aeeccd86578d424e,2021-02-24_22h55.45.624,Colour_Similarity_Experiment,2020.2.10,MacIntel,60,6036d0d9a84aa1626184a6ef,19.23684211,17.2281746,17.5703125,18.17241379,18.2519084,17.80570232,,,,,,,,,,,,,,,,,,,,PF,strong,3,,,,,,,,7,1.304,,,,,,,,,,,,,,,,,,,,,,,,,,,3,strong,65,80,1,0,0,response1disk,9,70,14,13,1,0,0,rectangle,14,13,1,0,0,,0,4,0,0.001,14,13,1,0,0,,0,69,69,143,1,,,,,,,,,,,,,,,,,,,
,,,,,,,,,,,,,,,,,,,,,,,,,,,,,,,,,,,,,,,,,,5e3f0bbe9907e915e0179f44,6036d8b4aeeccd86578d424e,2021-02-24_22h55.45.624,Colour_Similarity_Experiment,2020.2.10,MacIntel,60,6036d0d9a84aa1626184a6ef,19.23684211,17.2281746,17.5703125,18.17241379,18.2519084,17.80570232,,,,,,,,,,,,,,,,,,,,PF,weak,3,,,,,,,,7,0.951,,,,,,,,,,,,,,,,,,,,,,,,,,,2,weak,58,74,1,0,0,response1disk,6,71,16,8,1,0,0,rectangle,16,8,1,0,0,,0,0,0,0.002,16,8,1,0,0,,0,70,70,113,1,,,,,,,,,,,,,,,,,,,
,,,,,,,,,,,,,,,,,,,,,,,,,,,,,,,,,,,,,,,,,,5e3f0bbe9907e915e0179f44,6036d8b4aeeccd86578d424e,2021-02-24_22h55.45.624,Colour_Similarity_Experiment,2020.2.10,MacIntel,60,6036d0d9a84aa1626184a6ef,19.23684211,17.2281746,17.5703125,18.17241379,18.2519084,17.80570232,,,,,,,,,,,,,,,,,,,,PF,strong,3,,,,,,,,7,0.801,,,,,,,,,,,,,,,,,,,,,,,,,,,9,strong,34,72,1,0,0,response1disk,5,72,5,4,1,0,0,rectangle,5,4,1,0,0,,0,1,0,0.001,5,4,1,0,0,,0,71,71,128,1,,,,,,,,,,,,,,,,,,,
,,,,,,,,,,,,,,,,,,,,,,,,,,,,,,,,,,,,,,,,,,5e3f0bbe9907e915e0179f44,6036d8b4aeeccd86578d424e,2021-02-24_22h55.45.624,Colour_Similarity_Experiment,2020.2.10,MacIntel,60,6036d0d9a84aa1626184a6ef,19.23684211,17.2281746,17.5703125,18.17241379,18.2519084,17.80570232,,,,,,,,,,,,,,,,,,,,PF,strong,3,,,,,,,,7,0.767,,,,,,,,,,,,,,,,,,,,,,,,,,,5,strong,24,56,1,0,0,response1disk,8,73,4,6,1,0,0,rectangle,4,6,1,0,0,,0,0,0,0.002,4,6,1,0,0,,0,72,72,16,1,,,,,,,,,,,,,,,,,,,
,,,,,,,,,,,,,,,,,,,,,,,,,,,,,,,,,,,,,,,,,,5e3f0bbe9907e915e0179f44,6036d8b4aeeccd86578d424e,2021-02-24_22h55.45.624,Colour_Similarity_Experiment,2020.2.10,MacIntel,60,6036d0d9a84aa1626184a6ef,19.23684211,17.2281746,17.5703125,18.17241379,18.2519084,17.80570232,,,,,,,,,,,,,,,,,,,,PF,weak,3,,,,,,,,7,1.033,,,,,,,,,,,,,,,,,,,,,,,,,,,2,weak,50,81,1,0,0,response1disk,8,74,3,-3,1,0,0,rectangle,3,-3,1,0,0,,0,0,0,0.001,3,-3,1,0,0,,0,73,73,52,1,,,,,,,,,,,,,,,,,,,
,,,,,,,,,,,,,,,,,,,,,,,,,,,,,,,,,,,,,,,,,,5e3f0bbe9907e915e0179f44,6036d8b4aeeccd86578d424e,2021-02-24_22h55.45.624,Colour_Similarity_Experiment,2020.2.10,MacIntel,60,6036d0d9a84aa1626184a6ef,19.23684211,17.2281746,17.5703125,18.17241379,18.2519084,17.80570232,,,,,,,,,,,,,,,,,,,,PF,weak,3,,,,,,,,7,0.885,,,,,,,,,,,,,,,,,,,,,,,,,,,6,weak,37,59,1,0,0,response1disk,9,75,9,-2,1,0,0,rectangle,9,-2,1,0,0,,0,0,0,0.001,9,-2,1,0,0,,0,74,74,45,1,,,,,,,,,,,,,,,,,,,
,,,,,,,,,,,,,,,,,,,,,,,,,,,,,,,,,,,,,,,,,,5e3f0bbe9907e915e0179f44,6036d8b4aeeccd86578d424e,2021-02-24_22h55.45.624,Colour_Similarity_Experiment,2020.2.10,MacIntel,60,6036d0d9a84aa1626184a6ef,19.23684211,17.2281746,17.5703125,18.17241379,18.2519084,17.80570232,,,,,,,,,,,,,,,,,,,,PF,strong,3,,,,,,,,2,2.138,,,,,,,,,,,,,,,,,,,,,,,,,,,4,strong,-90,-30,1,0,0,response5disk,5,76,-13,-5,1,0,0,rectangle,-13,-5,1,0,0,,0,1,0,0.001,-13,-5,1,0,0,,0,75,75,116,1,,,,,,,,,,,,,,,,,,,
,,,,,,,,,,,,,,,,,,,,,,,,,,,,,,,,,,,,,,,,,,5e3f0bbe9907e915e0179f44,6036d8b4aeeccd86578d424e,2021-02-24_22h55.45.624,Colour_Similarity_Experiment,2020.2.10,MacIntel,60,6036d0d9a84aa1626184a6ef,19.23684211,17.2281746,17.5703125,18.17241379,18.2519084,17.80570232,,,,,,,,,,,,,,,,,,,,PF,weak,3,,,,,,,,7,0.887,,,,,,,,,,,,,,,,,,,,,,,,,,,1,weak,36,59,1,0,0,response1disk,7,77,6,3,1,0,0,rectangle,6,3,1,0,0,,0,3,0,0.003,6,3,1,0,0,,0,76,76,150,1,,,,,,,,,,,,,,,,,,,
,,,,,,,,,,,,,,,,,,,,,,,,,,,,,,,,,,,,,,,,,,5e3f0bbe9907e915e0179f44,6036d8b4aeeccd86578d424e,2021-02-24_22h55.45.624,Colour_Similarity_Experiment,2020.2.10,MacIntel,60,6036d0d9a84aa1626184a6ef,19.23684211,17.2281746,17.5703125,18.17241379,18.2519084,17.80570232,,,,,,,,,,,,,,,,,,,,PF,weak,3,,,,,,,,1,1.303,,,,,,,,,,,,,,,,,,,,,,,,,,,7,weak,-67,41,1,0,0,response7disk,6,78,-6,0,1,0,0,rectangle,-6,0,1,0,0,,0,1,0,0.002,-6,0,1,0,0,,0,77,77,29,1,,,,,,,,,,,,,,,,,,,
,,,,,,,,,,,,,,,,,,,,,,,,,,,,,,,,,,,,,,,,,,5e3f0bbe9907e915e0179f44,6036d8b4aeeccd86578d424e,2021-02-24_22h55.45.624,Colour_Similarity_Experiment,2020.2.10,MacIntel,60,6036d0d9a84aa1626184a6ef,19.23684211,17.2281746,17.5703125,18.17241379,18.2519084,17.80570232,,,,,,,,,,,,,,,,,,,,PF,strong,3,,,,,,,,7,0.918,,,,,,,,,,,,,,,,,,,,,,,,,,,2,strong,38,62,1,0,0,response1disk,6,79,6,-8,1,0,0,rectangle,6,-8,1,0,0,,0,0,0,0.001,6,-8,1,0,0,,0,78,78,40,1,,,,,,,,,,,,,,,,,,,
,,,,,,,,,,,,,,,,,,,,,,,,,,,,,,,,,,,,,,,,,,5e3f0bbe9907e915e0179f44,6036d8b4aeeccd86578d424e,2021-02-24_22h55.45.624,Colour_Similarity_Experiment,2020.2.10,MacIntel,60,6036d0d9a84aa1626184a6ef,19.23684211,17.2281746,17.5703125,18.17241379,18.2519084,17.80570232,,,,,,,,,,,,,,,,,,,,PF,strong,3,,,,,,,,1,1.27,,,,,,,,,,,,,,,,,,,,,,,,,,,6,strong,-54,36,1,0,0,response7disk,5,80,-7,5,1,0,0,rectangle,-7,5,1,0,0,,0,6,0,0.001,-7,5,1,0,0,,0,79,79,126,1,,,,,,,,,,,,,,,,,,,
,,,,,,,,,,,,,,,,,,,,,,,,,,,,,,,,,,,,,,,,,,5e3f0bbe9907e915e0179f44,6036d8b4aeeccd86578d424e,2021-02-24_22h55.45.624,Colour_Similarity_Experiment,2020.2.10,MacIntel,60,6036d0d9a84aa1626184a6ef,19.23684211,17.2281746,17.5703125,18.17241379,18.2519084,17.80570232,,,,,,,,,,,,,,,,,,,,PF,weak,3,,,,,,,,7,0.752,,,,,,,,,,,,,,,,,,,,,,,,,,,2,weak,21,38,1,0,0,response1disk,5,81,-4,-6,1,0,0,rectangle,-4,-6,1,0,0,,0,1,0,0,-4,-6,1,0,0,,0,80,80,147,1,,,,,,,,,,,,,,,,,,,
,,,,,,,,,,,,,,,,,,,,,,,,,,,,,,,,,,,,,,,,,,5e3f0bbe9907e915e0179f44,6036d8b4aeeccd86578d424e,2021-02-24_22h55.45.624,Colour_Similarity_Experiment,2020.2.10,MacIntel,60,6036d0d9a84aa1626184a6ef,19.23684211,17.2281746,17.5703125,18.17241379,18.2519084,17.80570232,,,,,,,,,,,,,,,,,,,,PF,weak,3,,,,,,,,0,0.885,,,,,,,,,,,,,,,,,,,,,,,,,,,2,weak,-41,73,1,0,0,response7disk,2,82,-12,-12,1,0,0,rectangle,-12,-12,1,0,0,,0,3,0,0.001,-12,-12,1,0,0,,0,81,81,14,1,,,,,,,,,,,,,,,,,,,
,,,,,,,,,,,,,,,,,,,,,,,,,,,,,,,,,,,,,,,,,,5e3f0bbe9907e915e0179f44,6036d8b4aeeccd86578d424e,2021-02-24_22h55.45.624,Colour_Similarity_Experiment,2020.2.10,MacIntel,60,6036d0d9a84aa1626184a6ef,19.23684211,17.2281746,17.5703125,18.17241379,18.2519084,17.80570232,,,,,,,,,,,,,,,,,,,,PF,strong,3,,,,,,,,1,0.885,,,,,,,,,,,,,,,,,,,,,,,,,,,7,strong,-64,28,1,0,0,response7disk,5,83,-18,-4,1,0,0,rectangle,-18,-4,1,0,0,,0,4,0,0,-18,-4,1,0,0,,0,82,82,156,1,,,,,,,,,,,,,,,,,,,
,,,,,,,,,,,,,,,,,,,,,,,,,,,,,,,,,,,,,,,,,,5e3f0bbe9907e915e0179f44,6036d8b4aeeccd86578d424e,2021-02-24_22h55.45.624,Colour_Similarity_Experiment,2020.2.10,MacIntel,60,6036d0d9a84aa1626184a6ef,19.23684211,17.2281746,17.5703125,18.17241379,18.2519084,17.80570232,,,,,,,,,,,,,,,,,,,,PF,strong,3,,,,,,,,7,1.119,,,,,,,,,,,,,,,,,,,,,,,,,,,9,strong,40,68,1,0,0,response1disk,2,84,-3,-7,1,0,0,rectangle,-78,53,1,0,0,response7disk_3,1,1,1,1.336,-13,7,1,0,0,rectangle,0,83,83,11,1,,,,,,,,,,,,,,,,,,,
,,,,,,,,,,,,,,,,,,,,,,,,,,,,,,,,,,,,,,,,,,5e3f0bbe9907e915e0179f44,6036d8b4aeeccd86578d424e,2021-02-24_22h55.45.624,Colour_Similarity_Experiment,2020.2.10,MacIntel,60,6036d0d9a84aa1626184a6ef,19.23684211,17.2281746,17.5703125,18.17241379,18.2519084,17.80570232,,,,,,,,,,,,,,,,,,,,PF,weak,3,,,,,,,,2,1.603,,,,,,,,,,,,,,,,,,,,,,,,,,,2,weak,-71,-34,1,0,0,response5disk,1,85,0,8,1,0,0,rectangle,0,8,1,0,0,,1,6,0,0.001,0,8,1,0,0,,0,84,84,9,1,,,,,,,,,,,,,,,,,,,
,,,,,,,,,,,,,,,,,,,,,,,,,,,,,,,,,,,,,,,,,,5e3f0bbe9907e915e0179f44,6036d8b4aeeccd86578d424e,2021-02-24_22h55.45.624,Colour_Similarity_Experiment,2020.2.10,MacIntel,60,6036d0d9a84aa1626184a6ef,19.23684211,17.2281746,17.5703125,18.17241379,18.2519084,17.80570232,,,,,,,,,,,,,,,,,,,,PF,strong,3,,,,,,,,7,0.853,,,,,,,,,,,,,,,,,,,,,,,,,,,1,strong,51,81,1,0,0,response1disk,3,86,8,2,1,0,0,rectangle,8,2,1,0,0,,1,3,0,0.001,8,2,1,0,0,,0,85,85,99,1,,,,,,,,,,,,,,,,,,,
,,,,,,,,,,,,,,,,,,,,,,,,,,,,,,,,,,,,,,,,,,5e3f0bbe9907e915e0179f44,6036d8b4aeeccd86578d424e,2021-02-24_22h55.45.624,Colour_Similarity_Experiment,2020.2.10,MacIntel,60,6036d0d9a84aa1626184a6ef,19.23684211,17.2281746,17.5703125,18.17241379,18.2519084,17.80570232,,,,,,,,,,,,,,,,,,,,PF,strong,3,,,,,,,,7,1.386,,,,,,,,,,,,,,,,,,,,,,,,,,,3,strong,55,92,1,0,0,response1disk,7,87,1,-1,1,0,0,rectangle,1,-1,1,0,0,,1,4,0,0,1,-1,1,0,0,,0,86,86,118,1,,,,,,,,,,,,,,,,,,,
,,,,,,,,,,,,,,,,,,,,,,,,,,,,,,,,,,,,,,,,,,5e3f0bbe9907e915e0179f44,6036d8b4aeeccd86578d424e,2021-02-24_22h55.45.624,Colour_Similarity_Experiment,2020.2.10,MacIntel,60,6036d0d9a84aa1626184a6ef,19.23684211,17.2281746,17.5703125,18.17241379,18.2519084,17.80570232,,,,,,,,,,,,,,,,,,,,PF,weak,3,,,,,,,,7,0.919,,,,,,,,,,,,,,,,,,,,,,,,,,,7,weak,38,64,1,0,0,response1disk,9,88,13,11,1,0,0,rectangle,13,11,1,0,0,,1,6,0,0.001,13,11,1,0,0,,0,87,87,10,1,,,,,,,,,,,,,,,,,,,
,,,,,,,,,,,,,,,,,,,,,,,,,,,,,,,,,,,,,,,,,,5e3f0bbe9907e915e0179f44,6036d8b4aeeccd86578d424e,2021-02-24_22h55.45.624,Colour_Similarity_Experiment,2020.2.10,MacIntel,60,6036d0d9a84aa1626184a6ef,19.23684211,17.2281746,17.5703125,18.17241379,18.2519084,17.80570232,,,,,,,,,,,,,,,,,,,,PF,strong,3,,,,,,,,0,1.035,,,,,,,,,,,,,,,,,,,,,,,,,,,5,strong,-41,97,1,0,0,response7disk,5,89,-12,2,1,0,0,rectangle,-12,2,1,0,0,,1,7,0,0.002,-12,2,1,0,0,,0,88,88,19,1,,,,,,,,,,,,,,,,,,,
,,,,,,,,,,,,,,,,,,,,,,,,,,,,,,,,,,,,,,,,,,5e3f0bbe9907e915e0179f44,6036d8b4aeeccd86578d424e,2021-02-24_22h55.45.624,Colour_Similarity_Experiment,2020.2.10,MacIntel,60,6036d0d9a84aa1626184a6ef,19.23684211,17.2281746,17.5703125,18.17241379,18.2519084,17.80570232,,,,,,,,,,,,,,,,,,,,PF,strong,3,,,,,,,,7,0.902,,,,,,,,,,,,,,,,,,,,,,,,,,,4,strong,33,66,1,0,0,response1disk,9,90,-11,1,1,0,0,rectangle,-11,1,1,0,0,,1,4,0,0.002,-11,1,1,0,0,,0,89,89,90,1,,,,,,,,,,,,,,,,,,,
,,,,,,,,,,,,,,,,,,,,,,,,,,,,,,,,,,,,,,,,,,5e3f0bbe9907e915e0179f44,6036d8b4aeeccd86578d424e,2021-02-24_22h55.45.624,Colour_Similarity_Experiment,2020.2.10,MacIntel,60,6036d0d9a84aa1626184a6ef,19.23684211,17.2281746,17.5703125,18.17241379,18.2519084,17.80570232,,,,,,,,,,,,,,,,,,,,PF,strong,3,,,,,,,,7,0.867,,,,,,,,,,,,,,,,,,,,,,,,,,,8,strong,67,97,1,0,0,response1disk,2,91,14,-1,1,0,0,rectangle,14,-1,1,0,0,,1,7,0,0,14,-1,1,0,0,,0,90,90,22,1,,,,,,,,,,,,,,,,,,,
,,,,,,,,,,,,,,,,,,,,,,,,,,,,,,,,,,,,,,,,,,5e3f0bbe9907e915e0179f44,6036d8b4aeeccd86578d424e,2021-02-24_22h55.45.624,Colour_Similarity_Experiment,2020.2.10,MacIntel,60,6036d0d9a84aa1626184a6ef,19.23684211,17.2281746,17.5703125,18.17241379,18.2519084,17.80570232,,,,,,,,,,,,,,,,,,,,PF,weak,3,,,,,,,,1,0.952,,,,,,,,,,,,,,,,,,,,,,,,,,,5,weak,-66,31,1,0,0,response7disk,3,92,-15,0,1,0,0,rectangle,-15,0,1,0,0,,1,1,0,0,-15,0,1,0,0,,0,91,91,109,1,,,,,,,,,,,,,,,,,,,
,,,,,,,,,,,,,,,,,,,,,,,,,,,,,,,,,,,,,,,,,,5e3f0bbe9907e915e0179f44,6036d8b4aeeccd86578d424e,2021-02-24_22h55.45.624,Colour_Similarity_Experiment,2020.2.10,MacIntel,60,6036d0d9a84aa1626184a6ef,19.23684211,17.2281746,17.5703125,18.17241379,18.2519084,17.80570232,,,,,,,,,,,,,,,,,,,,PF,strong,3,,,,,,,,6,1.403,,,,,,,,,,,,,,,,,,,,,,,,,,,1,strong,69,58,1,0,0,response1disk,8,93,9,5,1,0,0,rectangle,9,5,1,0,0,,1,3,0,0.001,9,5,1,0,0,,0,92,92,27,1,,,,,,,,,,,,,,,,,,,
,,,,,,,,,,,,,,,,,,,,,,,,,,,,,,,,,,,,,,,,,,5e3f0bbe9907e915e0179f44,6036d8b4aeeccd86578d424e,2021-02-24_22h55.45.624,Colour_Similarity_Experiment,2020.2.10,MacIntel,60,6036d0d9a84aa1626184a6ef,19.23684211,17.2281746,17.5703125,18.17241379,18.2519084,17.80570232,,,,,,,,,,,,,,,,,,,,PF,weak,3,,,,,,,,6,0.935,,,,,,,,,,,,,,,,,,,,,,,,,,,6,weak,72,52,1,0,0,response1disk,8,94,15,3,1,0,0,rectangle,15,3,1,0,0,,1,4,0,0.001,15,3,1,0,0,,0,93,93,64,1,,,,,,,,,,,,,,,,,,,
,,,,,,,,,,,,,,,,,,,,,,,,,,,,,,,,,,,,,,,,,,5e3f0bbe9907e915e0179f44,6036d8b4aeeccd86578d424e,2021-02-24_22h55.45.624,Colour_Similarity_Experiment,2020.2.10,MacIntel,60,6036d0d9a84aa1626184a6ef,19.23684211,17.2281746,17.5703125,18.17241379,18.2519084,17.80570232,,,,,,,,,,,,,,,,,,,,PF,strong,3,,,,,,,,7,1.118,,,,,,,,,,,,,,,,,,,,,,,,,,,9,strong,36,51,1,0,0,response1disk,4,95,15,8,1,0,0,rectangle,15,8,1,0,0,,1,7,0,0.002,15,8,1,0,0,,0,94,94,60,1,,,,,,,,,,,,,,,,,,,
,,,,,,,,,,,,,,,,,,,,,,,,,,,,,,,,,,,,,,,,,,5e3f0bbe9907e915e0179f44,6036d8b4aeeccd86578d424e,2021-02-24_22h55.45.624,Colour_Similarity_Experiment,2020.2.10,MacIntel,60,6036d0d9a84aa1626184a6ef,19.23684211,17.2281746,17.5703125,18.17241379,18.2519084,17.80570232,,,,,,,,,,,,,,,,,,,,PF,weak,3,,,,,,,,7,1.52,,,,,,,,,,,,,,,,,,,,,,,,,,,5,weak,43,76,1,0,0,response1disk,2,96,8,5,1,0,0,rectangle,8,5,1,0,0,,1,2,0,0.002,8,5,1,0,0,,0,95,95,129,1,,,,,,,,,,,,,,,,,,,
,,,,,,,,,,,,,,,,,,,,,,,,,,,,,,,,,,,,,,,,,,5e3f0bbe9907e915e0179f44,6036d8b4aeeccd86578d424e,2021-02-24_22h55.45.624,Colour_Similarity_Experiment,2020.2.10,MacIntel,60,6036d0d9a84aa1626184a6ef,19.23684211,17.2281746,17.5703125,18.17241379,18.2519084,17.80570232,,,,,,,,,,,,,,,,,,,,PF,strong,3,,,,,,,,1,1.068,,,,,,,,,,,,,,,,,,,,,,,,,,,8,strong,-78,37,1,0,0,response7disk,8,97,-7,-4,1,0,0,rectangle,-7,-4,1,0,0,,1,3,0,0,-7,-4,1,0,0,,0,96,96,48,1,,,,,,,,,,,,,,,,,,,
,,,,,,,,,,,,,,,,,,,,,,,,,,,,,,,,,,,,,,,,,,5e3f0bbe9907e915e0179f44,6036d8b4aeeccd86578d424e,2021-02-24_22h55.45.624,Colour_Similarity_Experiment,2020.2.10,MacIntel,60,6036d0d9a84aa1626184a6ef,19.23684211,17.2281746,17.5703125,18.17241379,18.2519084,17.80570232,,,,,,,,,,,,,,,,,,,,PF,weak,3,,,,,,,,0,1.069,,,,,,,,,,,,,,,,,,,,,,,,,,,4,weak,-25,61,1,0,0,response7disk,4,98,-13,-5,1,0,0,rectangle,-13,-5,1,0,0,,1,3,0,0,-13,-5,1,0,0,,0,97,97,70,1,,,,,,,,,,,,,,,,,,,
,,,,,,,,,,,,,,,,,,,,,,,,,,,,,,,,,,,,,,,,,,5e3f0bbe9907e915e0179f44,6036d8b4aeeccd86578d424e,2021-02-24_22h55.45.624,Colour_Similarity_Experiment,2020.2.10,MacIntel,60,6036d0d9a84aa1626184a6ef,19.23684211,17.2281746,17.5703125,18.17241379,18.2519084,17.80570232,,,,,,,,,,,,,,,,,,,,PF,strong,3,,,,,,,,7,1.235,,,,,,,,,,,,,,,,,,,,,,,,,,,9,strong,41,89,1,0,0,response1disk,6,99,-1,1,1,0,0,rectangle,-1,1,1,0,0,,1,5,0,0.001,-1,1,1,0,0,,0,98,98,117,1,,,,,,,,,,,,,,,,,,,
,,,,,,,,,,,,,,,,,,,,,,,,,,,,,,,,,,,,,,,,,,5e3f0bbe9907e915e0179f44,6036d8b4aeeccd86578d424e,2021-02-24_22h55.45.624,Colour_Similarity_Experiment,2020.2.10,MacIntel,60,6036d0d9a84aa1626184a6ef,19.23684211,17.2281746,17.5703125,18.17241379,18.2519084,17.80570232,,,,,,,,,,,,,,,,,,,,PF,strong,3,,,,,,,,0,0.803,,,,,,,,,,,,,,,,,,,,,,,,,,,3,strong,-39,80,1,0,0,response7disk,4,100,-25,-12,1,0,0,rectangle,-25,-12,1,0,0,,1,0,0,0.002,-25,-12,1,0,0,,0,99,99,110,1,,,,,,,,,,,,,,,,,,,
,,,,,,,,,,,,,,,,,,,,,,,,,,,,,,,,,,,,,,,,,,5e3f0bbe9907e915e0179f44,6036d8b4aeeccd86578d424e,2021-02-24_22h55.45.624,Colour_Similarity_Experiment,2020.2.10,MacIntel,60,6036d0d9a84aa1626184a6ef,19.23684211,17.2281746,17.5703125,18.17241379,18.2519084,17.80570232,,,,,,,,,,,,,,,,,,,,PF,weak,3,,,,,,,,3,2.553,,,,,,,,,,,,,,,,,,,,,,,,,,,1,weak,-40,-70,1,0,0,response5disk,2,101,13,13,1,0,0,rectangle,13,13,1,0,0,,1,6,0,0.002,13,13,1,0,0,,0,100,100,24,1,,,,,,,,,,,,,,,,,,,
,,,,,,,,,,,,,,,,,,,,,,,,,,,,,,,,,,,,,,,,,,5e3f0bbe9907e915e0179f44,6036d8b4aeeccd86578d424e,2021-02-24_22h55.45.624,Colour_Similarity_Experiment,2020.2.10,MacIntel,60,6036d0d9a84aa1626184a6ef,19.23684211,17.2281746,17.5703125,18.17241379,18.2519084,17.80570232,,,,,,,,,,,,,,,,,,,,PF,weak,3,,,,,,,,7,0.852,,,,,,,,,,,,,,,,,,,,,,,,,,,6,weak,47,76,1,0,0,response1disk,2,102,7,-1,1,0,0,rectangle,7,-1,1,0,0,,1,1,0,0.001,7,-1,1,0,0,,0,101,101,130,1,,,,,,,,,,,,,,,,,,,
,,,,,,,,,,,,,,,,,,,,,,,,,,,,,,,,,,,,,,,,,,5e3f0bbe9907e915e0179f44,6036d8b4aeeccd86578d424e,2021-02-24_22h55.45.624,Colour_Similarity_Experiment,2020.2.10,MacIntel,60,6036d0d9a84aa1626184a6ef,19.23684211,17.2281746,17.5703125,18.17241379,18.2519084,17.80570232,,,,,,,,,,,,,,,,,,,,PF,weak,3,,,,,,,,7,1.007,,,,,,,,,,,,,,,,,,,,,,,,,,,2,weak,53,61,1,0,0,response1disk,9,103,15,8,1,0,0,rectangle,15,8,1,0,0,,1,0,0,0.001,15,8,1,0,0,,0,102,102,39,1,,,,,,,,,,,,,,,,,,,
,,,,,,,,,,,,,,,,,,,,,,,,,,,,,,,,,,,,,,,,,,5e3f0bbe9907e915e0179f44,6036d8b4aeeccd86578d424e,2021-02-24_22h55.45.624,Colour_Similarity_Experiment,2020.2.10,MacIntel,60,6036d0d9a84aa1626184a6ef,19.23684211,17.2281746,17.5703125,18.17241379,18.2519084,17.80570232,,,,,,,,,,,,,,,,,,,,PF,strong,3,,,,,,,,5,1.503,,,,,,,,,,,,,,,,,,,,,,,,,,,6,strong,78,-25,1,0,0,response3disk,8,104,-9,-3,1,0,0,rectangle,-9,-3,1,0,0,,1,2,0,0.001,-9,-3,1,0,0,,0,103,103,133,1,,,,,,,,,,,,,,,,,,,
,,,,,,,,,,,,,,,,,,,,,,,,,,,,,,,,,,,,,,,,,,5e3f0bbe9907e915e0179f44,6036d8b4aeeccd86578d424e,2021-02-24_22h55.45.624,Colour_Similarity_Experiment,2020.2.10,MacIntel,60,6036d0d9a84aa1626184a6ef,19.23684211,17.2281746,17.5703125,18.17241379,18.2519084,17.80570232,,,,,,,,,,,,,,,,,,,,PF,strong,3,,,,,,,,7,1.101,,,,,,,,,,,,,,,,,,,,,,,,,,,5,strong,47,82,1,0,0,response1disk,1,105,3,8,1,0,0,rectangle,3,8,1,0,0,,1,2,0,0,3,8,1,0,0,,0,104,104,131,1,,,,,,,,,,,,,,,,,,,
,,,,,,,,,,,,,,,,,,,,,,,,,,,,,,,,,,,,,,,,,,5e3f0bbe9907e915e0179f44,6036d8b4aeeccd86578d424e,2021-02-24_22h55.45.624,Colour_Similarity_Experiment,2020.2.10,MacIntel,60,6036d0d9a84aa1626184a6ef,19.23684211,17.2281746,17.5703125,18.17241379,18.2519084,17.80570232,,,,,,,,,,,,,,,,,,,,PF,strong,3,,,,,,,,7,0.819,,,,,,,,,,,,,,,,,,,,,,,,,,,3,strong,43,75,1,0,0,response1disk,8,106,-1,-2,1,0,0,rectangle,-1,-2,1,0,0,,1,4,0,0.001,-1,-2,1,0,0,,0,105,105,44,1,,,,,,,,,,,,,,,,,,,
,,,,,,,,,,,,,,,,,,,,,,,,,,,,,,,,,,,,,,,,,,5e3f0bbe9907e915e0179f44,6036d8b4aeeccd86578d424e,2021-02-24_22h55.45.624,Colour_Similarity_Experiment,2020.2.10,MacIntel,60,6036d0d9a84aa1626184a6ef,19.23684211,17.2281746,17.5703125,18.17241379,18.2519084,17.80570232,,,,,,,,,,,,,,,,,,,,PF,weak,3,,,,,,,,7,0.768,,,,,,,,,,,,,,,,,,,,,,,,,,,4,weak,43,74,1,0,0,response1disk,9,107,9,-4,1,0,0,rectangle,9,-4,1,0,0,,1,3,0,0.001,9,-4,1,0,0,,0,106,106,75,1,,,,,,,,,,,,,,,,,,,
,,,,,,,,,,,,,,,,,,,,,,,,,,,,,,,,,,,,,,,,,,5e3f0bbe9907e915e0179f44,6036d8b4aeeccd86578d424e,2021-02-24_22h55.45.624,Colour_Similarity_Experiment,2020.2.10,MacIntel,60,6036d0d9a84aa1626184a6ef,19.23684211,17.2281746,17.5703125,18.17241379,18.2519084,17.80570232,,,,,,,,,,,,,,,,,,,,PF,strong,3,,,,,,,,0,1.085,,,,,,,,,,,,,,,,,,,,,,,,,,,4,strong,-37,57,1,0,0,response7disk,3,108,-15,6,1,0,0,rectangle,-15,6,1,0,0,,1,5,0,0.002,-15,6,1,0,0,,0,107,107,77,1,,,,,,,,,,,,,,,,,,,
,,,,,,,,,,,,,,,,,,,,,,,,,,,,,,,,,,,,,,,,,,5e3f0bbe9907e915e0179f44,6036d8b4aeeccd86578d424e,2021-02-24_22h55.45.624,Colour_Similarity_Experiment,2020.2.10,MacIntel,60,6036d0d9a84aa1626184a6ef,19.23684211,17.2281746,17.5703125,18.17241379,18.2519084,17.80570232,,,,,,,,,,,,,,,,,,,,PF,weak,3,,,,,,,,3,1.102,,,,,,,,,,,,,,,,,,,,,,,,,,,9,weak,-44,-70,1,0,0,response5disk,1,109,-1,4,1,0,0,rectangle,-1,4,1,0,0,,1,0,0,0.001,-1,4,1,0,0,,0,108,108,74,1,,,,,,,,,,,,,,,,,,,
,,,,,,,,,,,,,,,,,,,,,,,,,,,,,,,,,,,,,,,,,,5e3f0bbe9907e915e0179f44,6036d8b4aeeccd86578d424e,2021-02-24_22h55.45.624,Colour_Similarity_Experiment,2020.2.10,MacIntel,60,6036d0d9a84aa1626184a6ef,19.23684211,17.2281746,17.5703125,18.17241379,18.2519084,17.80570232,,,,,,,,,,,,,,,,,,,,PF,strong,3,,,,,,,,7,0.968,,,,,,,,,,,,,,,,,,,,,,,,,,,8,strong,36,80,1,0,0,response1disk,4,110,9,-4,1,0,0,rectangle,9,-4,1,0,0,,1,1,0,0.001,9,-4,1,0,0,,0,109,109,88,1,,,,,,,,,,,,,,,,,,,
,,,,,,,,,,,,,,,,,,,,,,,,,,,,,,,,,,,,,,,,,,5e3f0bbe9907e915e0179f44,6036d8b4aeeccd86578d424e,2021-02-24_22h55.45.624,Colour_Similarity_Experiment,2020.2.10,MacIntel,60,6036d0d9a84aa1626184a6ef,19.23684211,17.2281746,17.5703125,18.17241379,18.2519084,17.80570232,,,,,,,,,,,,,,,,,,,,PF,weak,3,,,,,,,,7,0.668,,,,,,,,,,,,,,,,,,,,,,,,,,,4,weak,79,98,1,0,0,response1disk,1,111,11,4,1,0,0,rectangle,11,4,1,0,0,,1,5,0,0.002,11,4,1,0,0,,0,110,110,115,1,,,,,,,,,,,,,,,,,,,
,,,,,,,,,,,,,,,,,,,,,,,,,,,,,,,,,,,,,,,,,,5e3f0bbe9907e915e0179f44,6036d8b4aeeccd86578d424e,2021-02-24_22h55.45.624,Colour_Similarity_Experiment,2020.2.10,MacIntel,60,6036d0d9a84aa1626184a6ef,19.23684211,17.2281746,17.5703125,18.17241379,18.2519084,17.80570232,,,,,,,,,,,,,,,,,,,,PF,weak,3,,,,,,,,7,0.751,,,,,,,,,,,,,,,,,,,,,,,,,,,5,weak,41,68,1,0,0,response1disk,8,112,8,2,1,0,0,rectangle,8,2,1,0,0,,1,4,0,0.001,8,2,1,0,0,,0,111,111,149,1,,,,,,,,,,,,,,,,,,,
,,,,,,,,,,,,,,,,,,,,,,,,,,,,,,,,,,,,,,,,,,5e3f0bbe9907e915e0179f44,6036d8b4aeeccd86578d424e,2021-02-24_22h55.45.624,Colour_Similarity_Experiment,2020.2.10,MacIntel,60,6036d0d9a84aa1626184a6ef,19.23684211,17.2281746,17.5703125,18.17241379,18.2519084,17.80570232,,,,,,,,,,,,,,,,,,,,PF,weak,3,,,,,,,,7,0.653,,,,,,,,,,,,,,,,,,,,,,,,,,,5,weak,36,65,1,0,0,response1disk,1,113,13,5,1,0,0,rectangle,-80,38,1,0,0,response7disk_3,1,1,1,1.42,-2,10,1,0,0,rectangle,0,112,112,159,1,,,,,,,,,,,,,,,,,,,
,,,,,,,,,,,,,,,,,,,,,,,,,,,,,,,,,,,,,,,,,,5e3f0bbe9907e915e0179f44,6036d8b4aeeccd86578d424e,2021-02-24_22h55.45.624,Colour_Similarity_Experiment,2020.2.10,MacIntel,60,6036d0d9a84aa1626184a6ef,19.23684211,17.2281746,17.5703125,18.17241379,18.2519084,17.80570232,,,,,,,,,,,,,,,,,,,,PF,strong,3,,,,,,,,5,1.581,,,,,,,,,,,,,,,,,,,,,,,,,,,6,strong,86,-35,1,0,0,response3disk,4,114,-10,-2,1,0,0,rectangle,-10,-2,1,0,0,,1,2,0,0.002,-10,-2,1,0,0,,0,113,113,56,1,,,,,,,,,,,,,,,,,,,
,,,,,,,,,,,,,,,,,,,,,,,,,,,,,,,,,,,,,,,,,,5e3f0bbe9907e915e0179f44,6036d8b4aeeccd86578d424e,2021-02-24_22h55.45.624,Colour_Similarity_Experiment,2020.2.10,MacIntel,60,6036d0d9a84aa1626184a6ef,19.23684211,17.2281746,17.5703125,18.17241379,18.2519084,17.80570232,,,,,,,,,,,,,,,,,,,,PF,strong,3,,,,,,,,7,0.733,,,,,,,,,,,,,,,,,,,,,,,,,,,1,strong,35,80,1,0,0,response1disk,6,115,-4,-6,1,0,0,rectangle,-4,-6,1,0,0,,1,2,0,0,-4,-6,1,0,0,,0,114,114,58,1,,,,,,,,,,,,,,,,,,,
,,,,,,,,,,,,,,,,,,,,,,,,,,,,,,,,,,,,,,,,,,5e3f0bbe9907e915e0179f44,6036d8b4aeeccd86578d424e,2021-02-24_22h55.45.624,Colour_Similarity_Experiment,2020.2.10,MacIntel,60,6036d0d9a84aa1626184a6ef,19.23684211,17.2281746,17.5703125,18.17241379,18.2519084,17.80570232,,,,,,,,,,,,,,,,,,,,PF,strong,3,,,,,,,,7,0.618,,,,,,,,,,,,,,,,,,,,,,,,,,,1,strong,35,75,1,0,0,response1disk,7,116,-6,-4,1,0,0,rectangle,-6,-4,1,0,0,,1,3,0,0.001,-6,-4,1,0,0,,0,115,115,137,1,,,,,,,,,,,,,,,,,,,
,,,,,,,,,,,,,,,,,,,,,,,,,,,,,,,,,,,,,,,,,,5e3f0bbe9907e915e0179f44,6036d8b4aeeccd86578d424e,2021-02-24_22h55.45.624,Colour_Similarity_Experiment,2020.2.10,MacIntel,60,6036d0d9a84aa1626184a6ef,19.23684211,17.2281746,17.5703125,18.17241379,18.2519084,17.80570232,,,,,,,,,,,,,,,,,,,,PF,weak,3,,,,,,,,2,1.538,,,,,,,,,,,,,,,,,,,,,,,,,,,6,weak,-52,-32,1,0,0,response5disk,7,117,-15,-6,1,0,0,rectangle,-15,-6,1,0,0,,1,3,0,0.001,-15,-6,1,0,0,,0,116,116,50,1,,,,,,,,,,,,,,,,,,,
,,,,,,,,,,,,,,,,,,,,,,,,,,,,,,,,,,,,,,,,,,5e3f0bbe9907e915e0179f44,6036d8b4aeeccd86578d424e,2021-02-24_22h55.45.624,Colour_Similarity_Experiment,2020.2.10,MacIntel,60,6036d0d9a84aa1626184a6ef,19.23684211,17.2281746,17.5703125,18.17241379,18.2519084,17.80570232,,,,,,,,,,,,,,,,,,,,PF,strong,3,,,,,,,,7,0.768,,,,,,,,,,,,,,,,,,,,,,,,,,,9,strong,31,63,1,0,0,response1disk,3,118,4,-1,1,0,0,rectangle,4,-1,1,0,0,,1,1,0,0.001,4,-1,1,0,0,,0,117,117,141,1,,,,,,,,,,,,,,,,,,,
,,,,,,,,,,,,,,,,,,,,,,,,,,,,,,,,,,,,,,,,,,5e3f0bbe9907e915e0179f44,6036d8b4aeeccd86578d424e,2021-02-24_22h55.45.624,Colour_Similarity_Experiment,2020.2.10,MacIntel,60,6036d0d9a84aa1626184a6ef,19.23684211,17.2281746,17.5703125,18.17241379,18.2519084,17.80570232,,,,,,,,,,,,,,,,,,,,PF,weak,3,,,,,,,,3,1.669,,,,,,,,,,,,,,,,,,,,,,,,,,,3,weak,-33,-62,1,0,0,response5disk,5,119,-8,-2,1,0,0,rectangle,-8,-2,1,0,0,,1,2,0,0.001,-8,-2,1,0,0,,0,118,118,66,1,,,,,,,,,,,,,,,,,,,
,,,,,,,,,,,,,,,,,,,,,,,,,,,,,,,,,,,,,,,,,,5e3f0bbe9907e915e0179f44,6036d8b4aeeccd86578d424e,2021-02-24_22h55.45.624,Colour_Similarity_Experiment,2020.2.10,MacIntel,60,6036d0d9a84aa1626184a6ef,19.23684211,17.2281746,17.5703125,18.17241379,18.2519084,17.80570232,,,,,,,,,,,,,,,,,,,,PF,strong,3,,,,,,,,7,1.018,,,,,,,,,,,,,,,,,,,,,,,,,,,3,strong,48,106,1,0,0,response1disk,6,120,7,10,1,0,0,rectangle,7,10,1,0,0,,1,1,0,0.001,7,10,1,0,0,,0,119,119,95,1,,,,,,,,,,,,,,,,,,,
,,,,,,,,,,,,,,,,,,,,,,,,,,,,,,,,,,,,,,,,,,5e3f0bbe9907e915e0179f44,6036d8b4aeeccd86578d424e,2021-02-24_22h55.45.624,Colour_Similarity_Experiment,2020.2.10,MacIntel,60,6036d0d9a84aa1626184a6ef,19.23684211,17.2281746,17.5703125,18.17241379,18.2519084,17.80570232,,,,,,,,,,,,,,,,,,,,PF,weak,3,,,,,,,,7,0.817,,,,,,,,,,,,,,,,,,,,,,,,,,,5,weak,50,84,1,0,0,response1disk,9,121,9,3,1,0,0,rectangle,-36,-79,1,0,0,response5disk_3,3,3,1,2.004,7,-6,1,0,0,rectangle,0,120,120,136,1,,,,,,,,,,,,,,,,,,,
,,,,,,,,,,,,,,,,,,,,,,,,,,,,,,,,,,,,,,,,,,5e3f0bbe9907e915e0179f44,6036d8b4aeeccd86578d424e,2021-02-24_22h55.45.624,Colour_Similarity_Experiment,2020.2.10,MacIntel,60,6036d0d9a84aa1626184a6ef,19.23684211,17.2281746,17.5703125,18.17241379,18.2519084,17.80570232,,,,,,,,,,,,,,,,,,,,PF,strong,3,,,,,,,,1,1.737,,,,,,,,,,,,,,,,,,,,,,,,,,,1,strong,-86,26,1,0,0,response7disk,9,122,2,12,1,0,0,rectangle,2,12,1,0,0,,3,6,0,0.002,2,12,1,0,0,,0,121,121,123,1,,,,,,,,,,,,,,,,,,,
,,,,,,,,,,,,,,,,,,,,,,,,,,,,,,,,,,,,,,,,,,5e3f0bbe9907e915e0179f44,6036d8b4aeeccd86578d424e,2021-02-24_22h55.45.624,Colour_Similarity_Experiment,2020.2.10,MacIntel,60,6036d0d9a84aa1626184a6ef,19.23684211,17.2281746,17.5703125,18.17241379,18.2519084,17.80570232,,,,,,,,,,,,,,,,,,,,PF,weak,3,,,,,,,,0,0.936,,,,,,,,,,,,,,,,,,,,,,,,,,,9,weak,-38,103,1,0,0,response7disk,9,123,-8,12,1,0,0,rectangle,-8,12,1,0,0,,3,2,0,0.001,-8,12,1,0,0,,0,122,122,106,1,,,,,,,,,,,,,,,,,,,
,,,,,,,,,,,,,,,,,,,,,,,,,,,,,,,,,,,,,,,,,,5e3f0bbe9907e915e0179f44,6036d8b4aeeccd86578d424e,2021-02-24_22h55.45.624,Colour_Similarity_Experiment,2020.2.10,MacIntel,60,6036d0d9a84aa1626184a6ef,19.23684211,17.2281746,17.5703125,18.17241379,18.2519084,17.80570232,,,,,,,,,,,,,,,,,,,,PF,weak,3,,,,,,,,7,0.977,,,,,,,,,,,,,,,,,,,,,,,,,,,9,weak,74,89,1,0,0,response1disk,6,124,20,3,1,0,0,rectangle,20,3,1,0,0,,3,6,0,0.001,20,3,1,0,0,,0,123,123,148,1,,,,,,,,,,,,,,,,,,,
,,,,,,,,,,,,,,,,,,,,,,,,,,,,,,,,,,,,,,,,,,5e3f0bbe9907e915e0179f44,6036d8b4aeeccd86578d424e,2021-02-24_22h55.45.624,Colour_Similarity_Experiment,2020.2.10,MacIntel,60,6036d0d9a84aa1626184a6ef,19.23684211,17.2281746,17.5703125,18.17241379,18.2519084,17.80570232,,,,,,,,,,,,,,,,,,,,PF,weak,3,,,,,,,,7,1.035,,,,,,,,,,,,,,,,,,,,,,,,,,,8,weak,39,65,1,0,0,response1disk,3,125,14,6,1,0,0,rectangle,14,6,1,0,0,,3,4,0,0.001,14,6,1,0,0,,0,124,124,71,1,,,,,,,,,,,,,,,,,,,
,,,,,,,,,,,,,,,,,,,,,,,,,,,,,,,,,,,,,,,,,,5e3f0bbe9907e915e0179f44,6036d8b4aeeccd86578d424e,2021-02-24_22h55.45.624,Colour_Similarity_Experiment,2020.2.10,MacIntel,60,6036d0d9a84aa1626184a6ef,19.23684211,17.2281746,17.5703125,18.17241379,18.2519084,17.80570232,,,,,,,,,,,,,,,,,,,,PF,strong,3,,,,,,,,7,0.686,,,,,,,,,,,,,,,,,,,,,,,,,,,4,strong,33,66,1,0,0,response1disk,6,126,-16,-16,1,0,0,rectangle,-16,-16,1,0,0,,3,7,0,0.002,-16,-16,1,0,0,,0,125,125,122,1,,,,,,,,,,,,,,,,,,,
,,,,,,,,,,,,,,,,,,,,,,,,,,,,,,,,,,,,,,,,,,5e3f0bbe9907e915e0179f44,6036d8b4aeeccd86578d424e,2021-02-24_22h55.45.624,Colour_Similarity_Experiment,2020.2.10,MacIntel,60,6036d0d9a84aa1626184a6ef,19.23684211,17.2281746,17.5703125,18.17241379,18.2519084,17.80570232,,,,,,,,,,,,,,,,,,,,PF,weak,3,,,,,,,,7,0.734,,,,,,,,,,,,,,,,,,,,,,,,,,,3,weak,28,70,1,0,0,response1disk,7,127,-2,-6,1,0,0,rectangle,-2,-6,1,0,0,,3,7,0,0.001,-2,-6,1,0,0,,0,126,126,41,1,,,,,,,,,,,,,,,,,,,
,,,,,,,,,,,,,,,,,,,,,,,,,,,,,,,,,,,,,,,,,,5e3f0bbe9907e915e0179f44,6036d8b4aeeccd86578d424e,2021-02-24_22h55.45.624,Colour_Similarity_Experiment,2020.2.10,MacIntel,60,6036d0d9a84aa1626184a6ef,19.23684211,17.2281746,17.5703125,18.17241379,18.2519084,17.80570232,,,,,,,,,,,,,,,,,,,,PF,strong,3,,,,,,,,3,1.52,,,,,,,,,,,,,,,,,,,,,,,,,,,2,strong,-39,-66,1,0,0,response5disk,3,128,2,-4,1,0,0,rectangle,54,96,1,0,0,response1disk_3,7,7,1,1.837,7,-1,1,0,0,rectangle,0,127,127,104,1,,,,,,,,,,,,,,,,,,,
,,,,,,,,,,,,,,,,,,,,,,,,,,,,,,,,,,,,,,,,,,5e3f0bbe9907e915e0179f44,6036d8b4aeeccd86578d424e,2021-02-24_22h55.45.624,Colour_Similarity_Experiment,2020.2.10,MacIntel,60,6036d0d9a84aa1626184a6ef,19.23684211,17.2281746,17.5703125,18.17241379,18.2519084,17.80570232,,,,,,,,,,,,,,,,,,,,PF,strong,3,,,,,,,,4,1.638,,,,,,,,,,,,,,,,,,,,,,,,,,,7,strong,46,-70,1,0,0,response3disk,8,129,11,-8,1,0,0,rectangle,-38,-85,1,0,0,response5disk_3,3,3,1,1.772,-5,-3,1,0,0,rectangle,0,128,128,97,1,,,,,,,,,,,,,,,,,,,
,,,,,,,,,,,,,,,,,,,,,,,,,,,,,,,,,,,,,,,,,,5e3f0bbe9907e915e0179f44,6036d8b4aeeccd86578d424e,2021-02-24_22h55.45.624,Colour_Similarity_Experiment,2020.2.10,MacIntel,60,6036d0d9a84aa1626184a6ef,19.23684211,17.2281746,17.5703125,18.17241379,18.2519084,17.80570232,,,,,,,,,,,,,,,,,,,,PF,weak,3,,,,,,,,0,0.745,,,,,,,,,,,,,,,,,,,,,,,,,,,4,weak,-29,61,1,0,0,response7disk,3,130,-11,-12,1,0,0,rectangle,-11,-12,1,0,0,,3,4,0,0.002,-11,-12,1,0,0,,0,129,129,89,1,,,,,,,,,,,,,,,,,,,
,,,,,,,,,,,,,,,,,,,,,,,,,,,,,,,,,,,,,,,,,,5e3f0bbe9907e915e0179f44,6036d8b4aeeccd86578d424e,2021-02-24_22h55.45.624,Colour_Similarity_Experiment,2020.2.10,MacIntel,60,6036d0d9a84aa1626184a6ef,19.23684211,17.2281746,17.5703125,18.17241379,18.2519084,17.80570232,,,,,,,,,,,,,,,,,,,,PF,weak,3,,,,,,,,7,0.802,,,,,,,,,,,,,,,,,,,,,,,,,,,1,weak,47,74,1,0,0,response1disk,5,131,2,-5,1,0,0,rectangle,2,-5,1,0,0,,3,7,0,0.001,2,-5,1,0,0,,0,130,130,28,1,,,,,,,,,,,,,,,,,,,
,,,,,,,,,,,,,,,,,,,,,,,,,,,,,,,,,,,,,,,,,,5e3f0bbe9907e915e0179f44,6036d8b4aeeccd86578d424e,2021-02-24_22h55.45.624,Colour_Similarity_Experiment,2020.2.10,MacIntel,60,6036d0d9a84aa1626184a6ef,19.23684211,17.2281746,17.5703125,18.17241379,18.2519084,17.80570232,,,,,,,,,,,,,,,,,,,,PF,strong,3,,,,,,,,7,0.769,,,,,,,,,,,,,,,,,,,,,,,,,,,6,strong,44,70,1,0,0,response1disk,9,132,4,6,1,0,0,rectangle,-32,94,1,0,0,response7disk_3,0,0,1,1.437,-11,1,1,0,0,rectangle,0,131,131,160,1,,,,,,,,,,,,,,,,,,,
,,,,,,,,,,,,,,,,,,,,,,,,,,,,,,,,,,,,,,,,,,5e3f0bbe9907e915e0179f44,6036d8b4aeeccd86578d424e,2021-02-24_22h55.45.624,Colour_Similarity_Experiment,2020.2.10,MacIntel,60,6036d0d9a84aa1626184a6ef,19.23684211,17.2281746,17.5703125,18.17241379,18.2519084,17.80570232,,,,,,,,,,,,,,,,,,,,PF,weak,3,,,,,,,,7,0.719,,,,,,,,,,,,,,,,,,,,,,,,,,,2,weak,39,72,1,0,0,response1disk,4,133,4,2,1,0,0,rectangle,4,2,1,0,0,,0,5,0,0.002,4,2,1,0,0,,0,132,132,127,1,,,,,,,,,,,,,,,,,,,
,,,,,,,,,,,,,,,,,,,,,,,,,,,,,,,,,,,,,,,,,,5e3f0bbe9907e915e0179f44,6036d8b4aeeccd86578d424e,2021-02-24_22h55.45.624,Colour_Similarity_Experiment,2020.2.10,MacIntel,60,6036d0d9a84aa1626184a6ef,19.23684211,17.2281746,17.5703125,18.17241379,18.2519084,17.80570232,,,,,,,,,,,,,,,,,,,,PF,weak,3,,,,,,,,7,0.786,,,,,,,,,,,,,,,,,,,,,,,,,,,9,weak,45,84,1,0,0,response1disk,2,134,11,8,1,0,0,rectangle,11,8,1,0,0,,0,4,0,0.002,11,8,1,0,0,,0,133,133,157,1,,,,,,,,,,,,,,,,,,,
,,,,,,,,,,,,,,,,,,,,,,,,,,,,,,,,,,,,,,,,,,5e3f0bbe9907e915e0179f44,6036d8b4aeeccd86578d424e,2021-02-24_22h55.45.624,Colour_Similarity_Experiment,2020.2.10,MacIntel,60,6036d0d9a84aa1626184a6ef,19.23684211,17.2281746,17.5703125,18.17241379,18.2519084,17.80570232,,,,,,,,,,,,,,,,,,,,PF,weak,3,,,,,,,,0,0.836,,,,,,,,,,,,,,,,,,,,,,,,,,,1,weak,-34,89,1,0,0,response7disk,1,135,-4,-4,1,0,0,rectangle,-31,94,1,0,0,response7disk_3,0,0,1,1.319,-10,6,1,0,0,rectangle,0,134,134,76,1,,,,,,,,,,,,,,,,,,,
,,,,,,,,,,,,,,,,,,,,,,,,,,,,,,,,,,,,,,,,,,5e3f0bbe9907e915e0179f44,6036d8b4aeeccd86578d424e,2021-02-24_22h55.45.624,Colour_Similarity_Experiment,2020.2.10,MacIntel,60,6036d0d9a84aa1626184a6ef,19.23684211,17.2281746,17.5703125,18.17241379,18.2519084,17.80570232,,,,,,,,,,,,,,,,,,,,PF,weak,3,,,,,,,,7,0.769,,,,,,,,,,,,,,,,,,,,,,,,,,,9,weak,46,79,1,0,0,response1disk,4,136,15,6,1,0,0,rectangle,15,6,1,0,0,,0,6,0,0.001,15,6,1,0,0,,0,135,135,114,1,,,,,,,,,,,,,,,,,,,
,,,,,,,,,,,,,,,,,,,,,,,,,,,,,,,,,,,,,,,,,,5e3f0bbe9907e915e0179f44,6036d8b4aeeccd86578d424e,2021-02-24_22h55.45.624,Colour_Similarity_Experiment,2020.2.10,MacIntel,60,6036d0d9a84aa1626184a6ef,19.23684211,17.2281746,17.5703125,18.17241379,18.2519084,17.80570232,,,,,,,,,,,,,,,,,,,,PF,weak,3,,,,,,,,3,1.336,,,,,,,,,,,,,,,,,,,,,,,,,,,2,weak,-51,-55,1,0,0,response5disk,3,137,-2,-4,1,0,0,rectangle,-2,-4,1,0,0,,0,0,0,0,-2,-4,1,0,0,,0,136,136,69,1,,,,,,,,,,,,,,,,,,,
,,,,,,,,,,,,,,,,,,,,,,,,,,,,,,,,,,,,,,,,,,5e3f0bbe9907e915e0179f44,6036d8b4aeeccd86578d424e,2021-02-24_22h55.45.624,Colour_Similarity_Experiment,2020.2.10,MacIntel,60,6036d0d9a84aa1626184a6ef,19.23684211,17.2281746,17.5703125,18.17241379,18.2519084,17.80570232,,,,,,,,,,,,,,,,,,,,PF,strong,3,,,,,,,,0,0.803,,,,,,,,,,,,,,,,,,,,,,,,,,,7,strong,-42,76,1,0,0,response7disk,7,138,-9,-11,1,0,0,rectangle,-9,-11,1,0,0,,0,5,0,0.003,-9,-11,1,0,0,,0,137,137,34,1,,,,,,,,,,,,,,,,,,,
,,,,,,,,,,,,,,,,,,,,,,,,,,,,,,,,,,,,,,,,,,5e3f0bbe9907e915e0179f44,6036d8b4aeeccd86578d424e,2021-02-24_22h55.45.624,Colour_Similarity_Experiment,2020.2.10,MacIntel,60,6036d0d9a84aa1626184a6ef,19.23684211,17.2281746,17.5703125,18.17241379,18.2519084,17.80570232,,,,,,,,,,,,,,,,,,,,PF,weak,3,,,,,,,,7,0.787,,,,,,,,,,,,,,,,,,,,,,,,,,,3,weak,36,72,1,0,0,response1disk,8,139,9,-3,1,0,0,rectangle,9,-3,1,0,0,,0,7,0,0.002,9,-3,1,0,0,,0,138,138,3,1,,,,,,,,,,,,,,,,,,,
,,,,,,,,,,,,,,,,,,,,,,,,,,,,,,,,,,,,,,,,,,5e3f0bbe9907e915e0179f44,6036d8b4aeeccd86578d424e,2021-02-24_22h55.45.624,Colour_Similarity_Experiment,2020.2.10,MacIntel,60,6036d0d9a84aa1626184a6ef,19.23684211,17.2281746,17.5703125,18.17241379,18.2519084,17.80570232,,,,,,,,,,,,,,,,,,,,PF,weak,3,,,,,,,,7,0.669,,,,,,,,,,,,,,,,,,,,,,,,,,,3,weak,37,59,1,0,0,response1disk,6,140,16,5,1,0,0,rectangle,16,5,1,0,0,,0,1,0,0,16,5,1,0,0,,0,139,139,47,1,,,,,,,,,,,,,,,,,,,
,,,,,,,,,,,,,,,,,,,,,,,,,,,,,,,,,,,,,,,,,,5e3f0bbe9907e915e0179f44,6036d8b4aeeccd86578d424e,2021-02-24_22h55.45.624,Colour_Similarity_Experiment,2020.2.10,MacIntel,60,6036d0d9a84aa1626184a6ef,19.23684211,17.2281746,17.5703125,18.17241379,18.2519084,17.80570232,,,,,,,,,,,,,,,,,,,,PF,weak,3,,,,,,,,7,0.72,,,,,,,,,,,,,,,,,,,,,,,,,,,6,weak,33,60,1,0,0,response1disk,4,141,15,3,1,0,0,rectangle,15,3,1,0,0,,0,1,0,0.001,15,3,1,0,0,,0,140,140,33,1,,,,,,,,,,,,,,,,,,,
,,,,,,,,,,,,,,,,,,,,,,,,,,,,,,,,,,,,,,,,,,5e3f0bbe9907e915e0179f44,6036d8b4aeeccd86578d424e,2021-02-24_22h55.45.624,Colour_Similarity_Experiment,2020.2.10,MacIntel,60,6036d0d9a84aa1626184a6ef,19.23684211,17.2281746,17.5703125,18.17241379,18.2519084,17.80570232,,,,,,,,,,,,,,,,,,,,PF,strong,3,,,,,,,,0,0.936,,,,,,,,,,,,,,,,,,,,,,,,,,,1,strong,-25,63,1,0,0,response7disk,1,142,-3,-5,1,0,0,rectangle,-3,-5,1,0,0,,0,7,0,0.001,-3,-5,1,0,0,,0,141,141,151,1,,,,,,,,,,,,,,,,,,,
,,,,,,,,,,,,,,,,,,,,,,,,,,,,,,,,,,,,,,,,,,5e3f0bbe9907e915e0179f44,6036d8b4aeeccd86578d424e,2021-02-24_22h55.45.624,Colour_Similarity_Experiment,2020.2.10,MacIntel,60,6036d0d9a84aa1626184a6ef,19.23684211,17.2281746,17.5703125,18.17241379,18.2519084,17.80570232,,,,,,,,,,,,,,,,,,,,PF,weak,3,,,,,,,,7,0.719,,,,,,,,,,,,,,,,,,,,,,,,,,,7,weak,47,96,1,0,0,response1disk,3,143,9,10,1,0,0,rectangle,9,10,1,0,0,,0,0,0,0,9,10,1,0,0,,0,142,142,81,1,,,,,,,,,,,,,,,,,,,
,,,,,,,,,,,,,,,,,,,,,,,,,,,,,,,,,,,,,,,,,,5e3f0bbe9907e915e0179f44,6036d8b4aeeccd86578d424e,2021-02-24_22h55.45.624,Colour_Similarity_Experiment,2020.2.10,MacIntel,60,6036d0d9a84aa1626184a6ef,19.23684211,17.2281746,17.5703125,18.17241379,18.2519084,17.80570232,,,,,,,,,,,,,,,,,,,,PF,weak,3,,,,,,,,7,0.715,,,,,,,,,,,,,,,,,,,,,,,,,,,9,weak,31,57,1,0,0,response1disk,5,144,17,3,1,0,0,rectangle,17,3,1,0,0,,0,2,0,0.002,17,3,1,0,0,,0,143,143,134,1,,,,,,,,,,,,,,,,,,,
,,,,,,,,,,,,,,,,,,,,,,,,,,,,,,,,,,,,,,,,,,5e3f0bbe9907e915e0179f44,6036d8b4aeeccd86578d424e,2021-02-24_22h55.45.624,Colour_Similarity_Experiment,2020.2.10,MacIntel,60,6036d0d9a84aa1626184a6ef,19.23684211,17.2281746,17.5703125,18.17241379,18.2519084,17.80570232,,,,,,,,,,,,,,,,,,,,PF,strong,3,,,,,,,,7,0.888,,,,,,,,,,,,,,,,,,,,,,,,,,,4,strong,41,61,1,0,0,response1disk,8,145,6,1,1,0,0,rectangle,6,1,1,0,0,,0,3,0,0.001,6,1,1,0,0,,0,144,144,35,1,,,,,,,,,,,,,,,,,,,
,,,,,,,,,,,,,,,,,,,,,,,,,,,,,,,,,,,,,,,,,,5e3f0bbe9907e915e0179f44,6036d8b4aeeccd86578d424e,2021-02-24_22h55.45.624,Colour_Similarity_Experiment,2020.2.10,MacIntel,60,6036d0d9a84aa1626184a6ef,19.23684211,17.2281746,17.5703125,18.17241379,18.2519084,17.80570232,,,,,,,,,,,,,,,,,,,,PF,strong,3,,,,,,,,7,0.736,,,,,,,,,,,,,,,,,,,,,,,,,,,5,strong,69,95,1,0,0,response1disk,9,146,10,1,1,0,0,rectangle,10,1,1,0,0,,0,6,0,0,10,1,1,0,0,,0,145,145,61,1,,,,,,,,,,,,,,,,,,,
,,,,,,,,,,,,,,,,,,,,,,,,,,,,,,,,,,,,,,,,,,5e3f0bbe9907e915e0179f44,6036d8b4aeeccd86578d424e,2021-02-24_22h55.45.624,Colour_Similarity_Experiment,2020.2.10,MacIntel,60,6036d0d9a84aa1626184a6ef,19.23684211,17.2281746,17.5703125,18.17241379,18.2519084,17.80570232,,,,,,,,,,,,,,,,,,,,PF,strong,3,,,,,,,,6,2.189,,,,,,,,,,,,,,,,,,,,,,,,,,,8,strong,96,37,1,0,0,response1disk,1,147,16,5,1,0,0,rectangle,16,5,1,0,0,,0,7,0,0,16,5,1,0,0,,0,146,146,20,1,,,,,,,,,,,,,,,,,,,
,,,,,,,,,,,,,,,,,,,,,,,,,,,,,,,,,,,,,,,,,,5e3f0bbe9907e915e0179f44,6036d8b4aeeccd86578d424e,2021-02-24_22h55.45.624,Colour_Similarity_Experiment,2020.2.10,MacIntel,60,6036d0d9a84aa1626184a6ef,19.23684211,17.2281746,17.5703125,18.17241379,18.2519084,17.80570232,,,,,,,,,,,,,,,,,,,,PF,weak,3,,,,,,,,6,0.835,,,,,,,,,,,,,,,,,,,,,,,,,,,8,weak,77,24,1,0,0,response1disk,1,148,6,4,1,0,0,rectangle,6,4,1,0,0,,0,0,0,0.001,6,4,1,0,0,,0,147,147,57,1,,,,,,,,,,,,,,,,,,,
,,,,,,,,,,,,,,,,,,,,,,,,,,,,,,,,,,,,,,,,,,5e3f0bbe9907e915e0179f44,6036d8b4aeeccd86578d424e,2021-02-24_22h55.45.624,Colour_Similarity_Experiment,2020.2.10,MacIntel,60,6036d0d9a84aa1626184a6ef,19.23684211,17.2281746,17.5703125,18.17241379,18.2519084,17.80570232,,,,,,,,,,,,,,,,,,,,PF,weak,3,,,,,,,,7,1.001,,,,,,,,,,,,,,,,,,,,,,,,,,,7,weak,32,66,1,0,0,response1disk,4,149,7,4,1,0,0,rectangle,7,4,1,0,0,,0,3,0,0,7,4,1,0,0,,0,148,148,43,1,,,,,,,,,,,,,,,,,,,
,,,,,,,,,,,,,,,,,,,,,,,,,,,,,,,,,,,,,,,,,,5e3f0bbe9907e915e0179f44,6036d8b4aeeccd86578d424e,2021-02-24_22h55.45.624,Colour_Similarity_Experiment,2020.2.10,MacIntel,60,6036d0d9a84aa1626184a6ef,19.23684211,17.2281746,17.5703125,18.17241379,18.2519084,17.80570232,,,,,,,,,,,,,,,,,,,,PF,strong,3,,,,,,,,1,1.152,,,,,,,,,,,,,,,,,,,,,,,,,,,7,strong,-77,37,1,0,0,response7disk,6,150,8,-2,1,0,0,rectangle,8,-2,1,0,0,,0,4,0,0.002,8,-2,1,0,0,,0,149,149,31,1,,,,,,,,,,,,,,,,,,,
,,,,,,,,,,,,,,,,,,,,,,,,,,,,,,,,,,,,,,,,,,5e3f0bbe9907e915e0179f44,6036d8b4aeeccd86578d424e,2021-02-24_22h55.45.624,Colour_Similarity_Experiment,2020.2.10,MacIntel,60,6036d0d9a84aa1626184a6ef,19.23684211,17.2281746,17.5703125,18.17241379,18.2519084,17.80570232,,,,,,,,,,,,,,,,,,,,PF,strong,3,,,,,,,,7,0.803,,,,,,,,,,,,,,,,,,,,,,,,,,,9,strong,33,52,1,0,0,response1disk,7,151,15,2,1,0,0,rectangle,15,2,1,0,0,,0,0,0,0.002,15,2,1,0,0,,0,150,150,100,1,,,,,,,,,,,,,,,,,,,
,,,,,,,,,,,,,,,,,,,,,,,,,,,,,,,,,,,,,,,,,,5e3f0bbe9907e915e0179f44,6036d8b4aeeccd86578d424e,2021-02-24_22h55.45.624,Colour_Similarity_Experiment,2020.2.10,MacIntel,60,6036d0d9a84aa1626184a6ef,19.23684211,17.2281746,17.5703125,18.17241379,18.2519084,17.80570232,,,,,,,,,,,,,,,,,,,,PF,strong,3,,,,,,,,7,0.734,,,,,,,,,,,,,,,,,,,,,,,,,,,4,strong,48,79,1,0,0,response1disk,1,152,6,2,1,0,0,rectangle,6,2,1,0,0,,0,6,0,0.001,6,2,1,0,0,,0,151,151,102,1,,,,,,,,,,,,,,,,,,,
,,,,,,,,,,,,,,,,,,,,,,,,,,,,,,,,,,,,,,,,,,5e3f0bbe9907e915e0179f44,6036d8b4aeeccd86578d424e,2021-02-24_22h55.45.624,Colour_Similarity_Experiment,2020.2.10,MacIntel,60,6036d0d9a84aa1626184a6ef,19.23684211,17.2281746,17.5703125,18.17241379,18.2519084,17.80570232,,,,,,,,,,,,,,,,,,,,PF,weak,3,,,,,,,,7,0.667,,,,,,,,,,,,,,,,,,,,,,,,,,,7,weak,35,67,1,0,0,response1disk,1,153,13,9,1,0,0,rectangle,13,9,1,0,0,,0,1,0,0.001,13,9,1,0,0,,0,152,152,53,1,,,,,,,,,,,,,,,,,,,
,,,,,,,,,,,,,,,,,,,,,,,,,,,,,,,,,,,,,,,,,,5e3f0bbe9907e915e0179f44,6036d8b4aeeccd86578d424e,2021-02-24_22h55.45.624,Colour_Similarity_Experiment,2020.2.10,MacIntel,60,6036d0d9a84aa1626184a6ef,19.23684211,17.2281746,17.5703125,18.17241379,18.2519084,17.80570232,,,,,,,,,,,,,,,,,,,,PF,weak,3,,,,,,,,0,0.701,,,,,,,,,,,,,,,,,,,,,,,,,,,5,weak,-22,58,1,0,0,response7disk,5,154,-6,10,1,0,0,rectangle,-6,10,1,0,0,,0,7,0,0.001,-6,10,1,0,0,,0,153,153,94,1,,,,,,,,,,,,,,,,,,,
,,,,,,,,,,,,,,,,,,,,,,,,,,,,,,,,,,,,,,,,,,5e3f0bbe9907e915e0179f44,6036d8b4aeeccd86578d424e,2021-02-24_22h55.45.624,Colour_Similarity_Experiment,2020.2.10,MacIntel,60,6036d0d9a84aa1626184a6ef,19.23684211,17.2281746,17.5703125,18.17241379,18.2519084,17.80570232,,,,,,,,,,,,,,,,,,,,PF,weak,3,,,,,,,,0,0.72,,,,,,,,,,,,,,,,,,,,,,,,,,,6,weak,-48,76,1,0,0,response7disk,6,155,-7,7,1,0,0,rectangle,-7,7,1,0,0,,0,4,0,0.001,-7,7,1,0,0,,0,154,154,0,1,,,,,,,,,,,,,,,,,,,
,,,,,,,,,,,,,,,,,,,,,,,,,,,,,,,,,,,,,,,,,,5e3f0bbe9907e915e0179f44,6036d8b4aeeccd86578d424e,2021-02-24_22h55.45.624,Colour_Similarity_Experiment,2020.2.10,MacIntel,60,6036d0d9a84aa1626184a6ef,19.23684211,17.2281746,17.5703125,18.17241379,18.2519084,17.80570232,,,,,,,,,,,,,,,,,,,,PF,weak,3,,,,,,,,0,0.694,,,,,,,,,,,,,,,,,,,,,,,,,,,3,weak,-28,65,1,0,0,response7disk,3,156,0,9,1,0,0,rectangle,0,9,1,0,0,,0,3,0,0.001,0,9,1,0,0,,0,155,155,4,1,,,,,,,,,,,,,,,,,,,
,,,,,,,,,,,,,,,,,,,,,,,,,,,,,,,,,,,,,,,,,,5e3f0bbe9907e915e0179f44,6036d8b4aeeccd86578d424e,2021-02-24_22h55.45.624,Colour_Similarity_Experiment,2020.2.10,MacIntel,60,6036d0d9a84aa1626184a6ef,19.23684211,17.2281746,17.5703125,18.17241379,18.2519084,17.80570232,,,,,,,,,,,,,,,,,,,,PF,strong,3,,,,,,,,7,0.802,,,,,,,,,,,,,,,,,,,,,,,,,,,2,strong,40,81,1,0,0,response1disk,5,157,14,14,1,0,0,rectangle,14,14,1,0,0,,7,3,0,0.001,14,14,1,0,0,,0,156,156,80,1,,,,,,,,,,,,,,,,,,,
,,,,,,,,,,,,,,,,,,,,,,,,,,,,,,,,,,,,,,,,,,5e3f0bbe9907e915e0179f44,6036d8b4aeeccd86578d424e,2021-02-24_22h55.45.624,Colour_Similarity_Experiment,2020.2.10,MacIntel,60,6036d0d9a84aa1626184a6ef,19.23684211,17.2281746,17.5703125,18.17241379,18.2519084,17.80570232,,,,,,,,,,,,,,,,,,,,PF,weak,3,,,,,,,,7,0.668,,,,,,,,,,,,,,,,,,,,,,,,,,,3,weak,38,68,1,0,0,response1disk,9,158,10,2,1,0,0,rectangle,10,2,1,0,0,,7,5,0,0.002,10,2,1,0,0,,0,157,157,79,1,,,,,,,,,,,,,,,,,,,
,,,,,,,,,,,,,,,,,,,,,,,,,,,,,,,,,,,,,,,,,,5e3f0bbe9907e915e0179f44,6036d8b4aeeccd86578d424e,2021-02-24_22h55.45.624,Colour_Similarity_Experiment,2020.2.10,MacIntel,60,6036d0d9a84aa1626184a6ef,19.23684211,17.2281746,17.5703125,18.17241379,18.2519084,17.80570232,,,,,,,,,,,,,,,,,,,,PF,strong,3,,,,,,,,3,1.339,,,,,,,,,,,,,,,,,,,,,,,,,,,8,strong,-33,-57,1,0,0,response5disk,5,159,17,-2,1,0,0,rectangle,17,-2,1,0,0,,7,0,0,0,17,-2,1,0,0,,0,158,158,152,1,,,,,,,,,,,,,,,,,,,
,,,,,,,,,,,,,,,,,,,,,,,,,,,,,,,,,,,,,,,,,,5e3f0bbe9907e915e0179f44,6036d8b4aeeccd86578d424e,2021-02-24_22h55.45.624,Colour_Similarity_Experiment,2020.2.10,MacIntel,60,6036d0d9a84aa1626184a6ef,19.23684211,17.2281746,17.5703125,18.17241379,18.2519084,17.80570232,,,,,,,,,,,,,,,,,,,,PF,strong,3,,,,,,,,3,1.57,,,,,,,,,,,,,,,,,,,,,,,,,,,8,strong,-35,-85,1,0,0,response5disk,9,160,3,9,1,0,0,rectangle,3,9,1,0,0,,7,4,0,0.001,3,9,1,0,0,,0,159,159,105,1,,,,,,,,,,,,,,,,,,,
,,,,,,,,,,,,,,,,,,,,,,,,,,,,,,,,,,,,,,,,,,5e3f0bbe9907e915e0179f44,6036d8b4aeeccd86578d424e,2021-02-24_22h55.45.624,Colour_Similarity_Experiment,2020.2.10,MacIntel,60,6036d0d9a84aa1626184a6ef,19.23684211,17.2281746,17.5703125,18.17241379,18.2519084,17.80570232,,,,,,,,,,,,,,,,,,,,PF,weak,3,,,,,,,,4,1.47,,,,,,,,,,,,,,,,,,,,,,,,,,,8,weak,39,-70,1,0,0,response3disk,6,161,13,-1,1,0,0,rectangle,-73,-30,1,0,0,response5disk_3,7,2,1,1.805,15,5,1,0,0,rectangle,0,160,160,161,1,,,,,,,,,,,,,,,,,,,
,,,,,,,,,,,,,,,,,,,,,,,,,,,,,,,,,,,,,,,,,,5e3f0bbe9907e915e0179f44,6036d8b4aeeccd86578d424e,2021-02-24_22h55.45.624,Colour_Similarity_Experiment,2020.2.10,MacIntel,60,6036d0d9a84aa1626184a6ef,19.23684211,17.2281746,17.5703125,18.17241379,18.2519084,17.80570232,,,,,,,,,,,,,,,,,,,,PF,strong,3,,,,,,,,2,1.601,,,,,,,,,,,,,,,,,,,,,,,,,,,9,strong,-76,-41,1,0,0,response5disk,8,162,-5,-4,1,0,0,rectangle,-5,-4,1,0,0,,7,4,0,0.001,-5,-4,1,0,0,,0,161,161,6,1,,,,,,,,,,,,,,,,,,,
,,,,,,,,,,,,,,,,,,,,,,,,,,,,,,,,,,,,,,,,,,5e3f0bbe9907e915e0179f44,6036d8b4aeeccd86578d424e,2021-02-24_22h55.45.624,Colour_Similarity_Experiment,2020.2.10,MacIntel,60,6036d0d9a84aa1626184a6ef,19.23684211,17.2281746,17.5703125,18.17241379,18.2519084,17.80570232,,,,,,,,,,,,,,,,,,,,,,,,,,,,,,,,,,,,,,,,,,,,,,,,,,,,,,,,,,,,,,,,,,,,,,,,,,,,,,,,,,,,,,,,,,,,,,,0,0,0,0,1,,,,,,,,,,,,,,
,,,,,,,,,,,,,,,,,,,,,,,,,,,,,,,,,,,,,,,,,,5e3f0bbe9907e915e0179f44,6036d8b4aeeccd86578d424e,2021-02-24_22h55.45.624,Colour_Similarity_Experiment,2020.2.10,MacIntel,60,6036d0d9a84aa1626184a6ef,19.23684211,17.2281746,17.5703125,18.17241379,18.2519084,17.80570232,,,,,,,,,,,,,,,,,,,,PF,weak,3,,,,,,,,3,1.17,,,,,,,,,,,,,,,,,,,,,,,,,,,3,weak,-32,-56,1,0,0,response5disk,2,163,-12,-8,1,0,0,rectangle,65,-40,1,0,0,response3disk_3,5,5,1,1.787,0,-1,1,0,0,rectangle,0,0,0,36,1,,,,,,,,,,,,,,,,,,,
,,,,,,,,,,,,,,,,,,,,,,,,,,,,,,,,,,,,,,,,,,5e3f0bbe9907e915e0179f44,6036d8b4aeeccd86578d424e,2021-02-24_22h55.45.624,Colour_Similarity_Experiment,2020.2.10,MacIntel,60,6036d0d9a84aa1626184a6ef,19.23684211,17.2281746,17.5703125,18.17241379,18.2519084,17.80570232,,,,,,,,,,,,,,,,,,,,PF,strong,3,,,,,,,,7,0.918,,,,,,,,,,,,,,,,,,,,,,,,,,,7,strong,33,70,1,0,0,response1disk,1,164,3,-5,1,0,0,rectangle,3,-5,1,0,0,,5,4,0,0.001,3,-5,1,0,0,,0,1,1,132,1,,,,,,,,,,,,,,,,,,,
,,,,,,,,,,,,,,,,,,,,,,,,,,,,,,,,,,,,,,,,,,5e3f0bbe9907e915e0179f44,6036d8b4aeeccd86578d424e,2021-02-24_22h55.45.624,Colour_Similarity_Experiment,2020.2.10,MacIntel,60,6036d0d9a84aa1626184a6ef,19.23684211,17.2281746,17.5703125,18.17241379,18.2519084,17.80570232,,,,,,,,,,,,,,,,,,,,PF,strong,3,,,,,,,,0,0.751,,,,,,,,,,,,,,,,,,,,,,,,,,,9,strong,-38,61,1,0,0,response7disk,9,165,-3,-7,1,0,0,rectangle,-3,-7,1,0,0,,5,2,0,0.002,-3,-7,1,0,0,,0,2,2,17,1,,,,,,,,,,,,,,,,,,,
,,,,,,,,,,,,,,,,,,,,,,,,,,,,,,,,,,,,,,,,,,5e3f0bbe9907e915e0179f44,6036d8b4aeeccd86578d424e,2021-02-24_22h55.45.624,Colour_Similarity_Experiment,2020.2.10,MacIntel,60,6036d0d9a84aa1626184a6ef,19.23684211,17.2281746,17.5703125,18.17241379,18.2519084,17.80570232,,,,,,,,,,,,,,,,,,,,PF,weak,3,,,,,,,,7,0.935,,,,,,,,,,,,,,,,,,,,,,,,,,,8,weak,38,75,1,0,0,response1disk,2,166,10,0,1,0,0,rectangle,10,0,1,0,0,,5,5,0,0.002,10,0,1,0,0,,0,3,3,83,1,,,,,,,,,,,,,,,,,,,
,,,,,,,,,,,,,,,,,,,,,,,,,,,,,,,,,,,,,,,,,,5e3f0bbe9907e915e0179f44,6036d8b4aeeccd86578d424e,2021-02-24_22h55.45.624,Colour_Similarity_Experiment,2020.2.10,MacIntel,60,6036d0d9a84aa1626184a6ef,19.23684211,17.2281746,17.5703125,18.17241379,18.2519084,17.80570232,,,,,,,,,,,,,,,,,,,,PF,weak,3,,,,,,,,7,0.718,,,,,,,,,,,,,,,,,,,,,,,,,,,9,weak,43,73,1,0,0,response1disk,7,167,17,13,1,0,0,rectangle,17,13,1,0,0,,5,5,0,0,17,13,1,0,0,,0,4,4,121,1,,,,,,,,,,,,,,,,,,,
,,,,,,,,,,,,,,,,,,,,,,,,,,,,,,,,,,,,,,,,,,5e3f0bbe9907e915e0179f44,6036d8b4aeeccd86578d424e,2021-02-24_22h55.45.624,Colour_Similarity_Experiment,2020.2.10,MacIntel,60,6036d0d9a84aa1626184a6ef,19.23684211,17.2281746,17.5703125,18.17241379,18.2519084,17.80570232,,,,,,,,,,,,,,,,,,,,PF,weak,3,,,,,,,,7,0.769,,,,,,,,,,,,,,,,,,,,,,,,,,,6,weak,27,66,1,0,0,response1disk,3,168,3,-5,1,0,0,rectangle,3,-5,1,0,0,,5,4,0,0.001,3,-5,1,0,0,,0,5,5,26,1,,,,,,,,,,,,,,,,,,,
,,,,,,,,,,,,,,,,,,,,,,,,,,,,,,,,,,,,,,,,,,5e3f0bbe9907e915e0179f44,6036d8b4aeeccd86578d424e,2021-02-24_22h55.45.624,Colour_Similarity_Experiment,2020.2.10,MacIntel,60,6036d0d9a84aa1626184a6ef,19.23684211,17.2281746,17.5703125,18.17241379,18.2519084,17.80570232,,,,,,,,,,,,,,,,,,,,PF,weak,3,,,,,,,,0,0.768,,,,,,,,,,,,,,,,,,,,,,,,,,,7,weak,-34,79,1,0,0,response7disk,7,169,0,8,1,0,0,rectangle,0,8,1,0,0,,5,0,0,0.001,0,8,1,0,0,,0,6,6,51,1,,,,,,,,,,,,,,,,,,,
,,,,,,,,,,,,,,,,,,,,,,,,,,,,,,,,,,,,,,,,,,5e3f0bbe9907e915e0179f44,6036d8b4aeeccd86578d424e,2021-02-24_22h55.45.624,Colour_Similarity_Experiment,2020.2.10,MacIntel,60,6036d0d9a84aa1626184a6ef,19.23684211,17.2281746,17.5703125,18.17241379,18.2519084,17.80570232,,,,,,,,,,,,,,,,,,,,PF,weak,3,,,,,,,,2,1.487,,,,,,,,,,,,,,,,,,,,,,,,,,,1,weak,-59,-41,1,0,0,response5disk,9,170,-5,-5,1,0,0,rectangle,-5,-5,1,0,0,,5,2,0,0.001,-5,-5,1,0,0,,0,7,7,15,1,,,,,,,,,,,,,,,,,,,
,,,,,,,,,,,,,,,,,,,,,,,,,,,,,,,,,,,,,,,,,,5e3f0bbe9907e915e0179f44,6036d8b4aeeccd86578d424e,2021-02-24_22h55.45.624,Colour_Similarity_Experiment,2020.2.10,MacIntel,60,6036d0d9a84aa1626184a6ef,19.23684211,17.2281746,17.5703125,18.17241379,18.2519084,17.80570232,,,,,,,,,,,,,,,,,,,,PF,strong,3,,,,,,,,2,2.353,,,,,,,,,,,,,,,,,,,,,,,,,,,2,strong,-70,-51,1,0,0,response5disk,1,171,-15,-11,1,0,0,rectangle,-15,-11,1,0,0,,5,1,0,0.001,-15,-11,1,0,0,,0,8,8,85,1,,,,,,,,,,,,,,,,,,,
,,,,,,,,,,,,,,,,,,,,,,,,,,,,,,,,,,,,,,,,,,5e3f0bbe9907e915e0179f44,6036d8b4aeeccd86578d424e,2021-02-24_22h55.45.624,Colour_Similarity_Experiment,2020.2.10,MacIntel,60,6036d0d9a84aa1626184a6ef,19.23684211,17.2281746,17.5703125,18.17241379,18.2519084,17.80570232,,,,,,,,,,,,,,,,,,,,PF,strong,3,,,,,,,,0,0.852,,,,,,,,,,,,,,,,,,,,,,,,,,,3,strong,-42,43,1,0,0,response7disk,3,172,-8,0,1,0,0,rectangle,-8,0,1,0,0,,5,7,0,0.002,-8,0,1,0,0,,0,9,9,68,1,,,,,,,,,,,,,,,,,,,
,,,,,,,,,,,,,,,,,,,,,,,,,,,,,,,,,,,,,,,,,,5e3f0bbe9907e915e0179f44,6036d8b4aeeccd86578d424e,2021-02-24_22h55.45.624,Colour_Similarity_Experiment,2020.2.10,MacIntel,60,6036d0d9a84aa1626184a6ef,19.23684211,17.2281746,17.5703125,18.17241379,18.2519084,17.80570232,,,,,,,,,,,,,,,,,,,,PF,weak,3,,,,,,,,7,0.882,,,,,,,,,,,,,,,,,,,,,,,,,,,1,weak,43,70,1,0,0,response1disk,6,173,-2,-2,1,0,0,rectangle,-2,-2,1,0,0,,5,1,0,0.001,-2,-2,1,0,0,,0,10,10,144,1,,,,,,,,,,,,,,,,,,,
,,,,,,,,,,,,,,,,,,,,,,,,,,,,,,,,,,,,,,,,,,5e3f0bbe9907e915e0179f44,6036d8b4aeeccd86578d424e,2021-02-24_22h55.45.624,Colour_Similarity_Experiment,2020.2.10,MacIntel,60,6036d0d9a84aa1626184a6ef,19.23684211,17.2281746,17.5703125,18.17241379,18.2519084,17.80570232,,,,,,,,,,,,,,,,,,,,PF,weak,3,,,,,,,,7,0.668,,,,,,,,,,,,,,,,,,,,,,,,,,,1,weak,33,74,1,0,0,response1disk,4,174,-5,6,1,0,0,rectangle,-5,6,1,0,0,,5,5,0,0.001,-5,6,1,0,0,,0,11,11,139,1,,,,,,,,,,,,,,,,,,,
,,,,,,,,,,,,,,,,,,,,,,,,,,,,,,,,,,,,,,,,,,5e3f0bbe9907e915e0179f44,6036d8b4aeeccd86578d424e,2021-02-24_22h55.45.624,Colour_Similarity_Experiment,2020.2.10,MacIntel,60,6036d0d9a84aa1626184a6ef,19.23684211,17.2281746,17.5703125,18.17241379,18.2519084,17.80570232,,,,,,,,,,,,,,,,,,,,PF,strong,3,,,,,,,,5,2.635,,,,,,,,,,,,,,,,,,,,,,,,,,,5,strong,80,-33,1,0,0,response3disk,6,175,-12,7,1,0,0,rectangle,-12,7,1,0,0,,5,4,0,0.002,-12,7,1,0,0,,0,12,12,12,1,,,,,,,,,,,,,,,,,,,
,,,,,,,,,,,,,,,,,,,,,,,,,,,,,,,,,,,,,,,,,,5e3f0bbe9907e915e0179f44,6036d8b4aeeccd86578d424e,2021-02-24_22h55.45.624,Colour_Similarity_Experiment,2020.2.10,MacIntel,60,6036d0d9a84aa1626184a6ef,19.23684211,17.2281746,17.5703125,18.17241379,18.2519084,17.80570232,,,,,,,,,,,,,,,,,,,,PF,weak,3,,,,,,,,1,1.402,,,,,,,,,,,,,,,,,,,,,,,,,,,8,weak,-64,44,1,0,0,response7disk,8,176,-8,10,1,0,0,rectangle,-8,10,1,0,0,,5,5,0,0,-8,10,1,0,0,,0,13,13,153,1,,,,,,,,,,,,,,,,,,,
,,,,,,,,,,,,,,,,,,,,,,,,,,,,,,,,,,,,,,,,,,5e3f0bbe9907e915e0179f44,6036d8b4aeeccd86578d424e,2021-02-24_22h55.45.624,Colour_Similarity_Experiment,2020.2.10,MacIntel,60,6036d0d9a84aa1626184a6ef,19.23684211,17.2281746,17.5703125,18.17241379,18.2519084,17.80570232,,,,,,,,,,,,,,,,,,,,PF,strong,3,,,,,,,,7,0.785,,,,,,,,,,,,,,,,,,,,,,,,,,,2,strong,39,74,1,0,0,response1disk,4,177,9,1,1,0,0,rectangle,9,1,1,0,0,,5,4,0,0.001,9,1,1,0,0,,0,14,14,145,1,,,,,,,,,,,,,,,,,,,
,,,,,,,,,,,,,,,,,,,,,,,,,,,,,,,,,,,,,,,,,,5e3f0bbe9907e915e0179f44,6036d8b4aeeccd86578d424e,2021-02-24_22h55.45.624,Colour_Similarity_Experiment,2020.2.10,MacIntel,60,6036d0d9a84aa1626184a6ef,19.23684211,17.2281746,17.5703125,18.17241379,18.2519084,17.80570232,,,,,,,,,,,,,,,,,,,,PF,strong,3,,,,,,,,7,0.768,,,,,,,,,,,,,,,,,,,,,,,,,,,3,strong,42,66,1,0,0,response1disk,2,178,16,4,1,0,0,rectangle,16,4,1,0,0,,5,2,0,0.001,16,4,1,0,0,,0,15,15,93,1,,,,,,,,,,,,,,,,,,,
,,,,,,,,,,,,,,,,,,,,,,,,,,,,,,,,,,,,,,,,,,5e3f0bbe9907e915e0179f44,6036d8b4aeeccd86578d424e,2021-02-24_22h55.45.624,Colour_Similarity_Experiment,2020.2.10,MacIntel,60,6036d0d9a84aa1626184a6ef,19.23684211,17.2281746,17.5703125,18.17241379,18.2519084,17.80570232,,,,,,,,,,,,,,,,,,,,PF,strong,3,,,,,,,,7,0.701,,,,,,,,,,,,,,,,,,,,,,,,,,,6,strong,47,72,1,0,0,response1disk,3,179,21,9,1,0,0,rectangle,21,9,1,0,0,,5,6,0,0.001,21,9,1,0,0,,0,16,16,21,1,,,,,,,,,,,,,,,,,,,
,,,,,,,,,,,,,,,,,,,,,,,,,,,,,,,,,,,,,,,,,,5e3f0bbe9907e915e0179f44,6036d8b4aeeccd86578d424e,2021-02-24_22h55.45.624,Colour_Similarity_Experiment,2020.2.10,MacIntel,60,6036d0d9a84aa1626184a6ef,19.23684211,17.2281746,17.5703125,18.17241379,18.2519084,17.80570232,,,,,,,,,,,,,,,,,,,,PF,strong,3,,,,,,,,7,0.718,,,,,,,,,,,,,,,,,,,,,,,,,,,6,strong,49,72,1,0,0,response1disk,1,180,21,8,1,0,0,rectangle,21,8,1,0,0,,5,6,0,0,21,8,1,0,0,,0,17,17,5,1,,,,,,,,,,,,,,,,,,,
,,,,,,,,,,,,,,,,,,,,,,,,,,,,,,,,,,,,,,,,,,5e3f0bbe9907e915e0179f44,6036d8b4aeeccd86578d424e,2021-02-24_22h55.45.624,Colour_Similarity_Experiment,2020.2.10,MacIntel,60,6036d0d9a84aa1626184a6ef,19.23684211,17.2281746,17.5703125,18.17241379,18.2519084,17.80570232,,,,,,,,,,,,,,,,,,,,PF,weak,3,,,,,,,,7,0.702,,,,,,,,,,,,,,,,,,,,,,,,,,,8,weak,33,64,1,0,0,response1disk,4,181,2,-10,1,0,0,rectangle,2,-10,1,0,0,,5,7,0,0.001,2,-10,1,0,0,,0,18,18,78,1,,,,,,,,,,,,,,,,,,,
,,,,,,,,,,,,,,,,,,,,,,,,,,,,,,,,,,,,,,,,,,5e3f0bbe9907e915e0179f44,6036d8b4aeeccd86578d424e,2021-02-24_22h55.45.624,Colour_Similarity_Experiment,2020.2.10,MacIntel,60,6036d0d9a84aa1626184a6ef,19.23684211,17.2281746,17.5703125,18.17241379,18.2519084,17.80570232,,,,,,,,,,,,,,,,,,,,PF,strong,3,,,,,,,,0,0.785,,,,,,,,,,,,,,,,,,,,,,,,,,,2,strong,-38,73,1,0,0,response7disk,2,182,-10,3,1,0,0,rectangle,-10,3,1,0,0,,5,5,0,0,-10,3,1,0,0,,0,19,19,142,1,,,,,,,,,,,,,,,,,,,
,,,,,,,,,,,,,,,,,,,,,,,,,,,,,,,,,,,,,,,,,,5e3f0bbe9907e915e0179f44,6036d8b4aeeccd86578d424e,2021-02-24_22h55.45.624,Colour_Similarity_Experiment,2020.2.10,MacIntel,60,6036d0d9a84aa1626184a6ef,19.23684211,17.2281746,17.5703125,18.17241379,18.2519084,17.80570232,,,,,,,,,,,,,,,,,,,,PF,weak,3,,,,,,,,4,1.753,,,,,,,,,,,,,,,,,,,,,,,,,,,7,weak,44,-58,1,0,0,response3disk,5,183,17,13,1,0,0,rectangle,17,13,1,0,0,,5,1,0,0.002,17,13,1,0,0,,0,20,20,92,1,,,,,,,,,,,,,,,,,,,
,,,,,,,,,,,,,,,,,,,,,,,,,,,,,,,,,,,,,,,,,,5e3f0bbe9907e915e0179f44,6036d8b4aeeccd86578d424e,2021-02-24_22h55.45.624,Colour_Similarity_Experiment,2020.2.10,MacIntel,60,6036d0d9a84aa1626184a6ef,19.23684211,17.2281746,17.5703125,18.17241379,18.2519084,17.80570232,,,,,,,,,,,,,,,,,,,,PF,weak,3,,,,,,,,4,0.969,,,,,,,,,,,,,,,,,,,,,,,,,,,6,weak,43,-81,1,0,0,response3disk,5,184,14,-8,1,0,0,rectangle,14,-8,1,0,0,,5,7,0,0.001,14,-8,1,0,0,,0,21,21,59,1,,,,,,,,,,,,,,,,,,,
,,,,,,,,,,,,,,,,,,,,,,,,,,,,,,,,,,,,,,,,,,5e3f0bbe9907e915e0179f44,6036d8b4aeeccd86578d424e,2021-02-24_22h55.45.624,Colour_Similarity_Experiment,2020.2.10,MacIntel,60,6036d0d9a84aa1626184a6ef,19.23684211,17.2281746,17.5703125,18.17241379,18.2519084,17.80570232,,,,,,,,,,,,,,,,,,,,PF,weak,3,,,,,,,,7,0.951,,,,,,,,,,,,,,,,,,,,,,,,,,,4,weak,25,73,1,0,0,response1disk,2,185,19,13,1,0,0,rectangle,19,13,1,0,0,,5,4,0,0.002,19,13,1,0,0,,0,22,22,108,1,,,,,,,,,,,,,,,,,,,
,,,,,,,,,,,,,,,,,,,,,,,,,,,,,,,,,,,,,,,,,,5e3f0bbe9907e915e0179f44,6036d8b4aeeccd86578d424e,2021-02-24_22h55.45.624,Colour_Similarity_Experiment,2020.2.10,MacIntel,60,6036d0d9a84aa1626184a6ef,19.23684211,17.2281746,17.5703125,18.17241379,18.2519084,17.80570232,,,,,,,,,,,,,,,,,,,,PF,weak,3,,,,,,,,7,0.668,,,,,,,,,,,,,,,,,,,,,,,,,,,4,weak,53,81,1,0,0,response1disk,8,186,21,4,1,0,0,rectangle,21,4,1,0,0,,5,0,0,0,21,4,1,0,0,,0,23,23,124,1,,,,,,,,,,,,,,,,,,,
,,,,,,,,,,,,,,,,,,,,,,,,,,,,,,,,,,,,,,,,,,5e3f0bbe9907e915e0179f44,6036d8b4aeeccd86578d424e,2021-02-24_22h55.45.624,Colour_Similarity_Experiment,2020.2.10,MacIntel,60,6036d0d9a84aa1626184a6ef,19.23684211,17.2281746,17.5703125,18.17241379,18.2519084,17.80570232,,,,,,,,,,,,,,,,,,,,PF,strong,3,,,,,,,,7,0.718,,,,,,,,,,,,,,,,,,,,,,,,,,,6,strong,43,78,1,0,0,response1disk,2,187,11,0,1,0,0,rectangle,11,0,1,0,0,,5,6,0,0.001,11,0,1,0,0,,0,24,24,112,1,,,,,,,,,,,,,,,,,,,
,,,,,,,,,,,,,,,,,,,,,,,,,,,,,,,,,,,,,,,,,,5e3f0bbe9907e915e0179f44,6036d8b4aeeccd86578d424e,2021-02-24_22h55.45.624,Colour_Similarity_Experiment,2020.2.10,MacIntel,60,6036d0d9a84aa1626184a6ef,19.23684211,17.2281746,17.5703125,18.17241379,18.2519084,17.80570232,,,,,,,,,,,,,,,,,,,,PF,strong,3,,,,,,,,7,0.786,,,,,,,,,,,,,,,,,,,,,,,,,,,7,strong,33,71,1,0,0,response1disk,3,188,2,-4,1,0,0,rectangle,2,-4,1,0,0,,5,6,0,0.001,2,-4,1,0,0,,0,25,25,73,1,,,,,,,,,,,,,,,,,,,
,,,,,,,,,,,,,,,,,,,,,,,,,,,,,,,,,,,,,,,,,,5e3f0bbe9907e915e0179f44,6036d8b4aeeccd86578d424e,2021-02-24_22h55.45.624,Colour_Similarity_Experiment,2020.2.10,MacIntel,60,6036d0d9a84aa1626184a6ef,19.23684211,17.2281746,17.5703125,18.17241379,18.2519084,17.80570232,,,,,,,,,,,,,,,,,,,,PF,weak,3,,,,,,,,7,0.823,,,,,,,,,,,,,,,,,,,,,,,,,,,4,weak,49,77,1,0,0,response1disk,6,189,8,-9,1,0,0,rectangle,8,-9,1,0,0,,5,3,0,0.001,8,-9,1,0,0,,0,26,26,120,1,,,,,,,,,,,,,,,,,,,
,,,,,,,,,,,,,,,,,,,,,,,,,,,,,,,,,,,,,,,,,,5e3f0bbe9907e915e0179f44,6036d8b4aeeccd86578d424e,2021-02-24_22h55.45.624,Colour_Similarity_Experiment,2020.2.10,MacIntel,60,6036d0d9a84aa1626184a6ef,19.23684211,17.2281746,17.5703125,18.17241379,18.2519084,17.80570232,,,,,,,,,,,,,,,,,,,,PF,weak,3,,,,,,,,1,1.637,,,,,,,,,,,,,,,,,,,,,,,,,,,8,weak,-76,41,1,0,0,response7disk,7,190,14,10,1,0,0,rectangle,14,10,1,0,0,,5,0,0,0.002,14,10,1,0,0,,0,27,27,23,1,,,,,,,,,,,,,,,,,,,
,,,,,,,,,,,,,,,,,,,,,,,,,,,,,,,,,,,,,,,,,,5e3f0bbe9907e915e0179f44,6036d8b4aeeccd86578d424e,2021-02-24_22h55.45.624,Colour_Similarity_Experiment,2020.2.10,MacIntel,60,6036d0d9a84aa1626184a6ef,19.23684211,17.2281746,17.5703125,18.17241379,18.2519084,17.80570232,,,,,,,,,,,,,,,,,,,,PF,weak,3,,,,,,,,7,0.668,,,,,,,,,,,,,,,,,,,,,,,,,,,4,weak,44,92,1,0,0,response1disk,7,191,3,12,1,0,0,rectangle,3,12,1,0,0,,5,0,0,0,3,12,1,0,0,,0,28,28,38,1,,,,,,,,,,,,,,,,,,,
,,,,,,,,,,,,,,,,,,,,,,,,,,,,,,,,,,,,,,,,,,5e3f0bbe9907e915e0179f44,6036d8b4aeeccd86578d424e,2021-02-24_22h55.45.624,Colour_Similarity_Experiment,2020.2.10,MacIntel,60,6036d0d9a84aa1626184a6ef,19.23684211,17.2281746,17.5703125,18.17241379,18.2519084,17.80570232,,,,,,,,,,,,,,,,,,,,PF,strong,3,,,,,,,,7,0.869,,,,,,,,,,,,,,,,,,,,,,,,,,,2,strong,36,75,1,0,0,response1disk,7,192,11,1,1,0,0,rectangle,11,1,1,0,0,,5,7,0,0.002,11,1,1,0,0,,0,29,29,63,1,,,,,,,,,,,,,,,,,,,
,,,,,,,,,,,,,,,,,,,,,,,,,,,,,,,,,,,,,,,,,,5e3f0bbe9907e915e0179f44,6036d8b4aeeccd86578d424e,2021-02-24_22h55.45.624,Colour_Similarity_Experiment,2020.2.10,MacIntel,60,6036d0d9a84aa1626184a6ef,19.23684211,17.2281746,17.5703125,18.17241379,18.2519084,17.80570232,,,,,,,,,,,,,,,,,,,,PF,weak,3,,,,,,,,3,1.235,,,,,,,,,,,,,,,,,,,,,,,,,,,5,weak,-44,-68,1,0,0,response5disk,6,193,-16,-5,1,0,0,rectangle,-16,-5,1,0,0,,5,0,0,0.002,-16,-5,1,0,0,,0,30,30,103,1,,,,,,,,,,,,,,,,,,,
,,,,,,,,,,,,,,,,,,,,,,,,,,,,,,,,,,,,,,,,,,5e3f0bbe9907e915e0179f44,6036d8b4aeeccd86578d424e,2021-02-24_22h55.45.624,Colour_Similarity_Experiment,2020.2.10,MacIntel,60,6036d0d9a84aa1626184a6ef,19.23684211,17.2281746,17.5703125,18.17241379,18.2519084,17.80570232,,,,,,,,,,,,,,,,,,,,PF,strong,3,,,,,,,,7,0.766,,,,,,,,,,,,,,,,,,,,,,,,,,,1,strong,43,74,1,0,0,response1disk,4,194,16,4,1,0,0,rectangle,16,4,1,0,0,,5,1,0,0.002,16,4,1,0,0,,0,31,31,135,1,,,,,,,,,,,,,,,,,,,
,,,,,,,,,,,,,,,,,,,,,,,,,,,,,,,,,,,,,,,,,,5e3f0bbe9907e915e0179f44,6036d8b4aeeccd86578d424e,2021-02-24_22h55.45.624,Colour_Similarity_Experiment,2020.2.10,MacIntel,60,6036d0d9a84aa1626184a6ef,19.23684211,17.2281746,17.5703125,18.17241379,18.2519084,17.80570232,,,,,,,,,,,,,,,,,,,,PF,weak,3,,,,,,,,7,0.753,,,,,,,,,,,,,,,,,,,,,,,,,,,2,weak,31,73,1,0,0,response1disk,7,195,18,6,1,0,0,rectangle,18,6,1,0,0,,5,0,0,0,18,6,1,0,0,,0,32,32,107,1,,,,,,,,,,,,,,,,,,,
,,,,,,,,,,,,,,,,,,,,,,,,,,,,,,,,,,,,,,,,,,5e3f0bbe9907e915e0179f44,6036d8b4aeeccd86578d424e,2021-02-24_22h55.45.624,Colour_Similarity_Experiment,2020.2.10,MacIntel,60,6036d0d9a84aa1626184a6ef,19.23684211,17.2281746,17.5703125,18.17241379,18.2519084,17.80570232,,,,,,,,,,,,,,,,,,,,PF,strong,3,,,,,,,,7,0.785,,,,,,,,,,,,,,,,,,,,,,,,,,,7,strong,40,69,1,0,0,response1disk,4,196,18,8,1,0,0,rectangle,18,8,1,0,0,,5,1,0,0.001,18,8,1,0,0,,0,33,33,158,1,,,,,,,,,,,,,,,,,,,
,,,,,,,,,,,,,,,,,,,,,,,,,,,,,,,,,,,,,,,,,,5e3f0bbe9907e915e0179f44,6036d8b4aeeccd86578d424e,2021-02-24_22h55.45.624,Colour_Similarity_Experiment,2020.2.10,MacIntel,60,6036d0d9a84aa1626184a6ef,19.23684211,17.2281746,17.5703125,18.17241379,18.2519084,17.80570232,,,,,,,,,,,,,,,,,,,,PF,weak,3,,,,,,,,2,1.436,,,,,,,,,,,,,,,,,,,,,,,,,,,3,weak,-86,-30,1,0,0,response5disk,4,197,0,4,1,0,0,rectangle,0,4,1,0,0,,5,4,0,0.001,0,4,1,0,0,,0,34,34,30,1,,,,,,,,,,,,,,,,,,,
