key_resp.keys,key_resp.rt,key_resp_16.keys,key_resp_16.rt,key_resp_2.keys,key_resp_2.rt,X Scale,ratio_pxpermm,screen_size_x,screen_size_y,testsize,key_resp_3.keys,key_resp_4.keys,key_resp_4.rt,line_size,key_resp_5.keys,key_resp_5.rt,key_resp_6.keys,key_resp_6.rt,key_resp_8.keys,key_resp_8.rt,key_resp_7.keys,key_resp_7.rt,key_resp_12.keys,key_resp_12.rt,key_resp_11.keys,key_resp_11.rt,key_resp_18.keys,key_resp_18.rt,key_resp_21.keys,key_resp_21.rt,key_resp_13.keys,key_resp_13.rt,key_resp_19.keys,key_resp_19.rt,ballposx,viewer_distance,trials.thisRepN,trials.thisTrialN,trials.thisN,trials.thisIndex,trials.ran,participant,session,date,expName,psychopyVersion,OS,frameRate,study_id,realFrameRate1,realFrameRate2,realFrameRate3,realFrameRate4,realFrameRate5,realFrameRate,viewerdistancecm,DVA_to_distance,radius_F,radius_P,r_F,R_P,key_resp_20.keys,key_resp_20.rt,key_resp_14.keys,key_resp_14.rt,key_resp_15.keys,key_resp_15.rt,key_resp_17.keys,key_resp_17.rt,key_resp_9.keys,key_resp_9.rt,key_resp_10.keys,key_resp_10.rt,Colour_1,Ecc,maskCon,mask_frames,mouse_5.x,mouse_5.y,mouse_5.leftButton,mouse_5.midButton,mouse_5.rightButton,mouse_5.clicked_name,Colour_2,similarity,response_time,mouse_10.x,mouse_10.y,mouse_10.leftButton,mouse_10.midButton,mouse_10.rightButton,mouse_10.clicked_name,mouse_7.x,mouse_7.y,mouse_7.leftButton,mouse_7.midButton,mouse_7.rightButton,mouse_7.clicked_name,catchprac,catchnumberprac,mouse_6.x,mouse_6.y,mouse_6.leftButton,mouse_6.midButton,mouse_6.rightButton,mouse_6.clicked_name,duringprac.thisRepN,duringprac.thisTrialN,duringprac.thisN,duringprac.thisIndex,duringprac.ran,key_resp_22.keys,key_resp_22.rt,Colour1,maskCon1,mouse.x,mouse.y,mouse.leftButton,mouse.midButton,mouse.rightButton,mouse.clicked_name,Colour2,trialnumber,mouse_2.x,mouse_2.y,mouse_2.leftButton,mouse_2.midButton,mouse_2.rightButton,mouse_2.clicked_name,mouse_3.x,mouse_3.y,mouse_3.leftButton,mouse_3.midButton,mouse_3.rightButton,catchresponse,catchnumber,Catch,response_time_catch,mouse_11.x,mouse_11.y,mouse_11.leftButton,mouse_11.midButton,mouse_11.rightButton,trials_2.thisRepN,trials_2.thisTrialN,trials_2.thisN,trials_2.thisIndex,trials_2.ran,mouse_3.clicked_name,mouse_11.clicked_name,trials_3.thisRepN,trials_3.thisTrialN,trials_3.thisN,trials_3.thisIndex,trials_3.ran,answer1,rt1,answer2,rt2,answer3,rt3,answer4,rt4,answer5,rt5,answer6,rt6,answer7,rt7
space,2.688425,space,4.10625,space,8.505295,40.8,4.08,470.5882353,264.7058824,1920,,space,42.35013,81.6,space,17.42374,space,4.373755,space,3.789845,space,3.932985,space,15.982525,space,12.76571,space,20.389525,space,14.10865,space,8.73638,return,4.012735,23.04,760.5350168,0,0,0,0,1,5e89fb8da9f5aa02cfac7ef1,6036da7cb82463b32a928f19,2021-02-24_23h13.13.673,Colour_Similarity_Experiment,2020.2.10,Win32,60,6036d0d9a84aa1626184a6ef,17.23106227,16.66487952,16.66582148,16.66657884,16.66683805,16.66602947,,,,,,,,,,,,,,,,,,,,,,,,,,,,,,,,,,,,,,,,,,,,,,,,,,,,,,,,,,,,,,,,,,,,,,,,,,,,,,,,,,,,,,,,,,,,,,,,,,,,,,,,,,,,,,,,,,
,,,,,,,,,,,,,,,,,,,,,,,,,,,,,,,,,return,4.085685,11.52,772.2958675,1,0,1,0,1,5e89fb8da9f5aa02cfac7ef1,6036da7cb82463b32a928f19,2021-02-24_23h13.13.673,Colour_Similarity_Experiment,2020.2.10,Win32,60,6036d0d9a84aa1626184a6ef,17.23106227,16.66487952,16.66582148,16.66657884,16.66683805,16.66602947,,,,,,,,,,,,,,,,,,,,,,,,,,,,,,,,,,,,,,,,,,,,,,,,,,,,,,,,,,,,,,,,,,,,,,,,,,,,,,,,,,,,,,,,,,,,,,,,,,,,,,,,,,,,,,,,,,
,,,,,,,,,,,,,,,,,,,,,,,,,,,,,,,,,return,4.07611,14.4,769.3556548,2,0,2,0,1,5e89fb8da9f5aa02cfac7ef1,6036da7cb82463b32a928f19,2021-02-24_23h13.13.673,Colour_Similarity_Experiment,2020.2.10,Win32,60,6036d0d9a84aa1626184a6ef,17.23106227,16.66487952,16.66582148,16.66657884,16.66683805,16.66602947,,,,,,,,,,,,,,,,,,,,,,,,,,,,,,,,,,,,,,,,,,,,,,,,,,,,,,,,,,,,,,,,,,,,,,,,,,,,,,,,,,,,,,,,,,,,,,,,,,,,,,,,,,,,,,,,,,
,,,,,,,,,,,,,,,,,,,,,,,,,,,,,,,,,return,4.144405,2.88,781.1165056,3,0,3,0,1,5e89fb8da9f5aa02cfac7ef1,6036da7cb82463b32a928f19,2021-02-24_23h13.13.673,Colour_Similarity_Experiment,2020.2.10,Win32,60,6036d0d9a84aa1626184a6ef,17.23106227,16.66487952,16.66582148,16.66657884,16.66683805,16.66602947,,,,,,,,,,,,,,,,,,,,,,,,,,,,,,,,,,,,,,,,,,,,,,,,,,,,,,,,,,,,,,,,,,,,,,,,,,,,,,,,,,,,,,,,,,,,,,,,,,,,,,,,,,,,,,,,,,
,,,,,,,,,,,,,,,,,,,,,,,,,,,,,,,,,return,3.8905,46.08,737.0133152,4,0,4,0,1,5e89fb8da9f5aa02cfac7ef1,6036da7cb82463b32a928f19,2021-02-24_23h13.13.673,Colour_Similarity_Experiment,2020.2.10,Win32,60,6036d0d9a84aa1626184a6ef,17.23106227,16.66487952,16.66582148,16.66657884,16.66683805,16.66602947,,,,,,,,,,,,,,,,,,,,,,,,,,,,,,,,,,,,,,,,,,,,,,,,,,,,,,,,,,,,,,,,,,,,,,,,,,,,,,,,,,,,,,,,,,,,,,,,,,,,,,,,,,,,,,,,,,
,,,,,,,,,,,,,,,,,,,,,,,,,,,,,,,,,,,,,,,,,,5e89fb8da9f5aa02cfac7ef1,6036da7cb82463b32a928f19,2021-02-24_23h13.13.673,Colour_Similarity_Experiment,2020.2.10,Win32,60,6036d0d9a84aa1626184a6ef,17.23106227,16.66487952,16.66582148,16.66657884,16.66683805,16.66602947,77,13.44039519,82.25521855,548.3681237,54.83681237,246.7656557,space,5.68397,space,81.509205,space,18.94843,left,14.90058,space,3.752505,space,5.43307,7,PF,weak,3,139,74,1,0,0,response1disk_5,2,6,7.41271,0,7,1,0,0,rectangle_8,40,-109,1,0,0,response3disk_7,4,4,-4,5,1,0,0,rectangle_4,0,0,0,5,1,,,,,,,,,,,,,,,,,,,,,,,,,,,,,,,,,,,,,,,,,,,,,,,,,,,,,,,,,,
,,,,,,,,,,,,,,,,,,,,,,,,,,,,,,,,,,,,,,,,,,5e89fb8da9f5aa02cfac7ef1,6036da7cb82463b32a928f19,2021-02-24_23h13.13.673,Colour_Similarity_Experiment,2020.2.10,Win32,60,6036d0d9a84aa1626184a6ef,17.23106227,16.66487952,16.66582148,16.66657884,16.66683805,16.66602947,,,,,,,,,,,,,,,,,,,3,PF,strong,3,54,-81,1,0,0,response3disk_5,1,4,5.213915,-5,4,1,0,0,rectangle_8,-5,4,1,0,0,,,4,-5,4,1,0,0,,0,1,1,0,1,,,,,,,,,,,,,,,,,,,,,,,,,,,,,,,,,,,,,,,,,,,,,,,,,,,,,,,,,,
,,,,,,,,,,,,,,,,,,,,,,,,,,,,,,,,,,,,,,,,,,5e89fb8da9f5aa02cfac7ef1,6036da7cb82463b32a928f19,2021-02-24_23h13.13.673,Colour_Similarity_Experiment,2020.2.10,Win32,60,6036d0d9a84aa1626184a6ef,17.23106227,16.66487952,16.66582148,16.66657884,16.66683805,16.66602947,,,,,,,,,,,,,,,,,,,1,PF,weak,3,61,-36,1,0,0,response3disk_5,5,5,2.7972,1,3,1,0,0,rectangle_8,1,3,1,0,0,,,4,1,3,1,0,0,,0,2,2,6,1,,,,,,,,,,,,,,,,,,,,,,,,,,,,,,,,,,,,,,,,,,,,,,,,,,,,,,,,,,
,,,,,,,,,,,,,,,,,,,,,,,,,,,,,,,,,,,,,,,,,,5e89fb8da9f5aa02cfac7ef1,6036da7cb82463b32a928f19,2021-02-24_23h13.13.673,Colour_Similarity_Experiment,2020.2.10,Win32,60,6036d0d9a84aa1626184a6ef,17.23106227,16.66487952,16.66582148,16.66657884,16.66683805,16.66602947,,,,,,,,,,,,,,,,,,,3,PF,strong,3,31,-63,1,0,0,response3disk_5,7,4,6.26399,4,-2,1,0,0,rectangle_8,37,-98,1,0,0,response3disk_7,4,4,8,-5,1,0,0,rectangle_4,0,3,3,2,1,,,,,,,,,,,,,,,,,,,,,,,,,,,,,,,,,,,,,,,,,,,,,,,,,,,,,,,,,,
,,,,,,,,,,,,,,,,,,,,,,,,,,,,,,,,,,,,,,,,,,5e89fb8da9f5aa02cfac7ef1,6036da7cb82463b32a928f19,2021-02-24_23h13.13.673,Colour_Similarity_Experiment,2020.2.10,Win32,60,6036d0d9a84aa1626184a6ef,17.23106227,16.66487952,16.66582148,16.66657884,16.66683805,16.66602947,,,,,,,,,,,,,,,,,,,5,PF,weak,3,65,103,1,0,0,response1disk_5,9,7,2.913755,2,4,1,0,0,rectangle_8,2,4,1,0,0,,,4,2,4,1,0,0,,0,4,4,4,1,,,,,,,,,,,,,,,,,,,,,,,,,,,,,,,,,,,,,,,,,,,,,,,,,,,,,,,,,,
,,,,,,,,,,,,,,,,,,,,,,,,,,,,,,,,,,,,,,,,,,5e89fb8da9f5aa02cfac7ef1,6036da7cb82463b32a928f19,2021-02-24_23h13.13.673,Colour_Similarity_Experiment,2020.2.10,Win32,60,6036d0d9a84aa1626184a6ef,17.23106227,16.66487952,16.66582148,16.66657884,16.66683805,16.66602947,,,,,,,,,,,,,,,,,,,6,PF,strong,3,51,110,1,0,0,response1disk_5,5,7,2.14929,-2,3,1,0,0,rectangle_8,-2,3,1,0,0,,,4,-2,3,1,0,0,,0,5,5,3,1,,,,,,,,,,,,,,,,,,,,,,,,,,,,,,,,,,,,,,,,,,,,,,,,,,,,,,,,,,
,,,,,,,,,,,,,,,,,,,,,,,,,,,,,,,,,,,,,,,,,,5e89fb8da9f5aa02cfac7ef1,6036da7cb82463b32a928f19,2021-02-24_23h13.13.673,Colour_Similarity_Experiment,2020.2.10,Win32,60,6036d0d9a84aa1626184a6ef,17.23106227,16.66487952,16.66582148,16.66657884,16.66683805,16.66602947,,,,,,,,,,,,,,,,,,,7,PF,weak,3,49,102,1,0,0,response1disk_5,2,7,1.580445,-10,6,1,0,0,rectangle_8,-10,6,1,0,0,,,4,-10,6,1,0,0,,0,6,6,1,1,,,,,,,,,,,,,,,,,,,,,,,,,,,,,,,,,,,,,,,,,,,,,,,,,,,,,,,,,,
,,,,,,,,,,,,,,,,,,,,,,,,,,,,,,,,,,,,,,,,,,5e89fb8da9f5aa02cfac7ef1,6036da7cb82463b32a928f19,2021-02-24_23h13.13.673,Colour_Similarity_Experiment,2020.2.10,Win32,60,6036d0d9a84aa1626184a6ef,17.23106227,16.66487952,16.66582148,16.66657884,16.66683805,16.66602947,,,,,,,,,,,,,,,,,,,,PF,strong,3,,,,,,,,7,1.349005,,,,,,,,,,,,,,,,,,,,,,,,,,space,3.45574,4,strong,22,70,1,0,0,response1disk,4,1,4,-1,1,0,0,rectangle,4,-1,1,0,0,,2,0,0.001005,4,-1,1,0,0,0,0,0,84,1,,,,,,,,,,,,,,,,,,,,,
,,,,,,,,,,,,,,,,,,,,,,,,,,,,,,,,,,,,,,,,,,5e89fb8da9f5aa02cfac7ef1,6036da7cb82463b32a928f19,2021-02-24_23h13.13.673,Colour_Similarity_Experiment,2020.2.10,Win32,60,6036d0d9a84aa1626184a6ef,17.23106227,16.66487952,16.66582148,16.66657884,16.66683805,16.66602947,,,,,,,,,,,,,,,,,,,,PF,weak,3,,,,,,,,7,1.43334,,,,,,,,,,,,,,,,,,,,,,,,,,,,9,weak,43,93,1,0,0,response1disk,1,2,-1,-3,1,0,0,rectangle,-1,-3,1,0,0,,7,0,0.000535,-1,-3,1,0,0,0,1,1,74,1,,,,,,,,,,,,,,,,,,,,,
,,,,,,,,,,,,,,,,,,,,,,,,,,,,,,,,,,,,,,,,,,5e89fb8da9f5aa02cfac7ef1,6036da7cb82463b32a928f19,2021-02-24_23h13.13.673,Colour_Similarity_Experiment,2020.2.10,Win32,60,6036d0d9a84aa1626184a6ef,17.23106227,16.66487952,16.66582148,16.66657884,16.66683805,16.66602947,,,,,,,,,,,,,,,,,,,,PF,strong,3,,,,,,,,7,0.999975,,,,,,,,,,,,,,,,,,,,,,,,,,,,5,strong,47,93,1,0,0,response1disk,4,3,3,1,1,0,0,rectangle,3,1,1,0,0,,7,0,0.0001,3,1,1,0,0,0,2,2,8,1,,,,,,,,,,,,,,,,,,,,,
,,,,,,,,,,,,,,,,,,,,,,,,,,,,,,,,,,,,,,,,,,5e89fb8da9f5aa02cfac7ef1,6036da7cb82463b32a928f19,2021-02-24_23h13.13.673,Colour_Similarity_Experiment,2020.2.10,Win32,60,6036d0d9a84aa1626184a6ef,17.23106227,16.66487952,16.66582148,16.66657884,16.66683805,16.66602947,,,,,,,,,,,,,,,,,,,,PF,strong,3,,,,,,,,7,7.41671,,,,,,,,,,,,,,,,,,,,,,,,,,,,2,strong,46,95,1,0,0,response1disk,4,4,-15,-1,1,0,0,rectangle,-15,-1,1,0,0,,1,0,0.00052,-15,-1,1,0,0,0,3,3,145,1,,,,,,,,,,,,,,,,,,,,,
,,,,,,,,,,,,,,,,,,,,,,,,,,,,,,,,,,,,,,,,,,5e89fb8da9f5aa02cfac7ef1,6036da7cb82463b32a928f19,2021-02-24_23h13.13.673,Colour_Similarity_Experiment,2020.2.10,Win32,60,6036d0d9a84aa1626184a6ef,17.23106227,16.66487952,16.66582148,16.66657884,16.66683805,16.66602947,,,,,,,,,,,,,,,,,,,,PF,strong,3,,,,,,,,6,4.70014,,,,,,,,,,,,,,,,,,,,,,,,,,,,8,strong,95,39,1,0,0,response1disk,5,5,-19,-9,1,0,0,rectangle,-19,-9,1,0,0,,5,0,0.000555,-19,-9,1,0,0,0,4,4,152,1,,,,,,,,,,,,,,,,,,,,,
,,,,,,,,,,,,,,,,,,,,,,,,,,,,,,,,,,,,,,,,,,5e89fb8da9f5aa02cfac7ef1,6036da7cb82463b32a928f19,2021-02-24_23h13.13.673,Colour_Similarity_Experiment,2020.2.10,Win32,60,6036d0d9a84aa1626184a6ef,17.23106227,16.66487952,16.66582148,16.66657884,16.66683805,16.66602947,,,,,,,,,,,,,,,,,,,,PF,weak,3,,,,,,,,0,4.816715,,,,,,,,,,,,,,,,,,,,,,,,,,,,9,weak,-54,113,1,0,0,response7disk,9,6,10,-6,1,0,0,rectangle,10,-6,1,0,0,,5,0,0.000115,10,-6,1,0,0,0,5,5,106,1,,,,,,,,,,,,,,,,,,,,,
,,,,,,,,,,,,,,,,,,,,,,,,,,,,,,,,,,,,,,,,,,5e89fb8da9f5aa02cfac7ef1,6036da7cb82463b32a928f19,2021-02-24_23h13.13.673,Colour_Similarity_Experiment,2020.2.10,Win32,60,6036d0d9a84aa1626184a6ef,17.23106227,16.66487952,16.66582148,16.66657884,16.66683805,16.66602947,,,,,,,,,,,,,,,,,,,,PF,strong,3,,,,,,,,7,1.350015,,,,,,,,,,,,,,,,,,,,,,,,,,,,8,strong,38,93,1,0,0,response1disk,6,7,6,-10,1,0,0,rectangle,6,-10,1,0,0,,0,0,0.000525,6,-10,1,0,0,0,6,6,37,1,,,,,,,,,,,,,,,,,,,,,
,,,,,,,,,,,,,,,,,,,,,,,,,,,,,,,,,,,,,,,,,,5e89fb8da9f5aa02cfac7ef1,6036da7cb82463b32a928f19,2021-02-24_23h13.13.673,Colour_Similarity_Experiment,2020.2.10,Win32,60,6036d0d9a84aa1626184a6ef,17.23106227,16.66487952,16.66582148,16.66657884,16.66683805,16.66602947,,,,,,,,,,,,,,,,,,,,PF,weak,3,,,,,,,,4,2.41675,,,,,,,,,,,,,,,,,,,,,,,,,,,,4,weak,61,-115,1,0,0,response3disk,5,8,2,19,1,0,0,rectangle,2,19,1,0,0,,4,0,0.00057,2,19,1,0,0,0,7,7,49,1,,,,,,,,,,,,,,,,,,,,,
,,,,,,,,,,,,,,,,,,,,,,,,,,,,,,,,,,,,,,,,,,5e89fb8da9f5aa02cfac7ef1,6036da7cb82463b32a928f19,2021-02-24_23h13.13.673,Colour_Similarity_Experiment,2020.2.10,Win32,60,6036d0d9a84aa1626184a6ef,17.23106227,16.66487952,16.66582148,16.66657884,16.66683805,16.66602947,,,,,,,,,,,,,,,,,,,,PF,weak,3,,,,,,,,2,2.10003,,,,,,,,,,,,,,,,,,,,,,,,,,,,9,weak,-98,-48,1,0,0,response5disk,3,9,4,2,1,0,0,rectangle,4,2,1,0,0,,2,0,0.00054,4,2,1,0,0,0,8,8,119,1,,,,,,,,,,,,,,,,,,,,,
,,,,,,,,,,,,,,,,,,,,,,,,,,,,,,,,,,,,,,,,,,5e89fb8da9f5aa02cfac7ef1,6036da7cb82463b32a928f19,2021-02-24_23h13.13.673,Colour_Similarity_Experiment,2020.2.10,Win32,60,6036d0d9a84aa1626184a6ef,17.23106227,16.66487952,16.66582148,16.66657884,16.66683805,16.66602947,,,,,,,,,,,,,,,,,,,,PF,weak,3,,,,,,,,6,1.88333,,,,,,,,,,,,,,,,,,,,,,,,,,,,2,weak,123,48,1,0,0,response1disk,8,10,-5,2,1,0,0,rectangle,-5,2,1,0,0,,7,0,0.00054,-5,2,1,0,0,0,9,9,52,1,,,,,,,,,,,,,,,,,,,,,
,,,,,,,,,,,,,,,,,,,,,,,,,,,,,,,,,,,,,,,,,,5e89fb8da9f5aa02cfac7ef1,6036da7cb82463b32a928f19,2021-02-24_23h13.13.673,Colour_Similarity_Experiment,2020.2.10,Win32,60,6036d0d9a84aa1626184a6ef,17.23106227,16.66487952,16.66582148,16.66657884,16.66683805,16.66602947,,,,,,,,,,,,,,,,,,,,PF,weak,3,,,,,,,,7,1.250035,,,,,,,,,,,,,,,,,,,,,,,,,,,,2,weak,35,82,1,0,0,response1disk,2,11,-3,-20,1,0,0,rectangle,-3,-20,1,0,0,,1,0,0.00053,-3,-20,1,0,0,0,10,10,14,1,,,,,,,,,,,,,,,,,,,,,
,,,,,,,,,,,,,,,,,,,,,,,,,,,,,,,,,,,,,,,,,,5e89fb8da9f5aa02cfac7ef1,6036da7cb82463b32a928f19,2021-02-24_23h13.13.673,Colour_Similarity_Experiment,2020.2.10,Win32,60,6036d0d9a84aa1626184a6ef,17.23106227,16.66487952,16.66582148,16.66657884,16.66683805,16.66602947,,,,,,,,,,,,,,,,,,,,PF,strong,3,,,,,,,,7,3.13337,,,,,,,,,,,,,,,,,,,,,,,,,,,,9,strong,48,98,1,0,0,response1disk,7,12,16,11,1,0,0,rectangle,16,11,1,0,0,,7,0,0.00053,16,11,1,0,0,0,11,11,100,1,,,,,,,,,,,,,,,,,,,,,
,,,,,,,,,,,,,,,,,,,,,,,,,,,,,,,,,,,,,,,,,,5e89fb8da9f5aa02cfac7ef1,6036da7cb82463b32a928f19,2021-02-24_23h13.13.673,Colour_Similarity_Experiment,2020.2.10,Win32,60,6036d0d9a84aa1626184a6ef,17.23106227,16.66487952,16.66582148,16.66657884,16.66683805,16.66602947,,,,,,,,,,,,,,,,,,,,PF,strong,3,,,,,,,,7,4.0498,,,,,,,,,,,,,,,,,,,,,,,,,,,,7,strong,60,107,1,0,0,response1disk,2,13,-11,6,1,0,0,rectangle,-11,6,1,0,0,,5,0,0.00117,-11,6,1,0,0,0,12,12,138,1,,,,,,,,,,,,,,,,,,,,,
,,,,,,,,,,,,,,,,,,,,,,,,,,,,,,,,,,,,,,,,,,5e89fb8da9f5aa02cfac7ef1,6036da7cb82463b32a928f19,2021-02-24_23h13.13.673,Colour_Similarity_Experiment,2020.2.10,Win32,60,6036d0d9a84aa1626184a6ef,17.23106227,16.66487952,16.66582148,16.66657884,16.66683805,16.66602947,,,,,,,,,,,,,,,,,,,,PF,weak,3,,,,,,,,7,3.016685,,,,,,,,,,,,,,,,,,,,,,,,,,,,2,weak,67,91,1,0,0,response1disk,1,14,-6,-6,1,0,0,rectangle,-6,-6,1,0,0,,5,0,8E-05,-6,-6,1,0,0,0,13,13,9,1,,,,,,,,,,,,,,,,,,,,,
,,,,,,,,,,,,,,,,,,,,,,,,,,,,,,,,,,,,,,,,,,5e89fb8da9f5aa02cfac7ef1,6036da7cb82463b32a928f19,2021-02-24_23h13.13.673,Colour_Similarity_Experiment,2020.2.10,Win32,60,6036d0d9a84aa1626184a6ef,17.23106227,16.66487952,16.66582148,16.66657884,16.66683805,16.66602947,,,,,,,,,,,,,,,,,,,,PF,weak,3,,,,,,,,7,1.533325,,,,,,,,,,,,,,,,,,,,,,,,,,,,8,weak,48,81,1,0,0,response1disk,4,15,9,4,1,0,0,rectangle,9,4,1,0,0,,3,0,0.000555,9,4,1,0,0,0,14,14,78,1,,,,,,,,,,,,,,,,,,,,,
,,,,,,,,,,,,,,,,,,,,,,,,,,,,,,,,,,,,,,,,,,5e89fb8da9f5aa02cfac7ef1,6036da7cb82463b32a928f19,2021-02-24_23h13.13.673,Colour_Similarity_Experiment,2020.2.10,Win32,60,6036d0d9a84aa1626184a6ef,17.23106227,16.66487952,16.66582148,16.66657884,16.66683805,16.66602947,,,,,,,,,,,,,,,,,,,,PF,weak,3,,,,,,,,7,0.816645,,,,,,,,,,,,,,,,,,,,,,,,,,,,2,weak,35,77,1,0,0,response1disk,4,16,5,-14,1,0,0,rectangle,5,-14,1,0,0,,4,0,0.0006,5,-14,1,0,0,0,15,15,127,1,,,,,,,,,,,,,,,,,,,,,
,,,,,,,,,,,,,,,,,,,,,,,,,,,,,,,,,,,,,,,,,,5e89fb8da9f5aa02cfac7ef1,6036da7cb82463b32a928f19,2021-02-24_23h13.13.673,Colour_Similarity_Experiment,2020.2.10,Win32,60,6036d0d9a84aa1626184a6ef,17.23106227,16.66487952,16.66582148,16.66657884,16.66683805,16.66602947,,,,,,,,,,,,,,,,,,,,PF,strong,3,,,,,,,,5,2.15003,,,,,,,,,,,,,,,,,,,,,,,,,,,,7,strong,112,-26,1,0,0,response3disk,1,17,-9,1,1,0,0,rectangle,-9,1,1,0,0,,2,0,0.00057,-9,1,1,0,0,0,16,16,132,1,,,,,,,,,,,,,,,,,,,,,
,,,,,,,,,,,,,,,,,,,,,,,,,,,,,,,,,,,,,,,,,,5e89fb8da9f5aa02cfac7ef1,6036da7cb82463b32a928f19,2021-02-24_23h13.13.673,Colour_Similarity_Experiment,2020.2.10,Win32,60,6036d0d9a84aa1626184a6ef,17.23106227,16.66487952,16.66582148,16.66657884,16.66683805,16.66602947,,,,,,,,,,,,,,,,,,,,PF,weak,3,,,,,,,,0,1.48336,,,,,,,,,,,,,,,,,,,,,,,,,,,,1,weak,-64,96,1,0,0,response7disk,1,18,-11,-5,1,0,0,rectangle,45,-93,1,0,0,4,4,1,2.50011,12,11,1,0,0,0,17,17,76,1,response3disk_3,rectangle,,,,,,,,,,,,,,,,,,,
,,,,,,,,,,,,,,,,,,,,,,,,,,,,,,,,,,,,,,,,,,5e89fb8da9f5aa02cfac7ef1,6036da7cb82463b32a928f19,2021-02-24_23h13.13.673,Colour_Similarity_Experiment,2020.2.10,Win32,60,6036d0d9a84aa1626184a6ef,17.23106227,16.66487952,16.66582148,16.66657884,16.66683805,16.66602947,,,,,,,,,,,,,,,,,,,,PF,weak,3,,,,,,,,5,1.683205,,,,,,,,,,,,,,,,,,,,,,,,,,,,4,weak,84,-49,1,0,0,response3disk,3,19,11,-8,1,0,0,rectangle,11,-8,1,0,0,4,3,0,0.00075,11,-8,1,0,0,0,18,18,89,1,,,,,,,,,,,,,,,,,,,,,
,,,,,,,,,,,,,,,,,,,,,,,,,,,,,,,,,,,,,,,,,,5e89fb8da9f5aa02cfac7ef1,6036da7cb82463b32a928f19,2021-02-24_23h13.13.673,Colour_Similarity_Experiment,2020.2.10,Win32,60,6036d0d9a84aa1626184a6ef,17.23106227,16.66487952,16.66582148,16.66657884,16.66683805,16.66602947,,,,,,,,,,,,,,,,,,,,PF,strong,3,,,,,,,,4,2.616645,,,,,,,,,,,,,,,,,,,,,,,,,,,,1,strong,40,-78,1,0,0,response3disk,4,20,15,8,1,0,0,rectangle,15,8,1,0,0,4,4,0,0.000505,15,8,1,0,0,0,19,19,135,1,,,,,,,,,,,,,,,,,,,,,
,,,,,,,,,,,,,,,,,,,,,,,,,,,,,,,,,,,,,,,,,,5e89fb8da9f5aa02cfac7ef1,6036da7cb82463b32a928f19,2021-02-24_23h13.13.673,Colour_Similarity_Experiment,2020.2.10,Win32,60,6036d0d9a84aa1626184a6ef,17.23106227,16.66487952,16.66582148,16.66657884,16.66683805,16.66602947,,,,,,,,,,,,,,,,,,,,PF,strong,3,,,,,,,,4,1.79995,,,,,,,,,,,,,,,,,,,,,,,,,,,,4,strong,66,-105,1,0,0,response3disk,5,21,20,11,1,0,0,rectangle,20,11,1,0,0,4,5,0,0.00067,20,11,1,0,0,0,20,20,116,1,,,,,,,,,,,,,,,,,,,,,
,,,,,,,,,,,,,,,,,,,,,,,,,,,,,,,,,,,,,,,,,,5e89fb8da9f5aa02cfac7ef1,6036da7cb82463b32a928f19,2021-02-24_23h13.13.673,Colour_Similarity_Experiment,2020.2.10,Win32,60,6036d0d9a84aa1626184a6ef,17.23106227,16.66487952,16.66582148,16.66657884,16.66683805,16.66602947,,,,,,,,,,,,,,,,,,,,PF,strong,3,,,,,,,,7,5.383365,,,,,,,,,,,,,,,,,,,,,,,,,,,,3,strong,74,118,1,0,0,response1disk,1,22,-3,-3,1,0,0,rectangle,-3,-3,1,0,0,4,4,0,0.00056,-3,-3,1,0,0,0,21,21,125,1,,,,,,,,,,,,,,,,,,,,,
,,,,,,,,,,,,,,,,,,,,,,,,,,,,,,,,,,,,,,,,,,5e89fb8da9f5aa02cfac7ef1,6036da7cb82463b32a928f19,2021-02-24_23h13.13.673,Colour_Similarity_Experiment,2020.2.10,Win32,60,6036d0d9a84aa1626184a6ef,17.23106227,16.66487952,16.66582148,16.66657884,16.66683805,16.66602947,,,,,,,,,,,,,,,,,,,,PF,weak,3,,,,,,,,0,2.26669,,,,,,,,,,,,,,,,,,,,,,,,,,,,5,weak,-56,120,1,0,0,response7disk,5,23,-3,5,1,0,0,rectangle,-3,5,1,0,0,4,6,0,0.000575,-3,5,1,0,0,0,22,22,94,1,,,,,,,,,,,,,,,,,,,,,
,,,,,,,,,,,,,,,,,,,,,,,,,,,,,,,,,,,,,,,,,,5e89fb8da9f5aa02cfac7ef1,6036da7cb82463b32a928f19,2021-02-24_23h13.13.673,Colour_Similarity_Experiment,2020.2.10,Win32,60,6036d0d9a84aa1626184a6ef,17.23106227,16.66487952,16.66582148,16.66657884,16.66683805,16.66602947,,,,,,,,,,,,,,,,,,,,PF,strong,3,,,,,,,,7,2.600055,,,,,,,,,,,,,,,,,,,,,,,,,,,,9,strong,46,82,1,0,0,response1disk,3,24,6,-12,1,0,0,rectangle,6,-12,1,0,0,4,4,0,0.00055,6,-12,1,0,0,0,23,23,141,1,,,,,,,,,,,,,,,,,,,,,
,,,,,,,,,,,,,,,,,,,,,,,,,,,,,,,,,,,,,,,,,,5e89fb8da9f5aa02cfac7ef1,6036da7cb82463b32a928f19,2021-02-24_23h13.13.673,Colour_Similarity_Experiment,2020.2.10,Win32,60,6036d0d9a84aa1626184a6ef,17.23106227,16.66487952,16.66582148,16.66657884,16.66683805,16.66602947,,,,,,,,,,,,,,,,,,,,PF,weak,3,,,,,,,,7,4.350065,,,,,,,,,,,,,,,,,,,,,,,,,,,,5,weak,42,100,1,0,0,response1disk,9,25,6,18,1,0,0,rectangle,-70,-35,1,0,0,4,2,1,2.29995,-19,4,1,0,0,0,24,24,136,1,response5disk_3,rectangle,,,,,,,,,,,,,,,,,,,
,,,,,,,,,,,,,,,,,,,,,,,,,,,,,,,,,,,,,,,,,,5e89fb8da9f5aa02cfac7ef1,6036da7cb82463b32a928f19,2021-02-24_23h13.13.673,Colour_Similarity_Experiment,2020.2.10,Win32,60,6036d0d9a84aa1626184a6ef,17.23106227,16.66487952,16.66582148,16.66657884,16.66683805,16.66602947,,,,,,,,,,,,,,,,,,,,PF,weak,3,,,,,,,,7,4.000005,,,,,,,,,,,,,,,,,,,,,,,,,,,,6,weak,55,118,1,0,0,response1disk,2,26,-5,14,1,0,0,rectangle,-5,14,1,0,0,4,7,0,0.00056,-5,14,1,0,0,0,25,25,130,1,,,,,,,,,,,,,,,,,,,,,
,,,,,,,,,,,,,,,,,,,,,,,,,,,,,,,,,,,,,,,,,,5e89fb8da9f5aa02cfac7ef1,6036da7cb82463b32a928f19,2021-02-24_23h13.13.673,Colour_Similarity_Experiment,2020.2.10,Win32,60,6036d0d9a84aa1626184a6ef,17.23106227,16.66487952,16.66582148,16.66657884,16.66683805,16.66602947,,,,,,,,,,,,,,,,,,,,PF,weak,3,,,,,,,,7,1.066485,,,,,,,,,,,,,,,,,,,,,,,,,,,,8,weak,47,92,1,0,0,response1disk,2,27,3,-2,1,0,0,rectangle,3,-2,1,0,0,4,6,0,0.000555,3,-2,1,0,0,0,26,26,83,1,,,,,,,,,,,,,,,,,,,,,
,,,,,,,,,,,,,,,,,,,,,,,,,,,,,,,,,,,,,,,,,,5e89fb8da9f5aa02cfac7ef1,6036da7cb82463b32a928f19,2021-02-24_23h13.13.673,Colour_Similarity_Experiment,2020.2.10,Win32,60,6036d0d9a84aa1626184a6ef,17.23106227,16.66487952,16.66582148,16.66657884,16.66683805,16.66602947,,,,,,,,,,,,,,,,,,,,PF,weak,3,,,,,,,,5,1.683315,,,,,,,,,,,,,,,,,,,,,,,,,,,,7,weak,80,-57,1,0,0,response3disk,5,28,-8,17,1,0,0,rectangle,-8,17,1,0,0,4,7,0,0.00053,-8,17,1,0,0,0,27,27,92,1,,,,,,,,,,,,,,,,,,,,,
,,,,,,,,,,,,,,,,,,,,,,,,,,,,,,,,,,,,,,,,,,5e89fb8da9f5aa02cfac7ef1,6036da7cb82463b32a928f19,2021-02-24_23h13.13.673,Colour_Similarity_Experiment,2020.2.10,Win32,60,6036d0d9a84aa1626184a6ef,17.23106227,16.66487952,16.66582148,16.66657884,16.66683805,16.66602947,,,,,,,,,,,,,,,,,,,,PF,weak,3,,,,,,,,7,2.049965,,,,,,,,,,,,,,,,,,,,,,,,,,,,3,weak,38,108,1,0,0,response1disk,1,29,2,10,1,0,0,rectangle,2,10,1,0,0,4,7,0,0.000065,2,10,1,0,0,0,28,28,96,1,,,,,,,,,,,,,,,,,,,,,
,,,,,,,,,,,,,,,,,,,,,,,,,,,,,,,,,,,,,,,,,,5e89fb8da9f5aa02cfac7ef1,6036da7cb82463b32a928f19,2021-02-24_23h13.13.673,Colour_Similarity_Experiment,2020.2.10,Win32,60,6036d0d9a84aa1626184a6ef,17.23106227,16.66487952,16.66582148,16.66657884,16.66683805,16.66602947,,,,,,,,,,,,,,,,,,,,PF,strong,3,,,,,,,,7,1.083505,,,,,,,,,,,,,,,,,,,,,,,,,,,,1,strong,31,83,1,0,0,response1disk,3,30,2,11,1,0,0,rectangle,2,11,1,0,0,4,7,0,7.5E-05,2,11,1,0,0,0,29,29,99,1,,,,,,,,,,,,,,,,,,,,,
,,,,,,,,,,,,,,,,,,,,,,,,,,,,,,,,,,,,,,,,,,5e89fb8da9f5aa02cfac7ef1,6036da7cb82463b32a928f19,2021-02-24_23h13.13.673,Colour_Similarity_Experiment,2020.2.10,Win32,60,6036d0d9a84aa1626184a6ef,17.23106227,16.66487952,16.66582148,16.66657884,16.66683805,16.66602947,,,,,,,,,,,,,,,,,,,,PF,strong,3,,,,,,,,7,1.10004,,,,,,,,,,,,,,,,,,,,,,,,,,,,5,strong,43,109,1,0,0,response1disk,7,31,2,14,1,0,0,rectangle,2,14,1,0,0,4,1,0,0.000575,2,14,1,0,0,0,30,30,7,1,,,,,,,,,,,,,,,,,,,,,
,,,,,,,,,,,,,,,,,,,,,,,,,,,,,,,,,,,,,,,,,,5e89fb8da9f5aa02cfac7ef1,6036da7cb82463b32a928f19,2021-02-24_23h13.13.673,Colour_Similarity_Experiment,2020.2.10,Win32,60,6036d0d9a84aa1626184a6ef,17.23106227,16.66487952,16.66582148,16.66657884,16.66683805,16.66602947,,,,,,,,,,,,,,,,,,,,PF,weak,3,,,,,,,,5,1.36669,,,,,,,,,,,,,,,,,,,,,,,,,,,,7,weak,69,-54,1,0,0,response3disk,8,32,0,-7,1,0,0,rectangle,0,-7,1,0,0,4,4,0,0.000555,0,-7,1,0,0,0,31,31,140,1,,,,,,,,,,,,,,,,,,,,,
,,,,,,,,,,,,,,,,,,,,,,,,,,,,,,,,,,,,,,,,,,5e89fb8da9f5aa02cfac7ef1,6036da7cb82463b32a928f19,2021-02-24_23h13.13.673,Colour_Similarity_Experiment,2020.2.10,Win32,60,6036d0d9a84aa1626184a6ef,17.23106227,16.66487952,16.66582148,16.66657884,16.66683805,16.66602947,,,,,,,,,,,,,,,,,,,,PF,weak,3,,,,,,,,5,1.066675,,,,,,,,,,,,,,,,,,,,,,,,,,,,8,weak,65,-37,1,0,0,response3disk,7,33,-12,8,1,0,0,rectangle,-12,8,1,0,0,4,0,0,0.00055,-12,8,1,0,0,0,32,32,23,1,,,,,,,,,,,,,,,,,,,,,
,,,,,,,,,,,,,,,,,,,,,,,,,,,,,,,,,,,,,,,,,,5e89fb8da9f5aa02cfac7ef1,6036da7cb82463b32a928f19,2021-02-24_23h13.13.673,Colour_Similarity_Experiment,2020.2.10,Win32,60,6036d0d9a84aa1626184a6ef,17.23106227,16.66487952,16.66582148,16.66657884,16.66683805,16.66602947,,,,,,,,,,,,,,,,,,,,PF,weak,3,,,,,,,,5,1.48331,,,,,,,,,,,,,,,,,,,,,,,,,,,,5,weak,56,-34,1,0,0,response3disk,6,34,-5,18,1,0,0,rectangle,-5,18,1,0,0,4,6,0,0.000525,-5,18,1,0,0,0,33,33,103,1,,,,,,,,,,,,,,,,,,,,,
,,,,,,,,,,,,,,,,,,,,,,,,,,,,,,,,,,,,,,,,,,5e89fb8da9f5aa02cfac7ef1,6036da7cb82463b32a928f19,2021-02-24_23h13.13.673,Colour_Similarity_Experiment,2020.2.10,Win32,60,6036d0d9a84aa1626184a6ef,17.23106227,16.66487952,16.66582148,16.66657884,16.66683805,16.66602947,,,,,,,,,,,,,,,,,,,,PF,weak,3,,,,,,,,7,1.249815,,,,,,,,,,,,,,,,,,,,,,,,,,,,6,weak,61,119,1,0,0,response1disk,6,35,14,-8,1,0,0,rectangle,14,-8,1,0,0,4,7,0,0.000535,14,-8,1,0,0,0,34,34,0,1,,,,,,,,,,,,,,,,,,,,,
,,,,,,,,,,,,,,,,,,,,,,,,,,,,,,,,,,,,,,,,,,5e89fb8da9f5aa02cfac7ef1,6036da7cb82463b32a928f19,2021-02-24_23h13.13.673,Colour_Similarity_Experiment,2020.2.10,Win32,60,6036d0d9a84aa1626184a6ef,17.23106227,16.66487952,16.66582148,16.66657884,16.66683805,16.66602947,,,,,,,,,,,,,,,,,,,,PF,strong,3,,,,,,,,7,2.25003,,,,,,,,,,,,,,,,,,,,,,,,,,,,4,strong,48,91,1,0,0,response1disk,8,36,3,-1,1,0,0,rectangle,3,-1,1,0,0,4,0,0,0.00053,3,-1,1,0,0,0,35,35,35,1,,,,,,,,,,,,,,,,,,,,,
,,,,,,,,,,,,,,,,,,,,,,,,,,,,,,,,,,,,,,,,,,5e89fb8da9f5aa02cfac7ef1,6036da7cb82463b32a928f19,2021-02-24_23h13.13.673,Colour_Similarity_Experiment,2020.2.10,Win32,60,6036d0d9a84aa1626184a6ef,17.23106227,16.66487952,16.66582148,16.66657884,16.66683805,16.66602947,,,,,,,,,,,,,,,,,,,,PF,weak,3,,,,,,,,5,1.96669,,,,,,,,,,,,,,,,,,,,,,,,,,,,9,weak,101,-39,1,0,0,response3disk,5,37,9,1,1,0,0,rectangle,9,1,1,0,0,4,3,0,0.000635,9,1,1,0,0,0,36,36,134,1,,,,,,,,,,,,,,,,,,,,,
,,,,,,,,,,,,,,,,,,,,,,,,,,,,,,,,,,,,,,,,,,5e89fb8da9f5aa02cfac7ef1,6036da7cb82463b32a928f19,2021-02-24_23h13.13.673,Colour_Similarity_Experiment,2020.2.10,Win32,60,6036d0d9a84aa1626184a6ef,17.23106227,16.66487952,16.66582148,16.66657884,16.66683805,16.66602947,,,,,,,,,,,,,,,,,,,,PF,strong,3,,,,,,,,4,1.650135,,,,,,,,,,,,,,,,,,,,,,,,,,,,1,strong,33,-65,1,0,0,response3disk,2,38,17,3,1,0,0,rectangle,17,3,1,0,0,4,5,0,0.00055,17,3,1,0,0,0,37,37,2,1,,,,,,,,,,,,,,,,,,,,,
,,,,,,,,,,,,,,,,,,,,,,,,,,,,,,,,,,,,,,,,,,5e89fb8da9f5aa02cfac7ef1,6036da7cb82463b32a928f19,2021-02-24_23h13.13.673,Colour_Similarity_Experiment,2020.2.10,Win32,60,6036d0d9a84aa1626184a6ef,17.23106227,16.66487952,16.66582148,16.66657884,16.66683805,16.66602947,,,,,,,,,,,,,,,,,,,,PF,strong,3,,,,,,,,5,1.916695,,,,,,,,,,,,,,,,,,,,,,,,,,,,9,strong,91,-49,1,0,0,response3disk,6,39,38,-13,1,0,0,rectangle,38,-13,1,0,0,4,3,0,0.00055,38,-13,1,0,0,0,38,38,117,1,,,,,,,,,,,,,,,,,,,,,
,,,,,,,,,,,,,,,,,,,,,,,,,,,,,,,,,,,,,,,,,,5e89fb8da9f5aa02cfac7ef1,6036da7cb82463b32a928f19,2021-02-24_23h13.13.673,Colour_Similarity_Experiment,2020.2.10,Win32,60,6036d0d9a84aa1626184a6ef,17.23106227,16.66487952,16.66582148,16.66657884,16.66683805,16.66602947,,,,,,,,,,,,,,,,,,,,PF,weak,3,,,,,,,,5,0.816705,,,,,,,,,,,,,,,,,,,,,,,,,,,,8,weak,71,-34,1,0,0,response3disk,3,40,23,-5,1,0,0,rectangle,23,-5,1,0,0,4,0,0,0.00053,23,-5,1,0,0,0,39,39,71,1,,,,,,,,,,,,,,,,,,,,,
,,,,,,,,,,,,,,,,,,,,,,,,,,,,,,,,,,,,,,,,,,5e89fb8da9f5aa02cfac7ef1,6036da7cb82463b32a928f19,2021-02-24_23h13.13.673,Colour_Similarity_Experiment,2020.2.10,Win32,60,6036d0d9a84aa1626184a6ef,17.23106227,16.66487952,16.66582148,16.66657884,16.66683805,16.66602947,,,,,,,,,,,,,,,,,,,,PF,strong,3,,,,,,,,7,1.716645,,,,,,,,,,,,,,,,,,,,,,,,,,,,3,strong,82,103,1,0,0,response1disk,9,41,24,11,1,0,0,rectangle,24,11,1,0,0,4,1,0,0.00055,24,11,1,0,0,0,40,40,143,1,,,,,,,,,,,,,,,,,,,,,
,,,,,,,,,,,,,,,,,,,,,,,,,,,,,,,,,,,,,,,,,,5e89fb8da9f5aa02cfac7ef1,6036da7cb82463b32a928f19,2021-02-24_23h13.13.673,Colour_Similarity_Experiment,2020.2.10,Win32,60,6036d0d9a84aa1626184a6ef,17.23106227,16.66487952,16.66582148,16.66657884,16.66683805,16.66602947,,,,,,,,,,,,,,,,,,,,PF,weak,3,,,,,,,,3,1.64999,,,,,,,,,,,,,,,,,,,,,,,,,,,,8,weak,-35,-74,1,0,0,response5disk,6,42,-5,-5,1,0,0,rectangle,85,-27,1,0,0,5,5,1,1.883125,7,10,1,0,0,0,41,41,161,1,response3disk_3,rectangle,,,,,,,,,,,,,,,,,,,
,,,,,,,,,,,,,,,,,,,,,,,,,,,,,,,,,,,,,,,,,,5e89fb8da9f5aa02cfac7ef1,6036da7cb82463b32a928f19,2021-02-24_23h13.13.673,Colour_Similarity_Experiment,2020.2.10,Win32,60,6036d0d9a84aa1626184a6ef,17.23106227,16.66487952,16.66582148,16.66657884,16.66683805,16.66602947,,,,,,,,,,,,,,,,,,,,PF,strong,3,,,,,,,,5,1.233305,,,,,,,,,,,,,,,,,,,,,,,,,,,,4,strong,76,-32,1,0,0,response3disk,9,43,19,1,1,0,0,rectangle,19,1,1,0,0,5,4,0,0.00056,19,1,1,0,0,0,42,42,90,1,,,,,,,,,,,,,,,,,,,,,
,,,,,,,,,,,,,,,,,,,,,,,,,,,,,,,,,,,,,,,,,,5e89fb8da9f5aa02cfac7ef1,6036da7cb82463b32a928f19,2021-02-24_23h13.13.673,Colour_Similarity_Experiment,2020.2.10,Win32,60,6036d0d9a84aa1626184a6ef,17.23106227,16.66487952,16.66582148,16.66657884,16.66683805,16.66602947,,,,,,,,,,,,,,,,,,,,PF,strong,3,,,,,,,,0,1.200035,,,,,,,,,,,,,,,,,,,,,,,,,,,,9,strong,-51,102,1,0,0,response7disk,9,44,1,9,1,0,0,rectangle,1,9,1,0,0,5,0,0,0.000535,1,9,1,0,0,0,43,43,17,1,,,,,,,,,,,,,,,,,,,,,
,,,,,,,,,,,,,,,,,,,,,,,,,,,,,,,,,,,,,,,,,,5e89fb8da9f5aa02cfac7ef1,6036da7cb82463b32a928f19,2021-02-24_23h13.13.673,Colour_Similarity_Experiment,2020.2.10,Win32,60,6036d0d9a84aa1626184a6ef,17.23106227,16.66487952,16.66582148,16.66657884,16.66683805,16.66602947,,,,,,,,,,,,,,,,,,,,PF,weak,3,,,,,,,,7,1.28338,,,,,,,,,,,,,,,,,,,,,,,,,,,,7,weak,71,126,1,0,0,response1disk,2,45,12,6,1,0,0,rectangle,12,6,1,0,0,5,3,0,0.00057,12,6,1,0,0,0,44,44,32,1,,,,,,,,,,,,,,,,,,,,,
,,,,,,,,,,,,,,,,,,,,,,,,,,,,,,,,,,,,,,,,,,5e89fb8da9f5aa02cfac7ef1,6036da7cb82463b32a928f19,2021-02-24_23h13.13.673,Colour_Similarity_Experiment,2020.2.10,Win32,60,6036d0d9a84aa1626184a6ef,17.23106227,16.66487952,16.66582148,16.66657884,16.66683805,16.66602947,,,,,,,,,,,,,,,,,,,,PF,strong,3,,,,,,,,7,1.94979,,,,,,,,,,,,,,,,,,,,,,,,,,,,8,strong,74,122,1,0,0,response1disk,3,46,-6,-16,1,0,0,rectangle,-6,-16,1,0,0,5,7,0,0.000525,-6,-16,1,0,0,0,45,45,154,1,,,,,,,,,,,,,,,,,,,,,
,,,,,,,,,,,,,,,,,,,,,,,,,,,,,,,,,,,,,,,,,,5e89fb8da9f5aa02cfac7ef1,6036da7cb82463b32a928f19,2021-02-24_23h13.13.673,Colour_Similarity_Experiment,2020.2.10,Win32,60,6036d0d9a84aa1626184a6ef,17.23106227,16.66487952,16.66582148,16.66657884,16.66683805,16.66602947,,,,,,,,,,,,,,,,,,,,PF,strong,3,,,,,,,,7,0.750035,,,,,,,,,,,,,,,,,,,,,,,,,,,,6,strong,37,111,1,0,0,response1disk,8,47,-1,-11,1,0,0,rectangle,-1,-11,1,0,0,5,3,0,0.000545,-1,-11,1,0,0,0,46,46,133,1,,,,,,,,,,,,,,,,,,,,,
,,,,,,,,,,,,,,,,,,,,,,,,,,,,,,,,,,,,,,,,,,5e89fb8da9f5aa02cfac7ef1,6036da7cb82463b32a928f19,2021-02-24_23h13.13.673,Colour_Similarity_Experiment,2020.2.10,Win32,60,6036d0d9a84aa1626184a6ef,17.23106227,16.66487952,16.66582148,16.66657884,16.66683805,16.66602947,,,,,,,,,,,,,,,,,,,,PF,strong,3,,,,,,,,7,1.150085,,,,,,,,,,,,,,,,,,,,,,,,,,,,4,strong,53,106,1,0,0,response1disk,7,48,-3,-1,1,0,0,rectangle,-3,-1,1,0,0,5,4,0,0.00056,-3,-1,1,0,0,0,47,47,87,1,,,,,,,,,,,,,,,,,,,,,
,,,,,,,,,,,,,,,,,,,,,,,,,,,,,,,,,,,,,,,,,,5e89fb8da9f5aa02cfac7ef1,6036da7cb82463b32a928f19,2021-02-24_23h13.13.673,Colour_Similarity_Experiment,2020.2.10,Win32,60,6036d0d9a84aa1626184a6ef,17.23106227,16.66487952,16.66582148,16.66657884,16.66683805,16.66602947,,,,,,,,,,,,,,,,,,,,PF,strong,3,,,,,,,,7,1.35003,,,,,,,,,,,,,,,,,,,,,,,,,,,,8,strong,32,63,1,0,0,response1disk,9,49,10,6,1,0,0,rectangle,10,6,1,0,0,5,6,0,0.00056,10,6,1,0,0,0,48,48,105,1,,,,,,,,,,,,,,,,,,,,,
,,,,,,,,,,,,,,,,,,,,,,,,,,,,,,,,,,,,,,,,,,5e89fb8da9f5aa02cfac7ef1,6036da7cb82463b32a928f19,2021-02-24_23h13.13.673,Colour_Similarity_Experiment,2020.2.10,Win32,60,6036d0d9a84aa1626184a6ef,17.23106227,16.66487952,16.66582148,16.66657884,16.66683805,16.66602947,,,,,,,,,,,,,,,,,,,,PF,strong,3,,,,,,,,7,1.46668,,,,,,,,,,,,,,,,,,,,,,,,,,,,9,strong,45,87,1,0,0,response1disk,4,50,-9,-9,1,0,0,rectangle,-9,-9,1,0,0,5,2,0,0.000575,-9,-9,1,0,0,0,49,49,60,1,,,,,,,,,,,,,,,,,,,,,
,,,,,,,,,,,,,,,,,,,,,,,,,,,,,,,,,,,,,,,,,,5e89fb8da9f5aa02cfac7ef1,6036da7cb82463b32a928f19,2021-02-24_23h13.13.673,Colour_Similarity_Experiment,2020.2.10,Win32,60,6036d0d9a84aa1626184a6ef,17.23106227,16.66487952,16.66582148,16.66657884,16.66683805,16.66602947,,,,,,,,,,,,,,,,,,,,PF,strong,3,,,,,,,,2,1.36669,,,,,,,,,,,,,,,,,,,,,,,,,,,,5,strong,-72,-43,1,0,0,response5disk,3,51,5,3,1,0,0,rectangle,5,3,1,0,0,5,5,0,0.00054,5,3,1,0,0,0,50,50,25,1,,,,,,,,,,,,,,,,,,,,,
,,,,,,,,,,,,,,,,,,,,,,,,,,,,,,,,,,,,,,,,,,5e89fb8da9f5aa02cfac7ef1,6036da7cb82463b32a928f19,2021-02-24_23h13.13.673,Colour_Similarity_Experiment,2020.2.10,Win32,60,6036d0d9a84aa1626184a6ef,17.23106227,16.66487952,16.66582148,16.66657884,16.66683805,16.66602947,,,,,,,,,,,,,,,,,,,,PF,weak,3,,,,,,,,7,0.88334,,,,,,,,,,,,,,,,,,,,,,,,,,,,2,weak,31,88,1,0,0,response1disk,6,52,9,2,1,0,0,rectangle,9,2,1,0,0,5,6,0,0.000515,9,2,1,0,0,0,51,51,113,1,,,,,,,,,,,,,,,,,,,,,
,,,,,,,,,,,,,,,,,,,,,,,,,,,,,,,,,,,,,,,,,,5e89fb8da9f5aa02cfac7ef1,6036da7cb82463b32a928f19,2021-02-24_23h13.13.673,Colour_Similarity_Experiment,2020.2.10,Win32,60,6036d0d9a84aa1626184a6ef,17.23106227,16.66487952,16.66582148,16.66657884,16.66683805,16.66602947,,,,,,,,,,,,,,,,,,,,PF,weak,3,,,,,,,,7,0.833345,,,,,,,,,,,,,,,,,,,,,,,,,,,,1,weak,56,109,1,0,0,response1disk,4,53,-1,2,1,0,0,rectangle,-1,2,1,0,0,5,5,0,0.000555,-1,2,1,0,0,0,52,52,139,1,,,,,,,,,,,,,,,,,,,,,
,,,,,,,,,,,,,,,,,,,,,,,,,,,,,,,,,,,,,,,,,,5e89fb8da9f5aa02cfac7ef1,6036da7cb82463b32a928f19,2021-02-24_23h13.13.673,Colour_Similarity_Experiment,2020.2.10,Win32,60,6036d0d9a84aa1626184a6ef,17.23106227,16.66487952,16.66582148,16.66657884,16.66683805,16.66602947,,,,,,,,,,,,,,,,,,,,PF,weak,3,,,,,,,,2,1.93336,,,,,,,,,,,,,,,,,,,,,,,,,,,,8,weak,-111,-57,1,0,0,response5disk,9,54,-24,-16,1,0,0,rectangle,-24,-16,1,0,0,5,3,0,0.0005,-24,-16,1,0,0,0,53,53,42,1,,,,,,,,,,,,,,,,,,,,,
,,,,,,,,,,,,,,,,,,,,,,,,,,,,,,,,,,,,,,,,,,5e89fb8da9f5aa02cfac7ef1,6036da7cb82463b32a928f19,2021-02-24_23h13.13.673,Colour_Similarity_Experiment,2020.2.10,Win32,60,6036d0d9a84aa1626184a6ef,17.23106227,16.66487952,16.66582148,16.66657884,16.66683805,16.66602947,,,,,,,,,,,,,,,,,,,,PF,weak,3,,,,,,,,2,1.20021,,,,,,,,,,,,,,,,,,,,,,,,,,,,6,weak,-62,-35,1,0,0,response5disk,7,55,-4,-3,1,0,0,rectangle,-4,-3,1,0,0,5,4,0,0.00053,-4,-3,1,0,0,0,54,54,50,1,,,,,,,,,,,,,,,,,,,,,
,,,,,,,,,,,,,,,,,,,,,,,,,,,,,,,,,,,,,,,,,,5e89fb8da9f5aa02cfac7ef1,6036da7cb82463b32a928f19,2021-02-24_23h13.13.673,Colour_Similarity_Experiment,2020.2.10,Win32,60,6036d0d9a84aa1626184a6ef,17.23106227,16.66487952,16.66582148,16.66657884,16.66683805,16.66602947,,,,,,,,,,,,,,,,,,,,PF,weak,3,,,,,,,,7,0.86685,,,,,,,,,,,,,,,,,,,,,,,,,,,,1,weak,35,74,1,0,0,response1disk,6,56,2,0,1,0,0,rectangle,2,0,1,0,0,5,6,0,0.00052,2,0,1,0,0,0,55,55,144,1,,,,,,,,,,,,,,,,,,,,,
,,,,,,,,,,,,,,,,,,,,,,,,,,,,,,,,,,,,,,,,,,5e89fb8da9f5aa02cfac7ef1,6036da7cb82463b32a928f19,2021-02-24_23h13.13.673,Colour_Similarity_Experiment,2020.2.10,Win32,60,6036d0d9a84aa1626184a6ef,17.23106227,16.66487952,16.66582148,16.66657884,16.66683805,16.66602947,,,,,,,,,,,,,,,,,,,,PF,weak,3,,,,,,,,7,0.866675,,,,,,,,,,,,,,,,,,,,,,,,,,,,4,weak,54,92,1,0,0,response1disk,2,57,2,-2,1,0,0,rectangle,2,-2,1,0,0,5,0,0,0.00054,2,-2,1,0,0,0,56,56,108,1,,,,,,,,,,,,,,,,,,,,,
,,,,,,,,,,,,,,,,,,,,,,,,,,,,,,,,,,,,,,,,,,5e89fb8da9f5aa02cfac7ef1,6036da7cb82463b32a928f19,2021-02-24_23h13.13.673,Colour_Similarity_Experiment,2020.2.10,Win32,60,6036d0d9a84aa1626184a6ef,17.23106227,16.66487952,16.66582148,16.66657884,16.66683805,16.66602947,,,,,,,,,,,,,,,,,,,,PF,strong,3,,,,,,,,7,0.833085,,,,,,,,,,,,,,,,,,,,,,,,,,,,5,strong,72,91,1,0,0,response1disk,2,58,0,7,1,0,0,rectangle,47,-101,1,0,0,4,4,1,2.233335,14,-3,1,0,0,0,57,57,55,1,response3disk_3,rectangle,,,,,,,,,,,,,,,,,,,
,,,,,,,,,,,,,,,,,,,,,,,,,,,,,,,,,,,,,,,,,,5e89fb8da9f5aa02cfac7ef1,6036da7cb82463b32a928f19,2021-02-24_23h13.13.673,Colour_Similarity_Experiment,2020.2.10,Win32,60,6036d0d9a84aa1626184a6ef,17.23106227,16.66487952,16.66582148,16.66657884,16.66683805,16.66602947,,,,,,,,,,,,,,,,,,,,PF,strong,3,,,,,,,,7,2.333215,,,,,,,,,,,,,,,,,,,,,,,,,,,,9,strong,51,83,1,0,0,response1disk,5,59,-5,-2,1,0,0,rectangle,-5,-2,1,0,0,4,1,0,0.00057,-5,-2,1,0,0,0,58,58,128,1,,,,,,,,,,,,,,,,,,,,,
,,,,,,,,,,,,,,,,,,,,,,,,,,,,,,,,,,,,,,,,,,5e89fb8da9f5aa02cfac7ef1,6036da7cb82463b32a928f19,2021-02-24_23h13.13.673,Colour_Similarity_Experiment,2020.2.10,Win32,60,6036d0d9a84aa1626184a6ef,17.23106227,16.66487952,16.66582148,16.66657884,16.66683805,16.66602947,,,,,,,,,,,,,,,,,,,,PF,strong,3,,,,,,,,6,1.183285,,,,,,,,,,,,,,,,,,,,,,,,,,,,3,strong,134,39,1,0,0,response1disk,7,60,-24,-2,1,0,0,rectangle,-24,-2,1,0,0,4,4,0,0.00055,-24,-2,1,0,0,0,59,59,118,1,,,,,,,,,,,,,,,,,,,,,
,,,,,,,,,,,,,,,,,,,,,,,,,,,,,,,,,,,,,,,,,,5e89fb8da9f5aa02cfac7ef1,6036da7cb82463b32a928f19,2021-02-24_23h13.13.673,Colour_Similarity_Experiment,2020.2.10,Win32,60,6036d0d9a84aa1626184a6ef,17.23106227,16.66487952,16.66582148,16.66657884,16.66683805,16.66602947,,,,,,,,,,,,,,,,,,,,PF,weak,3,,,,,,,,6,0.983365,,,,,,,,,,,,,,,,,,,,,,,,,,,,4,weak,92,54,1,0,0,response1disk,8,61,1,-8,1,0,0,rectangle,1,-8,1,0,0,4,6,0,0.000535,1,-8,1,0,0,0,60,60,124,1,,,,,,,,,,,,,,,,,,,,,
,,,,,,,,,,,,,,,,,,,,,,,,,,,,,,,,,,,,,,,,,,5e89fb8da9f5aa02cfac7ef1,6036da7cb82463b32a928f19,2021-02-24_23h13.13.673,Colour_Similarity_Experiment,2020.2.10,Win32,60,6036d0d9a84aa1626184a6ef,17.23106227,16.66487952,16.66582148,16.66657884,16.66683805,16.66602947,,,,,,,,,,,,,,,,,,,,PF,weak,3,,,,,,,,7,0.849995,,,,,,,,,,,,,,,,,,,,,,,,,,,,2,weak,45,84,1,0,0,response1disk,7,62,8,2,1,0,0,rectangle,8,2,1,0,0,4,7,0,0.000535,8,2,1,0,0,0,61,61,107,1,,,,,,,,,,,,,,,,,,,,,
,,,,,,,,,,,,,,,,,,,,,,,,,,,,,,,,,,,,,,,,,,5e89fb8da9f5aa02cfac7ef1,6036da7cb82463b32a928f19,2021-02-24_23h13.13.673,Colour_Similarity_Experiment,2020.2.10,Win32,60,6036d0d9a84aa1626184a6ef,17.23106227,16.66487952,16.66582148,16.66657884,16.66683805,16.66602947,,,,,,,,,,,,,,,,,,,,PF,weak,3,,,,,,,,7,0.916685,,,,,,,,,,,,,,,,,,,,,,,,,,,,6,weak,37,102,1,0,0,response1disk,4,63,-26,-5,1,0,0,rectangle,-26,-5,1,0,0,4,0,0,0.00054,-26,-5,1,0,0,0,62,62,33,1,,,,,,,,,,,,,,,,,,,,,
,,,,,,,,,,,,,,,,,,,,,,,,,,,,,,,,,,,,,,,,,,5e89fb8da9f5aa02cfac7ef1,6036da7cb82463b32a928f19,2021-02-24_23h13.13.673,Colour_Similarity_Experiment,2020.2.10,Win32,60,6036d0d9a84aa1626184a6ef,17.23106227,16.66487952,16.66582148,16.66657884,16.66683805,16.66602947,,,,,,,,,,,,,,,,,,,,PF,strong,3,,,,,,,,3,2.06667,,,,,,,,,,,,,,,,,,,,,,,,,,,,6,strong,-66,-105,1,0,0,response5disk,7,64,2,10,1,0,0,rectangle,2,10,1,0,0,4,0,0,7E-05,2,10,1,0,0,0,63,63,18,1,,,,,,,,,,,,,,,,,,,,,
,,,,,,,,,,,,,,,,,,,,,,,,,,,,,,,,,,,,,,,,,,5e89fb8da9f5aa02cfac7ef1,6036da7cb82463b32a928f19,2021-02-24_23h13.13.673,Colour_Similarity_Experiment,2020.2.10,Win32,60,6036d0d9a84aa1626184a6ef,17.23106227,16.66487952,16.66582148,16.66657884,16.66683805,16.66602947,,,,,,,,,,,,,,,,,,,,PF,weak,3,,,,,,,,7,1.566635,,,,,,,,,,,,,,,,,,,,,,,,,,,,5,weak,39,87,1,0,0,response1disk,1,65,-3,7,1,0,0,rectangle,-98,44,1,0,0,1,1,1,1.683325,-10,8,1,0,0,0,64,64,159,1,response7disk_3,rectangle,,,,,,,,,,,,,,,,,,,
,,,,,,,,,,,,,,,,,,,,,,,,,,,,,,,,,,,,,,,,,,5e89fb8da9f5aa02cfac7ef1,6036da7cb82463b32a928f19,2021-02-24_23h13.13.673,Colour_Similarity_Experiment,2020.2.10,Win32,60,6036d0d9a84aa1626184a6ef,17.23106227,16.66487952,16.66582148,16.66657884,16.66683805,16.66602947,,,,,,,,,,,,,,,,,,,,PF,strong,3,,,,,,,,5,2.383185,,,,,,,,,,,,,,,,,,,,,,,,,,,,3,strong,74,-42,1,0,0,response3disk,3,66,-9,7,1,0,0,rectangle,-9,7,1,0,0,1,3,0,0.000585,-9,7,1,0,0,0,65,65,68,1,,,,,,,,,,,,,,,,,,,,,
,,,,,,,,,,,,,,,,,,,,,,,,,,,,,,,,,,,,,,,,,,5e89fb8da9f5aa02cfac7ef1,6036da7cb82463b32a928f19,2021-02-24_23h13.13.673,Colour_Similarity_Experiment,2020.2.10,Win32,60,6036d0d9a84aa1626184a6ef,17.23106227,16.66487952,16.66582148,16.66657884,16.66683805,16.66602947,,,,,,,,,,,,,,,,,,,,PF,strong,3,,,,,,,,5,1.49999,,,,,,,,,,,,,,,,,,,,,,,,,,,,3,strong,60,-32,1,0,0,response3disk,5,67,-7,13,1,0,0,rectangle,-7,13,1,0,0,1,7,0,0.000545,-7,13,1,0,0,0,66,66,101,1,,,,,,,,,,,,,,,,,,,,,
,,,,,,,,,,,,,,,,,,,,,,,,,,,,,,,,,,,,,,,,,,5e89fb8da9f5aa02cfac7ef1,6036da7cb82463b32a928f19,2021-02-24_23h13.13.673,Colour_Similarity_Experiment,2020.2.10,Win32,60,6036d0d9a84aa1626184a6ef,17.23106227,16.66487952,16.66582148,16.66657884,16.66683805,16.66602947,,,,,,,,,,,,,,,,,,,,PF,strong,3,,,,,,,,6,3.35001,,,,,,,,,,,,,,,,,,,,,,,,,,,,8,strong,78,36,1,0,0,response1disk,1,68,-12,1,1,0,0,rectangle,-12,1,1,0,0,1,1,0,0.000535,-12,1,1,0,0,0,67,67,20,1,,,,,,,,,,,,,,,,,,,,,
,,,,,,,,,,,,,,,,,,,,,,,,,,,,,,,,,,,,,,,,,,5e89fb8da9f5aa02cfac7ef1,6036da7cb82463b32a928f19,2021-02-24_23h13.13.673,Colour_Similarity_Experiment,2020.2.10,Win32,60,6036d0d9a84aa1626184a6ef,17.23106227,16.66487952,16.66582148,16.66657884,16.66683805,16.66602947,,,,,,,,,,,,,,,,,,,,PF,strong,3,,,,,,,,7,2.216455,,,,,,,,,,,,,,,,,,,,,,,,,,,,6,strong,50,80,1,0,0,response1disk,3,69,14,11,1,0,0,rectangle,14,11,1,0,0,1,0,0,0.000515,14,11,1,0,0,0,68,68,21,1,,,,,,,,,,,,,,,,,,,,,
,,,,,,,,,,,,,,,,,,,,,,,,,,,,,,,,,,,,,,,,,,5e89fb8da9f5aa02cfac7ef1,6036da7cb82463b32a928f19,2021-02-24_23h13.13.673,Colour_Similarity_Experiment,2020.2.10,Win32,60,6036d0d9a84aa1626184a6ef,17.23106227,16.66487952,16.66582148,16.66657884,16.66683805,16.66602947,,,,,,,,,,,,,,,,,,,,PF,weak,3,,,,,,,,7,1.69997,,,,,,,,,,,,,,,,,,,,,,,,,,,,3,weak,45,93,1,0,0,response1disk,8,70,4,5,1,0,0,rectangle,4,5,1,0,0,1,0,0,7E-05,4,5,1,0,0,0,69,69,3,1,,,,,,,,,,,,,,,,,,,,,
,,,,,,,,,,,,,,,,,,,,,,,,,,,,,,,,,,,,,,,,,,5e89fb8da9f5aa02cfac7ef1,6036da7cb82463b32a928f19,2021-02-24_23h13.13.673,Colour_Similarity_Experiment,2020.2.10,Win32,60,6036d0d9a84aa1626184a6ef,17.23106227,16.66487952,16.66582148,16.66657884,16.66683805,16.66602947,,,,,,,,,,,,,,,,,,,,PF,strong,3,,,,,,,,2,1.81668,,,,,,,,,,,,,,,,,,,,,,,,,,,,3,strong,-96,-27,1,0,0,response5disk,4,71,11,13,1,0,0,rectangle,11,13,1,0,0,1,2,0,0.000545,11,13,1,0,0,0,70,70,110,1,,,,,,,,,,,,,,,,,,,,,
,,,,,,,,,,,,,,,,,,,,,,,,,,,,,,,,,,,,,,,,,,5e89fb8da9f5aa02cfac7ef1,6036da7cb82463b32a928f19,2021-02-24_23h13.13.673,Colour_Similarity_Experiment,2020.2.10,Win32,60,6036d0d9a84aa1626184a6ef,17.23106227,16.66487952,16.66582148,16.66657884,16.66683805,16.66602947,,,,,,,,,,,,,,,,,,,,PF,weak,3,,,,,,,,6,3.55005,,,,,,,,,,,,,,,,,,,,,,,,,,,,5,weak,80,34,1,0,0,response1disk,7,72,25,-3,1,0,0,rectangle,25,-3,1,0,0,1,5,0,0.000545,25,-3,1,0,0,0,71,71,146,1,,,,,,,,,,,,,,,,,,,,,
,,,,,,,,,,,,,,,,,,,,,,,,,,,,,,,,,,,,,,,,,,5e89fb8da9f5aa02cfac7ef1,6036da7cb82463b32a928f19,2021-02-24_23h13.13.673,Colour_Similarity_Experiment,2020.2.10,Win32,60,6036d0d9a84aa1626184a6ef,17.23106227,16.66487952,16.66582148,16.66657884,16.66683805,16.66602947,,,,,,,,,,,,,,,,,,,,PF,weak,3,,,,,,,,7,0.916635,,,,,,,,,,,,,,,,,,,,,,,,,,,,9,weak,47,103,1,0,0,response1disk,4,73,10,13,1,0,0,rectangle,10,13,1,0,0,1,5,0,7.5E-05,10,13,1,0,0,0,72,72,114,1,,,,,,,,,,,,,,,,,,,,,
,,,,,,,,,,,,,,,,,,,,,,,,,,,,,,,,,,,,,,,,,,5e89fb8da9f5aa02cfac7ef1,6036da7cb82463b32a928f19,2021-02-24_23h13.13.673,Colour_Similarity_Experiment,2020.2.10,Win32,60,6036d0d9a84aa1626184a6ef,17.23106227,16.66487952,16.66582148,16.66657884,16.66683805,16.66602947,,,,,,,,,,,,,,,,,,,,PF,strong,3,,,,,,,,4,1.783345,,,,,,,,,,,,,,,,,,,,,,,,,,,,1,strong,45,-108,1,0,0,response3disk,9,74,19,-12,1,0,0,rectangle,19,-12,1,0,0,1,4,0,0.000535,19,-12,1,0,0,0,73,73,123,1,,,,,,,,,,,,,,,,,,,,,
,,,,,,,,,,,,,,,,,,,,,,,,,,,,,,,,,,,,,,,,,,5e89fb8da9f5aa02cfac7ef1,6036da7cb82463b32a928f19,2021-02-24_23h13.13.673,Colour_Similarity_Experiment,2020.2.10,Win32,60,6036d0d9a84aa1626184a6ef,17.23106227,16.66487952,16.66582148,16.66657884,16.66683805,16.66602947,,,,,,,,,,,,,,,,,,,,PF,weak,3,,,,,,,,0,1.766705,,,,,,,,,,,,,,,,,,,,,,,,,,,,3,weak,-39,76,1,0,0,response7disk,3,75,-1,5,1,0,0,rectangle,-1,5,1,0,0,1,1,0,0.000525,-1,5,1,0,0,0,74,74,4,1,,,,,,,,,,,,,,,,,,,,,
,,,,,,,,,,,,,,,,,,,,,,,,,,,,,,,,,,,,,,,,,,5e89fb8da9f5aa02cfac7ef1,6036da7cb82463b32a928f19,2021-02-24_23h13.13.673,Colour_Similarity_Experiment,2020.2.10,Win32,60,6036d0d9a84aa1626184a6ef,17.23106227,16.66487952,16.66582148,16.66657884,16.66683805,16.66602947,,,,,,,,,,,,,,,,,,,,PF,strong,3,,,,,,,,7,0.89996,,,,,,,,,,,,,,,,,,,,,,,,,,,,2,strong,63,121,1,0,0,response1disk,7,76,-4,-10,1,0,0,rectangle,-4,-10,1,0,0,1,1,0,0.000065,-4,-10,1,0,0,0,75,75,63,1,,,,,,,,,,,,,,,,,,,,,
,,,,,,,,,,,,,,,,,,,,,,,,,,,,,,,,,,,,,,,,,,5e89fb8da9f5aa02cfac7ef1,6036da7cb82463b32a928f19,2021-02-24_23h13.13.673,Colour_Similarity_Experiment,2020.2.10,Win32,60,6036d0d9a84aa1626184a6ef,17.23106227,16.66487952,16.66582148,16.66657884,16.66683805,16.66602947,,,,,,,,,,,,,,,,,,,,PF,strong,3,,,,,,,,4,1.63335,,,,,,,,,,,,,,,,,,,,,,,,,,,,7,strong,31,-72,1,0,0,response3disk,5,77,8,-12,1,0,0,rectangle,8,-12,1,0,0,1,2,0,0.00056,8,-12,1,0,0,0,76,76,156,1,,,,,,,,,,,,,,,,,,,,,
,,,,,,,,,,,,,,,,,,,,,,,,,,,,,,,,,,,,,,,,,,5e89fb8da9f5aa02cfac7ef1,6036da7cb82463b32a928f19,2021-02-24_23h13.13.673,Colour_Similarity_Experiment,2020.2.10,Win32,60,6036d0d9a84aa1626184a6ef,17.23106227,16.66487952,16.66582148,16.66657884,16.66683805,16.66602947,,,,,,,,,,,,,,,,,,,,PF,strong,3,,,,,,,,5,1.450005,,,,,,,,,,,,,,,,,,,,,,,,,,,,1,strong,59,-42,1,0,0,response3disk,8,78,-16,-7,1,0,0,rectangle,-16,-7,1,0,0,1,1,0,0.00054,-16,-7,1,0,0,0,77,77,27,1,,,,,,,,,,,,,,,,,,,,,
,,,,,,,,,,,,,,,,,,,,,,,,,,,,,,,,,,,,,,,,,,5e89fb8da9f5aa02cfac7ef1,6036da7cb82463b32a928f19,2021-02-24_23h13.13.673,Colour_Similarity_Experiment,2020.2.10,Win32,60,6036d0d9a84aa1626184a6ef,17.23106227,16.66487952,16.66582148,16.66657884,16.66683805,16.66602947,,,,,,,,,,,,,,,,,,,,PF,strong,3,,,,,,,,7,1.150005,,,,,,,,,,,,,,,,,,,,,,,,,,,,2,strong,33,114,1,0,0,response1disk,5,79,-10,3,1,0,0,rectangle,-10,3,1,0,0,1,1,0,0.000065,-10,3,1,0,0,0,78,78,80,1,,,,,,,,,,,,,,,,,,,,,
,,,,,,,,,,,,,,,,,,,,,,,,,,,,,,,,,,,,,,,,,,5e89fb8da9f5aa02cfac7ef1,6036da7cb82463b32a928f19,2021-02-24_23h13.13.673,Colour_Similarity_Experiment,2020.2.10,Win32,60,6036d0d9a84aa1626184a6ef,17.23106227,16.66487952,16.66582148,16.66657884,16.66683805,16.66602947,,,,,,,,,,,,,,,,,,,,PF,weak,3,,,,,,,,3,3.299625,,,,,,,,,,,,,,,,,,,,,,,,,,,,3,weak,-55,-98,1,0,0,response5disk,4,80,2,-11,1,0,0,rectangle,2,-11,1,0,0,1,0,0,0.000505,2,-11,1,0,0,0,79,79,30,1,,,,,,,,,,,,,,,,,,,,,
,,,,,,,,,,,,,,,,,,,,,,,,,,,,,,,,,,,,,,,,,,5e89fb8da9f5aa02cfac7ef1,6036da7cb82463b32a928f19,2021-02-24_23h13.13.673,Colour_Similarity_Experiment,2020.2.10,Win32,60,6036d0d9a84aa1626184a6ef,17.23106227,16.66487952,16.66582148,16.66657884,16.66683805,16.66602947,,,,,,,,,,,,,,,,,,,,PF,strong,3,,,,,,,,3,1.466645,,,,,,,,,,,,,,,,,,,,,,,,,,,,7,strong,-52,-89,1,0,0,response5disk,8,81,-11,2,1,0,0,rectangle,60,-77,1,0,0,4,4,1,1.69975,16,6,1,0,0,0,80,80,97,1,response3disk_3,rectangle,,,,,,,,,,,,,,,,,,,
,,,,,,,,,,,,,,,,,,,,,,,,,,,,,,,,,,,,,,,,,,5e89fb8da9f5aa02cfac7ef1,6036da7cb82463b32a928f19,2021-02-24_23h13.13.673,Colour_Similarity_Experiment,2020.2.10,Win32,60,6036d0d9a84aa1626184a6ef,17.23106227,16.66487952,16.66582148,16.66657884,16.66683805,16.66602947,,,,,,,,,,,,,,,,,,,,PF,weak,3,,,,,,,,5,1.383335,,,,,,,,,,,,,,,,,,,,,,,,,,,,7,weak,66,-44,1,0,0,response3disk,9,82,12,-19,1,0,0,rectangle,12,-19,1,0,0,4,4,0,7E-05,12,-19,1,0,0,0,81,81,10,1,,,,,,,,,,,,,,,,,,,,,
,,,,,,,,,,,,,,,,,,,,,,,,,,,,,,,,,,,,,,,,,,5e89fb8da9f5aa02cfac7ef1,6036da7cb82463b32a928f19,2021-02-24_23h13.13.673,Colour_Similarity_Experiment,2020.2.10,Win32,60,6036d0d9a84aa1626184a6ef,17.23106227,16.66487952,16.66582148,16.66657884,16.66683805,16.66602947,,,,,,,,,,,,,,,,,,,,PF,weak,3,,,,,,,,7,1.26649,,,,,,,,,,,,,,,,,,,,,,,,,,,,1,weak,45,94,1,0,0,response1disk,5,83,18,2,1,0,0,rectangle,18,2,1,0,0,4,0,0,0.00057,18,2,1,0,0,0,82,82,28,1,,,,,,,,,,,,,,,,,,,,,
,,,,,,,,,,,,,,,,,,,,,,,,,,,,,,,,,,,,,,,,,,5e89fb8da9f5aa02cfac7ef1,6036da7cb82463b32a928f19,2021-02-24_23h13.13.673,Colour_Similarity_Experiment,2020.2.10,Win32,60,6036d0d9a84aa1626184a6ef,17.23106227,16.66487952,16.66582148,16.66657884,16.66683805,16.66602947,,,,,,,,,,,,,,,,,,,,PF,strong,3,,,,,,,,4,1.40002,,,,,,,,,,,,,,,,,,,,,,,,,,,,2,strong,50,-94,1,0,0,response3disk,1,84,3,8,1,0,0,rectangle,3,8,1,0,0,4,1,0,0.000555,3,8,1,0,0,0,83,83,85,1,,,,,,,,,,,,,,,,,,,,,
,,,,,,,,,,,,,,,,,,,,,,,,,,,,,,,,,,,,,,,,,,5e89fb8da9f5aa02cfac7ef1,6036da7cb82463b32a928f19,2021-02-24_23h13.13.673,Colour_Similarity_Experiment,2020.2.10,Win32,60,6036d0d9a84aa1626184a6ef,17.23106227,16.66487952,16.66582148,16.66657884,16.66683805,16.66602947,,,,,,,,,,,,,,,,,,,,PF,strong,3,,,,,,,,7,1.13336,,,,,,,,,,,,,,,,,,,,,,,,,,,,2,strong,72,115,1,0,0,response1disk,6,85,26,11,1,0,0,rectangle,26,11,1,0,0,4,7,0,0.00054,26,11,1,0,0,0,84,84,40,1,,,,,,,,,,,,,,,,,,,,,
,,,,,,,,,,,,,,,,,,,,,,,,,,,,,,,,,,,,,,,,,,5e89fb8da9f5aa02cfac7ef1,6036da7cb82463b32a928f19,2021-02-24_23h13.13.673,Colour_Similarity_Experiment,2020.2.10,Win32,60,6036d0d9a84aa1626184a6ef,17.23106227,16.66487952,16.66582148,16.66657884,16.66683805,16.66602947,,,,,,,,,,,,,,,,,,,,PF,strong,3,,,,,,,,6,1.14997,,,,,,,,,,,,,,,,,,,,,,,,,,,,2,strong,105,48,1,0,0,response1disk,9,86,-5,10,1,0,0,rectangle,-5,10,1,0,0,4,6,0,0.000555,-5,10,1,0,0,0,85,85,72,1,,,,,,,,,,,,,,,,,,,,,
,,,,,,,,,,,,,,,,,,,,,,,,,,,,,,,,,,,,,,,,,,5e89fb8da9f5aa02cfac7ef1,6036da7cb82463b32a928f19,2021-02-24_23h13.13.673,Colour_Similarity_Experiment,2020.2.10,Win32,60,6036d0d9a84aa1626184a6ef,17.23106227,16.66487952,16.66582148,16.66657884,16.66683805,16.66602947,,,,,,,,,,,,,,,,,,,,PF,strong,3,,,,,,,,7,0.96667,,,,,,,,,,,,,,,,,,,,,,,,,,,,1,strong,47,81,1,0,0,response1disk,6,87,-2,1,1,0,0,rectangle,-2,1,1,0,0,4,2,0,0.00052,-2,1,1,0,0,0,86,86,58,1,,,,,,,,,,,,,,,,,,,,,
,,,,,,,,,,,,,,,,,,,,,,,,,,,,,,,,,,,,,,,,,,5e89fb8da9f5aa02cfac7ef1,6036da7cb82463b32a928f19,2021-02-24_23h13.13.673,Colour_Similarity_Experiment,2020.2.10,Win32,60,6036d0d9a84aa1626184a6ef,17.23106227,16.66487952,16.66582148,16.66657884,16.66683805,16.66602947,,,,,,,,,,,,,,,,,,,,PF,weak,3,,,,,,,,5,1.149965,,,,,,,,,,,,,,,,,,,,,,,,,,,,9,weak,77,-52,1,0,0,response3disk,8,88,-3,-11,1,0,0,rectangle,-3,-11,1,0,0,4,3,0,0.000555,-3,-11,1,0,0,0,87,87,67,1,,,,,,,,,,,,,,,,,,,,,
,,,,,,,,,,,,,,,,,,,,,,,,,,,,,,,,,,,,,,,,,,5e89fb8da9f5aa02cfac7ef1,6036da7cb82463b32a928f19,2021-02-24_23h13.13.673,Colour_Similarity_Experiment,2020.2.10,Win32,60,6036d0d9a84aa1626184a6ef,17.23106227,16.66487952,16.66582148,16.66657884,16.66683805,16.66602947,,,,,,,,,,,,,,,,,,,,PF,weak,3,,,,,,,,4,1.100015,,,,,,,,,,,,,,,,,,,,,,,,,,,,3,weak,34,-76,1,0,0,response3disk,5,89,14,0,1,0,0,rectangle,14,0,1,0,0,4,0,0,0.00056,14,0,1,0,0,0,88,88,66,1,,,,,,,,,,,,,,,,,,,,,
,,,,,,,,,,,,,,,,,,,,,,,,,,,,,,,,,,,,,,,,,,5e89fb8da9f5aa02cfac7ef1,6036da7cb82463b32a928f19,2021-02-24_23h13.13.673,Colour_Similarity_Experiment,2020.2.10,Win32,60,6036d0d9a84aa1626184a6ef,17.23106227,16.66487952,16.66582148,16.66657884,16.66683805,16.66602947,,,,,,,,,,,,,,,,,,,,PF,weak,3,,,,,,,,2,1.91674,,,,,,,,,,,,,,,,,,,,,,,,,,,,1,weak,-74,-49,1,0,0,response5disk,9,90,-8,2,1,0,0,rectangle,-8,2,1,0,0,4,7,0,0.00052,-8,2,1,0,0,0,89,89,15,1,,,,,,,,,,,,,,,,,,,,,
,,,,,,,,,,,,,,,,,,,,,,,,,,,,,,,,,,,,,,,,,,5e89fb8da9f5aa02cfac7ef1,6036da7cb82463b32a928f19,2021-02-24_23h13.13.673,Colour_Similarity_Experiment,2020.2.10,Win32,60,6036d0d9a84aa1626184a6ef,17.23106227,16.66487952,16.66582148,16.66657884,16.66683805,16.66602947,,,,,,,,,,,,,,,,,,,,PF,weak,3,,,,,,,,6,1.666675,,,,,,,,,,,,,,,,,,,,,,,,,,,,2,weak,82,52,1,0,0,response1disk,3,91,6,0,1,0,0,rectangle,6,0,1,0,0,4,0,0,0.000545,6,0,1,0,0,0,90,90,69,1,,,,,,,,,,,,,,,,,,,,,
,,,,,,,,,,,,,,,,,,,,,,,,,,,,,,,,,,,,,,,,,,5e89fb8da9f5aa02cfac7ef1,6036da7cb82463b32a928f19,2021-02-24_23h13.13.673,Colour_Similarity_Experiment,2020.2.10,Win32,60,6036d0d9a84aa1626184a6ef,17.23106227,16.66487952,16.66582148,16.66657884,16.66683805,16.66602947,,,,,,,,,,,,,,,,,,,,PF,weak,3,,,,,,,,7,1.13334,,,,,,,,,,,,,,,,,,,,,,,,,,,,5,weak,59,100,1,0,0,response1disk,8,92,-6,-16,1,0,0,rectangle,-6,-16,1,0,0,4,0,0,9E-05,-6,-16,1,0,0,0,91,91,149,1,,,,,,,,,,,,,,,,,,,,,
,,,,,,,,,,,,,,,,,,,,,,,,,,,,,,,,,,,,,,,,,,5e89fb8da9f5aa02cfac7ef1,6036da7cb82463b32a928f19,2021-02-24_23h13.13.673,Colour_Similarity_Experiment,2020.2.10,Win32,60,6036d0d9a84aa1626184a6ef,17.23106227,16.66487952,16.66582148,16.66657884,16.66683805,16.66602947,,,,,,,,,,,,,,,,,,,,PF,weak,3,,,,,,,,7,1.03334,,,,,,,,,,,,,,,,,,,,,,,,,,,,9,weak,68,86,1,0,0,response1disk,2,93,11,2,1,0,0,rectangle,11,2,1,0,0,4,7,0,0.00054,11,2,1,0,0,0,92,92,157,1,,,,,,,,,,,,,,,,,,,,,
,,,,,,,,,,,,,,,,,,,,,,,,,,,,,,,,,,,,,,,,,,5e89fb8da9f5aa02cfac7ef1,6036da7cb82463b32a928f19,2021-02-24_23h13.13.673,Colour_Similarity_Experiment,2020.2.10,Win32,60,6036d0d9a84aa1626184a6ef,17.23106227,16.66487952,16.66582148,16.66657884,16.66683805,16.66602947,,,,,,,,,,,,,,,,,,,,PF,weak,3,,,,,,,,7,0.699975,,,,,,,,,,,,,,,,,,,,,,,,,,,,5,weak,36,73,1,0,0,response1disk,2,94,10,-7,1,0,0,rectangle,10,-7,1,0,0,4,4,0,0.000535,10,-7,1,0,0,0,93,93,129,1,,,,,,,,,,,,,,,,,,,,,
,,,,,,,,,,,,,,,,,,,,,,,,,,,,,,,,,,,,,,,,,,5e89fb8da9f5aa02cfac7ef1,6036da7cb82463b32a928f19,2021-02-24_23h13.13.673,Colour_Similarity_Experiment,2020.2.10,Win32,60,6036d0d9a84aa1626184a6ef,17.23106227,16.66487952,16.66582148,16.66657884,16.66683805,16.66602947,,,,,,,,,,,,,,,,,,,,PF,strong,3,,,,,,,,7,1.25001,,,,,,,,,,,,,,,,,,,,,,,,,,,,5,strong,34,110,1,0,0,response1disk,9,95,-14,-20,1,0,0,rectangle,-14,-20,1,0,0,4,7,0,0.00055,-14,-20,1,0,0,0,94,94,61,1,,,,,,,,,,,,,,,,,,,,,
,,,,,,,,,,,,,,,,,,,,,,,,,,,,,,,,,,,,,,,,,,5e89fb8da9f5aa02cfac7ef1,6036da7cb82463b32a928f19,2021-02-24_23h13.13.673,Colour_Similarity_Experiment,2020.2.10,Win32,60,6036d0d9a84aa1626184a6ef,17.23106227,16.66487952,16.66582148,16.66657884,16.66683805,16.66602947,,,,,,,,,,,,,,,,,,,,PF,strong,3,,,,,,,,2,1.250025,,,,,,,,,,,,,,,,,,,,,,,,,,,,6,strong,-56,-44,1,0,0,response5disk,6,96,-2,-16,1,0,0,rectangle,-2,-16,1,0,0,4,4,0,0.000535,-2,-16,1,0,0,0,95,95,91,1,,,,,,,,,,,,,,,,,,,,,
,,,,,,,,,,,,,,,,,,,,,,,,,,,,,,,,,,,,,,,,,,5e89fb8da9f5aa02cfac7ef1,6036da7cb82463b32a928f19,2021-02-24_23h13.13.673,Colour_Similarity_Experiment,2020.2.10,Win32,60,6036d0d9a84aa1626184a6ef,17.23106227,16.66487952,16.66582148,16.66657884,16.66683805,16.66602947,,,,,,,,,,,,,,,,,,,,PF,strong,3,,,,,,,,7,0.966655,,,,,,,,,,,,,,,,,,,,,,,,,,,,2,strong,63,115,1,0,0,response1disk,3,97,-8,-1,1,0,0,rectangle,138,42,1,0,0,6,6,1,1.999995,-6,-13,1,0,0,0,96,96,104,1,response1disk_3,rectangle,,,,,,,,,,,,,,,,,,,
,,,,,,,,,,,,,,,,,,,,,,,,,,,,,,,,,,,,,,,,,,5e89fb8da9f5aa02cfac7ef1,6036da7cb82463b32a928f19,2021-02-24_23h13.13.673,Colour_Similarity_Experiment,2020.2.10,Win32,60,6036d0d9a84aa1626184a6ef,17.23106227,16.66487952,16.66582148,16.66657884,16.66683805,16.66602947,,,,,,,,,,,,,,,,,,,,PF,strong,3,,,,,,,,7,0.950015,,,,,,,,,,,,,,,,,,,,,,,,,,,,6,strong,58,113,1,0,0,response1disk,4,98,9,3,1,0,0,rectangle,9,3,1,0,0,6,7,0,0.000585,9,3,1,0,0,0,97,97,56,1,,,,,,,,,,,,,,,,,,,,,
,,,,,,,,,,,,,,,,,,,,,,,,,,,,,,,,,,,,,,,,,,5e89fb8da9f5aa02cfac7ef1,6036da7cb82463b32a928f19,2021-02-24_23h13.13.673,Colour_Similarity_Experiment,2020.2.10,Win32,60,6036d0d9a84aa1626184a6ef,17.23106227,16.66487952,16.66582148,16.66657884,16.66683805,16.66602947,,,,,,,,,,,,,,,,,,,,PF,weak,3,,,,,,,,7,0.683325,,,,,,,,,,,,,,,,,,,,,,,,,,,,1,weak,53,78,1,0,0,response1disk,2,99,9,4,1,0,0,rectangle,9,4,1,0,0,6,5,0,0.00055,9,4,1,0,0,0,98,98,24,1,,,,,,,,,,,,,,,,,,,,,
,,,,,,,,,,,,,,,,,,,,,,,,,,,,,,,,,,,,,,,,,,5e89fb8da9f5aa02cfac7ef1,6036da7cb82463b32a928f19,2021-02-24_23h13.13.673,Colour_Similarity_Experiment,2020.2.10,Win32,60,6036d0d9a84aa1626184a6ef,17.23106227,16.66487952,16.66582148,16.66657884,16.66683805,16.66602947,,,,,,,,,,,,,,,,,,,,PF,weak,3,,,,,,,,7,0.63338,,,,,,,,,,,,,,,,,,,,,,,,,,,,7,weak,74,94,1,0,0,response1disk,3,100,15,-2,1,0,0,rectangle,15,-2,1,0,0,6,5,0,7.5E-05,15,-2,1,0,0,0,99,99,81,1,,,,,,,,,,,,,,,,,,,,,
,,,,,,,,,,,,,,,,,,,,,,,,,,,,,,,,,,,,,,,,,,5e89fb8da9f5aa02cfac7ef1,6036da7cb82463b32a928f19,2021-02-24_23h13.13.673,Colour_Similarity_Experiment,2020.2.10,Win32,60,6036d0d9a84aa1626184a6ef,17.23106227,16.66487952,16.66582148,16.66657884,16.66683805,16.66602947,,,,,,,,,,,,,,,,,,,,PF,weak,3,,,,,,,,7,0.650025,,,,,,,,,,,,,,,,,,,,,,,,,,,,5,weak,47,80,1,0,0,response1disk,4,101,15,-10,1,0,0,rectangle,15,-10,1,0,0,6,4,0,0.00054,15,-10,1,0,0,0,100,100,54,1,,,,,,,,,,,,,,,,,,,,,
,,,,,,,,,,,,,,,,,,,,,,,,,,,,,,,,,,,,,,,,,,5e89fb8da9f5aa02cfac7ef1,6036da7cb82463b32a928f19,2021-02-24_23h13.13.673,Colour_Similarity_Experiment,2020.2.10,Win32,60,6036d0d9a84aa1626184a6ef,17.23106227,16.66487952,16.66582148,16.66657884,16.66683805,16.66602947,,,,,,,,,,,,,,,,,,,,PF,strong,3,,,,,,,,7,1.41668,,,,,,,,,,,,,,,,,,,,,,,,,,,,5,strong,38,98,1,0,0,response1disk,8,102,20,-7,1,0,0,rectangle,20,-7,1,0,0,6,2,0,0.000545,20,-7,1,0,0,0,101,101,16,1,,,,,,,,,,,,,,,,,,,,,
,,,,,,,,,,,,,,,,,,,,,,,,,,,,,,,,,,,,,,,,,,5e89fb8da9f5aa02cfac7ef1,6036da7cb82463b32a928f19,2021-02-24_23h13.13.673,Colour_Similarity_Experiment,2020.2.10,Win32,60,6036d0d9a84aa1626184a6ef,17.23106227,16.66487952,16.66582148,16.66657884,16.66683805,16.66602947,,,,,,,,,,,,,,,,,,,,PF,strong,3,,,,,,,,5,2.15,,,,,,,,,,,,,,,,,,,,,,,,,,,,8,strong,50,-35,1,0,0,response3disk,7,103,0,7,1,0,0,rectangle,0,7,1,0,0,6,7,0,0.000525,0,7,1,0,0,0,102,102,86,1,,,,,,,,,,,,,,,,,,,,,
,,,,,,,,,,,,,,,,,,,,,,,,,,,,,,,,,,,,,,,,,,5e89fb8da9f5aa02cfac7ef1,6036da7cb82463b32a928f19,2021-02-24_23h13.13.673,Colour_Similarity_Experiment,2020.2.10,Win32,60,6036d0d9a84aa1626184a6ef,17.23106227,16.66487952,16.66582148,16.66657884,16.66683805,16.66602947,,,,,,,,,,,,,,,,,,,,PF,strong,3,,,,,,,,5,1.750025,,,,,,,,,,,,,,,,,,,,,,,,,,,,6,strong,73,-31,1,0,0,response3disk,5,104,-17,19,1,0,0,rectangle,-17,19,1,0,0,6,2,0,0.00053,-17,19,1,0,0,0,103,103,126,1,,,,,,,,,,,,,,,,,,,,,
,,,,,,,,,,,,,,,,,,,,,,,,,,,,,,,,,,,,,,,,,,5e89fb8da9f5aa02cfac7ef1,6036da7cb82463b32a928f19,2021-02-24_23h13.13.673,Colour_Similarity_Experiment,2020.2.10,Win32,60,6036d0d9a84aa1626184a6ef,17.23106227,16.66487952,16.66582148,16.66657884,16.66683805,16.66602947,,,,,,,,,,,,,,,,,,,,PF,strong,3,,,,,,,,5,0.79986,,,,,,,,,,,,,,,,,,,,,,,,,,,,5,strong,75,-52,1,0,0,response3disk,5,105,1,-16,1,0,0,rectangle,1,-16,1,0,0,6,1,0,0.0005,1,-16,1,0,0,0,104,104,19,1,,,,,,,,,,,,,,,,,,,,,
,,,,,,,,,,,,,,,,,,,,,,,,,,,,,,,,,,,,,,,,,,5e89fb8da9f5aa02cfac7ef1,6036da7cb82463b32a928f19,2021-02-24_23h13.13.673,Colour_Similarity_Experiment,2020.2.10,Win32,60,6036d0d9a84aa1626184a6ef,17.23106227,16.66487952,16.66582148,16.66657884,16.66683805,16.66602947,,,,,,,,,,,,,,,,,,,,PF,strong,3,,,,,,,,7,1.066685,,,,,,,,,,,,,,,,,,,,,,,,,,,,2,strong,36,82,1,0,0,response1disk,8,106,3,11,1,0,0,rectangle,3,11,1,0,0,6,3,0,0.00052,3,11,1,0,0,0,105,105,62,1,,,,,,,,,,,,,,,,,,,,,
,,,,,,,,,,,,,,,,,,,,,,,,,,,,,,,,,,,,,,,,,,5e89fb8da9f5aa02cfac7ef1,6036da7cb82463b32a928f19,2021-02-24_23h13.13.673,Colour_Similarity_Experiment,2020.2.10,Win32,60,6036d0d9a84aa1626184a6ef,17.23106227,16.66487952,16.66582148,16.66657884,16.66683805,16.66602947,,,,,,,,,,,,,,,,,,,,PF,weak,3,,,,,,,,7,0.76669,,,,,,,,,,,,,,,,,,,,,,,,,,,,6,weak,47,72,1,0,0,response1disk,3,107,4,1,1,0,0,rectangle,4,1,1,0,0,6,1,0,0.000505,4,1,1,0,0,0,106,106,26,1,,,,,,,,,,,,,,,,,,,,,
,,,,,,,,,,,,,,,,,,,,,,,,,,,,,,,,,,,,,,,,,,5e89fb8da9f5aa02cfac7ef1,6036da7cb82463b32a928f19,2021-02-24_23h13.13.673,Colour_Similarity_Experiment,2020.2.10,Win32,60,6036d0d9a84aa1626184a6ef,17.23106227,16.66487952,16.66582148,16.66657884,16.66683805,16.66602947,,,,,,,,,,,,,,,,,,,,PF,weak,3,,,,,,,,0,1.050015,,,,,,,,,,,,,,,,,,,,,,,,,,,,8,weak,-39,71,1,0,0,response7disk,8,108,6,-7,1,0,0,rectangle,6,-7,1,0,0,6,2,0,0.000515,6,-7,1,0,0,0,107,107,153,1,,,,,,,,,,,,,,,,,,,,,
,,,,,,,,,,,,,,,,,,,,,,,,,,,,,,,,,,,,,,,,,,5e89fb8da9f5aa02cfac7ef1,6036da7cb82463b32a928f19,2021-02-24_23h13.13.673,Colour_Similarity_Experiment,2020.2.10,Win32,60,6036d0d9a84aa1626184a6ef,17.23106227,16.66487952,16.66582148,16.66657884,16.66683805,16.66602947,,,,,,,,,,,,,,,,,,,,PF,strong,3,,,,,,,,3,1.5167,,,,,,,,,,,,,,,,,,,,,,,,,,,,5,strong,-48,-82,1,0,0,response5disk,6,109,8,-11,1,0,0,rectangle,8,-11,1,0,0,6,0,0,0.0005,8,-11,1,0,0,0,108,108,12,1,,,,,,,,,,,,,,,,,,,,,
,,,,,,,,,,,,,,,,,,,,,,,,,,,,,,,,,,,,,,,,,,5e89fb8da9f5aa02cfac7ef1,6036da7cb82463b32a928f19,2021-02-24_23h13.13.673,Colour_Similarity_Experiment,2020.2.10,Win32,60,6036d0d9a84aa1626184a6ef,17.23106227,16.66487952,16.66582148,16.66657884,16.66683805,16.66602947,,,,,,,,,,,,,,,,,,,,PF,strong,3,,,,,,,,7,1.51667,,,,,,,,,,,,,,,,,,,,,,,,,,,,4,strong,28,57,1,0,0,response1disk,6,110,-4,-18,1,0,0,rectangle,-4,-18,1,0,0,6,4,0,0.00051,-4,-18,1,0,0,0,109,109,122,1,,,,,,,,,,,,,,,,,,,,,
,,,,,,,,,,,,,,,,,,,,,,,,,,,,,,,,,,,,,,,,,,5e89fb8da9f5aa02cfac7ef1,6036da7cb82463b32a928f19,2021-02-24_23h13.13.673,Colour_Similarity_Experiment,2020.2.10,Win32,60,6036d0d9a84aa1626184a6ef,17.23106227,16.66487952,16.66582148,16.66657884,16.66683805,16.66602947,,,,,,,,,,,,,,,,,,,,PF,strong,3,,,,,,,,5,1.183365,,,,,,,,,,,,,,,,,,,,,,,,,,,,9,strong,79,-57,1,0,0,response3disk,1,111,16,-5,1,0,0,rectangle,16,-5,1,0,0,6,2,0,0.000515,16,-5,1,0,0,0,110,110,111,1,,,,,,,,,,,,,,,,,,,,,
,,,,,,,,,,,,,,,,,,,,,,,,,,,,,,,,,,,,,,,,,,5e89fb8da9f5aa02cfac7ef1,6036da7cb82463b32a928f19,2021-02-24_23h13.13.673,Colour_Similarity_Experiment,2020.2.10,Win32,60,6036d0d9a84aa1626184a6ef,17.23106227,16.66487952,16.66582148,16.66657884,16.66683805,16.66602947,,,,,,,,,,,,,,,,,,,,PF,strong,3,,,,,,,,7,1.050005,,,,,,,,,,,,,,,,,,,,,,,,,,,,7,strong,51,137,1,0,0,response1disk,3,112,-5,10,1,0,0,rectangle,-5,10,1,0,0,6,7,0,0.000525,-5,10,1,0,0,0,111,111,73,1,,,,,,,,,,,,,,,,,,,,,
,,,,,,,,,,,,,,,,,,,,,,,,,,,,,,,,,,,,,,,,,,5e89fb8da9f5aa02cfac7ef1,6036da7cb82463b32a928f19,2021-02-24_23h13.13.673,Colour_Similarity_Experiment,2020.2.10,Win32,60,6036d0d9a84aa1626184a6ef,17.23106227,16.66487952,16.66582148,16.66657884,16.66683805,16.66602947,,,,,,,,,,,,,,,,,,,,PF,weak,3,,,,,,,,7,0.75002,,,,,,,,,,,,,,,,,,,,,,,,,,,,3,weak,46,119,1,0,0,response1disk,2,113,-19,11,1,0,0,rectangle,-53,-107,1,0,0,3,3,1,1.80001,-1,-6,1,0,0,0,112,112,36,1,response5disk_3,rectangle,,,,,,,,,,,,,,,,,,,
,,,,,,,,,,,,,,,,,,,,,,,,,,,,,,,,,,,,,,,,,,5e89fb8da9f5aa02cfac7ef1,6036da7cb82463b32a928f19,2021-02-24_23h13.13.673,Colour_Similarity_Experiment,2020.2.10,Win32,60,6036d0d9a84aa1626184a6ef,17.23106227,16.66487952,16.66582148,16.66657884,16.66683805,16.66602947,,,,,,,,,,,,,,,,,,,,PF,weak,3,,,,,,,,1,1.5167,,,,,,,,,,,,,,,,,,,,,,,,,,,,7,weak,-76,40,1,0,0,response7disk,6,114,11,-3,1,0,0,rectangle,11,-3,1,0,0,3,3,0,0.000085,11,-3,1,0,0,0,113,113,29,1,,,,,,,,,,,,,,,,,,,,,
,,,,,,,,,,,,,,,,,,,,,,,,,,,,,,,,,,,,,,,,,,5e89fb8da9f5aa02cfac7ef1,6036da7cb82463b32a928f19,2021-02-24_23h13.13.673,Colour_Similarity_Experiment,2020.2.10,Win32,60,6036d0d9a84aa1626184a6ef,17.23106227,16.66487952,16.66582148,16.66657884,16.66683805,16.66602947,,,,,,,,,,,,,,,,,,,,PF,strong,3,,,,,,,,4,2.16666,,,,,,,,,,,,,,,,,,,,,,,,,,,,6,strong,32,-86,1,0,0,response3disk,9,115,-11,-10,1,0,0,rectangle,124,35,1,0,0,6,6,1,1.599955,18,-6,1,0,0,0,114,114,160,1,response1disk_3,rectangle,,,,,,,,,,,,,,,,,,,
,,,,,,,,,,,,,,,,,,,,,,,,,,,,,,,,,,,,,,,,,,5e89fb8da9f5aa02cfac7ef1,6036da7cb82463b32a928f19,2021-02-24_23h13.13.673,Colour_Similarity_Experiment,2020.2.10,Win32,60,6036d0d9a84aa1626184a6ef,17.23106227,16.66487952,16.66582148,16.66657884,16.66683805,16.66602947,,,,,,,,,,,,,,,,,,,,PF,strong,3,,,,,,,,7,1.09795,,,,,,,,,,,,,,,,,,,,,,,,,,,,8,strong,56,80,1,0,0,response1disk,2,116,17,7,1,0,0,rectangle,17,7,1,0,0,6,7,0,0.00058,17,7,1,0,0,0,115,115,22,1,,,,,,,,,,,,,,,,,,,,,
,,,,,,,,,,,,,,,,,,,,,,,,,,,,,,,,,,,,,,,,,,5e89fb8da9f5aa02cfac7ef1,6036da7cb82463b32a928f19,2021-02-24_23h13.13.673,Colour_Similarity_Experiment,2020.2.10,Win32,60,6036d0d9a84aa1626184a6ef,17.23106227,16.66487952,16.66582148,16.66657884,16.66683805,16.66602947,,,,,,,,,,,,,,,,,,,,PF,strong,3,,,,,,,,4,1.316695,,,,,,,,,,,,,,,,,,,,,,,,,,,,9,strong,38,-60,1,0,0,response3disk,8,117,6,3,1,0,0,rectangle,6,3,1,0,0,6,5,0,0.000525,6,3,1,0,0,0,116,116,6,1,,,,,,,,,,,,,,,,,,,,,
,,,,,,,,,,,,,,,,,,,,,,,,,,,,,,,,,,,,,,,,,,5e89fb8da9f5aa02cfac7ef1,6036da7cb82463b32a928f19,2021-02-24_23h13.13.673,Colour_Similarity_Experiment,2020.2.10,Win32,60,6036d0d9a84aa1626184a6ef,17.23106227,16.66487952,16.66582148,16.66657884,16.66683805,16.66602947,,,,,,,,,,,,,,,,,,,,PF,weak,3,,,,,,,,7,0.91671,,,,,,,,,,,,,,,,,,,,,,,,,,,,1,weak,47,68,1,0,0,response1disk,7,118,7,0,1,0,0,rectangle,7,0,1,0,0,6,4,0,0.00055,7,0,1,0,0,0,117,117,150,1,,,,,,,,,,,,,,,,,,,,,
,,,,,,,,,,,,,,,,,,,,,,,,,,,,,,,,,,,,,,,,,,5e89fb8da9f5aa02cfac7ef1,6036da7cb82463b32a928f19,2021-02-24_23h13.13.673,Colour_Similarity_Experiment,2020.2.10,Win32,60,6036d0d9a84aa1626184a6ef,17.23106227,16.66487952,16.66582148,16.66657884,16.66683805,16.66602947,,,,,,,,,,,,,,,,,,,,PF,strong,3,,,,,,,,7,0.90001,,,,,,,,,,,,,,,,,,,,,,,,,,,,9,strong,51,88,1,0,0,response1disk,2,119,-34,10,1,0,0,rectangle,100,-50,1,0,0,5,5,1,1.40001,11,-4,1,0,0,0,118,118,11,1,response3disk_3,rectangle,,,,,,,,,,,,,,,,,,,
,,,,,,,,,,,,,,,,,,,,,,,,,,,,,,,,,,,,,,,,,,5e89fb8da9f5aa02cfac7ef1,6036da7cb82463b32a928f19,2021-02-24_23h13.13.673,Colour_Similarity_Experiment,2020.2.10,Win32,60,6036d0d9a84aa1626184a6ef,17.23106227,16.66487952,16.66582148,16.66657884,16.66683805,16.66602947,,,,,,,,,,,,,,,,,,,,PF,weak,3,,,,,,,,6,2.950015,,,,,,,,,,,,,,,,,,,,,,,,,,,,9,weak,104,58,1,0,0,response1disk,6,120,-15,-15,1,0,0,rectangle,-15,-15,1,0,0,5,0,0,0.001025,-15,-15,1,0,0,0,119,119,148,1,,,,,,,,,,,,,,,,,,,,,
,,,,,,,,,,,,,,,,,,,,,,,,,,,,,,,,,,,,,,,,,,5e89fb8da9f5aa02cfac7ef1,6036da7cb82463b32a928f19,2021-02-24_23h13.13.673,Colour_Similarity_Experiment,2020.2.10,Win32,60,6036d0d9a84aa1626184a6ef,17.23106227,16.66487952,16.66582148,16.66657884,16.66683805,16.66602947,,,,,,,,,,,,,,,,,,,,PF,strong,3,,,,,,,,7,0.8831,,,,,,,,,,,,,,,,,,,,,,,,,,,,3,strong,30,112,1,0,0,response1disk,2,121,8,19,1,0,0,rectangle,8,19,1,0,0,5,0,0,7.5E-05,8,19,1,0,0,0,120,120,93,1,,,,,,,,,,,,,,,,,,,,,
,,,,,,,,,,,,,,,,,,,,,,,,,,,,,,,,,,,,,,,,,,5e89fb8da9f5aa02cfac7ef1,6036da7cb82463b32a928f19,2021-02-24_23h13.13.673,Colour_Similarity_Experiment,2020.2.10,Win32,60,6036d0d9a84aa1626184a6ef,17.23106227,16.66487952,16.66582148,16.66657884,16.66683805,16.66602947,,,,,,,,,,,,,,,,,,,,PF,weak,3,,,,,,,,2,1.433385,,,,,,,,,,,,,,,,,,,,,,,,,,,,4,weak,-88,-35,1,0,0,response5disk,4,122,1,20,1,0,0,rectangle,1,20,1,0,0,5,1,0,0.00101,1,20,1,0,0,0,121,121,70,1,,,,,,,,,,,,,,,,,,,,,
,,,,,,,,,,,,,,,,,,,,,,,,,,,,,,,,,,,,,,,,,,5e89fb8da9f5aa02cfac7ef1,6036da7cb82463b32a928f19,2021-02-24_23h13.13.673,Colour_Similarity_Experiment,2020.2.10,Win32,60,6036d0d9a84aa1626184a6ef,17.23106227,16.66487952,16.66582148,16.66657884,16.66683805,16.66602947,,,,,,,,,,,,,,,,,,,,PF,weak,3,,,,,,,,7,0.80014,,,,,,,,,,,,,,,,,,,,,,,,,,,,8,weak,60,101,1,0,0,response1disk,5,123,-5,-11,1,0,0,rectangle,-5,-11,1,0,0,5,4,0,0.000525,-5,-11,1,0,0,0,122,122,98,1,,,,,,,,,,,,,,,,,,,,,
,,,,,,,,,,,,,,,,,,,,,,,,,,,,,,,,,,,,,,,,,,5e89fb8da9f5aa02cfac7ef1,6036da7cb82463b32a928f19,2021-02-24_23h13.13.673,Colour_Similarity_Experiment,2020.2.10,Win32,60,6036d0d9a84aa1626184a6ef,17.23106227,16.66487952,16.66582148,16.66657884,16.66683805,16.66602947,,,,,,,,,,,,,,,,,,,,PF,weak,3,,,,,,,,4,1.516655,,,,,,,,,,,,,,,,,,,,,,,,,,,,5,weak,37,-74,1,0,0,response3disk,3,124,-4,-6,1,0,0,rectangle,-4,-6,1,0,0,5,6,0,0.00051,-4,-6,1,0,0,0,123,123,109,1,,,,,,,,,,,,,,,,,,,,,
,,,,,,,,,,,,,,,,,,,,,,,,,,,,,,,,,,,,,,,,,,5e89fb8da9f5aa02cfac7ef1,6036da7cb82463b32a928f19,2021-02-24_23h13.13.673,Colour_Similarity_Experiment,2020.2.10,Win32,60,6036d0d9a84aa1626184a6ef,17.23106227,16.66487952,16.66582148,16.66657884,16.66683805,16.66602947,,,,,,,,,,,,,,,,,,,,PF,strong,3,,,,,,,,4,1.150035,,,,,,,,,,,,,,,,,,,,,,,,,,,,8,strong,42,-78,1,0,0,response3disk,8,125,0,16,1,0,0,rectangle,0,16,1,0,0,5,3,0,0.000495,0,16,1,0,0,0,124,124,48,1,,,,,,,,,,,,,,,,,,,,,
,,,,,,,,,,,,,,,,,,,,,,,,,,,,,,,,,,,,,,,,,,5e89fb8da9f5aa02cfac7ef1,6036da7cb82463b32a928f19,2021-02-24_23h13.13.673,Colour_Similarity_Experiment,2020.2.10,Win32,60,6036d0d9a84aa1626184a6ef,17.23106227,16.66487952,16.66582148,16.66657884,16.66683805,16.66602947,,,,,,,,,,,,,,,,,,,,PF,weak,3,,,,,,,,4,1.066625,,,,,,,,,,,,,,,,,,,,,,,,,,,,6,weak,56,-118,1,0,0,response3disk,5,126,15,2,1,0,0,rectangle,15,2,1,0,0,5,5,0,0.00052,15,2,1,0,0,0,125,125,59,1,,,,,,,,,,,,,,,,,,,,,
,,,,,,,,,,,,,,,,,,,,,,,,,,,,,,,,,,,,,,,,,,5e89fb8da9f5aa02cfac7ef1,6036da7cb82463b32a928f19,2021-02-24_23h13.13.673,Colour_Similarity_Experiment,2020.2.10,Win32,60,6036d0d9a84aa1626184a6ef,17.23106227,16.66487952,16.66582148,16.66657884,16.66683805,16.66602947,,,,,,,,,,,,,,,,,,,,PF,strong,3,,,,,,,,4,2.51667,,,,,,,,,,,,,,,,,,,,,,,,,,,,7,strong,33,-56,1,0,0,response3disk,7,127,13,13,1,0,0,rectangle,13,13,1,0,0,5,2,0,0.00056,13,13,1,0,0,0,126,126,34,1,,,,,,,,,,,,,,,,,,,,,
,,,,,,,,,,,,,,,,,,,,,,,,,,,,,,,,,,,,,,,,,,5e89fb8da9f5aa02cfac7ef1,6036da7cb82463b32a928f19,2021-02-24_23h13.13.673,Colour_Similarity_Experiment,2020.2.10,Win32,60,6036d0d9a84aa1626184a6ef,17.23106227,16.66487952,16.66582148,16.66657884,16.66683805,16.66602947,,,,,,,,,,,,,,,,,,,,PF,strong,3,,,,,,,,7,1.866485,,,,,,,,,,,,,,,,,,,,,,,,,,,,4,strong,36,72,1,0,0,response1disk,1,128,17,13,1,0,0,rectangle,17,13,1,0,0,5,4,0,0.00057,17,13,1,0,0,0,127,127,102,1,,,,,,,,,,,,,,,,,,,,,
,,,,,,,,,,,,,,,,,,,,,,,,,,,,,,,,,,,,,,,,,,5e89fb8da9f5aa02cfac7ef1,6036da7cb82463b32a928f19,2021-02-24_23h13.13.673,Colour_Similarity_Experiment,2020.2.10,Win32,60,6036d0d9a84aa1626184a6ef,17.23106227,16.66487952,16.66582148,16.66657884,16.66683805,16.66602947,,,,,,,,,,,,,,,,,,,,PF,strong,3,,,,,,,,7,0.80004,,,,,,,,,,,,,,,,,,,,,,,,,,,,4,strong,48,95,1,0,0,response1disk,3,129,18,-7,1,0,0,rectangle,18,-7,1,0,0,5,2,0,0.00065,18,-7,1,0,0,0,128,128,77,1,,,,,,,,,,,,,,,,,,,,,
,,,,,,,,,,,,,,,,,,,,,,,,,,,,,,,,,,,,,,,,,,5e89fb8da9f5aa02cfac7ef1,6036da7cb82463b32a928f19,2021-02-24_23h13.13.673,Colour_Similarity_Experiment,2020.2.10,Win32,60,6036d0d9a84aa1626184a6ef,17.23106227,16.66487952,16.66582148,16.66657884,16.66683805,16.66602947,,,,,,,,,,,,,,,,,,,,PF,strong,3,,,,,,,,2,1.91666,,,,,,,,,,,,,,,,,,,,,,,,,,,,1,strong,-78,-30,1,0,0,response5disk,1,130,-24,4,1,0,0,rectangle,-24,4,1,0,0,5,3,0,0.000555,-24,4,1,0,0,0,129,129,151,1,,,,,,,,,,,,,,,,,,,,,
,,,,,,,,,,,,,,,,,,,,,,,,,,,,,,,,,,,,,,,,,,5e89fb8da9f5aa02cfac7ef1,6036da7cb82463b32a928f19,2021-02-24_23h13.13.673,Colour_Similarity_Experiment,2020.2.10,Win32,60,6036d0d9a84aa1626184a6ef,17.23106227,16.66487952,16.66582148,16.66657884,16.66683805,16.66602947,,,,,,,,,,,,,,,,,,,,PF,weak,3,,,,,,,,7,0.933425,,,,,,,,,,,,,,,,,,,,,,,,,,,,3,weak,37,87,1,0,0,response1disk,6,131,-5,-12,1,0,0,rectangle,-5,-12,1,0,0,5,6,0,0.00051,-5,-12,1,0,0,0,130,130,47,1,,,,,,,,,,,,,,,,,,,,,
,,,,,,,,,,,,,,,,,,,,,,,,,,,,,,,,,,,,,,,,,,5e89fb8da9f5aa02cfac7ef1,6036da7cb82463b32a928f19,2021-02-24_23h13.13.673,Colour_Similarity_Experiment,2020.2.10,Win32,60,6036d0d9a84aa1626184a6ef,17.23106227,16.66487952,16.66582148,16.66657884,16.66683805,16.66602947,,,,,,,,,,,,,,,,,,,,PF,weak,3,,,,,,,,7,0.81655,,,,,,,,,,,,,,,,,,,,,,,,,,,,9,weak,37,64,1,0,0,response1disk,7,132,-5,-21,1,0,0,rectangle,-5,-21,1,0,0,5,2,0,0.000505,-5,-21,1,0,0,0,131,131,121,1,,,,,,,,,,,,,,,,,,,,,
,,,,,,,,,,,,,,,,,,,,,,,,,,,,,,,,,,,,,,,,,,5e89fb8da9f5aa02cfac7ef1,6036da7cb82463b32a928f19,2021-02-24_23h13.13.673,Colour_Similarity_Experiment,2020.2.10,Win32,60,6036d0d9a84aa1626184a6ef,17.23106227,16.66487952,16.66582148,16.66657884,16.66683805,16.66602947,,,,,,,,,,,,,,,,,,,,PF,weak,3,,,,,,,,7,0.78333,,,,,,,,,,,,,,,,,,,,,,,,,,,,6,weak,50,54,1,0,0,response1disk,1,133,22,13,1,0,0,rectangle,22,13,1,0,0,5,5,0,0.000535,22,13,1,0,0,0,132,132,46,1,,,,,,,,,,,,,,,,,,,,,
,,,,,,,,,,,,,,,,,,,,,,,,,,,,,,,,,,,,,,,,,,5e89fb8da9f5aa02cfac7ef1,6036da7cb82463b32a928f19,2021-02-24_23h13.13.673,Colour_Similarity_Experiment,2020.2.10,Win32,60,6036d0d9a84aa1626184a6ef,17.23106227,16.66487952,16.66582148,16.66657884,16.66683805,16.66602947,,,,,,,,,,,,,,,,,,,,PF,weak,3,,,,,,,,7,0.95002,,,,,,,,,,,,,,,,,,,,,,,,,,,,4,weak,58,126,1,0,0,response1disk,1,134,18,8,1,0,0,rectangle,18,8,1,0,0,5,7,0,0.000495,18,8,1,0,0,0,133,133,115,1,,,,,,,,,,,,,,,,,,,,,
,,,,,,,,,,,,,,,,,,,,,,,,,,,,,,,,,,,,,,,,,,5e89fb8da9f5aa02cfac7ef1,6036da7cb82463b32a928f19,2021-02-24_23h13.13.673,Colour_Similarity_Experiment,2020.2.10,Win32,60,6036d0d9a84aa1626184a6ef,17.23106227,16.66487952,16.66582148,16.66657884,16.66683805,16.66602947,,,,,,,,,,,,,,,,,,,,PF,strong,3,,,,,,,,7,0.650035,,,,,,,,,,,,,,,,,,,,,,,,,,,,4,strong,35,81,1,0,0,response1disk,2,135,20,-12,1,0,0,rectangle,20,-12,1,0,0,5,3,0,0.000495,20,-12,1,0,0,0,134,134,13,1,,,,,,,,,,,,,,,,,,,,,
,,,,,,,,,,,,,,,,,,,,,,,,,,,,,,,,,,,,,,,,,,5e89fb8da9f5aa02cfac7ef1,6036da7cb82463b32a928f19,2021-02-24_23h13.13.673,Colour_Similarity_Experiment,2020.2.10,Win32,60,6036d0d9a84aa1626184a6ef,17.23106227,16.66487952,16.66582148,16.66657884,16.66683805,16.66602947,,,,,,,,,,,,,,,,,,,,PF,weak,3,,,,,,,,7,0.6998,,,,,,,,,,,,,,,,,,,,,,,,,,,,4,weak,77,102,1,0,0,response1disk,6,136,12,-21,1,0,0,rectangle,12,-21,1,0,0,5,0,0,0.000525,12,-21,1,0,0,0,135,135,120,1,,,,,,,,,,,,,,,,,,,,,
,,,,,,,,,,,,,,,,,,,,,,,,,,,,,,,,,,,,,,,,,,5e89fb8da9f5aa02cfac7ef1,6036da7cb82463b32a928f19,2021-02-24_23h13.13.673,Colour_Similarity_Experiment,2020.2.10,Win32,60,6036d0d9a84aa1626184a6ef,17.23106227,16.66487952,16.66582148,16.66657884,16.66683805,16.66602947,,,,,,,,,,,,,,,,,,,,PF,strong,3,,,,,,,,7,1.316645,,,,,,,,,,,,,,,,,,,,,,,,,,,,6,strong,39,89,1,0,0,response1disk,2,137,0,7,1,0,0,rectangle,0,7,1,0,0,5,5,0,0.00055,0,7,1,0,0,0,136,136,112,1,,,,,,,,,,,,,,,,,,,,,
,,,,,,,,,,,,,,,,,,,,,,,,,,,,,,,,,,,,,,,,,,5e89fb8da9f5aa02cfac7ef1,6036da7cb82463b32a928f19,2021-02-24_23h13.13.673,Colour_Similarity_Experiment,2020.2.10,Win32,60,6036d0d9a84aa1626184a6ef,17.23106227,16.66487952,16.66582148,16.66657884,16.66683805,16.66602947,,,,,,,,,,,,,,,,,,,,PF,weak,3,,,,,,,,7,0.76666,,,,,,,,,,,,,,,,,,,,,,,,,,,,3,weak,43,69,1,0,0,response1disk,9,138,15,-4,1,0,0,rectangle,15,-4,1,0,0,5,2,0,0.0008,15,-4,1,0,0,0,137,137,79,1,,,,,,,,,,,,,,,,,,,,,
,,,,,,,,,,,,,,,,,,,,,,,,,,,,,,,,,,,,,,,,,,5e89fb8da9f5aa02cfac7ef1,6036da7cb82463b32a928f19,2021-02-24_23h13.13.673,Colour_Similarity_Experiment,2020.2.10,Win32,60,6036d0d9a84aa1626184a6ef,17.23106227,16.66487952,16.66582148,16.66657884,16.66683805,16.66602947,,,,,,,,,,,,,,,,,,,,PF,strong,3,,,,,,,,7,0.850075,,,,,,,,,,,,,,,,,,,,,,,,,,,,1,strong,46,83,1,0,0,response1disk,5,139,19,12,1,0,0,rectangle,19,12,1,0,0,5,4,0,0.00053,19,12,1,0,0,0,138,138,82,1,,,,,,,,,,,,,,,,,,,,,
,,,,,,,,,,,,,,,,,,,,,,,,,,,,,,,,,,,,,,,,,,5e89fb8da9f5aa02cfac7ef1,6036da7cb82463b32a928f19,2021-02-24_23h13.13.673,Colour_Similarity_Experiment,2020.2.10,Win32,60,6036d0d9a84aa1626184a6ef,17.23106227,16.66487952,16.66582148,16.66657884,16.66683805,16.66602947,,,,,,,,,,,,,,,,,,,,PF,strong,3,,,,,,,,7,0.58334,,,,,,,,,,,,,,,,,,,,,,,,,,,,1,strong,35,62,1,0,0,response1disk,7,140,6,-3,1,0,0,rectangle,6,-3,1,0,0,5,5,0,0.000555,6,-3,1,0,0,0,139,139,137,1,,,,,,,,,,,,,,,,,,,,,
,,,,,,,,,,,,,,,,,,,,,,,,,,,,,,,,,,,,,,,,,,5e89fb8da9f5aa02cfac7ef1,6036da7cb82463b32a928f19,2021-02-24_23h13.13.673,Colour_Similarity_Experiment,2020.2.10,Win32,60,6036d0d9a84aa1626184a6ef,17.23106227,16.66487952,16.66582148,16.66657884,16.66683805,16.66602947,,,,,,,,,,,,,,,,,,,,PF,weak,3,,,,,,,,7,0.733315,,,,,,,,,,,,,,,,,,,,,,,,,,,,4,weak,41,67,1,0,0,response1disk,7,141,-3,0,1,0,0,rectangle,-3,0,1,0,0,5,3,0,0.00054,-3,0,1,0,0,0,140,140,38,1,,,,,,,,,,,,,,,,,,,,,
,,,,,,,,,,,,,,,,,,,,,,,,,,,,,,,,,,,,,,,,,,5e89fb8da9f5aa02cfac7ef1,6036da7cb82463b32a928f19,2021-02-24_23h13.13.673,Colour_Similarity_Experiment,2020.2.10,Win32,60,6036d0d9a84aa1626184a6ef,17.23106227,16.66487952,16.66582148,16.66657884,16.66683805,16.66602947,,,,,,,,,,,,,,,,,,,,PF,strong,3,,,,,,,,7,1.216465,,,,,,,,,,,,,,,,,,,,,,,,,,,,6,strong,32,83,1,0,0,response1disk,1,142,2,15,1,0,0,rectangle,2,15,1,0,0,5,0,0,0.0005,2,15,1,0,0,0,141,141,5,1,,,,,,,,,,,,,,,,,,,,,
,,,,,,,,,,,,,,,,,,,,,,,,,,,,,,,,,,,,,,,,,,5e89fb8da9f5aa02cfac7ef1,6036da7cb82463b32a928f19,2021-02-24_23h13.13.673,Colour_Similarity_Experiment,2020.2.10,Win32,60,6036d0d9a84aa1626184a6ef,17.23106227,16.66487952,16.66582148,16.66657884,16.66683805,16.66602947,,,,,,,,,,,,,,,,,,,,PF,weak,3,,,,,,,,7,0.483295,,,,,,,,,,,,,,,,,,,,,,,,,,,,2,weak,46,74,1,0,0,response1disk,9,143,12,-10,1,0,0,rectangle,12,-10,1,0,0,5,4,0,0.00052,12,-10,1,0,0,0,142,142,39,1,,,,,,,,,,,,,,,,,,,,,
,,,,,,,,,,,,,,,,,,,,,,,,,,,,,,,,,,,,,,,,,,5e89fb8da9f5aa02cfac7ef1,6036da7cb82463b32a928f19,2021-02-24_23h13.13.673,Colour_Similarity_Experiment,2020.2.10,Win32,60,6036d0d9a84aa1626184a6ef,17.23106227,16.66487952,16.66582148,16.66657884,16.66683805,16.66602947,,,,,,,,,,,,,,,,,,,,PF,strong,3,,,,,,,,7,0.583355,,,,,,,,,,,,,,,,,,,,,,,,,,,,5,strong,50,84,1,0,0,response1disk,1,144,23,9,1,0,0,rectangle,23,9,1,0,0,5,2,0,0.000495,23,9,1,0,0,0,143,143,131,1,,,,,,,,,,,,,,,,,,,,,
,,,,,,,,,,,,,,,,,,,,,,,,,,,,,,,,,,,,,,,,,,5e89fb8da9f5aa02cfac7ef1,6036da7cb82463b32a928f19,2021-02-24_23h13.13.673,Colour_Similarity_Experiment,2020.2.10,Win32,60,6036d0d9a84aa1626184a6ef,17.23106227,16.66487952,16.66582148,16.66657884,16.66683805,16.66602947,,,,,,,,,,,,,,,,,,,,PF,strong,3,,,,,,,,7,2.03335,,,,,,,,,,,,,,,,,,,,,,,,,,,,7,strong,39,67,1,0,0,response1disk,4,145,26,3,1,0,0,rectangle,26,3,1,0,0,5,3,0,0.00053,26,3,1,0,0,0,144,144,158,1,,,,,,,,,,,,,,,,,,,,,
,,,,,,,,,,,,,,,,,,,,,,,,,,,,,,,,,,,,,,,,,,5e89fb8da9f5aa02cfac7ef1,6036da7cb82463b32a928f19,2021-02-24_23h13.13.673,Colour_Similarity_Experiment,2020.2.10,Win32,60,6036d0d9a84aa1626184a6ef,17.23106227,16.66487952,16.66582148,16.66657884,16.66683805,16.66602947,,,,,,,,,,,,,,,,,,,,PF,weak,3,,,,,,,,7,0.63334,,,,,,,,,,,,,,,,,,,,,,,,,,,,7,weak,38,108,1,0,0,response1disk,4,146,2,6,1,0,0,rectangle,2,6,1,0,0,5,4,0,0.0005,2,6,1,0,0,0,145,145,43,1,,,,,,,,,,,,,,,,,,,,,
,,,,,,,,,,,,,,,,,,,,,,,,,,,,,,,,,,,,,,,,,,5e89fb8da9f5aa02cfac7ef1,6036da7cb82463b32a928f19,2021-02-24_23h13.13.673,Colour_Similarity_Experiment,2020.2.10,Win32,60,6036d0d9a84aa1626184a6ef,17.23106227,16.66487952,16.66582148,16.66657884,16.66683805,16.66602947,,,,,,,,,,,,,,,,,,,,PF,strong,3,,,,,,,,7,1.150015,,,,,,,,,,,,,,,,,,,,,,,,,,,,3,strong,55,116,1,0,0,response1disk,6,147,-7,14,1,0,0,rectangle,-7,14,1,0,0,5,5,0,0.00053,-7,14,1,0,0,0,146,146,95,1,,,,,,,,,,,,,,,,,,,,,
,,,,,,,,,,,,,,,,,,,,,,,,,,,,,,,,,,,,,,,,,,5e89fb8da9f5aa02cfac7ef1,6036da7cb82463b32a928f19,2021-02-24_23h13.13.673,Colour_Similarity_Experiment,2020.2.10,Win32,60,6036d0d9a84aa1626184a6ef,17.23106227,16.66487952,16.66582148,16.66657884,16.66683805,16.66602947,,,,,,,,,,,,,,,,,,,,PF,strong,3,,,,,,,,0,1.23333,,,,,,,,,,,,,,,,,,,,,,,,,,,,7,strong,-45,103,1,0,0,response7disk,6,148,-17,-17,1,0,0,rectangle,-17,-17,1,0,0,5,7,0,0.00063,-17,-17,1,0,0,0,147,147,31,1,,,,,,,,,,,,,,,,,,,,,
,,,,,,,,,,,,,,,,,,,,,,,,,,,,,,,,,,,,,,,,,,5e89fb8da9f5aa02cfac7ef1,6036da7cb82463b32a928f19,2021-02-24_23h13.13.673,Colour_Similarity_Experiment,2020.2.10,Win32,60,6036d0d9a84aa1626184a6ef,17.23106227,16.66487952,16.66582148,16.66657884,16.66683805,16.66602947,,,,,,,,,,,,,,,,,,,,PF,weak,3,,,,,,,,5,1.450305,,,,,,,,,,,,,,,,,,,,,,,,,,,,8,weak,102,-50,1,0,0,response3disk,1,149,-4,1,1,0,0,rectangle,-4,1,1,0,0,5,0,0,0.000535,-4,1,1,0,0,0,148,148,57,1,,,,,,,,,,,,,,,,,,,,,
,,,,,,,,,,,,,,,,,,,,,,,,,,,,,,,,,,,,,,,,,,5e89fb8da9f5aa02cfac7ef1,6036da7cb82463b32a928f19,2021-02-24_23h13.13.673,Colour_Similarity_Experiment,2020.2.10,Win32,60,6036d0d9a84aa1626184a6ef,17.23106227,16.66487952,16.66582148,16.66657884,16.66683805,16.66602947,,,,,,,,,,,,,,,,,,,,PF,weak,3,,,,,,,,0,0.966695,,,,,,,,,,,,,,,,,,,,,,,,,,,,7,weak,-37,76,1,0,0,response7disk,7,150,-1,-6,1,0,0,rectangle,-1,-6,1,0,0,5,1,0,0.000505,-1,-6,1,0,0,0,149,149,51,1,,,,,,,,,,,,,,,,,,,,,
,,,,,,,,,,,,,,,,,,,,,,,,,,,,,,,,,,,,,,,,,,5e89fb8da9f5aa02cfac7ef1,6036da7cb82463b32a928f19,2021-02-24_23h13.13.673,Colour_Similarity_Experiment,2020.2.10,Win32,60,6036d0d9a84aa1626184a6ef,17.23106227,16.66487952,16.66582148,16.66657884,16.66683805,16.66602947,,,,,,,,,,,,,,,,,,,,PF,weak,3,,,,,,,,5,1.066675,,,,,,,,,,,,,,,,,,,,,,,,,,,,1,weak,71,-59,1,0,0,response3disk,8,151,9,-3,1,0,0,rectangle,9,-3,1,0,0,5,6,0,0.00051,9,-3,1,0,0,0,150,150,65,1,,,,,,,,,,,,,,,,,,,,,
,,,,,,,,,,,,,,,,,,,,,,,,,,,,,,,,,,,,,,,,,,5e89fb8da9f5aa02cfac7ef1,6036da7cb82463b32a928f19,2021-02-24_23h13.13.673,Colour_Similarity_Experiment,2020.2.10,Win32,60,6036d0d9a84aa1626184a6ef,17.23106227,16.66487952,16.66582148,16.66657884,16.66683805,16.66602947,,,,,,,,,,,,,,,,,,,,PF,strong,3,,,,,,,,7,0.89993,,,,,,,,,,,,,,,,,,,,,,,,,,,,8,strong,39,104,1,0,0,response1disk,4,152,11,-1,1,0,0,rectangle,11,-1,1,0,0,5,3,0,0.000535,11,-1,1,0,0,0,151,151,88,1,,,,,,,,,,,,,,,,,,,,,
,,,,,,,,,,,,,,,,,,,,,,,,,,,,,,,,,,,,,,,,,,5e89fb8da9f5aa02cfac7ef1,6036da7cb82463b32a928f19,2021-02-24_23h13.13.673,Colour_Similarity_Experiment,2020.2.10,Win32,60,6036d0d9a84aa1626184a6ef,17.23106227,16.66487952,16.66582148,16.66657884,16.66683805,16.66602947,,,,,,,,,,,,,,,,,,,,PF,weak,3,,,,,,,,7,1.216485,,,,,,,,,,,,,,,,,,,,,,,,,,,,6,weak,44,67,1,0,0,response1disk,9,153,1,-9,1,0,0,rectangle,1,-9,1,0,0,5,1,0,0.000535,1,-9,1,0,0,0,152,152,45,1,,,,,,,,,,,,,,,,,,,,,
,,,,,,,,,,,,,,,,,,,,,,,,,,,,,,,,,,,,,,,,,,5e89fb8da9f5aa02cfac7ef1,6036da7cb82463b32a928f19,2021-02-24_23h13.13.673,Colour_Similarity_Experiment,2020.2.10,Win32,60,6036d0d9a84aa1626184a6ef,17.23106227,16.66487952,16.66582148,16.66657884,16.66683805,16.66602947,,,,,,,,,,,,,,,,,,,,PF,strong,3,,,,,,,,0,1.000005,,,,,,,,,,,,,,,,,,,,,,,,,,,,2,strong,-41,79,1,0,0,response7disk,2,154,-13,-2,1,0,0,rectangle,-13,-2,1,0,0,5,3,0,0.000525,-13,-2,1,0,0,0,153,153,142,1,,,,,,,,,,,,,,,,,,,,,
,,,,,,,,,,,,,,,,,,,,,,,,,,,,,,,,,,,,,,,,,,5e89fb8da9f5aa02cfac7ef1,6036da7cb82463b32a928f19,2021-02-24_23h13.13.673,Colour_Similarity_Experiment,2020.2.10,Win32,60,6036d0d9a84aa1626184a6ef,17.23106227,16.66487952,16.66582148,16.66657884,16.66683805,16.66602947,,,,,,,,,,,,,,,,,,,,PF,weak,3,,,,,,,,7,0.75001,,,,,,,,,,,,,,,,,,,,,,,,,,,,6,weak,70,104,1,0,0,response1disk,8,155,-2,-11,1,0,0,rectangle,-2,-11,1,0,0,5,2,0,0.0005,-2,-11,1,0,0,0,154,154,64,1,,,,,,,,,,,,,,,,,,,,,
,,,,,,,,,,,,,,,,,,,,,,,,,,,,,,,,,,,,,,,,,,5e89fb8da9f5aa02cfac7ef1,6036da7cb82463b32a928f19,2021-02-24_23h13.13.673,Colour_Similarity_Experiment,2020.2.10,Win32,60,6036d0d9a84aa1626184a6ef,17.23106227,16.66487952,16.66582148,16.66657884,16.66683805,16.66602947,,,,,,,,,,,,,,,,,,,,PF,weak,3,,,,,,,,7,1.20003,,,,,,,,,,,,,,,,,,,,,,,,,,,,3,weak,56,95,1,0,0,response1disk,7,156,-7,-4,1,0,0,rectangle,-7,-4,1,0,0,5,1,0,0.000535,-7,-4,1,0,0,0,155,155,41,1,,,,,,,,,,,,,,,,,,,,,
,,,,,,,,,,,,,,,,,,,,,,,,,,,,,,,,,,,,,,,,,,5e89fb8da9f5aa02cfac7ef1,6036da7cb82463b32a928f19,2021-02-24_23h13.13.673,Colour_Similarity_Experiment,2020.2.10,Win32,60,6036d0d9a84aa1626184a6ef,17.23106227,16.66487952,16.66582148,16.66657884,16.66683805,16.66602947,,,,,,,,,,,,,,,,,,,,PF,strong,3,,,,,,,,5,1.23331,,,,,,,,,,,,,,,,,,,,,,,,,,,,7,strong,85,-33,1,0,0,response3disk,9,157,2,9,1,0,0,rectangle,2,9,1,0,0,5,3,0,0.00054,2,9,1,0,0,0,156,156,155,1,,,,,,,,,,,,,,,,,,,,,
,,,,,,,,,,,,,,,,,,,,,,,,,,,,,,,,,,,,,,,,,,5e89fb8da9f5aa02cfac7ef1,6036da7cb82463b32a928f19,2021-02-24_23h13.13.673,Colour_Similarity_Experiment,2020.2.10,Win32,60,6036d0d9a84aa1626184a6ef,17.23106227,16.66487952,16.66582148,16.66657884,16.66683805,16.66602947,,,,,,,,,,,,,,,,,,,,PF,weak,3,,,,,,,,7,0.633105,,,,,,,,,,,,,,,,,,,,,,,,,,,,2,weak,37,114,1,0,0,response1disk,5,158,5,3,1,0,0,rectangle,5,3,1,0,0,5,4,0,0.00051,5,3,1,0,0,0,157,157,147,1,,,,,,,,,,,,,,,,,,,,,
,,,,,,,,,,,,,,,,,,,,,,,,,,,,,,,,,,,,,,,,,,5e89fb8da9f5aa02cfac7ef1,6036da7cb82463b32a928f19,2021-02-24_23h13.13.673,Colour_Similarity_Experiment,2020.2.10,Win32,60,6036d0d9a84aa1626184a6ef,17.23106227,16.66487952,16.66582148,16.66657884,16.66683805,16.66602947,,,,,,,,,,,,,,,,,,,,PF,weak,3,,,,,,,,7,0.61651,,,,,,,,,,,,,,,,,,,,,,,,,,,,4,weak,51,107,1,0,0,response1disk,9,159,15,17,1,0,0,rectangle,15,17,1,0,0,5,3,0,0.00052,15,17,1,0,0,0,158,158,75,1,,,,,,,,,,,,,,,,,,,,,
,,,,,,,,,,,,,,,,,,,,,,,,,,,,,,,,,,,,,,,,,,5e89fb8da9f5aa02cfac7ef1,6036da7cb82463b32a928f19,2021-02-24_23h13.13.673,Colour_Similarity_Experiment,2020.2.10,Win32,60,6036d0d9a84aa1626184a6ef,17.23106227,16.66487952,16.66582148,16.66657884,16.66683805,16.66602947,,,,,,,,,,,,,,,,,,,,PF,strong,3,,,,,,,,7,0.61671,,,,,,,,,,,,,,,,,,,,,,,,,,,,3,strong,56,97,1,0,0,response1disk,8,160,-10,-20,1,0,0,rectangle,-10,-20,1,0,0,5,3,0,0.000065,-10,-20,1,0,0,0,159,159,44,1,,,,,,,,,,,,,,,,,,,,,
,,,,,,,,,,,,,,,,,,,,,,,,,,,,,,,,,,,,,,,,,,5e89fb8da9f5aa02cfac7ef1,6036da7cb82463b32a928f19,2021-02-24_23h13.13.673,Colour_Similarity_Experiment,2020.2.10,Win32,60,6036d0d9a84aa1626184a6ef,17.23106227,16.66487952,16.66582148,16.66657884,16.66683805,16.66602947,,,,,,,,,,,,,,,,,,,,PF,weak,3,,,,,,,,5,1.316685,,,,,,,,,,,,,,,,,,,,,,,,,,,,7,weak,94,-57,1,0,0,response3disk,1,161,16,-4,1,0,0,rectangle,16,-4,1,0,0,5,3,0,7.5E-05,16,-4,1,0,0,0,160,160,53,1,,,,,,,,,,,,,,,,,,,,,
,,,,,,,,,,,,,,,,,,,,,,,,,,,,,,,,,,,,,,,,,,5e89fb8da9f5aa02cfac7ef1,6036da7cb82463b32a928f19,2021-02-24_23h13.13.673,Colour_Similarity_Experiment,2020.2.10,Win32,60,6036d0d9a84aa1626184a6ef,17.23106227,16.66487952,16.66582148,16.66657884,16.66683805,16.66602947,,,,,,,,,,,,,,,,,,,,PF,weak,3,,,,,,,,7,0.833205,,,,,,,,,,,,,,,,,,,,,,,,,,,,1,weak,68,129,1,0,0,response1disk,3,162,1,-7,1,0,0,rectangle,1,-7,1,0,0,5,5,0,0.000535,1,-7,1,0,0,0,161,161,1,1,,,,,,,,,,,,,,,,,,,,,
,,,,,,,,,,,,,,,,,,,,,,,,,,,,,,,,,,,,,,,,,,5e89fb8da9f5aa02cfac7ef1,6036da7cb82463b32a928f19,2021-02-24_23h13.13.673,Colour_Similarity_Experiment,2020.2.10,Win32,60,6036d0d9a84aa1626184a6ef,17.23106227,16.66487952,16.66582148,16.66657884,16.66683805,16.66602947,,,,,,,,,,,,,,,,,,,,,,,,,,,,,,,,,,,,,,,,,,,,,,,,,,,,,,,,,,,,,,,,,,,,,,,,,,,,,,,,,,,,,,,,,,,,,,,,0,0,0,0,1,,,,,,,,,,,,,,
,,,,,,,,,,,,,,,,,,,,,,,,,,,,,,,,,,,,,,,,,,5e89fb8da9f5aa02cfac7ef1,6036da7cb82463b32a928f19,2021-02-24_23h13.13.673,Colour_Similarity_Experiment,2020.2.10,Win32,60,6036d0d9a84aa1626184a6ef,17.23106227,16.66487952,16.66582148,16.66657884,16.66683805,16.66602947,,,,,,,,,,,,,,,,,,,,PF,strong,3,,,,,,,,7,0.697005,,,,,,,,,,,,,,,,,,,,,,,,,,,,4,strong,40,102,1,0,0,response1disk,4,163,-7,20,1,0,0,rectangle,-7,20,1,0,0,5,2,0,0.00048,-7,20,1,0,0,0,0,0,84,1,,,,,,,,,,,,,,,,,,,,,
,,,,,,,,,,,,,,,,,,,,,,,,,,,,,,,,,,,,,,,,,,5e89fb8da9f5aa02cfac7ef1,6036da7cb82463b32a928f19,2021-02-24_23h13.13.673,Colour_Similarity_Experiment,2020.2.10,Win32,60,6036d0d9a84aa1626184a6ef,17.23106227,16.66487952,16.66582148,16.66657884,16.66683805,16.66602947,,,,,,,,,,,,,,,,,,,,PF,weak,3,,,,,,,,7,0.547075,,,,,,,,,,,,,,,,,,,,,,,,,,,,9,weak,48,97,1,0,0,response1disk,1,164,6,19,1,0,0,rectangle,6,19,1,0,0,5,7,0,0.000475,6,19,1,0,0,0,1,1,74,1,,,,,,,,,,,,,,,,,,,,,
,,,,,,,,,,,,,,,,,,,,,,,,,,,,,,,,,,,,,,,,,,5e89fb8da9f5aa02cfac7ef1,6036da7cb82463b32a928f19,2021-02-24_23h13.13.673,Colour_Similarity_Experiment,2020.2.10,Win32,60,6036d0d9a84aa1626184a6ef,17.23106227,16.66487952,16.66582148,16.66657884,16.66683805,16.66602947,,,,,,,,,,,,,,,,,,,,PF,strong,3,,,,,,,,5,2.24698,,,,,,,,,,,,,,,,,,,,,,,,,,,,5,strong,95,-33,1,0,0,response3disk,4,165,-7,8,1,0,0,rectangle,-7,8,1,0,0,5,7,0,7E-05,-7,8,1,0,0,0,2,2,8,1,,,,,,,,,,,,,,,,,,,,,
,,,,,,,,,,,,,,,,,,,,,,,,,,,,,,,,,,,,,,,,,,5e89fb8da9f5aa02cfac7ef1,6036da7cb82463b32a928f19,2021-02-24_23h13.13.673,Colour_Similarity_Experiment,2020.2.10,Win32,60,6036d0d9a84aa1626184a6ef,17.23106227,16.66487952,16.66582148,16.66657884,16.66683805,16.66602947,,,,,,,,,,,,,,,,,,,,PF,strong,3,,,,,,,,7,1.09709,,,,,,,,,,,,,,,,,,,,,,,,,,,,2,strong,41,93,1,0,0,response1disk,4,166,7,2,1,0,0,rectangle,7,2,1,0,0,5,1,0,0.00049,7,2,1,0,0,0,3,3,145,1,,,,,,,,,,,,,,,,,,,,,
,,,,,,,,,,,,,,,,,,,,,,,,,,,,,,,,,,,,,,,,,,5e89fb8da9f5aa02cfac7ef1,6036da7cb82463b32a928f19,2021-02-24_23h13.13.673,Colour_Similarity_Experiment,2020.2.10,Win32,60,6036d0d9a84aa1626184a6ef,17.23106227,16.66487952,16.66582148,16.66657884,16.66683805,16.66602947,,,,,,,,,,,,,,,,,,,,PF,strong,3,,,,,,,,7,1.99715,,,,,,,,,,,,,,,,,,,,,,,,,,,,8,strong,98,129,1,0,0,response1disk,5,167,0,4,1,0,0,rectangle,0,4,1,0,0,5,5,0,0.000925,0,4,1,0,0,0,4,4,152,1,,,,,,,,,,,,,,,,,,,,,
,,,,,,,,,,,,,,,,,,,,,,,,,,,,,,,,,,,,,,,,,,5e89fb8da9f5aa02cfac7ef1,6036da7cb82463b32a928f19,2021-02-24_23h13.13.673,Colour_Similarity_Experiment,2020.2.10,Win32,60,6036d0d9a84aa1626184a6ef,17.23106227,16.66487952,16.66582148,16.66657884,16.66683805,16.66602947,,,,,,,,,,,,,,,,,,,,PF,weak,3,,,,,,,,0,0.947135,,,,,,,,,,,,,,,,,,,,,,,,,,,,9,weak,-53,114,1,0,0,response7disk,9,168,0,4,1,0,0,rectangle,0,4,1,0,0,5,5,0,9.5E-05,0,4,1,0,0,0,5,5,106,1,,,,,,,,,,,,,,,,,,,,,
,,,,,,,,,,,,,,,,,,,,,,,,,,,,,,,,,,,,,,,,,,5e89fb8da9f5aa02cfac7ef1,6036da7cb82463b32a928f19,2021-02-24_23h13.13.673,Colour_Similarity_Experiment,2020.2.10,Win32,60,6036d0d9a84aa1626184a6ef,17.23106227,16.66487952,16.66582148,16.66657884,16.66683805,16.66602947,,,,,,,,,,,,,,,,,,,,PF,strong,3,,,,,,,,7,1.71383,,,,,,,,,,,,,,,,,,,,,,,,,,,,8,strong,55,135,1,0,0,response1disk,6,169,-1,-7,1,0,0,rectangle,-1,-7,1,0,0,5,0,0,0.00064,-1,-7,1,0,0,0,6,6,37,1,,,,,,,,,,,,,,,,,,,,,
,,,,,,,,,,,,,,,,,,,,,,,,,,,,,,,,,,,,,,,,,,5e89fb8da9f5aa02cfac7ef1,6036da7cb82463b32a928f19,2021-02-24_23h13.13.673,Colour_Similarity_Experiment,2020.2.10,Win32,60,6036d0d9a84aa1626184a6ef,17.23106227,16.66487952,16.66582148,16.66657884,16.66683805,16.66602947,,,,,,,,,,,,,,,,,,,,PF,weak,3,,,,,,,,4,1.38041,,,,,,,,,,,,,,,,,,,,,,,,,,,,4,weak,61,-83,1,0,0,response3disk,5,170,20,13,1,0,0,rectangle,20,13,1,0,0,5,4,0,0.0005,20,13,1,0,0,0,7,7,49,1,,,,,,,,,,,,,,,,,,,,,
,,,,,,,,,,,,,,,,,,,,,,,,,,,,,,,,,,,,,,,,,,5e89fb8da9f5aa02cfac7ef1,6036da7cb82463b32a928f19,2021-02-24_23h13.13.673,Colour_Similarity_Experiment,2020.2.10,Win32,60,6036d0d9a84aa1626184a6ef,17.23106227,16.66487952,16.66582148,16.66657884,16.66683805,16.66602947,,,,,,,,,,,,,,,,,,,,PF,weak,3,,,,,,,,7,0.79964,,,,,,,,,,,,,,,,,,,,,,,,,,,,9,weak,43,104,1,0,0,response1disk,3,171,5,17,1,0,0,rectangle,5,17,1,0,0,5,2,0,0.000515,5,17,1,0,0,0,8,8,119,1,,,,,,,,,,,,,,,,,,,,,
,,,,,,,,,,,,,,,,,,,,,,,,,,,,,,,,,,,,,,,,,,5e89fb8da9f5aa02cfac7ef1,6036da7cb82463b32a928f19,2021-02-24_23h13.13.673,Colour_Similarity_Experiment,2020.2.10,Win32,60,6036d0d9a84aa1626184a6ef,17.23106227,16.66487952,16.66582148,16.66657884,16.66683805,16.66602947,,,,,,,,,,,,,,,,,,,,PF,weak,3,,,,,,,,7,0.563725,,,,,,,,,,,,,,,,,,,,,,,,,,,,2,weak,28,81,1,0,0,response1disk,8,172,2,7,1,0,0,rectangle,2,7,1,0,0,5,7,0,0.000475,2,7,1,0,0,0,9,9,52,1,,,,,,,,,,,,,,,,,,,,,
,,,,,,,,,,,,,,,,,,,,,,,,,,,,,,,,,,,,,,,,,,5e89fb8da9f5aa02cfac7ef1,6036da7cb82463b32a928f19,2021-02-24_23h13.13.673,Colour_Similarity_Experiment,2020.2.10,Win32,60,6036d0d9a84aa1626184a6ef,17.23106227,16.66487952,16.66582148,16.66657884,16.66683805,16.66602947,,,,,,,,,,,,,,,,,,,,PF,weak,3,,,,,,,,0,2.09728,,,,,,,,,,,,,,,,,,,,,,,,,,,,2,weak,-49,91,1,0,0,response7disk,2,173,-18,-4,1,0,0,rectangle,-18,-4,1,0,0,5,1,0,0.00052,-18,-4,1,0,0,0,10,10,14,1,,,,,,,,,,,,,,,,,,,,,
,,,,,,,,,,,,,,,,,,,,,,,,,,,,,,,,,,,,,,,,,,5e89fb8da9f5aa02cfac7ef1,6036da7cb82463b32a928f19,2021-02-24_23h13.13.673,Colour_Similarity_Experiment,2020.2.10,Win32,60,6036d0d9a84aa1626184a6ef,17.23106227,16.66487952,16.66582148,16.66657884,16.66683805,16.66602947,,,,,,,,,,,,,,,,,,,,PF,strong,3,,,,,,,,7,3.963685,,,,,,,,,,,,,,,,,,,,,,,,,,,,9,strong,78,164,1,0,0,response1disk,7,174,9,21,1,0,0,rectangle,9,21,1,0,0,5,7,0,0.00048,9,21,1,0,0,0,11,11,100,1,,,,,,,,,,,,,,,,,,,,,
,,,,,,,,,,,,,,,,,,,,,,,,,,,,,,,,,,,,,,,,,,5e89fb8da9f5aa02cfac7ef1,6036da7cb82463b32a928f19,2021-02-24_23h13.13.673,Colour_Similarity_Experiment,2020.2.10,Win32,60,6036d0d9a84aa1626184a6ef,17.23106227,16.66487952,16.66582148,16.66657884,16.66683805,16.66602947,,,,,,,,,,,,,,,,,,,,PF,strong,3,,,,,,,,7,1.0138,,,,,,,,,,,,,,,,,,,,,,,,,,,,7,strong,73,116,1,0,0,response1disk,2,175,-2,-11,1,0,0,rectangle,-2,-11,1,0,0,5,5,0,0.000505,-2,-11,1,0,0,0,12,12,138,1,,,,,,,,,,,,,,,,,,,,,
,,,,,,,,,,,,,,,,,,,,,,,,,,,,,,,,,,,,,,,,,,5e89fb8da9f5aa02cfac7ef1,6036da7cb82463b32a928f19,2021-02-24_23h13.13.673,Colour_Similarity_Experiment,2020.2.10,Win32,60,6036d0d9a84aa1626184a6ef,17.23106227,16.66487952,16.66582148,16.66657884,16.66683805,16.66602947,,,,,,,,,,,,,,,,,,,,PF,weak,3,,,,,,,,5,1.93034,,,,,,,,,,,,,,,,,,,,,,,,,,,,2,weak,107,-31,1,0,0,response3disk,1,176,1,7,1,0,0,rectangle,1,7,1,0,0,5,5,0,7.5E-05,1,7,1,0,0,0,13,13,9,1,,,,,,,,,,,,,,,,,,,,,
,,,,,,,,,,,,,,,,,,,,,,,,,,,,,,,,,,,,,,,,,,5e89fb8da9f5aa02cfac7ef1,6036da7cb82463b32a928f19,2021-02-24_23h13.13.673,Colour_Similarity_Experiment,2020.2.10,Win32,60,6036d0d9a84aa1626184a6ef,17.23106227,16.66487952,16.66582148,16.66657884,16.66683805,16.66602947,,,,,,,,,,,,,,,,,,,,PF,weak,3,,,,,,,,7,0.66379,,,,,,,,,,,,,,,,,,,,,,,,,,,,8,weak,40,112,1,0,0,response1disk,4,177,-3,17,1,0,0,rectangle,-3,17,1,0,0,5,3,0,0.000485,-3,17,1,0,0,0,14,14,78,1,,,,,,,,,,,,,,,,,,,,,
,,,,,,,,,,,,,,,,,,,,,,,,,,,,,,,,,,,,,,,,,,5e89fb8da9f5aa02cfac7ef1,6036da7cb82463b32a928f19,2021-02-24_23h13.13.673,Colour_Similarity_Experiment,2020.2.10,Win32,60,6036d0d9a84aa1626184a6ef,17.23106227,16.66487952,16.66582148,16.66657884,16.66683805,16.66602947,,,,,,,,,,,,,,,,,,,,PF,weak,3,,,,,,,,7,0.71386,,,,,,,,,,,,,,,,,,,,,,,,,,,,2,weak,41,88,1,0,0,response1disk,4,178,-16,5,1,0,0,rectangle,-16,5,1,0,0,5,4,0,0.000485,-16,5,1,0,0,0,15,15,127,1,,,,,,,,,,,,,,,,,,,,,
,,,,,,,,,,,,,,,,,,,,,,,,,,,,,,,,,,,,,,,,,,5e89fb8da9f5aa02cfac7ef1,6036da7cb82463b32a928f19,2021-02-24_23h13.13.673,Colour_Similarity_Experiment,2020.2.10,Win32,60,6036d0d9a84aa1626184a6ef,17.23106227,16.66487952,16.66582148,16.66657884,16.66683805,16.66602947,,,,,,,,,,,,,,,,,,,,PF,strong,3,,,,,,,,7,0.94886,,,,,,,,,,,,,,,,,,,,,,,,,,,,7,strong,48,101,1,0,0,response1disk,1,179,-8,4,1,0,0,rectangle,-8,4,1,0,0,5,2,0,0.00054,-8,4,1,0,0,0,16,16,132,1,,,,,,,,,,,,,,,,,,,,,
,,,,,,,,,,,,,,,,,,,,,,,,,,,,,,,,,,,,,,,,,,5e89fb8da9f5aa02cfac7ef1,6036da7cb82463b32a928f19,2021-02-24_23h13.13.673,Colour_Similarity_Experiment,2020.2.10,Win32,60,6036d0d9a84aa1626184a6ef,17.23106227,16.66487952,16.66582148,16.66657884,16.66683805,16.66602947,,,,,,,,,,,,,,,,,,,,PF,weak,3,,,,,,,,0,0.713785,,,,,,,,,,,,,,,,,,,,,,,,,,,,1,weak,-69,103,1,0,0,response7disk,1,180,15,-6,1,0,0,rectangle,71,-138,1,0,0,4,4,1,1.76681,-4,4,1,0,0,0,17,17,76,1,response3disk_3,rectangle,,,,,,,,,,,,,,,,,,,
,,,,,,,,,,,,,,,,,,,,,,,,,,,,,,,,,,,,,,,,,,5e89fb8da9f5aa02cfac7ef1,6036da7cb82463b32a928f19,2021-02-24_23h13.13.673,Colour_Similarity_Experiment,2020.2.10,Win32,60,6036d0d9a84aa1626184a6ef,17.23106227,16.66487952,16.66582148,16.66657884,16.66683805,16.66602947,,,,,,,,,,,,,,,,,,,,PF,weak,3,,,,,,,,1,1.313995,,,,,,,,,,,,,,,,,,,,,,,,,,,,4,weak,-97,56,1,0,0,response7disk,3,181,-18,-8,1,0,0,rectangle,-18,-8,1,0,0,4,3,0,0.000505,-18,-8,1,0,0,0,18,18,89,1,,,,,,,,,,,,,,,,,,,,,
,,,,,,,,,,,,,,,,,,,,,,,,,,,,,,,,,,,,,,,,,,5e89fb8da9f5aa02cfac7ef1,6036da7cb82463b32a928f19,2021-02-24_23h13.13.673,Colour_Similarity_Experiment,2020.2.10,Win32,60,6036d0d9a84aa1626184a6ef,17.23106227,16.66487952,16.66582148,16.66657884,16.66683805,16.66602947,,,,,,,,,,,,,,,,,,,,PF,strong,3,,,,,,,,7,0.99716,,,,,,,,,,,,,,,,,,,,,,,,,,,,1,strong,29,116,1,0,0,response1disk,4,182,-2,-5,1,0,0,rectangle,-2,-5,1,0,0,4,4,0,0.0005,-2,-5,1,0,0,0,19,19,135,1,,,,,,,,,,,,,,,,,,,,,
,,,,,,,,,,,,,,,,,,,,,,,,,,,,,,,,,,,,,,,,,,5e89fb8da9f5aa02cfac7ef1,6036da7cb82463b32a928f19,2021-02-24_23h13.13.673,Colour_Similarity_Experiment,2020.2.10,Win32,60,6036d0d9a84aa1626184a6ef,17.23106227,16.66487952,16.66582148,16.66657884,16.66683805,16.66602947,,,,,,,,,,,,,,,,,,,,PF,strong,3,,,,,,,,3,1.547125,,,,,,,,,,,,,,,,,,,,,,,,,,,,4,strong,-52,-70,1,0,0,response5disk,5,183,-19,-13,1,0,0,rectangle,-19,-13,1,0,0,4,5,0,0.00045,-19,-13,1,0,0,0,20,20,116,1,,,,,,,,,,,,,,,,,,,,,
,,,,,,,,,,,,,,,,,,,,,,,,,,,,,,,,,,,,,,,,,,5e89fb8da9f5aa02cfac7ef1,6036da7cb82463b32a928f19,2021-02-24_23h13.13.673,Colour_Similarity_Experiment,2020.2.10,Win32,60,6036d0d9a84aa1626184a6ef,17.23106227,16.66487952,16.66582148,16.66657884,16.66683805,16.66602947,,,,,,,,,,,,,,,,,,,,PF,strong,3,,,,,,,,6,0.86381,,,,,,,,,,,,,,,,,,,,,,,,,,,,3,strong,85,80,1,0,0,response1disk,1,184,30,-14,1,0,0,rectangle,30,-14,1,0,0,4,4,0,0.000465,30,-14,1,0,0,0,21,21,125,1,,,,,,,,,,,,,,,,,,,,,
,,,,,,,,,,,,,,,,,,,,,,,,,,,,,,,,,,,,,,,,,,5e89fb8da9f5aa02cfac7ef1,6036da7cb82463b32a928f19,2021-02-24_23h13.13.673,Colour_Similarity_Experiment,2020.2.10,Win32,60,6036d0d9a84aa1626184a6ef,17.23106227,16.66487952,16.66582148,16.66657884,16.66683805,16.66602947,,,,,,,,,,,,,,,,,,,,PF,weak,3,,,,,,,,0,1.14714,,,,,,,,,,,,,,,,,,,,,,,,,,,,5,weak,-28,118,1,0,0,response7disk,5,185,1,14,1,0,0,rectangle,1,14,1,0,0,4,6,0,0.00048,1,14,1,0,0,0,22,22,94,1,,,,,,,,,,,,,,,,,,,,,
,,,,,,,,,,,,,,,,,,,,,,,,,,,,,,,,,,,,,,,,,,5e89fb8da9f5aa02cfac7ef1,6036da7cb82463b32a928f19,2021-02-24_23h13.13.673,Colour_Similarity_Experiment,2020.2.10,Win32,60,6036d0d9a84aa1626184a6ef,17.23106227,16.66487952,16.66582148,16.66657884,16.66683805,16.66602947,,,,,,,,,,,,,,,,,,,,PF,strong,3,,,,,,,,6,1.032745,,,,,,,,,,,,,,,,,,,,,,,,,,,,9,strong,90,47,1,0,0,response1disk,3,186,-8,-5,1,0,0,rectangle,-8,-5,1,0,0,4,4,0,0.000465,-8,-5,1,0,0,0,23,23,141,1,,,,,,,,,,,,,,,,,,,,,
,,,,,,,,,,,,,,,,,,,,,,,,,,,,,,,,,,,,,,,,,,5e89fb8da9f5aa02cfac7ef1,6036da7cb82463b32a928f19,2021-02-24_23h13.13.673,Colour_Similarity_Experiment,2020.2.10,Win32,60,6036d0d9a84aa1626184a6ef,17.23106227,16.66487952,16.66582148,16.66657884,16.66683805,16.66602947,,,,,,,,,,,,,,,,,,,,PF,weak,3,,,,,,,,7,1.497425,,,,,,,,,,,,,,,,,,,,,,,,,,,,5,weak,64,92,1,0,0,response1disk,9,187,16,17,1,0,0,rectangle,-114,-40,1,0,0,4,2,1,1.885445,12,1,1,0,0,0,24,24,136,1,response5disk_3,rectangle,,,,,,,,,,,,,,,,,,,
,,,,,,,,,,,,,,,,,,,,,,,,,,,,,,,,,,,,,,,,,,5e89fb8da9f5aa02cfac7ef1,6036da7cb82463b32a928f19,2021-02-24_23h13.13.673,Colour_Similarity_Experiment,2020.2.10,Win32,60,6036d0d9a84aa1626184a6ef,17.23106227,16.66487952,16.66582148,16.66657884,16.66683805,16.66602947,,,,,,,,,,,,,,,,,,,,PF,weak,3,,,,,,,,7,0.86373,,,,,,,,,,,,,,,,,,,,,,,,,,,,6,weak,53,80,1,0,0,response1disk,2,188,26,15,1,0,0,rectangle,26,15,1,0,0,4,7,0,0.00054,26,15,1,0,0,0,25,25,130,1,,,,,,,,,,,,,,,,,,,,,
,,,,,,,,,,,,,,,,,,,,,,,,,,,,,,,,,,,,,,,,,,5e89fb8da9f5aa02cfac7ef1,6036da7cb82463b32a928f19,2021-02-24_23h13.13.673,Colour_Similarity_Experiment,2020.2.10,Win32,60,6036d0d9a84aa1626184a6ef,17.23106227,16.66487952,16.66582148,16.66657884,16.66683805,16.66602947,,,,,,,,,,,,,,,,,,,,PF,weak,3,,,,,,,,7,0.59709,,,,,,,,,,,,,,,,,,,,,,,,,,,,8,weak,50,133,1,0,0,response1disk,2,189,-5,6,1,0,0,rectangle,-5,6,1,0,0,4,6,0,0.000505,-5,6,1,0,0,0,26,26,83,1,,,,,,,,,,,,,,,,,,,,,
,,,,,,,,,,,,,,,,,,,,,,,,,,,,,,,,,,,,,,,,,,5e89fb8da9f5aa02cfac7ef1,6036da7cb82463b32a928f19,2021-02-24_23h13.13.673,Colour_Similarity_Experiment,2020.2.10,Win32,60,6036d0d9a84aa1626184a6ef,17.23106227,16.66487952,16.66582148,16.66657884,16.66683805,16.66602947,,,,,,,,,,,,,,,,,,,,PF,weak,3,,,,,,,,7,0.564065,,,,,,,,,,,,,,,,,,,,,,,,,,,,7,weak,60,89,1,0,0,response1disk,5,190,20,14,1,0,0,rectangle,20,14,1,0,0,4,7,0,0.0005,20,14,1,0,0,0,27,27,92,1,,,,,,,,,,,,,,,,,,,,,
,,,,,,,,,,,,,,,,,,,,,,,,,,,,,,,,,,,,,,,,,,5e89fb8da9f5aa02cfac7ef1,6036da7cb82463b32a928f19,2021-02-24_23h13.13.673,Colour_Similarity_Experiment,2020.2.10,Win32,60,6036d0d9a84aa1626184a6ef,17.23106227,16.66487952,16.66582148,16.66657884,16.66683805,16.66602947,,,,,,,,,,,,,,,,,,,,PF,weak,3,,,,,,,,7,0.73079,,,,,,,,,,,,,,,,,,,,,,,,,,,,3,weak,43,95,1,0,0,response1disk,1,191,-5,1,1,0,0,rectangle,-5,1,1,0,0,4,7,0,8E-05,-5,1,1,0,0,0,28,28,96,1,,,,,,,,,,,,,,,,,,,,,
,,,,,,,,,,,,,,,,,,,,,,,,,,,,,,,,,,,,,,,,,,5e89fb8da9f5aa02cfac7ef1,6036da7cb82463b32a928f19,2021-02-24_23h13.13.673,Colour_Similarity_Experiment,2020.2.10,Win32,60,6036d0d9a84aa1626184a6ef,17.23106227,16.66487952,16.66582148,16.66657884,16.66683805,16.66602947,,,,,,,,,,,,,,,,,,,,PF,strong,3,,,,,,,,7,0.965905,,,,,,,,,,,,,,,,,,,,,,,,,,,,1,strong,55,89,1,0,0,response1disk,3,192,0,-6,1,0,0,rectangle,0,-6,1,0,0,4,7,0,0.000065,0,-6,1,0,0,0,29,29,99,1,,,,,,,,,,,,,,,,,,,,,
,,,,,,,,,,,,,,,,,,,,,,,,,,,,,,,,,,,,,,,,,,5e89fb8da9f5aa02cfac7ef1,6036da7cb82463b32a928f19,2021-02-24_23h13.13.673,Colour_Similarity_Experiment,2020.2.10,Win32,60,6036d0d9a84aa1626184a6ef,17.23106227,16.66487952,16.66582148,16.66657884,16.66683805,16.66602947,,,,,,,,,,,,,,,,,,,,PF,strong,3,,,,,,,,7,1.26413,,,,,,,,,,,,,,,,,,,,,,,,,,,,5,strong,50,86,1,0,0,response1disk,7,193,-4,-3,1,0,0,rectangle,-4,-3,1,0,0,4,1,0,0.000465,-4,-3,1,0,0,0,30,30,7,1,,,,,,,,,,,,,,,,,,,,,
,,,,,,,,,,,,,,,,,,,,,,,,,,,,,,,,,,,,,,,,,,5e89fb8da9f5aa02cfac7ef1,6036da7cb82463b32a928f19,2021-02-24_23h13.13.673,Colour_Similarity_Experiment,2020.2.10,Win32,60,6036d0d9a84aa1626184a6ef,17.23106227,16.66487952,16.66582148,16.66657884,16.66683805,16.66602947,,,,,,,,,,,,,,,,,,,,PF,weak,3,,,,,,,,6,1.314135,,,,,,,,,,,,,,,,,,,,,,,,,,,,7,weak,86,41,1,0,0,response1disk,8,194,5,2,1,0,0,rectangle,5,2,1,0,0,4,4,0,0.000485,5,2,1,0,0,0,31,31,140,1,,,,,,,,,,,,,,,,,,,,,
