key_resp.keys,key_resp.rt,key_resp_16.keys,key_resp_16.rt,key_resp_2.keys,key_resp_2.rt,X Scale,ratio_pxpermm,screen_size_x,screen_size_y,testsize,key_resp_3.keys,key_resp_4.keys,key_resp_4.rt,line_size,key_resp_5.keys,key_resp_5.rt,key_resp_6.keys,key_resp_6.rt,key_resp_8.keys,key_resp_8.rt,key_resp_7.keys,key_resp_7.rt,key_resp_12.keys,key_resp_12.rt,key_resp_11.keys,key_resp_11.rt,key_resp_18.keys,key_resp_18.rt,key_resp_21.keys,key_resp_21.rt,key_resp_13.keys,key_resp_13.rt,key_resp_19.keys,key_resp_19.rt,ballposx,viewer_distance,trials.thisRepN,trials.thisTrialN,trials.thisN,trials.thisIndex,trials.ran,participant,session,date,expName,psychopyVersion,OS,frameRate,study_id,realFrameRate1,realFrameRate2,realFrameRate3,realFrameRate4,realFrameRate5,realFrameRate,viewerdistancecm,DVA_to_distance,radius_F,radius_P,r_F,R_P,key_resp_20.keys,key_resp_20.rt,key_resp_14.keys,key_resp_14.rt,key_resp_15.keys,key_resp_15.rt,key_resp_17.keys,key_resp_17.rt,key_resp_9.keys,key_resp_9.rt,key_resp_10.keys,key_resp_10.rt,Colour_1,Ecc,maskCon,mask_frames,mouse_5.x,mouse_5.y,mouse_5.leftButton,mouse_5.midButton,mouse_5.rightButton,mouse_5.clicked_name,Colour_2,similarity,response_time,mouse_10.x,mouse_10.y,mouse_10.leftButton,mouse_10.midButton,mouse_10.rightButton,mouse_10.clicked_name,mouse_7.x,mouse_7.y,mouse_7.leftButton,mouse_7.midButton,mouse_7.rightButton,catchnumberprac,mouse_6.x,mouse_6.y,mouse_6.leftButton,mouse_6.midButton,mouse_6.rightButton,duringprac.thisRepN,duringprac.thisTrialN,duringprac.thisN,duringprac.thisIndex,duringprac.ran,mouse_7.clicked_name,catchprac,mouse_6.clicked_name,key_resp_22.keys,key_resp_22.rt,Colour1,maskCon1,mouse.x,mouse.y,mouse.leftButton,mouse.midButton,mouse.rightButton,mouse.clicked_name,Colour2,trialnumber,mouse_2.x,mouse_2.y,mouse_2.leftButton,mouse_2.midButton,mouse_2.rightButton,mouse_2.clicked_name,mouse_3.x,mouse_3.y,mouse_3.leftButton,mouse_3.midButton,mouse_3.rightButton,catchresponse,catchnumber,Catch,response_time_catch,mouse_11.x,mouse_11.y,mouse_11.leftButton,mouse_11.midButton,mouse_11.rightButton,trials_2.thisRepN,trials_2.thisTrialN,trials_2.thisN,trials_2.thisIndex,trials_2.ran,mouse_3.clicked_name,mouse_11.clicked_name,trials_3.thisRepN,trials_3.thisTrialN,trials_3.thisN,trials_3.thisIndex,trials_3.ran,answer1,rt1,answer2,rt2,answer3,rt3,answer4,rt4,answer5,rt5,answer6,rt6,answer7,rt7
space,0.964955,space,1611.231855,space,4.24995,35.5,3.55,529.2957746,304.2253521,1879,,space,8.623985,71,space,10.15376,space,4.180605,space,0.8572,space,1.90694,space,4.682085,space,3.03607,space,3.202075,space,11.89071,space,8.500635,return,3.62087,-64.8255,957.93189,0,0,0,0,1,5ea34f0a32a8c7116361d01d,6036d8221e3a840a460eb838,2021-02-24_23h50.27.933,Colour_Similarity_Experiment,2020.2.10,Win32,60,6036d0d9a84aa1626184a6ef,13.82581019,99.63222143,13.41225427,13.35664099,13.33835159,34.93486707,,,,,,,,,,,,,,,,,,,,,,,,,,,,,,,,,,,,,,,,,,,,,,,,,,,,,,,,,,,,,,,,,,,,,,,,,,,,,,,,,,,,,,,,,,,,,,,,,,,,,,,,,,,,,,,,,,
,,,,,,,,,,,,,,,,,,,,,,,,,,,,,,,,,return,9.978545,-1406.4315,2532.07083,1,0,1,0,1,5ea34f0a32a8c7116361d01d,6036d8221e3a840a460eb838,2021-02-24_23h50.27.933,Colour_Similarity_Experiment,2020.2.10,Win32,60,6036d0d9a84aa1626184a6ef,13.82581019,99.63222143,13.41225427,13.35664099,13.33835159,34.93486707,,,,,,,,,,,,,,,,,,,,,,,,,,,,,,,,,,,,,,,,,,,,,,,,,,,,,,,,,,,,,,,,,,,,,,,,,,,,,,,,,,,,,,,,,,,,,,,,,,,,,,,,,,,,,,,,,,
,,,,,,,,,,,,,,,,,,,,,,,,,,,,,,,,,return,3.17908,28.185,848.8004089,2,0,2,0,1,5ea34f0a32a8c7116361d01d,6036d8221e3a840a460eb838,2021-02-24_23h50.27.933,Colour_Similarity_Experiment,2020.2.10,Win32,60,6036d0d9a84aa1626184a6ef,13.82581019,99.63222143,13.41225427,13.35664099,13.33835159,34.93486707,,,,,,,,,,,,,,,,,,,,,,,,,,,,,,,,,,,,,,,,,,,,,,,,,,,,,,,,,,,,,,,,,,,,,,,,,,,,,,,,,,,,,,,,,,,,,,,,,,,,,,,,,,,,,,,,,,
,,,,,,,,,,,,,,,,,,,,,,,,,,,,,,,,,return,3.18603,28.185,848.8004089,3,0,3,0,1,5ea34f0a32a8c7116361d01d,6036d8221e3a840a460eb838,2021-02-24_23h50.27.933,Colour_Similarity_Experiment,2020.2.10,Win32,60,6036d0d9a84aa1626184a6ef,13.82581019,99.63222143,13.41225427,13.35664099,13.33835159,34.93486707,,,,,,,,,,,,,,,,,,,,,,,,,,,,,,,,,,,,,,,,,,,,,,,,,,,,,,,,,,,,,,,,,,,,,,,,,,,,,,,,,,,,,,,,,,,,,,,,,,,,,,,,,,,,,,,,,,
,,,,,,,,,,,,,,,,,,,,,,,,,,,,,,,,,return,3.174855,31.0035,845.4933943,4,0,4,0,1,5ea34f0a32a8c7116361d01d,6036d8221e3a840a460eb838,2021-02-24_23h50.27.933,Colour_Similarity_Experiment,2020.2.10,Win32,60,6036d0d9a84aa1626184a6ef,13.82581019,99.63222143,13.41225427,13.35664099,13.33835159,34.93486707,,,,,,,,,,,,,,,,,,,,,,,,,,,,,,,,,,,,,,,,,,,,,,,,,,,,,,,,,,,,,,,,,,,,,,,,,,,,,,,,,,,,,,,,,,,,,,,,,,,,,,,,,,,,,,,,,,
,,,,,,,,,,,,,,,,,,,,,,,,,,,,,,,,,,,,,,,,,,5ea34f0a32a8c7116361d01d,6036d8221e3a840a460eb838,2021-02-24_23h50.27.933,Colour_Similarity_Experiment,2020.2.10,Win32,60,6036d0d9a84aa1626184a6ef,13.82581019,99.63222143,13.41225427,13.35664099,13.33835159,34.93486707,85,14.83679988,79.00595938,526.7063958,52.67063958,237.0178781,space,3.904555,space,15.272875,space,17.994005,space,6.557375,space,1.868455,space,4.969395,7,PF,weak,1,55.5,100,1,0,0,response1disk_5,1,7,8.63841,0.5,-5,1,0,0,rectangle_8,0.5,-5,1,0,0,6,0.5,-5,1,0,0,0,0,0,5,1,,,,,,,,,,,,,,,,,,,,,,,,,,,,,,,,,,,,,,,,,,,,,,,,,,,,,,,,,,,,,
,,,,,,,,,,,,,,,,,,,,,,,,,,,,,,,,,,,,,,,,,,5ea34f0a32a8c7116361d01d,6036d8221e3a840a460eb838,2021-02-24_23h50.27.933,Colour_Similarity_Experiment,2020.2.10,Win32,60,6036d0d9a84aa1626184a6ef,13.82581019,99.63222143,13.41225427,13.35664099,13.33835159,34.93486707,,,,,,,,,,,,,,,,,,,7,PF,weak,1,-55.5,123,1,0,0,response7disk_5,3,0,2.97605,1.5,1,1,0,0,rectangle_8,1.5,1,1,0,0,6,1.5,1,1,0,0,0,1,1,4,1,,,,,,,,,,,,,,,,,,,,,,,,,,,,,,,,,,,,,,,,,,,,,,,,,,,,,,,,,,,,,
,,,,,,,,,,,,,,,,,,,,,,,,,,,,,,,,,,,,,,,,,,5ea34f0a32a8c7116361d01d,6036d8221e3a840a460eb838,2021-02-24_23h50.27.933,Colour_Similarity_Experiment,2020.2.10,Win32,60,6036d0d9a84aa1626184a6ef,13.82581019,99.63222143,13.41225427,13.35664099,13.33835159,34.93486707,,,,,,,,,,,,,,,,,,,6,PF,weak,1,45.5,118,1,0,0,response1disk_5,2,7,4.59471,-4.5,-5,1,0,0,rectangle_8,96.5,60,1,0,0,6,0.5,-4,1,0,0,0,2,2,1,1,response1disk_7,6,rectangle_4,,,,,,,,,,,,,,,,,,,,,,,,,,,,,,,,,,,,,,,,,,,,,,,,,,,,,,,,,,
,,,,,,,,,,,,,,,,,,,,,,,,,,,,,,,,,,,,,,,,,,5ea34f0a32a8c7116361d01d,6036d8221e3a840a460eb838,2021-02-24_23h50.27.933,Colour_Similarity_Experiment,2020.2.10,Win32,60,6036d0d9a84aa1626184a6ef,13.82581019,99.63222143,13.41225427,13.35664099,13.33835159,34.93486707,,,,,,,,,,,,,,,,,,,8,PF,weak,1,50.5,95,1,0,0,response1disk_5,2,7,2.659345,-3.5,3,1,0,0,rectangle_8,-3.5,3,1,0,0,6,-3.5,3,1,0,0,0,3,3,6,1,,,,,,,,,,,,,,,,,,,,,,,,,,,,,,,,,,,,,,,,,,,,,,,,,,,,,,,,,,,,,
,,,,,,,,,,,,,,,,,,,,,,,,,,,,,,,,,,,,,,,,,,5ea34f0a32a8c7116361d01d,6036d8221e3a840a460eb838,2021-02-24_23h50.27.933,Colour_Similarity_Experiment,2020.2.10,Win32,60,6036d0d9a84aa1626184a6ef,13.82581019,99.63222143,13.41225427,13.35664099,13.33835159,34.93486707,,,,,,,,,,,,,,,,,,,1,PF,strong,1,49.5,109,1,0,0,response1disk_5,6,7,2.3506,-3.5,-1,1,0,0,rectangle_8,-3.5,-1,1,0,0,6,-3.5,-1,1,0,0,0,4,4,3,1,,,,,,,,,,,,,,,,,,,,,,,,,,,,,,,,,,,,,,,,,,,,,,,,,,,,,,,,,,,,,
,,,,,,,,,,,,,,,,,,,,,,,,,,,,,,,,,,,,,,,,,,5ea34f0a32a8c7116361d01d,6036d8221e3a840a460eb838,2021-02-24_23h50.27.933,Colour_Similarity_Experiment,2020.2.10,Win32,60,6036d0d9a84aa1626184a6ef,13.82581019,99.63222143,13.41225427,13.35664099,13.33835159,34.93486707,,,,,,,,,,,,,,,,,,,2,PF,strong,1,59.5,108,1,0,0,response1disk_5,8,7,1.27375,-6.5,5,1,0,0,rectangle_8,-6.5,5,1,0,0,6,-6.5,5,1,0,0,0,5,5,2,1,,,,,,,,,,,,,,,,,,,,,,,,,,,,,,,,,,,,,,,,,,,,,,,,,,,,,,,,,,,,,
,,,,,,,,,,,,,,,,,,,,,,,,,,,,,,,,,,,,,,,,,,5ea34f0a32a8c7116361d01d,6036d8221e3a840a460eb838,2021-02-24_23h50.27.933,Colour_Similarity_Experiment,2020.2.10,Win32,60,6036d0d9a84aa1626184a6ef,13.82581019,99.63222143,13.41225427,13.35664099,13.33835159,34.93486707,,,,,,,,,,,,,,,,,,,4,PF,strong,1,76.5,-96,1,0,0,response3disk_5,2,4,2.86092,-6.5,3,1,0,0,rectangle_8,-6.5,3,1,0,0,6,-6.5,3,1,0,0,0,6,6,0,1,,,,,,,,,,,,,,,,,,,,,,,,,,,,,,,,,,,,,,,,,,,,,,,,,,,,,,,,,,,,,
,,,,,,,,,,,,,,,,,,,,,,,,,,,,,,,,,,,,,,,,,,5ea34f0a32a8c7116361d01d,6036d8221e3a840a460eb838,2021-02-24_23h50.27.933,Colour_Similarity_Experiment,2020.2.10,Win32,60,6036d0d9a84aa1626184a6ef,13.82581019,99.63222143,13.41225427,13.35664099,13.33835159,34.93486707,,,,,,,,,,,,,,,,,,,,PF,weak,1,,,,,,,,0,1.69967,,,,,,,,,,,,,,,,,,,,,,,,,,space,3.194555,5,weak,-52.5,105,1,0,0,response7disk,5,1,0.5,3,1,0,0,rectangle,0.5,3,1,0,0,,2,0,0.001475,0.5,3,1,0,0,0,0,0,94,1,,,,,,,,,,,,,,,,,,,,,
,,,,,,,,,,,,,,,,,,,,,,,,,,,,,,,,,,,,,,,,,,5ea34f0a32a8c7116361d01d,6036d8221e3a840a460eb838,2021-02-24_23h50.27.933,Colour_Similarity_Experiment,2020.2.10,Win32,60,6036d0d9a84aa1626184a6ef,13.82581019,99.63222143,13.41225427,13.35664099,13.33835159,34.93486707,,,,,,,,,,,,,,,,,,,,PF,strong,1,,,,,,,,3,3.34001,,,,,,,,,,,,,,,,,,,,,,,,,,,,3,strong,-79.5,-100,1,0,0,response5disk,6,2,-1.5,1,1,0,0,rectangle,-1.5,1,1,0,0,,3,0,0.00105,-1.5,1,1,0,0,0,1,1,95,1,,,,,,,,,,,,,,,,,,,,,
,,,,,,,,,,,,,,,,,,,,,,,,,,,,,,,,,,,,,,,,,,5ea34f0a32a8c7116361d01d,6036d8221e3a840a460eb838,2021-02-24_23h50.27.933,Colour_Similarity_Experiment,2020.2.10,Win32,60,6036d0d9a84aa1626184a6ef,13.82581019,99.63222143,13.41225427,13.35664099,13.33835159,34.93486707,,,,,,,,,,,,,,,,,,,,PF,weak,1,,,,,,,,2,2.059025,,,,,,,,,,,,,,,,,,,,,,,,,,,,5,weak,-108.5,-65,1,0,0,response5disk,7,3,3.5,3,1,0,0,rectangle,3.5,3,1,0,0,,5,0,0.001055,3.5,3,1,0,0,0,2,2,146,1,,,,,,,,,,,,,,,,,,,,,
,,,,,,,,,,,,,,,,,,,,,,,,,,,,,,,,,,,,,,,,,,5ea34f0a32a8c7116361d01d,6036d8221e3a840a460eb838,2021-02-24_23h50.27.933,Colour_Similarity_Experiment,2020.2.10,Win32,60,6036d0d9a84aa1626184a6ef,13.82581019,99.63222143,13.41225427,13.35664099,13.33835159,34.93486707,,,,,,,,,,,,,,,,,,,,PF,weak,1,,,,,,,,7,1.52926,,,,,,,,,,,,,,,,,,,,,,,,,,,,5,weak,62.5,90,1,0,0,response1disk,1,4,-8.5,1,1,0,0,rectangle,-120.5,-56,1,0,0,,2,1,2.39086,7.5,11,1,0,0,0,3,3,159,1,response5disk_3,rectangle,,,,,,,,,,,,,,,,,,,
,,,,,,,,,,,,,,,,,,,,,,,,,,,,,,,,,,,,,,,,,,5ea34f0a32a8c7116361d01d,6036d8221e3a840a460eb838,2021-02-24_23h50.27.933,Colour_Similarity_Experiment,2020.2.10,Win32,60,6036d0d9a84aa1626184a6ef,13.82581019,99.63222143,13.41225427,13.35664099,13.33835159,34.93486707,,,,,,,,,,,,,,,,,,,,PF,strong,1,,,,,,,,5,2.262705,,,,,,,,,,,,,,,,,,,,,,,,,,,,4,strong,111.5,-61,1,0,0,response3disk,9,5,-5.5,0,1,0,0,rectangle,-5.5,0,1,0,0,,0,0,0.001025,-5.5,0,1,0,0,0,4,4,90,1,,,,,,,,,,,,,,,,,,,,,
,,,,,,,,,,,,,,,,,,,,,,,,,,,,,,,,,,,,,,,,,,5ea34f0a32a8c7116361d01d,6036d8221e3a840a460eb838,2021-02-24_23h50.27.933,Colour_Similarity_Experiment,2020.2.10,Win32,60,6036d0d9a84aa1626184a6ef,13.82581019,99.63222143,13.41225427,13.35664099,13.33835159,34.93486707,,,,,,,,,,,,,,,,,,,,PF,strong,1,,,,,,,,2,1.197265,,,,,,,,,,,,,,,,,,,,,,,,,,,,1,strong,-78.5,-38,1,0,0,response5disk,9,6,11.5,-7,1,0,0,rectangle,11.5,-7,1,0,0,,2,0,0.001145,11.5,-7,1,0,0,0,5,5,123,1,,,,,,,,,,,,,,,,,,,,,
,,,,,,,,,,,,,,,,,,,,,,,,,,,,,,,,,,,,,,,,,,5ea34f0a32a8c7116361d01d,6036d8221e3a840a460eb838,2021-02-24_23h50.27.933,Colour_Similarity_Experiment,2020.2.10,Win32,60,6036d0d9a84aa1626184a6ef,13.82581019,99.63222143,13.41225427,13.35664099,13.33835159,34.93486707,,,,,,,,,,,,,,,,,,,,PF,strong,1,,,,,,,,2,1.51549,,,,,,,,,,,,,,,,,,,,,,,,,,,,4,strong,-94.5,-61,1,0,0,response5disk,6,7,-4.5,2,1,0,0,rectangle,-4.5,2,1,0,0,,7,0,0.0008,-4.5,2,1,0,0,0,6,6,122,1,,,,,,,,,,,,,,,,,,,,,
,,,,,,,,,,,,,,,,,,,,,,,,,,,,,,,,,,,,,,,,,,5ea34f0a32a8c7116361d01d,6036d8221e3a840a460eb838,2021-02-24_23h50.27.933,Colour_Similarity_Experiment,2020.2.10,Win32,60,6036d0d9a84aa1626184a6ef,13.82581019,99.63222143,13.41225427,13.35664099,13.33835159,34.93486707,,,,,,,,,,,,,,,,,,,,PF,weak,1,,,,,,,,5,1.63746,,,,,,,,,,,,,,,,,,,,,,,,,,,,3,weak,114.5,-56,1,0,0,response3disk,9,8,7.5,-12,1,0,0,rectangle,7.5,-12,1,0,0,,2,0,0.00074,7.5,-12,1,0,0,0,7,7,79,1,,,,,,,,,,,,,,,,,,,,,
,,,,,,,,,,,,,,,,,,,,,,,,,,,,,,,,,,,,,,,,,,5ea34f0a32a8c7116361d01d,6036d8221e3a840a460eb838,2021-02-24_23h50.27.933,Colour_Similarity_Experiment,2020.2.10,Win32,60,6036d0d9a84aa1626184a6ef,13.82581019,99.63222143,13.41225427,13.35664099,13.33835159,34.93486707,,,,,,,,,,,,,,,,,,,,PF,weak,1,,,,,,,,7,1.379435,,,,,,,,,,,,,,,,,,,,,,,,,,,,2,weak,53.5,117,1,0,0,response1disk,7,9,1.5,-8,1,0,0,rectangle,1.5,-8,1,0,0,,0,0,0.00106,1.5,-8,1,0,0,0,8,8,107,1,,,,,,,,,,,,,,,,,,,,,
,,,,,,,,,,,,,,,,,,,,,,,,,,,,,,,,,,,,,,,,,,5ea34f0a32a8c7116361d01d,6036d8221e3a840a460eb838,2021-02-24_23h50.27.933,Colour_Similarity_Experiment,2020.2.10,Win32,60,6036d0d9a84aa1626184a6ef,13.82581019,99.63222143,13.41225427,13.35664099,13.33835159,34.93486707,,,,,,,,,,,,,,,,,,,,PF,weak,1,,,,,,,,2,1.67539,,,,,,,,,,,,,,,,,,,,,,,,,,,,7,weak,-92.5,-41,1,0,0,response5disk,3,10,-0.5,-13,1,0,0,rectangle,-0.5,-13,1,0,0,,3,0,0.001865,-0.5,-13,1,0,0,0,9,9,81,1,,,,,,,,,,,,,,,,,,,,,
,,,,,,,,,,,,,,,,,,,,,,,,,,,,,,,,,,,,,,,,,,5ea34f0a32a8c7116361d01d,6036d8221e3a840a460eb838,2021-02-24_23h50.27.933,Colour_Similarity_Experiment,2020.2.10,Win32,60,6036d0d9a84aa1626184a6ef,13.82581019,99.63222143,13.41225427,13.35664099,13.33835159,34.93486707,,,,,,,,,,,,,,,,,,,,PF,weak,1,,,,,,,,3,1.28967,,,,,,,,,,,,,,,,,,,,,,,,,,,,3,weak,-62.5,-95,1,0,0,response5disk,4,11,-1.5,3,1,0,0,rectangle,-1.5,3,1,0,0,,4,0,0.00096,-1.5,3,1,0,0,0,10,10,30,1,,,,,,,,,,,,,,,,,,,,,
,,,,,,,,,,,,,,,,,,,,,,,,,,,,,,,,,,,,,,,,,,5ea34f0a32a8c7116361d01d,6036d8221e3a840a460eb838,2021-02-24_23h50.27.933,Colour_Similarity_Experiment,2020.2.10,Win32,60,6036d0d9a84aa1626184a6ef,13.82581019,99.63222143,13.41225427,13.35664099,13.33835159,34.93486707,,,,,,,,,,,,,,,,,,,,PF,strong,1,,,,,,,,1,1.651345,,,,,,,,,,,,,,,,,,,,,,,,,,,,3,strong,-104.5,43,1,0,0,response7disk,4,12,-0.5,3,1,0,0,rectangle,-0.5,3,1,0,0,,2,0,0.000895,-0.5,3,1,0,0,0,11,11,110,1,,,,,,,,,,,,,,,,,,,,,
,,,,,,,,,,,,,,,,,,,,,,,,,,,,,,,,,,,,,,,,,,5ea34f0a32a8c7116361d01d,6036d8221e3a840a460eb838,2021-02-24_23h50.27.933,Colour_Similarity_Experiment,2020.2.10,Win32,60,6036d0d9a84aa1626184a6ef,13.82581019,99.63222143,13.41225427,13.35664099,13.33835159,34.93486707,,,,,,,,,,,,,,,,,,,,PF,weak,1,,,,,,,,7,9.18272,,,,,,,,,,,,,,,,,,,,,,,,,,,,7,weak,41.5,99,1,0,0,response1disk,5,13,-3.5,3,1,0,0,rectangle,-3.5,3,1,0,0,,0,0,0.0013,-3.5,3,1,0,0,0,12,12,92,1,,,,,,,,,,,,,,,,,,,,,
,,,,,,,,,,,,,,,,,,,,,,,,,,,,,,,,,,,,,,,,,,5ea34f0a32a8c7116361d01d,6036d8221e3a840a460eb838,2021-02-24_23h50.27.933,Colour_Similarity_Experiment,2020.2.10,Win32,60,6036d0d9a84aa1626184a6ef,13.82581019,99.63222143,13.41225427,13.35664099,13.33835159,34.93486707,,,,,,,,,,,,,,,,,,,,PF,strong,1,,,,,,,,2,6.076275,,,,,,,,,,,,,,,,,,,,,,,,,,,,5,strong,-94.5,-58,1,0,0,response5disk,4,14,-3.5,0,1,0,0,rectangle,-3.5,0,1,0,0,,4,0,0.001165,-3.5,0,1,0,0,0,13,13,8,1,,,,,,,,,,,,,,,,,,,,,
,,,,,,,,,,,,,,,,,,,,,,,,,,,,,,,,,,,,,,,,,,5ea34f0a32a8c7116361d01d,6036d8221e3a840a460eb838,2021-02-24_23h50.27.933,Colour_Similarity_Experiment,2020.2.10,Win32,60,6036d0d9a84aa1626184a6ef,13.82581019,99.63222143,13.41225427,13.35664099,13.33835159,34.93486707,,,,,,,,,,,,,,,,,,,,PF,weak,1,,,,,,,,2,3.17653,,,,,,,,,,,,,,,,,,,,,,,,,,,,3,weak,-111.5,-53,1,0,0,response5disk,5,15,1.5,-2,1,0,0,rectangle,1.5,-2,1,0,0,,3,0,0.00103,1.5,-2,1,0,0,0,14,14,66,1,,,,,,,,,,,,,,,,,,,,,
,,,,,,,,,,,,,,,,,,,,,,,,,,,,,,,,,,,,,,,,,,5ea34f0a32a8c7116361d01d,6036d8221e3a840a460eb838,2021-02-24_23h50.27.933,Colour_Similarity_Experiment,2020.2.10,Win32,60,6036d0d9a84aa1626184a6ef,13.82581019,99.63222143,13.41225427,13.35664099,13.33835159,34.93486707,,,,,,,,,,,,,,,,,,,,PF,strong,1,,,,,,,,5,1.957285,,,,,,,,,,,,,,,,,,,,,,,,,,,,6,strong,117.5,-49,1,0,0,response3disk,9,16,-19.5,7,1,0,0,rectangle,111.5,-34,1,0,0,5,5,1,1.187685,-6.5,12,1,0,0,0,15,15,160,1,response3disk_3,rectangle,,,,,,,,,,,,,,,,,,,
,,,,,,,,,,,,,,,,,,,,,,,,,,,,,,,,,,,,,,,,,,5ea34f0a32a8c7116361d01d,6036d8221e3a840a460eb838,2021-02-24_23h50.27.933,Colour_Similarity_Experiment,2020.2.10,Win32,60,6036d0d9a84aa1626184a6ef,13.82581019,99.63222143,13.41225427,13.35664099,13.33835159,34.93486707,,,,,,,,,,,,,,,,,,,,PF,weak,1,,,,,,,,5,1.436015,,,,,,,,,,,,,,,,,,,,,,,,,,,,6,weak,108.5,-79,1,0,0,response3disk,9,17,-15.5,13,1,0,0,rectangle,-15.5,13,1,0,0,5,2,0,0.001025,-15.5,13,1,0,0,0,16,16,45,1,,,,,,,,,,,,,,,,,,,,,
,,,,,,,,,,,,,,,,,,,,,,,,,,,,,,,,,,,,,,,,,,5ea34f0a32a8c7116361d01d,6036d8221e3a840a460eb838,2021-02-24_23h50.27.933,Colour_Similarity_Experiment,2020.2.10,Win32,60,6036d0d9a84aa1626184a6ef,13.82581019,99.63222143,13.41225427,13.35664099,13.33835159,34.93486707,,,,,,,,,,,,,,,,,,,,PF,strong,1,,,,,,,,2,2.17008,,,,,,,,,,,,,,,,,,,,,,,,,,,,6,strong,-117.5,-55,1,0,0,response5disk,8,18,1.5,2,1,0,0,rectangle,1.5,2,1,0,0,5,2,0,0.000165,1.5,2,1,0,0,0,17,17,133,1,,,,,,,,,,,,,,,,,,,,,
,,,,,,,,,,,,,,,,,,,,,,,,,,,,,,,,,,,,,,,,,,5ea34f0a32a8c7116361d01d,6036d8221e3a840a460eb838,2021-02-24_23h50.27.933,Colour_Similarity_Experiment,2020.2.10,Win32,60,6036d0d9a84aa1626184a6ef,13.82581019,99.63222143,13.41225427,13.35664099,13.33835159,34.93486707,,,,,,,,,,,,,,,,,,,,PF,weak,1,,,,,,,,7,1.142695,,,,,,,,,,,,,,,,,,,,,,,,,,,,1,weak,62.5,98,1,0,0,response1disk,7,19,2.5,-3,1,0,0,rectangle,2.5,-3,1,0,0,5,0,0,0.00076,2.5,-3,1,0,0,0,18,18,150,1,,,,,,,,,,,,,,,,,,,,,
,,,,,,,,,,,,,,,,,,,,,,,,,,,,,,,,,,,,,,,,,,5ea34f0a32a8c7116361d01d,6036d8221e3a840a460eb838,2021-02-24_23h50.27.933,Colour_Similarity_Experiment,2020.2.10,Win32,60,6036d0d9a84aa1626184a6ef,13.82581019,99.63222143,13.41225427,13.35664099,13.33835159,34.93486707,,,,,,,,,,,,,,,,,,,,PF,strong,1,,,,,,,,0,1.1559,,,,,,,,,,,,,,,,,,,,,,,,,,,,7,strong,-73.5,120,1,0,0,response7disk,7,20,4.5,3,1,0,0,rectangle,4.5,3,1,0,0,5,6,0,0.000825,4.5,3,1,0,0,0,19,19,34,1,,,,,,,,,,,,,,,,,,,,,
,,,,,,,,,,,,,,,,,,,,,,,,,,,,,,,,,,,,,,,,,,5ea34f0a32a8c7116361d01d,6036d8221e3a840a460eb838,2021-02-24_23h50.27.933,Colour_Similarity_Experiment,2020.2.10,Win32,60,6036d0d9a84aa1626184a6ef,13.82581019,99.63222143,13.41225427,13.35664099,13.33835159,34.93486707,,,,,,,,,,,,,,,,,,,,PF,strong,1,,,,,,,,3,21.993325,,,,,,,,,,,,,,,,,,,,,,,,,,,,4,strong,-52.5,-80,1,0,0,response5disk,7,21,-7.5,3,1,0,0,rectangle,-7.5,3,1,0,0,5,1,0,0.00079,-7.5,3,1,0,0,0,20,20,87,1,,,,,,,,,,,,,,,,,,,,,
,,,,,,,,,,,,,,,,,,,,,,,,,,,,,,,,,,,,,,,,,,5ea34f0a32a8c7116361d01d,6036d8221e3a840a460eb838,2021-02-24_23h50.27.933,Colour_Similarity_Experiment,2020.2.10,Win32,60,6036d0d9a84aa1626184a6ef,13.82581019,99.63222143,13.41225427,13.35664099,13.33835159,34.93486707,,,,,,,,,,,,,,,,,,,,PF,weak,1,,,,,,,,7,3.25039,,,,,,,,,,,,,,,,,,,,,,,,,,,,9,weak,64.5,127,1,0,0,response1disk,3,22,4.5,0,1,0,0,rectangle,4.5,0,1,0,0,5,4,0,0.00078,4.5,0,1,0,0,0,21,21,119,1,,,,,,,,,,,,,,,,,,,,,
,,,,,,,,,,,,,,,,,,,,,,,,,,,,,,,,,,,,,,,,,,5ea34f0a32a8c7116361d01d,6036d8221e3a840a460eb838,2021-02-24_23h50.27.933,Colour_Similarity_Experiment,2020.2.10,Win32,60,6036d0d9a84aa1626184a6ef,13.82581019,99.63222143,13.41225427,13.35664099,13.33835159,34.93486707,,,,,,,,,,,,,,,,,,,,PF,strong,1,,,,,,,,7,1.290685,,,,,,,,,,,,,,,,,,,,,,,,,,,,1,strong,50.5,120,1,0,0,response1disk,3,23,-8.5,3,1,0,0,rectangle,-8.5,3,1,0,0,5,7,0,0.00078,-8.5,3,1,0,0,0,22,22,99,1,,,,,,,,,,,,,,,,,,,,,
,,,,,,,,,,,,,,,,,,,,,,,,,,,,,,,,,,,,,,,,,,5ea34f0a32a8c7116361d01d,6036d8221e3a840a460eb838,2021-02-24_23h50.27.933,Colour_Similarity_Experiment,2020.2.10,Win32,60,6036d0d9a84aa1626184a6ef,13.82581019,99.63222143,13.41225427,13.35664099,13.33835159,34.93486707,,,,,,,,,,,,,,,,,,,,PF,weak,1,,,,,,,,5,1.744085,,,,,,,,,,,,,,,,,,,,,,,,,,,,5,weak,108.5,-45,1,0,0,response3disk,8,24,0.5,-11,1,0,0,rectangle,0.5,-11,1,0,0,5,4,0,0.000765,0.5,-11,1,0,0,0,23,23,149,1,,,,,,,,,,,,,,,,,,,,,
,,,,,,,,,,,,,,,,,,,,,,,,,,,,,,,,,,,,,,,,,,5ea34f0a32a8c7116361d01d,6036d8221e3a840a460eb838,2021-02-24_23h50.27.933,Colour_Similarity_Experiment,2020.2.10,Win32,60,6036d0d9a84aa1626184a6ef,13.82581019,99.63222143,13.41225427,13.35664099,13.33835159,34.93486707,,,,,,,,,,,,,,,,,,,,PF,weak,1,,,,,,,,3,4.43376,,,,,,,,,,,,,,,,,,,,,,,,,,,,7,weak,-62.5,-133,1,0,0,response5disk,4,25,12.5,8,1,0,0,rectangle,12.5,8,1,0,0,5,2,0,0.00084,12.5,8,1,0,0,0,24,24,43,1,,,,,,,,,,,,,,,,,,,,,
,,,,,,,,,,,,,,,,,,,,,,,,,,,,,,,,,,,,,,,,,,5ea34f0a32a8c7116361d01d,6036d8221e3a840a460eb838,2021-02-24_23h50.27.933,Colour_Similarity_Experiment,2020.2.10,Win32,60,6036d0d9a84aa1626184a6ef,13.82581019,99.63222143,13.41225427,13.35664099,13.33835159,34.93486707,,,,,,,,,,,,,,,,,,,,PF,weak,1,,,,,,,,7,1.450705,,,,,,,,,,,,,,,,,,,,,,,,,,,,2,weak,26.5,129,1,0,0,response1disk,5,26,10.5,-1,1,0,0,rectangle,10.5,-1,1,0,0,5,0,0,0.000765,10.5,-1,1,0,0,0,25,25,147,1,,,,,,,,,,,,,,,,,,,,,
,,,,,,,,,,,,,,,,,,,,,,,,,,,,,,,,,,,,,,,,,,5ea34f0a32a8c7116361d01d,6036d8221e3a840a460eb838,2021-02-24_23h50.27.933,Colour_Similarity_Experiment,2020.2.10,Win32,60,6036d0d9a84aa1626184a6ef,13.82581019,99.63222143,13.41225427,13.35664099,13.33835159,34.93486707,,,,,,,,,,,,,,,,,,,,PF,strong,1,,,,,,,,1,1.81032,,,,,,,,,,,,,,,,,,,,,,,,,,,,6,strong,-102.5,56,1,0,0,response7disk,5,27,5.5,-16,1,0,0,rectangle,5.5,-16,1,0,0,5,6,0,0.00069,5.5,-16,1,0,0,0,26,26,126,1,,,,,,,,,,,,,,,,,,,,,
,,,,,,,,,,,,,,,,,,,,,,,,,,,,,,,,,,,,,,,,,,5ea34f0a32a8c7116361d01d,6036d8221e3a840a460eb838,2021-02-24_23h50.27.933,Colour_Similarity_Experiment,2020.2.10,Win32,60,6036d0d9a84aa1626184a6ef,13.82581019,99.63222143,13.41225427,13.35664099,13.33835159,34.93486707,,,,,,,,,,,,,,,,,,,,PF,strong,1,,,,,,,,1,1.87645,,,,,,,,,,,,,,,,,,,,,,,,,,,,8,strong,-72.5,35,1,0,0,response7disk,4,28,0.5,-1,1,0,0,rectangle,0.5,-1,1,0,0,5,3,0,0.00095,0.5,-1,1,0,0,0,27,27,88,1,,,,,,,,,,,,,,,,,,,,,
,,,,,,,,,,,,,,,,,,,,,,,,,,,,,,,,,,,,,,,,,,5ea34f0a32a8c7116361d01d,6036d8221e3a840a460eb838,2021-02-24_23h50.27.933,Colour_Similarity_Experiment,2020.2.10,Win32,60,6036d0d9a84aa1626184a6ef,13.82581019,99.63222143,13.41225427,13.35664099,13.33835159,34.93486707,,,,,,,,,,,,,,,,,,,,PF,strong,1,,,,,,,,7,1.357305,,,,,,,,,,,,,,,,,,,,,,,,,,,,9,strong,38.5,64,1,0,0,response1disk,2,29,-0.5,-5,1,0,0,rectangle,-110.5,52,1,0,0,1,1,1,1.37398,-16.5,0,1,0,0,0,28,28,11,1,response7disk_3,rectangle,,,,,,,,,,,,,,,,,,,
,,,,,,,,,,,,,,,,,,,,,,,,,,,,,,,,,,,,,,,,,,5ea34f0a32a8c7116361d01d,6036d8221e3a840a460eb838,2021-02-24_23h50.27.933,Colour_Similarity_Experiment,2020.2.10,Win32,60,6036d0d9a84aa1626184a6ef,13.82581019,99.63222143,13.41225427,13.35664099,13.33835159,34.93486707,,,,,,,,,,,,,,,,,,,,PF,weak,1,,,,,,,,2,1.875365,,,,,,,,,,,,,,,,,,,,,,,,,,,,7,weak,-108.5,-49,1,0,0,response5disk,8,30,7.5,5,1,0,0,rectangle,7.5,5,1,0,0,1,5,0,0.00078,7.5,5,1,0,0,0,29,29,140,1,,,,,,,,,,,,,,,,,,,,,
,,,,,,,,,,,,,,,,,,,,,,,,,,,,,,,,,,,,,,,,,,5ea34f0a32a8c7116361d01d,6036d8221e3a840a460eb838,2021-02-24_23h50.27.933,Colour_Similarity_Experiment,2020.2.10,Win32,60,6036d0d9a84aa1626184a6ef,13.82581019,99.63222143,13.41225427,13.35664099,13.33835159,34.93486707,,,,,,,,,,,,,,,,,,,,PF,strong,1,,,,,,,,0,1.33954,,,,,,,,,,,,,,,,,,,,,,,,,,,,5,strong,-50.5,133,1,0,0,response7disk,5,31,5.5,-4,1,0,0,rectangle,5.5,-4,1,0,0,1,2,0,0.000835,5.5,-4,1,0,0,0,30,30,19,1,,,,,,,,,,,,,,,,,,,,,
,,,,,,,,,,,,,,,,,,,,,,,,,,,,,,,,,,,,,,,,,,5ea34f0a32a8c7116361d01d,6036d8221e3a840a460eb838,2021-02-24_23h50.27.933,Colour_Similarity_Experiment,2020.2.10,Win32,60,6036d0d9a84aa1626184a6ef,13.82581019,99.63222143,13.41225427,13.35664099,13.33835159,34.93486707,,,,,,,,,,,,,,,,,,,,PF,strong,1,,,,,,,,2,1.39654,,,,,,,,,,,,,,,,,,,,,,,,,,,,7,strong,-120.5,-51,1,0,0,response5disk,5,32,6.5,0,1,0,0,rectangle,6.5,0,1,0,0,1,3,0,0.000945,6.5,0,1,0,0,0,31,31,156,1,,,,,,,,,,,,,,,,,,,,,
,,,,,,,,,,,,,,,,,,,,,,,,,,,,,,,,,,,,,,,,,,5ea34f0a32a8c7116361d01d,6036d8221e3a840a460eb838,2021-02-24_23h50.27.933,Colour_Similarity_Experiment,2020.2.10,Win32,60,6036d0d9a84aa1626184a6ef,13.82581019,99.63222143,13.41225427,13.35664099,13.33835159,34.93486707,,,,,,,,,,,,,,,,,,,,PF,strong,1,,,,,,,,5,4.77519,,,,,,,,,,,,,,,,,,,,,,,,,,,,4,strong,92.5,-57,1,0,0,response3disk,8,33,-6.5,0,1,0,0,rectangle,-6.5,0,1,0,0,1,5,0,0.001745,-6.5,0,1,0,0,0,32,32,35,1,,,,,,,,,,,,,,,,,,,,,
,,,,,,,,,,,,,,,,,,,,,,,,,,,,,,,,,,,,,,,,,,5ea34f0a32a8c7116361d01d,6036d8221e3a840a460eb838,2021-02-24_23h50.27.933,Colour_Similarity_Experiment,2020.2.10,Win32,60,6036d0d9a84aa1626184a6ef,13.82581019,99.63222143,13.41225427,13.35664099,13.33835159,34.93486707,,,,,,,,,,,,,,,,,,,,PF,weak,1,,,,,,,,5,1.021985,,,,,,,,,,,,,,,,,,,,,,,,,,,,4,weak,83.5,-43,1,0,0,response3disk,8,34,-26.5,8,1,0,0,rectangle,-26.5,8,1,0,0,1,4,0,0.000895,-26.5,8,1,0,0,0,33,33,124,1,,,,,,,,,,,,,,,,,,,,,
,,,,,,,,,,,,,,,,,,,,,,,,,,,,,,,,,,,,,,,,,,5ea34f0a32a8c7116361d01d,6036d8221e3a840a460eb838,2021-02-24_23h50.27.933,Colour_Similarity_Experiment,2020.2.10,Win32,60,6036d0d9a84aa1626184a6ef,13.82581019,99.63222143,13.41225427,13.35664099,13.33835159,34.93486707,,,,,,,,,,,,,,,,,,,,PF,weak,1,,,,,,,,4,1.958005,,,,,,,,,,,,,,,,,,,,,,,,,,,,6,weak,50.5,-111,1,0,0,response3disk,5,35,-11.5,-7,1,0,0,rectangle,-11.5,-7,1,0,0,1,4,0,0.00013,-11.5,-7,1,0,0,0,34,34,59,1,,,,,,,,,,,,,,,,,,,,,
,,,,,,,,,,,,,,,,,,,,,,,,,,,,,,,,,,,,,,,,,,5ea34f0a32a8c7116361d01d,6036d8221e3a840a460eb838,2021-02-24_23h50.27.933,Colour_Similarity_Experiment,2020.2.10,Win32,60,6036d0d9a84aa1626184a6ef,13.82581019,99.63222143,13.41225427,13.35664099,13.33835159,34.93486707,,,,,,,,,,,,,,,,,,,,PF,strong,1,,,,,,,,4,2.52158,,,,,,,,,,,,,,,,,,,,,,,,,,,,2,strong,78.5,-128,1,0,0,response3disk,8,36,4.5,14,1,0,0,rectangle,4.5,14,1,0,0,1,6,0,0.000765,4.5,14,1,0,0,0,35,35,62,1,,,,,,,,,,,,,,,,,,,,,
,,,,,,,,,,,,,,,,,,,,,,,,,,,,,,,,,,,,,,,,,,5ea34f0a32a8c7116361d01d,6036d8221e3a840a460eb838,2021-02-24_23h50.27.933,Colour_Similarity_Experiment,2020.2.10,Win32,60,6036d0d9a84aa1626184a6ef,13.82581019,99.63222143,13.41225427,13.35664099,13.33835159,34.93486707,,,,,,,,,,,,,,,,,,,,PF,strong,1,,,,,,,,0,1.242725,,,,,,,,,,,,,,,,,,,,,,,,,,,,6,strong,-56.5,110,1,0,0,response7disk,6,37,7.5,0,1,0,0,rectangle,7.5,0,1,0,0,1,1,0,0.000815,7.5,0,1,0,0,0,36,36,91,1,,,,,,,,,,,,,,,,,,,,,
,,,,,,,,,,,,,,,,,,,,,,,,,,,,,,,,,,,,,,,,,,5ea34f0a32a8c7116361d01d,6036d8221e3a840a460eb838,2021-02-24_23h50.27.933,Colour_Similarity_Experiment,2020.2.10,Win32,60,6036d0d9a84aa1626184a6ef,13.82581019,99.63222143,13.41225427,13.35664099,13.33835159,34.93486707,,,,,,,,,,,,,,,,,,,,PF,strong,1,,,,,,,,7,0.92748,,,,,,,,,,,,,,,,,,,,,,,,,,,,5,strong,47.5,88,1,0,0,response1disk,1,38,-2.5,0,1,0,0,rectangle,-2.5,0,1,0,0,1,7,0,0.000935,-2.5,0,1,0,0,0,37,37,131,1,,,,,,,,,,,,,,,,,,,,,
,,,,,,,,,,,,,,,,,,,,,,,,,,,,,,,,,,,,,,,,,,5ea34f0a32a8c7116361d01d,6036d8221e3a840a460eb838,2021-02-24_23h50.27.933,Colour_Similarity_Experiment,2020.2.10,Win32,60,6036d0d9a84aa1626184a6ef,13.82581019,99.63222143,13.41225427,13.35664099,13.33835159,34.93486707,,,,,,,,,,,,,,,,,,,,PF,weak,1,,,,,,,,7,0.704205,,,,,,,,,,,,,,,,,,,,,,,,,,,,6,weak,47.5,104,1,0,0,response1disk,1,39,6.5,2,1,0,0,rectangle,6.5,2,1,0,0,1,3,0,0.00074,6.5,2,1,0,0,0,38,38,46,1,,,,,,,,,,,,,,,,,,,,,
,,,,,,,,,,,,,,,,,,,,,,,,,,,,,,,,,,,,,,,,,,5ea34f0a32a8c7116361d01d,6036d8221e3a840a460eb838,2021-02-24_23h50.27.933,Colour_Similarity_Experiment,2020.2.10,Win32,60,6036d0d9a84aa1626184a6ef,13.82581019,99.63222143,13.41225427,13.35664099,13.33835159,34.93486707,,,,,,,,,,,,,,,,,,,,PF,weak,1,,,,,,,,5,1.93127,,,,,,,,,,,,,,,,,,,,,,,,,,,,9,weak,92.5,-50,1,0,0,response3disk,4,40,-13.5,16,1,0,0,rectangle,-13.5,16,1,0,0,1,2,0,0.00081,-13.5,16,1,0,0,0,39,39,114,1,,,,,,,,,,,,,,,,,,,,,
,,,,,,,,,,,,,,,,,,,,,,,,,,,,,,,,,,,,,,,,,,5ea34f0a32a8c7116361d01d,6036d8221e3a840a460eb838,2021-02-24_23h50.27.933,Colour_Similarity_Experiment,2020.2.10,Win32,60,6036d0d9a84aa1626184a6ef,13.82581019,99.63222143,13.41225427,13.35664099,13.33835159,34.93486707,,,,,,,,,,,,,,,,,,,,PF,strong,1,,,,,,,,7,2.4469,,,,,,,,,,,,,,,,,,,,,,,,,,,,2,strong,44.5,110,1,0,0,response1disk,6,41,6.5,-3,1,0,0,rectangle,6.5,-3,1,0,0,1,7,0,0.000735,6.5,-3,1,0,0,0,40,40,40,1,,,,,,,,,,,,,,,,,,,,,
,,,,,,,,,,,,,,,,,,,,,,,,,,,,,,,,,,,,,,,,,,5ea34f0a32a8c7116361d01d,6036d8221e3a840a460eb838,2021-02-24_23h50.27.933,Colour_Similarity_Experiment,2020.2.10,Win32,60,6036d0d9a84aa1626184a6ef,13.82581019,99.63222143,13.41225427,13.35664099,13.33835159,34.93486707,,,,,,,,,,,,,,,,,,,,PF,strong,1,,,,,,,,5,3.68487,,,,,,,,,,,,,,,,,,,,,,,,,,,,7,strong,124.5,-67,1,0,0,response3disk,9,42,7.5,6,1,0,0,rectangle,7.5,6,1,0,0,1,7,0,0.000405,7.5,6,1,0,0,0,41,41,155,1,,,,,,,,,,,,,,,,,,,,,
,,,,,,,,,,,,,,,,,,,,,,,,,,,,,,,,,,,,,,,,,,5ea34f0a32a8c7116361d01d,6036d8221e3a840a460eb838,2021-02-24_23h50.27.933,Colour_Similarity_Experiment,2020.2.10,Win32,60,6036d0d9a84aa1626184a6ef,13.82581019,99.63222143,13.41225427,13.35664099,13.33835159,34.93486707,,,,,,,,,,,,,,,,,,,,PF,strong,1,,,,,,,,1,1.771875,,,,,,,,,,,,,,,,,,,,,,,,,,,,7,strong,-118.5,37,1,0,0,response7disk,6,43,0.5,-4,1,0,0,rectangle,0.5,-4,1,0,0,1,7,0,0.000465,0.5,-4,1,0,0,0,42,42,31,1,,,,,,,,,,,,,,,,,,,,,
,,,,,,,,,,,,,,,,,,,,,,,,,,,,,,,,,,,,,,,,,,5ea34f0a32a8c7116361d01d,6036d8221e3a840a460eb838,2021-02-24_23h50.27.933,Colour_Similarity_Experiment,2020.2.10,Win32,60,6036d0d9a84aa1626184a6ef,13.82581019,99.63222143,13.41225427,13.35664099,13.33835159,34.93486707,,,,,,,,,,,,,,,,,,,,PF,strong,1,,,,,,,,2,1.18458,,,,,,,,,,,,,,,,,,,,,,,,,,,,4,strong,-89.5,-43,1,0,0,response5disk,3,44,0.5,-3,1,0,0,rectangle,0.5,-3,1,0,0,1,6,0,0.00082,0.5,-3,1,0,0,0,43,43,77,1,,,,,,,,,,,,,,,,,,,,,
,,,,,,,,,,,,,,,,,,,,,,,,,,,,,,,,,,,,,,,,,,5ea34f0a32a8c7116361d01d,6036d8221e3a840a460eb838,2021-02-24_23h50.27.933,Colour_Similarity_Experiment,2020.2.10,Win32,60,6036d0d9a84aa1626184a6ef,13.82581019,99.63222143,13.41225427,13.35664099,13.33835159,34.93486707,,,,,,,,,,,,,,,,,,,,PF,weak,1,,,,,,,,0,1.276295,,,,,,,,,,,,,,,,,,,,,,,,,,,,2,weak,-73.5,78,1,0,0,response7disk,2,45,-30.5,-12,1,0,0,rectangle,-30.5,-12,1,0,0,1,1,0,0.000785,-30.5,-12,1,0,0,0,44,44,14,1,,,,,,,,,,,,,,,,,,,,,
,,,,,,,,,,,,,,,,,,,,,,,,,,,,,,,,,,,,,,,,,,5ea34f0a32a8c7116361d01d,6036d8221e3a840a460eb838,2021-02-24_23h50.27.933,Colour_Similarity_Experiment,2020.2.10,Win32,60,6036d0d9a84aa1626184a6ef,13.82581019,99.63222143,13.41225427,13.35664099,13.33835159,34.93486707,,,,,,,,,,,,,,,,,,,,PF,weak,1,,,,,,,,7,1.38519,,,,,,,,,,,,,,,,,,,,,,,,,,,,7,weak,51.5,114,1,0,0,response1disk,1,46,-4.5,12,1,0,0,rectangle,-4.5,12,1,0,0,1,1,0,0.00016,-4.5,12,1,0,0,0,45,45,53,1,,,,,,,,,,,,,,,,,,,,,
,,,,,,,,,,,,,,,,,,,,,,,,,,,,,,,,,,,,,,,,,,5ea34f0a32a8c7116361d01d,6036d8221e3a840a460eb838,2021-02-24_23h50.27.933,Colour_Similarity_Experiment,2020.2.10,Win32,60,6036d0d9a84aa1626184a6ef,13.82581019,99.63222143,13.41225427,13.35664099,13.33835159,34.93486707,,,,,,,,,,,,,,,,,,,,PF,strong,1,,,,,,,,3,2.288765,,,,,,,,,,,,,,,,,,,,,,,,,,,,4,strong,-81.5,-146,1,0,0,response5disk,2,47,10.5,4,1,0,0,rectangle,10.5,4,1,0,0,1,3,0,0.0007,10.5,4,1,0,0,0,46,46,13,1,,,,,,,,,,,,,,,,,,,,,
,,,,,,,,,,,,,,,,,,,,,,,,,,,,,,,,,,,,,,,,,,5ea34f0a32a8c7116361d01d,6036d8221e3a840a460eb838,2021-02-24_23h50.27.933,Colour_Similarity_Experiment,2020.2.10,Win32,60,6036d0d9a84aa1626184a6ef,13.82581019,99.63222143,13.41225427,13.35664099,13.33835159,34.93486707,,,,,,,,,,,,,,,,,,,,PF,strong,1,,,,,,,,2,1.611,,,,,,,,,,,,,,,,,,,,,,,,,,,,8,strong,-114.5,-62,1,0,0,response5disk,1,48,-1.5,-6,1,0,0,rectangle,-1.5,-6,1,0,0,1,5,0,0.00122,-1.5,-6,1,0,0,0,47,47,20,1,,,,,,,,,,,,,,,,,,,,,
,,,,,,,,,,,,,,,,,,,,,,,,,,,,,,,,,,,,,,,,,,5ea34f0a32a8c7116361d01d,6036d8221e3a840a460eb838,2021-02-24_23h50.27.933,Colour_Similarity_Experiment,2020.2.10,Win32,60,6036d0d9a84aa1626184a6ef,13.82581019,99.63222143,13.41225427,13.35664099,13.33835159,34.93486707,,,,,,,,,,,,,,,,,,,,PF,weak,1,,,,,,,,5,2.10051,,,,,,,,,,,,,,,,,,,,,,,,,,,,8,weak,130.5,-69,1,0,0,response3disk,2,49,-3.5,-2,1,0,0,rectangle,-3.5,-2,1,0,0,1,4,0,0.00085,-3.5,-2,1,0,0,0,48,48,83,1,,,,,,,,,,,,,,,,,,,,,
,,,,,,,,,,,,,,,,,,,,,,,,,,,,,,,,,,,,,,,,,,5ea34f0a32a8c7116361d01d,6036d8221e3a840a460eb838,2021-02-24_23h50.27.933,Colour_Similarity_Experiment,2020.2.10,Win32,60,6036d0d9a84aa1626184a6ef,13.82581019,99.63222143,13.41225427,13.35664099,13.33835159,34.93486707,,,,,,,,,,,,,,,,,,,,PF,weak,1,,,,,,,,4,1.31324,,,,,,,,,,,,,,,,,,,,,,,,,,,,8,weak,39.5,-109,1,0,0,response3disk,3,50,-8.5,13,1,0,0,rectangle,-8.5,13,1,0,0,1,1,0,0.00069,-8.5,13,1,0,0,0,49,49,71,1,,,,,,,,,,,,,,,,,,,,,
,,,,,,,,,,,,,,,,,,,,,,,,,,,,,,,,,,,,,,,,,,5ea34f0a32a8c7116361d01d,6036d8221e3a840a460eb838,2021-02-24_23h50.27.933,Colour_Similarity_Experiment,2020.2.10,Win32,60,6036d0d9a84aa1626184a6ef,13.82581019,99.63222143,13.41225427,13.35664099,13.33835159,34.93486707,,,,,,,,,,,,,,,,,,,,PF,weak,1,,,,,,,,3,2.772775,,,,,,,,,,,,,,,,,,,,,,,,,,,,1,weak,-48.5,-120,1,0,0,response5disk,9,51,9.5,-4,1,0,0,rectangle,9.5,-4,1,0,0,1,2,0,0.001135,9.5,-4,1,0,0,0,50,50,15,1,,,,,,,,,,,,,,,,,,,,,
,,,,,,,,,,,,,,,,,,,,,,,,,,,,,,,,,,,,,,,,,,5ea34f0a32a8c7116361d01d,6036d8221e3a840a460eb838,2021-02-24_23h50.27.933,Colour_Similarity_Experiment,2020.2.10,Win32,60,6036d0d9a84aa1626184a6ef,13.82581019,99.63222143,13.41225427,13.35664099,13.33835159,34.93486707,,,,,,,,,,,,,,,,,,,,PF,strong,1,,,,,,,,7,0.964995,,,,,,,,,,,,,,,,,,,,,,,,,,,,6,strong,50.5,98,1,0,0,response1disk,1,52,9.5,-13,1,0,0,rectangle,9.5,-13,1,0,0,1,7,0,0.00089,9.5,-13,1,0,0,0,51,51,5,1,,,,,,,,,,,,,,,,,,,,,
,,,,,,,,,,,,,,,,,,,,,,,,,,,,,,,,,,,,,,,,,,5ea34f0a32a8c7116361d01d,6036d8221e3a840a460eb838,2021-02-24_23h50.27.933,Colour_Similarity_Experiment,2020.2.10,Win32,60,6036d0d9a84aa1626184a6ef,13.82581019,99.63222143,13.41225427,13.35664099,13.33835159,34.93486707,,,,,,,,,,,,,,,,,,,,PF,strong,1,,,,,,,,2,1.94243,,,,,,,,,,,,,,,,,,,,,,,,,,,,5,strong,-112.5,-61,1,0,0,response5disk,7,53,-21.5,19,1,0,0,rectangle,-21.5,19,1,0,0,1,2,0,0.000695,-21.5,19,1,0,0,0,52,52,7,1,,,,,,,,,,,,,,,,,,,,,
,,,,,,,,,,,,,,,,,,,,,,,,,,,,,,,,,,,,,,,,,,5ea34f0a32a8c7116361d01d,6036d8221e3a840a460eb838,2021-02-24_23h50.27.933,Colour_Similarity_Experiment,2020.2.10,Win32,60,6036d0d9a84aa1626184a6ef,13.82581019,99.63222143,13.41225427,13.35664099,13.33835159,34.93486707,,,,,,,,,,,,,,,,,,,,PF,weak,1,,,,,,,,7,0.957035,,,,,,,,,,,,,,,,,,,,,,,,,,,,5,weak,39.5,111,1,0,0,response1disk,9,54,-0.5,-2,1,0,0,rectangle,-120.5,-64,1,0,0,1,2,1,1.815495,2.5,-4,1,0,0,0,53,53,136,1,response5disk_3,rectangle,,,,,,,,,,,,,,,,,,,
,,,,,,,,,,,,,,,,,,,,,,,,,,,,,,,,,,,,,,,,,,5ea34f0a32a8c7116361d01d,6036d8221e3a840a460eb838,2021-02-24_23h50.27.933,Colour_Similarity_Experiment,2020.2.10,Win32,60,6036d0d9a84aa1626184a6ef,13.82581019,99.63222143,13.41225427,13.35664099,13.33835159,34.93486707,,,,,,,,,,,,,,,,,,,,PF,strong,1,,,,,,,,0,0.91805,,,,,,,,,,,,,,,,,,,,,,,,,,,,8,strong,-68.5,143,1,0,0,response7disk,9,55,-0.5,-7,1,0,0,rectangle,-0.5,-7,1,0,0,1,1,0,0.000975,-0.5,-7,1,0,0,0,54,54,105,1,,,,,,,,,,,,,,,,,,,,,
,,,,,,,,,,,,,,,,,,,,,,,,,,,,,,,,,,,,,,,,,,5ea34f0a32a8c7116361d01d,6036d8221e3a840a460eb838,2021-02-24_23h50.27.933,Colour_Similarity_Experiment,2020.2.10,Win32,60,6036d0d9a84aa1626184a6ef,13.82581019,99.63222143,13.41225427,13.35664099,13.33835159,34.93486707,,,,,,,,,,,,,,,,,,,,PF,weak,1,,,,,,,,2,1.729005,,,,,,,,,,,,,,,,,,,,,,,,,,,,4,weak,-106.5,-35,1,0,0,response5disk,5,56,-5.5,7,1,0,0,rectangle,-5.5,7,1,0,0,1,1,0,0.000395,-5.5,7,1,0,0,0,55,55,49,1,,,,,,,,,,,,,,,,,,,,,
,,,,,,,,,,,,,,,,,,,,,,,,,,,,,,,,,,,,,,,,,,5ea34f0a32a8c7116361d01d,6036d8221e3a840a460eb838,2021-02-24_23h50.27.933,Colour_Similarity_Experiment,2020.2.10,Win32,60,6036d0d9a84aa1626184a6ef,13.82581019,99.63222143,13.41225427,13.35664099,13.33835159,34.93486707,,,,,,,,,,,,,,,,,,,,PF,strong,1,,,,,,,,4,1.86228,,,,,,,,,,,,,,,,,,,,,,,,,,,,9,strong,47.5,-112,1,0,0,response3disk,4,57,-11.5,1,1,0,0,rectangle,-11.5,1,1,0,0,1,1,0,0.00013,-11.5,1,1,0,0,0,56,56,60,1,,,,,,,,,,,,,,,,,,,,,
,,,,,,,,,,,,,,,,,,,,,,,,,,,,,,,,,,,,,,,,,,5ea34f0a32a8c7116361d01d,6036d8221e3a840a460eb838,2021-02-24_23h50.27.933,Colour_Similarity_Experiment,2020.2.10,Win32,60,6036d0d9a84aa1626184a6ef,13.82581019,99.63222143,13.41225427,13.35664099,13.33835159,34.93486707,,,,,,,,,,,,,,,,,,,,PF,weak,1,,,,,,,,7,1.572245,,,,,,,,,,,,,,,,,,,,,,,,,,,,3,weak,30.5,97,1,0,0,response1disk,1,58,1.5,-9,1,0,0,rectangle,1.5,-9,1,0,0,1,7,0,0.000765,1.5,-9,1,0,0,0,57,57,96,1,,,,,,,,,,,,,,,,,,,,,
,,,,,,,,,,,,,,,,,,,,,,,,,,,,,,,,,,,,,,,,,,5ea34f0a32a8c7116361d01d,6036d8221e3a840a460eb838,2021-02-24_23h50.27.933,Colour_Similarity_Experiment,2020.2.10,Win32,60,6036d0d9a84aa1626184a6ef,13.82581019,99.63222143,13.41225427,13.35664099,13.33835159,34.93486707,,,,,,,,,,,,,,,,,,,,PF,weak,1,,,,,,,,5,1.52966,,,,,,,,,,,,,,,,,,,,,,,,,,,,4,weak,101.5,-41,1,0,0,response3disk,2,59,2.5,7,1,0,0,rectangle,2.5,7,1,0,0,1,4,0,0.00076,2.5,7,1,0,0,0,58,58,108,1,,,,,,,,,,,,,,,,,,,,,
,,,,,,,,,,,,,,,,,,,,,,,,,,,,,,,,,,,,,,,,,,5ea34f0a32a8c7116361d01d,6036d8221e3a840a460eb838,2021-02-24_23h50.27.933,Colour_Similarity_Experiment,2020.2.10,Win32,60,6036d0d9a84aa1626184a6ef,13.82581019,99.63222143,13.41225427,13.35664099,13.33835159,34.93486707,,,,,,,,,,,,,,,,,,,,PF,strong,1,,,,,,,,2,1.438425,,,,,,,,,,,,,,,,,,,,,,,,,,,,9,strong,-105.5,-29,1,0,0,response5disk,1,60,-3.5,5,1,0,0,rectangle,-3.5,5,1,0,0,1,2,0,0.00086,-3.5,5,1,0,0,0,59,59,111,1,,,,,,,,,,,,,,,,,,,,,
,,,,,,,,,,,,,,,,,,,,,,,,,,,,,,,,,,,,,,,,,,5ea34f0a32a8c7116361d01d,6036d8221e3a840a460eb838,2021-02-24_23h50.27.933,Colour_Similarity_Experiment,2020.2.10,Win32,60,6036d0d9a84aa1626184a6ef,13.82581019,99.63222143,13.41225427,13.35664099,13.33835159,34.93486707,,,,,,,,,,,,,,,,,,,,PF,weak,1,,,,,,,,4,2.317185,,,,,,,,,,,,,,,,,,,,,,,,,,,,6,weak,45.5,-112,1,0,0,response3disk,4,61,11.5,2,1,0,0,rectangle,11.5,2,1,0,0,1,7,0,0.00081,11.5,2,1,0,0,0,60,60,33,1,,,,,,,,,,,,,,,,,,,,,
,,,,,,,,,,,,,,,,,,,,,,,,,,,,,,,,,,,,,,,,,,5ea34f0a32a8c7116361d01d,6036d8221e3a840a460eb838,2021-02-24_23h50.27.933,Colour_Similarity_Experiment,2020.2.10,Win32,60,6036d0d9a84aa1626184a6ef,13.82581019,99.63222143,13.41225427,13.35664099,13.33835159,34.93486707,,,,,,,,,,,,,,,,,,,,PF,weak,1,,,,,,,,0,0.797155,,,,,,,,,,,,,,,,,,,,,,,,,,,,4,weak,-36.5,105,1,0,0,response7disk,4,62,-11.5,6,1,0,0,rectangle,-11.5,6,1,0,0,1,4,0,0.001765,-11.5,6,1,0,0,0,61,61,70,1,,,,,,,,,,,,,,,,,,,,,
,,,,,,,,,,,,,,,,,,,,,,,,,,,,,,,,,,,,,,,,,,5ea34f0a32a8c7116361d01d,6036d8221e3a840a460eb838,2021-02-24_23h50.27.933,Colour_Similarity_Experiment,2020.2.10,Win32,60,6036d0d9a84aa1626184a6ef,13.82581019,99.63222143,13.41225427,13.35664099,13.33835159,34.93486707,,,,,,,,,,,,,,,,,,,,PF,weak,1,,,,,,,,0,0.955965,,,,,,,,,,,,,,,,,,,,,,,,,,,,4,weak,-60.5,111,1,0,0,response7disk,3,63,-10.5,6,1,0,0,rectangle,-10.5,6,1,0,0,1,5,0,0.00088,-10.5,6,1,0,0,0,62,62,89,1,,,,,,,,,,,,,,,,,,,,,
,,,,,,,,,,,,,,,,,,,,,,,,,,,,,,,,,,,,,,,,,,5ea34f0a32a8c7116361d01d,6036d8221e3a840a460eb838,2021-02-24_23h50.27.933,Colour_Similarity_Experiment,2020.2.10,Win32,60,6036d0d9a84aa1626184a6ef,13.82581019,99.63222143,13.41225427,13.35664099,13.33835159,34.93486707,,,,,,,,,,,,,,,,,,,,PF,weak,1,,,,,,,,2,2.88167,,,,,,,,,,,,,,,,,,,,,,,,,,,,8,weak,-119.5,-44,1,0,0,response5disk,7,64,-2.5,2,1,0,0,rectangle,-2.5,2,1,0,0,1,5,0,0.00026,-2.5,2,1,0,0,0,63,63,23,1,,,,,,,,,,,,,,,,,,,,,
,,,,,,,,,,,,,,,,,,,,,,,,,,,,,,,,,,,,,,,,,,5ea34f0a32a8c7116361d01d,6036d8221e3a840a460eb838,2021-02-24_23h50.27.933,Colour_Similarity_Experiment,2020.2.10,Win32,60,6036d0d9a84aa1626184a6ef,13.82581019,99.63222143,13.41225427,13.35664099,13.33835159,34.93486707,,,,,,,,,,,,,,,,,,,,PF,weak,1,,,,,,,,5,1.10457,,,,,,,,,,,,,,,,,,,,,,,,,,,,2,weak,100.5,-51,1,0,0,response3disk,9,65,-0.5,-10,1,0,0,rectangle,-0.5,-10,1,0,0,1,3,0,0.000705,-0.5,-10,1,0,0,0,64,64,39,1,,,,,,,,,,,,,,,,,,,,,
,,,,,,,,,,,,,,,,,,,,,,,,,,,,,,,,,,,,,,,,,,5ea34f0a32a8c7116361d01d,6036d8221e3a840a460eb838,2021-02-24_23h50.27.933,Colour_Similarity_Experiment,2020.2.10,Win32,60,6036d0d9a84aa1626184a6ef,13.82581019,99.63222143,13.41225427,13.35664099,13.33835159,34.93486707,,,,,,,,,,,,,,,,,,,,PF,weak,1,,,,,,,,5,1.30601,,,,,,,,,,,,,,,,,,,,,,,,,,,,3,weak,118.5,-52,1,0,0,response3disk,7,66,-3.5,3,1,0,0,rectangle,-3.5,3,1,0,0,1,7,0,0.001275,-3.5,3,1,0,0,0,65,65,41,1,,,,,,,,,,,,,,,,,,,,,
,,,,,,,,,,,,,,,,,,,,,,,,,,,,,,,,,,,,,,,,,,5ea34f0a32a8c7116361d01d,6036d8221e3a840a460eb838,2021-02-24_23h50.27.933,Colour_Similarity_Experiment,2020.2.10,Win32,60,6036d0d9a84aa1626184a6ef,13.82581019,99.63222143,13.41225427,13.35664099,13.33835159,34.93486707,,,,,,,,,,,,,,,,,,,,PF,weak,1,,,,,,,,4,2.14267,,,,,,,,,,,,,,,,,,,,,,,,,,,,9,weak,42.5,-101,1,0,0,response3disk,2,67,-9.5,12,1,0,0,rectangle,-9.5,12,1,0,0,1,6,0,0.00074,-9.5,12,1,0,0,0,66,66,157,1,,,,,,,,,,,,,,,,,,,,,
,,,,,,,,,,,,,,,,,,,,,,,,,,,,,,,,,,,,,,,,,,5ea34f0a32a8c7116361d01d,6036d8221e3a840a460eb838,2021-02-24_23h50.27.933,Colour_Similarity_Experiment,2020.2.10,Win32,60,6036d0d9a84aa1626184a6ef,13.82581019,99.63222143,13.41225427,13.35664099,13.33835159,34.93486707,,,,,,,,,,,,,,,,,,,,PF,weak,1,,,,,,,,0,0.86214,,,,,,,,,,,,,,,,,,,,,,,,,,,,9,weak,-48.5,104,1,0,0,response7disk,9,68,9.5,-18,1,0,0,rectangle,9.5,-18,1,0,0,1,4,0,0.000825,9.5,-18,1,0,0,0,67,67,106,1,,,,,,,,,,,,,,,,,,,,,
,,,,,,,,,,,,,,,,,,,,,,,,,,,,,,,,,,,,,,,,,,5ea34f0a32a8c7116361d01d,6036d8221e3a840a460eb838,2021-02-24_23h50.27.933,Colour_Similarity_Experiment,2020.2.10,Win32,60,6036d0d9a84aa1626184a6ef,13.82581019,99.63222143,13.41225427,13.35664099,13.33835159,34.93486707,,,,,,,,,,,,,,,,,,,,PF,weak,1,,,,,,,,1,1.170805,,,,,,,,,,,,,,,,,,,,,,,,,,,,5,weak,-115.5,45,1,0,0,response7disk,4,69,0.5,-10,1,0,0,rectangle,0.5,-10,1,0,0,1,7,0,0.00083,0.5,-10,1,0,0,0,68,68,54,1,,,,,,,,,,,,,,,,,,,,,
,,,,,,,,,,,,,,,,,,,,,,,,,,,,,,,,,,,,,,,,,,5ea34f0a32a8c7116361d01d,6036d8221e3a840a460eb838,2021-02-24_23h50.27.933,Colour_Similarity_Experiment,2020.2.10,Win32,60,6036d0d9a84aa1626184a6ef,13.82581019,99.63222143,13.41225427,13.35664099,13.33835159,34.93486707,,,,,,,,,,,,,,,,,,,,PF,strong,1,,,,,,,,2,1.22507,,,,,,,,,,,,,,,,,,,,,,,,,,,,6,strong,-91.5,-56,1,0,0,response5disk,3,70,-6.5,-14,1,0,0,rectangle,-6.5,-14,1,0,0,1,3,0,0.0008,-6.5,-14,1,0,0,0,69,69,21,1,,,,,,,,,,,,,,,,,,,,,
,,,,,,,,,,,,,,,,,,,,,,,,,,,,,,,,,,,,,,,,,,5ea34f0a32a8c7116361d01d,6036d8221e3a840a460eb838,2021-02-24_23h50.27.933,Colour_Similarity_Experiment,2020.2.10,Win32,60,6036d0d9a84aa1626184a6ef,13.82581019,99.63222143,13.41225427,13.35664099,13.33835159,34.93486707,,,,,,,,,,,,,,,,,,,,PF,strong,1,,,,,,,,4,1.02656,,,,,,,,,,,,,,,,,,,,,,,,,,,,7,strong,41.5,-85,1,0,0,response3disk,1,71,-8.5,1,1,0,0,rectangle,-8.5,1,1,0,0,1,4,0,0.000855,-8.5,1,1,0,0,0,70,70,132,1,,,,,,,,,,,,,,,,,,,,,
,,,,,,,,,,,,,,,,,,,,,,,,,,,,,,,,,,,,,,,,,,5ea34f0a32a8c7116361d01d,6036d8221e3a840a460eb838,2021-02-24_23h50.27.933,Colour_Similarity_Experiment,2020.2.10,Win32,60,6036d0d9a84aa1626184a6ef,13.82581019,99.63222143,13.41225427,13.35664099,13.33835159,34.93486707,,,,,,,,,,,,,,,,,,,,PF,strong,1,,,,,,,,5,1.341975,,,,,,,,,,,,,,,,,,,,,,,,,,,,8,strong,93.5,-56,1,0,0,response3disk,7,72,-31.5,5,1,0,0,rectangle,-31.5,5,1,0,0,1,6,0,0.00089,-31.5,5,1,0,0,0,71,71,86,1,,,,,,,,,,,,,,,,,,,,,
,,,,,,,,,,,,,,,,,,,,,,,,,,,,,,,,,,,,,,,,,,5ea34f0a32a8c7116361d01d,6036d8221e3a840a460eb838,2021-02-24_23h50.27.933,Colour_Similarity_Experiment,2020.2.10,Win32,60,6036d0d9a84aa1626184a6ef,13.82581019,99.63222143,13.41225427,13.35664099,13.33835159,34.93486707,,,,,,,,,,,,,,,,,,,,PF,weak,1,,,,,,,,4,1.931915,,,,,,,,,,,,,,,,,,,,,,,,,,,,6,weak,36.5,-76,1,0,0,response3disk,3,73,-20.5,-4,1,0,0,rectangle,-20.5,-4,1,0,0,1,0,0,0.000895,-20.5,-4,1,0,0,0,72,72,26,1,,,,,,,,,,,,,,,,,,,,,
,,,,,,,,,,,,,,,,,,,,,,,,,,,,,,,,,,,,,,,,,,5ea34f0a32a8c7116361d01d,6036d8221e3a840a460eb838,2021-02-24_23h50.27.933,Colour_Similarity_Experiment,2020.2.10,Win32,60,6036d0d9a84aa1626184a6ef,13.82581019,99.63222143,13.41225427,13.35664099,13.33835159,34.93486707,,,,,,,,,,,,,,,,,,,,PF,strong,1,,,,,,,,5,1.326225,,,,,,,,,,,,,,,,,,,,,,,,,,,,2,strong,61.5,-25,1,0,0,response3disk,7,74,6.5,1,1,0,0,rectangle,6.5,1,1,0,0,1,5,0,0.00075,6.5,1,1,0,0,0,73,73,63,1,,,,,,,,,,,,,,,,,,,,,
,,,,,,,,,,,,,,,,,,,,,,,,,,,,,,,,,,,,,,,,,,5ea34f0a32a8c7116361d01d,6036d8221e3a840a460eb838,2021-02-24_23h50.27.933,Colour_Similarity_Experiment,2020.2.10,Win32,60,6036d0d9a84aa1626184a6ef,13.82581019,99.63222143,13.41225427,13.35664099,13.33835159,34.93486707,,,,,,,,,,,,,,,,,,,,PF,strong,1,,,,,,,,4,1.41009,,,,,,,,,,,,,,,,,,,,,,,,,,,,2,strong,53.5,-96,1,0,0,response3disk,4,75,-26.5,2,1,0,0,rectangle,-26.5,2,1,0,0,1,6,0,0.001145,-26.5,2,1,0,0,0,74,74,145,1,,,,,,,,,,,,,,,,,,,,,
,,,,,,,,,,,,,,,,,,,,,,,,,,,,,,,,,,,,,,,,,,5ea34f0a32a8c7116361d01d,6036d8221e3a840a460eb838,2021-02-24_23h50.27.933,Colour_Similarity_Experiment,2020.2.10,Win32,60,6036d0d9a84aa1626184a6ef,13.82581019,99.63222143,13.41225427,13.35664099,13.33835159,34.93486707,,,,,,,,,,,,,,,,,,,,PF,weak,1,,,,,,,,7,1.289845,,,,,,,,,,,,,,,,,,,,,,,,,,,,1,weak,34.5,124,1,0,0,response1disk,4,76,3.5,0,1,0,0,rectangle,3.5,0,1,0,0,1,1,0,0.00083,3.5,0,1,0,0,0,75,75,139,1,,,,,,,,,,,,,,,,,,,,,
,,,,,,,,,,,,,,,,,,,,,,,,,,,,,,,,,,,,,,,,,,5ea34f0a32a8c7116361d01d,6036d8221e3a840a460eb838,2021-02-24_23h50.27.933,Colour_Similarity_Experiment,2020.2.10,Win32,60,6036d0d9a84aa1626184a6ef,13.82581019,99.63222143,13.41225427,13.35664099,13.33835159,34.93486707,,,,,,,,,,,,,,,,,,,,PF,strong,1,,,,,,,,7,1.092275,,,,,,,,,,,,,,,,,,,,,,,,,,,,1,strong,50.5,105,1,0,0,response1disk,6,77,-3.5,1,1,0,0,rectangle,-3.5,1,1,0,0,1,2,0,0.00094,-3.5,1,1,0,0,0,76,76,58,1,,,,,,,,,,,,,,,,,,,,,
,,,,,,,,,,,,,,,,,,,,,,,,,,,,,,,,,,,,,,,,,,5ea34f0a32a8c7116361d01d,6036d8221e3a840a460eb838,2021-02-24_23h50.27.933,Colour_Similarity_Experiment,2020.2.10,Win32,60,6036d0d9a84aa1626184a6ef,13.82581019,99.63222143,13.41225427,13.35664099,13.33835159,34.93486707,,,,,,,,,,,,,,,,,,,,PF,strong,1,,,,,,,,7,1.182595,,,,,,,,,,,,,,,,,,,,,,,,,,,,8,strong,45.5,88,1,0,0,response1disk,3,78,-1.5,2,1,0,0,rectangle,-1.5,2,1,0,0,1,2,0,0.00019,-1.5,2,1,0,0,0,77,77,154,1,,,,,,,,,,,,,,,,,,,,,
,,,,,,,,,,,,,,,,,,,,,,,,,,,,,,,,,,,,,,,,,,5ea34f0a32a8c7116361d01d,6036d8221e3a840a460eb838,2021-02-24_23h50.27.933,Colour_Similarity_Experiment,2020.2.10,Win32,60,6036d0d9a84aa1626184a6ef,13.82581019,99.63222143,13.41225427,13.35664099,13.33835159,34.93486707,,,,,,,,,,,,,,,,,,,,PF,strong,1,,,,,,,,5,0.98192,,,,,,,,,,,,,,,,,,,,,,,,,,,,5,strong,50.5,-38,1,0,0,response3disk,2,79,-3.5,15,1,0,0,rectangle,-114.5,68,1,0,0,1,1,1,1.3203,-6.5,-9,1,0,0,0,78,78,55,1,response7disk_3,rectangle,,,,,,,,,,,,,,,,,,,
,,,,,,,,,,,,,,,,,,,,,,,,,,,,,,,,,,,,,,,,,,5ea34f0a32a8c7116361d01d,6036d8221e3a840a460eb838,2021-02-24_23h50.27.933,Colour_Similarity_Experiment,2020.2.10,Win32,60,6036d0d9a84aa1626184a6ef,13.82581019,99.63222143,13.41225427,13.35664099,13.33835159,34.93486707,,,,,,,,,,,,,,,,,,,,PF,strong,1,,,,,,,,2,1.52855,,,,,,,,,,,,,,,,,,,,,,,,,,,,9,strong,-109.5,-45,1,0,0,response5disk,8,80,-4.5,6,1,0,0,rectangle,-4.5,6,1,0,0,1,2,0,0.000795,-4.5,6,1,0,0,0,79,79,6,1,,,,,,,,,,,,,,,,,,,,,
,,,,,,,,,,,,,,,,,,,,,,,,,,,,,,,,,,,,,,,,,,5ea34f0a32a8c7116361d01d,6036d8221e3a840a460eb838,2021-02-24_23h50.27.933,Colour_Similarity_Experiment,2020.2.10,Win32,60,6036d0d9a84aa1626184a6ef,13.82581019,99.63222143,13.41225427,13.35664099,13.33835159,34.93486707,,,,,,,,,,,,,,,,,,,,PF,strong,1,,,,,,,,5,1.30005,,,,,,,,,,,,,,,,,,,,,,,,,,,,3,strong,114.5,-43,1,0,0,response3disk,1,81,2.5,-3,1,0,0,rectangle,2.5,-3,1,0,0,1,0,0,0.00105,2.5,-3,1,0,0,0,80,80,125,1,,,,,,,,,,,,,,,,,,,,,
,,,,,,,,,,,,,,,,,,,,,,,,,,,,,,,,,,,,,,,,,,5ea34f0a32a8c7116361d01d,6036d8221e3a840a460eb838,2021-02-24_23h50.27.933,Colour_Similarity_Experiment,2020.2.10,Win32,60,6036d0d9a84aa1626184a6ef,13.82581019,99.63222143,13.41225427,13.35664099,13.33835159,34.93486707,,,,,,,,,,,,,,,,,,,,PF,weak,1,,,,,,,,4,1.491135,,,,,,,,,,,,,,,,,,,,,,,,,,,,2,weak,59.5,-109,1,0,0,response3disk,4,82,-9.5,5,1,0,0,rectangle,-9.5,5,1,0,0,1,7,0,0.000925,-9.5,5,1,0,0,0,81,81,127,1,,,,,,,,,,,,,,,,,,,,,
,,,,,,,,,,,,,,,,,,,,,,,,,,,,,,,,,,,,,,,,,,5ea34f0a32a8c7116361d01d,6036d8221e3a840a460eb838,2021-02-24_23h50.27.933,Colour_Similarity_Experiment,2020.2.10,Win32,60,6036d0d9a84aa1626184a6ef,13.82581019,99.63222143,13.41225427,13.35664099,13.33835159,34.93486707,,,,,,,,,,,,,,,,,,,,PF,strong,1,,,,,,,,4,2.799245,,,,,,,,,,,,,,,,,,,,,,,,,,,,7,strong,44.5,-94,1,0,0,response3disk,3,83,-10.5,8,1,0,0,rectangle,-10.5,8,1,0,0,1,5,0,0.001595,-10.5,8,1,0,0,0,82,82,73,1,,,,,,,,,,,,,,,,,,,,,
,,,,,,,,,,,,,,,,,,,,,,,,,,,,,,,,,,,,,,,,,,5ea34f0a32a8c7116361d01d,6036d8221e3a840a460eb838,2021-02-24_23h50.27.933,Colour_Similarity_Experiment,2020.2.10,Win32,60,6036d0d9a84aa1626184a6ef,13.82581019,99.63222143,13.41225427,13.35664099,13.33835159,34.93486707,,,,,,,,,,,,,,,,,,,,PF,weak,1,,,,,,,,1,1.337795,,,,,,,,,,,,,,,,,,,,,,,,,,,,7,weak,-107.5,53,1,0,0,response7disk,6,84,14.5,-1,1,0,0,rectangle,14.5,-1,1,0,0,1,0,0,0.001025,14.5,-1,1,0,0,0,83,83,29,1,,,,,,,,,,,,,,,,,,,,,
,,,,,,,,,,,,,,,,,,,,,,,,,,,,,,,,,,,,,,,,,,5ea34f0a32a8c7116361d01d,6036d8221e3a840a460eb838,2021-02-24_23h50.27.933,Colour_Similarity_Experiment,2020.2.10,Win32,60,6036d0d9a84aa1626184a6ef,13.82581019,99.63222143,13.41225427,13.35664099,13.33835159,34.93486707,,,,,,,,,,,,,,,,,,,,PF,strong,1,,,,,,,,5,2.57967,,,,,,,,,,,,,,,,,,,,,,,,,,,,5,strong,101.5,-49,1,0,0,response3disk,8,85,-1.5,-1,1,0,0,rectangle,-1.5,-1,1,0,0,1,3,0,0.00087,-1.5,-1,1,0,0,0,84,84,16,1,,,,,,,,,,,,,,,,,,,,,
,,,,,,,,,,,,,,,,,,,,,,,,,,,,,,,,,,,,,,,,,,5ea34f0a32a8c7116361d01d,6036d8221e3a840a460eb838,2021-02-24_23h50.27.933,Colour_Similarity_Experiment,2020.2.10,Win32,60,6036d0d9a84aa1626184a6ef,13.82581019,99.63222143,13.41225427,13.35664099,13.33835159,34.93486707,,,,,,,,,,,,,,,,,,,,PF,weak,1,,,,,,,,0,1.01577,,,,,,,,,,,,,,,,,,,,,,,,,,,,7,weak,-47.5,80,1,0,0,response7disk,7,86,10.5,-14,1,0,0,rectangle,10.5,-14,1,0,0,1,0,0,0.00073,10.5,-14,1,0,0,0,85,85,51,1,,,,,,,,,,,,,,,,,,,,,
,,,,,,,,,,,,,,,,,,,,,,,,,,,,,,,,,,,,,,,,,,5ea34f0a32a8c7116361d01d,6036d8221e3a840a460eb838,2021-02-24_23h50.27.933,Colour_Similarity_Experiment,2020.2.10,Win32,60,6036d0d9a84aa1626184a6ef,13.82581019,99.63222143,13.41225427,13.35664099,13.33835159,34.93486707,,,,,,,,,,,,,,,,,,,,PF,weak,1,,,,,,,,1,1.073175,,,,,,,,,,,,,,,,,,,,,,,,,,,,4,weak,-75.5,50,1,0,0,response7disk,7,87,-3.5,-4,1,0,0,rectangle,-3.5,-4,1,0,0,1,5,0,0.00088,-3.5,-4,1,0,0,0,86,86,38,1,,,,,,,,,,,,,,,,,,,,,
,,,,,,,,,,,,,,,,,,,,,,,,,,,,,,,,,,,,,,,,,,5ea34f0a32a8c7116361d01d,6036d8221e3a840a460eb838,2021-02-24_23h50.27.933,Colour_Similarity_Experiment,2020.2.10,Win32,60,6036d0d9a84aa1626184a6ef,13.82581019,99.63222143,13.41225427,13.35664099,13.33835159,34.93486707,,,,,,,,,,,,,,,,,,,,PF,weak,1,,,,,,,,3,2.746805,,,,,,,,,,,,,,,,,,,,,,,,,,,,1,weak,-76.5,-101,1,0,0,response5disk,8,88,-11.5,0,1,0,0,rectangle,-11.5,0,1,0,0,1,4,0,0.000725,-11.5,0,1,0,0,0,87,87,65,1,,,,,,,,,,,,,,,,,,,,,
,,,,,,,,,,,,,,,,,,,,,,,,,,,,,,,,,,,,,,,,,,5ea34f0a32a8c7116361d01d,6036d8221e3a840a460eb838,2021-02-24_23h50.27.933,Colour_Similarity_Experiment,2020.2.10,Win32,60,6036d0d9a84aa1626184a6ef,13.82581019,99.63222143,13.41225427,13.35664099,13.33835159,34.93486707,,,,,,,,,,,,,,,,,,,,PF,strong,1,,,,,,,,6,1.85256,,,,,,,,,,,,,,,,,,,,,,,,,,,,3,strong,103.5,28,1,0,0,response1disk,9,89,3.5,4,1,0,0,rectangle,3.5,4,1,0,0,1,2,0,0.00088,3.5,4,1,0,0,0,88,88,143,1,,,,,,,,,,,,,,,,,,,,,
,,,,,,,,,,,,,,,,,,,,,,,,,,,,,,,,,,,,,,,,,,5ea34f0a32a8c7116361d01d,6036d8221e3a840a460eb838,2021-02-24_23h50.27.933,Colour_Similarity_Experiment,2020.2.10,Win32,60,6036d0d9a84aa1626184a6ef,13.82581019,99.63222143,13.41225427,13.35664099,13.33835159,34.93486707,,,,,,,,,,,,,,,,,,,,PF,strong,1,,,,,,,,0,1.807655,,,,,,,,,,,,,,,,,,,,,,,,,,,,8,strong,-50.5,89,1,0,0,response7disk,8,90,-5.5,3,1,0,0,rectangle,-5.5,3,1,0,0,1,6,0,0.000765,-5.5,3,1,0,0,0,89,89,48,1,,,,,,,,,,,,,,,,,,,,,
,,,,,,,,,,,,,,,,,,,,,,,,,,,,,,,,,,,,,,,,,,5ea34f0a32a8c7116361d01d,6036d8221e3a840a460eb838,2021-02-24_23h50.27.933,Colour_Similarity_Experiment,2020.2.10,Win32,60,6036d0d9a84aa1626184a6ef,13.82581019,99.63222143,13.41225427,13.35664099,13.33835159,34.93486707,,,,,,,,,,,,,,,,,,,,PF,strong,1,,,,,,,,5,1.9857,,,,,,,,,,,,,,,,,,,,,,,,,,,,2,strong,97.5,-64,1,0,0,response3disk,5,91,0.5,7,1,0,0,rectangle,0.5,7,1,0,0,1,6,0,0.000125,0.5,7,1,0,0,0,90,90,80,1,,,,,,,,,,,,,,,,,,,,,
,,,,,,,,,,,,,,,,,,,,,,,,,,,,,,,,,,,,,,,,,,5ea34f0a32a8c7116361d01d,6036d8221e3a840a460eb838,2021-02-24_23h50.27.933,Colour_Similarity_Experiment,2020.2.10,Win32,60,6036d0d9a84aa1626184a6ef,13.82581019,99.63222143,13.41225427,13.35664099,13.33835159,34.93486707,,,,,,,,,,,,,,,,,,,,PF,strong,1,,,,,,,,6,1.717935,,,,,,,,,,,,,,,,,,,,,,,,,,,,8,strong,82.5,54,1,0,0,response1disk,6,92,-12.5,-5,1,0,0,rectangle,-12.5,-5,1,0,0,1,3,0,0.00109,-12.5,-5,1,0,0,0,91,91,37,1,,,,,,,,,,,,,,,,,,,,,
,,,,,,,,,,,,,,,,,,,,,,,,,,,,,,,,,,,,,,,,,,5ea34f0a32a8c7116361d01d,6036d8221e3a840a460eb838,2021-02-24_23h50.27.933,Colour_Similarity_Experiment,2020.2.10,Win32,60,6036d0d9a84aa1626184a6ef,13.82581019,99.63222143,13.41225427,13.35664099,13.33835159,34.93486707,,,,,,,,,,,,,,,,,,,,PF,strong,1,,,,,,,,5,1.50677,,,,,,,,,,,,,,,,,,,,,,,,,,,,9,strong,89.5,-47,1,0,0,response3disk,3,93,-16.5,4,1,0,0,rectangle,-16.5,4,1,0,0,1,0,0,0.0007,-16.5,4,1,0,0,0,92,92,141,1,,,,,,,,,,,,,,,,,,,,,
,,,,,,,,,,,,,,,,,,,,,,,,,,,,,,,,,,,,,,,,,,5ea34f0a32a8c7116361d01d,6036d8221e3a840a460eb838,2021-02-24_23h50.27.933,Colour_Similarity_Experiment,2020.2.10,Win32,60,6036d0d9a84aa1626184a6ef,13.82581019,99.63222143,13.41225427,13.35664099,13.33835159,34.93486707,,,,,,,,,,,,,,,,,,,,PF,weak,1,,,,,,,,0,1.023625,,,,,,,,,,,,,,,,,,,,,,,,,,,,8,weak,-42.5,94,1,0,0,response7disk,9,94,7.5,-3,1,0,0,rectangle,7.5,-3,1,0,0,1,5,0,0.00069,7.5,-3,1,0,0,0,93,93,42,1,,,,,,,,,,,,,,,,,,,,,
,,,,,,,,,,,,,,,,,,,,,,,,,,,,,,,,,,,,,,,,,,5ea34f0a32a8c7116361d01d,6036d8221e3a840a460eb838,2021-02-24_23h50.27.933,Colour_Similarity_Experiment,2020.2.10,Win32,60,6036d0d9a84aa1626184a6ef,13.82581019,99.63222143,13.41225427,13.35664099,13.33835159,34.93486707,,,,,,,,,,,,,,,,,,,,PF,strong,1,,,,,,,,2,1.51903,,,,,,,,,,,,,,,,,,,,,,,,,,,,1,strong,-92.5,-54,1,0,0,response5disk,8,95,5.5,2,1,0,0,rectangle,5.5,2,1,0,0,1,3,0,0.00074,5.5,2,1,0,0,0,94,94,27,1,,,,,,,,,,,,,,,,,,,,,
,,,,,,,,,,,,,,,,,,,,,,,,,,,,,,,,,,,,,,,,,,5ea34f0a32a8c7116361d01d,6036d8221e3a840a460eb838,2021-02-24_23h50.27.933,Colour_Similarity_Experiment,2020.2.10,Win32,60,6036d0d9a84aa1626184a6ef,13.82581019,99.63222143,13.41225427,13.35664099,13.33835159,34.93486707,,,,,,,,,,,,,,,,,,,,PF,strong,1,,,,,,,,2,1.439115,,,,,,,,,,,,,,,,,,,,,,,,,,,,6,strong,-86.5,-44,1,0,0,response5disk,4,96,-2.5,7,1,0,0,rectangle,-2.5,7,1,0,0,1,2,0,0.000735,-2.5,7,1,0,0,0,95,95,56,1,,,,,,,,,,,,,,,,,,,,,
,,,,,,,,,,,,,,,,,,,,,,,,,,,,,,,,,,,,,,,,,,5ea34f0a32a8c7116361d01d,6036d8221e3a840a460eb838,2021-02-24_23h50.27.933,Colour_Similarity_Experiment,2020.2.10,Win32,60,6036d0d9a84aa1626184a6ef,13.82581019,99.63222143,13.41225427,13.35664099,13.33835159,34.93486707,,,,,,,,,,,,,,,,,,,,PF,weak,1,,,,,,,,3,1.54506,,,,,,,,,,,,,,,,,,,,,,,,,,,,3,weak,-46.5,-76,1,0,0,response5disk,3,97,-2.5,-11,1,0,0,rectangle,-2.5,-11,1,0,0,1,1,0,0.000865,-2.5,-11,1,0,0,0,96,96,4,1,,,,,,,,,,,,,,,,,,,,,
,,,,,,,,,,,,,,,,,,,,,,,,,,,,,,,,,,,,,,,,,,5ea34f0a32a8c7116361d01d,6036d8221e3a840a460eb838,2021-02-24_23h50.27.933,Colour_Similarity_Experiment,2020.2.10,Win32,60,6036d0d9a84aa1626184a6ef,13.82581019,99.63222143,13.41225427,13.35664099,13.33835159,34.93486707,,,,,,,,,,,,,,,,,,,,PF,strong,1,,,,,,,,0,1.997525,,,,,,,,,,,,,,,,,,,,,,,,,,,,6,strong,-50.5,96,1,0,0,response7disk,7,98,-3.5,9,1,0,0,rectangle,-3.5,9,1,0,0,1,3,0,0.001085,-3.5,9,1,0,0,0,97,97,18,1,,,,,,,,,,,,,,,,,,,,,
,,,,,,,,,,,,,,,,,,,,,,,,,,,,,,,,,,,,,,,,,,5ea34f0a32a8c7116361d01d,6036d8221e3a840a460eb838,2021-02-24_23h50.27.933,Colour_Similarity_Experiment,2020.2.10,Win32,60,6036d0d9a84aa1626184a6ef,13.82581019,99.63222143,13.41225427,13.35664099,13.33835159,34.93486707,,,,,,,,,,,,,,,,,,,,PF,weak,1,,,,,,,,6,0.997885,,,,,,,,,,,,,,,,,,,,,,,,,,,,1,weak,100.5,58,1,0,0,response1disk,5,99,-2.5,6,1,0,0,rectangle,-2.5,6,1,0,0,1,2,0,0.000785,-2.5,6,1,0,0,0,98,98,28,1,,,,,,,,,,,,,,,,,,,,,
,,,,,,,,,,,,,,,,,,,,,,,,,,,,,,,,,,,,,,,,,,5ea34f0a32a8c7116361d01d,6036d8221e3a840a460eb838,2021-02-24_23h50.27.933,Colour_Similarity_Experiment,2020.2.10,Win32,60,6036d0d9a84aa1626184a6ef,13.82581019,99.63222143,13.41225427,13.35664099,13.33835159,34.93486707,,,,,,,,,,,,,,,,,,,,PF,weak,1,,,,,,,,1,1.571605,,,,,,,,,,,,,,,,,,,,,,,,,,,,2,weak,-81.5,45,1,0,0,response7disk,6,100,-17.5,5,1,0,0,rectangle,-17.5,5,1,0,0,1,6,0,0.000825,-17.5,5,1,0,0,0,99,99,113,1,,,,,,,,,,,,,,,,,,,,,
,,,,,,,,,,,,,,,,,,,,,,,,,,,,,,,,,,,,,,,,,,5ea34f0a32a8c7116361d01d,6036d8221e3a840a460eb838,2021-02-24_23h50.27.933,Colour_Similarity_Experiment,2020.2.10,Win32,60,6036d0d9a84aa1626184a6ef,13.82581019,99.63222143,13.41225427,13.35664099,13.33835159,34.93486707,,,,,,,,,,,,,,,,,,,,PF,weak,1,,,,,,,,7,2.17135,,,,,,,,,,,,,,,,,,,,,,,,,,,,5,weak,80.5,115,1,0,0,response1disk,2,101,15.5,12,1,0,0,rectangle,15.5,12,1,0,0,1,2,0,0.00119,15.5,12,1,0,0,0,100,100,129,1,,,,,,,,,,,,,,,,,,,,,
,,,,,,,,,,,,,,,,,,,,,,,,,,,,,,,,,,,,,,,,,,5ea34f0a32a8c7116361d01d,6036d8221e3a840a460eb838,2021-02-24_23h50.27.933,Colour_Similarity_Experiment,2020.2.10,Win32,60,6036d0d9a84aa1626184a6ef,13.82581019,99.63222143,13.41225427,13.35664099,13.33835159,34.93486707,,,,,,,,,,,,,,,,,,,,PF,weak,1,,,,,,,,1,1.036625,,,,,,,,,,,,,,,,,,,,,,,,,,,,6,weak,-114.5,46,1,0,0,response7disk,6,102,-2.5,-4,1,0,0,rectangle,-2.5,-4,1,0,0,1,0,0,0.00079,-2.5,-4,1,0,0,0,101,101,0,1,,,,,,,,,,,,,,,,,,,,,
,,,,,,,,,,,,,,,,,,,,,,,,,,,,,,,,,,,,,,,,,,5ea34f0a32a8c7116361d01d,6036d8221e3a840a460eb838,2021-02-24_23h50.27.933,Colour_Similarity_Experiment,2020.2.10,Win32,60,6036d0d9a84aa1626184a6ef,13.82581019,99.63222143,13.41225427,13.35664099,13.33835159,34.93486707,,,,,,,,,,,,,,,,,,,,PF,weak,1,,,,,,,,1,1.197205,,,,,,,,,,,,,,,,,,,,,,,,,,,,6,weak,-103.5,58,1,0,0,response7disk,7,103,3.5,-8,1,0,0,rectangle,3.5,-8,1,0,0,1,1,0,0.00073,3.5,-8,1,0,0,0,102,102,50,1,,,,,,,,,,,,,,,,,,,,,
,,,,,,,,,,,,,,,,,,,,,,,,,,,,,,,,,,,,,,,,,,5ea34f0a32a8c7116361d01d,6036d8221e3a840a460eb838,2021-02-24_23h50.27.933,Colour_Similarity_Experiment,2020.2.10,Win32,60,6036d0d9a84aa1626184a6ef,13.82581019,99.63222143,13.41225427,13.35664099,13.33835159,34.93486707,,,,,,,,,,,,,,,,,,,,PF,weak,1,,,,,,,,3,2.556095,,,,,,,,,,,,,,,,,,,,,,,,,,,,9,weak,-64.5,-127,1,0,0,response5disk,7,104,3.5,3,1,0,0,rectangle,3.5,3,1,0,0,1,6,0,0.000815,3.5,3,1,0,0,0,103,103,121,1,,,,,,,,,,,,,,,,,,,,,
,,,,,,,,,,,,,,,,,,,,,,,,,,,,,,,,,,,,,,,,,,5ea34f0a32a8c7116361d01d,6036d8221e3a840a460eb838,2021-02-24_23h50.27.933,Colour_Similarity_Experiment,2020.2.10,Win32,60,6036d0d9a84aa1626184a6ef,13.82581019,99.63222143,13.41225427,13.35664099,13.33835159,34.93486707,,,,,,,,,,,,,,,,,,,,PF,weak,1,,,,,,,,4,6.142895,,,,,,,,,,,,,,,,,,,,,,,,,,,,8,weak,57.5,-97,1,0,0,response3disk,4,105,0.5,3,1,0,0,rectangle,0.5,3,1,0,0,1,0,0,0.000865,0.5,3,1,0,0,0,104,104,78,1,,,,,,,,,,,,,,,,,,,,,
,,,,,,,,,,,,,,,,,,,,,,,,,,,,,,,,,,,,,,,,,,5ea34f0a32a8c7116361d01d,6036d8221e3a840a460eb838,2021-02-24_23h50.27.933,Colour_Similarity_Experiment,2020.2.10,Win32,60,6036d0d9a84aa1626184a6ef,13.82581019,99.63222143,13.41225427,13.35664099,13.33835159,34.93486707,,,,,,,,,,,,,,,,,,,,PF,strong,1,,,,,,,,2,3.039135,,,,,,,,,,,,,,,,,,,,,,,,,,,,3,strong,-85.5,-39,1,0,0,response5disk,7,106,8.5,3,1,0,0,rectangle,8.5,3,1,0,0,1,0,0,8E-05,8.5,3,1,0,0,0,105,105,118,1,,,,,,,,,,,,,,,,,,,,,
,,,,,,,,,,,,,,,,,,,,,,,,,,,,,,,,,,,,,,,,,,5ea34f0a32a8c7116361d01d,6036d8221e3a840a460eb838,2021-02-24_23h50.27.933,Colour_Similarity_Experiment,2020.2.10,Win32,60,6036d0d9a84aa1626184a6ef,13.82581019,99.63222143,13.41225427,13.35664099,13.33835159,34.93486707,,,,,,,,,,,,,,,,,,,,PF,strong,1,,,,,,,,4,1.40557,,,,,,,,,,,,,,,,,,,,,,,,,,,,1,strong,31.5,-89,1,0,0,response3disk,2,107,-9.5,2,1,0,0,rectangle,-9.5,2,1,0,0,1,7,0,0.000795,-9.5,2,1,0,0,0,106,106,2,1,,,,,,,,,,,,,,,,,,,,,
,,,,,,,,,,,,,,,,,,,,,,,,,,,,,,,,,,,,,,,,,,5ea34f0a32a8c7116361d01d,6036d8221e3a840a460eb838,2021-02-24_23h50.27.933,Colour_Similarity_Experiment,2020.2.10,Win32,60,6036d0d9a84aa1626184a6ef,13.82581019,99.63222143,13.41225427,13.35664099,13.33835159,34.93486707,,,,,,,,,,,,,,,,,,,,PF,weak,1,,,,,,,,7,2.317545,,,,,,,,,,,,,,,,,,,,,,,,,,,,2,weak,53.5,110,1,0,0,response1disk,1,108,6.5,2,1,0,0,rectangle,6.5,2,1,0,0,1,1,0,0.000725,6.5,2,1,0,0,0,107,107,9,1,,,,,,,,,,,,,,,,,,,,,
,,,,,,,,,,,,,,,,,,,,,,,,,,,,,,,,,,,,,,,,,,5ea34f0a32a8c7116361d01d,6036d8221e3a840a460eb838,2021-02-24_23h50.27.933,Colour_Similarity_Experiment,2020.2.10,Win32,60,6036d0d9a84aa1626184a6ef,13.82581019,99.63222143,13.41225427,13.35664099,13.33835159,34.93486707,,,,,,,,,,,,,,,,,,,,PF,weak,1,,,,,,,,2,1.37153,,,,,,,,,,,,,,,,,,,,,,,,,,,,5,weak,-123.5,-41,1,0,0,response5disk,3,109,-4.5,16,1,0,0,rectangle,-4.5,16,1,0,0,1,3,0,0.000935,-4.5,16,1,0,0,0,108,108,109,1,,,,,,,,,,,,,,,,,,,,,
,,,,,,,,,,,,,,,,,,,,,,,,,,,,,,,,,,,,,,,,,,5ea34f0a32a8c7116361d01d,6036d8221e3a840a460eb838,2021-02-24_23h50.27.933,Colour_Similarity_Experiment,2020.2.10,Win32,60,6036d0d9a84aa1626184a6ef,13.82581019,99.63222143,13.41225427,13.35664099,13.33835159,34.93486707,,,,,,,,,,,,,,,,,,,,PF,weak,1,,,,,,,,4,1.733505,,,,,,,,,,,,,,,,,,,,,,,,,,,,8,weak,60.5,-86,1,0,0,response3disk,1,110,4.5,-9,1,0,0,rectangle,4.5,-9,1,0,0,1,5,0,0.000695,4.5,-9,1,0,0,0,109,109,57,1,,,,,,,,,,,,,,,,,,,,,
,,,,,,,,,,,,,,,,,,,,,,,,,,,,,,,,,,,,,,,,,,5ea34f0a32a8c7116361d01d,6036d8221e3a840a460eb838,2021-02-24_23h50.27.933,Colour_Similarity_Experiment,2020.2.10,Win32,60,6036d0d9a84aa1626184a6ef,13.82581019,99.63222143,13.41225427,13.35664099,13.33835159,34.93486707,,,,,,,,,,,,,,,,,,,,PF,strong,1,,,,,,,,0,1.07679,,,,,,,,,,,,,,,,,,,,,,,,,,,,4,strong,-59.5,107,1,0,0,response7disk,4,111,-9.5,0,1,0,0,rectangle,-9.5,0,1,0,0,1,3,0,0.00166,-9.5,0,1,0,0,0,110,110,84,1,,,,,,,,,,,,,,,,,,,,,
,,,,,,,,,,,,,,,,,,,,,,,,,,,,,,,,,,,,,,,,,,5ea34f0a32a8c7116361d01d,6036d8221e3a840a460eb838,2021-02-24_23h50.27.933,Colour_Similarity_Experiment,2020.2.10,Win32,60,6036d0d9a84aa1626184a6ef,13.82581019,99.63222143,13.41225427,13.35664099,13.33835159,34.93486707,,,,,,,,,,,,,,,,,,,,PF,strong,1,,,,,,,,2,1.71999,,,,,,,,,,,,,,,,,,,,,,,,,,,,5,strong,-86.5,-42,1,0,0,response5disk,6,112,-3.5,4,1,0,0,rectangle,-3.5,4,1,0,0,1,4,0,0.00068,-3.5,4,1,0,0,0,111,111,12,1,,,,,,,,,,,,,,,,,,,,,
,,,,,,,,,,,,,,,,,,,,,,,,,,,,,,,,,,,,,,,,,,5ea34f0a32a8c7116361d01d,6036d8221e3a840a460eb838,2021-02-24_23h50.27.933,Colour_Similarity_Experiment,2020.2.10,Win32,60,6036d0d9a84aa1626184a6ef,13.82581019,99.63222143,13.41225427,13.35664099,13.33835159,34.93486707,,,,,,,,,,,,,,,,,,,,PF,strong,1,,,,,,,,2,1.421305,,,,,,,,,,,,,,,,,,,,,,,,,,,,4,strong,-72.5,-45,1,0,0,response5disk,5,113,-1.5,-3,1,0,0,rectangle,-1.5,-3,1,0,0,1,5,0,0.000935,-1.5,-3,1,0,0,0,112,112,116,1,,,,,,,,,,,,,,,,,,,,,
,,,,,,,,,,,,,,,,,,,,,,,,,,,,,,,,,,,,,,,,,,5ea34f0a32a8c7116361d01d,6036d8221e3a840a460eb838,2021-02-24_23h50.27.933,Colour_Similarity_Experiment,2020.2.10,Win32,60,6036d0d9a84aa1626184a6ef,13.82581019,99.63222143,13.41225427,13.35664099,13.33835159,34.93486707,,,,,,,,,,,,,,,,,,,,PF,weak,1,,,,,,,,2,1.039985,,,,,,,,,,,,,,,,,,,,,,,,,,,,5,weak,-78.5,-40,1,0,0,response5disk,6,114,-22.5,-6,1,0,0,rectangle,-22.5,-6,1,0,0,1,2,0,0.001885,-22.5,-6,1,0,0,0,113,113,103,1,,,,,,,,,,,,,,,,,,,,,
,,,,,,,,,,,,,,,,,,,,,,,,,,,,,,,,,,,,,,,,,,5ea34f0a32a8c7116361d01d,6036d8221e3a840a460eb838,2021-02-24_23h50.27.933,Colour_Similarity_Experiment,2020.2.10,Win32,60,6036d0d9a84aa1626184a6ef,13.82581019,99.63222143,13.41225427,13.35664099,13.33835159,34.93486707,,,,,,,,,,,,,,,,,,,,PF,strong,1,,,,,,,,6,1.800775,,,,,,,,,,,,,,,,,,,,,,,,,,,,4,strong,97.5,42,1,0,0,response1disk,1,115,-1.5,5,1,0,0,rectangle,-1.5,5,1,0,0,1,7,0,0.000575,-1.5,5,1,0,0,0,114,114,102,1,,,,,,,,,,,,,,,,,,,,,
,,,,,,,,,,,,,,,,,,,,,,,,,,,,,,,,,,,,,,,,,,5ea34f0a32a8c7116361d01d,6036d8221e3a840a460eb838,2021-02-24_23h50.27.933,Colour_Similarity_Experiment,2020.2.10,Win32,60,6036d0d9a84aa1626184a6ef,13.82581019,99.63222143,13.41225427,13.35664099,13.33835159,34.93486707,,,,,,,,,,,,,,,,,,,,PF,weak,1,,,,,,,,3,1.52526,,,,,,,,,,,,,,,,,,,,,,,,,,,,7,weak,-58.5,-108,1,0,0,response5disk,9,116,-10.5,5,1,0,0,rectangle,-10.5,5,1,0,0,1,5,0,0.001095,-10.5,5,1,0,0,0,115,115,10,1,,,,,,,,,,,,,,,,,,,,,
,,,,,,,,,,,,,,,,,,,,,,,,,,,,,,,,,,,,,,,,,,5ea34f0a32a8c7116361d01d,6036d8221e3a840a460eb838,2021-02-24_23h50.27.933,Colour_Similarity_Experiment,2020.2.10,Win32,60,6036d0d9a84aa1626184a6ef,13.82581019,99.63222143,13.41225427,13.35664099,13.33835159,34.93486707,,,,,,,,,,,,,,,,,,,,PF,weak,1,,,,,,,,3,1.075285,,,,,,,,,,,,,,,,,,,,,,,,,,,,9,weak,-53.5,-97,1,0,0,response5disk,5,117,-0.5,-4,1,0,0,rectangle,-0.5,-4,1,0,0,1,7,0,0.000655,-0.5,-4,1,0,0,0,116,116,134,1,,,,,,,,,,,,,,,,,,,,,
,,,,,,,,,,,,,,,,,,,,,,,,,,,,,,,,,,,,,,,,,,5ea34f0a32a8c7116361d01d,6036d8221e3a840a460eb838,2021-02-24_23h50.27.933,Colour_Similarity_Experiment,2020.2.10,Win32,60,6036d0d9a84aa1626184a6ef,13.82581019,99.63222143,13.41225427,13.35664099,13.33835159,34.93486707,,,,,,,,,,,,,,,,,,,,PF,strong,1,,,,,,,,7,1.65033,,,,,,,,,,,,,,,,,,,,,,,,,,,,1,strong,46.5,121,1,0,0,response1disk,5,118,-0.5,-2,1,0,0,rectangle,-0.5,-2,1,0,0,1,1,0,0.000745,-0.5,-2,1,0,0,0,117,117,82,1,,,,,,,,,,,,,,,,,,,,,
,,,,,,,,,,,,,,,,,,,,,,,,,,,,,,,,,,,,,,,,,,5ea34f0a32a8c7116361d01d,6036d8221e3a840a460eb838,2021-02-24_23h50.27.933,Colour_Similarity_Experiment,2020.2.10,Win32,60,6036d0d9a84aa1626184a6ef,13.82581019,99.63222143,13.41225427,13.35664099,13.33835159,34.93486707,,,,,,,,,,,,,,,,,,,,PF,weak,1,,,,,,,,2,1.08641,,,,,,,,,,,,,,,,,,,,,,,,,,,,2,weak,-93.5,-34,1,0,0,response5disk,3,119,-6.5,3,1,0,0,rectangle,-6.5,3,1,0,0,1,6,0,0.00074,-6.5,3,1,0,0,0,118,118,69,1,,,,,,,,,,,,,,,,,,,,,
,,,,,,,,,,,,,,,,,,,,,,,,,,,,,,,,,,,,,,,,,,5ea34f0a32a8c7116361d01d,6036d8221e3a840a460eb838,2021-02-24_23h50.27.933,Colour_Similarity_Experiment,2020.2.10,Win32,60,6036d0d9a84aa1626184a6ef,13.82581019,99.63222143,13.41225427,13.35664099,13.33835159,34.93486707,,,,,,,,,,,,,,,,,,,,PF,weak,1,,,,,,,,7,1.067215,,,,,,,,,,,,,,,,,,,,,,,,,,,,4,weak,39.5,115,1,0,0,response1disk,1,120,1.5,-5,1,0,0,rectangle,1.5,-5,1,0,0,1,2,0,0.00067,1.5,-5,1,0,0,0,119,119,115,1,,,,,,,,,,,,,,,,,,,,,
,,,,,,,,,,,,,,,,,,,,,,,,,,,,,,,,,,,,,,,,,,5ea34f0a32a8c7116361d01d,6036d8221e3a840a460eb838,2021-02-24_23h50.27.933,Colour_Similarity_Experiment,2020.2.10,Win32,60,6036d0d9a84aa1626184a6ef,13.82581019,99.63222143,13.41225427,13.35664099,13.33835159,34.93486707,,,,,,,,,,,,,,,,,,,,PF,strong,1,,,,,,,,5,1.851225,,,,,,,,,,,,,,,,,,,,,,,,,,,,9,strong,108.5,-64,1,0,0,response3disk,7,121,3.5,-13,1,0,0,rectangle,3.5,-13,1,0,0,1,5,0,0.000705,3.5,-13,1,0,0,0,120,120,100,1,,,,,,,,,,,,,,,,,,,,,
,,,,,,,,,,,,,,,,,,,,,,,,,,,,,,,,,,,,,,,,,,5ea34f0a32a8c7116361d01d,6036d8221e3a840a460eb838,2021-02-24_23h50.27.933,Colour_Similarity_Experiment,2020.2.10,Win32,60,6036d0d9a84aa1626184a6ef,13.82581019,99.63222143,13.41225427,13.35664099,13.33835159,34.93486707,,,,,,,,,,,,,,,,,,,,PF,weak,1,,,,,,,,7,2.380965,,,,,,,,,,,,,,,,,,,,,,,,,,,,1,weak,41.5,104,1,0,0,response1disk,3,122,14.5,-7,1,0,0,rectangle,14.5,-7,1,0,0,1,0,0,0.00094,14.5,-7,1,0,0,0,121,121,1,1,,,,,,,,,,,,,,,,,,,,,
,,,,,,,,,,,,,,,,,,,,,,,,,,,,,,,,,,,,,,,,,,5ea34f0a32a8c7116361d01d,6036d8221e3a840a460eb838,2021-02-24_23h50.27.933,Colour_Similarity_Experiment,2020.2.10,Win32,60,6036d0d9a84aa1626184a6ef,13.82581019,99.63222143,13.41225427,13.35664099,13.33835159,34.93486707,,,,,,,,,,,,,,,,,,,,PF,weak,1,,,,,,,,2,1.347545,,,,,,,,,,,,,,,,,,,,,,,,,,,,3,weak,-67.5,-32,1,0,0,response5disk,6,123,-15.5,6,1,0,0,rectangle,-15.5,6,1,0,0,1,3,0,0.000895,-15.5,6,1,0,0,0,122,122,47,1,,,,,,,,,,,,,,,,,,,,,
,,,,,,,,,,,,,,,,,,,,,,,,,,,,,,,,,,,,,,,,,,5ea34f0a32a8c7116361d01d,6036d8221e3a840a460eb838,2021-02-24_23h50.27.933,Colour_Similarity_Experiment,2020.2.10,Win32,60,6036d0d9a84aa1626184a6ef,13.82581019,99.63222143,13.41225427,13.35664099,13.33835159,34.93486707,,,,,,,,,,,,,,,,,,,,PF,strong,1,,,,,,,,3,1.398095,,,,,,,,,,,,,,,,,,,,,,,,,,,,7,strong,-48.5,-93,1,0,0,response5disk,8,124,-3.5,2,1,0,0,rectangle,97.5,-56,1,0,0,5,5,1,1.666805,-7.5,-4,1,0,0,0,123,123,97,1,response3disk_3,rectangle,,,,,,,,,,,,,,,,,,,
,,,,,,,,,,,,,,,,,,,,,,,,,,,,,,,,,,,,,,,,,,5ea34f0a32a8c7116361d01d,6036d8221e3a840a460eb838,2021-02-24_23h50.27.933,Colour_Similarity_Experiment,2020.2.10,Win32,60,6036d0d9a84aa1626184a6ef,13.82581019,99.63222143,13.41225427,13.35664099,13.33835159,34.93486707,,,,,,,,,,,,,,,,,,,,PF,strong,1,,,,,,,,3,1.16923,,,,,,,,,,,,,,,,,,,,,,,,,,,,5,strong,-55.5,-92,1,0,0,response5disk,9,125,1.5,8,1,0,0,rectangle,1.5,8,1,0,0,5,6,0,0.00089,1.5,8,1,0,0,0,124,124,61,1,,,,,,,,,,,,,,,,,,,,,
,,,,,,,,,,,,,,,,,,,,,,,,,,,,,,,,,,,,,,,,,,5ea34f0a32a8c7116361d01d,6036d8221e3a840a460eb838,2021-02-24_23h50.27.933,Colour_Similarity_Experiment,2020.2.10,Win32,60,6036d0d9a84aa1626184a6ef,13.82581019,99.63222143,13.41225427,13.35664099,13.33835159,34.93486707,,,,,,,,,,,,,,,,,,,,PF,strong,1,,,,,,,,2,1.19612,,,,,,,,,,,,,,,,,,,,,,,,,,,,8,strong,-76.5,-34,1,0,0,response5disk,5,126,3.5,9,1,0,0,rectangle,3.5,9,1,0,0,5,6,0,0.00018,3.5,9,1,0,0,0,125,125,152,1,,,,,,,,,,,,,,,,,,,,,
,,,,,,,,,,,,,,,,,,,,,,,,,,,,,,,,,,,,,,,,,,5ea34f0a32a8c7116361d01d,6036d8221e3a840a460eb838,2021-02-24_23h50.27.933,Colour_Similarity_Experiment,2020.2.10,Win32,60,6036d0d9a84aa1626184a6ef,13.82581019,99.63222143,13.41225427,13.35664099,13.33835159,34.93486707,,,,,,,,,,,,,,,,,,,,PF,weak,1,,,,,,,,5,1.769425,,,,,,,,,,,,,,,,,,,,,,,,,,,,3,weak,79.5,-46,1,0,0,response3disk,2,127,6.5,-6,1,0,0,rectangle,-51.5,-121,1,0,0,3,3,1,2.1209,-10.5,-2,1,0,0,0,126,126,36,1,response5disk_3,rectangle,,,,,,,,,,,,,,,,,,,
,,,,,,,,,,,,,,,,,,,,,,,,,,,,,,,,,,,,,,,,,,5ea34f0a32a8c7116361d01d,6036d8221e3a840a460eb838,2021-02-24_23h50.27.933,Colour_Similarity_Experiment,2020.2.10,Win32,60,6036d0d9a84aa1626184a6ef,13.82581019,99.63222143,13.41225427,13.35664099,13.33835159,34.93486707,,,,,,,,,,,,,,,,,,,,PF,strong,1,,,,,,,,5,1.570075,,,,,,,,,,,,,,,,,,,,,,,,,,,,9,strong,91.5,-55,1,0,0,response3disk,5,128,-2.5,0,1,0,0,rectangle,-2.5,0,1,0,0,3,2,0,0.000835,-2.5,0,1,0,0,0,127,127,128,1,,,,,,,,,,,,,,,,,,,,,
,,,,,,,,,,,,,,,,,,,,,,,,,,,,,,,,,,,,,,,,,,5ea34f0a32a8c7116361d01d,6036d8221e3a840a460eb838,2021-02-24_23h50.27.933,Colour_Similarity_Experiment,2020.2.10,Win32,60,6036d0d9a84aa1626184a6ef,13.82581019,99.63222143,13.41225427,13.35664099,13.33835159,34.93486707,,,,,,,,,,,,,,,,,,,,PF,strong,1,,,,,,,,0,0.94399,,,,,,,,,,,,,,,,,,,,,,,,,,,,9,strong,-53.5,97,1,0,0,response7disk,9,129,-2.5,-12,1,0,0,rectangle,-2.5,-12,1,0,0,3,5,0,0.00071,-2.5,-12,1,0,0,0,128,128,17,1,,,,,,,,,,,,,,,,,,,,,
,,,,,,,,,,,,,,,,,,,,,,,,,,,,,,,,,,,,,,,,,,5ea34f0a32a8c7116361d01d,6036d8221e3a840a460eb838,2021-02-24_23h50.27.933,Colour_Similarity_Experiment,2020.2.10,Win32,60,6036d0d9a84aa1626184a6ef,13.82581019,99.63222143,13.41225427,13.35664099,13.33835159,34.93486707,,,,,,,,,,,,,,,,,,,,PF,strong,1,,,,,,,,2,1.26404,,,,,,,,,,,,,,,,,,,,,,,,,,,,7,strong,-92.5,-46,1,0,0,response5disk,4,130,-9.5,-1,1,0,0,rectangle,-9.5,-1,1,0,0,3,3,0,0.000735,-9.5,-1,1,0,0,0,129,129,158,1,,,,,,,,,,,,,,,,,,,,,
,,,,,,,,,,,,,,,,,,,,,,,,,,,,,,,,,,,,,,,,,,5ea34f0a32a8c7116361d01d,6036d8221e3a840a460eb838,2021-02-24_23h50.27.933,Colour_Similarity_Experiment,2020.2.10,Win32,60,6036d0d9a84aa1626184a6ef,13.82581019,99.63222143,13.41225427,13.35664099,13.33835159,34.93486707,,,,,,,,,,,,,,,,,,,,PF,strong,1,,,,,,,,6,1.77051,,,,,,,,,,,,,,,,,,,,,,,,,,,,1,strong,107.5,45,1,0,0,response1disk,7,131,2.5,-8,1,0,0,rectangle,2.5,-8,1,0,0,3,6,0,0.000895,2.5,-8,1,0,0,0,130,130,137,1,,,,,,,,,,,,,,,,,,,,,
,,,,,,,,,,,,,,,,,,,,,,,,,,,,,,,,,,,,,,,,,,5ea34f0a32a8c7116361d01d,6036d8221e3a840a460eb838,2021-02-24_23h50.27.933,Colour_Similarity_Experiment,2020.2.10,Win32,60,6036d0d9a84aa1626184a6ef,13.82581019,99.63222143,13.41225427,13.35664099,13.33835159,34.93486707,,,,,,,,,,,,,,,,,,,,PF,strong,1,,,,,,,,5,2.45069,,,,,,,,,,,,,,,,,,,,,,,,,,,,6,strong,95.5,-47,1,0,0,response3disk,2,132,-5.5,7,1,0,0,rectangle,-5.5,7,1,0,0,3,6,0,0.00047,-5.5,7,1,0,0,0,131,131,112,1,,,,,,,,,,,,,,,,,,,,,
,,,,,,,,,,,,,,,,,,,,,,,,,,,,,,,,,,,,,,,,,,5ea34f0a32a8c7116361d01d,6036d8221e3a840a460eb838,2021-02-24_23h50.27.933,Colour_Similarity_Experiment,2020.2.10,Win32,60,6036d0d9a84aa1626184a6ef,13.82581019,99.63222143,13.41225427,13.35664099,13.33835159,34.93486707,,,,,,,,,,,,,,,,,,,,PF,strong,1,,,,,,,,7,1.45263,,,,,,,,,,,,,,,,,,,,,,,,,,,,1,strong,55.5,114,1,0,0,response1disk,4,133,-2.5,2,1,0,0,rectangle,-2.5,2,1,0,0,3,7,0,0.000825,-2.5,2,1,0,0,0,132,132,135,1,,,,,,,,,,,,,,,,,,,,,
,,,,,,,,,,,,,,,,,,,,,,,,,,,,,,,,,,,,,,,,,,5ea34f0a32a8c7116361d01d,6036d8221e3a840a460eb838,2021-02-24_23h50.27.933,Colour_Similarity_Experiment,2020.2.10,Win32,60,6036d0d9a84aa1626184a6ef,13.82581019,99.63222143,13.41225427,13.35664099,13.33835159,34.93486707,,,,,,,,,,,,,,,,,,,,PF,strong,1,,,,,,,,4,4.077725,,,,,,,,,,,,,,,,,,,,,,,,,,,,2,strong,30.5,-107,1,0,0,response3disk,9,134,3.5,0,1,0,0,rectangle,3.5,0,1,0,0,3,7,0,0.00014,3.5,0,1,0,0,0,133,133,72,1,,,,,,,,,,,,,,,,,,,,,
,,,,,,,,,,,,,,,,,,,,,,,,,,,,,,,,,,,,,,,,,,5ea34f0a32a8c7116361d01d,6036d8221e3a840a460eb838,2021-02-24_23h50.27.933,Colour_Similarity_Experiment,2020.2.10,Win32,60,6036d0d9a84aa1626184a6ef,13.82581019,99.63222143,13.41225427,13.35664099,13.33835159,34.93486707,,,,,,,,,,,,,,,,,,,,PF,strong,1,,,,,,,,5,1.62387,,,,,,,,,,,,,,,,,,,,,,,,,,,,8,strong,77.5,-36,1,0,0,response3disk,2,135,-8.5,-2,1,0,0,rectangle,-8.5,-2,1,0,0,3,0,0,0.000885,-8.5,-2,1,0,0,0,134,134,22,1,,,,,,,,,,,,,,,,,,,,,
,,,,,,,,,,,,,,,,,,,,,,,,,,,,,,,,,,,,,,,,,,5ea34f0a32a8c7116361d01d,6036d8221e3a840a460eb838,2021-02-24_23h50.27.933,Colour_Similarity_Experiment,2020.2.10,Win32,60,6036d0d9a84aa1626184a6ef,13.82581019,99.63222143,13.41225427,13.35664099,13.33835159,34.93486707,,,,,,,,,,,,,,,,,,,,PF,weak,1,,,,,,,,5,1.263815,,,,,,,,,,,,,,,,,,,,,,,,,,,,7,weak,75.5,-40,1,0,0,response3disk,2,136,-4.5,1,1,0,0,rectangle,-4.5,1,1,0,0,3,1,0,0.00078,-4.5,1,1,0,0,0,135,135,32,1,,,,,,,,,,,,,,,,,,,,,
,,,,,,,,,,,,,,,,,,,,,,,,,,,,,,,,,,,,,,,,,,5ea34f0a32a8c7116361d01d,6036d8221e3a840a460eb838,2021-02-24_23h50.27.933,Colour_Similarity_Experiment,2020.2.10,Win32,60,6036d0d9a84aa1626184a6ef,13.82581019,99.63222143,13.41225427,13.35664099,13.33835159,34.93486707,,,,,,,,,,,,,,,,,,,,PF,strong,1,,,,,,,,1,1.75422,,,,,,,,,,,,,,,,,,,,,,,,,,,,2,strong,-82.5,48,1,0,0,response7disk,1,137,0.5,-1,1,0,0,rectangle,0.5,-1,1,0,0,3,7,0,0.001915,0.5,-1,1,0,0,0,136,136,85,1,,,,,,,,,,,,,,,,,,,,,
,,,,,,,,,,,,,,,,,,,,,,,,,,,,,,,,,,,,,,,,,,5ea34f0a32a8c7116361d01d,6036d8221e3a840a460eb838,2021-02-24_23h50.27.933,Colour_Similarity_Experiment,2020.2.10,Win32,60,6036d0d9a84aa1626184a6ef,13.82581019,99.63222143,13.41225427,13.35664099,13.33835159,34.93486707,,,,,,,,,,,,,,,,,,,,PF,strong,1,,,,,,,,2,0.95866,,,,,,,,,,,,,,,,,,,,,,,,,,,,3,strong,-69.5,-36,1,0,0,response5disk,5,138,-1.5,3,1,0,0,rectangle,-1.5,3,1,0,0,3,7,0,0.000735,-1.5,3,1,0,0,0,137,137,101,1,,,,,,,,,,,,,,,,,,,,,
,,,,,,,,,,,,,,,,,,,,,,,,,,,,,,,,,,,,,,,,,,5ea34f0a32a8c7116361d01d,6036d8221e3a840a460eb838,2021-02-24_23h50.27.933,Colour_Similarity_Experiment,2020.2.10,Win32,60,6036d0d9a84aa1626184a6ef,13.82581019,99.63222143,13.41225427,13.35664099,13.33835159,34.93486707,,,,,,,,,,,,,,,,,,,,PF,strong,1,,,,,,,,0,1.157565,,,,,,,,,,,,,,,,,,,,,,,,,,,,1,strong,-45.5,108,1,0,0,response7disk,1,139,-5.5,-9,1,0,0,rectangle,-5.5,-9,1,0,0,3,6,0,0.00083,-5.5,-9,1,0,0,0,138,138,151,1,,,,,,,,,,,,,,,,,,,,,
,,,,,,,,,,,,,,,,,,,,,,,,,,,,,,,,,,,,,,,,,,5ea34f0a32a8c7116361d01d,6036d8221e3a840a460eb838,2021-02-24_23h50.27.933,Colour_Similarity_Experiment,2020.2.10,Win32,60,6036d0d9a84aa1626184a6ef,13.82581019,99.63222143,13.41225427,13.35664099,13.33835159,34.93486707,,,,,,,,,,,,,,,,,,,,PF,weak,1,,,,,,,,4,1.298135,,,,,,,,,,,,,,,,,,,,,,,,,,,,4,weak,54.5,-82,1,0,0,response3disk,9,140,-6.5,9,1,0,0,rectangle,-6.5,9,1,0,0,3,4,0,0.000795,-6.5,9,1,0,0,0,139,139,75,1,,,,,,,,,,,,,,,,,,,,,
,,,,,,,,,,,,,,,,,,,,,,,,,,,,,,,,,,,,,,,,,,5ea34f0a32a8c7116361d01d,6036d8221e3a840a460eb838,2021-02-24_23h50.27.933,Colour_Similarity_Experiment,2020.2.10,Win32,60,6036d0d9a84aa1626184a6ef,13.82581019,99.63222143,13.41225427,13.35664099,13.33835159,34.93486707,,,,,,,,,,,,,,,,,,,,PF,strong,1,,,,,,,,0,0.959485,,,,,,,,,,,,,,,,,,,,,,,,,,,,3,strong,-50.5,101,1,0,0,response7disk,3,141,3.5,4,1,0,0,rectangle,3.5,4,1,0,0,3,6,0,0.00064,3.5,4,1,0,0,0,140,140,68,1,,,,,,,,,,,,,,,,,,,,,
,,,,,,,,,,,,,,,,,,,,,,,,,,,,,,,,,,,,,,,,,,5ea34f0a32a8c7116361d01d,6036d8221e3a840a460eb838,2021-02-24_23h50.27.933,Colour_Similarity_Experiment,2020.2.10,Win32,60,6036d0d9a84aa1626184a6ef,13.82581019,99.63222143,13.41225427,13.35664099,13.33835159,34.93486707,,,,,,,,,,,,,,,,,,,,PF,weak,1,,,,,,,,1,1.183255,,,,,,,,,,,,,,,,,,,,,,,,,,,,8,weak,-84.5,42,1,0,0,response7disk,8,142,13.5,1,1,0,0,rectangle,13.5,1,1,0,0,3,4,0,0.00078,13.5,1,1,0,0,0,141,141,153,1,,,,,,,,,,,,,,,,,,,,,
,,,,,,,,,,,,,,,,,,,,,,,,,,,,,,,,,,,,,,,,,,5ea34f0a32a8c7116361d01d,6036d8221e3a840a460eb838,2021-02-24_23h50.27.933,Colour_Similarity_Experiment,2020.2.10,Win32,60,6036d0d9a84aa1626184a6ef,13.82581019,99.63222143,13.41225427,13.35664099,13.33835159,34.93486707,,,,,,,,,,,,,,,,,,,,PF,weak,1,,,,,,,,3,1.558365,,,,,,,,,,,,,,,,,,,,,,,,,,,,8,weak,-55.5,-117,1,0,0,response5disk,6,143,-7.5,1,1,0,0,rectangle,72.5,100,1,0,0,7,7,1,1.40038,-3.5,-6,1,0,0,0,142,142,161,1,response1disk_3,rectangle,,,,,,,,,,,,,,,,,,,
,,,,,,,,,,,,,,,,,,,,,,,,,,,,,,,,,,,,,,,,,,5ea34f0a32a8c7116361d01d,6036d8221e3a840a460eb838,2021-02-24_23h50.27.933,Colour_Similarity_Experiment,2020.2.10,Win32,60,6036d0d9a84aa1626184a6ef,13.82581019,99.63222143,13.41225427,13.35664099,13.33835159,34.93486707,,,,,,,,,,,,,,,,,,,,PF,strong,1,,,,,,,,4,1.340665,,,,,,,,,,,,,,,,,,,,,,,,,,,,7,strong,34.5,-94,1,0,0,response3disk,2,144,0.5,8,1,0,0,rectangle,0.5,8,1,0,0,7,1,0,0.00096,0.5,8,1,0,0,0,143,143,138,1,,,,,,,,,,,,,,,,,,,,,
,,,,,,,,,,,,,,,,,,,,,,,,,,,,,,,,,,,,,,,,,,5ea34f0a32a8c7116361d01d,6036d8221e3a840a460eb838,2021-02-24_23h50.27.933,Colour_Similarity_Experiment,2020.2.10,Win32,60,6036d0d9a84aa1626184a6ef,13.82581019,99.63222143,13.41225427,13.35664099,13.33835159,34.93486707,,,,,,,,,,,,,,,,,,,,PF,weak,1,,,,,,,,5,2.83737,,,,,,,,,,,,,,,,,,,,,,,,,,,,9,weak,81.5,-69,1,0,0,response3disk,6,145,-8.5,-8,1,0,0,rectangle,-8.5,-8,1,0,0,7,1,0,0.00025,-8.5,-8,1,0,0,0,144,144,148,1,,,,,,,,,,,,,,,,,,,,,
,,,,,,,,,,,,,,,,,,,,,,,,,,,,,,,,,,,,,,,,,,5ea34f0a32a8c7116361d01d,6036d8221e3a840a460eb838,2021-02-24_23h50.27.933,Colour_Similarity_Experiment,2020.2.10,Win32,60,6036d0d9a84aa1626184a6ef,13.82581019,99.63222143,13.41225427,13.35664099,13.33835159,34.93486707,,,,,,,,,,,,,,,,,,,,PF,weak,1,,,,,,,,4,3.15765,,,,,,,,,,,,,,,,,,,,,,,,,,,,1,weak,37.5,-103,1,0,0,response3disk,6,146,-2.5,7,1,0,0,rectangle,-2.5,7,1,0,0,7,5,0,0.00069,-2.5,7,1,0,0,0,145,145,144,1,,,,,,,,,,,,,,,,,,,,,
,,,,,,,,,,,,,,,,,,,,,,,,,,,,,,,,,,,,,,,,,,5ea34f0a32a8c7116361d01d,6036d8221e3a840a460eb838,2021-02-24_23h50.27.933,Colour_Similarity_Experiment,2020.2.10,Win32,60,6036d0d9a84aa1626184a6ef,13.82581019,99.63222143,13.41225427,13.35664099,13.33835159,34.93486707,,,,,,,,,,,,,,,,,,,,PF,weak,1,,,,,,,,5,4.077655,,,,,,,,,,,,,,,,,,,,,,,,,,,,6,weak,64.5,-40,1,0,0,response3disk,2,147,0.5,0,1,0,0,rectangle,0.5,0,1,0,0,7,2,0,0.00116,0.5,0,1,0,0,0,146,146,130,1,,,,,,,,,,,,,,,,,,,,,
,,,,,,,,,,,,,,,,,,,,,,,,,,,,,,,,,,,,,,,,,,5ea34f0a32a8c7116361d01d,6036d8221e3a840a460eb838,2021-02-24_23h50.27.933,Colour_Similarity_Experiment,2020.2.10,Win32,60,6036d0d9a84aa1626184a6ef,13.82581019,99.63222143,13.41225427,13.35664099,13.33835159,34.93486707,,,,,,,,,,,,,,,,,,,,PF,weak,1,,,,,,,,3,1.597795,,,,,,,,,,,,,,,,,,,,,,,,,,,,8,weak,-53.5,-90,1,0,0,response5disk,5,148,2.5,-3,1,0,0,rectangle,2.5,-3,1,0,0,7,2,0,0.00015,2.5,-3,1,0,0,0,147,147,98,1,,,,,,,,,,,,,,,,,,,,,
,,,,,,,,,,,,,,,,,,,,,,,,,,,,,,,,,,,,,,,,,,5ea34f0a32a8c7116361d01d,6036d8221e3a840a460eb838,2021-02-24_23h50.27.933,Colour_Similarity_Experiment,2020.2.10,Win32,60,6036d0d9a84aa1626184a6ef,13.82581019,99.63222143,13.41225427,13.35664099,13.33835159,34.93486707,,,,,,,,,,,,,,,,,,,,PF,weak,1,,,,,,,,4,2.00985,,,,,,,,,,,,,,,,,,,,,,,,,,,,6,weak,62.5,-127,1,0,0,response3disk,8,149,8.5,-7,1,0,0,rectangle,8.5,-7,1,0,0,7,7,0,0.000615,8.5,-7,1,0,0,0,148,148,64,1,,,,,,,,,,,,,,,,,,,,,
,,,,,,,,,,,,,,,,,,,,,,,,,,,,,,,,,,,,,,,,,,5ea34f0a32a8c7116361d01d,6036d8221e3a840a460eb838,2021-02-24_23h50.27.933,Colour_Similarity_Experiment,2020.2.10,Win32,60,6036d0d9a84aa1626184a6ef,13.82581019,99.63222143,13.41225427,13.35664099,13.33835159,34.93486707,,,,,,,,,,,,,,,,,,,,PF,strong,1,,,,,,,,4,2.302415,,,,,,,,,,,,,,,,,,,,,,,,,,,,9,strong,54.5,-108,1,0,0,response3disk,6,150,6.5,-4,1,0,0,rectangle,6.5,-4,1,0,0,7,3,0,0.000685,6.5,-4,1,0,0,0,149,149,117,1,,,,,,,,,,,,,,,,,,,,,
,,,,,,,,,,,,,,,,,,,,,,,,,,,,,,,,,,,,,,,,,,5ea34f0a32a8c7116361d01d,6036d8221e3a840a460eb838,2021-02-24_23h50.27.933,Colour_Similarity_Experiment,2020.2.10,Win32,60,6036d0d9a84aa1626184a6ef,13.82581019,99.63222143,13.41225427,13.35664099,13.33835159,34.93486707,,,,,,,,,,,,,,,,,,,,PF,strong,1,,,,,,,,2,2.66662,,,,,,,,,,,,,,,,,,,,,,,,,,,,3,strong,-121.5,-68,1,0,0,response5disk,2,151,-12.5,4,1,0,0,rectangle,-12.5,4,1,0,0,7,4,0,0.00077,-12.5,4,1,0,0,0,150,150,93,1,,,,,,,,,,,,,,,,,,,,,
,,,,,,,,,,,,,,,,,,,,,,,,,,,,,,,,,,,,,,,,,,5ea34f0a32a8c7116361d01d,6036d8221e3a840a460eb838,2021-02-24_23h50.27.933,Colour_Similarity_Experiment,2020.2.10,Win32,60,6036d0d9a84aa1626184a6ef,13.82581019,99.63222143,13.41225427,13.35664099,13.33835159,34.93486707,,,,,,,,,,,,,,,,,,,,PF,weak,1,,,,,,,,4,2.288015,,,,,,,,,,,,,,,,,,,,,,,,,,,,4,weak,49.5,-89,1,0,0,response3disk,6,152,-2.5,12,1,0,0,rectangle,-2.5,12,1,0,0,7,0,0,0.00086,-2.5,12,1,0,0,0,151,151,120,1,,,,,,,,,,,,,,,,,,,,,
,,,,,,,,,,,,,,,,,,,,,,,,,,,,,,,,,,,,,,,,,,5ea34f0a32a8c7116361d01d,6036d8221e3a840a460eb838,2021-02-24_23h50.27.933,Colour_Similarity_Experiment,2020.2.10,Win32,60,6036d0d9a84aa1626184a6ef,13.82581019,99.63222143,13.41225427,13.35664099,13.33835159,34.93486707,,,,,,,,,,,,,,,,,,,,PF,strong,1,,,,,,,,0,1.01095,,,,,,,,,,,,,,,,,,,,,,,,,,,,2,strong,-55.5,117,1,0,0,response7disk,2,153,-7.5,6,1,0,0,rectangle,-7.5,6,1,0,0,7,0,0,0.00015,-7.5,6,1,0,0,0,152,152,142,1,,,,,,,,,,,,,,,,,,,,,
,,,,,,,,,,,,,,,,,,,,,,,,,,,,,,,,,,,,,,,,,,5ea34f0a32a8c7116361d01d,6036d8221e3a840a460eb838,2021-02-24_23h50.27.933,Colour_Similarity_Experiment,2020.2.10,Win32,60,6036d0d9a84aa1626184a6ef,13.82581019,99.63222143,13.41225427,13.35664099,13.33835159,34.93486707,,,,,,,,,,,,,,,,,,,,PF,weak,1,,,,,,,,2,7.195425,,,,,,,,,,,,,,,,,,,,,,,,,,,,9,weak,-101.5,-56,1,0,0,response5disk,8,154,1.5,0,1,0,0,rectangle,1.5,0,1,0,0,7,1,0,0.00074,1.5,0,1,0,0,0,153,153,67,1,,,,,,,,,,,,,,,,,,,,,
,,,,,,,,,,,,,,,,,,,,,,,,,,,,,,,,,,,,,,,,,,5ea34f0a32a8c7116361d01d,6036d8221e3a840a460eb838,2021-02-24_23h50.27.933,Colour_Similarity_Experiment,2020.2.10,Win32,60,6036d0d9a84aa1626184a6ef,13.82581019,99.63222143,13.41225427,13.35664099,13.33835159,34.93486707,,,,,,,,,,,,,,,,,,,,PF,weak,1,,,,,,,,2,1.795255,,,,,,,,,,,,,,,,,,,,,,,,,,,,9,weak,-102.5,-56,1,0,0,response5disk,1,155,-7.5,8,1,0,0,rectangle,-7.5,8,1,0,0,7,6,0,0.00083,-7.5,8,1,0,0,0,154,154,74,1,,,,,,,,,,,,,,,,,,,,,
,,,,,,,,,,,,,,,,,,,,,,,,,,,,,,,,,,,,,,,,,,5ea34f0a32a8c7116361d01d,6036d8221e3a840a460eb838,2021-02-24_23h50.27.933,Colour_Similarity_Experiment,2020.2.10,Win32,60,6036d0d9a84aa1626184a6ef,13.82581019,99.63222143,13.41225427,13.35664099,13.33835159,34.93486707,,,,,,,,,,,,,,,,,,,,PF,weak,1,,,,,,,,4,1.135815,,,,,,,,,,,,,,,,,,,,,,,,,,,,2,weak,32.5,-80,1,0,0,response3disk,8,156,-8.5,5,1,0,0,rectangle,-8.5,5,1,0,0,7,6,0,0.000335,-8.5,5,1,0,0,0,155,155,52,1,,,,,,,,,,,,,,,,,,,,,
,,,,,,,,,,,,,,,,,,,,,,,,,,,,,,,,,,,,,,,,,,5ea34f0a32a8c7116361d01d,6036d8221e3a840a460eb838,2021-02-24_23h50.27.933,Colour_Similarity_Experiment,2020.2.10,Win32,60,6036d0d9a84aa1626184a6ef,13.82581019,99.63222143,13.41225427,13.35664099,13.33835159,34.93486707,,,,,,,,,,,,,,,,,,,,PF,weak,1,,,,,,,,4,2.318705,,,,,,,,,,,,,,,,,,,,,,,,,,,,3,weak,60.5,-75,1,0,0,response3disk,8,157,4.5,4,1,0,0,rectangle,4.5,4,1,0,0,7,3,0,0.00073,4.5,4,1,0,0,0,156,156,3,1,,,,,,,,,,,,,,,,,,,,,
,,,,,,,,,,,,,,,,,,,,,,,,,,,,,,,,,,,,,,,,,,5ea34f0a32a8c7116361d01d,6036d8221e3a840a460eb838,2021-02-24_23h50.27.933,Colour_Similarity_Experiment,2020.2.10,Win32,60,6036d0d9a84aa1626184a6ef,13.82581019,99.63222143,13.41225427,13.35664099,13.33835159,34.93486707,,,,,,,,,,,,,,,,,,,,PF,strong,1,,,,,,,,4,1.03539,,,,,,,,,,,,,,,,,,,,,,,,,,,,3,strong,41.5,-109,1,0,0,response3disk,8,158,-6.5,-3,1,0,0,rectangle,-6.5,-3,1,0,0,7,3,0,0.00043,-6.5,-3,1,0,0,0,157,157,44,1,,,,,,,,,,,,,,,,,,,,,
,,,,,,,,,,,,,,,,,,,,,,,,,,,,,,,,,,,,,,,,,,5ea34f0a32a8c7116361d01d,6036d8221e3a840a460eb838,2021-02-24_23h50.27.933,Colour_Similarity_Experiment,2020.2.10,Win32,60,6036d0d9a84aa1626184a6ef,13.82581019,99.63222143,13.41225427,13.35664099,13.33835159,34.93486707,,,,,,,,,,,,,,,,,,,,PF,weak,1,,,,,,,,0,1.143925,,,,,,,,,,,,,,,,,,,,,,,,,,,,1,weak,-46.5,93,1,0,0,response7disk,1,159,-7.5,0,1,0,0,rectangle,-51.5,-120,1,0,0,3,3,1,1.894145,3.5,-6,1,0,0,0,158,158,76,1,response5disk_3,rectangle,,,,,,,,,,,,,,,,,,,
,,,,,,,,,,,,,,,,,,,,,,,,,,,,,,,,,,,,,,,,,,5ea34f0a32a8c7116361d01d,6036d8221e3a840a460eb838,2021-02-24_23h50.27.933,Colour_Similarity_Experiment,2020.2.10,Win32,60,6036d0d9a84aa1626184a6ef,13.82581019,99.63222143,13.41225427,13.35664099,13.33835159,34.93486707,,,,,,,,,,,,,,,,,,,,PF,weak,1,,,,,,,,3,1.57661,,,,,,,,,,,,,,,,,,,,,,,,,,,,1,weak,-60.5,-94,1,0,0,response5disk,2,160,-0.5,0,1,0,0,rectangle,-0.5,0,1,0,0,3,2,0,0.00072,-0.5,0,1,0,0,0,159,159,24,1,,,,,,,,,,,,,,,,,,,,,
,,,,,,,,,,,,,,,,,,,,,,,,,,,,,,,,,,,,,,,,,,5ea34f0a32a8c7116361d01d,6036d8221e3a840a460eb838,2021-02-24_23h50.27.933,Colour_Similarity_Experiment,2020.2.10,Win32,60,6036d0d9a84aa1626184a6ef,13.82581019,99.63222143,13.41225427,13.35664099,13.33835159,34.93486707,,,,,,,,,,,,,,,,,,,,PF,strong,1,,,,,,,,1,1.57346,,,,,,,,,,,,,,,,,,,,,,,,,,,,5,strong,-126.5,47,1,0,0,response7disk,3,161,-8.5,-1,1,0,0,rectangle,-8.5,-1,1,0,0,3,6,0,0.000855,-8.5,-1,1,0,0,0,160,160,25,1,,,,,,,,,,,,,,,,,,,,,
,,,,,,,,,,,,,,,,,,,,,,,,,,,,,,,,,,,,,,,,,,5ea34f0a32a8c7116361d01d,6036d8221e3a840a460eb838,2021-02-24_23h50.27.933,Colour_Similarity_Experiment,2020.2.10,Win32,60,6036d0d9a84aa1626184a6ef,13.82581019,99.63222143,13.41225427,13.35664099,13.33835159,34.93486707,,,,,,,,,,,,,,,,,,,,PF,strong,1,,,,,,,,1,0.95688,,,,,,,,,,,,,,,,,,,,,,,,,,,,2,strong,-88.5,52,1,0,0,response7disk,3,162,-10.5,-4,1,0,0,rectangle,-97.5,51,1,0,0,1,1,1,1.067455,-12.5,3,1,0,0,0,161,161,104,1,response7disk_3,rectangle,,,,,,,,,,,,,,,,,,,
,,,,,,,,,,,,,,,,,,,,,,,,,,,,,,,,,,,,,,,,,,5ea34f0a32a8c7116361d01d,6036d8221e3a840a460eb838,2021-02-24_23h50.27.933,Colour_Similarity_Experiment,2020.2.10,Win32,60,6036d0d9a84aa1626184a6ef,13.82581019,99.63222143,13.41225427,13.35664099,13.33835159,34.93486707,,,,,,,,,,,,,,,,,,,,,,,,,,,,,,,,,,,,,,,,,,,,,,,,,,,,,,,,,,,,,,,,,,,,,,,,,,,,,,,,,,,,,,,,,,,,,,,,0,0,0,0,1,,,,,,,,,,,,,,
,,,,,,,,,,,,,,,,,,,,,,,,,,,,,,,,,,,,,,,,,,5ea34f0a32a8c7116361d01d,6036d8221e3a840a460eb838,2021-02-24_23h50.27.933,Colour_Similarity_Experiment,2020.2.10,Win32,60,6036d0d9a84aa1626184a6ef,13.82581019,99.63222143,13.41225427,13.35664099,13.33835159,34.93486707,,,,,,,,,,,,,,,,,,,,PF,weak,1,,,,,,,,0,1.165495,,,,,,,,,,,,,,,,,,,,,,,,,,,,5,weak,-42.5,102,1,0,0,response7disk,5,163,10.5,6,1,0,0,rectangle,10.5,6,1,0,0,1,2,0,0.000655,10.5,6,1,0,0,0,0,0,94,1,,,,,,,,,,,,,,,,,,,,,
,,,,,,,,,,,,,,,,,,,,,,,,,,,,,,,,,,,,,,,,,,5ea34f0a32a8c7116361d01d,6036d8221e3a840a460eb838,2021-02-24_23h50.27.933,Colour_Similarity_Experiment,2020.2.10,Win32,60,6036d0d9a84aa1626184a6ef,13.82581019,99.63222143,13.41225427,13.35664099,13.33835159,34.93486707,,,,,,,,,,,,,,,,,,,,PF,strong,1,,,,,,,,1,1.58491,,,,,,,,,,,,,,,,,,,,,,,,,,,,3,strong,-93.5,51,1,0,0,response7disk,6,164,-6.5,9,1,0,0,rectangle,-6.5,9,1,0,0,1,3,0,0.00085,-6.5,9,1,0,0,0,1,1,95,1,,,,,,,,,,,,,,,,,,,,,
,,,,,,,,,,,,,,,,,,,,,,,,,,,,,,,,,,,,,,,,,,5ea34f0a32a8c7116361d01d,6036d8221e3a840a460eb838,2021-02-24_23h50.27.933,Colour_Similarity_Experiment,2020.2.10,Win32,60,6036d0d9a84aa1626184a6ef,13.82581019,99.63222143,13.41225427,13.35664099,13.33835159,34.93486707,,,,,,,,,,,,,,,,,,,,PF,weak,1,,,,,,,,1,1.250745,,,,,,,,,,,,,,,,,,,,,,,,,,,,5,weak,-116.5,53,1,0,0,response7disk,7,165,7.5,-3,1,0,0,rectangle,7.5,-3,1,0,0,1,5,0,0.000745,7.5,-3,1,0,0,0,2,2,146,1,,,,,,,,,,,,,,,,,,,,,
,,,,,,,,,,,,,,,,,,,,,,,,,,,,,,,,,,,,,,,,,,5ea34f0a32a8c7116361d01d,6036d8221e3a840a460eb838,2021-02-24_23h50.27.933,Colour_Similarity_Experiment,2020.2.10,Win32,60,6036d0d9a84aa1626184a6ef,13.82581019,99.63222143,13.41225427,13.35664099,13.33835159,34.93486707,,,,,,,,,,,,,,,,,,,,PF,weak,1,,,,,,,,5,1.50401,,,,,,,,,,,,,,,,,,,,,,,,,,,,5,weak,64.5,-47,1,0,0,response3disk,1,166,-9.5,7,1,0,0,rectangle,-112.5,-60,1,0,0,1,2,1,1.15996,2.5,4,1,0,0,0,3,3,159,1,response5disk_3,rectangle,,,,,,,,,,,,,,,,,,,
,,,,,,,,,,,,,,,,,,,,,,,,,,,,,,,,,,,,,,,,,,5ea34f0a32a8c7116361d01d,6036d8221e3a840a460eb838,2021-02-24_23h50.27.933,Colour_Similarity_Experiment,2020.2.10,Win32,60,6036d0d9a84aa1626184a6ef,13.82581019,99.63222143,13.41225427,13.35664099,13.33835159,34.93486707,,,,,,,,,,,,,,,,,,,,PF,strong,1,,,,,,,,4,1.47533,,,,,,,,,,,,,,,,,,,,,,,,,,,,4,strong,54.5,-88,1,0,0,response3disk,9,167,-2.5,5,1,0,0,rectangle,-2.5,5,1,0,0,1,0,0,0.000985,-2.5,5,1,0,0,0,4,4,90,1,,,,,,,,,,,,,,,,,,,,,
,,,,,,,,,,,,,,,,,,,,,,,,,,,,,,,,,,,,,,,,,,5ea34f0a32a8c7116361d01d,6036d8221e3a840a460eb838,2021-02-24_23h50.27.933,Colour_Similarity_Experiment,2020.2.10,Win32,60,6036d0d9a84aa1626184a6ef,13.82581019,99.63222143,13.41225427,13.35664099,13.33835159,34.93486707,,,,,,,,,,,,,,,,,,,,PF,strong,1,,,,,,,,1,2.89266,,,,,,,,,,,,,,,,,,,,,,,,,,,,1,strong,-123.5,43,1,0,0,response7disk,9,168,-14.5,0,1,0,0,rectangle,-14.5,0,1,0,0,1,2,0,0.000705,-14.5,0,1,0,0,0,5,5,123,1,,,,,,,,,,,,,,,,,,,,,
,,,,,,,,,,,,,,,,,,,,,,,,,,,,,,,,,,,,,,,,,,5ea34f0a32a8c7116361d01d,6036d8221e3a840a460eb838,2021-02-24_23h50.27.933,Colour_Similarity_Experiment,2020.2.10,Win32,60,6036d0d9a84aa1626184a6ef,13.82581019,99.63222143,13.41225427,13.35664099,13.33835159,34.93486707,,,,,,,,,,,,,,,,,,,,PF,strong,1,,,,,,,,2,4.25232,,,,,,,,,,,,,,,,,,,,,,,,,,,,4,strong,-101.5,-62,1,0,0,response5disk,6,169,3.5,1,1,0,0,rectangle,3.5,1,1,0,0,1,7,0,0.000755,3.5,1,1,0,0,0,6,6,122,1,,,,,,,,,,,,,,,,,,,,,
,,,,,,,,,,,,,,,,,,,,,,,,,,,,,,,,,,,,,,,,,,5ea34f0a32a8c7116361d01d,6036d8221e3a840a460eb838,2021-02-24_23h50.27.933,Colour_Similarity_Experiment,2020.2.10,Win32,60,6036d0d9a84aa1626184a6ef,13.82581019,99.63222143,13.41225427,13.35664099,13.33835159,34.93486707,,,,,,,,,,,,,,,,,,,,PF,weak,1,,,,,,,,2,1.7307,,,,,,,,,,,,,,,,,,,,,,,,,,,,3,weak,-111.5,-52,1,0,0,response5disk,9,170,-5.5,0,1,0,0,rectangle,-5.5,0,1,0,0,1,2,0,0.00073,-5.5,0,1,0,0,0,7,7,79,1,,,,,,,,,,,,,,,,,,,,,
,,,,,,,,,,,,,,,,,,,,,,,,,,,,,,,,,,,,,,,,,,5ea34f0a32a8c7116361d01d,6036d8221e3a840a460eb838,2021-02-24_23h50.27.933,Colour_Similarity_Experiment,2020.2.10,Win32,60,6036d0d9a84aa1626184a6ef,13.82581019,99.63222143,13.41225427,13.35664099,13.33835159,34.93486707,,,,,,,,,,,,,,,,,,,,PF,weak,1,,,,,,,,3,1.34634,,,,,,,,,,,,,,,,,,,,,,,,,,,,2,weak,-54.5,-109,1,0,0,response5disk,7,171,1.5,5,1,0,0,rectangle,1.5,5,1,0,0,1,0,0,0.00098,1.5,5,1,0,0,0,8,8,107,1,,,,,,,,,,,,,,,,,,,,,
,,,,,,,,,,,,,,,,,,,,,,,,,,,,,,,,,,,,,,,,,,5ea34f0a32a8c7116361d01d,6036d8221e3a840a460eb838,2021-02-24_23h50.27.933,Colour_Similarity_Experiment,2020.2.10,Win32,60,6036d0d9a84aa1626184a6ef,13.82581019,99.63222143,13.41225427,13.35664099,13.33835159,34.93486707,,,,,,,,,,,,,,,,,,,,PF,weak,1,,,,,,,,4,2.853545,,,,,,,,,,,,,,,,,,,,,,,,,,,,7,weak,58.5,-125,1,0,0,response3disk,3,172,3.5,-9,1,0,0,rectangle,3.5,-9,1,0,0,1,3,0,0.000715,3.5,-9,1,0,0,0,9,9,81,1,,,,,,,,,,,,,,,,,,,,,
,,,,,,,,,,,,,,,,,,,,,,,,,,,,,,,,,,,,,,,,,,5ea34f0a32a8c7116361d01d,6036d8221e3a840a460eb838,2021-02-24_23h50.27.933,Colour_Similarity_Experiment,2020.2.10,Win32,60,6036d0d9a84aa1626184a6ef,13.82581019,99.63222143,13.41225427,13.35664099,13.33835159,34.93486707,,,,,,,,,,,,,,,,,,,,PF,weak,1,,,,,,,,1,1.07657,,,,,,,,,,,,,,,,,,,,,,,,,,,,3,weak,-124.5,58,1,0,0,response7disk,4,173,-5.5,1,1,0,0,rectangle,-5.5,1,1,0,0,1,4,0,0.00076,-5.5,1,1,0,0,0,10,10,30,1,,,,,,,,,,,,,,,,,,,,,
,,,,,,,,,,,,,,,,,,,,,,,,,,,,,,,,,,,,,,,,,,5ea34f0a32a8c7116361d01d,6036d8221e3a840a460eb838,2021-02-24_23h50.27.933,Colour_Similarity_Experiment,2020.2.10,Win32,60,6036d0d9a84aa1626184a6ef,13.82581019,99.63222143,13.41225427,13.35664099,13.33835159,34.93486707,,,,,,,,,,,,,,,,,,,,PF,strong,1,,,,,,,,1,0.77245,,,,,,,,,,,,,,,,,,,,,,,,,,,,3,strong,-89.5,55,1,0,0,response7disk,4,174,0.5,-3,1,0,0,rectangle,0.5,-3,1,0,0,1,2,0,0.000775,0.5,-3,1,0,0,0,11,11,110,1,,,,,,,,,,,,,,,,,,,,,
,,,,,,,,,,,,,,,,,,,,,,,,,,,,,,,,,,,,,,,,,,5ea34f0a32a8c7116361d01d,6036d8221e3a840a460eb838,2021-02-24_23h50.27.933,Colour_Similarity_Experiment,2020.2.10,Win32,60,6036d0d9a84aa1626184a6ef,13.82581019,99.63222143,13.41225427,13.35664099,13.33835159,34.93486707,,,,,,,,,,,,,,,,,,,,PF,weak,1,,,,,,,,1,1.2507,,,,,,,,,,,,,,,,,,,,,,,,,,,,7,weak,-121.5,53,1,0,0,response7disk,5,175,-7.5,0,1,0,0,rectangle,-7.5,0,1,0,0,1,0,0,0.00066,-7.5,0,1,0,0,0,12,12,92,1,,,,,,,,,,,,,,,,,,,,,
,,,,,,,,,,,,,,,,,,,,,,,,,,,,,,,,,,,,,,,,,,5ea34f0a32a8c7116361d01d,6036d8221e3a840a460eb838,2021-02-24_23h50.27.933,Colour_Similarity_Experiment,2020.2.10,Win32,60,6036d0d9a84aa1626184a6ef,13.82581019,99.63222143,13.41225427,13.35664099,13.33835159,34.93486707,,,,,,,,,,,,,,,,,,,,PF,strong,1,,,,,,,,1,1.080515,,,,,,,,,,,,,,,,,,,,,,,,,,,,5,strong,-123.5,62,1,0,0,response7disk,4,176,5.5,-3,1,0,0,rectangle,5.5,-3,1,0,0,1,4,0,0.00075,5.5,-3,1,0,0,0,13,13,8,1,,,,,,,,,,,,,,,,,,,,,
,,,,,,,,,,,,,,,,,,,,,,,,,,,,,,,,,,,,,,,,,,5ea34f0a32a8c7116361d01d,6036d8221e3a840a460eb838,2021-02-24_23h50.27.933,Colour_Similarity_Experiment,2020.2.10,Win32,60,6036d0d9a84aa1626184a6ef,13.82581019,99.63222143,13.41225427,13.35664099,13.33835159,34.93486707,,,,,,,,,,,,,,,,,,,,PF,weak,1,,,,,,,,1,0.62685,,,,,,,,,,,,,,,,,,,,,,,,,,,,3,weak,-111.5,65,1,0,0,response7disk,5,177,-27.5,15,1,0,0,rectangle,-27.5,15,1,0,0,1,3,0,0.00078,-27.5,15,1,0,0,0,14,14,66,1,,,,,,,,,,,,,,,,,,,,,
,,,,,,,,,,,,,,,,,,,,,,,,,,,,,,,,,,,,,,,,,,5ea34f0a32a8c7116361d01d,6036d8221e3a840a460eb838,2021-02-24_23h50.27.933,Colour_Similarity_Experiment,2020.2.10,Win32,60,6036d0d9a84aa1626184a6ef,13.82581019,99.63222143,13.41225427,13.35664099,13.33835159,34.93486707,,,,,,,,,,,,,,,,,,,,PF,strong,1,,,,,,,,2,1.34523,,,,,,,,,,,,,,,,,,,,,,,,,,,,6,strong,-93.5,-41,1,0,0,response5disk,9,178,-6.5,-1,1,0,0,rectangle,103.5,-47,1,0,0,5,5,1,1.3475,-4.5,3,1,0,0,0,15,15,160,1,response3disk_3,rectangle,,,,,,,,,,,,,,,,,,,
,,,,,,,,,,,,,,,,,,,,,,,,,,,,,,,,,,,,,,,,,,5ea34f0a32a8c7116361d01d,6036d8221e3a840a460eb838,2021-02-24_23h50.27.933,Colour_Similarity_Experiment,2020.2.10,Win32,60,6036d0d9a84aa1626184a6ef,13.82581019,99.63222143,13.41225427,13.35664099,13.33835159,34.93486707,,,,,,,,,,,,,,,,,,,,PF,weak,1,,,,,,,,3,1.211055,,,,,,,,,,,,,,,,,,,,,,,,,,,,6,weak,-64.5,-130,1,0,0,response5disk,9,179,-12.5,7,1,0,0,rectangle,-12.5,7,1,0,0,5,2,0,0.000785,-12.5,7,1,0,0,0,16,16,45,1,,,,,,,,,,,,,,,,,,,,,
,,,,,,,,,,,,,,,,,,,,,,,,,,,,,,,,,,,,,,,,,,5ea34f0a32a8c7116361d01d,6036d8221e3a840a460eb838,2021-02-24_23h50.27.933,Colour_Similarity_Experiment,2020.2.10,Win32,60,6036d0d9a84aa1626184a6ef,13.82581019,99.63222143,13.41225427,13.35664099,13.33835159,34.93486707,,,,,,,,,,,,,,,,,,,,PF,strong,1,,,,,,,,4,1.85213,,,,,,,,,,,,,,,,,,,,,,,,,,,,6,strong,54.5,-96,1,0,0,response3disk,8,180,7.5,-4,1,0,0,rectangle,7.5,-4,1,0,0,5,2,0,0.000275,7.5,-4,1,0,0,0,17,17,133,1,,,,,,,,,,,,,,,,,,,,,
,,,,,,,,,,,,,,,,,,,,,,,,,,,,,,,,,,,,,,,,,,5ea34f0a32a8c7116361d01d,6036d8221e3a840a460eb838,2021-02-24_23h50.27.933,Colour_Similarity_Experiment,2020.2.10,Win32,60,6036d0d9a84aa1626184a6ef,13.82581019,99.63222143,13.41225427,13.35664099,13.33835159,34.93486707,,,,,,,,,,,,,,,,,,,,PF,weak,1,,,,,,,,7,0.9991,,,,,,,,,,,,,,,,,,,,,,,,,,,,1,weak,60.5,115,1,0,0,response1disk,7,181,12.5,6,1,0,0,rectangle,12.5,6,1,0,0,5,0,0,0.00172,12.5,6,1,0,0,0,18,18,150,1,,,,,,,,,,,,,,,,,,,,,
,,,,,,,,,,,,,,,,,,,,,,,,,,,,,,,,,,,,,,,,,,5ea34f0a32a8c7116361d01d,6036d8221e3a840a460eb838,2021-02-24_23h50.27.933,Colour_Similarity_Experiment,2020.2.10,Win32,60,6036d0d9a84aa1626184a6ef,13.82581019,99.63222143,13.41225427,13.35664099,13.33835159,34.93486707,,,,,,,,,,,,,,,,,,,,PF,strong,1,,,,,,,,0,1.17151,,,,,,,,,,,,,,,,,,,,,,,,,,,,7,strong,-60.5,116,1,0,0,response7disk,7,182,11.5,-3,1,0,0,rectangle,11.5,-3,1,0,0,5,6,0,0.000575,11.5,-3,1,0,0,0,19,19,34,1,,,,,,,,,,,,,,,,,,,,,
,,,,,,,,,,,,,,,,,,,,,,,,,,,,,,,,,,,,,,,,,,5ea34f0a32a8c7116361d01d,6036d8221e3a840a460eb838,2021-02-24_23h50.27.933,Colour_Similarity_Experiment,2020.2.10,Win32,60,6036d0d9a84aa1626184a6ef,13.82581019,99.63222143,13.41225427,13.35664099,13.33835159,34.93486707,,,,,,,,,,,,,,,,,,,,PF,strong,1,,,,,,,,2,1.460895,,,,,,,,,,,,,,,,,,,,,,,,,,,,4,strong,-105.5,-45,1,0,0,response5disk,7,183,-8.5,4,1,0,0,rectangle,-8.5,4,1,0,0,5,1,0,0.001045,-8.5,4,1,0,0,0,20,20,87,1,,,,,,,,,,,,,,,,,,,,,
,,,,,,,,,,,,,,,,,,,,,,,,,,,,,,,,,,,,,,,,,,5ea34f0a32a8c7116361d01d,6036d8221e3a840a460eb838,2021-02-24_23h50.27.933,Colour_Similarity_Experiment,2020.2.10,Win32,60,6036d0d9a84aa1626184a6ef,13.82581019,99.63222143,13.41225427,13.35664099,13.33835159,34.93486707,,,,,,,,,,,,,,,,,,,,PF,weak,1,,,,,,,,1,1.114865,,,,,,,,,,,,,,,,,,,,,,,,,,,,9,weak,-113.5,58,1,0,0,response7disk,3,184,-9.5,1,1,0,0,rectangle,-9.5,1,1,0,0,5,4,0,0.000735,-9.5,1,1,0,0,0,21,21,119,1,,,,,,,,,,,,,,,,,,,,,
,,,,,,,,,,,,,,,,,,,,,,,,,,,,,,,,,,,,,,,,,,5ea34f0a32a8c7116361d01d,6036d8221e3a840a460eb838,2021-02-24_23h50.27.933,Colour_Similarity_Experiment,2020.2.10,Win32,60,6036d0d9a84aa1626184a6ef,13.82581019,99.63222143,13.41225427,13.35664099,13.33835159,34.93486707,,,,,,,,,,,,,,,,,,,,PF,strong,1,,,,,,,,7,1.50635,,,,,,,,,,,,,,,,,,,,,,,,,,,,1,strong,59.5,91,1,0,0,response1disk,3,185,-4.5,3,1,0,0,rectangle,-4.5,3,1,0,0,5,7,0,0.0007,-4.5,3,1,0,0,0,22,22,99,1,,,,,,,,,,,,,,,,,,,,,
,,,,,,,,,,,,,,,,,,,,,,,,,,,,,,,,,,,,,,,,,,5ea34f0a32a8c7116361d01d,6036d8221e3a840a460eb838,2021-02-24_23h50.27.933,Colour_Similarity_Experiment,2020.2.10,Win32,60,6036d0d9a84aa1626184a6ef,13.82581019,99.63222143,13.41225427,13.35664099,13.33835159,34.93486707,,,,,,,,,,,,,,,,,,,,PF,weak,1,,,,,,,,2,31.18274,,,,,,,,,,,,,,,,,,,,,,,,,,,,5,weak,-119.5,-56,1,0,0,response5disk,8,186,-17.5,5,1,0,0,rectangle,-17.5,5,1,0,0,5,4,0,0.000855,-17.5,5,1,0,0,0,23,23,149,1,,,,,,,,,,,,,,,,,,,,,
,,,,,,,,,,,,,,,,,,,,,,,,,,,,,,,,,,,,,,,,,,5ea34f0a32a8c7116361d01d,6036d8221e3a840a460eb838,2021-02-24_23h50.27.933,Colour_Similarity_Experiment,2020.2.10,Win32,60,6036d0d9a84aa1626184a6ef,13.82581019,99.63222143,13.41225427,13.35664099,13.33835159,34.93486707,,,,,,,,,,,,,,,,,,,,PF,weak,1,,,,,,,,3,2.05703,,,,,,,,,,,,,,,,,,,,,,,,,,,,7,weak,-64.5,-98,1,0,0,response5disk,4,187,-5.5,-6,1,0,0,rectangle,-5.5,-6,1,0,0,5,2,0,0.00069,-5.5,-6,1,0,0,0,24,24,43,1,,,,,,,,,,,,,,,,,,,,,
,,,,,,,,,,,,,,,,,,,,,,,,,,,,,,,,,,,,,,,,,,5ea34f0a32a8c7116361d01d,6036d8221e3a840a460eb838,2021-02-24_23h50.27.933,Colour_Similarity_Experiment,2020.2.10,Win32,60,6036d0d9a84aa1626184a6ef,13.82581019,99.63222143,13.41225427,13.35664099,13.33835159,34.93486707,,,,,,,,,,,,,,,,,,,,PF,weak,1,,,,,,,,5,11.948215,,,,,,,,,,,,,,,,,,,,,,,,,,,,2,weak,72.5,-50,1,0,0,response3disk,5,188,-2.5,-17,1,0,0,rectangle,-2.5,-17,1,0,0,5,0,0,0.000715,-2.5,-17,1,0,0,0,25,25,147,1,,,,,,,,,,,,,,,,,,,,,
,,,,,,,,,,,,,,,,,,,,,,,,,,,,,,,,,,,,,,,,,,5ea34f0a32a8c7116361d01d,6036d8221e3a840a460eb838,2021-02-24_23h50.27.933,Colour_Similarity_Experiment,2020.2.10,Win32,60,6036d0d9a84aa1626184a6ef,13.82581019,99.63222143,13.41225427,13.35664099,13.33835159,34.93486707,,,,,,,,,,,,,,,,,,,,PF,strong,1,,,,,,,,0,1.084355,,,,,,,,,,,,,,,,,,,,,,,,,,,,6,strong,-50.5,114,1,0,0,response7disk,5,189,5.5,-7,1,0,0,rectangle,5.5,-7,1,0,0,5,6,0,0.000715,5.5,-7,1,0,0,0,26,26,126,1,,,,,,,,,,,,,,,,,,,,,
,,,,,,,,,,,,,,,,,,,,,,,,,,,,,,,,,,,,,,,,,,5ea34f0a32a8c7116361d01d,6036d8221e3a840a460eb838,2021-02-24_23h50.27.933,Colour_Similarity_Experiment,2020.2.10,Win32,60,6036d0d9a84aa1626184a6ef,13.82581019,99.63222143,13.41225427,13.35664099,13.33835159,34.93486707,,,,,,,,,,,,,,,,,,,,PF,strong,1,,,,,,,,4,1.42224,,,,,,,,,,,,,,,,,,,,,,,,,,,,8,strong,77.5,-90,1,0,0,response3disk,4,190,4.5,8,1,0,0,rectangle,4.5,8,1,0,0,5,3,0,0.000685,4.5,8,1,0,0,0,27,27,88,1,,,,,,,,,,,,,,,,,,,,,
,,,,,,,,,,,,,,,,,,,,,,,,,,,,,,,,,,,,,,,,,,5ea34f0a32a8c7116361d01d,6036d8221e3a840a460eb838,2021-02-24_23h50.27.933,Colour_Similarity_Experiment,2020.2.10,Win32,60,6036d0d9a84aa1626184a6ef,13.82581019,99.63222143,13.41225427,13.35664099,13.33835159,34.93486707,,,,,,,,,,,,,,,,,,,,PF,strong,1,,,,,,,,4,1.143295,,,,,,,,,,,,,,,,,,,,,,,,,,,,9,strong,67.5,-124,1,0,0,response3disk,2,191,-7.5,4,1,0,0,rectangle,-118.5,65,1,0,0,1,1,1,1.293175,-19.5,-7,1,0,0,0,28,28,11,1,response7disk_3,rectangle,,,,,,,,,,,,,,,,,,,
