key_resp.keys,key_resp.rt,key_resp_16.keys,key_resp_16.rt,key_resp_2.keys,key_resp_2.rt,X Scale,ratio_pxpermm,screen_size_x,screen_size_y,testsize,key_resp_3.keys,key_resp_4.keys,key_resp_4.rt,line_size,key_resp_5.keys,key_resp_5.rt,key_resp_6.keys,key_resp_6.rt,key_resp_8.keys,key_resp_8.rt,key_resp_7.keys,key_resp_7.rt,key_resp_12.keys,key_resp_12.rt,key_resp_11.keys,key_resp_11.rt,key_resp_18.keys,key_resp_18.rt,key_resp_21.keys,key_resp_21.rt,key_resp_13.keys,key_resp_13.rt,key_resp_19.keys,key_resp_19.rt,ballposx,viewer_distance,trials.thisRepN,trials.thisTrialN,trials.thisN,trials.thisIndex,trials.ran,participant,session,date,expName,psychopyVersion,OS,frameRate,study_id,realFrameRate1,realFrameRate2,realFrameRate3,realFrameRate4,realFrameRate5,realFrameRate,viewerdistancecm,DVA_to_distance,radius_F,radius_P,r_F,R_P,key_resp_20.keys,key_resp_20.rt,key_resp_14.keys,key_resp_14.rt,key_resp_15.keys,key_resp_15.rt,key_resp_17.keys,key_resp_17.rt,key_resp_9.keys,key_resp_9.rt,key_resp_10.keys,key_resp_10.rt,Colour_1,Ecc,maskCon,mask_frames,mouse_5.x,mouse_5.y,mouse_5.leftButton,mouse_5.midButton,mouse_5.rightButton,mouse_5.clicked_name,Colour_2,similarity,response_time,mouse_10.x,mouse_10.y,mouse_10.leftButton,mouse_10.midButton,mouse_10.rightButton,mouse_10.clicked_name,mouse_7.x,mouse_7.y,mouse_7.leftButton,mouse_7.midButton,mouse_7.rightButton,catchnumberprac,mouse_6.x,mouse_6.y,mouse_6.leftButton,mouse_6.midButton,mouse_6.rightButton,duringprac.thisRepN,duringprac.thisTrialN,duringprac.thisN,duringprac.thisIndex,duringprac.ran,mouse_7.clicked_name,catchprac,mouse_6.clicked_name,key_resp_22.keys,key_resp_22.rt,Colour1,maskCon1,mouse.x,mouse.y,mouse.leftButton,mouse.midButton,mouse.rightButton,mouse.clicked_name,Colour2,trialnumber,mouse_2.x,mouse_2.y,mouse_2.leftButton,mouse_2.midButton,mouse_2.rightButton,mouse_2.clicked_name,mouse_3.x,mouse_3.y,mouse_3.leftButton,mouse_3.midButton,mouse_3.rightButton,catchresponse,catchnumber,Catch,response_time_catch,mouse_11.x,mouse_11.y,mouse_11.leftButton,mouse_11.midButton,mouse_11.rightButton,trials_2.thisRepN,trials_2.thisTrialN,trials_2.thisN,trials_2.thisIndex,trials_2.ran,mouse_3.clicked_name,mouse_11.clicked_name,trials_3.thisRepN,trials_3.thisTrialN,trials_3.thisN,trials_3.thisIndex,trials_3.ran,answer1,rt1,answer2,rt2,answer3,rt3,answer4,rt4,answer5,rt5,answer6,rt6,answer7,rt7
space,3.08098,space,40.042575,space,8.14063,40.8,4.08,334.8039216,188.2352941,1366,,space,28.89395,81.6,space,14.71138,space,4.00454,space,2.669415,space,3.01696,space,8.578745,space,12.965435,space,4.876225,space,13.12138,space,21.259835,return,5.36392,-153.675,714.7115978,0,0,0,0,1,5f0c675cbe0f365cc5424893,6036d892ee2cade6d4ddf4b9,2021-02-24_22h52.37.493,Colour_Similarity_Experiment,2020.2.10,Win32,60,6036d0d9a84aa1626184a6ef,17.42450512,16.62377022,16.58108483,16.67173875,16.58264618,16.61481,,,,,,,,,,,,,,,,,,,,,,,,,,,,,,,,,,,,,,,,,,,,,,,,,,,,,,,,,,,,,,,,,,,,,,,,,,,,,,,,,,,,,,,,,,,,,,,,,,,,,,,,,,,,,,,,,,
,,,,,,,,,,,,,,,,,,,,,,,,,,,,,,,,,return,5.32318,-147.528,708.4360813,1,0,1,0,1,5f0c675cbe0f365cc5424893,6036d892ee2cade6d4ddf4b9,2021-02-24_22h52.37.493,Colour_Similarity_Experiment,2020.2.10,Win32,60,6036d0d9a84aa1626184a6ef,17.42450512,16.62377022,16.58108483,16.67173875,16.58264618,16.61481,,,,,,,,,,,,,,,,,,,,,,,,,,,,,,,,,,,,,,,,,,,,,,,,,,,,,,,,,,,,,,,,,,,,,,,,,,,,,,,,,,,,,,,,,,,,,,,,,,,,,,,,,,,,,,,,,,
,,,,,,,,,,,,,,,,,,,,,,,,,,,,,,,,,return,5.39014,-155.724,716.8034366,2,0,2,0,1,5f0c675cbe0f365cc5424893,6036d892ee2cade6d4ddf4b9,2021-02-24_22h52.37.493,Colour_Similarity_Experiment,2020.2.10,Win32,60,6036d0d9a84aa1626184a6ef,17.42450512,16.62377022,16.58108483,16.67173875,16.58264618,16.61481,,,,,,,,,,,,,,,,,,,,,,,,,,,,,,,,,,,,,,,,,,,,,,,,,,,,,,,,,,,,,,,,,,,,,,,,,,,,,,,,,,,,,,,,,,,,,,,,,,,,,,,,,,,,,,,,,,
,,,,,,,,,,,,,,,,,,,,,,,,,,,,,,,,,return,5.306985,-145.479,706.3442425,3,0,3,0,1,5f0c675cbe0f365cc5424893,6036d892ee2cade6d4ddf4b9,2021-02-24_22h52.37.493,Colour_Similarity_Experiment,2020.2.10,Win32,60,6036d0d9a84aa1626184a6ef,17.42450512,16.62377022,16.58108483,16.67173875,16.58264618,16.61481,,,,,,,,,,,,,,,,,,,,,,,,,,,,,,,,,,,,,,,,,,,,,,,,,,,,,,,,,,,,,,,,,,,,,,,,,,,,,,,,,,,,,,,,,,,,,,,,,,,,,,,,,,,,,,,,,,
,,,,,,,,,,,,,,,,,,,,,,,,,,,,,,,,,return,5.20817,-133.185,693.7932095,4,0,4,0,1,5f0c675cbe0f365cc5424893,6036d892ee2cade6d4ddf4b9,2021-02-24_22h52.37.493,Colour_Similarity_Experiment,2020.2.10,Win32,60,6036d0d9a84aa1626184a6ef,17.42450512,16.62377022,16.58108483,16.67173875,16.58264618,16.61481,,,,,,,,,,,,,,,,,,,,,,,,,,,,,,,,,,,,,,,,,,,,,,,,,,,,,,,,,,,,,,,,,,,,,,,,,,,,,,,,,,,,,,,,,,,,,,,,,,,,,,,,,,,,,,,,,,
,,,,,,,,,,,,,,,,,,,,,,,,,,,,,,,,,,,,,,,,,,5f0c675cbe0f365cc5424893,6036d892ee2cade6d4ddf4b9,2021-02-24_22h52.37.493,Colour_Similarity_Experiment,2020.2.10,Win32,60,6036d0d9a84aa1626184a6ef,17.42450512,16.62377022,16.58108483,16.67173875,16.58264618,16.61481,71,12.39309167,75.845721,505.63814,50.563814,227.537163,space,5.08932,space,17.566895,space,38.772165,space,7.49071,space,6.126315,space,4.747755,3,PF,strong,3,38,98,1,0,0,response1disk_5,6,7,6.91283,0,-2,1,0,0,rectangle_8,0,-2,1,0,0,5,0,-2,1,0,0,0,0,0,0,1,,,,,,,,,,,,,,,,,,,,,,,,,,,,,,,,,,,,,,,,,,,,,,,,,,,,,,,,,,,,,
,,,,,,,,,,,,,,,,,,,,,,,,,,,,,,,,,,,,,,,,,,5f0c675cbe0f365cc5424893,6036d892ee2cade6d4ddf4b9,2021-02-24_22h52.37.493,Colour_Similarity_Experiment,2020.2.10,Win32,60,6036d0d9a84aa1626184a6ef,17.42450512,16.62377022,16.58108483,16.67173875,16.58264618,16.61481,,,,,,,,,,,,,,,,,,,8,PF,weak,3,31,101,1,0,0,response1disk_5,4,7,7.028335,4,2,1,0,0,rectangle_8,4,2,1,0,0,5,4,2,1,0,0,0,1,1,4,1,,,,,,,,,,,,,,,,,,,,,,,,,,,,,,,,,,,,,,,,,,,,,,,,,,,,,,,,,,,,,
,,,,,,,,,,,,,,,,,,,,,,,,,,,,,,,,,,,,,,,,,,5f0c675cbe0f365cc5424893,6036d892ee2cade6d4ddf4b9,2021-02-24_22h52.37.493,Colour_Similarity_Experiment,2020.2.10,Win32,60,6036d0d9a84aa1626184a6ef,17.42450512,16.62377022,16.58108483,16.67173875,16.58264618,16.61481,,,,,,,,,,,,,,,,,,,1,PF,weak,3,34,101,1,0,0,response1disk_5,7,7,3.75187,3,1,1,0,0,rectangle_8,86,-31,1,0,0,5,-3,-5,1,0,0,0,2,2,1,1,response3disk_7,5,rectangle_4,,,,,,,,,,,,,,,,,,,,,,,,,,,,,,,,,,,,,,,,,,,,,,,,,,,,,,,,,,
,,,,,,,,,,,,,,,,,,,,,,,,,,,,,,,,,,,,,,,,,,5f0c675cbe0f365cc5424893,6036d892ee2cade6d4ddf4b9,2021-02-24_22h52.37.493,Colour_Similarity_Experiment,2020.2.10,Win32,60,6036d0d9a84aa1626184a6ef,17.42450512,16.62377022,16.58108483,16.67173875,16.58264618,16.61481,,,,,,,,,,,,,,,,,,,5,PF,strong,3,37,-101,1,0,0,response3disk_5,2,4,19.3857,0,-6,1,0,0,rectangle_8,0,-6,1,0,0,5,0,-6,1,0,0,0,3,3,2,1,,,,,,,,,,,,,,,,,,,,,,,,,,,,,,,,,,,,,,,,,,,,,,,,,,,,,,,,,,,,,
,,,,,,,,,,,,,,,,,,,,,,,,,,,,,,,,,,,,,,,,,,5f0c675cbe0f365cc5424893,6036d892ee2cade6d4ddf4b9,2021-02-24_22h52.37.493,Colour_Similarity_Experiment,2020.2.10,Win32,60,6036d0d9a84aa1626184a6ef,17.42450512,16.62377022,16.58108483,16.67173875,16.58264618,16.61481,,,,,,,,,,,,,,,,,,,3,PF,weak,3,36,-100,1,0,0,response3disk_5,9,4,3.43337,4,4,1,0,0,rectangle_8,4,4,1,0,0,5,4,4,1,0,0,0,4,4,5,1,,,,,,,,,,,,,,,,,,,,,,,,,,,,,,,,,,,,,,,,,,,,,,,,,,,,,,,,,,,,,
,,,,,,,,,,,,,,,,,,,,,,,,,,,,,,,,,,,,,,,,,,5f0c675cbe0f365cc5424893,6036d892ee2cade6d4ddf4b9,2021-02-24_22h52.37.493,Colour_Similarity_Experiment,2020.2.10,Win32,60,6036d0d9a84aa1626184a6ef,17.42450512,16.62377022,16.58108483,16.67173875,16.58264618,16.61481,,,,,,,,,,,,,,,,,,,8,PF,weak,3,-39,101,1,0,0,response7disk_5,8,0,2.963015,1,-7,1,0,0,rectangle_8,1,-7,1,0,0,5,1,-7,1,0,0,0,5,5,6,1,,,,,,,,,,,,,,,,,,,,,,,,,,,,,,,,,,,,,,,,,,,,,,,,,,,,,,,,,,,,,
,,,,,,,,,,,,,,,,,,,,,,,,,,,,,,,,,,,,,,,,,,5f0c675cbe0f365cc5424893,6036d892ee2cade6d4ddf4b9,2021-02-24_22h52.37.493,Colour_Similarity_Experiment,2020.2.10,Win32,60,6036d0d9a84aa1626184a6ef,17.42450512,16.62377022,16.58108483,16.67173875,16.58264618,16.61481,,,,,,,,,,,,,,,,,,,7,PF,strong,3,-37,-97,1,0,0,response5disk_5,5,3,3.298,-1,-4,1,0,0,rectangle_8,-1,-4,1,0,0,5,-1,-4,1,0,0,0,6,6,3,1,,,,,,,,,,,,,,,,,,,,,,,,,,,,,,,,,,,,,,,,,,,,,,,,,,,,,,,,,,,,,
,,,,,,,,,,,,,,,,,,,,,,,,,,,,,,,,,,,,,,,,,,5f0c675cbe0f365cc5424893,6036d892ee2cade6d4ddf4b9,2021-02-24_22h52.37.493,Colour_Similarity_Experiment,2020.2.10,Win32,60,6036d0d9a84aa1626184a6ef,17.42450512,16.62377022,16.58108483,16.67173875,16.58264618,16.61481,,,,,,,,,,,,,,,,,,,,PF,strong,3,,,,,,,,7,6.365675,,,,,,,,,,,,,,,,,,,,,,,,,,space,5.2008,4,strong,39,99,1,0,0,response1disk,6,1,-5,0,1,0,0,rectangle,-5,0,1,0,0,,2,0,0.001705,-5,0,1,0,0,0,0,0,122,1,,,,,,,,,,,,,,,,,,,,,
,,,,,,,,,,,,,,,,,,,,,,,,,,,,,,,,,,,,,,,,,,5f0c675cbe0f365cc5424893,6036d892ee2cade6d4ddf4b9,2021-02-24_22h52.37.493,Colour_Similarity_Experiment,2020.2.10,Win32,60,6036d0d9a84aa1626184a6ef,17.42450512,16.62377022,16.58108483,16.67173875,16.58264618,16.61481,,,,,,,,,,,,,,,,,,,,PF,strong,3,,,,,,,,5,3.29935,,,,,,,,,,,,,,,,,,,,,,,,,,,,8,strong,80,-33,1,0,0,response3disk,1,2,10,-6,1,0,0,rectangle,10,-6,1,0,0,,6,0,0.001615,10,-6,1,0,0,0,1,1,20,1,,,,,,,,,,,,,,,,,,,,,
,,,,,,,,,,,,,,,,,,,,,,,,,,,,,,,,,,,,,,,,,,5f0c675cbe0f365cc5424893,6036d892ee2cade6d4ddf4b9,2021-02-24_22h52.37.493,Colour_Similarity_Experiment,2020.2.10,Win32,60,6036d0d9a84aa1626184a6ef,17.42450512,16.62377022,16.58108483,16.67173875,16.58264618,16.61481,,,,,,,,,,,,,,,,,,,,PF,strong,3,,,,,,,,5,1.98941,,,,,,,,,,,,,,,,,,,,,,,,,,,,7,strong,73,-29,1,0,0,response3disk,8,3,4,-5,1,0,0,rectangle,40,-101,1,0,0,4,4,1,2.636675,-5,1,1,0,0,0,2,2,97,1,response3disk_3,rectangle,,,,,,,,,,,,,,,,,,,
,,,,,,,,,,,,,,,,,,,,,,,,,,,,,,,,,,,,,,,,,,5f0c675cbe0f365cc5424893,6036d892ee2cade6d4ddf4b9,2021-02-24_22h52.37.493,Colour_Similarity_Experiment,2020.2.10,Win32,60,6036d0d9a84aa1626184a6ef,17.42450512,16.62377022,16.58108483,16.67173875,16.58264618,16.61481,,,,,,,,,,,,,,,,,,,,PF,strong,3,,,,,,,,7,1.833135,,,,,,,,,,,,,,,,,,,,,,,,,,,,7,strong,33,102,1,0,0,response1disk,1,4,1,0,1,0,0,rectangle,1,0,1,0,0,4,4,0,0.00017,1,0,1,0,0,0,3,3,132,1,,,,,,,,,,,,,,,,,,,,,
,,,,,,,,,,,,,,,,,,,,,,,,,,,,,,,,,,,,,,,,,,5f0c675cbe0f365cc5424893,6036d892ee2cade6d4ddf4b9,2021-02-24_22h52.37.493,Colour_Similarity_Experiment,2020.2.10,Win32,60,6036d0d9a84aa1626184a6ef,17.42450512,16.62377022,16.58108483,16.67173875,16.58264618,16.61481,,,,,,,,,,,,,,,,,,,,PF,strong,3,,,,,,,,2,3.2644,,,,,,,,,,,,,,,,,,,,,,,,,,,,5,strong,-83,-33,1,0,0,response5disk,4,5,-1,-3,1,0,0,rectangle,-1,-3,1,0,0,4,6,0,0.001635,-1,-3,1,0,0,0,4,4,8,1,,,,,,,,,,,,,,,,,,,,,
,,,,,,,,,,,,,,,,,,,,,,,,,,,,,,,,,,,,,,,,,,5f0c675cbe0f365cc5424893,6036d892ee2cade6d4ddf4b9,2021-02-24_22h52.37.493,Colour_Similarity_Experiment,2020.2.10,Win32,60,6036d0d9a84aa1626184a6ef,17.42450512,16.62377022,16.58108483,16.67173875,16.58264618,16.61481,,,,,,,,,,,,,,,,,,,,PF,strong,3,,,,,,,,1,2.537115,,,,,,,,,,,,,,,,,,,,,,,,,,,,6,strong,-84,33,1,0,0,response7disk,5,6,3,5,1,0,0,rectangle,3,5,1,0,0,4,3,0,0.001345,3,5,1,0,0,0,5,5,126,1,,,,,,,,,,,,,,,,,,,,,
,,,,,,,,,,,,,,,,,,,,,,,,,,,,,,,,,,,,,,,,,,5f0c675cbe0f365cc5424893,6036d892ee2cade6d4ddf4b9,2021-02-24_22h52.37.493,Colour_Similarity_Experiment,2020.2.10,Win32,60,6036d0d9a84aa1626184a6ef,17.42450512,16.62377022,16.58108483,16.67173875,16.58264618,16.61481,,,,,,,,,,,,,,,,,,,,PF,weak,3,,,,,,,,7,2.9853,,,,,,,,,,,,,,,,,,,,,,,,,,,,7,weak,33,97,1,0,0,response1disk,2,7,-2,5,1,0,0,rectangle,-2,5,1,0,0,4,6,0,0.001245,-2,5,1,0,0,0,6,6,32,1,,,,,,,,,,,,,,,,,,,,,
,,,,,,,,,,,,,,,,,,,,,,,,,,,,,,,,,,,,,,,,,,5f0c675cbe0f365cc5424893,6036d892ee2cade6d4ddf4b9,2021-02-24_22h52.37.493,Colour_Similarity_Experiment,2020.2.10,Win32,60,6036d0d9a84aa1626184a6ef,17.42450512,16.62377022,16.58108483,16.67173875,16.58264618,16.61481,,,,,,,,,,,,,,,,,,,,PF,strong,3,,,,,,,,5,3.067295,,,,,,,,,,,,,,,,,,,,,,,,,,,,3,strong,81,-31,1,0,0,response3disk,9,8,-5,-4,1,0,0,rectangle,-5,-4,1,0,0,4,6,0,0.000155,-5,-4,1,0,0,0,7,7,143,1,,,,,,,,,,,,,,,,,,,,,
,,,,,,,,,,,,,,,,,,,,,,,,,,,,,,,,,,,,,,,,,,5f0c675cbe0f365cc5424893,6036d892ee2cade6d4ddf4b9,2021-02-24_22h52.37.493,Colour_Similarity_Experiment,2020.2.10,Win32,60,6036d0d9a84aa1626184a6ef,17.42450512,16.62377022,16.58108483,16.67173875,16.58264618,16.61481,,,,,,,,,,,,,,,,,,,,PF,strong,3,,,,,,,,7,2.17332,,,,,,,,,,,,,,,,,,,,,,,,,,,,1,strong,33,98,1,0,0,response1disk,5,9,0,-1,1,0,0,rectangle,0,-1,1,0,0,4,2,0,0.00175,0,-1,1,0,0,0,8,8,82,1,,,,,,,,,,,,,,,,,,,,,
,,,,,,,,,,,,,,,,,,,,,,,,,,,,,,,,,,,,,,,,,,5f0c675cbe0f365cc5424893,6036d892ee2cade6d4ddf4b9,2021-02-24_22h52.37.493,Colour_Similarity_Experiment,2020.2.10,Win32,60,6036d0d9a84aa1626184a6ef,17.42450512,16.62377022,16.58108483,16.67173875,16.58264618,16.61481,,,,,,,,,,,,,,,,,,,,PF,strong,3,,,,,,,,6,2.37059,,,,,,,,,,,,,,,,,,,,,,,,,,,,1,strong,100,38,1,0,0,response1disk,8,10,0,1,1,0,0,rectangle,0,1,1,0,0,4,1,0,0.001725,0,1,1,0,0,0,9,9,27,1,,,,,,,,,,,,,,,,,,,,,
,,,,,,,,,,,,,,,,,,,,,,,,,,,,,,,,,,,,,,,,,,5f0c675cbe0f365cc5424893,6036d892ee2cade6d4ddf4b9,2021-02-24_22h52.37.493,Colour_Similarity_Experiment,2020.2.10,Win32,60,6036d0d9a84aa1626184a6ef,17.42450512,16.62377022,16.58108483,16.67173875,16.58264618,16.61481,,,,,,,,,,,,,,,,,,,,PF,weak,3,,,,,,,,6,2.7204,,,,,,,,,,,,,,,,,,,,,,,,,,,,4,weak,102,33,1,0,0,response1disk,2,11,-3,1,1,0,0,rectangle,-3,1,1,0,0,4,0,0,0.00138,-3,1,1,0,0,0,10,10,108,1,,,,,,,,,,,,,,,,,,,,,
,,,,,,,,,,,,,,,,,,,,,,,,,,,,,,,,,,,,,,,,,,5f0c675cbe0f365cc5424893,6036d892ee2cade6d4ddf4b9,2021-02-24_22h52.37.493,Colour_Similarity_Experiment,2020.2.10,Win32,60,6036d0d9a84aa1626184a6ef,17.42450512,16.62377022,16.58108483,16.67173875,16.58264618,16.61481,,,,,,,,,,,,,,,,,,,,PF,strong,3,,,,,,,,6,1.738335,,,,,,,,,,,,,,,,,,,,,,,,,,,,2,strong,99,33,1,0,0,response1disk,6,12,13,2,1,0,0,rectangle,13,2,1,0,0,4,3,0,0.00158,13,2,1,0,0,0,11,11,40,1,,,,,,,,,,,,,,,,,,,,,
,,,,,,,,,,,,,,,,,,,,,,,,,,,,,,,,,,,,,,,,,,5f0c675cbe0f365cc5424893,6036d892ee2cade6d4ddf4b9,2021-02-24_22h52.37.493,Colour_Similarity_Experiment,2020.2.10,Win32,60,6036d0d9a84aa1626184a6ef,17.42450512,16.62377022,16.58108483,16.67173875,16.58264618,16.61481,,,,,,,,,,,,,,,,,,,,PF,weak,3,,,,,,,,7,2.171435,,,,,,,,,,,,,,,,,,,,,,,,,,,,2,weak,41,95,1,0,0,response1disk,7,13,5,-3,1,0,0,rectangle,5,-3,1,0,0,4,1,0,0.00127,5,-3,1,0,0,0,12,12,107,1,,,,,,,,,,,,,,,,,,,,,
,,,,,,,,,,,,,,,,,,,,,,,,,,,,,,,,,,,,,,,,,,5f0c675cbe0f365cc5424893,6036d892ee2cade6d4ddf4b9,2021-02-24_22h52.37.493,Colour_Similarity_Experiment,2020.2.10,Win32,60,6036d0d9a84aa1626184a6ef,17.42450512,16.62377022,16.58108483,16.67173875,16.58264618,16.61481,,,,,,,,,,,,,,,,,,,,PF,strong,3,,,,,,,,7,1.73921,,,,,,,,,,,,,,,,,,,,,,,,,,,,8,strong,37,92,1,0,0,response1disk,2,14,-6,1,1,0,0,rectangle,-6,1,1,0,0,4,5,0,0.00185,-6,1,1,0,0,0,13,13,22,1,,,,,,,,,,,,,,,,,,,,,
,,,,,,,,,,,,,,,,,,,,,,,,,,,,,,,,,,,,,,,,,,5f0c675cbe0f365cc5424893,6036d892ee2cade6d4ddf4b9,2021-02-24_22h52.37.493,Colour_Similarity_Experiment,2020.2.10,Win32,60,6036d0d9a84aa1626184a6ef,17.42450512,16.62377022,16.58108483,16.67173875,16.58264618,16.61481,,,,,,,,,,,,,,,,,,,,PF,weak,3,,,,,,,,6,3.97694,,,,,,,,,,,,,,,,,,,,,,,,,,,,9,weak,94,33,1,0,0,response1disk,2,15,9,-1,1,0,0,rectangle,9,-1,1,0,0,4,4,0,0.001155,9,-1,1,0,0,0,14,14,157,1,,,,,,,,,,,,,,,,,,,,,
,,,,,,,,,,,,,,,,,,,,,,,,,,,,,,,,,,,,,,,,,,5f0c675cbe0f365cc5424893,6036d892ee2cade6d4ddf4b9,2021-02-24_22h52.37.493,Colour_Similarity_Experiment,2020.2.10,Win32,60,6036d0d9a84aa1626184a6ef,17.42450512,16.62377022,16.58108483,16.67173875,16.58264618,16.61481,,,,,,,,,,,,,,,,,,,,PF,weak,3,,,,,,,,0,3.337595,,,,,,,,,,,,,,,,,,,,,,,,,,,,6,weak,-38,100,1,0,0,response7disk,6,16,3,-4,1,0,0,rectangle,3,-4,1,0,0,4,7,0,0.001435,3,-4,1,0,0,0,15,15,0,1,,,,,,,,,,,,,,,,,,,,,
,,,,,,,,,,,,,,,,,,,,,,,,,,,,,,,,,,,,,,,,,,5f0c675cbe0f365cc5424893,6036d892ee2cade6d4ddf4b9,2021-02-24_22h52.37.493,Colour_Similarity_Experiment,2020.2.10,Win32,60,6036d0d9a84aa1626184a6ef,17.42450512,16.62377022,16.58108483,16.67173875,16.58264618,16.61481,,,,,,,,,,,,,,,,,,,,PF,strong,3,,,,,,,,1,2.29322,,,,,,,,,,,,,,,,,,,,,,,,,,,,7,strong,-81,32,1,0,0,response7disk,5,17,-6,-3,1,0,0,rectangle,-6,-3,1,0,0,4,1,0,0.00093,-6,-3,1,0,0,0,16,16,156,1,,,,,,,,,,,,,,,,,,,,,
,,,,,,,,,,,,,,,,,,,,,,,,,,,,,,,,,,,,,,,,,,5f0c675cbe0f365cc5424893,6036d892ee2cade6d4ddf4b9,2021-02-24_22h52.37.493,Colour_Similarity_Experiment,2020.2.10,Win32,60,6036d0d9a84aa1626184a6ef,17.42450512,16.62377022,16.58108483,16.67173875,16.58264618,16.61481,,,,,,,,,,,,,,,,,,,,PF,weak,3,,,,,,,,3,3.196795,,,,,,,,,,,,,,,,,,,,,,,,,,,,6,weak,-41,-91,1,0,0,response5disk,4,18,-2,1,1,0,0,rectangle,-2,1,1,0,0,4,0,0,0.00126,-2,1,1,0,0,0,17,17,33,1,,,,,,,,,,,,,,,,,,,,,
,,,,,,,,,,,,,,,,,,,,,,,,,,,,,,,,,,,,,,,,,,5f0c675cbe0f365cc5424893,6036d892ee2cade6d4ddf4b9,2021-02-24_22h52.37.493,Colour_Similarity_Experiment,2020.2.10,Win32,60,6036d0d9a84aa1626184a6ef,17.42450512,16.62377022,16.58108483,16.67173875,16.58264618,16.61481,,,,,,,,,,,,,,,,,,,,PF,strong,3,,,,,,,,5,2.93513,,,,,,,,,,,,,,,,,,,,,,,,,,,,6,strong,75,-31,1,0,0,response3disk,8,19,-4,-4,1,0,0,rectangle,-4,-4,1,0,0,4,1,0,0.00141,-4,-4,1,0,0,0,18,18,133,1,,,,,,,,,,,,,,,,,,,,,
,,,,,,,,,,,,,,,,,,,,,,,,,,,,,,,,,,,,,,,,,,5f0c675cbe0f365cc5424893,6036d892ee2cade6d4ddf4b9,2021-02-24_22h52.37.493,Colour_Similarity_Experiment,2020.2.10,Win32,60,6036d0d9a84aa1626184a6ef,17.42450512,16.62377022,16.58108483,16.67173875,16.58264618,16.61481,,,,,,,,,,,,,,,,,,,,PF,strong,3,,,,,,,,7,1.840755,,,,,,,,,,,,,,,,,,,,,,,,,,,,2,strong,37,96,1,0,0,response1disk,4,20,5,0,1,0,0,rectangle,5,0,1,0,0,4,7,0,0.00114,5,0,1,0,0,0,19,19,145,1,,,,,,,,,,,,,,,,,,,,,
,,,,,,,,,,,,,,,,,,,,,,,,,,,,,,,,,,,,,,,,,,5f0c675cbe0f365cc5424893,6036d892ee2cade6d4ddf4b9,2021-02-24_22h52.37.493,Colour_Similarity_Experiment,2020.2.10,Win32,60,6036d0d9a84aa1626184a6ef,17.42450512,16.62377022,16.58108483,16.67173875,16.58264618,16.61481,,,,,,,,,,,,,,,,,,,,PF,weak,3,,,,,,,,2,3.581935,,,,,,,,,,,,,,,,,,,,,,,,,,,,8,weak,-86,-33,1,0,0,response5disk,9,21,-6,-1,1,0,0,rectangle,-6,-1,1,0,0,4,1,0,0.001285,-6,-1,1,0,0,0,20,20,42,1,,,,,,,,,,,,,,,,,,,,,
,,,,,,,,,,,,,,,,,,,,,,,,,,,,,,,,,,,,,,,,,,5f0c675cbe0f365cc5424893,6036d892ee2cade6d4ddf4b9,2021-02-24_22h52.37.493,Colour_Similarity_Experiment,2020.2.10,Win32,60,6036d0d9a84aa1626184a6ef,17.42450512,16.62377022,16.58108483,16.67173875,16.58264618,16.61481,,,,,,,,,,,,,,,,,,,,PF,strong,3,,,,,,,,2,1.591965,,,,,,,,,,,,,,,,,,,,,,,,,,,,5,strong,-78,-36,1,0,0,response5disk,8,22,6,-4,1,0,0,rectangle,6,-4,1,0,0,4,2,0,0.00275,6,-4,1,0,0,0,21,21,16,1,,,,,,,,,,,,,,,,,,,,,
,,,,,,,,,,,,,,,,,,,,,,,,,,,,,,,,,,,,,,,,,,5f0c675cbe0f365cc5424893,6036d892ee2cade6d4ddf4b9,2021-02-24_22h52.37.493,Colour_Similarity_Experiment,2020.2.10,Win32,60,6036d0d9a84aa1626184a6ef,17.42450512,16.62377022,16.58108483,16.67173875,16.58264618,16.61481,,,,,,,,,,,,,,,,,,,,PF,strong,3,,,,,,,,5,2.785855,,,,,,,,,,,,,,,,,,,,,,,,,,,,1,strong,77,-24,1,0,0,response3disk,2,23,9,-1,1,0,0,rectangle,9,-1,1,0,0,4,0,0,0.001915,9,-1,1,0,0,0,22,22,2,1,,,,,,,,,,,,,,,,,,,,,
,,,,,,,,,,,,,,,,,,,,,,,,,,,,,,,,,,,,,,,,,,5f0c675cbe0f365cc5424893,6036d892ee2cade6d4ddf4b9,2021-02-24_22h52.37.493,Colour_Similarity_Experiment,2020.2.10,Win32,60,6036d0d9a84aa1626184a6ef,17.42450512,16.62377022,16.58108483,16.67173875,16.58264618,16.61481,,,,,,,,,,,,,,,,,,,,PF,weak,3,,,,,,,,0,1.92342,,,,,,,,,,,,,,,,,,,,,,,,,,,,3,weak,-43,101,1,0,0,response7disk,3,24,2,0,1,0,0,rectangle,2,0,1,0,0,4,1,0,0.00108,2,0,1,0,0,0,23,23,4,1,,,,,,,,,,,,,,,,,,,,,
,,,,,,,,,,,,,,,,,,,,,,,,,,,,,,,,,,,,,,,,,,5f0c675cbe0f365cc5424893,6036d892ee2cade6d4ddf4b9,2021-02-24_22h52.37.493,Colour_Similarity_Experiment,2020.2.10,Win32,60,6036d0d9a84aa1626184a6ef,17.42450512,16.62377022,16.58108483,16.67173875,16.58264618,16.61481,,,,,,,,,,,,,,,,,,,,PF,weak,3,,,,,,,,0,4.195095,,,,,,,,,,,,,,,,,,,,,,,,,,,,4,weak,-39,95,1,0,0,response7disk,4,25,-3,5,1,0,0,rectangle,-3,5,1,0,0,4,1,0,0.00171,-3,5,1,0,0,0,24,24,70,1,,,,,,,,,,,,,,,,,,,,,
,,,,,,,,,,,,,,,,,,,,,,,,,,,,,,,,,,,,,,,,,,5f0c675cbe0f365cc5424893,6036d892ee2cade6d4ddf4b9,2021-02-24_22h52.37.493,Colour_Similarity_Experiment,2020.2.10,Win32,60,6036d0d9a84aa1626184a6ef,17.42450512,16.62377022,16.58108483,16.67173875,16.58264618,16.61481,,,,,,,,,,,,,,,,,,,,PF,strong,3,,,,,,,,0,1.51726,,,,,,,,,,,,,,,,,,,,,,,,,,,,9,strong,-45,104,1,0,0,response7disk,9,26,-1,3,1,0,0,rectangle,-1,3,1,0,0,4,3,0,0.001585,-1,3,1,0,0,0,25,25,17,1,,,,,,,,,,,,,,,,,,,,,
,,,,,,,,,,,,,,,,,,,,,,,,,,,,,,,,,,,,,,,,,,5f0c675cbe0f365cc5424893,6036d892ee2cade6d4ddf4b9,2021-02-24_22h52.37.493,Colour_Similarity_Experiment,2020.2.10,Win32,60,6036d0d9a84aa1626184a6ef,17.42450512,16.62377022,16.58108483,16.67173875,16.58264618,16.61481,,,,,,,,,,,,,,,,,,,,PF,weak,3,,,,,,,,7,1.29178,,,,,,,,,,,,,,,,,,,,,,,,,,,,7,weak,34,94,1,0,0,response1disk,4,27,-4,3,1,0,0,rectangle,-4,3,1,0,0,4,6,0,0.00133,-4,3,1,0,0,0,26,26,43,1,,,,,,,,,,,,,,,,,,,,,
,,,,,,,,,,,,,,,,,,,,,,,,,,,,,,,,,,,,,,,,,,5f0c675cbe0f365cc5424893,6036d892ee2cade6d4ddf4b9,2021-02-24_22h52.37.493,Colour_Similarity_Experiment,2020.2.10,Win32,60,6036d0d9a84aa1626184a6ef,17.42450512,16.62377022,16.58108483,16.67173875,16.58264618,16.61481,,,,,,,,,,,,,,,,,,,,PF,strong,3,,,,,,,,2,2.237735,,,,,,,,,,,,,,,,,,,,,,,,,,,,1,strong,-75,-38,1,0,0,response5disk,9,28,-5,-1,1,0,0,rectangle,-5,-1,1,0,0,4,0,0,0.0015,-5,-1,1,0,0,0,27,27,123,1,,,,,,,,,,,,,,,,,,,,,
,,,,,,,,,,,,,,,,,,,,,,,,,,,,,,,,,,,,,,,,,,5f0c675cbe0f365cc5424893,6036d892ee2cade6d4ddf4b9,2021-02-24_22h52.37.493,Colour_Similarity_Experiment,2020.2.10,Win32,60,6036d0d9a84aa1626184a6ef,17.42450512,16.62377022,16.58108483,16.67173875,16.58264618,16.61481,,,,,,,,,,,,,,,,,,,,PF,strong,3,,,,,,,,4,2.285335,,,,,,,,,,,,,,,,,,,,,,,,,,,,9,strong,37,-79,1,0,0,response3disk,2,29,1,-2,1,0,0,rectangle,97,40,1,0,0,6,6,1,2.504095,-10,0,1,0,0,0,28,28,11,1,response1disk_3,rectangle,,,,,,,,,,,,,,,,,,,
,,,,,,,,,,,,,,,,,,,,,,,,,,,,,,,,,,,,,,,,,,5f0c675cbe0f365cc5424893,6036d892ee2cade6d4ddf4b9,2021-02-24_22h52.37.493,Colour_Similarity_Experiment,2020.2.10,Win32,60,6036d0d9a84aa1626184a6ef,17.42450512,16.62377022,16.58108483,16.67173875,16.58264618,16.61481,,,,,,,,,,,,,,,,,,,,PF,weak,3,,,,,,,,6,1.626275,,,,,,,,,,,,,,,,,,,,,,,,,,,,6,weak,77,43,1,0,0,response1disk,3,30,-2,6,1,0,0,rectangle,-2,6,1,0,0,6,6,0,0.000185,-2,6,1,0,0,0,29,29,26,1,,,,,,,,,,,,,,,,,,,,,
,,,,,,,,,,,,,,,,,,,,,,,,,,,,,,,,,,,,,,,,,,5f0c675cbe0f365cc5424893,6036d892ee2cade6d4ddf4b9,2021-02-24_22h52.37.493,Colour_Similarity_Experiment,2020.2.10,Win32,60,6036d0d9a84aa1626184a6ef,17.42450512,16.62377022,16.58108483,16.67173875,16.58264618,16.61481,,,,,,,,,,,,,,,,,,,,PF,strong,3,,,,,,,,7,1.146415,,,,,,,,,,,,,,,,,,,,,,,,,,,,3,strong,35,81,1,0,0,response1disk,1,31,-2,6,1,0,0,rectangle,-2,6,1,0,0,6,5,0,0.0009,-2,6,1,0,0,0,30,30,125,1,,,,,,,,,,,,,,,,,,,,,
,,,,,,,,,,,,,,,,,,,,,,,,,,,,,,,,,,,,,,,,,,5f0c675cbe0f365cc5424893,6036d892ee2cade6d4ddf4b9,2021-02-24_22h52.37.493,Colour_Similarity_Experiment,2020.2.10,Win32,60,6036d0d9a84aa1626184a6ef,17.42450512,16.62377022,16.58108483,16.67173875,16.58264618,16.61481,,,,,,,,,,,,,,,,,,,,PF,weak,3,,,,,,,,6,2.76906,,,,,,,,,,,,,,,,,,,,,,,,,,,,6,weak,73,33,1,0,0,response1disk,9,32,-5,-3,1,0,0,rectangle,-5,-3,1,0,0,6,2,0,0.00111,-5,-3,1,0,0,0,31,31,45,1,,,,,,,,,,,,,,,,,,,,,
,,,,,,,,,,,,,,,,,,,,,,,,,,,,,,,,,,,,,,,,,,5f0c675cbe0f365cc5424893,6036d892ee2cade6d4ddf4b9,2021-02-24_22h52.37.493,Colour_Similarity_Experiment,2020.2.10,Win32,60,6036d0d9a84aa1626184a6ef,17.42450512,16.62377022,16.58108483,16.67173875,16.58264618,16.61481,,,,,,,,,,,,,,,,,,,,PF,weak,3,,,,,,,,3,1.82266,,,,,,,,,,,,,,,,,,,,,,,,,,,,5,weak,-30,-84,1,0,0,response5disk,7,33,3,-4,1,0,0,rectangle,3,-4,1,0,0,6,1,0,0.00146,3,-4,1,0,0,0,32,32,146,1,,,,,,,,,,,,,,,,,,,,,
,,,,,,,,,,,,,,,,,,,,,,,,,,,,,,,,,,,,,,,,,,5f0c675cbe0f365cc5424893,6036d892ee2cade6d4ddf4b9,2021-02-24_22h52.37.493,Colour_Similarity_Experiment,2020.2.10,Win32,60,6036d0d9a84aa1626184a6ef,17.42450512,16.62377022,16.58108483,16.67173875,16.58264618,16.61481,,,,,,,,,,,,,,,,,,,,PF,strong,3,,,,,,,,7,2.998,,,,,,,,,,,,,,,,,,,,,,,,,,,,2,strong,36,67,1,0,0,response1disk,5,34,3,10,1,0,0,rectangle,3,10,1,0,0,6,4,0,0.001,3,10,1,0,0,0,33,33,80,1,,,,,,,,,,,,,,,,,,,,,
,,,,,,,,,,,,,,,,,,,,,,,,,,,,,,,,,,,,,,,,,,5f0c675cbe0f365cc5424893,6036d892ee2cade6d4ddf4b9,2021-02-24_22h52.37.493,Colour_Similarity_Experiment,2020.2.10,Win32,60,6036d0d9a84aa1626184a6ef,17.42450512,16.62377022,16.58108483,16.67173875,16.58264618,16.61481,,,,,,,,,,,,,,,,,,,,PF,strong,3,,,,,,,,7,1.247545,,,,,,,,,,,,,,,,,,,,,,,,,,,,6,strong,21,88,1,0,0,response1disk,1,35,-4,4,1,0,0,rectangle,-4,4,1,0,0,6,2,0,0.00194,-4,4,1,0,0,0,34,34,5,1,,,,,,,,,,,,,,,,,,,,,
,,,,,,,,,,,,,,,,,,,,,,,,,,,,,,,,,,,,,,,,,,5f0c675cbe0f365cc5424893,6036d892ee2cade6d4ddf4b9,2021-02-24_22h52.37.493,Colour_Similarity_Experiment,2020.2.10,Win32,60,6036d0d9a84aa1626184a6ef,17.42450512,16.62377022,16.58108483,16.67173875,16.58264618,16.61481,,,,,,,,,,,,,,,,,,,,PF,weak,3,,,,,,,,7,2.2927,,,,,,,,,,,,,,,,,,,,,,,,,,,,2,weak,36,84,1,0,0,response1disk,6,36,1,2,1,0,0,rectangle,1,2,1,0,0,6,0,0,0.00124,1,2,1,0,0,0,35,35,113,1,,,,,,,,,,,,,,,,,,,,,
,,,,,,,,,,,,,,,,,,,,,,,,,,,,,,,,,,,,,,,,,,5f0c675cbe0f365cc5424893,6036d892ee2cade6d4ddf4b9,2021-02-24_22h52.37.493,Colour_Similarity_Experiment,2020.2.10,Win32,60,6036d0d9a84aa1626184a6ef,17.42450512,16.62377022,16.58108483,16.67173875,16.58264618,16.61481,,,,,,,,,,,,,,,,,,,,PF,weak,3,,,,,,,,3,2.018525,,,,,,,,,,,,,,,,,,,,,,,,,,,,1,weak,-45,-89,1,0,0,response5disk,9,37,0,-7,1,0,0,rectangle,0,-7,1,0,0,6,5,0,0.001495,0,-7,1,0,0,0,36,36,15,1,,,,,,,,,,,,,,,,,,,,,
,,,,,,,,,,,,,,,,,,,,,,,,,,,,,,,,,,,,,,,,,,5f0c675cbe0f365cc5424893,6036d892ee2cade6d4ddf4b9,2021-02-24_22h52.37.493,Colour_Similarity_Experiment,2020.2.10,Win32,60,6036d0d9a84aa1626184a6ef,17.42450512,16.62377022,16.58108483,16.67173875,16.58264618,16.61481,,,,,,,,,,,,,,,,,,,,PF,weak,3,,,,,,,,1,1.588155,,,,,,,,,,,,,,,,,,,,,,,,,,,,6,weak,-79,35,1,0,0,response7disk,5,38,-4,2,1,0,0,rectangle,-4,2,1,0,0,6,6,0,0.001205,-4,2,1,0,0,0,37,37,59,1,,,,,,,,,,,,,,,,,,,,,
,,,,,,,,,,,,,,,,,,,,,,,,,,,,,,,,,,,,,,,,,,5f0c675cbe0f365cc5424893,6036d892ee2cade6d4ddf4b9,2021-02-24_22h52.37.493,Colour_Similarity_Experiment,2020.2.10,Win32,60,6036d0d9a84aa1626184a6ef,17.42450512,16.62377022,16.58108483,16.67173875,16.58264618,16.61481,,,,,,,,,,,,,,,,,,,,PF,weak,3,,,,,,,,7,1.160175,,,,,,,,,,,,,,,,,,,,,,,,,,,,4,weak,49,85,1,0,0,response1disk,9,39,-5,-11,1,0,0,rectangle,-5,-11,1,0,0,6,7,0,0.00112,-5,-11,1,0,0,0,38,38,75,1,,,,,,,,,,,,,,,,,,,,,
,,,,,,,,,,,,,,,,,,,,,,,,,,,,,,,,,,,,,,,,,,5f0c675cbe0f365cc5424893,6036d892ee2cade6d4ddf4b9,2021-02-24_22h52.37.493,Colour_Similarity_Experiment,2020.2.10,Win32,60,6036d0d9a84aa1626184a6ef,17.42450512,16.62377022,16.58108483,16.67173875,16.58264618,16.61481,,,,,,,,,,,,,,,,,,,,PF,weak,3,,,,,,,,0,1.09168,,,,,,,,,,,,,,,,,,,,,,,,,,,,7,weak,-45,79,1,0,0,response7disk,7,40,-4,-10,1,0,0,rectangle,-4,-10,1,0,0,6,2,0,0.000905,-4,-10,1,0,0,0,39,39,51,1,,,,,,,,,,,,,,,,,,,,,
,,,,,,,,,,,,,,,,,,,,,,,,,,,,,,,,,,,,,,,,,,5f0c675cbe0f365cc5424893,6036d892ee2cade6d4ddf4b9,2021-02-24_22h52.37.493,Colour_Similarity_Experiment,2020.2.10,Win32,60,6036d0d9a84aa1626184a6ef,17.42450512,16.62377022,16.58108483,16.67173875,16.58264618,16.61481,,,,,,,,,,,,,,,,,,,,PF,strong,3,,,,,,,,7,1.297665,,,,,,,,,,,,,,,,,,,,,,,,,,,,8,strong,31,77,1,0,0,response1disk,3,41,-6,-2,1,0,0,rectangle,-6,-2,1,0,0,6,4,0,0.00116,-6,-2,1,0,0,0,40,40,154,1,,,,,,,,,,,,,,,,,,,,,
,,,,,,,,,,,,,,,,,,,,,,,,,,,,,,,,,,,,,,,,,,5f0c675cbe0f365cc5424893,6036d892ee2cade6d4ddf4b9,2021-02-24_22h52.37.493,Colour_Similarity_Experiment,2020.2.10,Win32,60,6036d0d9a84aa1626184a6ef,17.42450512,16.62377022,16.58108483,16.67173875,16.58264618,16.61481,,,,,,,,,,,,,,,,,,,,PF,weak,3,,,,,,,,7,1.164855,,,,,,,,,,,,,,,,,,,,,,,,,,,,1,weak,36,69,1,0,0,response1disk,7,42,1,-3,1,0,0,rectangle,1,-3,1,0,0,6,2,0,0.001105,1,-3,1,0,0,0,41,41,150,1,,,,,,,,,,,,,,,,,,,,,
,,,,,,,,,,,,,,,,,,,,,,,,,,,,,,,,,,,,,,,,,,5f0c675cbe0f365cc5424893,6036d892ee2cade6d4ddf4b9,2021-02-24_22h52.37.493,Colour_Similarity_Experiment,2020.2.10,Win32,60,6036d0d9a84aa1626184a6ef,17.42450512,16.62377022,16.58108483,16.67173875,16.58264618,16.61481,,,,,,,,,,,,,,,,,,,,PF,strong,3,,,,,,,,1,1.840495,,,,,,,,,,,,,,,,,,,,,,,,,,,,7,strong,-78,32,1,0,0,response7disk,6,43,-14,4,1,0,0,rectangle,-14,4,1,0,0,6,3,0,0.001065,-14,4,1,0,0,0,42,42,31,1,,,,,,,,,,,,,,,,,,,,,
,,,,,,,,,,,,,,,,,,,,,,,,,,,,,,,,,,,,,,,,,,5f0c675cbe0f365cc5424893,6036d892ee2cade6d4ddf4b9,2021-02-24_22h52.37.493,Colour_Similarity_Experiment,2020.2.10,Win32,60,6036d0d9a84aa1626184a6ef,17.42450512,16.62377022,16.58108483,16.67173875,16.58264618,16.61481,,,,,,,,,,,,,,,,,,,,PF,weak,3,,,,,,,,7,2.489815,,,,,,,,,,,,,,,,,,,,,,,,,,,,4,weak,24,90,1,0,0,response1disk,6,44,-10,1,1,0,0,rectangle,-10,1,1,0,0,6,1,0,0.00117,-10,1,1,0,0,0,43,43,120,1,,,,,,,,,,,,,,,,,,,,,
,,,,,,,,,,,,,,,,,,,,,,,,,,,,,,,,,,,,,,,,,,5f0c675cbe0f365cc5424893,6036d892ee2cade6d4ddf4b9,2021-02-24_22h52.37.493,Colour_Similarity_Experiment,2020.2.10,Win32,60,6036d0d9a84aa1626184a6ef,17.42450512,16.62377022,16.58108483,16.67173875,16.58264618,16.61481,,,,,,,,,,,,,,,,,,,,PF,weak,3,,,,,,,,5,1.73795,,,,,,,,,,,,,,,,,,,,,,,,,,,,2,weak,80,-41,1,0,0,response3disk,5,45,5,-1,1,0,0,rectangle,5,-1,1,0,0,6,4,0,0.001205,5,-1,1,0,0,0,44,44,147,1,,,,,,,,,,,,,,,,,,,,,
,,,,,,,,,,,,,,,,,,,,,,,,,,,,,,,,,,,,,,,,,,5f0c675cbe0f365cc5424893,6036d892ee2cade6d4ddf4b9,2021-02-24_22h52.37.493,Colour_Similarity_Experiment,2020.2.10,Win32,60,6036d0d9a84aa1626184a6ef,17.42450512,16.62377022,16.58108483,16.67173875,16.58264618,16.61481,,,,,,,,,,,,,,,,,,,,PF,strong,3,,,,,,,,3,3.76371,,,,,,,,,,,,,,,,,,,,,,,,,,,,8,strong,-47,-94,1,0,0,response5disk,9,46,-8,-7,1,0,0,rectangle,-8,-7,1,0,0,6,0,0,0.001245,-8,-7,1,0,0,0,45,45,105,1,,,,,,,,,,,,,,,,,,,,,
,,,,,,,,,,,,,,,,,,,,,,,,,,,,,,,,,,,,,,,,,,5f0c675cbe0f365cc5424893,6036d892ee2cade6d4ddf4b9,2021-02-24_22h52.37.493,Colour_Similarity_Experiment,2020.2.10,Win32,60,6036d0d9a84aa1626184a6ef,17.42450512,16.62377022,16.58108483,16.67173875,16.58264618,16.61481,,,,,,,,,,,,,,,,,,,,PF,strong,3,,,,,,,,5,2.88338,,,,,,,,,,,,,,,,,,,,,,,,,,,,9,strong,66,-29,1,0,0,response3disk,3,47,-4,-6,1,0,0,rectangle,-4,-6,1,0,0,6,1,0,0.00135,-4,-6,1,0,0,0,46,46,141,1,,,,,,,,,,,,,,,,,,,,,
,,,,,,,,,,,,,,,,,,,,,,,,,,,,,,,,,,,,,,,,,,5f0c675cbe0f365cc5424893,6036d892ee2cade6d4ddf4b9,2021-02-24_22h52.37.493,Colour_Similarity_Experiment,2020.2.10,Win32,60,6036d0d9a84aa1626184a6ef,17.42450512,16.62377022,16.58108483,16.67173875,16.58264618,16.61481,,,,,,,,,,,,,,,,,,,,PF,weak,3,,,,,,,,3,2.41992,,,,,,,,,,,,,,,,,,,,,,,,,,,,8,weak,-38,-84,1,0,0,response5disk,6,48,3,-9,1,0,0,rectangle,-76,38,1,0,0,1,1,1,1.842285,-1,2,1,0,0,0,47,47,161,1,response7disk_3,rectangle,,,,,,,,,,,,,,,,,,,
,,,,,,,,,,,,,,,,,,,,,,,,,,,,,,,,,,,,,,,,,,5f0c675cbe0f365cc5424893,6036d892ee2cade6d4ddf4b9,2021-02-24_22h52.37.493,Colour_Similarity_Experiment,2020.2.10,Win32,60,6036d0d9a84aa1626184a6ef,17.42450512,16.62377022,16.58108483,16.67173875,16.58264618,16.61481,,,,,,,,,,,,,,,,,,,,PF,strong,3,,,,,,,,7,2.78998,,,,,,,,,,,,,,,,,,,,,,,,,,,,9,strong,26,75,1,0,0,response1disk,7,49,-10,2,1,0,0,rectangle,-10,2,1,0,0,1,2,0,0.001295,-10,2,1,0,0,0,48,48,100,1,,,,,,,,,,,,,,,,,,,,,
,,,,,,,,,,,,,,,,,,,,,,,,,,,,,,,,,,,,,,,,,,5f0c675cbe0f365cc5424893,6036d892ee2cade6d4ddf4b9,2021-02-24_22h52.37.493,Colour_Similarity_Experiment,2020.2.10,Win32,60,6036d0d9a84aa1626184a6ef,17.42450512,16.62377022,16.58108483,16.67173875,16.58264618,16.61481,,,,,,,,,,,,,,,,,,,,PF,weak,3,,,,,,,,2,2.193135,,,,,,,,,,,,,,,,,,,,,,,,,,,,2,weak,-68,-31,1,0,0,response5disk,3,50,0,-4,1,0,0,rectangle,0,-4,1,0,0,1,6,0,0.001195,0,-4,1,0,0,0,49,49,69,1,,,,,,,,,,,,,,,,,,,,,
,,,,,,,,,,,,,,,,,,,,,,,,,,,,,,,,,,,,,,,,,,5f0c675cbe0f365cc5424893,6036d892ee2cade6d4ddf4b9,2021-02-24_22h52.37.493,Colour_Similarity_Experiment,2020.2.10,Win32,60,6036d0d9a84aa1626184a6ef,17.42450512,16.62377022,16.58108483,16.67173875,16.58264618,16.61481,,,,,,,,,,,,,,,,,,,,PF,strong,3,,,,,,,,1,1.995045,,,,,,,,,,,,,,,,,,,,,,,,,,,,9,strong,-75,30,1,0,0,response7disk,8,51,7,7,1,0,0,rectangle,7,7,1,0,0,1,7,0,0.001115,7,7,1,0,0,0,50,50,6,1,,,,,,,,,,,,,,,,,,,,,
,,,,,,,,,,,,,,,,,,,,,,,,,,,,,,,,,,,,,,,,,,5f0c675cbe0f365cc5424893,6036d892ee2cade6d4ddf4b9,2021-02-24_22h52.37.493,Colour_Similarity_Experiment,2020.2.10,Win32,60,6036d0d9a84aa1626184a6ef,17.42450512,16.62377022,16.58108483,16.67173875,16.58264618,16.61481,,,,,,,,,,,,,,,,,,,,PF,weak,3,,,,,,,,2,1.425775,,,,,,,,,,,,,,,,,,,,,,,,,,,,8,weak,-75,-29,1,0,0,response5disk,3,52,-8,-2,1,0,0,rectangle,-8,-2,1,0,0,1,3,0,0.001405,-8,-2,1,0,0,0,51,51,71,1,,,,,,,,,,,,,,,,,,,,,
,,,,,,,,,,,,,,,,,,,,,,,,,,,,,,,,,,,,,,,,,,5f0c675cbe0f365cc5424893,6036d892ee2cade6d4ddf4b9,2021-02-24_22h52.37.493,Colour_Similarity_Experiment,2020.2.10,Win32,60,6036d0d9a84aa1626184a6ef,17.42450512,16.62377022,16.58108483,16.67173875,16.58264618,16.61481,,,,,,,,,,,,,,,,,,,,PF,strong,3,,,,,,,,7,1.30993,,,,,,,,,,,,,,,,,,,,,,,,,,,,2,strong,31,82,1,0,0,response1disk,1,53,-13,-3,1,0,0,rectangle,-13,-3,1,0,0,1,5,0,0.00134,-13,-3,1,0,0,0,52,52,85,1,,,,,,,,,,,,,,,,,,,,,
,,,,,,,,,,,,,,,,,,,,,,,,,,,,,,,,,,,,,,,,,,5f0c675cbe0f365cc5424893,6036d892ee2cade6d4ddf4b9,2021-02-24_22h52.37.493,Colour_Similarity_Experiment,2020.2.10,Win32,60,6036d0d9a84aa1626184a6ef,17.42450512,16.62377022,16.58108483,16.67173875,16.58264618,16.61481,,,,,,,,,,,,,,,,,,,,PF,weak,3,,,,,,,,7,3.647935,,,,,,,,,,,,,,,,,,,,,,,,,,,,4,weak,36,64,1,0,0,response1disk,8,54,7,2,1,0,0,rectangle,7,2,1,0,0,1,0,0,0.00144,7,2,1,0,0,0,53,53,124,1,,,,,,,,,,,,,,,,,,,,,
,,,,,,,,,,,,,,,,,,,,,,,,,,,,,,,,,,,,,,,,,,5f0c675cbe0f365cc5424893,6036d892ee2cade6d4ddf4b9,2021-02-24_22h52.37.493,Colour_Similarity_Experiment,2020.2.10,Win32,60,6036d0d9a84aa1626184a6ef,17.42450512,16.62377022,16.58108483,16.67173875,16.58264618,16.61481,,,,,,,,,,,,,,,,,,,,PF,strong,3,,,,,,,,7,1.160005,,,,,,,,,,,,,,,,,,,,,,,,,,,,6,strong,28,64,1,0,0,response1disk,4,55,1,6,1,0,0,rectangle,1,6,1,0,0,1,6,0,0.001205,1,6,1,0,0,0,54,54,56,1,,,,,,,,,,,,,,,,,,,,,
,,,,,,,,,,,,,,,,,,,,,,,,,,,,,,,,,,,,,,,,,,5f0c675cbe0f365cc5424893,6036d892ee2cade6d4ddf4b9,2021-02-24_22h52.37.493,Colour_Similarity_Experiment,2020.2.10,Win32,60,6036d0d9a84aa1626184a6ef,17.42450512,16.62377022,16.58108483,16.67173875,16.58264618,16.61481,,,,,,,,,,,,,,,,,,,,PF,strong,3,,,,,,,,5,3.084165,,,,,,,,,,,,,,,,,,,,,,,,,,,,7,strong,84,-27,1,0,0,response3disk,9,56,3,-1,1,0,0,rectangle,3,-1,1,0,0,1,1,0,0.00111,3,-1,1,0,0,0,55,55,155,1,,,,,,,,,,,,,,,,,,,,,
,,,,,,,,,,,,,,,,,,,,,,,,,,,,,,,,,,,,,,,,,,5f0c675cbe0f365cc5424893,6036d892ee2cade6d4ddf4b9,2021-02-24_22h52.37.493,Colour_Similarity_Experiment,2020.2.10,Win32,60,6036d0d9a84aa1626184a6ef,17.42450512,16.62377022,16.58108483,16.67173875,16.58264618,16.61481,,,,,,,,,,,,,,,,,,,,PF,strong,3,,,,,,,,0,1.47604,,,,,,,,,,,,,,,,,,,,,,,,,,,,3,strong,-44,98,1,0,0,response7disk,3,57,3,6,1,0,0,rectangle,3,6,1,0,0,1,5,0,0.002555,3,6,1,0,0,0,56,56,68,1,,,,,,,,,,,,,,,,,,,,,
,,,,,,,,,,,,,,,,,,,,,,,,,,,,,,,,,,,,,,,,,,5f0c675cbe0f365cc5424893,6036d892ee2cade6d4ddf4b9,2021-02-24_22h52.37.493,Colour_Similarity_Experiment,2020.2.10,Win32,60,6036d0d9a84aa1626184a6ef,17.42450512,16.62377022,16.58108483,16.67173875,16.58264618,16.61481,,,,,,,,,,,,,,,,,,,,PF,weak,3,,,,,,,,7,2.121815,,,,,,,,,,,,,,,,,,,,,,,,,,,,2,weak,32,86,1,0,0,response1disk,1,58,1,-5,1,0,0,rectangle,1,-5,1,0,0,1,1,0,0.00131,1,-5,1,0,0,0,57,57,9,1,,,,,,,,,,,,,,,,,,,,,
,,,,,,,,,,,,,,,,,,,,,,,,,,,,,,,,,,,,,,,,,,5f0c675cbe0f365cc5424893,6036d892ee2cade6d4ddf4b9,2021-02-24_22h52.37.493,Colour_Similarity_Experiment,2020.2.10,Win32,60,6036d0d9a84aa1626184a6ef,17.42450512,16.62377022,16.58108483,16.67173875,16.58264618,16.61481,,,,,,,,,,,,,,,,,,,,PF,strong,3,,,,,,,,6,2.91788,,,,,,,,,,,,,,,,,,,,,,,,,,,,9,strong,77,31,1,0,0,response1disk,6,59,5,-3,1,0,0,rectangle,5,-3,1,0,0,1,7,0,0.001115,5,-3,1,0,0,0,58,58,117,1,,,,,,,,,,,,,,,,,,,,,
,,,,,,,,,,,,,,,,,,,,,,,,,,,,,,,,,,,,,,,,,,5f0c675cbe0f365cc5424893,6036d892ee2cade6d4ddf4b9,2021-02-24_22h52.37.493,Colour_Similarity_Experiment,2020.2.10,Win32,60,6036d0d9a84aa1626184a6ef,17.42450512,16.62377022,16.58108483,16.67173875,16.58264618,16.61481,,,,,,,,,,,,,,,,,,,,PF,strong,3,,,,,,,,6,1.276325,,,,,,,,,,,,,,,,,,,,,,,,,,,,2,strong,77,41,1,0,0,response1disk,7,60,1,-1,1,0,0,rectangle,1,-1,1,0,0,1,6,0,0.000945,1,-1,1,0,0,0,59,59,63,1,,,,,,,,,,,,,,,,,,,,,
,,,,,,,,,,,,,,,,,,,,,,,,,,,,,,,,,,,,,,,,,,5f0c675cbe0f365cc5424893,6036d892ee2cade6d4ddf4b9,2021-02-24_22h52.37.493,Colour_Similarity_Experiment,2020.2.10,Win32,60,6036d0d9a84aa1626184a6ef,17.42450512,16.62377022,16.58108483,16.67173875,16.58264618,16.61481,,,,,,,,,,,,,,,,,,,,PF,weak,3,,,,,,,,0,1.56294,,,,,,,,,,,,,,,,,,,,,,,,,,,,6,weak,-47,87,1,0,0,response7disk,7,61,-1,0,1,0,0,rectangle,-1,0,1,0,0,1,7,0,0.001315,-1,0,1,0,0,0,60,60,50,1,,,,,,,,,,,,,,,,,,,,,
,,,,,,,,,,,,,,,,,,,,,,,,,,,,,,,,,,,,,,,,,,5f0c675cbe0f365cc5424893,6036d892ee2cade6d4ddf4b9,2021-02-24_22h52.37.493,Colour_Similarity_Experiment,2020.2.10,Win32,60,6036d0d9a84aa1626184a6ef,17.42450512,16.62377022,16.58108483,16.67173875,16.58264618,16.61481,,,,,,,,,,,,,,,,,,,,PF,weak,3,,,,,,,,5,5.25612,,,,,,,,,,,,,,,,,,,,,,,,,,,,9,weak,73,-45,1,0,0,response3disk,1,62,-5,3,1,0,0,rectangle,-5,3,1,0,0,1,3,0,0.001165,-5,3,1,0,0,0,61,61,74,1,,,,,,,,,,,,,,,,,,,,,
,,,,,,,,,,,,,,,,,,,,,,,,,,,,,,,,,,,,,,,,,,5f0c675cbe0f365cc5424893,6036d892ee2cade6d4ddf4b9,2021-02-24_22h52.37.493,Colour_Similarity_Experiment,2020.2.10,Win32,60,6036d0d9a84aa1626184a6ef,17.42450512,16.62377022,16.58108483,16.67173875,16.58264618,16.61481,,,,,,,,,,,,,,,,,,,,PF,strong,3,,,,,,,,6,3.51495,,,,,,,,,,,,,,,,,,,,,,,,,,,,5,strong,79,30,1,0,0,response1disk,2,63,5,0,1,0,0,rectangle,-40,88,1,0,0,0,0,1,1.956705,-5,-5,1,0,0,0,62,62,55,1,response7disk_3,rectangle,,,,,,,,,,,,,,,,,,,
,,,,,,,,,,,,,,,,,,,,,,,,,,,,,,,,,,,,,,,,,,5f0c675cbe0f365cc5424893,6036d892ee2cade6d4ddf4b9,2021-02-24_22h52.37.493,Colour_Similarity_Experiment,2020.2.10,Win32,60,6036d0d9a84aa1626184a6ef,17.42450512,16.62377022,16.58108483,16.67173875,16.58264618,16.61481,,,,,,,,,,,,,,,,,,,,PF,weak,3,,,,,,,,6,1.790775,,,,,,,,,,,,,,,,,,,,,,,,,,,,9,weak,73,26,1,0,0,response1disk,3,64,-1,-5,1,0,0,rectangle,-1,-5,1,0,0,0,1,0,0.00144,-1,-5,1,0,0,0,63,63,119,1,,,,,,,,,,,,,,,,,,,,,
,,,,,,,,,,,,,,,,,,,,,,,,,,,,,,,,,,,,,,,,,,5f0c675cbe0f365cc5424893,6036d892ee2cade6d4ddf4b9,2021-02-24_22h52.37.493,Colour_Similarity_Experiment,2020.2.10,Win32,60,6036d0d9a84aa1626184a6ef,17.42450512,16.62377022,16.58108483,16.67173875,16.58264618,16.61481,,,,,,,,,,,,,,,,,,,,PF,weak,3,,,,,,,,6,1.458815,,,,,,,,,,,,,,,,,,,,,,,,,,,,8,weak,82,40,1,0,0,response1disk,5,65,-4,5,1,0,0,rectangle,-4,5,1,0,0,0,4,0,0.00251,-4,5,1,0,0,0,64,64,98,1,,,,,,,,,,,,,,,,,,,,,
,,,,,,,,,,,,,,,,,,,,,,,,,,,,,,,,,,,,,,,,,,5f0c675cbe0f365cc5424893,6036d892ee2cade6d4ddf4b9,2021-02-24_22h52.37.493,Colour_Similarity_Experiment,2020.2.10,Win32,60,6036d0d9a84aa1626184a6ef,17.42450512,16.62377022,16.58108483,16.67173875,16.58264618,16.61481,,,,,,,,,,,,,,,,,,,,PF,weak,3,,,,,,,,6,3.48195,,,,,,,,,,,,,,,,,,,,,,,,,,,,9,weak,66,36,1,0,0,response1disk,7,66,-2,-4,1,0,0,rectangle,-2,-4,1,0,0,0,1,0,0.001285,-2,-4,1,0,0,0,65,65,121,1,,,,,,,,,,,,,,,,,,,,,
,,,,,,,,,,,,,,,,,,,,,,,,,,,,,,,,,,,,,,,,,,5f0c675cbe0f365cc5424893,6036d892ee2cade6d4ddf4b9,2021-02-24_22h52.37.493,Colour_Similarity_Experiment,2020.2.10,Win32,60,6036d0d9a84aa1626184a6ef,17.42450512,16.62377022,16.58108483,16.67173875,16.58264618,16.61481,,,,,,,,,,,,,,,,,,,,PF,strong,3,,,,,,,,1,2.53583,,,,,,,,,,,,,,,,,,,,,,,,,,,,8,strong,-72,29,1,0,0,response7disk,8,67,0,7,1,0,0,rectangle,0,7,1,0,0,0,6,0,0.001285,0,7,1,0,0,0,66,66,48,1,,,,,,,,,,,,,,,,,,,,,
,,,,,,,,,,,,,,,,,,,,,,,,,,,,,,,,,,,,,,,,,,5f0c675cbe0f365cc5424893,6036d892ee2cade6d4ddf4b9,2021-02-24_22h52.37.493,Colour_Similarity_Experiment,2020.2.10,Win32,60,6036d0d9a84aa1626184a6ef,17.42450512,16.62377022,16.58108483,16.67173875,16.58264618,16.61481,,,,,,,,,,,,,,,,,,,,PF,strong,3,,,,,,,,4,2.753305,,,,,,,,,,,,,,,,,,,,,,,,,,,,2,strong,43,-73,1,0,0,response3disk,9,68,-2,-1,1,0,0,rectangle,-2,-1,1,0,0,0,6,0,0.00013,-2,-1,1,0,0,0,67,67,72,1,,,,,,,,,,,,,,,,,,,,,
,,,,,,,,,,,,,,,,,,,,,,,,,,,,,,,,,,,,,,,,,,5f0c675cbe0f365cc5424893,6036d892ee2cade6d4ddf4b9,2021-02-24_22h52.37.493,Colour_Similarity_Experiment,2020.2.10,Win32,60,6036d0d9a84aa1626184a6ef,17.42450512,16.62377022,16.58108483,16.67173875,16.58264618,16.61481,,,,,,,,,,,,,,,,,,,,PF,strong,3,,,,,,,,5,1.593625,,,,,,,,,,,,,,,,,,,,,,,,,,,,3,strong,72,-36,1,0,0,response3disk,6,69,4,-6,1,0,0,rectangle,4,-6,1,0,0,0,7,0,0.00254,4,-6,1,0,0,0,68,68,95,1,,,,,,,,,,,,,,,,,,,,,
,,,,,,,,,,,,,,,,,,,,,,,,,,,,,,,,,,,,,,,,,,5f0c675cbe0f365cc5424893,6036d892ee2cade6d4ddf4b9,2021-02-24_22h52.37.493,Colour_Similarity_Experiment,2020.2.10,Win32,60,6036d0d9a84aa1626184a6ef,17.42450512,16.62377022,16.58108483,16.67173875,16.58264618,16.61481,,,,,,,,,,,,,,,,,,,,PF,weak,3,,,,,,,,0,1.211615,,,,,,,,,,,,,,,,,,,,,,,,,,,,5,weak,-38,88,1,0,0,response7disk,5,70,0,1,1,0,0,rectangle,0,1,1,0,0,0,3,0,0.00113,0,1,1,0,0,0,69,69,94,1,,,,,,,,,,,,,,,,,,,,,
,,,,,,,,,,,,,,,,,,,,,,,,,,,,,,,,,,,,,,,,,,5f0c675cbe0f365cc5424893,6036d892ee2cade6d4ddf4b9,2021-02-24_22h52.37.493,Colour_Similarity_Experiment,2020.2.10,Win32,60,6036d0d9a84aa1626184a6ef,17.42450512,16.62377022,16.58108483,16.67173875,16.58264618,16.61481,,,,,,,,,,,,,,,,,,,,PF,strong,3,,,,,,,,6,4.80793,,,,,,,,,,,,,,,,,,,,,,,,,,,,6,strong,76,30,1,0,0,response1disk,2,71,-7,0,1,0,0,rectangle,-7,0,1,0,0,0,0,0,0.001455,-7,0,1,0,0,0,70,70,112,1,,,,,,,,,,,,,,,,,,,,,
,,,,,,,,,,,,,,,,,,,,,,,,,,,,,,,,,,,,,,,,,,5f0c675cbe0f365cc5424893,6036d892ee2cade6d4ddf4b9,2021-02-24_22h52.37.493,Colour_Similarity_Experiment,2020.2.10,Win32,60,6036d0d9a84aa1626184a6ef,17.42450512,16.62377022,16.58108483,16.67173875,16.58264618,16.61481,,,,,,,,,,,,,,,,,,,,PF,weak,3,,,,,,,,7,1.49236,,,,,,,,,,,,,,,,,,,,,,,,,,,,7,weak,44,72,1,0,0,response1disk,1,72,-3,4,1,0,0,rectangle,-3,4,1,0,0,0,5,0,0.001535,-3,4,1,0,0,0,71,71,53,1,,,,,,,,,,,,,,,,,,,,,
,,,,,,,,,,,,,,,,,,,,,,,,,,,,,,,,,,,,,,,,,,5f0c675cbe0f365cc5424893,6036d892ee2cade6d4ddf4b9,2021-02-24_22h52.37.493,Colour_Similarity_Experiment,2020.2.10,Win32,60,6036d0d9a84aa1626184a6ef,17.42450512,16.62377022,16.58108483,16.67173875,16.58264618,16.61481,,,,,,,,,,,,,,,,,,,,PF,weak,3,,,,,,,,7,2.41862,,,,,,,,,,,,,,,,,,,,,,,,,,,,1,weak,34,73,1,0,0,response1disk,3,73,-1,-5,1,0,0,rectangle,-1,-5,1,0,0,0,5,0,0.00024,-1,-5,1,0,0,0,72,72,1,1,,,,,,,,,,,,,,,,,,,,,
,,,,,,,,,,,,,,,,,,,,,,,,,,,,,,,,,,,,,,,,,,5f0c675cbe0f365cc5424893,6036d892ee2cade6d4ddf4b9,2021-02-24_22h52.37.493,Colour_Similarity_Experiment,2020.2.10,Win32,60,6036d0d9a84aa1626184a6ef,17.42450512,16.62377022,16.58108483,16.67173875,16.58264618,16.61481,,,,,,,,,,,,,,,,,,,,PF,weak,3,,,,,,,,6,1.994055,,,,,,,,,,,,,,,,,,,,,,,,,,,,8,weak,79,35,1,0,0,response1disk,7,74,-9,-2,1,0,0,rectangle,-9,-2,1,0,0,0,0,0,0.000925,-9,-2,1,0,0,0,73,73,23,1,,,,,,,,,,,,,,,,,,,,,
,,,,,,,,,,,,,,,,,,,,,,,,,,,,,,,,,,,,,,,,,,5f0c675cbe0f365cc5424893,6036d892ee2cade6d4ddf4b9,2021-02-24_22h52.37.493,Colour_Similarity_Experiment,2020.2.10,Win32,60,6036d0d9a84aa1626184a6ef,17.42450512,16.62377022,16.58108483,16.67173875,16.58264618,16.61481,,,,,,,,,,,,,,,,,,,,PF,weak,3,,,,,,,,6,1.14825,,,,,,,,,,,,,,,,,,,,,,,,,,,,5,weak,86,40,1,0,0,response1disk,8,75,3,-1,1,0,0,rectangle,3,-1,1,0,0,0,3,0,0.0014,3,-1,1,0,0,0,74,74,149,1,,,,,,,,,,,,,,,,,,,,,
,,,,,,,,,,,,,,,,,,,,,,,,,,,,,,,,,,,,,,,,,,5f0c675cbe0f365cc5424893,6036d892ee2cade6d4ddf4b9,2021-02-24_22h52.37.493,Colour_Similarity_Experiment,2020.2.10,Win32,60,6036d0d9a84aa1626184a6ef,17.42450512,16.62377022,16.58108483,16.67173875,16.58264618,16.61481,,,,,,,,,,,,,,,,,,,,PF,strong,3,,,,,,,,6,1.99345,,,,,,,,,,,,,,,,,,,,,,,,,,,,6,strong,86,29,1,0,0,response1disk,3,76,3,-3,1,0,0,rectangle,3,-3,1,0,0,0,6,0,0.001335,3,-3,1,0,0,0,75,75,21,1,,,,,,,,,,,,,,,,,,,,,
,,,,,,,,,,,,,,,,,,,,,,,,,,,,,,,,,,,,,,,,,,5f0c675cbe0f365cc5424893,6036d892ee2cade6d4ddf4b9,2021-02-24_22h52.37.493,Colour_Similarity_Experiment,2020.2.10,Win32,60,6036d0d9a84aa1626184a6ef,17.42450512,16.62377022,16.58108483,16.67173875,16.58264618,16.61481,,,,,,,,,,,,,,,,,,,,PF,weak,3,,,,,,,,6,1.3312,,,,,,,,,,,,,,,,,,,,,,,,,,,,6,weak,78,31,1,0,0,response1disk,8,77,-5,5,1,0,0,rectangle,-5,5,1,0,0,0,6,0,0.000165,-5,5,1,0,0,0,76,76,64,1,,,,,,,,,,,,,,,,,,,,,
,,,,,,,,,,,,,,,,,,,,,,,,,,,,,,,,,,,,,,,,,,5f0c675cbe0f365cc5424893,6036d892ee2cade6d4ddf4b9,2021-02-24_22h52.37.493,Colour_Similarity_Experiment,2020.2.10,Win32,60,6036d0d9a84aa1626184a6ef,17.42450512,16.62377022,16.58108483,16.67173875,16.58264618,16.61481,,,,,,,,,,,,,,,,,,,,PF,strong,3,,,,,,,,6,1.579455,,,,,,,,,,,,,,,,,,,,,,,,,,,,1,strong,92,35,1,0,0,response1disk,6,78,4,-1,1,0,0,rectangle,4,-1,1,0,0,0,4,0,0.00129,4,-1,1,0,0,0,77,77,58,1,,,,,,,,,,,,,,,,,,,,,
,,,,,,,,,,,,,,,,,,,,,,,,,,,,,,,,,,,,,,,,,,5f0c675cbe0f365cc5424893,6036d892ee2cade6d4ddf4b9,2021-02-24_22h52.37.493,Colour_Similarity_Experiment,2020.2.10,Win32,60,6036d0d9a84aa1626184a6ef,17.42450512,16.62377022,16.58108483,16.67173875,16.58264618,16.61481,,,,,,,,,,,,,,,,,,,,PF,strong,3,,,,,,,,6,1.263805,,,,,,,,,,,,,,,,,,,,,,,,,,,,4,strong,96,36,1,0,0,response1disk,8,79,3,2,1,0,0,rectangle,3,2,1,0,0,0,1,0,0.0011,3,2,1,0,0,0,78,78,35,1,,,,,,,,,,,,,,,,,,,,,
,,,,,,,,,,,,,,,,,,,,,,,,,,,,,,,,,,,,,,,,,,5f0c675cbe0f365cc5424893,6036d892ee2cade6d4ddf4b9,2021-02-24_22h52.37.493,Colour_Similarity_Experiment,2020.2.10,Win32,60,6036d0d9a84aa1626184a6ef,17.42450512,16.62377022,16.58108483,16.67173875,16.58264618,16.61481,,,,,,,,,,,,,,,,,,,,PF,weak,3,,,,,,,,6,1.214235,,,,,,,,,,,,,,,,,,,,,,,,,,,,4,weak,78,34,1,0,0,response1disk,7,80,-11,-2,1,0,0,rectangle,-11,-2,1,0,0,0,3,0,0.001295,-11,-2,1,0,0,0,79,79,38,1,,,,,,,,,,,,,,,,,,,,,
,,,,,,,,,,,,,,,,,,,,,,,,,,,,,,,,,,,,,,,,,,5f0c675cbe0f365cc5424893,6036d892ee2cade6d4ddf4b9,2021-02-24_22h52.37.493,Colour_Similarity_Experiment,2020.2.10,Win32,60,6036d0d9a84aa1626184a6ef,17.42450512,16.62377022,16.58108483,16.67173875,16.58264618,16.61481,,,,,,,,,,,,,,,,,,,,PF,strong,3,,,,,,,,6,1.91129,,,,,,,,,,,,,,,,,,,,,,,,,,,,7,strong,75,37,1,0,0,response1disk,3,81,-5,-1,1,0,0,rectangle,-5,-1,1,0,0,0,1,0,0.00124,-5,-1,1,0,0,0,80,80,73,1,,,,,,,,,,,,,,,,,,,,,
,,,,,,,,,,,,,,,,,,,,,,,,,,,,,,,,,,,,,,,,,,5f0c675cbe0f365cc5424893,6036d892ee2cade6d4ddf4b9,2021-02-24_22h52.37.493,Colour_Similarity_Experiment,2020.2.10,Win32,60,6036d0d9a84aa1626184a6ef,17.42450512,16.62377022,16.58108483,16.67173875,16.58264618,16.61481,,,,,,,,,,,,,,,,,,,,PF,weak,3,,,,,,,,6,1.313375,,,,,,,,,,,,,,,,,,,,,,,,,,,,8,weak,91,34,1,0,0,response1disk,2,82,8,4,1,0,0,rectangle,8,4,1,0,0,0,0,0,0.00124,8,4,1,0,0,0,81,81,83,1,,,,,,,,,,,,,,,,,,,,,
,,,,,,,,,,,,,,,,,,,,,,,,,,,,,,,,,,,,,,,,,,5f0c675cbe0f365cc5424893,6036d892ee2cade6d4ddf4b9,2021-02-24_22h52.37.493,Colour_Similarity_Experiment,2020.2.10,Win32,60,6036d0d9a84aa1626184a6ef,17.42450512,16.62377022,16.58108483,16.67173875,16.58264618,16.61481,,,,,,,,,,,,,,,,,,,,PF,weak,3,,,,,,,,4,3.750535,,,,,,,,,,,,,,,,,,,,,,,,,,,,3,weak,42,-73,1,0,0,response3disk,6,83,3,3,1,0,0,rectangle,3,3,1,0,0,0,7,0,0.0013,3,3,1,0,0,0,82,82,47,1,,,,,,,,,,,,,,,,,,,,,
,,,,,,,,,,,,,,,,,,,,,,,,,,,,,,,,,,,,,,,,,,5f0c675cbe0f365cc5424893,6036d892ee2cade6d4ddf4b9,2021-02-24_22h52.37.493,Colour_Similarity_Experiment,2020.2.10,Win32,60,6036d0d9a84aa1626184a6ef,17.42450512,16.62377022,16.58108483,16.67173875,16.58264618,16.61481,,,,,,,,,,,,,,,,,,,,PF,strong,3,,,,,,,,1,1.49641,,,,,,,,,,,,,,,,,,,,,,,,,,,,3,strong,-72,31,1,0,0,response7disk,4,84,-10,0,1,0,0,rectangle,-10,0,1,0,0,0,2,0,0.001215,-10,0,1,0,0,0,83,83,110,1,,,,,,,,,,,,,,,,,,,,,
,,,,,,,,,,,,,,,,,,,,,,,,,,,,,,,,,,,,,,,,,,5f0c675cbe0f365cc5424893,6036d892ee2cade6d4ddf4b9,2021-02-24_22h52.37.493,Colour_Similarity_Experiment,2020.2.10,Win32,60,6036d0d9a84aa1626184a6ef,17.42450512,16.62377022,16.58108483,16.67173875,16.58264618,16.61481,,,,,,,,,,,,,,,,,,,,PF,strong,3,,,,,,,,1,3.35307,,,,,,,,,,,,,,,,,,,,,,,,,,,,9,strong,-56,33,1,0,0,response7disk,4,85,-10,2,1,0,0,rectangle,-10,2,1,0,0,0,0,0,0.001395,-10,2,1,0,0,0,84,84,60,1,,,,,,,,,,,,,,,,,,,,,
,,,,,,,,,,,,,,,,,,,,,,,,,,,,,,,,,,,,,,,,,,5f0c675cbe0f365cc5424893,6036d892ee2cade6d4ddf4b9,2021-02-24_22h52.37.493,Colour_Similarity_Experiment,2020.2.10,Win32,60,6036d0d9a84aa1626184a6ef,17.42450512,16.62377022,16.58108483,16.67173875,16.58264618,16.61481,,,,,,,,,,,,,,,,,,,,PF,weak,3,,,,,,,,4,4.249875,,,,,,,,,,,,,,,,,,,,,,,,,,,,1,weak,27,-89,1,0,0,response3disk,2,86,-2,-2,1,0,0,rectangle,-2,-2,1,0,0,0,5,0,0.001385,-2,-2,1,0,0,0,85,85,24,1,,,,,,,,,,,,,,,,,,,,,
,,,,,,,,,,,,,,,,,,,,,,,,,,,,,,,,,,,,,,,,,,5f0c675cbe0f365cc5424893,6036d892ee2cade6d4ddf4b9,2021-02-24_22h52.37.493,Colour_Similarity_Experiment,2020.2.10,Win32,60,6036d0d9a84aa1626184a6ef,17.42450512,16.62377022,16.58108483,16.67173875,16.58264618,16.61481,,,,,,,,,,,,,,,,,,,,PF,strong,3,,,,,,,,7,1.68491,,,,,,,,,,,,,,,,,,,,,,,,,,,,7,strong,34,83,1,0,0,response1disk,4,87,-3,-8,1,0,0,rectangle,-3,-8,1,0,0,0,7,0,0.001495,-3,-8,1,0,0,0,86,86,158,1,,,,,,,,,,,,,,,,,,,,,
,,,,,,,,,,,,,,,,,,,,,,,,,,,,,,,,,,,,,,,,,,5f0c675cbe0f365cc5424893,6036d892ee2cade6d4ddf4b9,2021-02-24_22h52.37.493,Colour_Similarity_Experiment,2020.2.10,Win32,60,6036d0d9a84aa1626184a6ef,17.42450512,16.62377022,16.58108483,16.67173875,16.58264618,16.61481,,,,,,,,,,,,,,,,,,,,PF,strong,3,,,,,,,,1,1.738075,,,,,,,,,,,,,,,,,,,,,,,,,,,,5,strong,-84,35,1,0,0,response7disk,6,88,-2,-1,1,0,0,rectangle,-2,-1,1,0,0,0,6,0,0.001225,-2,-1,1,0,0,0,87,87,12,1,,,,,,,,,,,,,,,,,,,,,
,,,,,,,,,,,,,,,,,,,,,,,,,,,,,,,,,,,,,,,,,,5f0c675cbe0f365cc5424893,6036d892ee2cade6d4ddf4b9,2021-02-24_22h52.37.493,Colour_Similarity_Experiment,2020.2.10,Win32,60,6036d0d9a84aa1626184a6ef,17.42450512,16.62377022,16.58108483,16.67173875,16.58264618,16.61481,,,,,,,,,,,,,,,,,,,,PF,strong,3,,,,,,,,7,1.338485,,,,,,,,,,,,,,,,,,,,,,,,,,,,5,strong,49,89,1,0,0,response1disk,1,89,-6,-3,1,0,0,rectangle,-6,-3,1,0,0,0,2,0,0.000975,-6,-3,1,0,0,0,88,88,131,1,,,,,,,,,,,,,,,,,,,,,
,,,,,,,,,,,,,,,,,,,,,,,,,,,,,,,,,,,,,,,,,,5f0c675cbe0f365cc5424893,6036d892ee2cade6d4ddf4b9,2021-02-24_22h52.37.493,Colour_Similarity_Experiment,2020.2.10,Win32,60,6036d0d9a84aa1626184a6ef,17.42450512,16.62377022,16.58108483,16.67173875,16.58264618,16.61481,,,,,,,,,,,,,,,,,,,,PF,strong,3,,,,,,,,3,1.780865,,,,,,,,,,,,,,,,,,,,,,,,,,,,2,strong,-42,-68,1,0,0,response5disk,3,90,-2,-14,1,0,0,rectangle,85,-29,1,0,0,5,5,1,1.708845,-4,2,1,0,0,0,89,89,104,1,response3disk_3,rectangle,,,,,,,,,,,,,,,,,,,
,,,,,,,,,,,,,,,,,,,,,,,,,,,,,,,,,,,,,,,,,,5f0c675cbe0f365cc5424893,6036d892ee2cade6d4ddf4b9,2021-02-24_22h52.37.493,Colour_Similarity_Experiment,2020.2.10,Win32,60,6036d0d9a84aa1626184a6ef,17.42450512,16.62377022,16.58108483,16.67173875,16.58264618,16.61481,,,,,,,,,,,,,,,,,,,,PF,strong,3,,,,,,,,1,2.29176,,,,,,,,,,,,,,,,,,,,,,,,,,,,3,strong,-79,38,1,0,0,response7disk,5,91,6,-5,1,0,0,rectangle,6,-5,1,0,0,5,2,0,0.00123,6,-5,1,0,0,0,90,90,101,1,,,,,,,,,,,,,,,,,,,,,
,,,,,,,,,,,,,,,,,,,,,,,,,,,,,,,,,,,,,,,,,,5f0c675cbe0f365cc5424893,6036d892ee2cade6d4ddf4b9,2021-02-24_22h52.37.493,Colour_Similarity_Experiment,2020.2.10,Win32,60,6036d0d9a84aa1626184a6ef,17.42450512,16.62377022,16.58108483,16.67173875,16.58264618,16.61481,,,,,,,,,,,,,,,,,,,,PF,weak,3,,,,,,,,6,2.32459,,,,,,,,,,,,,,,,,,,,,,,,,,,,1,weak,62,38,1,0,0,response1disk,6,92,0,-1,1,0,0,rectangle,0,-1,1,0,0,5,3,0,0.001215,0,-1,1,0,0,0,91,91,144,1,,,,,,,,,,,,,,,,,,,,,
,,,,,,,,,,,,,,,,,,,,,,,,,,,,,,,,,,,,,,,,,,5f0c675cbe0f365cc5424893,6036d892ee2cade6d4ddf4b9,2021-02-24_22h52.37.493,Colour_Similarity_Experiment,2020.2.10,Win32,60,6036d0d9a84aa1626184a6ef,17.42450512,16.62377022,16.58108483,16.67173875,16.58264618,16.61481,,,,,,,,,,,,,,,,,,,,PF,weak,3,,,,,,,,7,1.54571,,,,,,,,,,,,,,,,,,,,,,,,,,,,7,weak,30,74,1,0,0,response1disk,3,93,4,0,1,0,0,rectangle,4,0,1,0,0,5,2,0,0.001455,4,0,1,0,0,0,92,92,81,1,,,,,,,,,,,,,,,,,,,,,
,,,,,,,,,,,,,,,,,,,,,,,,,,,,,,,,,,,,,,,,,,5f0c675cbe0f365cc5424893,6036d892ee2cade6d4ddf4b9,2021-02-24_22h52.37.493,Colour_Similarity_Experiment,2020.2.10,Win32,60,6036d0d9a84aa1626184a6ef,17.42450512,16.62377022,16.58108483,16.67173875,16.58264618,16.61481,,,,,,,,,,,,,,,,,,,,PF,strong,3,,,,,,,,1,2.374345,,,,,,,,,,,,,,,,,,,,,,,,,,,,6,strong,-80,41,1,0,0,response7disk,7,94,1,-8,1,0,0,rectangle,1,-8,1,0,0,5,2,0,0.000215,1,-8,1,0,0,0,93,93,18,1,,,,,,,,,,,,,,,,,,,,,
,,,,,,,,,,,,,,,,,,,,,,,,,,,,,,,,,,,,,,,,,,5f0c675cbe0f365cc5424893,6036d892ee2cade6d4ddf4b9,2021-02-24_22h52.37.493,Colour_Similarity_Experiment,2020.2.10,Win32,60,6036d0d9a84aa1626184a6ef,17.42450512,16.62377022,16.58108483,16.67173875,16.58264618,16.61481,,,,,,,,,,,,,,,,,,,,PF,weak,3,,,,,,,,5,3.21707,,,,,,,,,,,,,,,,,,,,,,,,,,,,1,weak,67,-23,1,0,0,response3disk,8,95,-6,-1,1,0,0,rectangle,-6,-1,1,0,0,5,6,0,0.00096,-6,-1,1,0,0,0,94,94,65,1,,,,,,,,,,,,,,,,,,,,,
,,,,,,,,,,,,,,,,,,,,,,,,,,,,,,,,,,,,,,,,,,5f0c675cbe0f365cc5424893,6036d892ee2cade6d4ddf4b9,2021-02-24_22h52.37.493,Colour_Similarity_Experiment,2020.2.10,Win32,60,6036d0d9a84aa1626184a6ef,17.42450512,16.62377022,16.58108483,16.67173875,16.58264618,16.61481,,,,,,,,,,,,,,,,,,,,PF,strong,3,,,,,,,,1,1.805345,,,,,,,,,,,,,,,,,,,,,,,,,,,,1,strong,-75,37,1,0,0,response7disk,4,96,-5,4,1,0,0,rectangle,-5,4,1,0,0,5,0,0,0.001285,-5,4,1,0,0,0,95,95,135,1,,,,,,,,,,,,,,,,,,,,,
,,,,,,,,,,,,,,,,,,,,,,,,,,,,,,,,,,,,,,,,,,5f0c675cbe0f365cc5424893,6036d892ee2cade6d4ddf4b9,2021-02-24_22h52.37.493,Colour_Similarity_Experiment,2020.2.10,Win32,60,6036d0d9a84aa1626184a6ef,17.42450512,16.62377022,16.58108483,16.67173875,16.58264618,16.61481,,,,,,,,,,,,,,,,,,,,PF,weak,3,,,,,,,,5,2.81914,,,,,,,,,,,,,,,,,,,,,,,,,,,,7,weak,64,-27,1,0,0,response3disk,9,97,-10,1,1,0,0,rectangle,-10,1,1,0,0,5,0,0,0.00013,-10,1,1,0,0,0,96,96,10,1,,,,,,,,,,,,,,,,,,,,,
,,,,,,,,,,,,,,,,,,,,,,,,,,,,,,,,,,,,,,,,,,5f0c675cbe0f365cc5424893,6036d892ee2cade6d4ddf4b9,2021-02-24_22h52.37.493,Colour_Similarity_Experiment,2020.2.10,Win32,60,6036d0d9a84aa1626184a6ef,17.42450512,16.62377022,16.58108483,16.67173875,16.58264618,16.61481,,,,,,,,,,,,,,,,,,,,PF,weak,3,,,,,,,,2,2.271965,,,,,,,,,,,,,,,,,,,,,,,,,,,,3,weak,-80,-42,1,0,0,response5disk,4,98,8,-10,1,0,0,rectangle,8,-10,1,0,0,5,4,0,0.00123,8,-10,1,0,0,0,97,97,30,1,,,,,,,,,,,,,,,,,,,,,
,,,,,,,,,,,,,,,,,,,,,,,,,,,,,,,,,,,,,,,,,,5f0c675cbe0f365cc5424893,6036d892ee2cade6d4ddf4b9,2021-02-24_22h52.37.493,Colour_Similarity_Experiment,2020.2.10,Win32,60,6036d0d9a84aa1626184a6ef,17.42450512,16.62377022,16.58108483,16.67173875,16.58264618,16.61481,,,,,,,,,,,,,,,,,,,,PF,weak,3,,,,,,,,5,1.638465,,,,,,,,,,,,,,,,,,,,,,,,,,,,2,weak,69,-24,1,0,0,response3disk,8,99,-15,-8,1,0,0,rectangle,-15,-8,1,0,0,5,7,0,0.00121,-15,-8,1,0,0,0,98,98,52,1,,,,,,,,,,,,,,,,,,,,,
,,,,,,,,,,,,,,,,,,,,,,,,,,,,,,,,,,,,,,,,,,5f0c675cbe0f365cc5424893,6036d892ee2cade6d4ddf4b9,2021-02-24_22h52.37.493,Colour_Similarity_Experiment,2020.2.10,Win32,60,6036d0d9a84aa1626184a6ef,17.42450512,16.62377022,16.58108483,16.67173875,16.58264618,16.61481,,,,,,,,,,,,,,,,,,,,PF,strong,3,,,,,,,,6,2.75041,,,,,,,,,,,,,,,,,,,,,,,,,,,,7,strong,79,43,1,0,0,response1disk,2,100,0,-1,1,0,0,rectangle,0,-1,1,0,0,5,2,0,0.001135,0,-1,1,0,0,0,99,99,138,1,,,,,,,,,,,,,,,,,,,,,
,,,,,,,,,,,,,,,,,,,,,,,,,,,,,,,,,,,,,,,,,,5f0c675cbe0f365cc5424893,6036d892ee2cade6d4ddf4b9,2021-02-24_22h52.37.493,Colour_Similarity_Experiment,2020.2.10,Win32,60,6036d0d9a84aa1626184a6ef,17.42450512,16.62377022,16.58108483,16.67173875,16.58264618,16.61481,,,,,,,,,,,,,,,,,,,,PF,weak,3,,,,,,,,7,2.8851,,,,,,,,,,,,,,,,,,,,,,,,,,,,6,weak,49,96,1,0,0,response1disk,1,101,1,4,1,0,0,rectangle,1,4,1,0,0,5,0,0,0.000995,1,4,1,0,0,0,100,100,46,1,,,,,,,,,,,,,,,,,,,,,
,,,,,,,,,,,,,,,,,,,,,,,,,,,,,,,,,,,,,,,,,,5f0c675cbe0f365cc5424893,6036d892ee2cade6d4ddf4b9,2021-02-24_22h52.37.493,Colour_Similarity_Experiment,2020.2.10,Win32,60,6036d0d9a84aa1626184a6ef,17.42450512,16.62377022,16.58108483,16.67173875,16.58264618,16.61481,,,,,,,,,,,,,,,,,,,,PF,weak,3,,,,,,,,1,1.86931,,,,,,,,,,,,,,,,,,,,,,,,,,,,7,weak,-88,31,1,0,0,response7disk,6,102,-2,-4,1,0,0,rectangle,-2,-4,1,0,0,5,1,0,0.001005,-2,-4,1,0,0,0,101,101,29,1,,,,,,,,,,,,,,,,,,,,,
,,,,,,,,,,,,,,,,,,,,,,,,,,,,,,,,,,,,,,,,,,5f0c675cbe0f365cc5424893,6036d892ee2cade6d4ddf4b9,2021-02-24_22h52.37.493,Colour_Similarity_Experiment,2020.2.10,Win32,60,6036d0d9a84aa1626184a6ef,17.42450512,16.62377022,16.58108483,16.67173875,16.58264618,16.61481,,,,,,,,,,,,,,,,,,,,PF,weak,3,,,,,,,,5,2.217525,,,,,,,,,,,,,,,,,,,,,,,,,,,,5,weak,57,-29,1,0,0,response3disk,1,103,-6,-6,1,0,0,rectangle,36,-87,1,0,0,4,4,1,1.72367,-4,3,1,0,0,0,102,102,159,1,response3disk_3,rectangle,,,,,,,,,,,,,,,,,,,
,,,,,,,,,,,,,,,,,,,,,,,,,,,,,,,,,,,,,,,,,,5f0c675cbe0f365cc5424893,6036d892ee2cade6d4ddf4b9,2021-02-24_22h52.37.493,Colour_Similarity_Experiment,2020.2.10,Win32,60,6036d0d9a84aa1626184a6ef,17.42450512,16.62377022,16.58108483,16.67173875,16.58264618,16.61481,,,,,,,,,,,,,,,,,,,,PF,weak,3,,,,,,,,7,1.4259,,,,,,,,,,,,,,,,,,,,,,,,,,,,3,weak,37,69,1,0,0,response1disk,7,104,9,5,1,0,0,rectangle,9,5,1,0,0,4,2,0,0.0029,9,5,1,0,0,0,103,103,41,1,,,,,,,,,,,,,,,,,,,,,
,,,,,,,,,,,,,,,,,,,,,,,,,,,,,,,,,,,,,,,,,,5f0c675cbe0f365cc5424893,6036d892ee2cade6d4ddf4b9,2021-02-24_22h52.37.493,Colour_Similarity_Experiment,2020.2.10,Win32,60,6036d0d9a84aa1626184a6ef,17.42450512,16.62377022,16.58108483,16.67173875,16.58264618,16.61481,,,,,,,,,,,,,,,,,,,,PF,strong,3,,,,,,,,2,2.537045,,,,,,,,,,,,,,,,,,,,,,,,,,,,9,strong,-71,-32,1,0,0,response5disk,1,105,-10,-5,1,0,0,rectangle,-10,-5,1,0,0,4,4,0,0.00141,-10,-5,1,0,0,0,104,104,111,1,,,,,,,,,,,,,,,,,,,,,
,,,,,,,,,,,,,,,,,,,,,,,,,,,,,,,,,,,,,,,,,,5f0c675cbe0f365cc5424893,6036d892ee2cade6d4ddf4b9,2021-02-24_22h52.37.493,Colour_Similarity_Experiment,2020.2.10,Win32,60,6036d0d9a84aa1626184a6ef,17.42450512,16.62377022,16.58108483,16.67173875,16.58264618,16.61481,,,,,,,,,,,,,,,,,,,,PF,strong,3,,,,,,,,0,1.3601,,,,,,,,,,,,,,,,,,,,,,,,,,,,5,strong,-36,101,1,0,0,response7disk,5,106,-1,4,1,0,0,rectangle,-1,4,1,0,0,4,2,0,0.001405,-1,4,1,0,0,0,105,105,19,1,,,,,,,,,,,,,,,,,,,,,
,,,,,,,,,,,,,,,,,,,,,,,,,,,,,,,,,,,,,,,,,,5f0c675cbe0f365cc5424893,6036d892ee2cade6d4ddf4b9,2021-02-24_22h52.37.493,Colour_Similarity_Experiment,2020.2.10,Win32,60,6036d0d9a84aa1626184a6ef,17.42450512,16.62377022,16.58108483,16.67173875,16.58264618,16.61481,,,,,,,,,,,,,,,,,,,,PF,weak,3,,,,,,,,3,1.522655,,,,,,,,,,,,,,,,,,,,,,,,,,,,5,weak,-32,-75,1,0,0,response5disk,9,107,8,-4,1,0,0,rectangle,23,-85,1,0,0,4,4,1,1.75781,-18,0,1,0,0,0,106,106,136,1,response3disk_3,rectangle,,,,,,,,,,,,,,,,,,,
,,,,,,,,,,,,,,,,,,,,,,,,,,,,,,,,,,,,,,,,,,5f0c675cbe0f365cc5424893,6036d892ee2cade6d4ddf4b9,2021-02-24_22h52.37.493,Colour_Similarity_Experiment,2020.2.10,Win32,60,6036d0d9a84aa1626184a6ef,17.42450512,16.62377022,16.58108483,16.67173875,16.58264618,16.61481,,,,,,,,,,,,,,,,,,,,PF,weak,3,,,,,,,,0,1.126875,,,,,,,,,,,,,,,,,,,,,,,,,,,,2,weak,-23,88,1,0,0,response7disk,2,108,5,0,1,0,0,rectangle,5,0,1,0,0,4,7,0,0.00297,5,0,1,0,0,0,107,107,14,1,,,,,,,,,,,,,,,,,,,,,
,,,,,,,,,,,,,,,,,,,,,,,,,,,,,,,,,,,,,,,,,,5f0c675cbe0f365cc5424893,6036d892ee2cade6d4ddf4b9,2021-02-24_22h52.37.493,Colour_Similarity_Experiment,2020.2.10,Win32,60,6036d0d9a84aa1626184a6ef,17.42450512,16.62377022,16.58108483,16.67173875,16.58264618,16.61481,,,,,,,,,,,,,,,,,,,,PF,weak,3,,,,,,,,7,1.77533,,,,,,,,,,,,,,,,,,,,,,,,,,,,9,weak,42,67,1,0,0,response1disk,4,109,10,-5,1,0,0,rectangle,10,-5,1,0,0,4,1,0,0.00157,10,-5,1,0,0,0,108,108,114,1,,,,,,,,,,,,,,,,,,,,,
,,,,,,,,,,,,,,,,,,,,,,,,,,,,,,,,,,,,,,,,,,5f0c675cbe0f365cc5424893,6036d892ee2cade6d4ddf4b9,2021-02-24_22h52.37.493,Colour_Similarity_Experiment,2020.2.10,Win32,60,6036d0d9a84aa1626184a6ef,17.42450512,16.62377022,16.58108483,16.67173875,16.58264618,16.61481,,,,,,,,,,,,,,,,,,,,PF,strong,3,,,,,,,,7,1.12386,,,,,,,,,,,,,,,,,,,,,,,,,,,,4,strong,33,89,1,0,0,response1disk,1,110,9,7,1,0,0,rectangle,9,7,1,0,0,4,5,0,0.00144,9,7,1,0,0,0,109,109,102,1,,,,,,,,,,,,,,,,,,,,,
,,,,,,,,,,,,,,,,,,,,,,,,,,,,,,,,,,,,,,,,,,5f0c675cbe0f365cc5424893,6036d892ee2cade6d4ddf4b9,2021-02-24_22h52.37.493,Colour_Similarity_Experiment,2020.2.10,Win32,60,6036d0d9a84aa1626184a6ef,17.42450512,16.62377022,16.58108483,16.67173875,16.58264618,16.61481,,,,,,,,,,,,,,,,,,,,PF,weak,3,,,,,,,,0,1.04204,,,,,,,,,,,,,,,,,,,,,,,,,,,,9,weak,-44,93,1,0,0,response7disk,9,111,-8,5,1,0,0,rectangle,-8,5,1,0,0,4,7,0,0.001165,-8,5,1,0,0,0,110,110,106,1,,,,,,,,,,,,,,,,,,,,,
,,,,,,,,,,,,,,,,,,,,,,,,,,,,,,,,,,,,,,,,,,5f0c675cbe0f365cc5424893,6036d892ee2cade6d4ddf4b9,2021-02-24_22h52.37.493,Colour_Similarity_Experiment,2020.2.10,Win32,60,6036d0d9a84aa1626184a6ef,17.42450512,16.62377022,16.58108483,16.67173875,16.58264618,16.61481,,,,,,,,,,,,,,,,,,,,PF,weak,3,,,,,,,,0,1.512825,,,,,,,,,,,,,,,,,,,,,,,,,,,,5,weak,-43,78,1,0,0,response7disk,6,112,0,-5,1,0,0,rectangle,0,-5,1,0,0,4,3,0,0.00105,0,-5,1,0,0,0,111,111,103,1,,,,,,,,,,,,,,,,,,,,,
,,,,,,,,,,,,,,,,,,,,,,,,,,,,,,,,,,,,,,,,,,5f0c675cbe0f365cc5424893,6036d892ee2cade6d4ddf4b9,2021-02-24_22h52.37.493,Colour_Similarity_Experiment,2020.2.10,Win32,60,6036d0d9a84aa1626184a6ef,17.42450512,16.62377022,16.58108483,16.67173875,16.58264618,16.61481,,,,,,,,,,,,,,,,,,,,PF,weak,3,,,,,,,,4,2.425225,,,,,,,,,,,,,,,,,,,,,,,,,,,,2,weak,39,-86,1,0,0,response3disk,4,113,11,-6,1,0,0,rectangle,11,-6,1,0,0,4,0,0,0.0013,11,-6,1,0,0,0,112,112,127,1,,,,,,,,,,,,,,,,,,,,,
,,,,,,,,,,,,,,,,,,,,,,,,,,,,,,,,,,,,,,,,,,5f0c675cbe0f365cc5424893,6036d892ee2cade6d4ddf4b9,2021-02-24_22h52.37.493,Colour_Similarity_Experiment,2020.2.10,Win32,60,6036d0d9a84aa1626184a6ef,17.42450512,16.62377022,16.58108483,16.67173875,16.58264618,16.61481,,,,,,,,,,,,,,,,,,,,PF,weak,3,,,,,,,,1,1.392145,,,,,,,,,,,,,,,,,,,,,,,,,,,,9,weak,-76,36,1,0,0,response7disk,5,114,-12,9,1,0,0,rectangle,-12,9,1,0,0,4,3,0,0.0012,-12,9,1,0,0,0,113,113,134,1,,,,,,,,,,,,,,,,,,,,,
,,,,,,,,,,,,,,,,,,,,,,,,,,,,,,,,,,,,,,,,,,5f0c675cbe0f365cc5424893,6036d892ee2cade6d4ddf4b9,2021-02-24_22h52.37.493,Colour_Similarity_Experiment,2020.2.10,Win32,60,6036d0d9a84aa1626184a6ef,17.42450512,16.62377022,16.58108483,16.67173875,16.58264618,16.61481,,,,,,,,,,,,,,,,,,,,PF,weak,3,,,,,,,,0,1.04123,,,,,,,,,,,,,,,,,,,,,,,,,,,,8,weak,-38,87,1,0,0,response7disk,8,115,9,-1,1,0,0,rectangle,9,-1,1,0,0,4,7,0,0.001255,9,-1,1,0,0,0,114,114,153,1,,,,,,,,,,,,,,,,,,,,,
,,,,,,,,,,,,,,,,,,,,,,,,,,,,,,,,,,,,,,,,,,5f0c675cbe0f365cc5424893,6036d892ee2cade6d4ddf4b9,2021-02-24_22h52.37.493,Colour_Similarity_Experiment,2020.2.10,Win32,60,6036d0d9a84aa1626184a6ef,17.42450512,16.62377022,16.58108483,16.67173875,16.58264618,16.61481,,,,,,,,,,,,,,,,,,,,PF,weak,3,,,,,,,,4,2.335635,,,,,,,,,,,,,,,,,,,,,,,,,,,,1,weak,45,-85,1,0,0,response3disk,5,116,-8,1,1,0,0,rectangle,-8,1,1,0,0,4,2,0,0.000915,-8,1,1,0,0,0,115,115,28,1,,,,,,,,,,,,,,,,,,,,,
,,,,,,,,,,,,,,,,,,,,,,,,,,,,,,,,,,,,,,,,,,5f0c675cbe0f365cc5424893,6036d892ee2cade6d4ddf4b9,2021-02-24_22h52.37.493,Colour_Similarity_Experiment,2020.2.10,Win32,60,6036d0d9a84aa1626184a6ef,17.42450512,16.62377022,16.58108483,16.67173875,16.58264618,16.61481,,,,,,,,,,,,,,,,,,,,PF,weak,3,,,,,,,,0,1.049255,,,,,,,,,,,,,,,,,,,,,,,,,,,,1,weak,-35,78,1,0,0,response7disk,1,117,-2,12,1,0,0,rectangle,-70,-46,1,0,0,4,2,1,1.95407,1,6,1,0,0,0,116,116,76,1,response5disk_3,rectangle,,,,,,,,,,,,,,,,,,,
,,,,,,,,,,,,,,,,,,,,,,,,,,,,,,,,,,,,,,,,,,5f0c675cbe0f365cc5424893,6036d892ee2cade6d4ddf4b9,2021-02-24_22h52.37.493,Colour_Similarity_Experiment,2020.2.10,Win32,60,6036d0d9a84aa1626184a6ef,17.42450512,16.62377022,16.58108483,16.67173875,16.58264618,16.61481,,,,,,,,,,,,,,,,,,,,PF,strong,3,,,,,,,,6,1.5716,,,,,,,,,,,,,,,,,,,,,,,,,,,,4,strong,89,40,1,0,0,response1disk,9,118,6,-8,1,0,0,rectangle,6,-8,1,0,0,4,4,0,0.001025,6,-8,1,0,0,0,117,117,90,1,,,,,,,,,,,,,,,,,,,,,
,,,,,,,,,,,,,,,,,,,,,,,,,,,,,,,,,,,,,,,,,,5f0c675cbe0f365cc5424893,6036d892ee2cade6d4ddf4b9,2021-02-24_22h52.37.493,Colour_Similarity_Experiment,2020.2.10,Win32,60,6036d0d9a84aa1626184a6ef,17.42450512,16.62377022,16.58108483,16.67173875,16.58264618,16.61481,,,,,,,,,,,,,,,,,,,,PF,strong,3,,,,,,,,1,2.474325,,,,,,,,,,,,,,,,,,,,,,,,,,,,4,strong,-82,40,1,0,0,response7disk,5,119,15,-3,1,0,0,rectangle,15,-3,1,0,0,4,2,0,0.001755,15,-3,1,0,0,0,118,118,116,1,,,,,,,,,,,,,,,,,,,,,
,,,,,,,,,,,,,,,,,,,,,,,,,,,,,,,,,,,,,,,,,,5f0c675cbe0f365cc5424893,6036d892ee2cade6d4ddf4b9,2021-02-24_22h52.37.493,Colour_Similarity_Experiment,2020.2.10,Win32,60,6036d0d9a84aa1626184a6ef,17.42450512,16.62377022,16.58108483,16.67173875,16.58264618,16.61481,,,,,,,,,,,,,,,,,,,,PF,strong,3,,,,,,,,1,1.280045,,,,,,,,,,,,,,,,,,,,,,,,,,,,5,strong,-78,31,1,0,0,response7disk,3,120,-10,1,1,0,0,rectangle,-10,1,1,0,0,4,3,0,0.00125,-10,1,1,0,0,0,119,119,25,1,,,,,,,,,,,,,,,,,,,,,
,,,,,,,,,,,,,,,,,,,,,,,,,,,,,,,,,,,,,,,,,,5f0c675cbe0f365cc5424893,6036d892ee2cade6d4ddf4b9,2021-02-24_22h52.37.493,Colour_Similarity_Experiment,2020.2.10,Win32,60,6036d0d9a84aa1626184a6ef,17.42450512,16.62377022,16.58108483,16.67173875,16.58264618,16.61481,,,,,,,,,,,,,,,,,,,,PF,strong,3,,,,,,,,1,2.756835,,,,,,,,,,,,,,,,,,,,,,,,,,,,2,strong,-54,32,1,0,0,response7disk,2,121,7,-1,1,0,0,rectangle,7,-1,1,0,0,4,6,0,0.001145,7,-1,1,0,0,0,120,120,142,1,,,,,,,,,,,,,,,,,,,,,
,,,,,,,,,,,,,,,,,,,,,,,,,,,,,,,,,,,,,,,,,,5f0c675cbe0f365cc5424893,6036d892ee2cade6d4ddf4b9,2021-02-24_22h52.37.493,Colour_Similarity_Experiment,2020.2.10,Win32,60,6036d0d9a84aa1626184a6ef,17.42450512,16.62377022,16.58108483,16.67173875,16.58264618,16.61481,,,,,,,,,,,,,,,,,,,,PF,strong,3,,,,,,,,4,2.988785,,,,,,,,,,,,,,,,,,,,,,,,,,,,4,strong,39,-73,1,0,0,response3disk,2,122,-1,3,1,0,0,rectangle,-1,3,1,0,0,4,2,0,0.00148,-1,3,1,0,0,0,121,121,13,1,,,,,,,,,,,,,,,,,,,,,
,,,,,,,,,,,,,,,,,,,,,,,,,,,,,,,,,,,,,,,,,,5f0c675cbe0f365cc5424893,6036d892ee2cade6d4ddf4b9,2021-02-24_22h52.37.493,Colour_Similarity_Experiment,2020.2.10,Win32,60,6036d0d9a84aa1626184a6ef,17.42450512,16.62377022,16.58108483,16.67173875,16.58264618,16.61481,,,,,,,,,,,,,,,,,,,,PF,strong,3,,,,,,,,0,1.29766,,,,,,,,,,,,,,,,,,,,,,,,,,,,4,strong,-41,77,1,0,0,response7disk,4,123,10,-3,1,0,0,rectangle,10,-3,1,0,0,4,5,0,0.001555,10,-3,1,0,0,0,122,122,84,1,,,,,,,,,,,,,,,,,,,,,
,,,,,,,,,,,,,,,,,,,,,,,,,,,,,,,,,,,,,,,,,,5f0c675cbe0f365cc5424893,6036d892ee2cade6d4ddf4b9,2021-02-24_22h52.37.493,Colour_Similarity_Experiment,2020.2.10,Win32,60,6036d0d9a84aa1626184a6ef,17.42450512,16.62377022,16.58108483,16.67173875,16.58264618,16.61481,,,,,,,,,,,,,,,,,,,,PF,weak,3,,,,,,,,1,1.33154,,,,,,,,,,,,,,,,,,,,,,,,,,,,5,weak,-74,34,1,0,0,response7disk,3,124,-17,2,1,0,0,rectangle,-17,2,1,0,0,4,5,0,0.000115,-17,2,1,0,0,0,123,123,109,1,,,,,,,,,,,,,,,,,,,,,
,,,,,,,,,,,,,,,,,,,,,,,,,,,,,,,,,,,,,,,,,,5f0c675cbe0f365cc5424893,6036d892ee2cade6d4ddf4b9,2021-02-24_22h52.37.493,Colour_Similarity_Experiment,2020.2.10,Win32,60,6036d0d9a84aa1626184a6ef,17.42450512,16.62377022,16.58108483,16.67173875,16.58264618,16.61481,,,,,,,,,,,,,,,,,,,,PF,weak,3,,,,,,,,1,1.321725,,,,,,,,,,,,,,,,,,,,,,,,,,,,4,weak,-81,35,1,0,0,response7disk,5,125,-1,-3,1,0,0,rectangle,-1,-3,1,0,0,4,5,0,0.00016,-1,-3,1,0,0,0,124,124,49,1,,,,,,,,,,,,,,,,,,,,,
,,,,,,,,,,,,,,,,,,,,,,,,,,,,,,,,,,,,,,,,,,5f0c675cbe0f365cc5424893,6036d892ee2cade6d4ddf4b9,2021-02-24_22h52.37.493,Colour_Similarity_Experiment,2020.2.10,Win32,60,6036d0d9a84aa1626184a6ef,17.42450512,16.62377022,16.58108483,16.67173875,16.58264618,16.61481,,,,,,,,,,,,,,,,,,,,PF,strong,3,,,,,,,,5,1.624935,,,,,,,,,,,,,,,,,,,,,,,,,,,,3,strong,74,-30,1,0,0,response3disk,8,126,-12,5,1,0,0,rectangle,-12,5,1,0,0,4,7,0,0.001065,-12,5,1,0,0,0,125,125,44,1,,,,,,,,,,,,,,,,,,,,,
,,,,,,,,,,,,,,,,,,,,,,,,,,,,,,,,,,,,,,,,,,5f0c675cbe0f365cc5424893,6036d892ee2cade6d4ddf4b9,2021-02-24_22h52.37.493,Colour_Similarity_Experiment,2020.2.10,Win32,60,6036d0d9a84aa1626184a6ef,17.42450512,16.62377022,16.58108483,16.67173875,16.58264618,16.61481,,,,,,,,,,,,,,,,,,,,PF,strong,3,,,,,,,,5,2.22206,,,,,,,,,,,,,,,,,,,,,,,,,,,,8,strong,66,-34,1,0,0,response3disk,6,127,3,1,1,0,0,rectangle,3,1,1,0,0,4,7,0,0.000115,3,1,1,0,0,0,126,126,37,1,,,,,,,,,,,,,,,,,,,,,
,,,,,,,,,,,,,,,,,,,,,,,,,,,,,,,,,,,,,,,,,,5f0c675cbe0f365cc5424893,6036d892ee2cade6d4ddf4b9,2021-02-24_22h52.37.493,Colour_Similarity_Experiment,2020.2.10,Win32,60,6036d0d9a84aa1626184a6ef,17.42450512,16.62377022,16.58108483,16.67173875,16.58264618,16.61481,,,,,,,,,,,,,,,,,,,,PF,strong,3,,,,,,,,4,2.222405,,,,,,,,,,,,,,,,,,,,,,,,,,,,9,strong,33,-76,1,0,0,response3disk,5,128,0,2,1,0,0,rectangle,0,2,1,0,0,4,1,0,0.001205,0,2,1,0,0,0,127,127,128,1,,,,,,,,,,,,,,,,,,,,,
,,,,,,,,,,,,,,,,,,,,,,,,,,,,,,,,,,,,,,,,,,5f0c675cbe0f365cc5424893,6036d892ee2cade6d4ddf4b9,2021-02-24_22h52.37.493,Colour_Similarity_Experiment,2020.2.10,Win32,60,6036d0d9a84aa1626184a6ef,17.42450512,16.62377022,16.58108483,16.67173875,16.58264618,16.61481,,,,,,,,,,,,,,,,,,,,PF,strong,3,,,,,,,,0,1.10729,,,,,,,,,,,,,,,,,,,,,,,,,,,,6,strong,-39,91,1,0,0,response7disk,6,129,11,-1,1,0,0,rectangle,11,-1,1,0,0,4,5,0,0.00156,11,-1,1,0,0,0,128,128,91,1,,,,,,,,,,,,,,,,,,,,,
,,,,,,,,,,,,,,,,,,,,,,,,,,,,,,,,,,,,,,,,,,5f0c675cbe0f365cc5424893,6036d892ee2cade6d4ddf4b9,2021-02-24_22h52.37.493,Colour_Similarity_Experiment,2020.2.10,Win32,60,6036d0d9a84aa1626184a6ef,17.42450512,16.62377022,16.58108483,16.67173875,16.58264618,16.61481,,,,,,,,,,,,,,,,,,,,PF,weak,3,,,,,,,,7,1.244335,,,,,,,,,,,,,,,,,,,,,,,,,,,,4,weak,36,78,1,0,0,response1disk,1,130,-2,-9,1,0,0,rectangle,-2,-9,1,0,0,4,7,0,0.00121,-2,-9,1,0,0,0,129,129,115,1,,,,,,,,,,,,,,,,,,,,,
,,,,,,,,,,,,,,,,,,,,,,,,,,,,,,,,,,,,,,,,,,5f0c675cbe0f365cc5424893,6036d892ee2cade6d4ddf4b9,2021-02-24_22h52.37.493,Colour_Similarity_Experiment,2020.2.10,Win32,60,6036d0d9a84aa1626184a6ef,17.42450512,16.62377022,16.58108483,16.67173875,16.58264618,16.61481,,,,,,,,,,,,,,,,,,,,PF,strong,3,,,,,,,,4,2.17201,,,,,,,,,,,,,,,,,,,,,,,,,,,,8,strong,28,-75,1,0,0,response3disk,5,131,-3,1,1,0,0,rectangle,-3,1,1,0,0,4,5,0,0.00145,-3,1,1,0,0,0,130,130,152,1,,,,,,,,,,,,,,,,,,,,,
,,,,,,,,,,,,,,,,,,,,,,,,,,,,,,,,,,,,,,,,,,5f0c675cbe0f365cc5424893,6036d892ee2cade6d4ddf4b9,2021-02-24_22h52.37.493,Colour_Similarity_Experiment,2020.2.10,Win32,60,6036d0d9a84aa1626184a6ef,17.42450512,16.62377022,16.58108483,16.67173875,16.58264618,16.61481,,,,,,,,,,,,,,,,,,,,PF,weak,3,,,,,,,,5,1.740815,,,,,,,,,,,,,,,,,,,,,,,,,,,,3,weak,55,-24,1,0,0,response3disk,5,132,-21,1,1,0,0,rectangle,-21,1,1,0,0,4,7,0,0.001195,-21,1,1,0,0,0,131,131,66,1,,,,,,,,,,,,,,,,,,,,,
,,,,,,,,,,,,,,,,,,,,,,,,,,,,,,,,,,,,,,,,,,5f0c675cbe0f365cc5424893,6036d892ee2cade6d4ddf4b9,2021-02-24_22h52.37.493,Colour_Similarity_Experiment,2020.2.10,Win32,60,6036d0d9a84aa1626184a6ef,17.42450512,16.62377022,16.58108483,16.67173875,16.58264618,16.61481,,,,,,,,,,,,,,,,,,,,PF,weak,3,,,,,,,,5,1.17558,,,,,,,,,,,,,,,,,,,,,,,,,,,,8,weak,70,-30,1,0,0,response3disk,4,133,-7,3,1,0,0,rectangle,-7,3,1,0,0,4,3,0,0.001075,-7,3,1,0,0,0,132,132,78,1,,,,,,,,,,,,,,,,,,,,,
,,,,,,,,,,,,,,,,,,,,,,,,,,,,,,,,,,,,,,,,,,5f0c675cbe0f365cc5424893,6036d892ee2cade6d4ddf4b9,2021-02-24_22h52.37.493,Colour_Similarity_Experiment,2020.2.10,Win32,60,6036d0d9a84aa1626184a6ef,17.42450512,16.62377022,16.58108483,16.67173875,16.58264618,16.61481,,,,,,,,,,,,,,,,,,,,PF,strong,3,,,,,,,,7,1.79407,,,,,,,,,,,,,,,,,,,,,,,,,,,,5,strong,30,84,1,0,0,response1disk,7,134,9,13,1,0,0,rectangle,9,13,1,0,0,4,0,0,0.001565,9,13,1,0,0,0,133,133,7,1,,,,,,,,,,,,,,,,,,,,,
,,,,,,,,,,,,,,,,,,,,,,,,,,,,,,,,,,,,,,,,,,5f0c675cbe0f365cc5424893,6036d892ee2cade6d4ddf4b9,2021-02-24_22h52.37.493,Colour_Similarity_Experiment,2020.2.10,Win32,60,6036d0d9a84aa1626184a6ef,17.42450512,16.62377022,16.58108483,16.67173875,16.58264618,16.61481,,,,,,,,,,,,,,,,,,,,PF,weak,3,,,,,,,,6,3.44901,,,,,,,,,,,,,,,,,,,,,,,,,,,,2,weak,64,56,1,0,0,response1disk,9,135,-3,3,1,0,0,rectangle,-3,3,1,0,0,4,4,0,0.00108,-3,3,1,0,0,0,134,134,39,1,,,,,,,,,,,,,,,,,,,,,
,,,,,,,,,,,,,,,,,,,,,,,,,,,,,,,,,,,,,,,,,,5f0c675cbe0f365cc5424893,6036d892ee2cade6d4ddf4b9,2021-02-24_22h52.37.493,Colour_Similarity_Experiment,2020.2.10,Win32,60,6036d0d9a84aa1626184a6ef,17.42450512,16.62377022,16.58108483,16.67173875,16.58264618,16.61481,,,,,,,,,,,,,,,,,,,,PF,weak,3,,,,,,,,7,5.323015,,,,,,,,,,,,,,,,,,,,,,,,,,,,3,weak,38,62,1,0,0,response1disk,1,136,17,-3,1,0,0,rectangle,17,-3,1,0,0,4,3,0,0.001265,17,-3,1,0,0,0,135,135,96,1,,,,,,,,,,,,,,,,,,,,,
,,,,,,,,,,,,,,,,,,,,,,,,,,,,,,,,,,,,,,,,,,5f0c675cbe0f365cc5424893,6036d892ee2cade6d4ddf4b9,2021-02-24_22h52.37.493,Colour_Similarity_Experiment,2020.2.10,Win32,60,6036d0d9a84aa1626184a6ef,17.42450512,16.62377022,16.58108483,16.67173875,16.58264618,16.61481,,,,,,,,,,,,,,,,,,,,PF,weak,3,,,,,,,,6,1.473155,,,,,,,,,,,,,,,,,,,,,,,,,,,,9,weak,94,40,1,0,0,response1disk,6,137,-10,-7,1,0,0,rectangle,-10,-7,1,0,0,4,4,0,0.001145,-10,-7,1,0,0,0,136,136,148,1,,,,,,,,,,,,,,,,,,,,,
,,,,,,,,,,,,,,,,,,,,,,,,,,,,,,,,,,,,,,,,,,5f0c675cbe0f365cc5424893,6036d892ee2cade6d4ddf4b9,2021-02-24_22h52.37.493,Colour_Similarity_Experiment,2020.2.10,Win32,60,6036d0d9a84aa1626184a6ef,17.42450512,16.62377022,16.58108483,16.67173875,16.58264618,16.61481,,,,,,,,,,,,,,,,,,,,PF,strong,3,,,,,,,,6,1.211395,,,,,,,,,,,,,,,,,,,,,,,,,,,,8,strong,89,38,1,0,0,response1disk,7,138,-4,-6,1,0,0,rectangle,-4,-6,1,0,0,4,7,0,0.001155,-4,-6,1,0,0,0,137,137,86,1,,,,,,,,,,,,,,,,,,,,,
,,,,,,,,,,,,,,,,,,,,,,,,,,,,,,,,,,,,,,,,,,5f0c675cbe0f365cc5424893,6036d892ee2cade6d4ddf4b9,2021-02-24_22h52.37.493,Colour_Similarity_Experiment,2020.2.10,Win32,60,6036d0d9a84aa1626184a6ef,17.42450512,16.62377022,16.58108483,16.67173875,16.58264618,16.61481,,,,,,,,,,,,,,,,,,,,PF,strong,3,,,,,,,,7,7.74448,,,,,,,,,,,,,,,,,,,,,,,,,,,,4,strong,45,70,1,0,0,response1disk,7,139,9,0,1,0,0,rectangle,9,0,1,0,0,4,3,0,0.00118,9,0,1,0,0,0,138,138,87,1,,,,,,,,,,,,,,,,,,,,,
,,,,,,,,,,,,,,,,,,,,,,,,,,,,,,,,,,,,,,,,,,5f0c675cbe0f365cc5424893,6036d892ee2cade6d4ddf4b9,2021-02-24_22h52.37.493,Colour_Similarity_Experiment,2020.2.10,Win32,60,6036d0d9a84aa1626184a6ef,17.42450512,16.62377022,16.58108483,16.67173875,16.58264618,16.61481,,,,,,,,,,,,,,,,,,,,PF,weak,3,,,,,,,,1,1.392325,,,,,,,,,,,,,,,,,,,,,,,,,,,,7,weak,-79,34,1,0,0,response7disk,5,140,-10,0,1,0,0,rectangle,-10,0,1,0,0,4,3,0,0.00014,-10,0,1,0,0,0,139,139,92,1,,,,,,,,,,,,,,,,,,,,,
,,,,,,,,,,,,,,,,,,,,,,,,,,,,,,,,,,,,,,,,,,5f0c675cbe0f365cc5424893,6036d892ee2cade6d4ddf4b9,2021-02-24_22h52.37.493,Colour_Similarity_Experiment,2020.2.10,Win32,60,6036d0d9a84aa1626184a6ef,17.42450512,16.62377022,16.58108483,16.67173875,16.58264618,16.61481,,,,,,,,,,,,,,,,,,,,PF,weak,3,,,,,,,,4,1.35416,,,,,,,,,,,,,,,,,,,,,,,,,,,,3,weak,33,-84,1,0,0,response3disk,8,141,-1,-8,1,0,0,rectangle,-1,-8,1,0,0,4,4,0,0.00121,-1,-8,1,0,0,0,140,140,3,1,,,,,,,,,,,,,,,,,,,,,
,,,,,,,,,,,,,,,,,,,,,,,,,,,,,,,,,,,,,,,,,,5f0c675cbe0f365cc5424893,6036d892ee2cade6d4ddf4b9,2021-02-24_22h52.37.493,Colour_Similarity_Experiment,2020.2.10,Win32,60,6036d0d9a84aa1626184a6ef,17.42450512,16.62377022,16.58108483,16.67173875,16.58264618,16.61481,,,,,,,,,,,,,,,,,,,,PF,strong,3,,,,,,,,4,2.66758,,,,,,,,,,,,,,,,,,,,,,,,,,,,2,strong,39,-81,1,0,0,response3disk,8,142,4,-2,1,0,0,rectangle,4,-2,1,0,0,4,1,0,0.001195,4,-2,1,0,0,0,141,141,62,1,,,,,,,,,,,,,,,,,,,,,
,,,,,,,,,,,,,,,,,,,,,,,,,,,,,,,,,,,,,,,,,,5f0c675cbe0f365cc5424893,6036d892ee2cade6d4ddf4b9,2021-02-24_22h52.37.493,Colour_Similarity_Experiment,2020.2.10,Win32,60,6036d0d9a84aa1626184a6ef,17.42450512,16.62377022,16.58108483,16.67173875,16.58264618,16.61481,,,,,,,,,,,,,,,,,,,,PF,weak,3,,,,,,,,5,1.233065,,,,,,,,,,,,,,,,,,,,,,,,,,,,6,weak,83,-41,1,0,0,response3disk,2,143,-7,-4,1,0,0,rectangle,-7,-4,1,0,0,4,4,0,0.001285,-7,-4,1,0,0,0,142,142,130,1,,,,,,,,,,,,,,,,,,,,,
,,,,,,,,,,,,,,,,,,,,,,,,,,,,,,,,,,,,,,,,,,5f0c675cbe0f365cc5424893,6036d892ee2cade6d4ddf4b9,2021-02-24_22h52.37.493,Colour_Similarity_Experiment,2020.2.10,Win32,60,6036d0d9a84aa1626184a6ef,17.42450512,16.62377022,16.58108483,16.67173875,16.58264618,16.61481,,,,,,,,,,,,,,,,,,,,PF,strong,3,,,,,,,,6,2.368775,,,,,,,,,,,,,,,,,,,,,,,,,,,,1,strong,71,31,1,0,0,response1disk,7,144,0,0,1,0,0,rectangle,0,0,1,0,0,4,2,0,0.00104,0,0,1,0,0,0,143,143,137,1,,,,,,,,,,,,,,,,,,,,,
,,,,,,,,,,,,,,,,,,,,,,,,,,,,,,,,,,,,,,,,,,5f0c675cbe0f365cc5424893,6036d892ee2cade6d4ddf4b9,2021-02-24_22h52.37.493,Colour_Similarity_Experiment,2020.2.10,Win32,60,6036d0d9a84aa1626184a6ef,17.42450512,16.62377022,16.58108483,16.67173875,16.58264618,16.61481,,,,,,,,,,,,,,,,,,,,PF,weak,3,,,,,,,,2,1.88893,,,,,,,,,,,,,,,,,,,,,,,,,,,,3,weak,-67,-28,1,0,0,response5disk,2,145,11,4,1,0,0,rectangle,-27,99,1,0,0,0,0,1,1.940605,7,1,1,0,0,0,144,144,36,1,response7disk_3,rectangle,,,,,,,,,,,,,,,,,,,
,,,,,,,,,,,,,,,,,,,,,,,,,,,,,,,,,,,,,,,,,,5f0c675cbe0f365cc5424893,6036d892ee2cade6d4ddf4b9,2021-02-24_22h52.37.493,Colour_Similarity_Experiment,2020.2.10,Win32,60,6036d0d9a84aa1626184a6ef,17.42450512,16.62377022,16.58108483,16.67173875,16.58264618,16.61481,,,,,,,,,,,,,,,,,,,,PF,weak,3,,,,,,,,3,2.355305,,,,,,,,,,,,,,,,,,,,,,,,,,,,5,weak,-46,-88,1,0,0,response5disk,2,146,1,-4,1,0,0,rectangle,1,-4,1,0,0,0,6,0,0.0015,1,-4,1,0,0,0,145,145,129,1,,,,,,,,,,,,,,,,,,,,,
,,,,,,,,,,,,,,,,,,,,,,,,,,,,,,,,,,,,,,,,,,5f0c675cbe0f365cc5424893,6036d892ee2cade6d4ddf4b9,2021-02-24_22h52.37.493,Colour_Similarity_Experiment,2020.2.10,Win32,60,6036d0d9a84aa1626184a6ef,17.42450512,16.62377022,16.58108483,16.67173875,16.58264618,16.61481,,,,,,,,,,,,,,,,,,,,PF,strong,3,,,,,,,,7,1.242945,,,,,,,,,,,,,,,,,,,,,,,,,,,,3,strong,30,85,1,0,0,response1disk,7,147,-9,-4,1,0,0,rectangle,-9,-4,1,0,0,0,5,0,0.001215,-9,-4,1,0,0,0,146,146,118,1,,,,,,,,,,,,,,,,,,,,,
,,,,,,,,,,,,,,,,,,,,,,,,,,,,,,,,,,,,,,,,,,5f0c675cbe0f365cc5424893,6036d892ee2cade6d4ddf4b9,2021-02-24_22h52.37.493,Colour_Similarity_Experiment,2020.2.10,Win32,60,6036d0d9a84aa1626184a6ef,17.42450512,16.62377022,16.58108483,16.67173875,16.58264618,16.61481,,,,,,,,,,,,,,,,,,,,PF,strong,3,,,,,,,,7,2.137335,,,,,,,,,,,,,,,,,,,,,,,,,,,,8,strong,31,68,1,0,0,response1disk,4,148,-5,-3,1,0,0,rectangle,-5,-3,1,0,0,0,5,0,0.00017,-5,-3,1,0,0,0,147,147,88,1,,,,,,,,,,,,,,,,,,,,,
,,,,,,,,,,,,,,,,,,,,,,,,,,,,,,,,,,,,,,,,,,5f0c675cbe0f365cc5424893,6036d892ee2cade6d4ddf4b9,2021-02-24_22h52.37.493,Colour_Similarity_Experiment,2020.2.10,Win32,60,6036d0d9a84aa1626184a6ef,17.42450512,16.62377022,16.58108483,16.67173875,16.58264618,16.61481,,,,,,,,,,,,,,,,,,,,PF,weak,3,,,,,,,,4,2.222315,,,,,,,,,,,,,,,,,,,,,,,,,,,,3,weak,30,-57,1,0,0,response3disk,9,149,-6,-2,1,0,0,rectangle,-6,-2,1,0,0,0,4,0,0.001645,-6,-2,1,0,0,0,148,148,79,1,,,,,,,,,,,,,,,,,,,,,
,,,,,,,,,,,,,,,,,,,,,,,,,,,,,,,,,,,,,,,,,,5f0c675cbe0f365cc5424893,6036d892ee2cade6d4ddf4b9,2021-02-24_22h52.37.493,Colour_Similarity_Experiment,2020.2.10,Win32,60,6036d0d9a84aa1626184a6ef,17.42450512,16.62377022,16.58108483,16.67173875,16.58264618,16.61481,,,,,,,,,,,,,,,,,,,,PF,strong,3,,,,,,,,6,2.000795,,,,,,,,,,,,,,,,,,,,,,,,,,,,1,strong,83,30,1,0,0,response1disk,3,150,-6,6,1,0,0,rectangle,-6,6,1,0,0,0,7,0,0.001115,-6,6,1,0,0,0,149,149,99,1,,,,,,,,,,,,,,,,,,,,,
,,,,,,,,,,,,,,,,,,,,,,,,,,,,,,,,,,,,,,,,,,5f0c675cbe0f365cc5424893,6036d892ee2cade6d4ddf4b9,2021-02-24_22h52.37.493,Colour_Similarity_Experiment,2020.2.10,Win32,60,6036d0d9a84aa1626184a6ef,17.42450512,16.62377022,16.58108483,16.67173875,16.58264618,16.61481,,,,,,,,,,,,,,,,,,,,PF,strong,3,,,,,,,,0,1.048955,,,,,,,,,,,,,,,,,,,,,,,,,,,,7,strong,-35,82,1,0,0,response7disk,7,151,3,3,1,0,0,rectangle,3,3,1,0,0,0,5,0,0.000945,3,3,1,0,0,0,150,150,34,1,,,,,,,,,,,,,,,,,,,,,
,,,,,,,,,,,,,,,,,,,,,,,,,,,,,,,,,,,,,,,,,,5f0c675cbe0f365cc5424893,6036d892ee2cade6d4ddf4b9,2021-02-24_22h52.37.493,Colour_Similarity_Experiment,2020.2.10,Win32,60,6036d0d9a84aa1626184a6ef,17.42450512,16.62377022,16.58108483,16.67173875,16.58264618,16.61481,,,,,,,,,,,,,,,,,,,,PF,weak,3,,,,,,,,1,1.559415,,,,,,,,,,,,,,,,,,,,,,,,,,,,5,weak,-89,27,1,0,0,response7disk,4,152,-8,-4,1,0,0,rectangle,-8,-4,1,0,0,0,2,0,0.001035,-8,-4,1,0,0,0,151,151,54,1,,,,,,,,,,,,,,,,,,,,,
,,,,,,,,,,,,,,,,,,,,,,,,,,,,,,,,,,,,,,,,,,5f0c675cbe0f365cc5424893,6036d892ee2cade6d4ddf4b9,2021-02-24_22h52.37.493,Colour_Similarity_Experiment,2020.2.10,Win32,60,6036d0d9a84aa1626184a6ef,17.42450512,16.62377022,16.58108483,16.67173875,16.58264618,16.61481,,,,,,,,,,,,,,,,,,,,PF,weak,3,,,,,,,,1,1.323805,,,,,,,,,,,,,,,,,,,,,,,,,,,,9,weak,-84,39,1,0,0,response7disk,8,153,-16,6,1,0,0,rectangle,-16,6,1,0,0,0,7,0,0.00108,-16,6,1,0,0,0,152,152,67,1,,,,,,,,,,,,,,,,,,,,,
,,,,,,,,,,,,,,,,,,,,,,,,,,,,,,,,,,,,,,,,,,5f0c675cbe0f365cc5424893,6036d892ee2cade6d4ddf4b9,2021-02-24_22h52.37.493,Colour_Similarity_Experiment,2020.2.10,Win32,60,6036d0d9a84aa1626184a6ef,17.42450512,16.62377022,16.58108483,16.67173875,16.58264618,16.61481,,,,,,,,,,,,,,,,,,,,PF,weak,3,,,,,,,,7,1.48018,,,,,,,,,,,,,,,,,,,,,,,,,,,,1,weak,44,82,1,0,0,response1disk,4,154,6,6,1,0,0,rectangle,6,6,1,0,0,0,6,0,0.00116,6,6,1,0,0,0,153,153,139,1,,,,,,,,,,,,,,,,,,,,,
,,,,,,,,,,,,,,,,,,,,,,,,,,,,,,,,,,,,,,,,,,5f0c675cbe0f365cc5424893,6036d892ee2cade6d4ddf4b9,2021-02-24_22h52.37.493,Colour_Similarity_Experiment,2020.2.10,Win32,60,6036d0d9a84aa1626184a6ef,17.42450512,16.62377022,16.58108483,16.67173875,16.58264618,16.61481,,,,,,,,,,,,,,,,,,,,PF,weak,3,,,,,,,,7,1.13197,,,,,,,,,,,,,,,,,,,,,,,,,,,,8,weak,37,75,1,0,0,response1disk,1,155,0,-1,1,0,0,rectangle,0,-1,1,0,0,0,0,0,0.001585,0,-1,1,0,0,0,154,154,57,1,,,,,,,,,,,,,,,,,,,,,
,,,,,,,,,,,,,,,,,,,,,,,,,,,,,,,,,,,,,,,,,,5f0c675cbe0f365cc5424893,6036d892ee2cade6d4ddf4b9,2021-02-24_22h52.37.493,Colour_Similarity_Experiment,2020.2.10,Win32,60,6036d0d9a84aa1626184a6ef,17.42450512,16.62377022,16.58108483,16.67173875,16.58264618,16.61481,,,,,,,,,,,,,,,,,,,,PF,strong,3,,,,,,,,4,2.03984,,,,,,,,,,,,,,,,,,,,,,,,,,,,6,strong,40,-70,1,0,0,response3disk,9,156,-2,-1,1,0,0,rectangle,-82,-41,1,0,0,0,2,1,1.65794,9,9,1,0,0,0,155,155,160,1,response5disk_3,rectangle,,,,,,,,,,,,,,,,,,,
,,,,,,,,,,,,,,,,,,,,,,,,,,,,,,,,,,,,,,,,,,5f0c675cbe0f365cc5424893,6036d892ee2cade6d4ddf4b9,2021-02-24_22h52.37.493,Colour_Similarity_Experiment,2020.2.10,Win32,60,6036d0d9a84aa1626184a6ef,17.42450512,16.62377022,16.58108483,16.67173875,16.58264618,16.61481,,,,,,,,,,,,,,,,,,,,PF,strong,3,,,,,,,,0,1.343025,,,,,,,,,,,,,,,,,,,,,,,,,,,,1,strong,-33,88,1,0,0,response7disk,1,157,3,6,1,0,0,rectangle,3,6,1,0,0,0,4,0,0.00141,3,6,1,0,0,0,156,156,151,1,,,,,,,,,,,,,,,,,,,,,
,,,,,,,,,,,,,,,,,,,,,,,,,,,,,,,,,,,,,,,,,,5f0c675cbe0f365cc5424893,6036d892ee2cade6d4ddf4b9,2021-02-24_22h52.37.493,Colour_Similarity_Experiment,2020.2.10,Win32,60,6036d0d9a84aa1626184a6ef,17.42450512,16.62377022,16.58108483,16.67173875,16.58264618,16.61481,,,,,,,,,,,,,,,,,,,,PF,weak,3,,,,,,,,2,1.642155,,,,,,,,,,,,,,,,,,,,,,,,,,,,7,weak,-71,-43,1,0,0,response5disk,8,158,-11,-1,1,0,0,rectangle,-11,-1,1,0,0,0,0,0,0.00115,-11,-1,1,0,0,0,157,157,140,1,,,,,,,,,,,,,,,,,,,,,
,,,,,,,,,,,,,,,,,,,,,,,,,,,,,,,,,,,,,,,,,,5f0c675cbe0f365cc5424893,6036d892ee2cade6d4ddf4b9,2021-02-24_22h52.37.493,Colour_Similarity_Experiment,2020.2.10,Win32,60,6036d0d9a84aa1626184a6ef,17.42450512,16.62377022,16.58108483,16.67173875,16.58264618,16.61481,,,,,,,,,,,,,,,,,,,,PF,strong,3,,,,,,,,1,1.124495,,,,,,,,,,,,,,,,,,,,,,,,,,,,4,strong,-85,44,1,0,0,response7disk,3,159,-4,11,1,0,0,rectangle,-4,11,1,0,0,0,0,0,0.000295,-4,11,1,0,0,0,158,158,77,1,,,,,,,,,,,,,,,,,,,,,
,,,,,,,,,,,,,,,,,,,,,,,,,,,,,,,,,,,,,,,,,,5f0c675cbe0f365cc5424893,6036d892ee2cade6d4ddf4b9,2021-02-24_22h52.37.493,Colour_Similarity_Experiment,2020.2.10,Win32,60,6036d0d9a84aa1626184a6ef,17.42450512,16.62377022,16.58108483,16.67173875,16.58264618,16.61481,,,,,,,,,,,,,,,,,,,,PF,strong,3,,,,,,,,5,1.64567,,,,,,,,,,,,,,,,,,,,,,,,,,,,5,strong,70,-30,1,0,0,response3disk,9,160,-27,6,1,0,0,rectangle,-27,6,1,0,0,0,7,0,0.001175,-27,6,1,0,0,0,159,159,61,1,,,,,,,,,,,,,,,,,,,,,
,,,,,,,,,,,,,,,,,,,,,,,,,,,,,,,,,,,,,,,,,,5f0c675cbe0f365cc5424893,6036d892ee2cade6d4ddf4b9,2021-02-24_22h52.37.493,Colour_Similarity_Experiment,2020.2.10,Win32,60,6036d0d9a84aa1626184a6ef,17.42450512,16.62377022,16.58108483,16.67173875,16.58264618,16.61481,,,,,,,,,,,,,,,,,,,,PF,strong,3,,,,,,,,3,2.041475,,,,,,,,,,,,,,,,,,,,,,,,,,,,3,strong,-44,-93,1,0,0,response5disk,2,161,0,4,1,0,0,rectangle,0,4,1,0,0,0,0,0,0.001215,0,4,1,0,0,0,160,160,93,1,,,,,,,,,,,,,,,,,,,,,
,,,,,,,,,,,,,,,,,,,,,,,,,,,,,,,,,,,,,,,,,,5f0c675cbe0f365cc5424893,6036d892ee2cade6d4ddf4b9,2021-02-24_22h52.37.493,Colour_Similarity_Experiment,2020.2.10,Win32,60,6036d0d9a84aa1626184a6ef,17.42450512,16.62377022,16.58108483,16.67173875,16.58264618,16.61481,,,,,,,,,,,,,,,,,,,,PF,weak,3,,,,,,,,0,1.609455,,,,,,,,,,,,,,,,,,,,,,,,,,,,4,weak,-43,84,1,0,0,response7disk,3,162,-3,-3,1,0,0,rectangle,-3,-3,1,0,0,0,0,0,0.00012,-3,-3,1,0,0,0,161,161,89,1,,,,,,,,,,,,,,,,,,,,,
,,,,,,,,,,,,,,,,,,,,,,,,,,,,,,,,,,,,,,,,,,5f0c675cbe0f365cc5424893,6036d892ee2cade6d4ddf4b9,2021-02-24_22h52.37.493,Colour_Similarity_Experiment,2020.2.10,Win32,60,6036d0d9a84aa1626184a6ef,17.42450512,16.62377022,16.58108483,16.67173875,16.58264618,16.61481,,,,,,,,,,,,,,,,,,,,,,,,,,,,,,,,,,,,,,,,,,,,,,,,,,,,,,,,,,,,,,,,,,,,,,,,,,,,,,,,,,,,,,,,,,,,,,,,0,0,0,0,1,,,,,,,,,,,,,,
,,,,,,,,,,,,,,,,,,,,,,,,,,,,,,,,,,,,,,,,,,5f0c675cbe0f365cc5424893,6036d892ee2cade6d4ddf4b9,2021-02-24_22h52.37.493,Colour_Similarity_Experiment,2020.2.10,Win32,60,6036d0d9a84aa1626184a6ef,17.42450512,16.62377022,16.58108483,16.67173875,16.58264618,16.61481,,,,,,,,,,,,,,,,,,,,PF,strong,3,,,,,,,,4,1.824445,,,,,,,,,,,,,,,,,,,,,,,,,,,,4,strong,42,-76,1,0,0,response3disk,6,163,4,0,1,0,0,rectangle,4,0,1,0,0,0,2,0,0.00121,4,0,1,0,0,0,0,0,122,1,,,,,,,,,,,,,,,,,,,,,
,,,,,,,,,,,,,,,,,,,,,,,,,,,,,,,,,,,,,,,,,,5f0c675cbe0f365cc5424893,6036d892ee2cade6d4ddf4b9,2021-02-24_22h52.37.493,Colour_Similarity_Experiment,2020.2.10,Win32,60,6036d0d9a84aa1626184a6ef,17.42450512,16.62377022,16.58108483,16.67173875,16.58264618,16.61481,,,,,,,,,,,,,,,,,,,,PF,strong,3,,,,,,,,4,1.31429,,,,,,,,,,,,,,,,,,,,,,,,,,,,8,strong,32,-71,1,0,0,response3disk,1,164,-2,11,1,0,0,rectangle,-2,11,1,0,0,0,6,0,0.001385,-2,11,1,0,0,0,1,1,20,1,,,,,,,,,,,,,,,,,,,,,
,,,,,,,,,,,,,,,,,,,,,,,,,,,,,,,,,,,,,,,,,,5f0c675cbe0f365cc5424893,6036d892ee2cade6d4ddf4b9,2021-02-24_22h52.37.493,Colour_Similarity_Experiment,2020.2.10,Win32,60,6036d0d9a84aa1626184a6ef,17.42450512,16.62377022,16.58108483,16.67173875,16.58264618,16.61481,,,,,,,,,,,,,,,,,,,,PF,strong,3,,,,,,,,3,4.746315,,,,,,,,,,,,,,,,,,,,,,,,,,,,7,strong,-31,-73,1,0,0,response5disk,8,165,-4,0,1,0,0,rectangle,31,-80,1,0,0,4,4,1,1.5428,-11,4,1,0,0,0,2,2,97,1,response3disk_3,rectangle,,,,,,,,,,,,,,,,,,,
,,,,,,,,,,,,,,,,,,,,,,,,,,,,,,,,,,,,,,,,,,5f0c675cbe0f365cc5424893,6036d892ee2cade6d4ddf4b9,2021-02-24_22h52.37.493,Colour_Similarity_Experiment,2020.2.10,Win32,60,6036d0d9a84aa1626184a6ef,17.42450512,16.62377022,16.58108483,16.67173875,16.58264618,16.61481,,,,,,,,,,,,,,,,,,,,PF,strong,3,,,,,,,,6,1.944415,,,,,,,,,,,,,,,,,,,,,,,,,,,,7,strong,84,35,1,0,0,response1disk,1,166,7,0,1,0,0,rectangle,7,0,1,0,0,4,4,0,0.00012,7,0,1,0,0,0,3,3,132,1,,,,,,,,,,,,,,,,,,,,,
,,,,,,,,,,,,,,,,,,,,,,,,,,,,,,,,,,,,,,,,,,5f0c675cbe0f365cc5424893,6036d892ee2cade6d4ddf4b9,2021-02-24_22h52.37.493,Colour_Similarity_Experiment,2020.2.10,Win32,60,6036d0d9a84aa1626184a6ef,17.42450512,16.62377022,16.58108483,16.67173875,16.58264618,16.61481,,,,,,,,,,,,,,,,,,,,PF,strong,3,,,,,,,,3,2.02677,,,,,,,,,,,,,,,,,,,,,,,,,,,,5,strong,-54,-81,1,0,0,response5disk,4,167,-5,-6,1,0,0,rectangle,-5,-6,1,0,0,4,6,0,0.00103,-5,-6,1,0,0,0,4,4,8,1,,,,,,,,,,,,,,,,,,,,,
,,,,,,,,,,,,,,,,,,,,,,,,,,,,,,,,,,,,,,,,,,5f0c675cbe0f365cc5424893,6036d892ee2cade6d4ddf4b9,2021-02-24_22h52.37.493,Colour_Similarity_Experiment,2020.2.10,Win32,60,6036d0d9a84aa1626184a6ef,17.42450512,16.62377022,16.58108483,16.67173875,16.58264618,16.61481,,,,,,,,,,,,,,,,,,,,PF,strong,3,,,,,,,,0,1.33821,,,,,,,,,,,,,,,,,,,,,,,,,,,,6,strong,-45,94,1,0,0,response7disk,5,168,-8,0,1,0,0,rectangle,-8,0,1,0,0,4,3,0,0.000935,-8,0,1,0,0,0,5,5,126,1,,,,,,,,,,,,,,,,,,,,,
,,,,,,,,,,,,,,,,,,,,,,,,,,,,,,,,,,,,,,,,,,5f0c675cbe0f365cc5424893,6036d892ee2cade6d4ddf4b9,2021-02-24_22h52.37.493,Colour_Similarity_Experiment,2020.2.10,Win32,60,6036d0d9a84aa1626184a6ef,17.42450512,16.62377022,16.58108483,16.67173875,16.58264618,16.61481,,,,,,,,,,,,,,,,,,,,PF,weak,3,,,,,,,,6,1.472995,,,,,,,,,,,,,,,,,,,,,,,,,,,,7,weak,77,41,1,0,0,response1disk,2,169,-2,2,1,0,0,rectangle,-2,2,1,0,0,4,6,0,0.001125,-2,2,1,0,0,0,6,6,32,1,,,,,,,,,,,,,,,,,,,,,
,,,,,,,,,,,,,,,,,,,,,,,,,,,,,,,,,,,,,,,,,,5f0c675cbe0f365cc5424893,6036d892ee2cade6d4ddf4b9,2021-02-24_22h52.37.493,Colour_Similarity_Experiment,2020.2.10,Win32,60,6036d0d9a84aa1626184a6ef,17.42450512,16.62377022,16.58108483,16.67173875,16.58264618,16.61481,,,,,,,,,,,,,,,,,,,,PF,strong,3,,,,,,,,6,1.75488,,,,,,,,,,,,,,,,,,,,,,,,,,,,3,strong,72,32,1,0,0,response1disk,9,170,-3,-4,1,0,0,rectangle,-3,-4,1,0,0,4,6,0,0.00023,-3,-4,1,0,0,0,7,7,143,1,,,,,,,,,,,,,,,,,,,,,
,,,,,,,,,,,,,,,,,,,,,,,,,,,,,,,,,,,,,,,,,,5f0c675cbe0f365cc5424893,6036d892ee2cade6d4ddf4b9,2021-02-24_22h52.37.493,Colour_Similarity_Experiment,2020.2.10,Win32,60,6036d0d9a84aa1626184a6ef,17.42450512,16.62377022,16.58108483,16.67173875,16.58264618,16.61481,,,,,,,,,,,,,,,,,,,,PF,strong,3,,,,,,,,6,2.009545,,,,,,,,,,,,,,,,,,,,,,,,,,,,1,strong,70,35,1,0,0,response1disk,5,171,1,-1,1,0,0,rectangle,1,-1,1,0,0,4,2,0,0.00129,1,-1,1,0,0,0,8,8,82,1,,,,,,,,,,,,,,,,,,,,,
,,,,,,,,,,,,,,,,,,,,,,,,,,,,,,,,,,,,,,,,,,5f0c675cbe0f365cc5424893,6036d892ee2cade6d4ddf4b9,2021-02-24_22h52.37.493,Colour_Similarity_Experiment,2020.2.10,Win32,60,6036d0d9a84aa1626184a6ef,17.42450512,16.62377022,16.58108483,16.67173875,16.58264618,16.61481,,,,,,,,,,,,,,,,,,,,PF,strong,3,,,,,,,,6,1.131725,,,,,,,,,,,,,,,,,,,,,,,,,,,,1,strong,74,36,1,0,0,response1disk,8,172,8,2,1,0,0,rectangle,8,2,1,0,0,4,1,0,0.001205,8,2,1,0,0,0,9,9,27,1,,,,,,,,,,,,,,,,,,,,,
,,,,,,,,,,,,,,,,,,,,,,,,,,,,,,,,,,,,,,,,,,5f0c675cbe0f365cc5424893,6036d892ee2cade6d4ddf4b9,2021-02-24_22h52.37.493,Colour_Similarity_Experiment,2020.2.10,Win32,60,6036d0d9a84aa1626184a6ef,17.42450512,16.62377022,16.58108483,16.67173875,16.58264618,16.61481,,,,,,,,,,,,,,,,,,,,PF,weak,3,,,,,,,,6,3.02207,,,,,,,,,,,,,,,,,,,,,,,,,,,,4,weak,91,38,1,0,0,response1disk,2,173,1,-2,1,0,0,rectangle,1,-2,1,0,0,4,0,0,0.00118,1,-2,1,0,0,0,10,10,108,1,,,,,,,,,,,,,,,,,,,,,
,,,,,,,,,,,,,,,,,,,,,,,,,,,,,,,,,,,,,,,,,,5f0c675cbe0f365cc5424893,6036d892ee2cade6d4ddf4b9,2021-02-24_22h52.37.493,Colour_Similarity_Experiment,2020.2.10,Win32,60,6036d0d9a84aa1626184a6ef,17.42450512,16.62377022,16.58108483,16.67173875,16.58264618,16.61481,,,,,,,,,,,,,,,,,,,,PF,strong,3,,,,,,,,6,1.147455,,,,,,,,,,,,,,,,,,,,,,,,,,,,2,strong,72,38,1,0,0,response1disk,6,174,-14,2,1,0,0,rectangle,-14,2,1,0,0,4,3,0,0.00104,-14,2,1,0,0,0,11,11,40,1,,,,,,,,,,,,,,,,,,,,,
,,,,,,,,,,,,,,,,,,,,,,,,,,,,,,,,,,,,,,,,,,5f0c675cbe0f365cc5424893,6036d892ee2cade6d4ddf4b9,2021-02-24_22h52.37.493,Colour_Similarity_Experiment,2020.2.10,Win32,60,6036d0d9a84aa1626184a6ef,17.42450512,16.62377022,16.58108483,16.67173875,16.58264618,16.61481,,,,,,,,,,,,,,,,,,,,PF,weak,3,,,,,,,,6,1.34702,,,,,,,,,,,,,,,,,,,,,,,,,,,,2,weak,72,44,1,0,0,response1disk,7,175,8,4,1,0,0,rectangle,8,4,1,0,0,4,1,0,0.00118,8,4,1,0,0,0,12,12,107,1,,,,,,,,,,,,,,,,,,,,,
,,,,,,,,,,,,,,,,,,,,,,,,,,,,,,,,,,,,,,,,,,5f0c675cbe0f365cc5424893,6036d892ee2cade6d4ddf4b9,2021-02-24_22h52.37.493,Colour_Similarity_Experiment,2020.2.10,Win32,60,6036d0d9a84aa1626184a6ef,17.42450512,16.62377022,16.58108483,16.67173875,16.58264618,16.61481,,,,,,,,,,,,,,,,,,,,PF,strong,3,,,,,,,,6,1.392235,,,,,,,,,,,,,,,,,,,,,,,,,,,,8,strong,82,35,1,0,0,response1disk,2,176,-9,-8,1,0,0,rectangle,-9,-8,1,0,0,4,5,0,0.001155,-9,-8,1,0,0,0,13,13,22,1,,,,,,,,,,,,,,,,,,,,,
,,,,,,,,,,,,,,,,,,,,,,,,,,,,,,,,,,,,,,,,,,5f0c675cbe0f365cc5424893,6036d892ee2cade6d4ddf4b9,2021-02-24_22h52.37.493,Colour_Similarity_Experiment,2020.2.10,Win32,60,6036d0d9a84aa1626184a6ef,17.42450512,16.62377022,16.58108483,16.67173875,16.58264618,16.61481,,,,,,,,,,,,,,,,,,,,PF,weak,3,,,,,,,,5,3.963075,,,,,,,,,,,,,,,,,,,,,,,,,,,,9,weak,64,-37,1,0,0,response3disk,2,177,-8,1,1,0,0,rectangle,-8,1,1,0,0,4,4,0,0.001215,-8,1,1,0,0,0,14,14,157,1,,,,,,,,,,,,,,,,,,,,,
,,,,,,,,,,,,,,,,,,,,,,,,,,,,,,,,,,,,,,,,,,5f0c675cbe0f365cc5424893,6036d892ee2cade6d4ddf4b9,2021-02-24_22h52.37.493,Colour_Similarity_Experiment,2020.2.10,Win32,60,6036d0d9a84aa1626184a6ef,17.42450512,16.62377022,16.58108483,16.67173875,16.58264618,16.61481,,,,,,,,,,,,,,,,,,,,PF,weak,3,,,,,,,,0,1.09527,,,,,,,,,,,,,,,,,,,,,,,,,,,,6,weak,-38,89,1,0,0,response7disk,6,178,10,2,1,0,0,rectangle,10,2,1,0,0,4,7,0,0.001215,10,2,1,0,0,0,15,15,0,1,,,,,,,,,,,,,,,,,,,,,
,,,,,,,,,,,,,,,,,,,,,,,,,,,,,,,,,,,,,,,,,,5f0c675cbe0f365cc5424893,6036d892ee2cade6d4ddf4b9,2021-02-24_22h52.37.493,Colour_Similarity_Experiment,2020.2.10,Win32,60,6036d0d9a84aa1626184a6ef,17.42450512,16.62377022,16.58108483,16.67173875,16.58264618,16.61481,,,,,,,,,,,,,,,,,,,,PF,strong,3,,,,,,,,1,1.125345,,,,,,,,,,,,,,,,,,,,,,,,,,,,7,strong,-73,30,1,0,0,response7disk,5,179,-10,0,1,0,0,rectangle,-10,0,1,0,0,4,1,0,0.001235,-10,0,1,0,0,0,16,16,156,1,,,,,,,,,,,,,,,,,,,,,
,,,,,,,,,,,,,,,,,,,,,,,,,,,,,,,,,,,,,,,,,,5f0c675cbe0f365cc5424893,6036d892ee2cade6d4ddf4b9,2021-02-24_22h52.37.493,Colour_Similarity_Experiment,2020.2.10,Win32,60,6036d0d9a84aa1626184a6ef,17.42450512,16.62377022,16.58108483,16.67173875,16.58264618,16.61481,,,,,,,,,,,,,,,,,,,,PF,weak,3,,,,,,,,6,3.055165,,,,,,,,,,,,,,,,,,,,,,,,,,,,6,weak,55,38,1,0,0,response1disk,4,180,-8,9,1,0,0,rectangle,-8,9,1,0,0,4,0,0,0.00113,-8,9,1,0,0,0,17,17,33,1,,,,,,,,,,,,,,,,,,,,,
,,,,,,,,,,,,,,,,,,,,,,,,,,,,,,,,,,,,,,,,,,5f0c675cbe0f365cc5424893,6036d892ee2cade6d4ddf4b9,2021-02-24_22h52.37.493,Colour_Similarity_Experiment,2020.2.10,Win32,60,6036d0d9a84aa1626184a6ef,17.42450512,16.62377022,16.58108483,16.67173875,16.58264618,16.61481,,,,,,,,,,,,,,,,,,,,PF,strong,3,,,,,,,,6,3.2881,,,,,,,,,,,,,,,,,,,,,,,,,,,,6,strong,76,33,1,0,0,response1disk,8,181,0,-1,1,0,0,rectangle,0,-1,1,0,0,4,1,0,0.00104,0,-1,1,0,0,0,18,18,133,1,,,,,,,,,,,,,,,,,,,,,
,,,,,,,,,,,,,,,,,,,,,,,,,,,,,,,,,,,,,,,,,,5f0c675cbe0f365cc5424893,6036d892ee2cade6d4ddf4b9,2021-02-24_22h52.37.493,Colour_Similarity_Experiment,2020.2.10,Win32,60,6036d0d9a84aa1626184a6ef,17.42450512,16.62377022,16.58108483,16.67173875,16.58264618,16.61481,,,,,,,,,,,,,,,,,,,,PF,strong,3,,,,,,,,7,2.07705,,,,,,,,,,,,,,,,,,,,,,,,,,,,2,strong,31,62,1,0,0,response1disk,4,182,-1,4,1,0,0,rectangle,-1,4,1,0,0,4,7,0,0.001245,-1,4,1,0,0,0,19,19,145,1,,,,,,,,,,,,,,,,,,,,,
,,,,,,,,,,,,,,,,,,,,,,,,,,,,,,,,,,,,,,,,,,5f0c675cbe0f365cc5424893,6036d892ee2cade6d4ddf4b9,2021-02-24_22h52.37.493,Colour_Similarity_Experiment,2020.2.10,Win32,60,6036d0d9a84aa1626184a6ef,17.42450512,16.62377022,16.58108483,16.67173875,16.58264618,16.61481,,,,,,,,,,,,,,,,,,,,PF,weak,3,,,,,,,,3,2.356765,,,,,,,,,,,,,,,,,,,,,,,,,,,,8,weak,-33,-83,1,0,0,response5disk,9,183,3,3,1,0,0,rectangle,3,3,1,0,0,4,1,0,0.0009,3,3,1,0,0,0,20,20,42,1,,,,,,,,,,,,,,,,,,,,,
,,,,,,,,,,,,,,,,,,,,,,,,,,,,,,,,,,,,,,,,,,5f0c675cbe0f365cc5424893,6036d892ee2cade6d4ddf4b9,2021-02-24_22h52.37.493,Colour_Similarity_Experiment,2020.2.10,Win32,60,6036d0d9a84aa1626184a6ef,17.42450512,16.62377022,16.58108483,16.67173875,16.58264618,16.61481,,,,,,,,,,,,,,,,,,,,PF,strong,3,,,,,,,,6,2.905465,,,,,,,,,,,,,,,,,,,,,,,,,,,,5,strong,79,28,1,0,0,response1disk,8,184,-3,0,1,0,0,rectangle,-3,0,1,0,0,4,2,0,0.0014,-3,0,1,0,0,0,21,21,16,1,,,,,,,,,,,,,,,,,,,,,
,,,,,,,,,,,,,,,,,,,,,,,,,,,,,,,,,,,,,,,,,,5f0c675cbe0f365cc5424893,6036d892ee2cade6d4ddf4b9,2021-02-24_22h52.37.493,Colour_Similarity_Experiment,2020.2.10,Win32,60,6036d0d9a84aa1626184a6ef,17.42450512,16.62377022,16.58108483,16.67173875,16.58264618,16.61481,,,,,,,,,,,,,,,,,,,,PF,strong,3,,,,,,,,3,2.107555,,,,,,,,,,,,,,,,,,,,,,,,,,,,1,strong,-32,-81,1,0,0,response5disk,2,185,-6,1,1,0,0,rectangle,-6,1,1,0,0,4,0,0,0.001255,-6,1,1,0,0,0,22,22,2,1,,,,,,,,,,,,,,,,,,,,,
,,,,,,,,,,,,,,,,,,,,,,,,,,,,,,,,,,,,,,,,,,5f0c675cbe0f365cc5424893,6036d892ee2cade6d4ddf4b9,2021-02-24_22h52.37.493,Colour_Similarity_Experiment,2020.2.10,Win32,60,6036d0d9a84aa1626184a6ef,17.42450512,16.62377022,16.58108483,16.67173875,16.58264618,16.61481,,,,,,,,,,,,,,,,,,,,PF,weak,3,,,,,,,,0,1.192755,,,,,,,,,,,,,,,,,,,,,,,,,,,,3,weak,-37,87,1,0,0,response7disk,3,186,4,6,1,0,0,rectangle,4,6,1,0,0,4,1,0,0.00104,4,6,1,0,0,0,23,23,4,1,,,,,,,,,,,,,,,,,,,,,
,,,,,,,,,,,,,,,,,,,,,,,,,,,,,,,,,,,,,,,,,,5f0c675cbe0f365cc5424893,6036d892ee2cade6d4ddf4b9,2021-02-24_22h52.37.493,Colour_Similarity_Experiment,2020.2.10,Win32,60,6036d0d9a84aa1626184a6ef,17.42450512,16.62377022,16.58108483,16.67173875,16.58264618,16.61481,,,,,,,,,,,,,,,,,,,,PF,weak,3,,,,,,,,0,0.912045,,,,,,,,,,,,,,,,,,,,,,,,,,,,4,weak,-43,102,1,0,0,response7disk,4,187,-3,-2,1,0,0,rectangle,-3,-2,1,0,0,4,1,0,0.00014,-3,-2,1,0,0,0,24,24,70,1,,,,,,,,,,,,,,,,,,,,,
,,,,,,,,,,,,,,,,,,,,,,,,,,,,,,,,,,,,,,,,,,5f0c675cbe0f365cc5424893,6036d892ee2cade6d4ddf4b9,2021-02-24_22h52.37.493,Colour_Similarity_Experiment,2020.2.10,Win32,60,6036d0d9a84aa1626184a6ef,17.42450512,16.62377022,16.58108483,16.67173875,16.58264618,16.61481,,,,,,,,,,,,,,,,,,,,PF,strong,3,,,,,,,,0,1.045365,,,,,,,,,,,,,,,,,,,,,,,,,,,,9,strong,-42,86,1,0,0,response7disk,9,188,-4,2,1,0,0,rectangle,-4,2,1,0,0,4,3,0,0.00139,-4,2,1,0,0,0,25,25,17,1,,,,,,,,,,,,,,,,,,,,,
,,,,,,,,,,,,,,,,,,,,,,,,,,,,,,,,,,,,,,,,,,5f0c675cbe0f365cc5424893,6036d892ee2cade6d4ddf4b9,2021-02-24_22h52.37.493,Colour_Similarity_Experiment,2020.2.10,Win32,60,6036d0d9a84aa1626184a6ef,17.42450512,16.62377022,16.58108483,16.67173875,16.58264618,16.61481,,,,,,,,,,,,,,,,,,,,PF,weak,3,,,,,,,,7,1.277065,,,,,,,,,,,,,,,,,,,,,,,,,,,,7,weak,29,82,1,0,0,response1disk,4,189,5,-1,1,0,0,rectangle,5,-1,1,0,0,4,6,0,0.001285,5,-1,1,0,0,0,26,26,43,1,,,,,,,,,,,,,,,,,,,,,
,,,,,,,,,,,,,,,,,,,,,,,,,,,,,,,,,,,,,,,,,,5f0c675cbe0f365cc5424893,6036d892ee2cade6d4ddf4b9,2021-02-24_22h52.37.493,Colour_Similarity_Experiment,2020.2.10,Win32,60,6036d0d9a84aa1626184a6ef,17.42450512,16.62377022,16.58108483,16.67173875,16.58264618,16.61481,,,,,,,,,,,,,,,,,,,,PF,strong,3,,,,,,,,2,1.841245,,,,,,,,,,,,,,,,,,,,,,,,,,,,1,strong,-94,-46,1,0,0,response5disk,9,190,3,0,1,0,0,rectangle,3,0,1,0,0,4,0,0,0.001185,3,0,1,0,0,0,27,27,123,1,,,,,,,,,,,,,,,,,,,,,
,,,,,,,,,,,,,,,,,,,,,,,,,,,,,,,,,,,,,,,,,,5f0c675cbe0f365cc5424893,6036d892ee2cade6d4ddf4b9,2021-02-24_22h52.37.493,Colour_Similarity_Experiment,2020.2.10,Win32,60,6036d0d9a84aa1626184a6ef,17.42450512,16.62377022,16.58108483,16.67173875,16.58264618,16.61481,,,,,,,,,,,,,,,,,,,,PF,strong,3,,,,,,,,2,1.028175,,,,,,,,,,,,,,,,,,,,,,,,,,,,9,strong,-92,-45,1,0,0,response5disk,2,191,-12,0,1,0,0,rectangle,85,39,1,0,0,6,6,1,1.90672,-4,-1,1,0,0,0,28,28,11,1,response1disk_3,rectangle,,,,,,,,,,,,,,,,,,,
,,,,,,,,,,,,,,,,,,,,,,,,,,,,,,,,,,,,,,,,,,5f0c675cbe0f365cc5424893,6036d892ee2cade6d4ddf4b9,2021-02-24_22h52.37.493,Colour_Similarity_Experiment,2020.2.10,Win32,60,6036d0d9a84aa1626184a6ef,17.42450512,16.62377022,16.58108483,16.67173875,16.58264618,16.61481,,,,,,,,,,,,,,,,,,,,PF,weak,3,,,,,,,,7,1.34273,,,,,,,,,,,,,,,,,,,,,,,,,,,,6,weak,35,67,1,0,0,response1disk,3,192,7,1,1,0,0,rectangle,7,1,1,0,0,6,6,0,0.00018,7,1,1,0,0,0,29,29,26,1,,,,,,,,,,,,,,,,,,,,,
,,,,,,,,,,,,,,,,,,,,,,,,,,,,,,,,,,,,,,,,,,5f0c675cbe0f365cc5424893,6036d892ee2cade6d4ddf4b9,2021-02-24_22h52.37.493,Colour_Similarity_Experiment,2020.2.10,Win32,60,6036d0d9a84aa1626184a6ef,17.42450512,16.62377022,16.58108483,16.67173875,16.58264618,16.61481,,,,,,,,,,,,,,,,,,,,PF,strong,3,,,,,,,,7,2.702995,,,,,,,,,,,,,,,,,,,,,,,,,,,,3,strong,22,76,1,0,0,response1disk,1,193,-5,8,1,0,0,rectangle,-5,8,1,0,0,6,5,0,0.001325,-5,8,1,0,0,0,30,30,125,1,,,,,,,,,,,,,,,,,,,,,
,,,,,,,,,,,,,,,,,,,,,,,,,,,,,,,,,,,,,,,,,,5f0c675cbe0f365cc5424893,6036d892ee2cade6d4ddf4b9,2021-02-24_22h52.37.493,Colour_Similarity_Experiment,2020.2.10,Win32,60,6036d0d9a84aa1626184a6ef,17.42450512,16.62377022,16.58108483,16.67173875,16.58264618,16.61481,,,,,,,,,,,,,,,,,,,,PF,weak,3,,,,,,,,2,1.475675,,,,,,,,,,,,,,,,,,,,,,,,,,,,6,weak,-70,-44,1,0,0,response5disk,9,194,9,-2,1,0,0,rectangle,9,-2,1,0,0,6,2,0,0.001175,9,-2,1,0,0,0,31,31,45,1,,,,,,,,,,,,,,,,,,,,,
,,,,,,,,,,,,,,,,,,,,,,,,,,,,,,,,,,,,,,,,,,5f0c675cbe0f365cc5424893,6036d892ee2cade6d4ddf4b9,2021-02-24_22h52.37.493,Colour_Similarity_Experiment,2020.2.10,Win32,60,6036d0d9a84aa1626184a6ef,17.42450512,16.62377022,16.58108483,16.67173875,16.58264618,16.61481,,,,,,,,,,,,,,,,,,,,PF,weak,3,,,,,,,,1,1.242855,,,,,,,,,,,,,,,,,,,,,,,,,,,,5,weak,-84,34,1,0,0,response7disk,7,195,3,3,1,0,0,rectangle,3,3,1,0,0,6,1,0,0.001155,3,3,1,0,0,0,32,32,146,1,,,,,,,,,,,,,,,,,,,,,
,,,,,,,,,,,,,,,,,,,,,,,,,,,,,,,,,,,,,,,,,,5f0c675cbe0f365cc5424893,6036d892ee2cade6d4ddf4b9,2021-02-24_22h52.37.493,Colour_Similarity_Experiment,2020.2.10,Win32,60,6036d0d9a84aa1626184a6ef,17.42450512,16.62377022,16.58108483,16.67173875,16.58264618,16.61481,,,,,,,,,,,,,,,,,,,,PF,strong,3,,,,,,,,4,1.856985,,,,,,,,,,,,,,,,,,,,,,,,,,,,2,strong,42,-73,1,0,0,response3disk,5,196,9,-2,1,0,0,rectangle,9,-2,1,0,0,6,4,0,0.00114,9,-2,1,0,0,0,33,33,80,1,,,,,,,,,,,,,,,,,,,,,
