key_resp.keys,key_resp.rt,key_resp_16.keys,key_resp_16.rt,key_resp_2.keys,key_resp_2.rt,X Scale,ratio_pxpermm,screen_size_x,screen_size_y,testsize,key_resp_3.keys,key_resp_4.keys,key_resp_4.rt,line_size,key_resp_5.keys,key_resp_5.rt,key_resp_6.keys,key_resp_6.rt,key_resp_8.keys,key_resp_8.rt,key_resp_7.keys,key_resp_7.rt,key_resp_12.keys,key_resp_12.rt,key_resp_11.keys,key_resp_11.rt,key_resp_18.keys,key_resp_18.rt,key_resp_21.keys,key_resp_21.rt,key_resp_13.keys,key_resp_13.rt,key_resp_19.keys,key_resp_19.rt,ballposx,viewer_distance,trials.thisRepN,trials.thisTrialN,trials.thisN,trials.thisIndex,trials.ran,participant,session,date,expName,psychopyVersion,OS,frameRate,study_id,realFrameRate1,realFrameRate2,realFrameRate3,realFrameRate4,realFrameRate5,realFrameRate,viewerdistancecm,DVA_to_distance,radius_F,radius_P,r_F,R_P,key_resp_20.keys,key_resp_20.rt,key_resp_14.keys,key_resp_14.rt,key_resp_15.keys,key_resp_15.rt,key_resp_17.keys,key_resp_17.rt,key_resp_9.keys,key_resp_9.rt,key_resp_10.keys,key_resp_10.rt,Colour_1,Ecc,maskCon,mask_frames,mouse_5.x,mouse_5.y,mouse_5.leftButton,mouse_5.midButton,mouse_5.rightButton,mouse_5.clicked_name,Colour_2,similarity,response_time,mouse_10.x,mouse_10.y,mouse_10.leftButton,mouse_10.midButton,mouse_10.rightButton,mouse_10.clicked_name,mouse_7.x,mouse_7.y,mouse_7.leftButton,mouse_7.midButton,mouse_7.rightButton,mouse_7.clicked_name,catchprac,catchnumberprac,mouse_6.x,mouse_6.y,mouse_6.leftButton,mouse_6.midButton,mouse_6.rightButton,mouse_6.clicked_name,duringprac.thisRepN,duringprac.thisTrialN,duringprac.thisN,duringprac.thisIndex,duringprac.ran,key_resp_22.keys,key_resp_22.rt,Colour1,maskCon1,mouse.x,mouse.y,mouse.leftButton,mouse.midButton,mouse.rightButton,mouse.clicked_name,Colour2,trialnumber,mouse_2.x,mouse_2.y,mouse_2.leftButton,mouse_2.midButton,mouse_2.rightButton,mouse_2.clicked_name,mouse_3.x,mouse_3.y,mouse_3.leftButton,mouse_3.midButton,mouse_3.rightButton,catchresponse,catchnumber,Catch,response_time_catch,mouse_11.x,mouse_11.y,mouse_11.leftButton,mouse_11.midButton,mouse_11.rightButton,trials_2.thisRepN,trials_2.thisTrialN,trials_2.thisN,trials_2.thisIndex,trials_2.ran,mouse_3.clicked_name,mouse_11.clicked_name,trials_3.thisRepN,trials_3.thisTrialN,trials_3.thisN,trials_3.thisIndex,trials_3.ran,answer1,rt1,answer2,rt2,answer3,rt3,answer4,rt4,answer5,rt5,answer6,rt6,answer7,rt7
space,2.15466,space,18.840275,space,4.52937,44.8,4.48,342.8571429,192.8571429,1536,,space,12.567095,89.6,space,11.047565,space,3.9406,space,0.921415,space,2.281645,space,6.999045,space,5.151875,space,20.33909,space,7.48156,space,25.689455,return,9.531295,-746.496,1265.299531,0,0,0,0,1,5f271938dab22f02cdc90584,6036d85d669cbf9881d0fc13,2021-02-24_23h52.05.023,Colour_Similarity_Experiment,2020.2.10,Win32,60,6036d0d9a84aa1626184a6ef,17.21273663,16.67281553,16.70776081,16.68194444,16.66396815,16.68162224,,,,,,,,,,,,,,,,,,,,,,,,,,,,,,,,,,,,,,,,,,,,,,,,,,,,,,,,,,,,,,,,,,,,,,,,,,,,,,,,,,,,,,,,,,,,,,,,,,,,,,,,,,,,,,,,,,
,,,,,,,,,,,,,,,,,,,,,,,,,,,,,,,,,return,4.36196,-29.952,599.0893379,1,0,1,0,1,5f271938dab22f02cdc90584,6036d85d669cbf9881d0fc13,2021-02-24_23h52.05.023,Colour_Similarity_Experiment,2020.2.10,Win32,60,6036d0d9a84aa1626184a6ef,17.21273663,16.67281553,16.70776081,16.68194444,16.66396815,16.68162224,,,,,,,,,,,,,,,,,,,,,,,,,,,,,,,,,,,,,,,,,,,,,,,,,,,,,,,,,,,,,,,,,,,,,,,,,,,,,,,,,,,,,,,,,,,,,,,,,,,,,,,,,,,,,,,,,,
,,,,,,,,,,,,,,,,,,,,,,,,,,,,,,,,,return,3.89668,34.56,539.1089989,2,0,2,0,1,5f271938dab22f02cdc90584,6036d85d669cbf9881d0fc13,2021-02-24_23h52.05.023,Colour_Similarity_Experiment,2020.2.10,Win32,60,6036d0d9a84aa1626184a6ef,17.21273663,16.67281553,16.70776081,16.68194444,16.66396815,16.68162224,,,,,,,,,,,,,,,,,,,,,,,,,,,,,,,,,,,,,,,,,,,,,,,,,,,,,,,,,,,,,,,,,,,,,,,,,,,,,,,,,,,,,,,,,,,,,,,,,,,,,,,,,,,,,,,,,,
,,,,,,,,,,,,,,,,,,,,,,,,,,,,,,,,,return,3.81862,46.08,528.3982241,3,0,3,0,1,5f271938dab22f02cdc90584,6036d85d669cbf9881d0fc13,2021-02-24_23h52.05.023,Colour_Similarity_Experiment,2020.2.10,Win32,60,6036d0d9a84aa1626184a6ef,17.21273663,16.67281553,16.70776081,16.68194444,16.66396815,16.68162224,,,,,,,,,,,,,,,,,,,,,,,,,,,,,,,,,,,,,,,,,,,,,,,,,,,,,,,,,,,,,,,,,,,,,,,,,,,,,,,,,,,,,,,,,,,,,,,,,,,,,,,,,,,,,,,,,,
,,,,,,,,,,,,,,,,,,,,,,,,,,,,,,,,,return,3.852295,41.472,532.682534,4,0,4,0,1,5f271938dab22f02cdc90584,6036d85d669cbf9881d0fc13,2021-02-24_23h52.05.023,Colour_Similarity_Experiment,2020.2.10,Win32,60,6036d0d9a84aa1626184a6ef,17.21273663,16.67281553,16.70776081,16.68194444,16.66396815,16.68162224,,,,,,,,,,,,,,,,,,,,,,,,,,,,,,,,,,,,,,,,,,,,,,,,,,,,,,,,,,,,,,,,,,,,,,,,,,,,,,,,,,,,,,,,,,,,,,,,,,,,,,,,,,,,,,,,,,
,,,,,,,,,,,,,,,,,,,,,,,,,,,,,,,,,,,,,,,,,,5f271938dab22f02cdc90584,6036d85d669cbf9881d0fc13,2021-02-24_23h52.05.023,Colour_Similarity_Experiment,2020.2.10,Win32,60,6036d0d9a84aa1626184a6ef,17.21273663,16.67281553,16.70776081,16.68194444,16.66396815,16.68162224,53,9.251181103,62.16793701,414.4529134,41.44529134,186.503811,space,5.44316,space,9.94342,space,7.56799,space,8.52943,space,1.083195,space,4.4013,7,PF,strong,3,-51.99998933,121.5999954,1,0,0,response7disk_5,1,0,9.662765,17.60006053,-2.400006473,1,0,0,rectangle_8,38.40001202,-74.40000755,1,0,0,response3disk_7,4,4,11.20001161,0.799993575,1,0,0,rectangle_4,0,0,0,3,1,,,,,,,,,,,,,,,,,,,,,,,,,,,,,,,,,,,,,,,,,,,,,,,,,,,,,,,,,,
,,,,,,,,,,,,,,,,,,,,,,,,,,,,,,,,,,,,,,,,,,5f271938dab22f02cdc90584,6036d85d669cbf9881d0fc13,2021-02-24_23h52.05.023,Colour_Similarity_Experiment,2020.2.10,Win32,60,6036d0d9a84aa1626184a6ef,17.21273663,16.67281553,16.70776081,16.68194444,16.66396815,16.68162224,,,,,,,,,,,,,,,,,,,5,PF,weak,3,77.6000126,-51.2000072,1,0,0,response3disk_5,9,5,4.14939,-1.59998858,-9.60000658,1,0,0,rectangle_8,-1.59998858,-9.60000658,1,0,0,,,4,-1.59998858,-9.60000658,1,0,0,,0,1,1,1,1,,,,,,,,,,,,,,,,,,,,,,,,,,,,,,,,,,,,,,,,,,,,,,,,,,,,,,,,,,
,,,,,,,,,,,,,,,,,,,,,,,,,,,,,,,,,,,,,,,,,,5f271938dab22f02cdc90584,6036d85d669cbf9881d0fc13,2021-02-24_23h52.05.023,Colour_Similarity_Experiment,2020.2.10,Win32,60,6036d0d9a84aa1626184a6ef,17.21273663,16.67281553,16.70776081,16.68194444,16.66396815,16.68162224,,,,,,,,,,,,,,,,,,,2,PF,weak,3,66.40001243,120.7999954,1,0,0,response1disk_5,8,7,4.250705,21.60006059,6.399993658,1,0,0,rectangle_8,42.40001208,-72.80000752,1,0,0,response3disk_7,4,4,1.600060296,-4.000006497,1,0,0,rectangle_4,0,2,2,5,1,,,,,,,,,,,,,,,,,,,,,,,,,,,,,,,,,,,,,,,,,,,,,,,,,,,,,,,,,,
,,,,,,,,,,,,,,,,,,,,,,,,,,,,,,,,,,,,,,,,,,5f271938dab22f02cdc90584,6036d85d669cbf9881d0fc13,2021-02-24_23h52.05.023,Colour_Similarity_Experiment,2020.2.10,Win32,60,6036d0d9a84aa1626184a6ef,17.21273663,16.67281553,16.70776081,16.68194444,16.66396815,16.68162224,,,,,,,,,,,,,,,,,,,3,PF,strong,3,-36.7999891,-86.40000772,1,0,0,response5disk_5,7,3,4.60141,4.800011516,8.799993694,1,0,0,rectangle_8,4.800011516,8.799993694,1,0,0,,,4,4.800011516,8.799993694,1,0,0,,0,3,3,0,1,,,,,,,,,,,,,,,,,,,,,,,,,,,,,,,,,,,,,,,,,,,,,,,,,,,,,,,,,,
,,,,,,,,,,,,,,,,,,,,,,,,,,,,,,,,,,,,,,,,,,5f271938dab22f02cdc90584,6036d85d669cbf9881d0fc13,2021-02-24_23h52.05.023,Colour_Similarity_Experiment,2020.2.10,Win32,60,6036d0d9a84aa1626184a6ef,17.21273663,16.67281553,16.70776081,16.68194444,16.66396815,16.68162224,,,,,,,,,,,,,,,,,,,5,PF,weak,3,-113.5999902,-30.40000689,1,0,0,response5disk_5,7,2,3.349995,-14.39993994,-2.400006473,1,0,0,rectangle_8,-14.39993994,-2.400006473,1,0,0,,,4,-14.39993994,-2.400006473,1,0,0,,0,4,4,4,1,,,,,,,,,,,,,,,,,,,,,,,,,,,,,,,,,,,,,,,,,,,,,,,,,,,,,,,,,,
,,,,,,,,,,,,,,,,,,,,,,,,,,,,,,,,,,,,,,,,,,5f271938dab22f02cdc90584,6036d85d669cbf9881d0fc13,2021-02-24_23h52.05.023,Colour_Similarity_Experiment,2020.2.10,Win32,60,6036d0d9a84aa1626184a6ef,17.21273663,16.67281553,16.70776081,16.68194444,16.66396815,16.68162224,,,,,,,,,,,,,,,,,,,5,PF,weak,3,92.80001283,55.19996997,1,0,0,response1disk_5,1,6,2.964505,4.000011504,-0.800006449,1,0,0,rectangle_8,4.000011504,-0.800006449,1,0,0,,,4,4.000011504,-0.800006449,1,0,0,,0,5,5,6,1,,,,,,,,,,,,,,,,,,,,,,,,,,,,,,,,,,,,,,,,,,,,,,,,,,,,,,,,,,
,,,,,,,,,,,,,,,,,,,,,,,,,,,,,,,,,,,,,,,,,,5f271938dab22f02cdc90584,6036d85d669cbf9881d0fc13,2021-02-24_23h52.05.023,Colour_Similarity_Experiment,2020.2.10,Win32,60,6036d0d9a84aa1626184a6ef,17.21273663,16.67281553,16.70776081,16.68194444,16.66396815,16.68162224,,,,,,,,,,,,,,,,,,,7,PF,strong,3,83.20001268,-54.40000725,1,0,0,response3disk_5,9,5,5.08292,-3.199988604,-10.40000659,1,0,0,rectangle_8,-3.199988604,-10.40000659,1,0,0,,,4,-3.199988604,-10.40000659,1,0,0,,0,6,6,2,1,,,,,,,,,,,,,,,,,,,,,,,,,,,,,,,,,,,,,,,,,,,,,,,,,,,,,,,,,,
,,,,,,,,,,,,,,,,,,,,,,,,,,,,,,,,,,,,,,,,,,5f271938dab22f02cdc90584,6036d85d669cbf9881d0fc13,2021-02-24_23h52.05.023,Colour_Similarity_Experiment,2020.2.10,Win32,60,6036d0d9a84aa1626184a6ef,17.21273663,16.67281553,16.70776081,16.68194444,16.66396815,16.68162224,,,,,,,,,,,,,,,,,,,,PF,strong,3,,,,,,,,5,4.11123,,,,,,,,,,,,,,,,,,,,,,,,,,space,6.17727,2,strong,85.60001272,-31.2000069,1,0,0,response3disk,5,1,5.600060356,-1.600006461,1,0,0,rectangle,5.600060356,-1.600006461,1,0,0,,1,0,0.00248,5.600060356,-1.600006461,1,0,0,0,0,0,80,1,,,,,,,,,,,,,,,,,,,,,
,,,,,,,,,,,,,,,,,,,,,,,,,,,,,,,,,,,,,,,,,,5f271938dab22f02cdc90584,6036d85d669cbf9881d0fc13,2021-02-24_23h52.05.023,Colour_Similarity_Experiment,2020.2.10,Win32,60,6036d0d9a84aa1626184a6ef,17.21273663,16.67281553,16.70776081,16.68194444,16.66396815,16.68162224,,,,,,,,,,,,,,,,,,,,PF,weak,3,,,,,,,,7,2.679865,,,,,,,,,,,,,,,,,,,,,,,,,,,,3,weak,53.60001224,88.79999489,1,0,0,response1disk,3,2,8.800011575,-9.60000658,1,0,0,rectangle,8.800011575,-9.60000658,1,0,0,,7,0,0.00104,8.800011575,-9.60000658,1,0,0,0,1,1,4,1,,,,,,,,,,,,,,,,,,,,,
,,,,,,,,,,,,,,,,,,,,,,,,,,,,,,,,,,,,,,,,,,5f271938dab22f02cdc90584,6036d85d669cbf9881d0fc13,2021-02-24_23h52.05.023,Colour_Similarity_Experiment,2020.2.10,Win32,60,6036d0d9a84aa1626184a6ef,17.21273663,16.67281553,16.70776081,16.68194444,16.66396815,16.68162224,,,,,,,,,,,,,,,,,,,,PF,weak,3,,,,,,,,4,2.333115,,,,,,,,,,,,,,,,,,,,,,,,,,,,6,weak,45.60006095,-75.20000756,1,0,0,response3disk,2,3,6.400011539,-15.20000666,1,0,0,rectangle,6.400011539,-15.20000666,1,0,0,,0,0,0.0031,6.400011539,-15.20000666,1,0,0,0,2,2,130,1,,,,,,,,,,,,,,,,,,,,,
,,,,,,,,,,,,,,,,,,,,,,,,,,,,,,,,,,,,,,,,,,5f271938dab22f02cdc90584,6036d85d669cbf9881d0fc13,2021-02-24_23h52.05.023,Colour_Similarity_Experiment,2020.2.10,Win32,60,6036d0d9a84aa1626184a6ef,17.21273663,16.67281553,16.70776081,16.68194444,16.66396815,16.68162224,,,,,,,,,,,,,,,,,,,,PF,strong,3,,,,,,,,5,4.26357,,,,,,,,,,,,,,,,,,,,,,,,,,,,5,strong,60.00001234,-38.40000701,1,0,0,response3disk,9,4,5.600060356,-4.800006509,1,0,0,rectangle,5.600060356,-4.800006509,1,0,0,,0,0,0.00024,5.600060356,-4.800006509,1,0,0,0,3,3,61,1,,,,,,,,,,,,,,,,,,,,,
,,,,,,,,,,,,,,,,,,,,,,,,,,,,,,,,,,,,,,,,,,5f271938dab22f02cdc90584,6036d85d669cbf9881d0fc13,2021-02-24_23h52.05.023,Colour_Similarity_Experiment,2020.2.10,Win32,60,6036d0d9a84aa1626184a6ef,17.21273663,16.67281553,16.70776081,16.68194444,16.66396815,16.68162224,,,,,,,,,,,,,,,,,,,,PF,weak,3,,,,,,,,7,1.763685,,,,,,,,,,,,,,,,,,,,,,,,,,,,7,weak,38.40001202,70.39999461,1,0,0,response1disk,1,5,12.80001163,-4.000006497,1,0,0,rectangle,12.80001163,-4.000006497,1,0,0,,0,0,0.000295,12.80001163,-4.000006497,1,0,0,0,4,4,53,1,,,,,,,,,,,,,,,,,,,,,
,,,,,,,,,,,,,,,,,,,,,,,,,,,,,,,,,,,,,,,,,,5f271938dab22f02cdc90584,6036d85d669cbf9881d0fc13,2021-02-24_23h52.05.023,Colour_Similarity_Experiment,2020.2.10,Win32,60,6036d0d9a84aa1626184a6ef,17.21273663,16.67281553,16.70776081,16.68194444,16.66396815,16.68162224,,,,,,,,,,,,,,,,,,,,PF,strong,3,,,,,,,,2,2.83049,,,,,,,,,,,,,,,,,,,,,,,,,,,,3,strong,-83.1999898,-32.00000691,1,0,0,response5disk,5,6,-6.399939823,3.999993622,1,0,0,rectangle,-6.399939823,3.999993622,1,0,0,,5,0,0.001265,-6.399939823,3.999993622,1,0,0,0,5,5,101,1,,,,,,,,,,,,,,,,,,,,,
,,,,,,,,,,,,,,,,,,,,,,,,,,,,,,,,,,,,,,,,,,5f271938dab22f02cdc90584,6036d85d669cbf9881d0fc13,2021-02-24_23h52.05.023,Colour_Similarity_Experiment,2020.2.10,Win32,60,6036d0d9a84aa1626184a6ef,17.21273663,16.67281553,16.70776081,16.68194444,16.66396815,16.68162224,,,,,,,,,,,,,,,,,,,,PF,weak,3,,,,,,,,5,1.88089,,,,,,,,,,,,,,,,,,,,,,,,,,,,3,weak,80.00001264,-40.00000703,1,0,0,response3disk,1,7,20.80001175,-4.800006509,1,0,0,rectangle,20.80001175,-4.800006509,1,0,0,,1,0,0.0011,20.80001175,-4.800006509,1,0,0,0,6,6,96,1,,,,,,,,,,,,,,,,,,,,,
,,,,,,,,,,,,,,,,,,,,,,,,,,,,,,,,,,,,,,,,,,5f271938dab22f02cdc90584,6036d85d669cbf9881d0fc13,2021-02-24_23h52.05.023,Colour_Similarity_Experiment,2020.2.10,Win32,60,6036d0d9a84aa1626184a6ef,17.21273663,16.67281553,16.70776081,16.68194444,16.66396815,16.68162224,,,,,,,,,,,,,,,,,,,,PF,weak,3,,,,,,,,5,2.584265,,,,,,,,,,,,,,,,,,,,,,,,,,,,8,weak,92.80001283,-30.40000689,1,0,0,response3disk,9,8,19.20001173,3.19999361,1,0,0,rectangle,19.20001173,3.19999361,1,0,0,,5,0,0.00072,19.20001173,3.19999361,1,0,0,0,7,7,42,1,,,,,,,,,,,,,,,,,,,,,
,,,,,,,,,,,,,,,,,,,,,,,,,,,,,,,,,,,,,,,,,,5f271938dab22f02cdc90584,6036d85d669cbf9881d0fc13,2021-02-24_23h52.05.023,Colour_Similarity_Experiment,2020.2.10,Win32,60,6036d0d9a84aa1626184a6ef,17.21273663,16.67281553,16.70776081,16.68194444,16.66396815,16.68162224,,,,,,,,,,,,,,,,,,,,PF,strong,3,,,,,,,,6,2.448255,,,,,,,,,,,,,,,,,,,,,,,,,,,,5,strong,76.80001259,29.599994,1,0,0,response1disk,6,9,4.800011516,8.799993694,1,0,0,rectangle,4.800011516,8.799993694,1,0,0,,1,0,0.00086,4.800011516,8.799993694,1,0,0,0,8,8,12,1,,,,,,,,,,,,,,,,,,,,,
,,,,,,,,,,,,,,,,,,,,,,,,,,,,,,,,,,,,,,,,,,5f271938dab22f02cdc90584,6036d85d669cbf9881d0fc13,2021-02-24_23h52.05.023,Colour_Similarity_Experiment,2020.2.10,Win32,60,6036d0d9a84aa1626184a6ef,17.21273663,16.67281553,16.70776081,16.68194444,16.66396815,16.68162224,,,,,,,,,,,,,,,,,,,,PF,weak,3,,,,,,,,7,1.617005,,,,,,,,,,,,,,,,,,,,,,,,,,,,5,weak,40.80001205,74.39999467,1,0,0,response1disk,5,10,5.600060356,6.399993658,1,0,0,rectangle,5.600060356,6.399993658,1,0,0,,7,0,0.0011,5.600060356,6.399993658,1,0,0,0,9,9,94,1,,,,,,,,,,,,,,,,,,,,,
,,,,,,,,,,,,,,,,,,,,,,,,,,,,,,,,,,,,,,,,,,5f271938dab22f02cdc90584,6036d85d669cbf9881d0fc13,2021-02-24_23h52.05.023,Colour_Similarity_Experiment,2020.2.10,Win32,60,6036d0d9a84aa1626184a6ef,17.21273663,16.67281553,16.70776081,16.68194444,16.66396815,16.68162224,,,,,,,,,,,,,,,,,,,,PF,weak,3,,,,,,,,4,1.663555,,,,,,,,,,,,,,,,,,,,,,,,,,,,4,weak,40.80001205,-68.80000746,1,0,0,response3disk,6,11,-10.39993988,7.999993682,1,0,0,rectangle,-10.39993988,7.999993682,1,0,0,,1,0,0.001005,-10.39993988,7.999993682,1,0,0,0,10,10,120,1,,,,,,,,,,,,,,,,,,,,,
,,,,,,,,,,,,,,,,,,,,,,,,,,,,,,,,,,,,,,,,,,5f271938dab22f02cdc90584,6036d85d669cbf9881d0fc13,2021-02-24_23h52.05.023,Colour_Similarity_Experiment,2020.2.10,Win32,60,6036d0d9a84aa1626184a6ef,17.21273663,16.67281553,16.70776081,16.68194444,16.66396815,16.68162224,,,,,,,,,,,,,,,,,,,,PF,strong,3,,,,,,,,4,2.317055,,,,,,,,,,,,,,,,,,,,,,,,,,,,6,strong,27.20001185,-72.00000751,1,0,0,response3disk,5,12,1.14441E-05,2.399993598,1,0,0,rectangle,1.14441E-05,2.399993598,1,0,0,,7,0,0.000985,1.14441E-05,2.399993598,1,0,0,0,11,11,126,1,,,,,,,,,,,,,,,,,,,,,
,,,,,,,,,,,,,,,,,,,,,,,,,,,,,,,,,,,,,,,,,,5f271938dab22f02cdc90584,6036d85d669cbf9881d0fc13,2021-02-24_23h52.05.023,Colour_Similarity_Experiment,2020.2.10,Win32,60,6036d0d9a84aa1626184a6ef,17.21273663,16.67281553,16.70776081,16.68194444,16.66396815,16.68162224,,,,,,,,,,,,,,,,,,,,PF,weak,3,,,,,,,,7,1.09993,,,,,,,,,,,,,,,,,,,,,,,,,,,,4,weak,45.60006095,81.59999478,1,0,0,response1disk,5,13,-3.199988604,-2.400006473,1,0,0,rectangle,-3.199988604,-2.400006473,1,0,0,,2,0,0.00325,-3.199988604,-2.400006473,1,0,0,0,12,12,49,1,,,,,,,,,,,,,,,,,,,,,
,,,,,,,,,,,,,,,,,,,,,,,,,,,,,,,,,,,,,,,,,,5f271938dab22f02cdc90584,6036d85d669cbf9881d0fc13,2021-02-24_23h52.05.023,Colour_Similarity_Experiment,2020.2.10,Win32,60,6036d0d9a84aa1626184a6ef,17.21273663,16.67281553,16.70776081,16.68194444,16.66396815,16.68162224,,,,,,,,,,,,,,,,,,,,PF,weak,3,,,,,,,,0,2.31647,,,,,,,,,,,,,,,,,,,,,,,,,,,,7,weak,-51.99998933,79.99999475,1,0,0,response7disk,2,14,-23.1999889,13.59999377,1,0,0,rectangle,-23.1999889,13.59999377,1,0,0,,5,0,0.00344,-23.1999889,13.59999377,1,0,0,0,13,13,32,1,,,,,,,,,,,,,,,,,,,,,
,,,,,,,,,,,,,,,,,,,,,,,,,,,,,,,,,,,,,,,,,,5f271938dab22f02cdc90584,6036d85d669cbf9881d0fc13,2021-02-24_23h52.05.023,Colour_Similarity_Experiment,2020.2.10,Win32,60,6036d0d9a84aa1626184a6ef,17.21273663,16.67281553,16.70776081,16.68194444,16.66396815,16.68162224,,,,,,,,,,,,,,,,,,,,PF,strong,3,,,,,,,,4,12.817105,,,,,,,,,,,,,,,,,,,,,,,,,,,,7,strong,17.60006053,-96.00000787,1,0,0,response3disk,9,15,-18.39994,4.799993634,1,0,0,rectangle,-18.39994,4.799993634,1,0,0,,7,0,0.00314,-18.39994,4.799993634,1,0,0,0,14,14,155,1,,,,,,,,,,,,,,,,,,,,,
,,,,,,,,,,,,,,,,,,,,,,,,,,,,,,,,,,,,,,,,,,5f271938dab22f02cdc90584,6036d85d669cbf9881d0fc13,2021-02-24_23h52.05.023,Colour_Similarity_Experiment,2020.2.10,Win32,60,6036d0d9a84aa1626184a6ef,17.21273663,16.67281553,16.70776081,16.68194444,16.66396815,16.68162224,,,,,,,,,,,,,,,,,,,,PF,weak,3,,,,,,,,7,3.94741,,,,,,,,,,,,,,,,,,,,,,,,,,,,5,weak,35.20001197,78.39999473,1,0,0,response1disk,2,16,14.40001166,-6.400006533,1,0,0,rectangle,14.40001166,-6.400006533,1,0,0,,1,0,0.000995,14.40001166,-6.400006533,1,0,0,0,15,15,129,1,,,,,,,,,,,,,,,,,,,,,
,,,,,,,,,,,,,,,,,,,,,,,,,,,,,,,,,,,,,,,,,,5f271938dab22f02cdc90584,6036d85d669cbf9881d0fc13,2021-02-24_23h52.05.023,Colour_Similarity_Experiment,2020.2.10,Win32,60,6036d0d9a84aa1626184a6ef,17.21273663,16.67281553,16.70776081,16.68194444,16.66396815,16.68162224,,,,,,,,,,,,,,,,,,,,PF,weak,3,,,,,,,,0,1.117565,,,,,,,,,,,,,,,,,,,,,,,,,,,,7,weak,-41.59998918,86.39999485,1,0,0,response7disk,6,17,-21.59998888,4.799993634,1,0,0,rectangle,-21.59998888,4.799993634,1,0,0,,3,0,0.001095,-21.59998888,4.799993634,1,0,0,0,16,16,29,1,,,,,,,,,,,,,,,,,,,,,
,,,,,,,,,,,,,,,,,,,,,,,,,,,,,,,,,,,,,,,,,,5f271938dab22f02cdc90584,6036d85d669cbf9881d0fc13,2021-02-24_23h52.05.023,Colour_Similarity_Experiment,2020.2.10,Win32,60,6036d0d9a84aa1626184a6ef,17.21273663,16.67281553,16.70776081,16.68194444,16.66396815,16.68162224,,,,,,,,,,,,,,,,,,,,PF,weak,3,,,,,,,,6,1.613685,,,,,,,,,,,,,,,,,,,,,,,,,,,,4,weak,79.20001262,42.39999419,1,0,0,response1disk,8,18,19.20001173,-0.800006449,1,0,0,rectangle,19.20001173,-0.800006449,1,0,0,,0,0,0.000865,19.20001173,-0.800006449,1,0,0,0,17,17,124,1,,,,,,,,,,,,,,,,,,,,,
,,,,,,,,,,,,,,,,,,,,,,,,,,,,,,,,,,,,,,,,,,5f271938dab22f02cdc90584,6036d85d669cbf9881d0fc13,2021-02-24_23h52.05.023,Colour_Similarity_Experiment,2020.2.10,Win32,60,6036d0d9a84aa1626184a6ef,17.21273663,16.67281553,16.70776081,16.68194444,16.66396815,16.68162224,,,,,,,,,,,,,,,,,,,,PF,weak,3,,,,,,,,6,3.04951,,,,,,,,,,,,,,,,,,,,,,,,,,,,8,weak,48.80001217,34.39999408,1,0,0,response1disk,5,19,7.200011551,3.19999361,1,0,0,rectangle,7.200011551,3.19999361,1,0,0,,7,0,0.00121,7.200011551,3.19999361,1,0,0,0,18,18,98,1,,,,,,,,,,,,,,,,,,,,,
,,,,,,,,,,,,,,,,,,,,,,,,,,,,,,,,,,,,,,,,,,5f271938dab22f02cdc90584,6036d85d669cbf9881d0fc13,2021-02-24_23h52.05.023,Colour_Similarity_Experiment,2020.2.10,Win32,60,6036d0d9a84aa1626184a6ef,17.21273663,16.67281553,16.70776081,16.68194444,16.66396815,16.68162224,,,,,,,,,,,,,,,,,,,,PF,strong,3,,,,,,,,3,2.48089,,,,,,,,,,,,,,,,,,,,,,,,,,,,7,strong,-51.99998933,-74.40000755,1,0,0,response5disk,3,20,7.200011551,5.599993646,1,0,0,rectangle,7.200011551,5.599993646,1,0,0,,4,0,0.000875,7.200011551,5.599993646,1,0,0,0,19,19,73,1,,,,,,,,,,,,,,,,,,,,,
,,,,,,,,,,,,,,,,,,,,,,,,,,,,,,,,,,,,,,,,,,5f271938dab22f02cdc90584,6036d85d669cbf9881d0fc13,2021-02-24_23h52.05.023,Colour_Similarity_Experiment,2020.2.10,Win32,60,6036d0d9a84aa1626184a6ef,17.21273663,16.67281553,16.70776081,16.68194444,16.66396815,16.68162224,,,,,,,,,,,,,,,,,,,,PF,strong,3,,,,,,,,4,1.6665,,,,,,,,,,,,,,,,,,,,,,,,,,,,7,strong,51.20001221,-80.80000764,1,0,0,response3disk,8,21,-6.399939823,1.599993587,1,0,0,rectangle,43.20001209,-77.60000759,1,0,0,4,4,1,1.566815,7.200011551,-6.400006533,1,0,0,0,20,20,97,1,response3disk_3,rectangle,,,,,,,,,,,,,,,,,,,
,,,,,,,,,,,,,,,,,,,,,,,,,,,,,,,,,,,,,,,,,,5f271938dab22f02cdc90584,6036d85d669cbf9881d0fc13,2021-02-24_23h52.05.023,Colour_Similarity_Experiment,2020.2.10,Win32,60,6036d0d9a84aa1626184a6ef,17.21273663,16.67281553,16.70776081,16.68194444,16.66396815,16.68162224,,,,,,,,,,,,,,,,,,,,PF,strong,3,,,,,,,,3,1.797115,,,,,,,,,,,,,,,,,,,,,,,,,,,,2,strong,-43.99998921,-88.00000775,1,0,0,response5disk,3,22,-13.59998876,-6.4373E-06,1,0,0,rectangle,24.0000118,-87.20000774,1,0,0,4,4,1,1.267575,-6.399939823,5.599993646,1,0,0,0,21,21,104,1,response3disk_3,rectangle,,,,,,,,,,,,,,,,,,,
,,,,,,,,,,,,,,,,,,,,,,,,,,,,,,,,,,,,,,,,,,5f271938dab22f02cdc90584,6036d85d669cbf9881d0fc13,2021-02-24_23h52.05.023,Colour_Similarity_Experiment,2020.2.10,Win32,60,6036d0d9a84aa1626184a6ef,17.21273663,16.67281553,16.70776081,16.68194444,16.66396815,16.68162224,,,,,,,,,,,,,,,,,,,,PF,weak,3,,,,,,,,6,2.05004,,,,,,,,,,,,,,,,,,,,,,,,,,,,3,weak,89.60001278,43.19996979,1,0,0,response1disk,8,23,7.200011551,4.799993634,1,0,0,rectangle,7.200011551,4.799993634,1,0,0,4,7,0,0.001115,7.200011551,4.799993634,1,0,0,0,22,22,3,1,,,,,,,,,,,,,,,,,,,,,
,,,,,,,,,,,,,,,,,,,,,,,,,,,,,,,,,,,,,,,,,,5f271938dab22f02cdc90584,6036d85d669cbf9881d0fc13,2021-02-24_23h52.05.023,Colour_Similarity_Experiment,2020.2.10,Win32,60,6036d0d9a84aa1626184a6ef,17.21273663,16.67281553,16.70776081,16.68194444,16.66396815,16.68162224,,,,,,,,,,,,,,,,,,,,PF,strong,3,,,,,,,,5,2.715445,,,,,,,,,,,,,,,,,,,,,,,,,,,,9,strong,72.80001253,-52.80000722,1,0,0,response3disk,1,24,6.400011539,0.799993575,1,0,0,rectangle,6.400011539,0.799993575,1,0,0,4,4,0,0.00106,6.400011539,0.799993575,1,0,0,0,23,23,111,1,,,,,,,,,,,,,,,,,,,,,
,,,,,,,,,,,,,,,,,,,,,,,,,,,,,,,,,,,,,,,,,,5f271938dab22f02cdc90584,6036d85d669cbf9881d0fc13,2021-02-24_23h52.05.023,Colour_Similarity_Experiment,2020.2.10,Win32,60,6036d0d9a84aa1626184a6ef,17.21273663,16.67281553,16.70776081,16.68194444,16.66396815,16.68162224,,,,,,,,,,,,,,,,,,,,PF,strong,3,,,,,,,,7,1.664145,,,,,,,,,,,,,,,,,,,,,,,,,,,,1,strong,44.80001211,79.99999475,1,0,0,response1disk,7,25,-8.799988687,3.19999361,1,0,0,rectangle,-8.799988687,3.19999361,1,0,0,4,3,0,0.00111,-8.799988687,3.19999361,1,0,0,0,24,24,137,1,,,,,,,,,,,,,,,,,,,,,
,,,,,,,,,,,,,,,,,,,,,,,,,,,,,,,,,,,,,,,,,,5f271938dab22f02cdc90584,6036d85d669cbf9881d0fc13,2021-02-24_23h52.05.023,Colour_Similarity_Experiment,2020.2.10,Win32,60,6036d0d9a84aa1626184a6ef,17.21273663,16.67281553,16.70776081,16.68194444,16.66396815,16.68162224,,,,,,,,,,,,,,,,,,,,PF,weak,3,,,,,,,,4,2.930835,,,,,,,,,,,,,,,,,,,,,,,,,,,,9,weak,43.20001209,-76.00000757,1,0,0,response3disk,4,26,6.400011539,-8.000006557,1,0,0,rectangle,6.400011539,-8.000006557,1,0,0,4,5,0,0.00118,6.400011539,-8.000006557,1,0,0,0,25,25,114,1,,,,,,,,,,,,,,,,,,,,,
,,,,,,,,,,,,,,,,,,,,,,,,,,,,,,,,,,,,,,,,,,5f271938dab22f02cdc90584,6036d85d669cbf9881d0fc13,2021-02-24_23h52.05.023,Colour_Similarity_Experiment,2020.2.10,Win32,60,6036d0d9a84aa1626184a6ef,17.21273663,16.67281553,16.70776081,16.68194444,16.66396815,16.68162224,,,,,,,,,,,,,,,,,,,,PF,weak,3,,,,,,,,1,1.59698,,,,,,,,,,,,,,,,,,,,,,,,,,,,3,weak,-107.1999902,44.79999423,1,0,0,response7disk,4,27,-15.19998878,-11.2000066,1,0,0,rectangle,-15.19998878,-11.2000066,1,0,0,4,6,0,0.000875,-15.19998878,-11.2000066,1,0,0,0,26,26,30,1,,,,,,,,,,,,,,,,,,,,,
,,,,,,,,,,,,,,,,,,,,,,,,,,,,,,,,,,,,,,,,,,5f271938dab22f02cdc90584,6036d85d669cbf9881d0fc13,2021-02-24_23h52.05.023,Colour_Similarity_Experiment,2020.2.10,Win32,60,6036d0d9a84aa1626184a6ef,17.21273663,16.67281553,16.70776081,16.68194444,16.66396815,16.68162224,,,,,,,,,,,,,,,,,,,,PF,weak,3,,,,,,,,2,1.763845,,,,,,,,,,,,,,,,,,,,,,,,,,,,7,weak,-66.39994072,-59.20000732,1,0,0,response5disk,7,28,-15.19998878,-15.20000666,1,0,0,rectangle,-15.19998878,-15.20000666,1,0,0,4,5,0,0.000845,-15.19998878,-15.20000666,1,0,0,0,27,27,51,1,,,,,,,,,,,,,,,,,,,,,
,,,,,,,,,,,,,,,,,,,,,,,,,,,,,,,,,,,,,,,,,,5f271938dab22f02cdc90584,6036d85d669cbf9881d0fc13,2021-02-24_23h52.05.023,Colour_Similarity_Experiment,2020.2.10,Win32,60,6036d0d9a84aa1626184a6ef,17.21273663,16.67281553,16.70776081,16.68194444,16.66396815,16.68162224,,,,,,,,,,,,,,,,,,,,PF,weak,3,,,,,,,,7,1.317695,,,,,,,,,,,,,,,,,,,,,,,,,,,,5,weak,68.00001246,115.9999953,1,0,0,response1disk,1,29,-4.799988627,7.19999367,1,0,0,rectangle,-119.1999903,-36.80000699,1,0,0,4,2,1,3.167835,4.800011516,-1.600006461,1,0,0,0,28,28,159,1,response5disk_3,rectangle,,,,,,,,,,,,,,,,,,,
,,,,,,,,,,,,,,,,,,,,,,,,,,,,,,,,,,,,,,,,,,5f271938dab22f02cdc90584,6036d85d669cbf9881d0fc13,2021-02-24_23h52.05.023,Colour_Similarity_Experiment,2020.2.10,Win32,60,6036d0d9a84aa1626184a6ef,17.21273663,16.67281553,16.70776081,16.68194444,16.66396815,16.68162224,,,,,,,,,,,,,,,,,,,,PF,strong,3,,,,,,,,1,1.981165,,,,,,,,,,,,,,,,,,,,,,,,,,,,3,strong,-97.59999001,29.599994,1,0,0,response7disk,3,30,10.4000116,-8.000006557,1,0,0,rectangle,10.4000116,-8.000006557,1,0,0,4,2,0,0.000245,10.4000116,-8.000006557,1,0,0,0,29,29,68,1,,,,,,,,,,,,,,,,,,,,,
,,,,,,,,,,,,,,,,,,,,,,,,,,,,,,,,,,,,,,,,,,5f271938dab22f02cdc90584,6036d85d669cbf9881d0fc13,2021-02-24_23h52.05.023,Colour_Similarity_Experiment,2020.2.10,Win32,60,6036d0d9a84aa1626184a6ef,17.21273663,16.67281553,16.70776081,16.68194444,16.66396815,16.68162224,,,,,,,,,,,,,,,,,,,,PF,strong,3,,,,,,,,7,1.283235,,,,,,,,,,,,,,,,,,,,,,,,,,,,2,strong,64.0000124,74.39999467,1,0,0,response1disk,8,31,-3.199988604,-5.600006521,1,0,0,rectangle,-3.199988604,-5.600006521,1,0,0,4,1,0,0.004065,-3.199988604,-5.600006521,1,0,0,0,30,30,62,1,,,,,,,,,,,,,,,,,,,,,
,,,,,,,,,,,,,,,,,,,,,,,,,,,,,,,,,,,,,,,,,,5f271938dab22f02cdc90584,6036d85d669cbf9881d0fc13,2021-02-24_23h52.05.023,Colour_Similarity_Experiment,2020.2.10,Win32,60,6036d0d9a84aa1626184a6ef,17.21273663,16.67281553,16.70776081,16.68194444,16.66396815,16.68162224,,,,,,,,,,,,,,,,,,,,PF,strong,3,,,,,,,,3,3.76644,,,,,,,,,,,,,,,,,,,,,,,,,,,,6,strong,-27.19998896,-91.2000078,1,0,0,response5disk,8,32,-3.199988604,-0.800006449,1,0,0,rectangle,-3.199988604,-0.800006449,1,0,0,4,1,0,0.00027,-3.199988604,-0.800006449,1,0,0,0,31,31,133,1,,,,,,,,,,,,,,,,,,,,,
,,,,,,,,,,,,,,,,,,,,,,,,,,,,,,,,,,,,,,,,,,5f271938dab22f02cdc90584,6036d85d669cbf9881d0fc13,2021-02-24_23h52.05.023,Colour_Similarity_Experiment,2020.2.10,Win32,60,6036d0d9a84aa1626184a6ef,17.21273663,16.67281553,16.70776081,16.68194444,16.66396815,16.68162224,,,,,,,,,,,,,,,,,,,,PF,strong,3,,,,,,,,2,2.11666,,,,,,,,,,,,,,,,,,,,,,,,,,,,2,strong,-81.59998977,-47.20000714,1,0,0,response5disk,6,33,-0.799988568,-5.600006521,1,0,0,rectangle,-0.799988568,-5.600006521,1,0,0,4,1,0,0.000215,-0.799988568,-5.600006521,1,0,0,0,32,32,40,1,,,,,,,,,,,,,,,,,,,,,
,,,,,,,,,,,,,,,,,,,,,,,,,,,,,,,,,,,,,,,,,,5f271938dab22f02cdc90584,6036d85d669cbf9881d0fc13,2021-02-24_23h52.05.023,Colour_Similarity_Experiment,2020.2.10,Win32,60,6036d0d9a84aa1626184a6ef,17.21273663,16.67281553,16.70776081,16.68194444,16.66396815,16.68162224,,,,,,,,,,,,,,,,,,,,PF,strong,3,,,,,,,,6,1.51658,,,,,,,,,,,,,,,,,,,,,,,,,,,,9,strong,107.200013,31.19996961,1,0,0,response1disk,9,34,3.200011492,-2.400006473,1,0,0,rectangle,3.200011492,-2.400006473,1,0,0,4,3,0,0.00331,3.200011492,-2.400006473,1,0,0,0,33,33,17,1,,,,,,,,,,,,,,,,,,,,,
,,,,,,,,,,,,,,,,,,,,,,,,,,,,,,,,,,,,,,,,,,5f271938dab22f02cdc90584,6036d85d669cbf9881d0fc13,2021-02-24_23h52.05.023,Colour_Similarity_Experiment,2020.2.10,Win32,60,6036d0d9a84aa1626184a6ef,17.21273663,16.67281553,16.70776081,16.68194444,16.66396815,16.68162224,,,,,,,,,,,,,,,,,,,,PF,weak,3,,,,,,,,5,2.767175,,,,,,,,,,,,,,,,,,,,,,,,,,,,7,weak,63.20001239,-38.40000701,1,0,0,response3disk,8,35,1.14441E-05,-3.200006485,1,0,0,rectangle,1.14441E-05,-3.200006485,1,0,0,4,3,0,0.00088,1.14441E-05,-3.200006485,1,0,0,0,34,34,140,1,,,,,,,,,,,,,,,,,,,,,
,,,,,,,,,,,,,,,,,,,,,,,,,,,,,,,,,,,,,,,,,,5f271938dab22f02cdc90584,6036d85d669cbf9881d0fc13,2021-02-24_23h52.05.023,Colour_Similarity_Experiment,2020.2.10,Win32,60,6036d0d9a84aa1626184a6ef,17.21273663,16.67281553,16.70776081,16.68194444,16.66396815,16.68162224,,,,,,,,,,,,,,,,,,,,PF,weak,3,,,,,,,,4,2.58329,,,,,,,,,,,,,,,,,,,,,,,,,,,,4,weak,29.60006071,-91.2000078,1,0,0,response3disk,3,36,0.800011456,3.999993622,1,0,0,rectangle,0.800011456,3.999993622,1,0,0,4,7,0,0.001425,0.800011456,3.999993622,1,0,0,0,35,35,89,1,,,,,,,,,,,,,,,,,,,,,
,,,,,,,,,,,,,,,,,,,,,,,,,,,,,,,,,,,,,,,,,,5f271938dab22f02cdc90584,6036d85d669cbf9881d0fc13,2021-02-24_23h52.05.023,Colour_Similarity_Experiment,2020.2.10,Win32,60,6036d0d9a84aa1626184a6ef,17.21273663,16.67281553,16.70776081,16.68194444,16.66396815,16.68162224,,,,,,,,,,,,,,,,,,,,PF,strong,3,,,,,,,,7,1.851465,,,,,,,,,,,,,,,,,,,,,,,,,,,,3,strong,44.80001211,73.59999466,1,0,0,response1disk,8,37,7.200011551,7.19999367,1,0,0,rectangle,7.200011551,7.19999367,1,0,0,4,6,0,0.001555,7.200011551,7.19999367,1,0,0,0,36,36,44,1,,,,,,,,,,,,,,,,,,,,,
,,,,,,,,,,,,,,,,,,,,,,,,,,,,,,,,,,,,,,,,,,5f271938dab22f02cdc90584,6036d85d669cbf9881d0fc13,2021-02-24_23h52.05.023,Colour_Similarity_Experiment,2020.2.10,Win32,60,6036d0d9a84aa1626184a6ef,17.21273663,16.67281553,16.70776081,16.68194444,16.66396815,16.68162224,,,,,,,,,,,,,,,,,,,,PF,strong,3,,,,,,,,3,4.800495,,,,,,,,,,,,,,,,,,,,,,,,,,,,8,strong,-47.99998927,-71.2000075,1,0,0,response5disk,8,38,-29.599989,-13.60000664,1,0,0,rectangle,-29.599989,-13.60000664,1,0,0,4,5,0,0.00159,-29.599989,-13.60000664,1,0,0,0,37,37,48,1,,,,,,,,,,,,,,,,,,,,,
,,,,,,,,,,,,,,,,,,,,,,,,,,,,,,,,,,,,,,,,,,5f271938dab22f02cdc90584,6036d85d669cbf9881d0fc13,2021-02-24_23h52.05.023,Colour_Similarity_Experiment,2020.2.10,Win32,60,6036d0d9a84aa1626184a6ef,17.21273663,16.67281553,16.70776081,16.68194444,16.66396815,16.68162224,,,,,,,,,,,,,,,,,,,,PF,weak,3,,,,,,,,1,1.335345,,,,,,,,,,,,,,,,,,,,,,,,,,,,5,weak,-91.19998991,45.59999424,1,0,0,response7disk,3,39,-23.99998891,5.599993646,1,0,0,rectangle,-23.99998891,5.599993646,1,0,0,4,0,0,0.00124,-23.99998891,5.599993646,1,0,0,0,38,38,109,1,,,,,,,,,,,,,,,,,,,,,
,,,,,,,,,,,,,,,,,,,,,,,,,,,,,,,,,,,,,,,,,,5f271938dab22f02cdc90584,6036d85d669cbf9881d0fc13,2021-02-24_23h52.05.023,Colour_Similarity_Experiment,2020.2.10,Win32,60,6036d0d9a84aa1626184a6ef,17.21273663,16.67281553,16.70776081,16.68194444,16.66396815,16.68162224,,,,,,,,,,,,,,,,,,,,PF,strong,3,,,,,,,,2,1.43323,,,,,,,,,,,,,,,,,,,,,,,,,,,,9,strong,-59.99998945,-37.600007,1,0,0,response5disk,5,40,-27.19998896,-6.400006533,1,0,0,rectangle,-27.19998896,-6.400006533,1,0,0,4,6,0,0.00079,-27.19998896,-6.400006533,1,0,0,0,39,39,128,1,,,,,,,,,,,,,,,,,,,,,
,,,,,,,,,,,,,,,,,,,,,,,,,,,,,,,,,,,,,,,,,,5f271938dab22f02cdc90584,6036d85d669cbf9881d0fc13,2021-02-24_23h52.05.023,Colour_Similarity_Experiment,2020.2.10,Win32,60,6036d0d9a84aa1626184a6ef,17.21273663,16.67281553,16.70776081,16.68194444,16.66396815,16.68162224,,,,,,,,,,,,,,,,,,,,PF,strong,3,,,,,,,,7,1.166955,,,,,,,,,,,,,,,,,,,,,,,,,,,,2,strong,52.00001222,91.99999493,1,0,0,response1disk,7,41,6.400011539,0.799993575,1,0,0,rectangle,6.400011539,0.799993575,1,0,0,4,2,0,0.00176,6.400011539,0.799993575,1,0,0,0,40,40,63,1,,,,,,,,,,,,,,,,,,,,,
,,,,,,,,,,,,,,,,,,,,,,,,,,,,,,,,,,,,,,,,,,5f271938dab22f02cdc90584,6036d85d669cbf9881d0fc13,2021-02-24_23h52.05.023,Colour_Similarity_Experiment,2020.2.10,Win32,60,6036d0d9a84aa1626184a6ef,17.21273663,16.67281553,16.70776081,16.68194444,16.66396815,16.68162224,,,,,,,,,,,,,,,,,,,,PF,weak,3,,,,,,,,7,1.03295,,,,,,,,,,,,,,,,,,,,,,,,,,,,7,weak,45.60006095,85.59999484,1,0,0,response1disk,3,42,1.600060296,2.399993598,1,0,0,rectangle,1.600060296,2.399993598,1,0,0,4,7,0,0.001525,1.600060296,2.399993598,1,0,0,0,41,41,81,1,,,,,,,,,,,,,,,,,,,,,
,,,,,,,,,,,,,,,,,,,,,,,,,,,,,,,,,,,,,,,,,,5f271938dab22f02cdc90584,6036d85d669cbf9881d0fc13,2021-02-24_23h52.05.023,Colour_Similarity_Experiment,2020.2.10,Win32,60,6036d0d9a84aa1626184a6ef,17.21273663,16.67281553,16.70776081,16.68194444,16.66396815,16.68162224,,,,,,,,,,,,,,,,,,,,PF,strong,3,,,,,,,,3,1.449805,,,,,,,,,,,,,,,,,,,,,,,,,,,,1,strong,-32.79998904,-81.60005648,1,0,0,response5disk,3,43,-10.39993988,-3.200006485,1,0,0,rectangle,-10.39993988,-3.200006485,1,0,0,4,3,0,0.002295,-10.39993988,-3.200006485,1,0,0,0,42,42,99,1,,,,,,,,,,,,,,,,,,,,,
,,,,,,,,,,,,,,,,,,,,,,,,,,,,,,,,,,,,,,,,,,5f271938dab22f02cdc90584,6036d85d669cbf9881d0fc13,2021-02-24_23h52.05.023,Colour_Similarity_Experiment,2020.2.10,Win32,60,6036d0d9a84aa1626184a6ef,17.21273663,16.67281553,16.70776081,16.68194444,16.66396815,16.68162224,,,,,,,,,,,,,,,,,,,,PF,strong,3,,,,,,,,1,1.31671,,,,,,,,,,,,,,,,,,,,,,,,,,,,6,strong,-51.99998933,31.19996961,1,0,0,response7disk,7,44,2.40001148,-4.000006497,1,0,0,rectangle,2.40001148,-4.000006497,1,0,0,4,5,0,0.001175,2.40001148,-4.000006497,1,0,0,0,43,43,18,1,,,,,,,,,,,,,,,,,,,,,
,,,,,,,,,,,,,,,,,,,,,,,,,,,,,,,,,,,,,,,,,,5f271938dab22f02cdc90584,6036d85d669cbf9881d0fc13,2021-02-24_23h52.05.023,Colour_Similarity_Experiment,2020.2.10,Win32,60,6036d0d9a84aa1626184a6ef,17.21273663,16.67281553,16.70776081,16.68194444,16.66396815,16.68162224,,,,,,,,,,,,,,,,,,,,PF,strong,3,,,,,,,,5,6.61616,,,,,,,,,,,,,,,,,,,,,,,,,,,,5,strong,64.0000124,-38.40000701,1,0,0,response3disk,4,45,15.20001167,-3.200006485,1,0,0,rectangle,15.20001167,-3.200006485,1,0,0,4,3,0,0.00095,15.20001167,-3.200006485,1,0,0,0,44,44,8,1,,,,,,,,,,,,,,,,,,,,,
,,,,,,,,,,,,,,,,,,,,,,,,,,,,,,,,,,,,,,,,,,5f271938dab22f02cdc90584,6036d85d669cbf9881d0fc13,2021-02-24_23h52.05.023,Colour_Similarity_Experiment,2020.2.10,Win32,60,6036d0d9a84aa1626184a6ef,17.21273663,16.67281553,16.70776081,16.68194444,16.66396815,16.68162224,,,,,,,,,,,,,,,,,,,,PF,weak,3,,,,,,,,6,1.2506,,,,,,,,,,,,,,,,,,,,,,,,,,,,4,weak,110.4000131,24.79999393,1,0,0,response1disk,7,46,20.80001175,3.999993622,1,0,0,rectangle,20.80001175,3.999993622,1,0,0,4,4,0,0.003185,20.80001175,3.999993622,1,0,0,0,45,45,38,1,,,,,,,,,,,,,,,,,,,,,
,,,,,,,,,,,,,,,,,,,,,,,,,,,,,,,,,,,,,,,,,,5f271938dab22f02cdc90584,6036d85d669cbf9881d0fc13,2021-02-24_23h52.05.023,Colour_Similarity_Experiment,2020.2.10,Win32,60,6036d0d9a84aa1626184a6ef,17.21273663,16.67281553,16.70776081,16.68194444,16.66396815,16.68162224,,,,,,,,,,,,,,,,,,,,PF,strong,3,,,,,,,,6,1.7666,,,,,,,,,,,,,,,,,,,,,,,,,,,,6,strong,68.00001246,34.39999408,1,0,0,response1disk,9,47,9.600060415,-2.400006473,1,0,0,rectangle,-55.19998938,92.79999495,1,0,0,0,0,1,1.30229,-1.59998858,5.599993646,1,0,0,0,46,46,160,1,response7disk_3,rectangle,,,,,,,,,,,,,,,,,,,
,,,,,,,,,,,,,,,,,,,,,,,,,,,,,,,,,,,,,,,,,,5f271938dab22f02cdc90584,6036d85d669cbf9881d0fc13,2021-02-24_23h52.05.023,Colour_Similarity_Experiment,2020.2.10,Win32,60,6036d0d9a84aa1626184a6ef,17.21273663,16.67281553,16.70776081,16.68194444,16.66396815,16.68162224,,,,,,,,,,,,,,,,,,,,PF,strong,3,,,,,,,,4,2.06321,,,,,,,,,,,,,,,,,,,,,,,,,,,,9,strong,27.20001185,-100.8000079,1,0,0,response3disk,6,48,0.800011456,-3.200006485,1,0,0,rectangle,0.800011456,-3.200006485,1,0,0,0,6,0,0.003405,0.800011456,-3.200006485,1,0,0,0,47,47,117,1,,,,,,,,,,,,,,,,,,,,,
,,,,,,,,,,,,,,,,,,,,,,,,,,,,,,,,,,,,,,,,,,5f271938dab22f02cdc90584,6036d85d669cbf9881d0fc13,2021-02-24_23h52.05.023,Colour_Similarity_Experiment,2020.2.10,Win32,60,6036d0d9a84aa1626184a6ef,17.21273663,16.67281553,16.70776081,16.68194444,16.66396815,16.68162224,,,,,,,,,,,,,,,,,,,,PF,weak,3,,,,,,,,3,2.35034,,,,,,,,,,,,,,,,,,,,,,,,,,,,5,weak,-27.99998897,-82.40000767,1,0,0,response5disk,6,49,-9.599988699,-3.200006485,1,0,0,rectangle,-9.599988699,-3.200006485,1,0,0,0,2,0,0.000725,-9.599988699,-3.200006485,1,0,0,0,48,48,103,1,,,,,,,,,,,,,,,,,,,,,
,,,,,,,,,,,,,,,,,,,,,,,,,,,,,,,,,,,,,,,,,,5f271938dab22f02cdc90584,6036d85d669cbf9881d0fc13,2021-02-24_23h52.05.023,Colour_Similarity_Experiment,2020.2.10,Win32,60,6036d0d9a84aa1626184a6ef,17.21273663,16.67281553,16.70776081,16.68194444,16.66396815,16.68162224,,,,,,,,,,,,,,,,,,,,PF,weak,3,,,,,,,,6,1.083295,,,,,,,,,,,,,,,,,,,,,,,,,,,,7,weak,126.4000133,51.19996991,1,0,0,response1disk,9,50,3.200011492,-1.600006461,1,0,0,rectangle,3.200011492,-1.600006461,1,0,0,0,7,0,0.003145,3.200011492,-1.600006461,1,0,0,0,49,49,10,1,,,,,,,,,,,,,,,,,,,,,
,,,,,,,,,,,,,,,,,,,,,,,,,,,,,,,,,,,,,,,,,,5f271938dab22f02cdc90584,6036d85d669cbf9881d0fc13,2021-02-24_23h52.05.023,Colour_Similarity_Experiment,2020.2.10,Win32,60,6036d0d9a84aa1626184a6ef,17.21273663,16.67281553,16.70776081,16.68194444,16.66396815,16.68162224,,,,,,,,,,,,,,,,,,,,PF,weak,3,,,,,,,,2,1.666445,,,,,,,,,,,,,,,,,,,,,,,,,,,,6,weak,-58.3999406,-32.00000691,1,0,0,response5disk,7,51,-15.99998879,-3.200006485,1,0,0,rectangle,-15.99998879,-3.200006485,1,0,0,0,4,0,0.00328,-15.99998879,-3.200006485,1,0,0,0,50,50,50,1,,,,,,,,,,,,,,,,,,,,,
,,,,,,,,,,,,,,,,,,,,,,,,,,,,,,,,,,,,,,,,,,5f271938dab22f02cdc90584,6036d85d669cbf9881d0fc13,2021-02-24_23h52.05.023,Colour_Similarity_Experiment,2020.2.10,Win32,60,6036d0d9a84aa1626184a6ef,17.21273663,16.67281553,16.70776081,16.68194444,16.66396815,16.68162224,,,,,,,,,,,,,,,,,,,,PF,strong,3,,,,,,,,7,1.533205,,,,,,,,,,,,,,,,,,,,,,,,,,,,1,strong,60.00001234,87.19997045,1,0,0,response1disk,9,52,3.200011492,5.599993646,1,0,0,rectangle,3.200011492,5.599993646,1,0,0,0,2,0,0.00298,3.200011492,5.599993646,1,0,0,0,51,51,123,1,,,,,,,,,,,,,,,,,,,,,
,,,,,,,,,,,,,,,,,,,,,,,,,,,,,,,,,,,,,,,,,,5f271938dab22f02cdc90584,6036d85d669cbf9881d0fc13,2021-02-24_23h52.05.023,Colour_Similarity_Experiment,2020.2.10,Win32,60,6036d0d9a84aa1626184a6ef,17.21273663,16.67281553,16.70776081,16.68194444,16.66396815,16.68162224,,,,,,,,,,,,,,,,,,,,PF,weak,3,,,,,,,,6,1.533235,,,,,,,,,,,,,,,,,,,,,,,,,,,,6,weak,64.0000124,45.59999424,1,0,0,response1disk,9,53,16.80001169,8.799993694,1,0,0,rectangle,16.80001169,8.799993694,1,0,0,0,1,0,0.0032,16.80001169,8.799993694,1,0,0,0,52,52,45,1,,,,,,,,,,,,,,,,,,,,,
,,,,,,,,,,,,,,,,,,,,,,,,,,,,,,,,,,,,,,,,,,5f271938dab22f02cdc90584,6036d85d669cbf9881d0fc13,2021-02-24_23h52.05.023,Colour_Similarity_Experiment,2020.2.10,Win32,60,6036d0d9a84aa1626184a6ef,17.21273663,16.67281553,16.70776081,16.68194444,16.66396815,16.68162224,,,,,,,,,,,,,,,,,,,,PF,strong,3,,,,,,,,5,2.86678,,,,,,,,,,,,,,,,,,,,,,,,,,,,4,strong,80.00001264,-30.40000689,1,0,0,response3disk,1,54,16.00001168,-8.000006557,1,0,0,rectangle,16.00001168,-8.000006557,1,0,0,0,1,0,0.000255,16.00001168,-8.000006557,1,0,0,0,53,53,102,1,,,,,,,,,,,,,,,,,,,,,
,,,,,,,,,,,,,,,,,,,,,,,,,,,,,,,,,,,,,,,,,,5f271938dab22f02cdc90584,6036d85d669cbf9881d0fc13,2021-02-24_23h52.05.023,Colour_Similarity_Experiment,2020.2.10,Win32,60,6036d0d9a84aa1626184a6ef,17.21273663,16.67281553,16.70776081,16.68194444,16.66396815,16.68162224,,,,,,,,,,,,,,,,,,,,PF,strong,3,,,,,,,,6,1.78304,,,,,,,,,,,,,,,,,,,,,,,,,,,,2,strong,92.80001283,32.79999405,1,0,0,response1disk,1,55,8.000011563,7.19999367,1,0,0,rectangle,8.000011563,7.19999367,1,0,0,0,4,0,0.00317,8.000011563,7.19999367,1,0,0,0,54,54,85,1,,,,,,,,,,,,,,,,,,,,,
,,,,,,,,,,,,,,,,,,,,,,,,,,,,,,,,,,,,,,,,,,5f271938dab22f02cdc90584,6036d85d669cbf9881d0fc13,2021-02-24_23h52.05.023,Colour_Similarity_Experiment,2020.2.10,Win32,60,6036d0d9a84aa1626184a6ef,17.21273663,16.67281553,16.70776081,16.68194444,16.66396815,16.68162224,,,,,,,,,,,,,,,,,,,,PF,strong,3,,,,,,,,6,1.33372,,,,,,,,,,,,,,,,,,,,,,,,,,,,7,strong,71.20001251,36.79999411,1,0,0,response1disk,4,56,19.20001173,4.799993634,1,0,0,rectangle,19.20001173,4.799993634,1,0,0,0,0,0,0.00213,19.20001173,4.799993634,1,0,0,0,55,55,158,1,,,,,,,,,,,,,,,,,,,,,
,,,,,,,,,,,,,,,,,,,,,,,,,,,,,,,,,,,,,,,,,,5f271938dab22f02cdc90584,6036d85d669cbf9881d0fc13,2021-02-24_23h52.05.023,Colour_Similarity_Experiment,2020.2.10,Win32,60,6036d0d9a84aa1626184a6ef,17.21273663,16.67281553,16.70776081,16.68194444,16.66396815,16.68162224,,,,,,,,,,,,,,,,,,,,PF,weak,3,,,,,,,,7,1.133855,,,,,,,,,,,,,,,,,,,,,,,,,,,,9,weak,44.0000121,66.39999455,1,0,0,response1disk,6,57,15.20001167,7.19999367,1,0,0,rectangle,15.20001167,7.19999367,1,0,0,0,4,0,0.001655,15.20001167,7.19999367,1,0,0,0,56,56,148,1,,,,,,,,,,,,,,,,,,,,,
,,,,,,,,,,,,,,,,,,,,,,,,,,,,,,,,,,,,,,,,,,5f271938dab22f02cdc90584,6036d85d669cbf9881d0fc13,2021-02-24_23h52.05.023,Colour_Similarity_Experiment,2020.2.10,Win32,60,6036d0d9a84aa1626184a6ef,17.21273663,16.67281553,16.70776081,16.68194444,16.66396815,16.68162224,,,,,,,,,,,,,,,,,,,,PF,weak,3,,,,,,,,4,2.56599,,,,,,,,,,,,,,,,,,,,,,,,,,,,8,weak,52.80001223,-90.40000778,1,0,0,response3disk,2,58,-17.59998882,7.19999367,1,0,0,rectangle,-17.59998882,7.19999367,1,0,0,0,1,0,0.00166,-17.59998882,7.19999367,1,0,0,0,57,57,83,1,,,,,,,,,,,,,,,,,,,,,
,,,,,,,,,,,,,,,,,,,,,,,,,,,,,,,,,,,,,,,,,,5f271938dab22f02cdc90584,6036d85d669cbf9881d0fc13,2021-02-24_23h52.05.023,Colour_Similarity_Experiment,2020.2.10,Win32,60,6036d0d9a84aa1626184a6ef,17.21273663,16.67281553,16.70776081,16.68194444,16.66396815,16.68162224,,,,,,,,,,,,,,,,,,,,PF,weak,3,,,,,,,,7,1.649765,,,,,,,,,,,,,,,,,,,,,,,,,,,,1,weak,34.40001196,88.79999489,1,0,0,response1disk,8,59,2.40001148,9.599993706,1,0,0,rectangle,2.40001148,9.599993706,1,0,0,0,5,0,0.001165,2.40001148,9.599993706,1,0,0,0,58,58,65,1,,,,,,,,,,,,,,,,,,,,,
,,,,,,,,,,,,,,,,,,,,,,,,,,,,,,,,,,,,,,,,,,5f271938dab22f02cdc90584,6036d85d669cbf9881d0fc13,2021-02-24_23h52.05.023,Colour_Similarity_Experiment,2020.2.10,Win32,60,6036d0d9a84aa1626184a6ef,17.21273663,16.67281553,16.70776081,16.68194444,16.66396815,16.68162224,,,,,,,,,,,,,,,,,,,,PF,strong,3,,,,,,,,3,1.633295,,,,,,,,,,,,,,,,,,,,,,,,,,,,7,strong,-47.19998926,-76.80000758,1,0,0,response5disk,6,60,-7.999988675,6.399993658,1,0,0,rectangle,-7.999988675,6.399993658,1,0,0,0,6,0,0.00089,-7.999988675,6.399993658,1,0,0,0,59,59,31,1,,,,,,,,,,,,,,,,,,,,,
,,,,,,,,,,,,,,,,,,,,,,,,,,,,,,,,,,,,,,,,,,5f271938dab22f02cdc90584,6036d85d669cbf9881d0fc13,2021-02-24_23h52.05.023,Colour_Similarity_Experiment,2020.2.10,Win32,60,6036d0d9a84aa1626184a6ef,17.21273663,16.67281553,16.70776081,16.68194444,16.66396815,16.68162224,,,,,,,,,,,,,,,,,,,,PF,strong,3,,,,,,,,4,7.417765,,,,,,,,,,,,,,,,,,,,,,,,,,,,3,strong,36.00001198,-92.80000782,1,0,0,response3disk,7,61,5.600060356,-4.000006497,1,0,0,rectangle,5.600060356,-4.000006497,1,0,0,0,3,0,0.00095,5.600060356,-4.000006497,1,0,0,0,60,60,118,1,,,,,,,,,,,,,,,,,,,,,
,,,,,,,,,,,,,,,,,,,,,,,,,,,,,,,,,,,,,,,,,,5f271938dab22f02cdc90584,6036d85d669cbf9881d0fc13,2021-02-24_23h52.05.023,Colour_Similarity_Experiment,2020.2.10,Win32,60,6036d0d9a84aa1626184a6ef,17.21273663,16.67281553,16.70776081,16.68194444,16.66396815,16.68162224,,,,,,,,,,,,,,,,,,,,PF,weak,3,,,,,,,,7,1.13112,,,,,,,,,,,,,,,,,,,,,,,,,,,,8,weak,49.60006101,85.59999484,1,0,0,response1disk,6,62,-23.1999889,-4.800006509,1,0,0,rectangle,84.80001271,33.59999406,1,0,0,6,6,1,1.533195,8.000011563,-0.800006449,1,0,0,0,61,61,161,1,response1disk_3,rectangle,,,,,,,,,,,,,,,,,,,
,,,,,,,,,,,,,,,,,,,,,,,,,,,,,,,,,,,,,,,,,,5f271938dab22f02cdc90584,6036d85d669cbf9881d0fc13,2021-02-24_23h52.05.023,Colour_Similarity_Experiment,2020.2.10,Win32,60,6036d0d9a84aa1626184a6ef,17.21273663,16.67281553,16.70776081,16.68194444,16.66396815,16.68162224,,,,,,,,,,,,,,,,,,,,PF,weak,3,,,,,,,,4,1.78375,,,,,,,,,,,,,,,,,,,,,,,,,,,,2,weak,51.20001221,-120.8000082,1,0,0,response3disk,3,63,10.4000116,-9.60000658,1,0,0,rectangle,10.4000116,-9.60000658,1,0,0,6,0,0,0.001235,10.4000116,-9.60000658,1,0,0,0,62,62,69,1,,,,,,,,,,,,,,,,,,,,,
,,,,,,,,,,,,,,,,,,,,,,,,,,,,,,,,,,,,,,,,,,5f271938dab22f02cdc90584,6036d85d669cbf9881d0fc13,2021-02-24_23h52.05.023,Colour_Similarity_Experiment,2020.2.10,Win32,60,6036d0d9a84aa1626184a6ef,17.21273663,16.67281553,16.70776081,16.68194444,16.66396815,16.68162224,,,,,,,,,,,,,,,,,,,,PF,strong,3,,,,,,,,5,4.097495,,,,,,,,,,,,,,,,,,,,,,,,,,,,1,strong,64.80001241,-36.00000697,1,0,0,response3disk,8,64,14.40001166,-8.800006568,1,0,0,rectangle,14.40001166,-8.800006568,1,0,0,6,1,0,0.001025,14.40001166,-8.800006568,1,0,0,0,63,63,27,1,,,,,,,,,,,,,,,,,,,,,
,,,,,,,,,,,,,,,,,,,,,,,,,,,,,,,,,,,,,,,,,,5f271938dab22f02cdc90584,6036d85d669cbf9881d0fc13,2021-02-24_23h52.05.023,Colour_Similarity_Experiment,2020.2.10,Win32,60,6036d0d9a84aa1626184a6ef,17.21273663,16.67281553,16.70776081,16.68194444,16.66396815,16.68162224,,,,,,,,,,,,,,,,,,,,PF,strong,3,,,,,,,,2,1.16701,,,,,,,,,,,,,,,,,,,,,,,,,,,,9,strong,-80.79998976,-48.80000716,1,0,0,response5disk,7,65,-29.599989,-6.400006533,1,0,0,rectangle,-29.599989,-6.400006533,1,0,0,6,5,0,0.00105,-29.599989,-6.400006533,1,0,0,0,64,64,100,1,,,,,,,,,,,,,,,,,,,,,
,,,,,,,,,,,,,,,,,,,,,,,,,,,,,,,,,,,,,,,,,,5f271938dab22f02cdc90584,6036d85d669cbf9881d0fc13,2021-02-24_23h52.05.023,Colour_Similarity_Experiment,2020.2.10,Win32,60,6036d0d9a84aa1626184a6ef,17.21273663,16.67281553,16.70776081,16.68194444,16.66396815,16.68162224,,,,,,,,,,,,,,,,,,,,PF,weak,3,,,,,,,,7,1.132875,,,,,,,,,,,,,,,,,,,,,,,,,,,,1,weak,55.20001227,95.19997057,1,0,0,response1disk,4,66,-14.39993994,-11.2000066,1,0,0,rectangle,-14.39993994,-11.2000066,1,0,0,6,4,0,0.00114,-14.39993994,-11.2000066,1,0,0,0,65,65,139,1,,,,,,,,,,,,,,,,,,,,,
,,,,,,,,,,,,,,,,,,,,,,,,,,,,,,,,,,,,,,,,,,5f271938dab22f02cdc90584,6036d85d669cbf9881d0fc13,2021-02-24_23h52.05.023,Colour_Similarity_Experiment,2020.2.10,Win32,60,6036d0d9a84aa1626184a6ef,17.21273663,16.67281553,16.70776081,16.68194444,16.66396815,16.68162224,,,,,,,,,,,,,,,,,,,,PF,strong,3,,,,,,,,7,1.297255,,,,,,,,,,,,,,,,,,,,,,,,,,,,9,strong,56.00001228,95.99999499,1,0,0,response1disk,4,67,5.600060356,7.19999367,1,0,0,rectangle,5.600060356,7.19999367,1,0,0,6,4,0,0.00024,5.600060356,7.19999367,1,0,0,0,66,66,60,1,,,,,,,,,,,,,,,,,,,,,
,,,,,,,,,,,,,,,,,,,,,,,,,,,,,,,,,,,,,,,,,,5f271938dab22f02cdc90584,6036d85d669cbf9881d0fc13,2021-02-24_23h52.05.023,Colour_Similarity_Experiment,2020.2.10,Win32,60,6036d0d9a84aa1626184a6ef,17.21273663,16.67281553,16.70776081,16.68194444,16.66396815,16.68162224,,,,,,,,,,,,,,,,,,,,PF,strong,3,,,,,,,,7,1.23359,,,,,,,,,,,,,,,,,,,,,,,,,,,,1,strong,37.60006083,74.39999467,1,0,0,response1disk,1,68,2.40001148,-4.800006509,1,0,0,rectangle,2.40001148,-4.800006509,1,0,0,6,1,0,0.003065,2.40001148,-4.800006509,1,0,0,0,67,67,151,1,,,,,,,,,,,,,,,,,,,,,
,,,,,,,,,,,,,,,,,,,,,,,,,,,,,,,,,,,,,,,,,,5f271938dab22f02cdc90584,6036d85d669cbf9881d0fc13,2021-02-24_23h52.05.023,Colour_Similarity_Experiment,2020.2.10,Win32,60,6036d0d9a84aa1626184a6ef,17.21273663,16.67281553,16.70776081,16.68194444,16.66396815,16.68162224,,,,,,,,,,,,,,,,,,,,PF,weak,3,,,,,,,,0,1.149795,,,,,,,,,,,,,,,,,,,,,,,,,,,,8,weak,-41.59998918,72.79999465,1,0,0,response7disk,8,69,-11.19998872,-9.60000658,1,0,0,rectangle,-11.19998872,-9.60000658,1,0,0,6,6,0,0.003135,-11.19998872,-9.60000658,1,0,0,0,68,68,153,1,,,,,,,,,,,,,,,,,,,,,
,,,,,,,,,,,,,,,,,,,,,,,,,,,,,,,,,,,,,,,,,,5f271938dab22f02cdc90584,6036d85d669cbf9881d0fc13,2021-02-24_23h52.05.023,Colour_Similarity_Experiment,2020.2.10,Win32,60,6036d0d9a84aa1626184a6ef,17.21273663,16.67281553,16.70776081,16.68194444,16.66396815,16.68162224,,,,,,,,,,,,,,,,,,,,PF,weak,3,,,,,,,,3,1.583515,,,,,,,,,,,,,,,,,,,,,,,,,,,,7,weak,-56.7999894,-77.60000759,1,0,0,response5disk,5,70,-23.99998891,8.799993694,1,0,0,rectangle,-23.99998891,8.799993694,1,0,0,6,4,0,0.0031,-23.99998891,8.799993694,1,0,0,0,69,69,92,1,,,,,,,,,,,,,,,,,,,,,
,,,,,,,,,,,,,,,,,,,,,,,,,,,,,,,,,,,,,,,,,,5f271938dab22f02cdc90584,6036d85d669cbf9881d0fc13,2021-02-24_23h52.05.023,Colour_Similarity_Experiment,2020.2.10,Win32,60,6036d0d9a84aa1626184a6ef,17.21273663,16.67281553,16.70776081,16.68194444,16.66396815,16.68162224,,,,,,,,,,,,,,,,,,,,PF,strong,3,,,,,,,,5,1.36327,,,,,,,,,,,,,,,,,,,,,,,,,,,,3,strong,115.2000132,-52.00000721,1,0,0,response3disk,2,71,20.80001175,-3.200006485,1,0,0,rectangle,20.80001175,-3.200006485,1,0,0,6,2,0,0.0011,20.80001175,-3.200006485,1,0,0,0,70,70,93,1,,,,,,,,,,,,,,,,,,,,,
,,,,,,,,,,,,,,,,,,,,,,,,,,,,,,,,,,,,,,,,,,5f271938dab22f02cdc90584,6036d85d669cbf9881d0fc13,2021-02-24_23h52.05.023,Colour_Similarity_Experiment,2020.2.10,Win32,60,6036d0d9a84aa1626184a6ef,17.21273663,16.67281553,16.70776081,16.68194444,16.66396815,16.68162224,,,,,,,,,,,,,,,,,,,,PF,weak,3,,,,,,,,7,1.13477,,,,,,,,,,,,,,,,,,,,,,,,,,,,3,weak,52.80001223,88.79999489,1,0,0,response1disk,6,72,8.800011575,-4.800006509,1,0,0,rectangle,8.800011575,-4.800006509,1,0,0,6,3,0,0.00114,8.800011575,-4.800006509,1,0,0,0,71,71,47,1,,,,,,,,,,,,,,,,,,,,,
,,,,,,,,,,,,,,,,,,,,,,,,,,,,,,,,,,,,,,,,,,5f271938dab22f02cdc90584,6036d85d669cbf9881d0fc13,2021-02-24_23h52.05.023,Colour_Similarity_Experiment,2020.2.10,Win32,60,6036d0d9a84aa1626184a6ef,17.21273663,16.67281553,16.70776081,16.68194444,16.66396815,16.68162224,,,,,,,,,,,,,,,,,,,,PF,weak,3,,,,,,,,7,0.880455,,,,,,,,,,,,,,,,,,,,,,,,,,,,1,weak,31.20001191,90.39999491,1,0,0,response1disk,6,73,-2.399939764,3.19999361,1,0,0,rectangle,-2.399939764,3.19999361,1,0,0,6,1,0,0.00113,-2.399939764,3.19999361,1,0,0,0,72,72,144,1,,,,,,,,,,,,,,,,,,,,,
,,,,,,,,,,,,,,,,,,,,,,,,,,,,,,,,,,,,,,,,,,5f271938dab22f02cdc90584,6036d85d669cbf9881d0fc13,2021-02-24_23h52.05.023,Colour_Similarity_Experiment,2020.2.10,Win32,60,6036d0d9a84aa1626184a6ef,17.21273663,16.67281553,16.70776081,16.68194444,16.66396815,16.68162224,,,,,,,,,,,,,,,,,,,,PF,weak,3,,,,,,,,6,0.95095,,,,,,,,,,,,,,,,,,,,,,,,,,,,9,weak,96.80001289,43.99999422,1,0,0,response1disk,2,74,1.14441E-05,3.19999361,1,0,0,rectangle,1.14441E-05,3.19999361,1,0,0,6,3,0,0.000705,1.14441E-05,3.19999361,1,0,0,0,73,73,157,1,,,,,,,,,,,,,,,,,,,,,
,,,,,,,,,,,,,,,,,,,,,,,,,,,,,,,,,,,,,,,,,,5f271938dab22f02cdc90584,6036d85d669cbf9881d0fc13,2021-02-24_23h52.05.023,Colour_Similarity_Experiment,2020.2.10,Win32,60,6036d0d9a84aa1626184a6ef,17.21273663,16.67281553,16.70776081,16.68194444,16.66396815,16.68162224,,,,,,,,,,,,,,,,,,,,PF,strong,3,,,,,,,,6,0.93257,,,,,,,,,,,,,,,,,,,,,,,,,,,,4,strong,51.20001221,24.79999393,1,0,0,response1disk,2,75,12.80001163,3.19999361,1,0,0,rectangle,12.80001163,3.19999361,1,0,0,6,2,0,0.000805,12.80001163,3.19999361,1,0,0,0,74,74,13,1,,,,,,,,,,,,,,,,,,,,,
,,,,,,,,,,,,,,,,,,,,,,,,,,,,,,,,,,,,,,,,,,5f271938dab22f02cdc90584,6036d85d669cbf9881d0fc13,2021-02-24_23h52.05.023,Colour_Similarity_Experiment,2020.2.10,Win32,60,6036d0d9a84aa1626184a6ef,17.21273663,16.67281553,16.70776081,16.68194444,16.66396815,16.68162224,,,,,,,,,,,,,,,,,,,,PF,weak,3,,,,,,,,0,1.01461,,,,,,,,,,,,,,,,,,,,,,,,,,,,9,weak,-43.1999892,77.59999472,1,0,0,response7disk,9,76,-27.19998896,9.599993706,1,0,0,rectangle,-27.19998896,9.599993706,1,0,0,6,4,0,0.001085,-27.19998896,9.599993706,1,0,0,0,75,75,106,1,,,,,,,,,,,,,,,,,,,,,
,,,,,,,,,,,,,,,,,,,,,,,,,,,,,,,,,,,,,,,,,,5f271938dab22f02cdc90584,6036d85d669cbf9881d0fc13,2021-02-24_23h52.05.023,Colour_Similarity_Experiment,2020.2.10,Win32,60,6036d0d9a84aa1626184a6ef,17.21273663,16.67281553,16.70776081,16.68194444,16.66396815,16.68162224,,,,,,,,,,,,,,,,,,,,PF,weak,3,,,,,,,,6,1.88375,,,,,,,,,,,,,,,,,,,,,,,,,,,,6,weak,62.40001237,45.59999424,1,0,0,response1disk,4,77,-3.199988604,3.19999361,1,0,0,rectangle,-3.199988604,3.19999361,1,0,0,6,1,0,0.00111,-3.199988604,3.19999361,1,0,0,0,76,76,33,1,,,,,,,,,,,,,,,,,,,,,
,,,,,,,,,,,,,,,,,,,,,,,,,,,,,,,,,,,,,,,,,,5f271938dab22f02cdc90584,6036d85d669cbf9881d0fc13,2021-02-24_23h52.05.023,Colour_Similarity_Experiment,2020.2.10,Win32,60,6036d0d9a84aa1626184a6ef,17.21273663,16.67281553,16.70776081,16.68194444,16.66396815,16.68162224,,,,,,,,,,,,,,,,,,,,PF,strong,3,,,,,,,,4,1.66767,,,,,,,,,,,,,,,,,,,,,,,,,,,,1,strong,30.4000119,-67.20000744,1,0,0,response3disk,4,78,5.600060356,1.599993587,1,0,0,rectangle,5.600060356,1.599993587,1,0,0,6,6,0,0.00098,5.600060356,1.599993587,1,0,0,0,77,77,135,1,,,,,,,,,,,,,,,,,,,,,
,,,,,,,,,,,,,,,,,,,,,,,,,,,,,,,,,,,,,,,,,,5f271938dab22f02cdc90584,6036d85d669cbf9881d0fc13,2021-02-24_23h52.05.023,Colour_Similarity_Experiment,2020.2.10,Win32,60,6036d0d9a84aa1626184a6ef,17.21273663,16.67281553,16.70776081,16.68194444,16.66396815,16.68162224,,,,,,,,,,,,,,,,,,,,PF,strong,3,,,,,,,,5,1.931025,,,,,,,,,,,,,,,,,,,,,,,,,,,,3,strong,72.00001252,-41.60000706,1,0,0,response3disk,6,79,24.80001181,-2.400006473,1,0,0,rectangle,24.80001181,-2.400006473,1,0,0,6,2,0,0.001235,24.80001181,-2.400006473,1,0,0,0,78,78,95,1,,,,,,,,,,,,,,,,,,,,,
,,,,,,,,,,,,,,,,,,,,,,,,,,,,,,,,,,,,,,,,,,5f271938dab22f02cdc90584,6036d85d669cbf9881d0fc13,2021-02-24_23h52.05.023,Colour_Similarity_Experiment,2020.2.10,Win32,60,6036d0d9a84aa1626184a6ef,17.21273663,16.67281553,16.70776081,16.68194444,16.66396815,16.68162224,,,,,,,,,,,,,,,,,,,,PF,strong,3,,,,,,,,6,2.41532,,,,,,,,,,,,,,,,,,,,,,,,,,,,1,strong,60.00001234,23.19996949,1,0,0,response1disk,5,80,-1.59998858,-6.4373E-06,1,0,0,rectangle,-1.59998858,-6.4373E-06,1,0,0,6,7,0,0.001185,-1.59998858,-6.4373E-06,1,0,0,0,79,79,82,1,,,,,,,,,,,,,,,,,,,,,
,,,,,,,,,,,,,,,,,,,,,,,,,,,,,,,,,,,,,,,,,,5f271938dab22f02cdc90584,6036d85d669cbf9881d0fc13,2021-02-24_23h52.05.023,Colour_Similarity_Experiment,2020.2.10,Win32,60,6036d0d9a84aa1626184a6ef,17.21273663,16.67281553,16.70776081,16.68194444,16.66396815,16.68162224,,,,,,,,,,,,,,,,,,,,PF,strong,3,,,,,,,,6,3.647175,,,,,,,,,,,,,,,,,,,,,,,,,,,,4,strong,78.40001261,40.79999417,1,0,0,response1disk,5,81,-26.39994012,-4.800006509,1,0,0,rectangle,-26.39994012,-4.800006509,1,0,0,6,1,0,0.00116,-26.39994012,-4.800006509,1,0,0,0,80,80,116,1,,,,,,,,,,,,,,,,,,,,,
,,,,,,,,,,,,,,,,,,,,,,,,,,,,,,,,,,,,,,,,,,5f271938dab22f02cdc90584,6036d85d669cbf9881d0fc13,2021-02-24_23h52.05.023,Colour_Similarity_Experiment,2020.2.10,Win32,60,6036d0d9a84aa1626184a6ef,17.21273663,16.67281553,16.70776081,16.68194444,16.66396815,16.68162224,,,,,,,,,,,,,,,,,,,,PF,strong,3,,,,,,,,3,1.463775,,,,,,,,,,,,,,,,,,,,,,,,,,,,8,strong,-20.79998887,-79.20000762,1,0,0,response5disk,7,82,-25.59998894,1.599993587,1,0,0,rectangle,-25.59998894,1.599993587,1,0,0,6,4,0,0.001045,-25.59998894,1.599993587,1,0,0,0,81,81,86,1,,,,,,,,,,,,,,,,,,,,,
,,,,,,,,,,,,,,,,,,,,,,,,,,,,,,,,,,,,,,,,,,5f271938dab22f02cdc90584,6036d85d669cbf9881d0fc13,2021-02-24_23h52.05.023,Colour_Similarity_Experiment,2020.2.10,Win32,60,6036d0d9a84aa1626184a6ef,17.21273663,16.67281553,16.70776081,16.68194444,16.66396815,16.68162224,,,,,,,,,,,,,,,,,,,,PF,strong,3,,,,,,,,5,3.730155,,,,,,,,,,,,,,,,,,,,,,,,,,,,5,strong,84.80001271,-40.80000705,1,0,0,response3disk,2,83,-7.199988663,-4.000006497,1,0,0,rectangle,64.80001241,45.59999424,1,0,0,6,6,1,1.6696,-15.19998878,4.799993634,1,0,0,0,82,82,55,1,response1disk_3,rectangle,,,,,,,,,,,,,,,,,,,
,,,,,,,,,,,,,,,,,,,,,,,,,,,,,,,,,,,,,,,,,,5f271938dab22f02cdc90584,6036d85d669cbf9881d0fc13,2021-02-24_23h52.05.023,Colour_Similarity_Experiment,2020.2.10,Win32,60,6036d0d9a84aa1626184a6ef,17.21273663,16.67281553,16.70776081,16.68194444,16.66396815,16.68162224,,,,,,,,,,,,,,,,,,,,PF,weak,3,,,,,,,,3,1.483375,,,,,,,,,,,,,,,,,,,,,,,,,,,,2,weak,-26.39994012,-90.40000778,1,0,0,response5disk,1,84,-20.79998887,-11.2000066,1,0,0,rectangle,-20.79998887,-11.2000066,1,0,0,6,0,0,0.003265,-20.79998887,-11.2000066,1,0,0,0,83,83,9,1,,,,,,,,,,,,,,,,,,,,,
,,,,,,,,,,,,,,,,,,,,,,,,,,,,,,,,,,,,,,,,,,5f271938dab22f02cdc90584,6036d85d669cbf9881d0fc13,2021-02-24_23h52.05.023,Colour_Similarity_Experiment,2020.2.10,Win32,60,6036d0d9a84aa1626184a6ef,17.21273663,16.67281553,16.70776081,16.68194444,16.66396815,16.68162224,,,,,,,,,,,,,,,,,,,,PF,strong,3,,,,,,,,5,2.166175,,,,,,,,,,,,,,,,,,,,,,,,,,,,8,strong,95.20001286,-45.60000712,1,0,0,response3disk,1,85,28.80001187,-6.4373E-06,1,0,0,rectangle,28.80001187,-6.4373E-06,1,0,0,6,1,0,0.00316,28.80001187,-6.4373E-06,1,0,0,0,84,84,20,1,,,,,,,,,,,,,,,,,,,,,
,,,,,,,,,,,,,,,,,,,,,,,,,,,,,,,,,,,,,,,,,,5f271938dab22f02cdc90584,6036d85d669cbf9881d0fc13,2021-02-24_23h52.05.023,Colour_Similarity_Experiment,2020.2.10,Win32,60,6036d0d9a84aa1626184a6ef,17.21273663,16.67281553,16.70776081,16.68194444,16.66396815,16.68162224,,,,,,,,,,,,,,,,,,,,PF,weak,3,,,,,,,,6,2.816375,,,,,,,,,,,,,,,,,,,,,,,,,,,,9,weak,54.40001225,49.5999943,1,0,0,response1disk,1,86,9.600060415,11.19999373,1,0,0,rectangle,9.600060415,11.19999373,1,0,0,6,1,0,0.00036,9.600060415,11.19999373,1,0,0,0,85,85,74,1,,,,,,,,,,,,,,,,,,,,,
,,,,,,,,,,,,,,,,,,,,,,,,,,,,,,,,,,,,,,,,,,5f271938dab22f02cdc90584,6036d85d669cbf9881d0fc13,2021-02-24_23h52.05.023,Colour_Similarity_Experiment,2020.2.10,Win32,60,6036d0d9a84aa1626184a6ef,17.21273663,16.67281553,16.70776081,16.68194444,16.66396815,16.68162224,,,,,,,,,,,,,,,,,,,,PF,weak,3,,,,,,,,7,0.94987,,,,,,,,,,,,,,,,,,,,,,,,,,,,4,weak,25.60006065,95.19997057,1,0,0,response1disk,2,87,17.60006053,15.9999938,1,0,0,rectangle,17.60006053,15.9999938,1,0,0,6,2,0,0.00307,17.60006053,15.9999938,1,0,0,0,86,86,108,1,,,,,,,,,,,,,,,,,,,,,
,,,,,,,,,,,,,,,,,,,,,,,,,,,,,,,,,,,,,,,,,,5f271938dab22f02cdc90584,6036d85d669cbf9881d0fc13,2021-02-24_23h52.05.023,Colour_Similarity_Experiment,2020.2.10,Win32,60,6036d0d9a84aa1626184a6ef,17.21273663,16.67281553,16.70776081,16.68194444,16.66396815,16.68162224,,,,,,,,,,,,,,,,,,,,PF,weak,3,,,,,,,,3,1.46665,,,,,,,,,,,,,,,,,,,,,,,,,,,,8,weak,-20.79998887,-108.000008,1,0,0,response5disk,7,88,4.800011516,11.19999373,1,0,0,rectangle,4.800011516,11.19999373,1,0,0,6,0,0,0.003115,4.800011516,11.19999373,1,0,0,0,87,87,23,1,,,,,,,,,,,,,,,,,,,,,
,,,,,,,,,,,,,,,,,,,,,,,,,,,,,,,,,,,,,,,,,,5f271938dab22f02cdc90584,6036d85d669cbf9881d0fc13,2021-02-24_23h52.05.023,Colour_Similarity_Experiment,2020.2.10,Win32,60,6036d0d9a84aa1626184a6ef,17.21273663,16.67281553,16.70776081,16.68194444,16.66396815,16.68162224,,,,,,,,,,,,,,,,,,,,PF,strong,3,,,,,,,,3,1.400045,,,,,,,,,,,,,,,,,,,,,,,,,,,,5,strong,-28.79998899,-70.40000749,1,0,0,response5disk,7,89,-15.99998879,8.799993694,1,0,0,rectangle,-15.99998879,8.799993694,1,0,0,6,7,0,0.003095,-15.99998879,8.799993694,1,0,0,0,88,88,7,1,,,,,,,,,,,,,,,,,,,,,
,,,,,,,,,,,,,,,,,,,,,,,,,,,,,,,,,,,,,,,,,,5f271938dab22f02cdc90584,6036d85d669cbf9881d0fc13,2021-02-24_23h52.05.023,Colour_Similarity_Experiment,2020.2.10,Win32,60,6036d0d9a84aa1626184a6ef,17.21273663,16.67281553,16.70776081,16.68194444,16.66396815,16.68162224,,,,,,,,,,,,,,,,,,,,PF,strong,3,,,,,,,,5,0.93324,,,,,,,,,,,,,,,,,,,,,,,,,,,,6,strong,60.80001235,-38.40000701,1,0,0,response3disk,4,90,14.40001166,4.799993634,1,0,0,rectangle,14.40001166,4.799993634,1,0,0,6,5,0,0.003095,14.40001166,4.799993634,1,0,0,0,89,89,56,1,,,,,,,,,,,,,,,,,,,,,
,,,,,,,,,,,,,,,,,,,,,,,,,,,,,,,,,,,,,,,,,,5f271938dab22f02cdc90584,6036d85d669cbf9881d0fc13,2021-02-24_23h52.05.023,Colour_Similarity_Experiment,2020.2.10,Win32,60,6036d0d9a84aa1626184a6ef,17.21273663,16.67281553,16.70776081,16.68194444,16.66396815,16.68162224,,,,,,,,,,,,,,,,,,,,PF,weak,3,,,,,,,,6,1.033405,,,,,,,,,,,,,,,,,,,,,,,,,,,,2,weak,67.20001245,52.79999435,1,0,0,response1disk,5,91,3.200011492,-6.4373E-06,1,0,0,rectangle,3.200011492,-6.4373E-06,1,0,0,6,4,0,0.00388,3.200011492,-6.4373E-06,1,0,0,0,90,90,147,1,,,,,,,,,,,,,,,,,,,,,
,,,,,,,,,,,,,,,,,,,,,,,,,,,,,,,,,,,,,,,,,,5f271938dab22f02cdc90584,6036d85d669cbf9881d0fc13,2021-02-24_23h52.05.023,Colour_Similarity_Experiment,2020.2.10,Win32,60,6036d0d9a84aa1626184a6ef,17.21273663,16.67281553,16.70776081,16.68194444,16.66396815,16.68162224,,,,,,,,,,,,,,,,,,,,PF,strong,3,,,,,,,,2,1.366565,,,,,,,,,,,,,,,,,,,,,,,,,,,,4,strong,-68.79998958,-28.00000685,1,0,0,response5disk,3,92,4.800011516,16.79999381,1,0,0,rectangle,4.800011516,16.79999381,1,0,0,6,5,0,0.00352,4.800011516,16.79999381,1,0,0,0,91,91,77,1,,,,,,,,,,,,,,,,,,,,,
,,,,,,,,,,,,,,,,,,,,,,,,,,,,,,,,,,,,,,,,,,5f271938dab22f02cdc90584,6036d85d669cbf9881d0fc13,2021-02-24_23h52.05.023,Colour_Similarity_Experiment,2020.2.10,Win32,60,6036d0d9a84aa1626184a6ef,17.21273663,16.67281553,16.70776081,16.68194444,16.66396815,16.68162224,,,,,,,,,,,,,,,,,,,,PF,strong,3,,,,,,,,5,1.38334,,,,,,,,,,,,,,,,,,,,,,,,,,,,8,strong,87.20001274,-21.60000676,1,0,0,response3disk,2,93,6.400011539,3.19999361,1,0,0,rectangle,6.400011539,3.19999361,1,0,0,6,3,0,0.00293,6.400011539,3.19999361,1,0,0,0,92,92,22,1,,,,,,,,,,,,,,,,,,,,,
,,,,,,,,,,,,,,,,,,,,,,,,,,,,,,,,,,,,,,,,,,5f271938dab22f02cdc90584,6036d85d669cbf9881d0fc13,2021-02-24_23h52.05.023,Colour_Similarity_Experiment,2020.2.10,Win32,60,6036d0d9a84aa1626184a6ef,17.21273663,16.67281553,16.70776081,16.68194444,16.66396815,16.68162224,,,,,,,,,,,,,,,,,,,,PF,weak,3,,,,,,,,0,0.783255,,,,,,,,,,,,,,,,,,,,,,,,,,,,2,weak,-39.99998915,84.79999483,1,0,0,response7disk,2,94,0.800011456,4.799993634,1,0,0,rectangle,0.800011456,4.799993634,1,0,0,6,5,0,0.00331,0.800011456,4.799993634,1,0,0,0,93,93,14,1,,,,,,,,,,,,,,,,,,,,,
,,,,,,,,,,,,,,,,,,,,,,,,,,,,,,,,,,,,,,,,,,5f271938dab22f02cdc90584,6036d85d669cbf9881d0fc13,2021-02-24_23h52.05.023,Colour_Similarity_Experiment,2020.2.10,Win32,60,6036d0d9a84aa1626184a6ef,17.21273663,16.67281553,16.70776081,16.68194444,16.66396815,16.68162224,,,,,,,,,,,,,,,,,,,,PF,weak,3,,,,,,,,7,0.983225,,,,,,,,,,,,,,,,,,,,,,,,,,,,6,weak,43.20001209,71.99999464,1,0,0,response1disk,3,95,0.800011456,-4.000006497,1,0,0,rectangle,0.800011456,-4.000006497,1,0,0,6,7,0,0.00325,0.800011456,-4.000006497,1,0,0,0,94,94,26,1,,,,,,,,,,,,,,,,,,,,,
,,,,,,,,,,,,,,,,,,,,,,,,,,,,,,,,,,,,,,,,,,5f271938dab22f02cdc90584,6036d85d669cbf9881d0fc13,2021-02-24_23h52.05.023,Colour_Similarity_Experiment,2020.2.10,Win32,60,6036d0d9a84aa1626184a6ef,17.21273663,16.67281553,16.70776081,16.68194444,16.66396815,16.68162224,,,,,,,,,,,,,,,,,,,,PF,strong,3,,,,,,,,6,0.98337,,,,,,,,,,,,,,,,,,,,,,,,,,,,4,strong,66.40001243,27.99999398,1,0,0,response1disk,6,96,-10.39993988,1.599993587,1,0,0,rectangle,-10.39993988,1.599993587,1,0,0,6,0,0,0.003125,-10.39993988,1.599993587,1,0,0,0,95,95,122,1,,,,,,,,,,,,,,,,,,,,,
,,,,,,,,,,,,,,,,,,,,,,,,,,,,,,,,,,,,,,,,,,5f271938dab22f02cdc90584,6036d85d669cbf9881d0fc13,2021-02-24_23h52.05.023,Colour_Similarity_Experiment,2020.2.10,Win32,60,6036d0d9a84aa1626184a6ef,17.21273663,16.67281553,16.70776081,16.68194444,16.66396815,16.68162224,,,,,,,,,,,,,,,,,,,,PF,weak,3,,,,,,,,7,1.000095,,,,,,,,,,,,,,,,,,,,,,,,,,,,8,weak,64.0000124,90.39999491,1,0,0,response1disk,1,97,8.800011575,-12.00000662,1,0,0,rectangle,8.800011575,-12.00000662,1,0,0,6,3,0,0.00329,8.800011575,-12.00000662,1,0,0,0,96,96,57,1,,,,,,,,,,,,,,,,,,,,,
,,,,,,,,,,,,,,,,,,,,,,,,,,,,,,,,,,,,,,,,,,5f271938dab22f02cdc90584,6036d85d669cbf9881d0fc13,2021-02-24_23h52.05.023,Colour_Similarity_Experiment,2020.2.10,Win32,60,6036d0d9a84aa1626184a6ef,17.21273663,16.67281553,16.70776081,16.68194444,16.66396815,16.68162224,,,,,,,,,,,,,,,,,,,,PF,weak,3,,,,,,,,6,2.49974,,,,,,,,,,,,,,,,,,,,,,,,,,,,3,weak,69.60001248,41.59999418,1,0,0,response1disk,9,98,1.600060296,-2.400006473,1,0,0,rectangle,1.600060296,-2.400006473,1,0,0,6,4,0,0.003325,1.600060296,-2.400006473,1,0,0,0,97,97,79,1,,,,,,,,,,,,,,,,,,,,,
,,,,,,,,,,,,,,,,,,,,,,,,,,,,,,,,,,,,,,,,,,5f271938dab22f02cdc90584,6036d85d669cbf9881d0fc13,2021-02-24_23h52.05.023,Colour_Similarity_Experiment,2020.2.10,Win32,60,6036d0d9a84aa1626184a6ef,17.21273663,16.67281553,16.70776081,16.68194444,16.66396815,16.68162224,,,,,,,,,,,,,,,,,,,,PF,weak,3,,,,,,,,3,1.18332,,,,,,,,,,,,,,,,,,,,,,,,,,,,9,weak,-42.39994036,-69.60000747,1,0,0,response5disk,8,99,-19.19998884,4.799993634,1,0,0,rectangle,-19.19998884,4.799993634,1,0,0,6,5,0,0.00318,-19.19998884,4.799993634,1,0,0,0,98,98,67,1,,,,,,,,,,,,,,,,,,,,,
,,,,,,,,,,,,,,,,,,,,,,,,,,,,,,,,,,,,,,,,,,5f271938dab22f02cdc90584,6036d85d669cbf9881d0fc13,2021-02-24_23h52.05.023,Colour_Similarity_Experiment,2020.2.10,Win32,60,6036d0d9a84aa1626184a6ef,17.21273663,16.67281553,16.70776081,16.68194444,16.66396815,16.68162224,,,,,,,,,,,,,,,,,,,,PF,weak,3,,,,,,,,7,1.197655,,,,,,,,,,,,,,,,,,,,,,,,,,,,2,weak,60.80001235,98.39999503,1,0,0,response1disk,4,100,-3.999988616,-12.80000663,1,0,0,rectangle,-3.999988616,-12.80000663,1,0,0,6,3,0,0.000785,-3.999988616,-12.80000663,1,0,0,0,99,99,127,1,,,,,,,,,,,,,,,,,,,,,
,,,,,,,,,,,,,,,,,,,,,,,,,,,,,,,,,,,,,,,,,,5f271938dab22f02cdc90584,6036d85d669cbf9881d0fc13,2021-02-24_23h52.05.023,Colour_Similarity_Experiment,2020.2.10,Win32,60,6036d0d9a84aa1626184a6ef,17.21273663,16.67281553,16.70776081,16.68194444,16.66396815,16.68162224,,,,,,,,,,,,,,,,,,,,PF,strong,3,,,,,,,,3,2.280335,,,,,,,,,,,,,,,,,,,,,,,,,,,,7,strong,-38.3999403,-65.60000741,1,0,0,response5disk,5,101,-6.399939823,11.19999373,1,0,0,rectangle,-6.399939823,11.19999373,1,0,0,6,4,0,0.001255,-6.399939823,11.19999373,1,0,0,0,100,100,156,1,,,,,,,,,,,,,,,,,,,,,
,,,,,,,,,,,,,,,,,,,,,,,,,,,,,,,,,,,,,,,,,,5f271938dab22f02cdc90584,6036d85d669cbf9881d0fc13,2021-02-24_23h52.05.023,Colour_Similarity_Experiment,2020.2.10,Win32,60,6036d0d9a84aa1626184a6ef,17.21273663,16.67281553,16.70776081,16.68194444,16.66396815,16.68162224,,,,,,,,,,,,,,,,,,,,PF,weak,3,,,,,,,,2,1.63423,,,,,,,,,,,,,,,,,,,,,,,,,,,,6,weak,-90.39994107,-50.40000719,1,0,0,response5disk,8,102,-5.599988639,-9.60000658,1,0,0,rectangle,-5.599988639,-9.60000658,1,0,0,6,5,0,0.00116,-5.599988639,-9.60000658,1,0,0,0,101,101,64,1,,,,,,,,,,,,,,,,,,,,,
,,,,,,,,,,,,,,,,,,,,,,,,,,,,,,,,,,,,,,,,,,5f271938dab22f02cdc90584,6036d85d669cbf9881d0fc13,2021-02-24_23h52.05.023,Colour_Similarity_Experiment,2020.2.10,Win32,60,6036d0d9a84aa1626184a6ef,17.21273663,16.67281553,16.70776081,16.68194444,16.66396815,16.68162224,,,,,,,,,,,,,,,,,,,,PF,strong,3,,,,,,,,5,1.30077,,,,,,,,,,,,,,,,,,,,,,,,,,,,6,strong,79.20001262,-36.80000699,1,0,0,response3disk,1,103,-3.199988604,-9.60000658,1,0,0,rectangle,-3.199988604,-9.60000658,1,0,0,6,3,0,0.00131,-3.199988604,-9.60000658,1,0,0,0,102,102,5,1,,,,,,,,,,,,,,,,,,,,,
,,,,,,,,,,,,,,,,,,,,,,,,,,,,,,,,,,,,,,,,,,5f271938dab22f02cdc90584,6036d85d669cbf9881d0fc13,2021-02-24_23h52.05.023,Colour_Similarity_Experiment,2020.2.10,Win32,60,6036d0d9a84aa1626184a6ef,17.21273663,16.67281553,16.70776081,16.68194444,16.66396815,16.68162224,,,,,,,,,,,,,,,,,,,,PF,weak,3,,,,,,,,1,1.484215,,,,,,,,,,,,,,,,,,,,,,,,,,,,3,weak,-85.59998983,31.19996961,1,0,0,response7disk,5,104,-32.79998904,-6.4373E-06,1,0,0,rectangle,-32.79998904,-6.4373E-06,1,0,0,6,3,0,0.00015,-32.79998904,-6.4373E-06,1,0,0,0,103,103,66,1,,,,,,,,,,,,,,,,,,,,,
,,,,,,,,,,,,,,,,,,,,,,,,,,,,,,,,,,,,,,,,,,5f271938dab22f02cdc90584,6036d85d669cbf9881d0fc13,2021-02-24_23h52.05.023,Colour_Similarity_Experiment,2020.2.10,Win32,60,6036d0d9a84aa1626184a6ef,17.21273663,16.67281553,16.70776081,16.68194444,16.66396815,16.68162224,,,,,,,,,,,,,,,,,,,,PF,weak,3,,,,,,,,7,0.98408,,,,,,,,,,,,,,,,,,,,,,,,,,,,4,weak,63.20001239,93.59999496,1,0,0,response1disk,9,105,-17.59998882,-15.20000666,1,0,0,rectangle,-17.59998882,-15.20000666,1,0,0,6,1,0,0.001235,-17.59998882,-15.20000666,1,0,0,0,104,104,75,1,,,,,,,,,,,,,,,,,,,,,
,,,,,,,,,,,,,,,,,,,,,,,,,,,,,,,,,,,,,,,,,,5f271938dab22f02cdc90584,6036d85d669cbf9881d0fc13,2021-02-24_23h52.05.023,Colour_Similarity_Experiment,2020.2.10,Win32,60,6036d0d9a84aa1626184a6ef,17.21273663,16.67281553,16.70776081,16.68194444,16.66396815,16.68162224,,,,,,,,,,,,,,,,,,,,PF,strong,3,,,,,,,,2,1.433165,,,,,,,,,,,,,,,,,,,,,,,,,,,,3,strong,-78.3999409,-32.00000691,1,0,0,response5disk,4,106,1.14441E-05,-1.600006461,1,0,0,rectangle,1.14441E-05,-1.600006461,1,0,0,6,4,0,0.003195,1.14441E-05,-1.600006461,1,0,0,0,105,105,110,1,,,,,,,,,,,,,,,,,,,,,
,,,,,,,,,,,,,,,,,,,,,,,,,,,,,,,,,,,,,,,,,,5f271938dab22f02cdc90584,6036d85d669cbf9881d0fc13,2021-02-24_23h52.05.023,Colour_Similarity_Experiment,2020.2.10,Win32,60,6036d0d9a84aa1626184a6ef,17.21273663,16.67281553,16.70776081,16.68194444,16.66396815,16.68162224,,,,,,,,,,,,,,,,,,,,PF,strong,3,,,,,,,,7,0.949905,,,,,,,,,,,,,,,,,,,,,,,,,,,,3,strong,63.20001239,94.39999497,1,0,0,response1disk,1,107,-8.799988687,-3.200006485,1,0,0,rectangle,-8.799988687,-3.200006485,1,0,0,6,6,0,0.003025,-8.799988687,-3.200006485,1,0,0,0,106,106,125,1,,,,,,,,,,,,,,,,,,,,,
,,,,,,,,,,,,,,,,,,,,,,,,,,,,,,,,,,,,,,,,,,5f271938dab22f02cdc90584,6036d85d669cbf9881d0fc13,2021-02-24_23h52.05.023,Colour_Similarity_Experiment,2020.2.10,Win32,60,6036d0d9a84aa1626184a6ef,17.21273663,16.67281553,16.70776081,16.68194444,16.66396815,16.68162224,,,,,,,,,,,,,,,,,,,,PF,weak,3,,,,,,,,6,1.29989,,,,,,,,,,,,,,,,,,,,,,,,,,,,3,weak,56.00001228,30.39999402,1,0,0,response1disk,7,108,10.4000116,-6.4373E-06,1,0,0,rectangle,10.4000116,-6.4373E-06,1,0,0,6,6,0,0.0002,10.4000116,-6.4373E-06,1,0,0,0,107,107,41,1,,,,,,,,,,,,,,,,,,,,,
,,,,,,,,,,,,,,,,,,,,,,,,,,,,,,,,,,,,,,,,,,5f271938dab22f02cdc90584,6036d85d669cbf9881d0fc13,2021-02-24_23h52.05.023,Colour_Similarity_Experiment,2020.2.10,Win32,60,6036d0d9a84aa1626184a6ef,17.21273663,16.67281553,16.70776081,16.68194444,16.66396815,16.68162224,,,,,,,,,,,,,,,,,,,,PF,weak,3,,,,,,,,7,1.09992,,,,,,,,,,,,,,,,,,,,,,,,,,,,8,weak,73.60001254,95.99999499,1,0,0,response1disk,4,109,15.20001167,12.79999375,1,0,0,rectangle,15.20001167,12.79999375,1,0,0,6,5,0,0.00301,15.20001167,12.79999375,1,0,0,0,108,108,78,1,,,,,,,,,,,,,,,,,,,,,
,,,,,,,,,,,,,,,,,,,,,,,,,,,,,,,,,,,,,,,,,,5f271938dab22f02cdc90584,6036d85d669cbf9881d0fc13,2021-02-24_23h52.05.023,Colour_Similarity_Experiment,2020.2.10,Win32,60,6036d0d9a84aa1626184a6ef,17.21273663,16.67281553,16.70776081,16.68194444,16.66396815,16.68162224,,,,,,,,,,,,,,,,,,,,PF,strong,3,,,,,,,,1,1.333365,,,,,,,,,,,,,,,,,,,,,,,,,,,,5,strong,-95.99998999,37.59999412,1,0,0,response7disk,3,110,4.000011504,12.79999375,1,0,0,rectangle,4.000011504,12.79999375,1,0,0,6,1,0,0.00301,4.000011504,12.79999375,1,0,0,0,109,109,25,1,,,,,,,,,,,,,,,,,,,,,
,,,,,,,,,,,,,,,,,,,,,,,,,,,,,,,,,,,,,,,,,,5f271938dab22f02cdc90584,6036d85d669cbf9881d0fc13,2021-02-24_23h52.05.023,Colour_Similarity_Experiment,2020.2.10,Win32,60,6036d0d9a84aa1626184a6ef,17.21273663,16.67281553,16.70776081,16.68194444,16.66396815,16.68162224,,,,,,,,,,,,,,,,,,,,PF,weak,3,,,,,,,,6,1.299815,,,,,,,,,,,,,,,,,,,,,,,,,,,,9,weak,60.80001235,40.79999417,1,0,0,response1disk,7,111,17.60006053,16.79999381,1,0,0,rectangle,17.60006053,16.79999381,1,0,0,6,1,0,0.000165,17.60006053,16.79999381,1,0,0,0,110,110,121,1,,,,,,,,,,,,,,,,,,,,,
,,,,,,,,,,,,,,,,,,,,,,,,,,,,,,,,,,,,,,,,,,5f271938dab22f02cdc90584,6036d85d669cbf9881d0fc13,2021-02-24_23h52.05.023,Colour_Similarity_Experiment,2020.2.10,Win32,60,6036d0d9a84aa1626184a6ef,17.21273663,16.67281553,16.70776081,16.68194444,16.66396815,16.68162224,,,,,,,,,,,,,,,,,,,,PF,strong,3,,,,,,,,7,1.199845,,,,,,,,,,,,,,,,,,,,,,,,,,,,4,strong,32.00001192,80.79999477,1,0,0,response1disk,9,112,12.80001163,1.599993587,1,0,0,rectangle,12.80001163,1.599993587,1,0,0,6,4,0,0.00303,12.80001163,1.599993587,1,0,0,0,111,111,90,1,,,,,,,,,,,,,,,,,,,,,
,,,,,,,,,,,,,,,,,,,,,,,,,,,,,,,,,,,,,,,,,,5f271938dab22f02cdc90584,6036d85d669cbf9881d0fc13,2021-02-24_23h52.05.023,Colour_Similarity_Experiment,2020.2.10,Win32,60,6036d0d9a84aa1626184a6ef,17.21273663,16.67281553,16.70776081,16.68194444,16.66396815,16.68162224,,,,,,,,,,,,,,,,,,,,PF,weak,3,,,,,,,,7,0.94988,,,,,,,,,,,,,,,,,,,,,,,,,,,,4,weak,24.80001181,71.19997021,1,0,0,response1disk,1,113,16.00001168,10.39999372,1,0,0,rectangle,16.00001168,10.39999372,1,0,0,6,6,0,0.003325,16.00001168,10.39999372,1,0,0,0,112,112,115,1,,,,,,,,,,,,,,,,,,,,,
,,,,,,,,,,,,,,,,,,,,,,,,,,,,,,,,,,,,,,,,,,5f271938dab22f02cdc90584,6036d85d669cbf9881d0fc13,2021-02-24_23h52.05.023,Colour_Similarity_Experiment,2020.2.10,Win32,60,6036d0d9a84aa1626184a6ef,17.21273663,16.67281553,16.70776081,16.68194444,16.66396815,16.68162224,,,,,,,,,,,,,,,,,,,,PF,weak,3,,,,,,,,3,2.43305,,,,,,,,,,,,,,,,,,,,,,,,,,,,6,weak,-63.1999895,-88.80000776,1,0,0,response5disk,6,114,-2.399939764,-12.00000662,1,0,0,rectangle,-2.399939764,-12.00000662,1,0,0,6,3,0,0.003145,-2.399939764,-12.00000662,1,0,0,0,113,113,0,1,,,,,,,,,,,,,,,,,,,,,
,,,,,,,,,,,,,,,,,,,,,,,,,,,,,,,,,,,,,,,,,,5f271938dab22f02cdc90584,6036d85d669cbf9881d0fc13,2021-02-24_23h52.05.023,Colour_Similarity_Experiment,2020.2.10,Win32,60,6036d0d9a84aa1626184a6ef,17.21273663,16.67281553,16.70776081,16.68194444,16.66396815,16.68162224,,,,,,,,,,,,,,,,,,,,PF,strong,3,,,,,,,,5,2.000065,,,,,,,,,,,,,,,,,,,,,,,,,,,,8,strong,87.20001274,-42.40000707,1,0,0,response3disk,5,115,-4.799988627,12.79999375,1,0,0,rectangle,-4.799988627,12.79999375,1,0,0,6,0,0,0.00309,-4.799988627,12.79999375,1,0,0,0,114,114,152,1,,,,,,,,,,,,,,,,,,,,,
,,,,,,,,,,,,,,,,,,,,,,,,,,,,,,,,,,,,,,,,,,5f271938dab22f02cdc90584,6036d85d669cbf9881d0fc13,2021-02-24_23h52.05.023,Colour_Similarity_Experiment,2020.2.10,Win32,60,6036d0d9a84aa1626184a6ef,17.21273663,16.67281553,16.70776081,16.68194444,16.66396815,16.68162224,,,,,,,,,,,,,,,,,,,,PF,strong,3,,,,,,,,4,1.382705,,,,,,,,,,,,,,,,,,,,,,,,,,,,8,strong,26.40001184,-50.40000719,1,0,0,response3disk,6,116,-1.59998858,-1.600006461,1,0,0,rectangle,-1.59998858,-1.600006461,1,0,0,6,7,0,0.003045,-1.59998858,-1.600006461,1,0,0,0,115,115,37,1,,,,,,,,,,,,,,,,,,,,,
,,,,,,,,,,,,,,,,,,,,,,,,,,,,,,,,,,,,,,,,,,5f271938dab22f02cdc90584,6036d85d669cbf9881d0fc13,2021-02-24_23h52.05.023,Colour_Similarity_Experiment,2020.2.10,Win32,60,6036d0d9a84aa1626184a6ef,17.21273663,16.67281553,16.70776081,16.68194444,16.66396815,16.68162224,,,,,,,,,,,,,,,,,,,,PF,strong,3,,,,,,,,7,0.799945,,,,,,,,,,,,,,,,,,,,,,,,,,,,9,strong,38.40001202,106.3999951,1,0,0,response1disk,2,117,-12.79998875,1.599993587,1,0,0,rectangle,35.20001197,-74.40000755,1,0,0,4,4,1,1.53336,-11.19998872,-4.800006509,1,0,0,0,116,116,11,1,response3disk_3,rectangle,,,,,,,,,,,,,,,,,,,
,,,,,,,,,,,,,,,,,,,,,,,,,,,,,,,,,,,,,,,,,,5f271938dab22f02cdc90584,6036d85d669cbf9881d0fc13,2021-02-24_23h52.05.023,Colour_Similarity_Experiment,2020.2.10,Win32,60,6036d0d9a84aa1626184a6ef,17.21273663,16.67281553,16.70776081,16.68194444,16.66396815,16.68162224,,,,,,,,,,,,,,,,,,,,PF,weak,3,,,,,,,,4,1.76389,,,,,,,,,,,,,,,,,,,,,,,,,,,,1,weak,27.20001185,-95.20000786,1,0,0,response3disk,2,118,-6.399939823,-6.4373E-06,1,0,0,rectangle,-6.399939823,-6.4373E-06,1,0,0,4,4,0,0.00024,-6.399939823,-6.4373E-06,1,0,0,0,117,117,24,1,,,,,,,,,,,,,,,,,,,,,
,,,,,,,,,,,,,,,,,,,,,,,,,,,,,,,,,,,,,,,,,,5f271938dab22f02cdc90584,6036d85d669cbf9881d0fc13,2021-02-24_23h52.05.023,Colour_Similarity_Experiment,2020.2.10,Win32,60,6036d0d9a84aa1626184a6ef,17.21273663,16.67281553,16.70776081,16.68194444,16.66396815,16.68162224,,,,,,,,,,,,,,,,,,,,PF,weak,3,,,,,,,,0,1.05017,,,,,,,,,,,,,,,,,,,,,,,,,,,,1,weak,-29.599989,71.99999464,1,0,0,response7disk,1,119,-15.19998878,-3.200006485,1,0,0,rectangle,27.20001185,-78.40000761,1,0,0,4,4,1,1.366905,-2.399939764,-12.00000662,1,0,0,0,118,118,76,1,response3disk_3,rectangle,,,,,,,,,,,,,,,,,,,
,,,,,,,,,,,,,,,,,,,,,,,,,,,,,,,,,,,,,,,,,,5f271938dab22f02cdc90584,6036d85d669cbf9881d0fc13,2021-02-24_23h52.05.023,Colour_Similarity_Experiment,2020.2.10,Win32,60,6036d0d9a84aa1626184a6ef,17.21273663,16.67281553,16.70776081,16.68194444,16.66396815,16.68162224,,,,,,,,,,,,,,,,,,,,PF,strong,3,,,,,,,,6,1.300015,,,,,,,,,,,,,,,,,,,,,,,,,,,,8,strong,80.80001265,39.19996973,1,0,0,response1disk,9,120,1.600060296,4.799993634,1,0,0,rectangle,1.600060296,4.799993634,1,0,0,4,4,0,0.00026,1.600060296,4.799993634,1,0,0,0,119,119,105,1,,,,,,,,,,,,,,,,,,,,,
,,,,,,,,,,,,,,,,,,,,,,,,,,,,,,,,,,,,,,,,,,5f271938dab22f02cdc90584,6036d85d669cbf9881d0fc13,2021-02-24_23h52.05.023,Colour_Similarity_Experiment,2020.2.10,Win32,60,6036d0d9a84aa1626184a6ef,17.21273663,16.67281553,16.70776081,16.68194444,16.66396815,16.68162224,,,,,,,,,,,,,,,,,,,,PF,strong,3,,,,,,,,7,1.016815,,,,,,,,,,,,,,,,,,,,,,,,,,,,1,strong,20.80001175,104.7999951,1,0,0,response1disk,6,121,1.14441E-05,16.79999381,1,0,0,rectangle,1.14441E-05,16.79999381,1,0,0,4,6,0,0.0033,1.14441E-05,16.79999381,1,0,0,0,120,120,58,1,,,,,,,,,,,,,,,,,,,,,
,,,,,,,,,,,,,,,,,,,,,,,,,,,,,,,,,,,,,,,,,,5f271938dab22f02cdc90584,6036d85d669cbf9881d0fc13,2021-02-24_23h52.05.023,Colour_Similarity_Experiment,2020.2.10,Win32,60,6036d0d9a84aa1626184a6ef,17.21273663,16.67281553,16.70776081,16.68194444,16.66396815,16.68162224,,,,,,,,,,,,,,,,,,,,PF,weak,3,,,,,,,,7,1.616435,,,,,,,,,,,,,,,,,,,,,,,,,,,,5,weak,26.40001184,71.99999464,1,0,0,response1disk,8,122,12.80001163,7.19999367,1,0,0,rectangle,12.80001163,7.19999367,1,0,0,4,7,0,0.002945,12.80001163,7.19999367,1,0,0,0,121,121,149,1,,,,,,,,,,,,,,,,,,,,,
,,,,,,,,,,,,,,,,,,,,,,,,,,,,,,,,,,,,,,,,,,5f271938dab22f02cdc90584,6036d85d669cbf9881d0fc13,2021-02-24_23h52.05.023,Colour_Similarity_Experiment,2020.2.10,Win32,60,6036d0d9a84aa1626184a6ef,17.21273663,16.67281553,16.70776081,16.68194444,16.66396815,16.68162224,,,,,,,,,,,,,,,,,,,,PF,weak,3,,,,,,,,7,0.699915,,,,,,,,,,,,,,,,,,,,,,,,,,,,2,weak,24.80001181,62.39999449,1,0,0,response1disk,8,123,8.000011563,16.79999381,1,0,0,rectangle,8.000011563,16.79999381,1,0,0,4,0,0,0.003575,8.000011563,16.79999381,1,0,0,0,122,122,52,1,,,,,,,,,,,,,,,,,,,,,
,,,,,,,,,,,,,,,,,,,,,,,,,,,,,,,,,,,,,,,,,,5f271938dab22f02cdc90584,6036d85d669cbf9881d0fc13,2021-02-24_23h52.05.023,Colour_Similarity_Experiment,2020.2.10,Win32,60,6036d0d9a84aa1626184a6ef,17.21273663,16.67281553,16.70776081,16.68194444,16.66396815,16.68162224,,,,,,,,,,,,,,,,,,,,PF,strong,3,,,,,,,,6,0.933295,,,,,,,,,,,,,,,,,,,,,,,,,,,,8,strong,49.60006101,35.19996967,1,0,0,response1disk,3,124,13.60006047,6.399993658,1,0,0,rectangle,13.60006047,6.399993658,1,0,0,4,3,0,0.00312,13.60006047,6.399993658,1,0,0,0,123,123,154,1,,,,,,,,,,,,,,,,,,,,,
,,,,,,,,,,,,,,,,,,,,,,,,,,,,,,,,,,,,,,,,,,5f271938dab22f02cdc90584,6036d85d669cbf9881d0fc13,2021-02-24_23h52.05.023,Colour_Similarity_Experiment,2020.2.10,Win32,60,6036d0d9a84aa1626184a6ef,17.21273663,16.67281553,16.70776081,16.68194444,16.66396815,16.68162224,,,,,,,,,,,,,,,,,,,,PF,weak,3,,,,,,,,3,0.966815,,,,,,,,,,,,,,,,,,,,,,,,,,,,6,weak,-44.79998922,-64.00000739,1,0,0,response5disk,5,125,-23.99998891,-0.800006449,1,0,0,rectangle,-23.99998891,-0.800006449,1,0,0,4,2,0,0.003125,-23.99998891,-0.800006449,1,0,0,0,124,124,59,1,,,,,,,,,,,,,,,,,,,,,
,,,,,,,,,,,,,,,,,,,,,,,,,,,,,,,,,,,,,,,,,,5f271938dab22f02cdc90584,6036d85d669cbf9881d0fc13,2021-02-24_23h52.05.023,Colour_Similarity_Experiment,2020.2.10,Win32,60,6036d0d9a84aa1626184a6ef,17.21273663,16.67281553,16.70776081,16.68194444,16.66396815,16.68162224,,,,,,,,,,,,,,,,,,,,PF,weak,3,,,,,,,,7,1.349945,,,,,,,,,,,,,,,,,,,,,,,,,,,,9,weak,40.80001205,83.19997039,1,0,0,response1disk,5,126,16.00001168,-11.2000066,1,0,0,rectangle,16.00001168,-11.2000066,1,0,0,4,4,0,0.002935,16.00001168,-11.2000066,1,0,0,0,125,125,134,1,,,,,,,,,,,,,,,,,,,,,
,,,,,,,,,,,,,,,,,,,,,,,,,,,,,,,,,,,,,,,,,,5f271938dab22f02cdc90584,6036d85d669cbf9881d0fc13,2021-02-24_23h52.05.023,Colour_Similarity_Experiment,2020.2.10,Win32,60,6036d0d9a84aa1626184a6ef,17.21273663,16.67281553,16.70776081,16.68194444,16.66396815,16.68162224,,,,,,,,,,,,,,,,,,,,PF,weak,3,,,,,,,,6,1.216605,,,,,,,,,,,,,,,,,,,,,,,,,,,,5,weak,71.20001251,27.99999398,1,0,0,response1disk,9,127,15.20001167,-8.000006557,1,0,0,rectangle,79.20001262,43.99999422,1,0,0,6,6,1,1.59957,-0.799988568,-5.600006521,1,0,0,0,126,126,136,1,response1disk_3,rectangle,,,,,,,,,,,,,,,,,,,
,,,,,,,,,,,,,,,,,,,,,,,,,,,,,,,,,,,,,,,,,,5f271938dab22f02cdc90584,6036d85d669cbf9881d0fc13,2021-02-24_23h52.05.023,Colour_Similarity_Experiment,2020.2.10,Win32,60,6036d0d9a84aa1626184a6ef,17.21273663,16.67281553,16.70776081,16.68194444,16.66396815,16.68162224,,,,,,,,,,,,,,,,,,,,PF,strong,3,,,,,,,,7,1.130535,,,,,,,,,,,,,,,,,,,,,,,,,,,,2,strong,44.80001211,83.99999481,1,0,0,response1disk,9,128,16.00001168,0.799993575,1,0,0,rectangle,16.00001168,0.799993575,1,0,0,6,5,0,0.001065,16.00001168,0.799993575,1,0,0,0,127,127,72,1,,,,,,,,,,,,,,,,,,,,,
,,,,,,,,,,,,,,,,,,,,,,,,,,,,,,,,,,,,,,,,,,5f271938dab22f02cdc90584,6036d85d669cbf9881d0fc13,2021-02-24_23h52.05.023,Colour_Similarity_Experiment,2020.2.10,Win32,60,6036d0d9a84aa1626184a6ef,17.21273663,16.67281553,16.70776081,16.68194444,16.66396815,16.68162224,,,,,,,,,,,,,,,,,,,,PF,weak,3,,,,,,,,3,1.517615,,,,,,,,,,,,,,,,,,,,,,,,,,,,5,weak,-53.59998935,-81.60005648,1,0,0,response5disk,4,129,-24.79998893,-2.400006473,1,0,0,rectangle,-24.79998893,-2.400006473,1,0,0,6,0,0,0.001145,-24.79998893,-2.400006473,1,0,0,0,128,128,54,1,,,,,,,,,,,,,,,,,,,,,
,,,,,,,,,,,,,,,,,,,,,,,,,,,,,,,,,,,,,,,,,,5f271938dab22f02cdc90584,6036d85d669cbf9881d0fc13,2021-02-24_23h52.05.023,Colour_Similarity_Experiment,2020.2.10,Win32,60,6036d0d9a84aa1626184a6ef,17.21273663,16.67281553,16.70776081,16.68194444,16.66396815,16.68162224,,,,,,,,,,,,,,,,,,,,PF,strong,3,,,,,,,,4,1.451255,,,,,,,,,,,,,,,,,,,,,,,,,,,,2,strong,26.40001184,-68.00000745,1,0,0,response3disk,2,130,-0.799988568,-8.800006568,1,0,0,rectangle,-0.799988568,-8.800006568,1,0,0,6,3,0,0.001215,-0.799988568,-8.800006568,1,0,0,0,129,129,142,1,,,,,,,,,,,,,,,,,,,,,
,,,,,,,,,,,,,,,,,,,,,,,,,,,,,,,,,,,,,,,,,,5f271938dab22f02cdc90584,6036d85d669cbf9881d0fc13,2021-02-24_23h52.05.023,Colour_Similarity_Experiment,2020.2.10,Win32,60,6036d0d9a84aa1626184a6ef,17.21273663,16.67281553,16.70776081,16.68194444,16.66396815,16.68162224,,,,,,,,,,,,,,,,,,,,PF,weak,3,,,,,,,,7,0.964485,,,,,,,,,,,,,,,,,,,,,,,,,,,,1,weak,40.00001204,67.19997015,1,0,0,response1disk,5,131,5.600060356,-6.400006533,1,0,0,rectangle,5.600060356,-6.400006533,1,0,0,6,0,0,0.000805,5.600060356,-6.400006533,1,0,0,0,130,130,28,1,,,,,,,,,,,,,,,,,,,,,
,,,,,,,,,,,,,,,,,,,,,,,,,,,,,,,,,,,,,,,,,,5f271938dab22f02cdc90584,6036d85d669cbf9881d0fc13,2021-02-24_23h52.05.023,Colour_Similarity_Experiment,2020.2.10,Win32,60,6036d0d9a84aa1626184a6ef,17.21273663,16.67281553,16.70776081,16.68194444,16.66396815,16.68162224,,,,,,,,,,,,,,,,,,,,PF,strong,3,,,,,,,,6,1.650485,,,,,,,,,,,,,,,,,,,,,,,,,,,,6,strong,105.600013,38.39999413,1,0,0,response1disk,2,132,24.80001181,4.799993634,1,0,0,rectangle,24.80001181,4.799993634,1,0,0,6,3,0,0.002785,24.80001181,4.799993634,1,0,0,0,131,131,112,1,,,,,,,,,,,,,,,,,,,,,
,,,,,,,,,,,,,,,,,,,,,,,,,,,,,,,,,,,,,,,,,,5f271938dab22f02cdc90584,6036d85d669cbf9881d0fc13,2021-02-24_23h52.05.023,Colour_Similarity_Experiment,2020.2.10,Win32,60,6036d0d9a84aa1626184a6ef,17.21273663,16.67281553,16.70776081,16.68194444,16.66396815,16.68162224,,,,,,,,,,,,,,,,,,,,PF,weak,3,,,,,,,,3,1.51652,,,,,,,,,,,,,,,,,,,,,,,,,,,,1,weak,-41.59998918,-72.80000752,1,0,0,response5disk,9,133,-23.99998891,-4.800006509,1,0,0,rectangle,-23.99998891,-4.800006509,1,0,0,6,1,0,0.00301,-23.99998891,-4.800006509,1,0,0,0,132,132,15,1,,,,,,,,,,,,,,,,,,,,,
,,,,,,,,,,,,,,,,,,,,,,,,,,,,,,,,,,,,,,,,,,5f271938dab22f02cdc90584,6036d85d669cbf9881d0fc13,2021-02-24_23h52.05.023,Colour_Similarity_Experiment,2020.2.10,Win32,60,6036d0d9a84aa1626184a6ef,17.21273663,16.67281553,16.70776081,16.68194444,16.66396815,16.68162224,,,,,,,,,,,,,,,,,,,,PF,weak,3,,,,,,,,7,0.966715,,,,,,,,,,,,,,,,,,,,,,,,,,,,2,weak,47.20001215,75.9999947,1,0,0,response1disk,6,134,0.800011456,8.799993694,1,0,0,rectangle,0.800011456,8.799993694,1,0,0,6,0,0,0.003355,0.800011456,8.799993694,1,0,0,0,133,133,113,1,,,,,,,,,,,,,,,,,,,,,
,,,,,,,,,,,,,,,,,,,,,,,,,,,,,,,,,,,,,,,,,,5f271938dab22f02cdc90584,6036d85d669cbf9881d0fc13,2021-02-24_23h52.05.023,Colour_Similarity_Experiment,2020.2.10,Win32,60,6036d0d9a84aa1626184a6ef,17.21273663,16.67281553,16.70776081,16.68194444,16.66396815,16.68162224,,,,,,,,,,,,,,,,,,,,PF,weak,3,,,,,,,,3,1.21667,,,,,,,,,,,,,,,,,,,,,,,,,,,,5,weak,-56.7999894,-79.20000762,1,0,0,response5disk,7,135,-31.19998902,4.799993634,1,0,0,rectangle,-31.19998902,4.799993634,1,0,0,6,5,0,0.003455,-31.19998902,4.799993634,1,0,0,0,134,134,146,1,,,,,,,,,,,,,,,,,,,,,
,,,,,,,,,,,,,,,,,,,,,,,,,,,,,,,,,,,,,,,,,,5f271938dab22f02cdc90584,6036d85d669cbf9881d0fc13,2021-02-24_23h52.05.023,Colour_Similarity_Experiment,2020.2.10,Win32,60,6036d0d9a84aa1626184a6ef,17.21273663,16.67281553,16.70776081,16.68194444,16.66396815,16.68162224,,,,,,,,,,,,,,,,,,,,PF,strong,3,,,,,,,,5,8.401395,,,,,,,,,,,,,,,,,,,,,,,,,,,,7,strong,74.40001255,-49.60000718,1,0,0,response3disk,7,136,6.400011539,0.799993575,1,0,0,rectangle,6.400011539,0.799993575,1,0,0,6,5,0,0.00021,6.400011539,0.799993575,1,0,0,0,135,135,34,1,,,,,,,,,,,,,,,,,,,,,
,,,,,,,,,,,,,,,,,,,,,,,,,,,,,,,,,,,,,,,,,,5f271938dab22f02cdc90584,6036d85d669cbf9881d0fc13,2021-02-24_23h52.05.023,Colour_Similarity_Experiment,2020.2.10,Win32,60,6036d0d9a84aa1626184a6ef,17.21273663,16.67281553,16.70776081,16.68194444,16.66396815,16.68162224,,,,,,,,,,,,,,,,,,,,PF,weak,3,,,,,,,,7,0.79786,,,,,,,,,,,,,,,,,,,,,,,,,,,,1,weak,39.20001203,57.59999442,1,0,0,response1disk,3,137,4.000011504,-4.000006497,1,0,0,rectangle,4.000011504,-4.000006497,1,0,0,6,1,0,0.001125,4.000011504,-4.000006497,1,0,0,0,136,136,1,1,,,,,,,,,,,,,,,,,,,,,
,,,,,,,,,,,,,,,,,,,,,,,,,,,,,,,,,,,,,,,,,,5f271938dab22f02cdc90584,6036d85d669cbf9881d0fc13,2021-02-24_23h52.05.023,Colour_Similarity_Experiment,2020.2.10,Win32,60,6036d0d9a84aa1626184a6ef,17.21273663,16.67281553,16.70776081,16.68194444,16.66396815,16.68162224,,,,,,,,,,,,,,,,,,,,PF,weak,3,,,,,,,,7,0.99726,,,,,,,,,,,,,,,,,,,,,,,,,,,,4,weak,32.80001193,52.79999435,1,0,0,response1disk,4,138,-31.19998902,-3.200006485,1,0,0,rectangle,-31.19998902,-3.200006485,1,0,0,6,7,0,0.00094,-31.19998902,-3.200006485,1,0,0,0,137,137,70,1,,,,,,,,,,,,,,,,,,,,,
,,,,,,,,,,,,,,,,,,,,,,,,,,,,,,,,,,,,,,,,,,5f271938dab22f02cdc90584,6036d85d669cbf9881d0fc13,2021-02-24_23h52.05.023,Colour_Similarity_Experiment,2020.2.10,Win32,60,6036d0d9a84aa1626184a6ef,17.21273663,16.67281553,16.70776081,16.68194444,16.66396815,16.68162224,,,,,,,,,,,,,,,,,,,,PF,strong,3,,,,,,,,5,1.614105,,,,,,,,,,,,,,,,,,,,,,,,,,,,6,strong,112.8000131,-42.40000707,1,0,0,response3disk,6,139,-7.999988675,1.599993587,1,0,0,rectangle,-7.999988675,1.599993587,1,0,0,6,6,0,0.00082,-7.999988675,1.599993587,1,0,0,0,138,138,91,1,,,,,,,,,,,,,,,,,,,,,
,,,,,,,,,,,,,,,,,,,,,,,,,,,,,,,,,,,,,,,,,,5f271938dab22f02cdc90584,6036d85d669cbf9881d0fc13,2021-02-24_23h52.05.023,Colour_Similarity_Experiment,2020.2.10,Win32,60,6036d0d9a84aa1626184a6ef,17.21273663,16.67281553,16.70776081,16.68194444,16.66396815,16.68162224,,,,,,,,,,,,,,,,,,,,PF,weak,3,,,,,,,,7,1.09701,,,,,,,,,,,,,,,,,,,,,,,,,,,,1,weak,49.60006101,83.19997039,1,0,0,response1disk,7,140,11.20001161,1.599993587,1,0,0,rectangle,11.20001161,1.599993587,1,0,0,6,4,0,0.00084,11.20001161,1.599993587,1,0,0,0,139,139,150,1,,,,,,,,,,,,,,,,,,,,,
,,,,,,,,,,,,,,,,,,,,,,,,,,,,,,,,,,,,,,,,,,5f271938dab22f02cdc90584,6036d85d669cbf9881d0fc13,2021-02-24_23h52.05.023,Colour_Similarity_Experiment,2020.2.10,Win32,60,6036d0d9a84aa1626184a6ef,17.21273663,16.67281553,16.70776081,16.68194444,16.66396815,16.68162224,,,,,,,,,,,,,,,,,,,,PF,weak,3,,,,,,,,7,0.61478,,,,,,,,,,,,,,,,,,,,,,,,,,,,8,weak,48.00001216,65.59999454,1,0,0,response1disk,3,141,8.800011575,3.19999361,1,0,0,rectangle,8.800011575,3.19999361,1,0,0,6,5,0,0.001105,8.800011575,3.19999361,1,0,0,0,140,140,71,1,,,,,,,,,,,,,,,,,,,,,
,,,,,,,,,,,,,,,,,,,,,,,,,,,,,,,,,,,,,,,,,,5f271938dab22f02cdc90584,6036d85d669cbf9881d0fc13,2021-02-24_23h52.05.023,Colour_Similarity_Experiment,2020.2.10,Win32,60,6036d0d9a84aa1626184a6ef,17.21273663,16.67281553,16.70776081,16.68194444,16.66396815,16.68162224,,,,,,,,,,,,,,,,,,,,PF,weak,3,,,,,,,,6,1.147115,,,,,,,,,,,,,,,,,,,,,,,,,,,,7,weak,78.40001261,48.79999429,1,0,0,response1disk,4,142,20.00001174,9.599993706,1,0,0,rectangle,20.00001174,9.599993706,1,0,0,6,5,0,0.00023,20.00001174,9.599993706,1,0,0,0,141,141,43,1,,,,,,,,,,,,,,,,,,,,,
,,,,,,,,,,,,,,,,,,,,,,,,,,,,,,,,,,,,,,,,,,5f271938dab22f02cdc90584,6036d85d669cbf9881d0fc13,2021-02-24_23h52.05.023,Colour_Similarity_Experiment,2020.2.10,Win32,60,6036d0d9a84aa1626184a6ef,17.21273663,16.67281553,16.70776081,16.68194444,16.66396815,16.68162224,,,,,,,,,,,,,,,,,,,,PF,strong,3,,,,,,,,7,1.34779,,,,,,,,,,,,,,,,,,,,,,,,,,,,3,strong,56.00001228,59.19997003,1,0,0,response1disk,9,143,20.00001174,4.799993634,1,0,0,rectangle,20.00001174,4.799993634,1,0,0,6,2,0,0.001055,20.00001174,4.799993634,1,0,0,0,142,142,143,1,,,,,,,,,,,,,,,,,,,,,
,,,,,,,,,,,,,,,,,,,,,,,,,,,,,,,,,,,,,,,,,,5f271938dab22f02cdc90584,6036d85d669cbf9881d0fc13,2021-02-24_23h52.05.023,Colour_Similarity_Experiment,2020.2.10,Win32,60,6036d0d9a84aa1626184a6ef,17.21273663,16.67281553,16.70776081,16.68194444,16.66396815,16.68162224,,,,,,,,,,,,,,,,,,,,PF,weak,3,,,,,,,,6,0.79716,,,,,,,,,,,,,,,,,,,,,,,,,,,,3,weak,64.0000124,43.99999422,1,0,0,response1disk,2,144,36.80001199,-1.600006461,1,0,0,rectangle,29.60006071,90.39999491,1,0,0,7,7,1,1.61637,4.000011504,-2.400006473,1,0,0,0,143,143,36,1,response1disk_3,rectangle,,,,,,,,,,,,,,,,,,,
,,,,,,,,,,,,,,,,,,,,,,,,,,,,,,,,,,,,,,,,,,5f271938dab22f02cdc90584,6036d85d669cbf9881d0fc13,2021-02-24_23h52.05.023,Colour_Similarity_Experiment,2020.2.10,Win32,60,6036d0d9a84aa1626184a6ef,17.21273663,16.67281553,16.70776081,16.68194444,16.66396815,16.68162224,,,,,,,,,,,,,,,,,,,,PF,strong,3,,,,,,,,2,1.813735,,,,,,,,,,,,,,,,,,,,,,,,,,,,5,strong,-83.99998981,-62.40000737,1,0,0,response5disk,5,145,-31.99998903,-11.2000066,1,0,0,rectangle,-31.99998903,-11.2000066,1,0,0,7,2,0,0.001415,-31.99998903,-11.2000066,1,0,0,0,144,144,19,1,,,,,,,,,,,,,,,,,,,,,
,,,,,,,,,,,,,,,,,,,,,,,,,,,,,,,,,,,,,,,,,,5f271938dab22f02cdc90584,6036d85d669cbf9881d0fc13,2021-02-24_23h52.05.023,Colour_Similarity_Experiment,2020.2.10,Win32,60,6036d0d9a84aa1626184a6ef,17.21273663,16.67281553,16.70776081,16.68194444,16.66396815,16.68162224,,,,,,,,,,,,,,,,,,,,PF,weak,3,,,,,,,,7,0.69753,,,,,,,,,,,,,,,,,,,,,,,,,,,,2,weak,55.20001227,71.99999464,1,0,0,response1disk,9,146,-4.799988627,-4.800006509,1,0,0,rectangle,-4.799988627,-4.800006509,1,0,0,7,6,0,0.00087,-4.799988627,-4.800006509,1,0,0,0,145,145,39,1,,,,,,,,,,,,,,,,,,,,,
,,,,,,,,,,,,,,,,,,,,,,,,,,,,,,,,,,,,,,,,,,5f271938dab22f02cdc90584,6036d85d669cbf9881d0fc13,2021-02-24_23h52.05.023,Colour_Similarity_Experiment,2020.2.10,Win32,60,6036d0d9a84aa1626184a6ef,17.21273663,16.67281553,16.70776081,16.68194444,16.66396815,16.68162224,,,,,,,,,,,,,,,,,,,,PF,strong,3,,,,,,,,6,0.898335,,,,,,,,,,,,,,,,,,,,,,,,,,,,7,strong,66.40001243,31.99999404,1,0,0,response1disk,2,147,8.800011575,3.999993622,1,0,0,rectangle,8.800011575,3.999993622,1,0,0,7,3,0,0.0012,8.800011575,3.999993622,1,0,0,0,146,146,138,1,,,,,,,,,,,,,,,,,,,,,
,,,,,,,,,,,,,,,,,,,,,,,,,,,,,,,,,,,,,,,,,,5f271938dab22f02cdc90584,6036d85d669cbf9881d0fc13,2021-02-24_23h52.05.023,Colour_Similarity_Experiment,2020.2.10,Win32,60,6036d0d9a84aa1626184a6ef,17.21273663,16.67281553,16.70776081,16.68194444,16.66396815,16.68162224,,,,,,,,,,,,,,,,,,,,PF,strong,3,,,,,,,,6,2.31759,,,,,,,,,,,,,,,,,,,,,,,,,,,,9,strong,64.80001241,40.79999417,1,0,0,response1disk,3,148,8.000011563,7.999993682,1,0,0,rectangle,8.000011563,7.999993682,1,0,0,7,5,0,0.000845,8.000011563,7.999993682,1,0,0,0,147,147,141,1,,,,,,,,,,,,,,,,,,,,,
,,,,,,,,,,,,,,,,,,,,,,,,,,,,,,,,,,,,,,,,,,5f271938dab22f02cdc90584,6036d85d669cbf9881d0fc13,2021-02-24_23h52.05.023,Colour_Similarity_Experiment,2020.2.10,Win32,60,6036d0d9a84aa1626184a6ef,17.21273663,16.67281553,16.70776081,16.68194444,16.66396815,16.68162224,,,,,,,,,,,,,,,,,,,,PF,weak,3,,,,,,,,7,0.93415,,,,,,,,,,,,,,,,,,,,,,,,,,,,6,weak,48.80001217,79.19997033,1,0,0,response1disk,1,149,16.00001168,8.799993694,1,0,0,rectangle,16.00001168,8.799993694,1,0,0,7,1,0,0.00116,16.00001168,8.799993694,1,0,0,0,148,148,46,1,,,,,,,,,,,,,,,,,,,,,
,,,,,,,,,,,,,,,,,,,,,,,,,,,,,,,,,,,,,,,,,,5f271938dab22f02cdc90584,6036d85d669cbf9881d0fc13,2021-02-24_23h52.05.023,Colour_Similarity_Experiment,2020.2.10,Win32,60,6036d0d9a84aa1626184a6ef,17.21273663,16.67281553,16.70776081,16.68194444,16.66396815,16.68162224,,,,,,,,,,,,,,,,,,,,PF,strong,3,,,,,,,,5,0.85011,,,,,,,,,,,,,,,,,,,,,,,,,,,,1,strong,68.00001246,-39.20000702,1,0,0,response3disk,2,150,-2.399939764,7.999993682,1,0,0,rectangle,-2.399939764,7.999993682,1,0,0,7,2,0,0.001235,-2.399939764,7.999993682,1,0,0,0,149,149,2,1,,,,,,,,,,,,,,,,,,,,,
,,,,,,,,,,,,,,,,,,,,,,,,,,,,,,,,,,,,,,,,,,5f271938dab22f02cdc90584,6036d85d669cbf9881d0fc13,2021-02-24_23h52.05.023,Colour_Similarity_Experiment,2020.2.10,Win32,60,6036d0d9a84aa1626184a6ef,17.21273663,16.67281553,16.70776081,16.68194444,16.66396815,16.68162224,,,,,,,,,,,,,,,,,,,,PF,weak,3,,,,,,,,4,0.880935,,,,,,,,,,,,,,,,,,,,,,,,,,,,2,weak,41.60006089,-57.6000073,1,0,0,response3disk,7,151,6.400011539,-6.400006533,1,0,0,rectangle,6.400011539,-6.400006533,1,0,0,7,4,0,0.001205,6.400011539,-6.400006533,1,0,0,0,150,150,107,1,,,,,,,,,,,,,,,,,,,,,
,,,,,,,,,,,,,,,,,,,,,,,,,,,,,,,,,,,,,,,,,,5f271938dab22f02cdc90584,6036d85d669cbf9881d0fc13,2021-02-24_23h52.05.023,Colour_Similarity_Experiment,2020.2.10,Win32,60,6036d0d9a84aa1626184a6ef,17.21273663,16.67281553,16.70776081,16.68194444,16.66396815,16.68162224,,,,,,,,,,,,,,,,,,,,PF,weak,3,,,,,,,,7,0.90071,,,,,,,,,,,,,,,,,,,,,,,,,,,,9,weak,57.6000123,99.19997063,1,0,0,response1disk,3,152,12.80001163,-6.4373E-06,1,0,0,rectangle,12.80001163,-6.4373E-06,1,0,0,7,7,0,0.00127,12.80001163,-6.4373E-06,1,0,0,0,151,151,119,1,,,,,,,,,,,,,,,,,,,,,
,,,,,,,,,,,,,,,,,,,,,,,,,,,,,,,,,,,,,,,,,,5f271938dab22f02cdc90584,6036d85d669cbf9881d0fc13,2021-02-24_23h52.05.023,Colour_Similarity_Experiment,2020.2.10,Win32,60,6036d0d9a84aa1626184a6ef,17.21273663,16.67281553,16.70776081,16.68194444,16.66396815,16.68162224,,,,,,,,,,,,,,,,,,,,PF,strong,3,,,,,,,,3,1.93456,,,,,,,,,,,,,,,,,,,,,,,,,,,,6,strong,-34.39994024,-73.60000753,1,0,0,response5disk,3,153,-1.59998858,-6.400006533,1,0,0,rectangle,-1.59998858,-6.400006533,1,0,0,7,5,0,0.000795,-1.59998858,-6.400006533,1,0,0,0,152,152,21,1,,,,,,,,,,,,,,,,,,,,,
,,,,,,,,,,,,,,,,,,,,,,,,,,,,,,,,,,,,,,,,,,5f271938dab22f02cdc90584,6036d85d669cbf9881d0fc13,2021-02-24_23h52.05.023,Colour_Similarity_Experiment,2020.2.10,Win32,60,6036d0d9a84aa1626184a6ef,17.21273663,16.67281553,16.70776081,16.68194444,16.66396815,16.68162224,,,,,,,,,,,,,,,,,,,,PF,strong,3,,,,,,,,6,0.86658,,,,,,,,,,,,,,,,,,,,,,,,,,,,9,strong,65.60001242,37.59999412,1,0,0,response1disk,8,154,8.800011575,-8.000006557,1,0,0,rectangle,8.800011575,-8.000006557,1,0,0,7,7,0,0.001195,8.800011575,-8.000006557,1,0,0,0,153,153,6,1,,,,,,,,,,,,,,,,,,,,,
,,,,,,,,,,,,,,,,,,,,,,,,,,,,,,,,,,,,,,,,,,5f271938dab22f02cdc90584,6036d85d669cbf9881d0fc13,2021-02-24_23h52.05.023,Colour_Similarity_Experiment,2020.2.10,Win32,60,6036d0d9a84aa1626184a6ef,17.21273663,16.67281553,16.70776081,16.68194444,16.66396815,16.68162224,,,,,,,,,,,,,,,,,,,,PF,strong,3,,,,,,,,6,0.81648,,,,,,,,,,,,,,,,,,,,,,,,,,,,5,strong,83.20001268,43.19996979,1,0,0,response1disk,1,155,12.00001162,-3.200006485,1,0,0,rectangle,12.00001162,-3.200006485,1,0,0,7,4,0,0.000895,12.00001162,-3.200006485,1,0,0,0,154,154,131,1,,,,,,,,,,,,,,,,,,,,,
,,,,,,,,,,,,,,,,,,,,,,,,,,,,,,,,,,,,,,,,,,5f271938dab22f02cdc90584,6036d85d669cbf9881d0fc13,2021-02-24_23h52.05.023,Colour_Similarity_Experiment,2020.2.10,Win32,60,6036d0d9a84aa1626184a6ef,17.21273663,16.67281553,16.70776081,16.68194444,16.66396815,16.68162224,,,,,,,,,,,,,,,,,,,,PF,strong,3,,,,,,,,7,0.964125,,,,,,,,,,,,,,,,,,,,,,,,,,,,5,strong,35.20001197,57.59999442,1,0,0,response1disk,8,156,4.000011504,-6.400006533,1,0,0,rectangle,4.000011504,-6.400006533,1,0,0,7,0,0,0.00072,4.000011504,-6.400006533,1,0,0,0,155,155,16,1,,,,,,,,,,,,,,,,,,,,,
,,,,,,,,,,,,,,,,,,,,,,,,,,,,,,,,,,,,,,,,,,5f271938dab22f02cdc90584,6036d85d669cbf9881d0fc13,2021-02-24_23h52.05.023,Colour_Similarity_Experiment,2020.2.10,Win32,60,6036d0d9a84aa1626184a6ef,17.21273663,16.67281553,16.70776081,16.68194444,16.66396815,16.68162224,,,,,,,,,,,,,,,,,,,,PF,strong,3,,,,,,,,5,1.51415,,,,,,,,,,,,,,,,,,,,,,,,,,,,4,strong,73.60001254,-67.20000744,1,0,0,response3disk,4,157,10.4000116,-7.200006545,1,0,0,rectangle,10.4000116,-7.200006545,1,0,0,7,2,0,0.0011,10.4000116,-7.200006545,1,0,0,0,156,156,84,1,,,,,,,,,,,,,,,,,,,,,
,,,,,,,,,,,,,,,,,,,,,,,,,,,,,,,,,,,,,,,,,,5f271938dab22f02cdc90584,6036d85d669cbf9881d0fc13,2021-02-24_23h52.05.023,Colour_Similarity_Experiment,2020.2.10,Win32,60,6036d0d9a84aa1626184a6ef,17.21273663,16.67281553,16.70776081,16.68194444,16.66396815,16.68162224,,,,,,,,,,,,,,,,,,,,PF,strong,3,,,,,,,,3,4.99722,,,,,,,,,,,,,,,,,,,,,,,,,,,,8,strong,-63.1999895,-79.20000762,1,0,0,response5disk,4,158,-7.199988663,-1.600006461,1,0,0,rectangle,-7.199988663,-1.600006461,1,0,0,7,3,0,0.001095,-7.199988663,-1.600006461,1,0,0,0,157,157,88,1,,,,,,,,,,,,,,,,,,,,,
,,,,,,,,,,,,,,,,,,,,,,,,,,,,,,,,,,,,,,,,,,5f271938dab22f02cdc90584,6036d85d669cbf9881d0fc13,2021-02-24_23h52.05.023,Colour_Similarity_Experiment,2020.2.10,Win32,60,6036d0d9a84aa1626184a6ef,17.21273663,16.67281553,16.70776081,16.68194444,16.66396815,16.68162224,,,,,,,,,,,,,,,,,,,,PF,strong,3,,,,,,,,6,1.41678,,,,,,,,,,,,,,,,,,,,,,,,,,,,4,strong,72.80001253,43.99999422,1,0,0,response1disk,8,159,-3.999988616,-14.40000665,1,0,0,rectangle,-3.999988616,-14.40000665,1,0,0,7,6,0,0.00347,-3.999988616,-14.40000665,1,0,0,0,158,158,35,1,,,,,,,,,,,,,,,,,,,,,
,,,,,,,,,,,,,,,,,,,,,,,,,,,,,,,,,,,,,,,,,,5f271938dab22f02cdc90584,6036d85d669cbf9881d0fc13,2021-02-24_23h52.05.023,Colour_Similarity_Experiment,2020.2.10,Win32,60,6036d0d9a84aa1626184a6ef,17.21273663,16.67281553,16.70776081,16.68194444,16.66396815,16.68162224,,,,,,,,,,,,,,,,,,,,PF,strong,3,,,,,,,,6,2.13321,,,,,,,,,,,,,,,,,,,,,,,,,,,,7,strong,61.60001236,32.79999405,1,0,0,response1disk,1,160,-0.799988568,2.399993598,1,0,0,rectangle,-0.799988568,2.399993598,1,0,0,7,4,0,0.00367,-0.799988568,2.399993598,1,0,0,0,159,159,132,1,,,,,,,,,,,,,,,,,,,,,
,,,,,,,,,,,,,,,,,,,,,,,,,,,,,,,,,,,,,,,,,,5f271938dab22f02cdc90584,6036d85d669cbf9881d0fc13,2021-02-24_23h52.05.023,Colour_Similarity_Experiment,2020.2.10,Win32,60,6036d0d9a84aa1626184a6ef,17.21273663,16.67281553,16.70776081,16.68194444,16.66396815,16.68162224,,,,,,,,,,,,,,,,,,,,PF,strong,3,,,,,,,,5,76.09298,,,,,,,,,,,,,,,,,,,,,,,,,,,,2,strong,97.6000129,-35.20000696,1,0,0,response3disk,4,161,25.60006065,11.99999374,1,0,0,rectangle,25.60006065,11.99999374,1,0,0,7,7,0,0.003115,25.60006065,11.99999374,1,0,0,0,160,160,145,1,,,,,,,,,,,,,,,,,,,,,
,,,,,,,,,,,,,,,,,,,,,,,,,,,,,,,,,,,,,,,,,,5f271938dab22f02cdc90584,6036d85d669cbf9881d0fc13,2021-02-24_23h52.05.023,Colour_Similarity_Experiment,2020.2.10,Win32,60,6036d0d9a84aa1626184a6ef,17.21273663,16.67281553,16.70776081,16.68194444,16.66396815,16.68162224,,,,,,,,,,,,,,,,,,,,PF,strong,3,,,,,,,,6,0.867075,,,,,,,,,,,,,,,,,,,,,,,,,,,,4,strong,104.000013,70.39999461,1,0,0,response1disk,7,162,32.00001192,3.999993622,1,0,0,rectangle,32.00001192,3.999993622,1,0,0,7,4,0,0.00129,32.00001192,3.999993622,1,0,0,0,161,161,87,1,,,,,,,,,,,,,,,,,,,,,
,,,,,,,,,,,,,,,,,,,,,,,,,,,,,,,,,,,,,,,,,,5f271938dab22f02cdc90584,6036d85d669cbf9881d0fc13,2021-02-24_23h52.05.023,Colour_Similarity_Experiment,2020.2.10,Win32,60,6036d0d9a84aa1626184a6ef,17.21273663,16.67281553,16.70776081,16.68194444,16.66396815,16.68162224,,,,,,,,,,,,,,,,,,,,,,,,,,,,,,,,,,,,,,,,,,,,,,,,,,,,,,,,,,,,,,,,,,,,,,,,,,,,,,,,,,,,,,,,,,,,,,,,0,0,0,0,1,,,,,,,,,,,,,,
,,,,,,,,,,,,,,,,,,,,,,,,,,,,,,,,,,,,,,,,,,5f271938dab22f02cdc90584,6036d85d669cbf9881d0fc13,2021-02-24_23h52.05.023,Colour_Similarity_Experiment,2020.2.10,Win32,60,6036d0d9a84aa1626184a6ef,17.21273663,16.67281553,16.70776081,16.68194444,16.66396815,16.68162224,,,,,,,,,,,,,,,,,,,,PF,strong,3,,,,,,,,7,1.166585,,,,,,,,,,,,,,,,,,,,,,,,,,,,2,strong,40.80001205,77.59999472,1,0,0,response1disk,5,163,-3.199988604,-4.800006509,1,0,0,rectangle,-3.199988604,-4.800006509,1,0,0,7,1,0,0.002715,-3.199988604,-4.800006509,1,0,0,0,0,0,80,1,,,,,,,,,,,,,,,,,,,,,
,,,,,,,,,,,,,,,,,,,,,,,,,,,,,,,,,,,,,,,,,,5f271938dab22f02cdc90584,6036d85d669cbf9881d0fc13,2021-02-24_23h52.05.023,Colour_Similarity_Experiment,2020.2.10,Win32,60,6036d0d9a84aa1626184a6ef,17.21273663,16.67281553,16.70776081,16.68194444,16.66396815,16.68162224,,,,,,,,,,,,,,,,,,,,PF,weak,3,,,,,,,,1,1.283115,,,,,,,,,,,,,,,,,,,,,,,,,,,,3,weak,-72.79998964,44.79999423,1,0,0,response7disk,3,164,-9.599988699,-13.60000664,1,0,0,rectangle,-9.599988699,-13.60000664,1,0,0,7,7,0,0.0031,-9.599988699,-13.60000664,1,0,0,0,1,1,4,1,,,,,,,,,,,,,,,,,,,,,
,,,,,,,,,,,,,,,,,,,,,,,,,,,,,,,,,,,,,,,,,,5f271938dab22f02cdc90584,6036d85d669cbf9881d0fc13,2021-02-24_23h52.05.023,Colour_Similarity_Experiment,2020.2.10,Win32,60,6036d0d9a84aa1626184a6ef,17.21273663,16.67281553,16.70776081,16.68194444,16.66396815,16.68162224,,,,,,,,,,,,,,,,,,,,PF,weak,3,,,,,,,,7,0.999965,,,,,,,,,,,,,,,,,,,,,,,,,,,,6,weak,44.80001211,78.39999473,1,0,0,response1disk,2,165,15.20001167,7.19999367,1,0,0,rectangle,15.20001167,7.19999367,1,0,0,7,0,0,0.003205,15.20001167,7.19999367,1,0,0,0,2,2,130,1,,,,,,,,,,,,,,,,,,,,,
,,,,,,,,,,,,,,,,,,,,,,,,,,,,,,,,,,,,,,,,,,5f271938dab22f02cdc90584,6036d85d669cbf9881d0fc13,2021-02-24_23h52.05.023,Colour_Similarity_Experiment,2020.2.10,Win32,60,6036d0d9a84aa1626184a6ef,17.21273663,16.67281553,16.70776081,16.68194444,16.66396815,16.68162224,,,,,,,,,,,,,,,,,,,,PF,strong,3,,,,,,,,6,0.90015,,,,,,,,,,,,,,,,,,,,,,,,,,,,5,strong,84.0000127,52.79999435,1,0,0,response1disk,9,166,22.40001178,13.59999377,1,0,0,rectangle,22.40001178,13.59999377,1,0,0,7,0,0,0.00022,22.40001178,13.59999377,1,0,0,0,3,3,61,1,,,,,,,,,,,,,,,,,,,,,
