key_resp.keys,key_resp.rt,key_resp_16.keys,key_resp_16.rt,key_resp_2.keys,key_resp_2.rt,X Scale,ratio_pxpermm,screen_size_x,screen_size_y,testsize,key_resp_3.keys,key_resp_4.keys,key_resp_4.rt,line_size,key_resp_5.keys,key_resp_5.rt,key_resp_6.keys,key_resp_6.rt,key_resp_8.keys,key_resp_8.rt,key_resp_7.keys,key_resp_7.rt,key_resp_12.keys,key_resp_12.rt,key_resp_11.keys,key_resp_11.rt,key_resp_18.keys,key_resp_18.rt,key_resp_21.keys,key_resp_21.rt,key_resp_13.keys,key_resp_13.rt,key_resp_19.keys,key_resp_19.rt,ballposx,viewer_distance,trials.thisRepN,trials.thisTrialN,trials.thisN,trials.thisIndex,trials.ran,participant,session,date,expName,psychopyVersion,OS,frameRate,study_id,realFrameRate1,realFrameRate2,realFrameRate3,realFrameRate4,realFrameRate5,realFrameRate,viewerdistancecm,DVA_to_distance,radius_F,radius_P,r_F,R_P,key_resp_20.keys,key_resp_20.rt,key_resp_14.keys,key_resp_14.rt,key_resp_15.keys,key_resp_15.rt,key_resp_17.keys,key_resp_17.rt,key_resp_9.keys,key_resp_9.rt,key_resp_10.keys,key_resp_10.rt,Colour_1,Ecc,maskCon,mask_frames,mouse_5.x,mouse_5.y,mouse_5.leftButton,mouse_5.midButton,mouse_5.rightButton,mouse_5.clicked_name,Colour_2,similarity,response_time,mouse_10.x,mouse_10.y,mouse_10.leftButton,mouse_10.midButton,mouse_10.rightButton,mouse_10.clicked_name,mouse_7.x,mouse_7.y,mouse_7.leftButton,mouse_7.midButton,mouse_7.rightButton,catchnumberprac,mouse_6.x,mouse_6.y,mouse_6.leftButton,mouse_6.midButton,mouse_6.rightButton,duringprac.thisRepN,duringprac.thisTrialN,duringprac.thisN,duringprac.thisIndex,duringprac.ran,mouse_7.clicked_name,catchprac,mouse_6.clicked_name,key_resp_22.keys,key_resp_22.rt,Colour1,maskCon1,mouse.x,mouse.y,mouse.leftButton,mouse.midButton,mouse.rightButton,mouse.clicked_name,Colour2,trialnumber,mouse_2.x,mouse_2.y,mouse_2.leftButton,mouse_2.midButton,mouse_2.rightButton,mouse_2.clicked_name,mouse_3.x,mouse_3.y,mouse_3.leftButton,mouse_3.midButton,mouse_3.rightButton,catchresponse,catchnumber,Catch,response_time_catch,mouse_11.x,mouse_11.y,mouse_11.leftButton,mouse_11.midButton,mouse_11.rightButton,trials_2.thisRepN,trials_2.thisTrialN,trials_2.thisN,trials_2.thisIndex,trials_2.ran,mouse_3.clicked_name,mouse_11.clicked_name,trials_3.thisRepN,trials_3.thisTrialN,trials_3.thisN,trials_3.thisIndex,trials_3.ran,answer1,rt1,answer2,rt2,answer3,rt3,answer4,rt4,answer5,rt5,answer6,rt6,answer7,rt7
space,10.052265,space,4.22621,space,15.556585,44.8,4.48,285.7142857,178.5714286,1280,,space,32.318745,89.6,space,13.23729,space,5.234195,space,7.53633,space,4.3348,space,10.271425,space,7.85519,space,9.304555,space,4.85242,space,20.67616,return,9.73307,-643.2,1074.052696,0,0,0,0,1,5f285902166da3151b01faf2,6036dbc2036206fd5ef973ec,2021-02-24_23h07.58.677,Colour_Similarity_Experiment,2020.2.10,MacIntel,60,6036d0d9a84aa1626184a6ef,16.94376578,16.73643137,16.67106161,16.68068557,16.67904918,16.69180693,,,,,,,,,,,,,,,,,,,,,,,,,,,,,,,,,,,,,,,,,,,,,,,,,,,,,,,,,,,,,,,,,,,,,,,,,,,,,,,,,,,,,,,,,,,,,,,,,,,,,,,,,,,,,,,,,,
,,,,,,,,,,,,,,,,,,,,,,,,,,,,,,,,,return,9.912475,-662.4,1091.903988,1,0,1,0,1,5f285902166da3151b01faf2,6036dbc2036206fd5ef973ec,2021-02-24_23h07.58.677,Colour_Similarity_Experiment,2020.2.10,MacIntel,60,6036d0d9a84aa1626184a6ef,16.94376578,16.73643137,16.67106161,16.68068557,16.67904918,16.69180693,,,,,,,,,,,,,,,,,,,,,,,,,,,,,,,,,,,,,,,,,,,,,,,,,,,,,,,,,,,,,,,,,,,,,,,,,,,,,,,,,,,,,,,,,,,,,,,,,,,,,,,,,,,,,,,,,,
,,,,,,,,,,,,,,,,,,,,,,,,,,,,,,,,,return,9.74829,-645.12,1075.837826,2,0,2,0,1,5f285902166da3151b01faf2,6036dbc2036206fd5ef973ec,2021-02-24_23h07.58.677,Colour_Similarity_Experiment,2020.2.10,MacIntel,60,6036d0d9a84aa1626184a6ef,16.94376578,16.73643137,16.67106161,16.68068557,16.67904918,16.69180693,,,,,,,,,,,,,,,,,,,,,,,,,,,,,,,,,,,,,,,,,,,,,,,,,,,,,,,,,,,,,,,,,,,,,,,,,,,,,,,,,,,,,,,,,,,,,,,,,,,,,,,,,,,,,,,,,,
,,,,,,,,,,,,,,,,,,,,,,,,,,,,,,,,,return,10.005035,-673.92,1102.614763,3,0,3,0,1,5f285902166da3151b01faf2,6036dbc2036206fd5ef973ec,2021-02-24_23h07.58.677,Colour_Similarity_Experiment,2020.2.10,MacIntel,60,6036d0d9a84aa1626184a6ef,16.94376578,16.73643137,16.67106161,16.68068557,16.67904918,16.69180693,,,,,,,,,,,,,,,,,,,,,,,,,,,,,,,,,,,,,,,,,,,,,,,,,,,,,,,,,,,,,,,,,,,,,,,,,,,,,,,,,,,,,,,,,,,,,,,,,,,,,,,,,,,,,,,,,,
,,,,,,,,,,,,,,,,,,,,,,,,,,,,,,,,,return,9.72154,-641.28,1072.267567,4,0,4,0,1,5f285902166da3151b01faf2,6036dbc2036206fd5ef973ec,2021-02-24_23h07.58.677,Colour_Similarity_Experiment,2020.2.10,MacIntel,60,6036d0d9a84aa1626184a6ef,16.94376578,16.73643137,16.67106161,16.68068557,16.67904918,16.69180693,,,,,,,,,,,,,,,,,,,,,,,,,,,,,,,,,,,,,,,,,,,,,,,,,,,,,,,,,,,,,,,,,,,,,,,,,,,,,,,,,,,,,,,,,,,,,,,,,,,,,,,,,,,,,,,,,,
,,,,,,,,,,,,,,,,,,,,,,,,,,,,,,,,,,,,,,,,,,5f285902166da3151b01faf2,6036dbc2036206fd5ef973ec,2021-02-24_23h07.58.677,Colour_Similarity_Experiment,2020.2.10,MacIntel,60,6036d0d9a84aa1626184a6ef,16.94376578,16.73643137,16.67106161,16.68068557,16.67904918,16.69180693,108,18.85146338,126.6818339,844.5455594,84.45455594,380.0455018,space,5.098835,space,30.4098,space,105.485205,space,33.473225,space,14.77261,space,21.727175,6,PF,weak,3,-29.54174805,46.81350708,1,0,0,response7disk_5,6,0,28.697795,0.939453125,3.212799072,1,0,0,rectangle_8,0.939453125,3.212799072,1,0,0,5,0.939453125,3.212799072,1,0,0,0,0,0,6,1,,,,,,,,,,,,,,,,,,,,,,,,,,,,,,,,,,,,,,,,,,,,,,,,,,,,,,,,,,,,,
,,,,,,,,,,,,,,,,,,,,,,,,,,,,,,,,,,,,,,,,,,5f285902166da3151b01faf2,6036dbc2036206fd5ef973ec,2021-02-24_23h07.58.677,Colour_Similarity_Experiment,2020.2.10,MacIntel,60,6036d0d9a84aa1626184a6ef,16.94376578,16.73643137,16.67106161,16.68068557,16.67904918,16.69180693,,,,,,,,,,,,,,,,,,,3,PF,weak,3,-32.43988037,-66.35870361,1,0,0,response5disk_5,9,3,43.771105,0.752075195,7.242614746,1,0,0,rectangle_8,0.752075195,7.242614746,1,0,0,5,0.752075195,7.242614746,1,0,0,0,1,1,5,1,,,,,,,,,,,,,,,,,,,,,,,,,,,,,,,,,,,,,,,,,,,,,,,,,,,,,,,,,,,,,
,,,,,,,,,,,,,,,,,,,,,,,,,,,,,,,,,,,,,,,,,,5f285902166da3151b01faf2,6036dbc2036206fd5ef973ec,2021-02-24_23h07.58.677,Colour_Similarity_Experiment,2020.2.10,MacIntel,60,6036d0d9a84aa1626184a6ef,16.94376578,16.73643137,16.67106161,16.68068557,16.67904918,16.69180693,,,,,,,,,,,,,,,,,,,8,PF,strong,3,-43.49664307,95.52368164,1,0,0,response7disk_5,7,0,6.91404,-11.18188477,-11.04876709,1,0,0,rectangle_8,-11.18188477,-11.04876709,1,0,0,5,-11.18188477,-11.04876709,1,0,0,0,2,2,0,1,,,,,,,,,,,,,,,,,,,,,,,,,,,,,,,,,,,,,,,,,,,,,,,,,,,,,,,,,,,,,
,,,,,,,,,,,,,,,,,,,,,,,,,,,,,,,,,,,,,,,,,,5f285902166da3151b01faf2,6036dbc2036206fd5ef973ec,2021-02-24_23h07.58.677,Colour_Similarity_Experiment,2020.2.10,MacIntel,60,6036d0d9a84aa1626184a6ef,16.94376578,16.73643137,16.67106161,16.68068557,16.67904918,16.69180693,,,,,,,,,,,,,,,,,,,8,PF,strong,3,33.95397949,55.87265015,1,0,0,response1disk_5,6,7,5.969135,10.54766846,-9.445007324,1,0,0,rectangle_8,76.13226318,-32.05245972,1,0,0,5,12.77172852,-2.334197998,1,0,0,0,3,3,3,1,response3disk_7,5,rectangle_4,,,,,,,,,,,,,,,,,,,,,,,,,,,,,,,,,,,,,,,,,,,,,,,,,,,,,,,,,,
,,,,,,,,,,,,,,,,,,,,,,,,,,,,,,,,,,,,,,,,,,5f285902166da3151b01faf2,6036dbc2036206fd5ef973ec,2021-02-24_23h07.58.677,Colour_Similarity_Experiment,2020.2.10,MacIntel,60,6036d0d9a84aa1626184a6ef,16.94376578,16.73643137,16.67106161,16.68068557,16.67904918,16.69180693,,,,,,,,,,,,,,,,,,,4,PF,weak,3,66.91156006,-31.90917969,1,0,0,response3disk_5,8,5,9.58576,10.67584229,-6.477172852,1,0,0,rectangle_8,10.67584229,-6.477172852,1,0,0,5,10.67584229,-6.477172852,1,0,0,0,4,4,4,1,,,,,,,,,,,,,,,,,,,,,,,,,,,,,,,,,,,,,,,,,,,,,,,,,,,,,,,,,,,,,
,,,,,,,,,,,,,,,,,,,,,,,,,,,,,,,,,,,,,,,,,,5f285902166da3151b01faf2,6036dbc2036206fd5ef973ec,2021-02-24_23h07.58.677,Colour_Similarity_Experiment,2020.2.10,MacIntel,60,6036d0d9a84aa1626184a6ef,16.94376578,16.73643137,16.67106161,16.68068557,16.67904918,16.69180693,,,,,,,,,,,,,,,,,,,5,PF,weak,3,-25.27050781,-72.55615234,1,0,0,response5disk_5,3,3,5.76927,9.190612793,-3.322387695,1,0,0,rectangle_8,9.190612793,-3.322387695,1,0,0,5,9.190612793,-3.322387695,1,0,0,0,5,5,1,1,,,,,,,,,,,,,,,,,,,,,,,,,,,,,,,,,,,,,,,,,,,,,,,,,,,,,,,,,,,,,
,,,,,,,,,,,,,,,,,,,,,,,,,,,,,,,,,,,,,,,,,,5f285902166da3151b01faf2,6036dbc2036206fd5ef973ec,2021-02-24_23h07.58.677,Colour_Similarity_Experiment,2020.2.10,MacIntel,60,6036d0d9a84aa1626184a6ef,16.94376578,16.73643137,16.67106161,16.68068557,16.67904918,16.69180693,,,,,,,,,,,,,,,,,,,3,PF,strong,3,-47.02105713,-20.85620117,1,0,0,response5disk_5,6,2,14.20509,-5.272827148,-10.11901855,1,0,0,rectangle_8,-5.272827148,-10.11901855,1,0,0,5,-5.272827148,-10.11901855,1,0,0,0,6,6,2,1,,,,,,,,,,,,,,,,,,,,,,,,,,,,,,,,,,,,,,,,,,,,,,,,,,,,,,,,,,,,,
,,,,,,,,,,,,,,,,,,,,,,,,,,,,,,,,,,,,,,,,,,5f285902166da3151b01faf2,6036dbc2036206fd5ef973ec,2021-02-24_23h07.58.677,Colour_Similarity_Experiment,2020.2.10,MacIntel,60,6036d0d9a84aa1626184a6ef,16.94376578,16.73643137,16.67106161,16.68068557,16.67904918,16.69180693,,,,,,,,,,,,,,,,,,,,PF,strong,3,,,,,,,,6,13.09937,,,,,,,,,,,,,,,,,,,,,,,,,,space,3.299685,4,strong,66.5088501,29.58184814,1,0,0,response1disk,1,1,12.07342529,-3.909515381,1,0,0,rectangle,12.07342529,-3.909515381,1,0,0,,3,0,0.003065,12.07342529,-3.909515381,1,0,0,0,0,0,102,1,,,,,,,,,,,,,,,,,,,,,
,,,,,,,,,,,,,,,,,,,,,,,,,,,,,,,,,,,,,,,,,,5f285902166da3151b01faf2,6036dbc2036206fd5ef973ec,2021-02-24_23h07.58.677,Colour_Similarity_Experiment,2020.2.10,MacIntel,60,6036d0d9a84aa1626184a6ef,16.94376578,16.73643137,16.67106161,16.68068557,16.67904918,16.69180693,,,,,,,,,,,,,,,,,,,,PF,weak,3,,,,,,,,7,1.75087,,,,,,,,,,,,,,,,,,,,,,,,,,,,1,weak,39.94024658,81.77459717,1,0,0,response1disk,4,2,15.7052002,-3.755126953,1,0,0,rectangle,15.7052002,-3.755126953,1,0,0,,7,0,0.00118,15.7052002,-3.755126953,1,0,0,0,1,1,139,1,,,,,,,,,,,,,,,,,,,,,
,,,,,,,,,,,,,,,,,,,,,,,,,,,,,,,,,,,,,,,,,,5f285902166da3151b01faf2,6036dbc2036206fd5ef973ec,2021-02-24_23h07.58.677,Colour_Similarity_Experiment,2020.2.10,MacIntel,60,6036d0d9a84aa1626184a6ef,16.94376578,16.73643137,16.67106161,16.68068557,16.67904918,16.69180693,,,,,,,,,,,,,,,,,,,,PF,strong,3,,,,,,,,6,0.776055,,,,,,,,,,,,,,,,,,,,,,,,,,,,5,strong,86.46966553,50.08764648,1,0,0,response1disk,6,3,-1.224731445,-0.324157715,1,0,0,rectangle,-1.224731445,-0.324157715,1,0,0,,7,0,0.00014,-1.224731445,-0.324157715,1,0,0,0,2,2,12,1,,,,,,,,,,,,,,,,,,,,,
,,,,,,,,,,,,,,,,,,,,,,,,,,,,,,,,,,,,,,,,,,5f285902166da3151b01faf2,6036dbc2036206fd5ef973ec,2021-02-24_23h07.58.677,Colour_Similarity_Experiment,2020.2.10,MacIntel,60,6036d0d9a84aa1626184a6ef,16.94376578,16.73643137,16.67106161,16.68068557,16.67904918,16.69180693,,,,,,,,,,,,,,,,,,,,PF,weak,3,,,,,,,,6,3.51773,,,,,,,,,,,,,,,,,,,,,,,,,,,,1,weak,62.47918701,34.63238525,1,0,0,response1disk,7,4,10.32165527,-2.656646729,1,0,0,rectangle,10.32165527,-2.656646729,1,0,0,,7,0,0.0001,10.32165527,-2.656646729,1,0,0,0,3,3,150,1,,,,,,,,,,,,,,,,,,,,,
,,,,,,,,,,,,,,,,,,,,,,,,,,,,,,,,,,,,,,,,,,5f285902166da3151b01faf2,6036dbc2036206fd5ef973ec,2021-02-24_23h07.58.677,Colour_Similarity_Experiment,2020.2.10,MacIntel,60,6036d0d9a84aa1626184a6ef,16.94376578,16.73643137,16.67106161,16.68068557,16.67904918,16.69180693,,,,,,,,,,,,,,,,,,,,PF,weak,3,,,,,,,,6,2.93323,,,,,,,,,,,,,,,,,,,,,,,,,,,,8,weak,63.99401855,35.0098877,1,0,0,response1disk,9,5,27.01751709,6.914672852,1,0,0,rectangle,27.01751709,6.914672852,1,0,0,,6,0,0.003015,27.01751709,6.914672852,1,0,0,0,4,4,42,1,,,,,,,,,,,,,,,,,,,,,
,,,,,,,,,,,,,,,,,,,,,,,,,,,,,,,,,,,,,,,,,,5f285902166da3151b01faf2,6036dbc2036206fd5ef973ec,2021-02-24_23h07.58.677,Colour_Similarity_Experiment,2020.2.10,MacIntel,60,6036d0d9a84aa1626184a6ef,16.94376578,16.73643137,16.67106161,16.68068557,16.67904918,16.69180693,,,,,,,,,,,,,,,,,,,,PF,strong,3,,,,,,,,0,3.31763,,,,,,,,,,,,,,,,,,,,,,,,,,,,1,strong,-30.88824463,70.01947021,1,0,0,response7disk,9,6,5.710571289,-12.10095215,1,0,0,rectangle,5.710571289,-12.10095215,1,0,0,,7,0,0.003295,5.710571289,-12.10095215,1,0,0,0,5,5,123,1,,,,,,,,,,,,,,,,,,,,,
,,,,,,,,,,,,,,,,,,,,,,,,,,,,,,,,,,,,,,,,,,5f285902166da3151b01faf2,6036dbc2036206fd5ef973ec,2021-02-24_23h07.58.677,Colour_Similarity_Experiment,2020.2.10,MacIntel,60,6036d0d9a84aa1626184a6ef,16.94376578,16.73643137,16.67106161,16.68068557,16.67904918,16.69180693,,,,,,,,,,,,,,,,,,,,PF,weak,3,,,,,,,,0,1.96715,,,,,,,,,,,,,,,,,,,,,,,,,,,,5,weak,-25.96496582,56.11541748,1,0,0,response7disk,9,7,-4.893432617,-2.599578857,1,0,0,rectangle,23.16680908,-76.27670288,1,0,0,4,4,1,3.117905,-6.510131836,-5.654907227,1,0,0,0,6,6,136,1,response3disk_3,rectangle,,,,,,,,,,,,,,,,,,,
,,,,,,,,,,,,,,,,,,,,,,,,,,,,,,,,,,,,,,,,,,5f285902166da3151b01faf2,6036dbc2036206fd5ef973ec,2021-02-24_23h07.58.677,Colour_Similarity_Experiment,2020.2.10,MacIntel,60,6036d0d9a84aa1626184a6ef,16.94376578,16.73643137,16.67106161,16.68068557,16.67904918,16.69180693,,,,,,,,,,,,,,,,,,,,PF,strong,3,,,,,,,,0,4.836365,,,,,,,,,,,,,,,,,,,,,,,,,,,,3,strong,-36.08551025,79.08959961,1,0,0,response7disk,9,8,1.719543457,-1.098876953,1,0,0,rectangle,1.719543457,-1.098876953,1,0,0,4,3,0,0.00321,1.719543457,-1.098876953,1,0,0,0,7,7,143,1,,,,,,,,,,,,,,,,,,,,,
,,,,,,,,,,,,,,,,,,,,,,,,,,,,,,,,,,,,,,,,,,5f285902166da3151b01faf2,6036dbc2036206fd5ef973ec,2021-02-24_23h07.58.677,Colour_Similarity_Experiment,2020.2.10,MacIntel,60,6036d0d9a84aa1626184a6ef,16.94376578,16.73643137,16.67106161,16.68068557,16.67904918,16.69180693,,,,,,,,,,,,,,,,,,,,PF,strong,3,,,,,,,,5,3.335755,,,,,,,,,,,,,,,,,,,,,,,,,,,,1,strong,77.26318359,-22.00622559,1,0,0,response3disk,7,9,4.780883789,2.417419434,1,0,0,rectangle,4.780883789,2.417419434,1,0,0,4,7,0,0.0025,4.780883789,2.417419434,1,0,0,0,8,8,137,1,,,,,,,,,,,,,,,,,,,,,
,,,,,,,,,,,,,,,,,,,,,,,,,,,,,,,,,,,,,,,,,,5f285902166da3151b01faf2,6036dbc2036206fd5ef973ec,2021-02-24_23h07.58.677,Colour_Similarity_Experiment,2020.2.10,MacIntel,60,6036d0d9a84aa1626184a6ef,16.94376578,16.73643137,16.67106161,16.68068557,16.67904918,16.69180693,,,,,,,,,,,,,,,,,,,,PF,weak,3,,,,,,,,6,3.92589,,,,,,,,,,,,,,,,,,,,,,,,,,,,8,weak,79.98962402,29.09606934,1,0,0,response1disk,1,10,-1.948974609,9.263336182,1,0,0,rectangle,-1.948974609,9.263336182,1,0,0,4,6,0,0.003865,-1.948974609,9.263336182,1,0,0,0,9,9,57,1,,,,,,,,,,,,,,,,,,,,,
,,,,,,,,,,,,,,,,,,,,,,,,,,,,,,,,,,,,,,,,,,5f285902166da3151b01faf2,6036dbc2036206fd5ef973ec,2021-02-24_23h07.58.677,Colour_Similarity_Experiment,2020.2.10,MacIntel,60,6036d0d9a84aa1626184a6ef,16.94376578,16.73643137,16.67106161,16.68068557,16.67904918,16.69180693,,,,,,,,,,,,,,,,,,,,PF,weak,3,,,,,,,,6,9.55687,,,,,,,,,,,,,,,,,,,,,,,,,,,,8,weak,91.4944458,29.34832764,1,0,0,response1disk,2,11,4.176208496,2.043365479,1,0,0,rectangle,4.176208496,2.043365479,1,0,0,4,1,0,0.002865,4.176208496,2.043365479,1,0,0,0,10,10,83,1,,,,,,,,,,,,,,,,,,,,,
,,,,,,,,,,,,,,,,,,,,,,,,,,,,,,,,,,,,,,,,,,5f285902166da3151b01faf2,6036dbc2036206fd5ef973ec,2021-02-24_23h07.58.677,Colour_Similarity_Experiment,2020.2.10,MacIntel,60,6036d0d9a84aa1626184a6ef,16.94376578,16.73643137,16.67106161,16.68068557,16.67904918,16.69180693,,,,,,,,,,,,,,,,,,,,PF,weak,3,,,,,,,,5,3.368405,,,,,,,,,,,,,,,,,,,,,,,,,,,,6,weak,66.72509766,-31.99707031,1,0,0,response3disk,4,12,-2.518432617,7.228637695,1,0,0,rectangle,-2.518432617,7.228637695,1,0,0,4,3,0,0.0031,-2.518432617,7.228637695,1,0,0,0,11,11,33,1,,,,,,,,,,,,,,,,,,,,,
,,,,,,,,,,,,,,,,,,,,,,,,,,,,,,,,,,,,,,,,,,5f285902166da3151b01faf2,6036dbc2036206fd5ef973ec,2021-02-24_23h07.58.677,Colour_Similarity_Experiment,2020.2.10,MacIntel,60,6036d0d9a84aa1626184a6ef,16.94376578,16.73643137,16.67106161,16.68068557,16.67904918,16.69180693,,,,,,,,,,,,,,,,,,,,PF,weak,3,,,,,,,,1,5.202355,,,,,,,,,,,,,,,,,,,,,,,,,,,,8,weak,-58.32556152,27.96014404,1,0,0,response7disk,5,13,11.3302002,-6.828399658,1,0,0,rectangle,11.3302002,-6.828399658,1,0,0,4,2,0,0.001475,11.3302002,-6.828399658,1,0,0,0,12,12,98,1,,,,,,,,,,,,,,,,,,,,,
,,,,,,,,,,,,,,,,,,,,,,,,,,,,,,,,,,,,,,,,,,5f285902166da3151b01faf2,6036dbc2036206fd5ef973ec,2021-02-24_23h07.58.677,Colour_Similarity_Experiment,2020.2.10,MacIntel,60,6036d0d9a84aa1626184a6ef,16.94376578,16.73643137,16.67106161,16.68068557,16.67904918,16.69180693,,,,,,,,,,,,,,,,,,,,PF,strong,3,,,,,,,,5,4.10098,,,,,,,,,,,,,,,,,,,,,,,,,,,,5,strong,76.43188477,-46.33703613,1,0,0,response3disk,8,14,-26.89923096,13.28573608,1,0,0,rectangle,-26.89923096,13.28573608,1,0,0,1,0,0,0.00099,-26.89923096,13.28573608,1,0,0,0,13,13,16,1,,,,,,,,,,,,,,,,,,,,,
,,,,,,,,,,,,,,,,,,,,,,,,,,,,,,,,,,,,,,,,,,5f285902166da3151b01faf2,6036dbc2036206fd5ef973ec,2021-02-24_23h07.58.677,Colour_Similarity_Experiment,2020.2.10,MacIntel,60,6036d0d9a84aa1626184a6ef,16.94376578,16.73643137,16.67106161,16.68068557,16.67904918,16.69180693,,,,,,,,,,,,,,,,,,,,PF,strong,3,,,,,,,,1,4.96778,,,,,,,,,,,,,,,,,,,,,,,,,,,,8,strong,-73.06414795,30.56201172,1,0,0,response7disk,9,15,7.477783203,-1.700439453,1,0,0,rectangle,7.477783203,-1.700439453,1,0,0,1,2,0,0.003435,7.477783203,-1.700439453,1,0,0,0,14,14,105,1,,,,,,,,,,,,,,,,,,,,,
,,,,,,,,,,,,,,,,,,,,,,,,,,,,,,,,,,,,,,,,,,5f285902166da3151b01faf2,6036dbc2036206fd5ef973ec,2021-02-24_23h07.58.677,Colour_Similarity_Experiment,2020.2.10,MacIntel,60,6036d0d9a84aa1626184a6ef,16.94376578,16.73643137,16.67106161,16.68068557,16.67904918,16.69180693,,,,,,,,,,,,,,,,,,,,PF,strong,3,,,,,,,,5,3.419415,,,,,,,,,,,,,,,,,,,,,,,,,,,,1,strong,75.74468994,-31.81390381,1,0,0,response3disk,5,16,1.688232422,-10.29046631,1,0,0,rectangle,1.688232422,-10.29046631,1,0,0,1,5,0,0.001065,1.688232422,-10.29046631,1,0,0,0,15,15,82,1,,,,,,,,,,,,,,,,,,,,,
,,,,,,,,,,,,,,,,,,,,,,,,,,,,,,,,,,,,,,,,,,5f285902166da3151b01faf2,6036dbc2036206fd5ef973ec,2021-02-24_23h07.58.677,Colour_Similarity_Experiment,2020.2.10,MacIntel,60,6036d0d9a84aa1626184a6ef,16.94376578,16.73643137,16.67106161,16.68068557,16.67904918,16.69180693,,,,,,,,,,,,,,,,,,,,PF,weak,3,,,,,,,,1,2.45101,,,,,,,,,,,,,,,,,,,,,,,,,,,,4,weak,-56.23858643,30.50952148,1,0,0,response7disk,3,17,4.008361816,5.834899902,1,0,0,rectangle,4.008361816,5.834899902,1,0,0,1,1,0,0.001115,4.008361816,5.834899902,1,0,0,0,16,16,89,1,,,,,,,,,,,,,,,,,,,,,
,,,,,,,,,,,,,,,,,,,,,,,,,,,,,,,,,,,,,,,,,,5f285902166da3151b01faf2,6036dbc2036206fd5ef973ec,2021-02-24_23h07.58.677,Colour_Similarity_Experiment,2020.2.10,MacIntel,60,6036d0d9a84aa1626184a6ef,16.94376578,16.73643137,16.67106161,16.68068557,16.67904918,16.69180693,,,,,,,,,,,,,,,,,,,,PF,strong,3,,,,,,,,3,1.733795,,,,,,,,,,,,,,,,,,,,,,,,,,,,2,strong,-20.85754395,-68.04034424,1,0,0,response5disk,7,18,7.427062988,11.71502686,1,0,0,rectangle,7.427062988,11.71502686,1,0,0,1,5,0,0.001995,7.427062988,11.71502686,1,0,0,0,17,17,63,1,,,,,,,,,,,,,,,,,,,,,
,,,,,,,,,,,,,,,,,,,,,,,,,,,,,,,,,,,,,,,,,,5f285902166da3151b01faf2,6036dbc2036206fd5ef973ec,2021-02-24_23h07.58.677,Colour_Similarity_Experiment,2020.2.10,MacIntel,60,6036d0d9a84aa1626184a6ef,16.94376578,16.73643137,16.67106161,16.68068557,16.67904918,16.69180693,,,,,,,,,,,,,,,,,,,,PF,weak,3,,,,,,,,5,4.819685,,,,,,,,,,,,,,,,,,,,,,,,,,,,2,weak,65.96429443,-48.25341797,1,0,0,response3disk,8,19,-21.46905518,11.91503906,1,0,0,rectangle,-21.46905518,11.91503906,1,0,0,1,6,0,0.003515,-21.46905518,11.91503906,1,0,0,0,18,18,52,1,,,,,,,,,,,,,,,,,,,,,
,,,,,,,,,,,,,,,,,,,,,,,,,,,,,,,,,,,,,,,,,,5f285902166da3151b01faf2,6036dbc2036206fd5ef973ec,2021-02-24_23h07.58.677,Colour_Similarity_Experiment,2020.2.10,MacIntel,60,6036d0d9a84aa1626184a6ef,16.94376578,16.73643137,16.67106161,16.68068557,16.67904918,16.69180693,,,,,,,,,,,,,,,,,,,,PF,weak,3,,,,,,,,5,3.933775,,,,,,,,,,,,,,,,,,,,,,,,,,,,2,weak,73.66931152,-29.29278564,1,0,0,response3disk,2,20,6.848205566,-4.281921387,1,0,0,rectangle,6.848205566,-4.281921387,1,0,0,1,1,0,0.00154,6.848205566,-4.281921387,1,0,0,0,19,19,14,1,,,,,,,,,,,,,,,,,,,,,
,,,,,,,,,,,,,,,,,,,,,,,,,,,,,,,,,,,,,,,,,,5f285902166da3151b01faf2,6036dbc2036206fd5ef973ec,2021-02-24_23h07.58.677,Colour_Similarity_Experiment,2020.2.10,MacIntel,60,6036d0d9a84aa1626184a6ef,16.94376578,16.73643137,16.67106161,16.68068557,16.67904918,16.69180693,,,,,,,,,,,,,,,,,,,,PF,weak,3,,,,,,,,6,6.45275,,,,,,,,,,,,,,,,,,,,,,,,,,,,9,weak,77.1427002,25.98602295,1,0,0,response1disk,4,21,4.604553223,-7.148193359,1,0,0,rectangle,4.604553223,-7.148193359,1,0,0,1,3,0,0.002965,4.604553223,-7.148193359,1,0,0,0,20,20,114,1,,,,,,,,,,,,,,,,,,,,,
,,,,,,,,,,,,,,,,,,,,,,,,,,,,,,,,,,,,,,,,,,5f285902166da3151b01faf2,6036dbc2036206fd5ef973ec,2021-02-24_23h07.58.677,Colour_Similarity_Experiment,2020.2.10,MacIntel,60,6036d0d9a84aa1626184a6ef,16.94376578,16.73643137,16.67106161,16.68068557,16.67904918,16.69180693,,,,,,,,,,,,,,,,,,,,PF,strong,3,,,,,,,,6,2.45128,,,,,,,,,,,,,,,,,,,,,,,,,,,,8,strong,87.2310791,31.24688721,1,0,0,response1disk,1,22,-15.94165039,-8.415283203,1,0,0,rectangle,-15.94165039,-8.415283203,1,0,0,1,7,0,0.003145,-15.94165039,-8.415283203,1,0,0,0,21,21,20,1,,,,,,,,,,,,,,,,,,,,,
,,,,,,,,,,,,,,,,,,,,,,,,,,,,,,,,,,,,,,,,,,5f285902166da3151b01faf2,6036dbc2036206fd5ef973ec,2021-02-24_23h07.58.677,Colour_Similarity_Experiment,2020.2.10,MacIntel,60,6036d0d9a84aa1626184a6ef,16.94376578,16.73643137,16.67106161,16.68068557,16.67904918,16.69180693,,,,,,,,,,,,,,,,,,,,PF,weak,3,,,,,,,,5,1.066385,,,,,,,,,,,,,,,,,,,,,,,,,,,,6,weak,103.6831055,-32.80566406,1,0,0,response3disk,3,23,-8.493286133,2.788269043,1,0,0,rectangle,-8.493286133,2.788269043,1,0,0,1,4,0,0.002875,-8.493286133,2.788269043,1,0,0,0,22,22,26,1,,,,,,,,,,,,,,,,,,,,,
,,,,,,,,,,,,,,,,,,,,,,,,,,,,,,,,,,,,,,,,,,5f285902166da3151b01faf2,6036dbc2036206fd5ef973ec,2021-02-24_23h07.58.677,Colour_Similarity_Experiment,2020.2.10,MacIntel,60,6036d0d9a84aa1626184a6ef,16.94376578,16.73643137,16.67106161,16.68068557,16.67904918,16.69180693,,,,,,,,,,,,,,,,,,,,PF,weak,3,,,,,,,,4,2.798705,,,,,,,,,,,,,,,,,,,,,,,,,,,,3,weak,46.02087402,-75.41247559,1,0,0,response3disk,3,24,8.14074707,-4.154266357,1,0,0,rectangle,8.14074707,-4.154266357,1,0,0,1,3,0,0.00465,8.14074707,-4.154266357,1,0,0,0,23,23,4,1,,,,,,,,,,,,,,,,,,,,,
,,,,,,,,,,,,,,,,,,,,,,,,,,,,,,,,,,,,,,,,,,5f285902166da3151b01faf2,6036dbc2036206fd5ef973ec,2021-02-24_23h07.58.677,Colour_Similarity_Experiment,2020.2.10,MacIntel,60,6036d0d9a84aa1626184a6ef,16.94376578,16.73643137,16.67106161,16.68068557,16.67904918,16.69180693,,,,,,,,,,,,,,,,,,,,PF,weak,3,,,,,,,,3,3.764235,,,,,,,,,,,,,,,,,,,,,,,,,,,,4,weak,-32.49725342,-79.95349121,1,0,0,response5disk,8,25,12.98059082,-8.890808105,1,0,0,rectangle,12.98059082,-8.890808105,1,0,0,1,0,0,0.00286,12.98059082,-8.890808105,1,0,0,0,24,24,124,1,,,,,,,,,,,,,,,,,,,,,
,,,,,,,,,,,,,,,,,,,,,,,,,,,,,,,,,,,,,,,,,,5f285902166da3151b01faf2,6036dbc2036206fd5ef973ec,2021-02-24_23h07.58.677,Colour_Similarity_Experiment,2020.2.10,MacIntel,60,6036d0d9a84aa1626184a6ef,16.94376578,16.73643137,16.67106161,16.68068557,16.67904918,16.69180693,,,,,,,,,,,,,,,,,,,,PF,strong,3,,,,,,,,4,1.05029,,,,,,,,,,,,,,,,,,,,,,,,,,,,4,strong,42.36322021,-89.046875,1,0,0,response3disk,3,26,-1.133850098,8.007385254,1,0,0,rectangle,-1.133850098,8.007385254,1,0,0,1,2,0,0.002565,-1.133850098,8.007385254,1,0,0,0,25,25,77,1,,,,,,,,,,,,,,,,,,,,,
,,,,,,,,,,,,,,,,,,,,,,,,,,,,,,,,,,,,,,,,,,5f285902166da3151b01faf2,6036dbc2036206fd5ef973ec,2021-02-24_23h07.58.677,Colour_Similarity_Experiment,2020.2.10,MacIntel,60,6036d0d9a84aa1626184a6ef,16.94376578,16.73643137,16.67106161,16.68068557,16.67904918,16.69180693,,,,,,,,,,,,,,,,,,,,PF,weak,3,,,,,,,,1,3.56804,,,,,,,,,,,,,,,,,,,,,,,,,,,,7,weak,-76.64385986,17.6385498,1,0,0,response7disk,4,27,13.27832031,-6.898956299,1,0,0,rectangle,13.27832031,-6.898956299,1,0,0,1,4,0,0.00178,13.27832031,-6.898956299,1,0,0,0,26,26,43,1,,,,,,,,,,,,,,,,,,,,,
,,,,,,,,,,,,,,,,,,,,,,,,,,,,,,,,,,,,,,,,,,5f285902166da3151b01faf2,6036dbc2036206fd5ef973ec,2021-02-24_23h07.58.677,Colour_Similarity_Experiment,2020.2.10,MacIntel,60,6036d0d9a84aa1626184a6ef,16.94376578,16.73643137,16.67106161,16.68068557,16.67904918,16.69180693,,,,,,,,,,,,,,,,,,,,PF,strong,3,,,,,,,,6,3.21618,,,,,,,,,,,,,,,,,,,,,,,,,,,,2,strong,76.26409912,34.02554321,1,0,0,response1disk,8,28,8.481384277,-7.52355957,1,0,0,rectangle,8.481384277,-7.52355957,1,0,0,1,4,0,0.000085,8.481384277,-7.52355957,1,0,0,0,27,27,62,1,,,,,,,,,,,,,,,,,,,,,
,,,,,,,,,,,,,,,,,,,,,,,,,,,,,,,,,,,,,,,,,,5f285902166da3151b01faf2,6036dbc2036206fd5ef973ec,2021-02-24_23h07.58.677,Colour_Similarity_Experiment,2020.2.10,MacIntel,60,6036d0d9a84aa1626184a6ef,16.94376578,16.73643137,16.67106161,16.68068557,16.67904918,16.69180693,,,,,,,,,,,,,,,,,,,,PF,strong,3,,,,,,,,1,2.684315,,,,,,,,,,,,,,,,,,,,,,,,,,,,4,strong,-64.13909912,20.73458862,1,0,0,response7disk,4,29,10.8916626,-1.309356689,1,0,0,rectangle,10.8916626,-1.309356689,1,0,0,1,2,0,0.002695,10.8916626,-1.309356689,1,0,0,0,28,28,84,1,,,,,,,,,,,,,,,,,,,,,
,,,,,,,,,,,,,,,,,,,,,,,,,,,,,,,,,,,,,,,,,,5f285902166da3151b01faf2,6036dbc2036206fd5ef973ec,2021-02-24_23h07.58.677,Colour_Similarity_Experiment,2020.2.10,MacIntel,60,6036d0d9a84aa1626184a6ef,16.94376578,16.73643137,16.67106161,16.68068557,16.67904918,16.69180693,,,,,,,,,,,,,,,,,,,,PF,weak,3,,,,,,,,3,7.486895,,,,,,,,,,,,,,,,,,,,,,,,,,,,5,weak,-20.97833252,-59.68737793,1,0,0,response5disk,7,30,11.80462646,-10.559021,1,0,0,rectangle,11.80462646,-10.559021,1,0,0,1,3,0,0.00359,11.80462646,-10.559021,1,0,0,0,29,29,146,1,,,,,,,,,,,,,,,,,,,,,
,,,,,,,,,,,,,,,,,,,,,,,,,,,,,,,,,,,,,,,,,,5f285902166da3151b01faf2,6036dbc2036206fd5ef973ec,2021-02-24_23h07.58.677,Colour_Similarity_Experiment,2020.2.10,MacIntel,60,6036d0d9a84aa1626184a6ef,16.94376578,16.73643137,16.67106161,16.68068557,16.67904918,16.69180693,,,,,,,,,,,,,,,,,,,,PF,strong,3,,,,,,,,4,3.80137,,,,,,,,,,,,,,,,,,,,,,,,,,,,3,strong,32.2442627,-82.53588867,1,0,0,response3disk,1,31,2.264465332,-9.716217041,1,0,0,rectangle,2.264465332,-9.716217041,1,0,0,1,5,0,0.001655,2.264465332,-9.716217041,1,0,0,0,30,30,125,1,,,,,,,,,,,,,,,,,,,,,
,,,,,,,,,,,,,,,,,,,,,,,,,,,,,,,,,,,,,,,,,,5f285902166da3151b01faf2,6036dbc2036206fd5ef973ec,2021-02-24_23h07.58.677,Colour_Similarity_Experiment,2020.2.10,MacIntel,60,6036d0d9a84aa1626184a6ef,16.94376578,16.73643137,16.67106161,16.68068557,16.67904918,16.69180693,,,,,,,,,,,,,,,,,,,,PF,strong,3,,,,,,,,1,2.532235,,,,,,,,,,,,,,,,,,,,,,,,,,,,7,strong,-35.15673828,20.20678711,1,0,0,response7disk,3,32,22.03436279,-1.511657715,1,0,0,rectangle,22.03436279,-1.511657715,1,0,0,1,3,0,0.002545,22.03436279,-1.511657715,1,0,0,0,31,31,73,1,,,,,,,,,,,,,,,,,,,,,
,,,,,,,,,,,,,,,,,,,,,,,,,,,,,,,,,,,,,,,,,,5f285902166da3151b01faf2,6036dbc2036206fd5ef973ec,2021-02-24_23h07.58.677,Colour_Similarity_Experiment,2020.2.10,MacIntel,60,6036d0d9a84aa1626184a6ef,16.94376578,16.73643137,16.67106161,16.68068557,16.67904918,16.69180693,,,,,,,,,,,,,,,,,,,,PF,strong,3,,,,,,,,6,7.386675,,,,,,,,,,,,,,,,,,,,,,,,,,,,9,strong,66.2635498,34.91098022,1,0,0,response1disk,1,33,9.297119141,9.253967285,1,0,0,rectangle,9.297119141,9.253967285,1,0,0,1,3,0,8E-05,9.297119141,9.253967285,1,0,0,0,32,32,111,1,,,,,,,,,,,,,,,,,,,,,
,,,,,,,,,,,,,,,,,,,,,,,,,,,,,,,,,,,,,,,,,,5f285902166da3151b01faf2,6036dbc2036206fd5ef973ec,2021-02-24_23h07.58.677,Colour_Similarity_Experiment,2020.2.10,MacIntel,60,6036d0d9a84aa1626184a6ef,16.94376578,16.73643137,16.67106161,16.68068557,16.67904918,16.69180693,,,,,,,,,,,,,,,,,,,,PF,weak,3,,,,,,,,6,2.066925,,,,,,,,,,,,,,,,,,,,,,,,,,,,5,weak,89.1060791,31.503479,1,0,0,response1disk,4,34,-3.602661133,4.975769043,1,0,0,rectangle,-3.602661133,4.975769043,1,0,0,1,7,0,0.00138,-3.602661133,4.975769043,1,0,0,0,33,33,54,1,,,,,,,,,,,,,,,,,,,,,
,,,,,,,,,,,,,,,,,,,,,,,,,,,,,,,,,,,,,,,,,,5f285902166da3151b01faf2,6036dbc2036206fd5ef973ec,2021-02-24_23h07.58.677,Colour_Similarity_Experiment,2020.2.10,MacIntel,60,6036d0d9a84aa1626184a6ef,16.94376578,16.73643137,16.67106161,16.68068557,16.67904918,16.69180693,,,,,,,,,,,,,,,,,,,,PF,weak,3,,,,,,,,5,2.63277,,,,,,,,,,,,,,,,,,,,,,,,,,,,2,weak,74.19274902,-32.85498047,1,0,0,response3disk,7,35,-17.21459961,-10.60696411,1,0,0,rectangle,-17.21459961,-10.60696411,1,0,0,1,6,0,0.00398,-17.21459961,-10.60696411,1,0,0,0,34,34,107,1,,,,,,,,,,,,,,,,,,,,,
,,,,,,,,,,,,,,,,,,,,,,,,,,,,,,,,,,,,,,,,,,5f285902166da3151b01faf2,6036dbc2036206fd5ef973ec,2021-02-24_23h07.58.677,Colour_Similarity_Experiment,2020.2.10,MacIntel,60,6036d0d9a84aa1626184a6ef,16.94376578,16.73643137,16.67106161,16.68068557,16.67904918,16.69180693,,,,,,,,,,,,,,,,,,,,PF,strong,3,,,,,,,,1,1.815185,,,,,,,,,,,,,,,,,,,,,,,,,,,,2,strong,-34.72717285,27.47406006,1,0,0,response7disk,5,36,7.925842285,1.937438965,1,0,0,rectangle,7.925842285,1.937438965,1,0,0,1,4,0,0.002805,7.925842285,1.937438965,1,0,0,0,35,35,80,1,,,,,,,,,,,,,,,,,,,,,
,,,,,,,,,,,,,,,,,,,,,,,,,,,,,,,,,,,,,,,,,,5f285902166da3151b01faf2,6036dbc2036206fd5ef973ec,2021-02-24_23h07.58.677,Colour_Similarity_Experiment,2020.2.10,MacIntel,60,6036d0d9a84aa1626184a6ef,16.94376578,16.73643137,16.67106161,16.68068557,16.67904918,16.69180693,,,,,,,,,,,,,,,,,,,,PF,weak,3,,,,,,,,3,2.51764,,,,,,,,,,,,,,,,,,,,,,,,,,,,8,weak,-20.95837402,-78.18737793,1,0,0,response5disk,6,37,15.9440918,-4.608337402,1,0,0,rectangle,-44.6114502,-25.12866211,1,0,0,1,2,1,2.10087,-1.745300293,-3.298217773,1,0,0,0,36,36,161,1,response5disk_3,rectangle,,,,,,,,,,,,,,,,,,,
,,,,,,,,,,,,,,,,,,,,,,,,,,,,,,,,,,,,,,,,,,5f285902166da3151b01faf2,6036dbc2036206fd5ef973ec,2021-02-24_23h07.58.677,Colour_Similarity_Experiment,2020.2.10,MacIntel,60,6036d0d9a84aa1626184a6ef,16.94376578,16.73643137,16.67106161,16.68068557,16.67904918,16.69180693,,,,,,,,,,,,,,,,,,,,PF,weak,3,,,,,,,,5,2.78504,,,,,,,,,,,,,,,,,,,,,,,,,,,,6,weak,59.42199707,-35.5534668,1,0,0,response3disk,8,38,24.22973633,-9.469848633,1,0,0,rectangle,24.22973633,-9.469848633,1,0,0,1,4,0,0.00309,24.22973633,-9.469848633,1,0,0,0,37,37,64,1,,,,,,,,,,,,,,,,,,,,,
,,,,,,,,,,,,,,,,,,,,,,,,,,,,,,,,,,,,,,,,,,5f285902166da3151b01faf2,6036dbc2036206fd5ef973ec,2021-02-24_23h07.58.677,Colour_Similarity_Experiment,2020.2.10,MacIntel,60,6036d0d9a84aa1626184a6ef,16.94376578,16.73643137,16.67106161,16.68068557,16.67904918,16.69180693,,,,,,,,,,,,,,,,,,,,PF,weak,3,,,,,,,,5,37.98378,,,,,,,,,,,,,,,,,,,,,,,,,,,,8,weak,73.33081055,-41.43106079,1,0,0,response3disk,8,39,1.159179688,-2.845092773,1,0,0,rectangle,1.159179688,-2.845092773,1,0,0,1,6,0,0.00339,1.159179688,-2.845092773,1,0,0,0,38,38,153,1,,,,,,,,,,,,,,,,,,,,,
,,,,,,,,,,,,,,,,,,,,,,,,,,,,,,,,,,,,,,,,,,5f285902166da3151b01faf2,6036dbc2036206fd5ef973ec,2021-02-24_23h07.58.677,Colour_Similarity_Experiment,2020.2.10,MacIntel,60,6036d0d9a84aa1626184a6ef,16.94376578,16.73643137,16.67106161,16.68068557,16.67904918,16.69180693,,,,,,,,,,,,,,,,,,,,PF,strong,3,,,,,,,,1,6.152155,,,,,,,,,,,,,,,,,,,,,,,,,,,,7,strong,-66.91290283,24.14752197,1,0,0,response7disk,9,40,7.239318848,-3.402954102,1,0,0,rectangle,7.239318848,-3.402954102,1,0,0,1,5,0,0.00209,7.239318848,-3.402954102,1,0,0,0,39,39,155,1,,,,,,,,,,,,,,,,,,,,,
,,,,,,,,,,,,,,,,,,,,,,,,,,,,,,,,,,,,,,,,,,5f285902166da3151b01faf2,6036dbc2036206fd5ef973ec,2021-02-24_23h07.58.677,Colour_Similarity_Experiment,2020.2.10,MacIntel,60,6036d0d9a84aa1626184a6ef,16.94376578,16.73643137,16.67106161,16.68068557,16.67904918,16.69180693,,,,,,,,,,,,,,,,,,,,PF,strong,3,,,,,,,,2,2.667385,,,,,,,,,,,,,,,,,,,,,,,,,,,,9,strong,-74.75653076,-46.57321167,1,0,0,response5disk,2,41,15.77520752,-6.04119873,1,0,0,rectangle,22.8536377,-74.31304932,1,0,0,4,4,1,1.984065,4.962402344,0.309204102,1,0,0,0,40,40,11,1,response3disk_3,rectangle,,,,,,,,,,,,,,,,,,,
,,,,,,,,,,,,,,,,,,,,,,,,,,,,,,,,,,,,,,,,,,5f285902166da3151b01faf2,6036dbc2036206fd5ef973ec,2021-02-24_23h07.58.677,Colour_Similarity_Experiment,2020.2.10,MacIntel,60,6036d0d9a84aa1626184a6ef,16.94376578,16.73643137,16.67106161,16.68068557,16.67904918,16.69180693,,,,,,,,,,,,,,,,,,,,PF,weak,3,,,,,,,,6,2.000435,,,,,,,,,,,,,,,,,,,,,,,,,,,,7,weak,86.52490234,26.72119141,1,0,0,response1disk,7,42,-1.803466797,-8.240783691,1,0,0,rectangle,-1.803466797,-8.240783691,1,0,0,4,2,0,0.003415,-1.803466797,-8.240783691,1,0,0,0,41,41,51,1,,,,,,,,,,,,,,,,,,,,,
,,,,,,,,,,,,,,,,,,,,,,,,,,,,,,,,,,,,,,,,,,5f285902166da3151b01faf2,6036dbc2036206fd5ef973ec,2021-02-24_23h07.58.677,Colour_Similarity_Experiment,2020.2.10,MacIntel,60,6036d0d9a84aa1626184a6ef,16.94376578,16.73643137,16.67106161,16.68068557,16.67904918,16.69180693,,,,,,,,,,,,,,,,,,,,PF,strong,3,,,,,,,,0,2.85066,,,,,,,,,,,,,,,,,,,,,,,,,,,,6,strong,-25.69018555,74.09417725,1,0,0,response7disk,7,43,-9.68762207,1.171142578,1,0,0,rectangle,-9.68762207,1.171142578,1,0,0,4,7,0,0.00255,-9.68762207,1.171142578,1,0,0,0,42,42,18,1,,,,,,,,,,,,,,,,,,,,,
,,,,,,,,,,,,,,,,,,,,,,,,,,,,,,,,,,,,,,,,,,5f285902166da3151b01faf2,6036dbc2036206fd5ef973ec,2021-02-24_23h07.58.677,Colour_Similarity_Experiment,2020.2.10,MacIntel,60,6036d0d9a84aa1626184a6ef,16.94376578,16.73643137,16.67106161,16.68068557,16.67904918,16.69180693,,,,,,,,,,,,,,,,,,,,PF,strong,3,,,,,,,,0,0.70072,,,,,,,,,,,,,,,,,,,,,,,,,,,,7,strong,-24.86621094,49.78851318,1,0,0,response7disk,7,44,-13.2510376,-5.068603516,1,0,0,rectangle,-13.2510376,-5.068603516,1,0,0,4,5,0,0.003405,-13.2510376,-5.068603516,1,0,0,0,43,43,34,1,,,,,,,,,,,,,,,,,,,,,
,,,,,,,,,,,,,,,,,,,,,,,,,,,,,,,,,,,,,,,,,,5f285902166da3151b01faf2,6036dbc2036206fd5ef973ec,2021-02-24_23h07.58.677,Colour_Similarity_Experiment,2020.2.10,MacIntel,60,6036d0d9a84aa1626184a6ef,16.94376578,16.73643137,16.67106161,16.68068557,16.67904918,16.69180693,,,,,,,,,,,,,,,,,,,,PF,weak,3,,,,,,,,6,3.284675,,,,,,,,,,,,,,,,,,,,,,,,,,,,6,weak,91.20678711,35.9017334,1,0,0,response1disk,9,45,4.890441895,2.573730469,1,0,0,rectangle,4.890441895,2.573730469,1,0,0,4,7,0,0.003345,4.890441895,2.573730469,1,0,0,0,44,44,45,1,,,,,,,,,,,,,,,,,,,,,
,,,,,,,,,,,,,,,,,,,,,,,,,,,,,,,,,,,,,,,,,,5f285902166da3151b01faf2,6036dbc2036206fd5ef973ec,2021-02-24_23h07.58.677,Colour_Similarity_Experiment,2020.2.10,MacIntel,60,6036d0d9a84aa1626184a6ef,16.94376578,16.73643137,16.67106161,16.68068557,16.67904918,16.69180693,,,,,,,,,,,,,,,,,,,,PF,weak,3,,,,,,,,6,1.1485,,,,,,,,,,,,,,,,,,,,,,,,,,,,6,weak,68.26428223,30.5567627,1,0,0,response1disk,5,46,5.376159668,-0.558532715,1,0,0,rectangle,5.376159668,-0.558532715,1,0,0,4,4,0,0.00374,5.376159668,-0.558532715,1,0,0,0,45,45,59,1,,,,,,,,,,,,,,,,,,,,,
,,,,,,,,,,,,,,,,,,,,,,,,,,,,,,,,,,,,,,,,,,5f285902166da3151b01faf2,6036dbc2036206fd5ef973ec,2021-02-24_23h07.58.677,Colour_Similarity_Experiment,2020.2.10,MacIntel,60,6036d0d9a84aa1626184a6ef,16.94376578,16.73643137,16.67106161,16.68068557,16.67904918,16.69180693,,,,,,,,,,,,,,,,,,,,PF,weak,3,,,,,,,,1,2.23266,,,,,,,,,,,,,,,,,,,,,,,,,,,,4,weak,-61.07128906,24.08026123,1,0,0,response7disk,6,47,-6.060302734,-4.256286621,1,0,0,rectangle,-6.060302734,-4.256286621,1,0,0,4,2,0,0.003215,-6.060302734,-4.256286621,1,0,0,0,46,46,120,1,,,,,,,,,,,,,,,,,,,,,
,,,,,,,,,,,,,,,,,,,,,,,,,,,,,,,,,,,,,,,,,,5f285902166da3151b01faf2,6036dbc2036206fd5ef973ec,2021-02-24_23h07.58.677,Colour_Similarity_Experiment,2020.2.10,MacIntel,60,6036d0d9a84aa1626184a6ef,16.94376578,16.73643137,16.67106161,16.68068557,16.67904918,16.69180693,,,,,,,,,,,,,,,,,,,,PF,strong,3,,,,,,,,0,1.033615,,,,,,,,,,,,,,,,,,,,,,,,,,,,9,strong,-29.38494873,72.73101807,1,0,0,response7disk,6,48,-2.520690918,4.125061035,1,0,0,rectangle,-2.520690918,4.125061035,1,0,0,4,3,0,0.002685,-2.520690918,4.125061035,1,0,0,0,47,47,117,1,,,,,,,,,,,,,,,,,,,,,
,,,,,,,,,,,,,,,,,,,,,,,,,,,,,,,,,,,,,,,,,,5f285902166da3151b01faf2,6036dbc2036206fd5ef973ec,2021-02-24_23h07.58.677,Colour_Similarity_Experiment,2020.2.10,MacIntel,60,6036d0d9a84aa1626184a6ef,16.94376578,16.73643137,16.67106161,16.68068557,16.67904918,16.69180693,,,,,,,,,,,,,,,,,,,,PF,weak,3,,,,,,,,0,0.616975,,,,,,,,,,,,,,,,,,,,,,,,,,,,3,weak,-26.53497314,97.33758545,1,0,0,response7disk,6,49,3.212646484,15.91052246,1,0,0,rectangle,3.212646484,15.91052246,1,0,0,4,6,0,0.003325,3.212646484,15.91052246,1,0,0,0,48,48,47,1,,,,,,,,,,,,,,,,,,,,,
,,,,,,,,,,,,,,,,,,,,,,,,,,,,,,,,,,,,,,,,,,5f285902166da3151b01faf2,6036dbc2036206fd5ef973ec,2021-02-24_23h07.58.677,Colour_Similarity_Experiment,2020.2.10,MacIntel,60,6036d0d9a84aa1626184a6ef,16.94376578,16.73643137,16.67106161,16.68068557,16.67904918,16.69180693,,,,,,,,,,,,,,,,,,,,PF,weak,3,,,,,,,,0,0.584065,,,,,,,,,,,,,,,,,,,,,,,,,,,,2,weak,-23.75891113,61.4954834,1,0,0,response7disk,6,50,-7.366088867,8.136901855,1,0,0,rectangle,-7.366088867,8.136901855,1,0,0,4,0,0,0.002435,-7.366088867,8.136901855,1,0,0,0,49,49,113,1,,,,,,,,,,,,,,,,,,,,,
,,,,,,,,,,,,,,,,,,,,,,,,,,,,,,,,,,,,,,,,,,5f285902166da3151b01faf2,6036dbc2036206fd5ef973ec,2021-02-24_23h07.58.677,Colour_Similarity_Experiment,2020.2.10,MacIntel,60,6036d0d9a84aa1626184a6ef,16.94376578,16.73643137,16.67106161,16.68068557,16.67904918,16.69180693,,,,,,,,,,,,,,,,,,,,PF,strong,3,,,,,,,,1,0.951005,,,,,,,,,,,,,,,,,,,,,,,,,,,,3,strong,-63.63690186,36.78082275,1,0,0,response7disk,7,51,10.84472656,-3.030273438,1,0,0,rectangle,10.84472656,-3.030273438,1,0,0,4,4,0,0.0033,10.84472656,-3.030273438,1,0,0,0,50,50,118,1,,,,,,,,,,,,,,,,,,,,,
,,,,,,,,,,,,,,,,,,,,,,,,,,,,,,,,,,,,,,,,,,5f285902166da3151b01faf2,6036dbc2036206fd5ef973ec,2021-02-24_23h07.58.677,Colour_Similarity_Experiment,2020.2.10,MacIntel,60,6036d0d9a84aa1626184a6ef,16.94376578,16.73643137,16.67106161,16.68068557,16.67904918,16.69180693,,,,,,,,,,,,,,,,,,,,PF,weak,3,,,,,,,,2,0.848295,,,,,,,,,,,,,,,,,,,,,,,,,,,,4,weak,-80.70263672,-26.89782715,1,0,0,response5disk,4,52,2.133178711,5.851623535,1,0,0,rectangle,2.133178711,5.851623535,1,0,0,4,6,0,0.00101,2.133178711,5.851623535,1,0,0,0,51,51,70,1,,,,,,,,,,,,,,,,,,,,,
,,,,,,,,,,,,,,,,,,,,,,,,,,,,,,,,,,,,,,,,,,5f285902166da3151b01faf2,6036dbc2036206fd5ef973ec,2021-02-24_23h07.58.677,Colour_Similarity_Experiment,2020.2.10,MacIntel,60,6036d0d9a84aa1626184a6ef,16.94376578,16.73643137,16.67106161,16.68068557,16.67904918,16.69180693,,,,,,,,,,,,,,,,,,,,PF,weak,3,,,,,,,,2,1.70094,,,,,,,,,,,,,,,,,,,,,,,,,,,,5,weak,-50.00537109,-41.88146973,1,0,0,response5disk,5,53,-2.816162109,-14.93310547,1,0,0,rectangle,-2.816162109,-14.93310547,1,0,0,4,0,0,0.0028,-2.816162109,-14.93310547,1,0,0,0,52,52,94,1,,,,,,,,,,,,,,,,,,,,,
,,,,,,,,,,,,,,,,,,,,,,,,,,,,,,,,,,,,,,,,,,5f285902166da3151b01faf2,6036dbc2036206fd5ef973ec,2021-02-24_23h07.58.677,Colour_Similarity_Experiment,2020.2.10,MacIntel,60,6036d0d9a84aa1626184a6ef,16.94376578,16.73643137,16.67106161,16.68068557,16.67904918,16.69180693,,,,,,,,,,,,,,,,,,,,PF,strong,3,,,,,,,,5,1.6509,,,,,,,,,,,,,,,,,,,,,,,,,,,,6,strong,53.26507568,-25.34698486,1,0,0,response3disk,2,54,-1.31842041,-0.846008301,1,0,0,rectangle,-1.31842041,-0.846008301,1,0,0,4,5,0,0.0037,-1.31842041,-0.846008301,1,0,0,0,53,53,112,1,,,,,,,,,,,,,,,,,,,,,
,,,,,,,,,,,,,,,,,,,,,,,,,,,,,,,,,,,,,,,,,,5f285902166da3151b01faf2,6036dbc2036206fd5ef973ec,2021-02-24_23h07.58.677,Colour_Similarity_Experiment,2020.2.10,MacIntel,60,6036d0d9a84aa1626184a6ef,16.94376578,16.73643137,16.67106161,16.68068557,16.67904918,16.69180693,,,,,,,,,,,,,,,,,,,,PF,strong,3,,,,,,,,6,3.301695,,,,,,,,,,,,,,,,,,,,,,,,,,,,3,strong,69.91430664,26.09771729,1,0,0,response1disk,5,55,8.98425293,3.390380859,1,0,0,rectangle,8.98425293,3.390380859,1,0,0,4,4,0,0.00309,8.98425293,3.390380859,1,0,0,0,54,54,101,1,,,,,,,,,,,,,,,,,,,,,
,,,,,,,,,,,,,,,,,,,,,,,,,,,,,,,,,,,,,,,,,,5f285902166da3151b01faf2,6036dbc2036206fd5ef973ec,2021-02-24_23h07.58.677,Colour_Similarity_Experiment,2020.2.10,MacIntel,60,6036d0d9a84aa1626184a6ef,16.94376578,16.73643137,16.67106161,16.68068557,16.67904918,16.69180693,,,,,,,,,,,,,,,,,,,,PF,weak,3,,,,,,,,2,1.79888,,,,,,,,,,,,,,,,,,,,,,,,,,,,9,weak,-56.91418457,-29.69509888,1,0,0,response5disk,7,56,15.45880127,6.774200439,1,0,0,rectangle,15.45880127,6.774200439,1,0,0,4,7,0,0.003055,15.45880127,6.774200439,1,0,0,0,55,55,121,1,,,,,,,,,,,,,,,,,,,,,
,,,,,,,,,,,,,,,,,,,,,,,,,,,,,,,,,,,,,,,,,,5f285902166da3151b01faf2,6036dbc2036206fd5ef973ec,2021-02-24_23h07.58.677,Colour_Similarity_Experiment,2020.2.10,MacIntel,60,6036d0d9a84aa1626184a6ef,16.94376578,16.73643137,16.67106161,16.68068557,16.67904918,16.69180693,,,,,,,,,,,,,,,,,,,,PF,strong,3,,,,,,,,5,4.65157,,,,,,,,,,,,,,,,,,,,,,,,,,,,5,strong,66.74560547,-39.95788574,1,0,0,response3disk,9,57,4.829345703,-1.60748291,1,0,0,rectangle,4.829345703,-1.60748291,1,0,0,4,3,0,0.00145,4.829345703,-1.60748291,1,0,0,0,56,56,61,1,,,,,,,,,,,,,,,,,,,,,
,,,,,,,,,,,,,,,,,,,,,,,,,,,,,,,,,,,,,,,,,,5f285902166da3151b01faf2,6036dbc2036206fd5ef973ec,2021-02-24_23h07.58.677,Colour_Similarity_Experiment,2020.2.10,MacIntel,60,6036d0d9a84aa1626184a6ef,16.94376578,16.73643137,16.67106161,16.68068557,16.67904918,16.69180693,,,,,,,,,,,,,,,,,,,,PF,weak,3,,,,,,,,0,1.464625,,,,,,,,,,,,,,,,,,,,,,,,,,,,4,weak,-41.1973877,46.5401001,1,0,0,response7disk,9,58,0.753662109,-7.548248291,1,0,0,rectangle,0.753662109,-7.548248291,1,0,0,4,0,0,0.002785,0.753662109,-7.548248291,1,0,0,0,57,57,75,1,,,,,,,,,,,,,,,,,,,,,
,,,,,,,,,,,,,,,,,,,,,,,,,,,,,,,,,,,,,,,,,,5f285902166da3151b01faf2,6036dbc2036206fd5ef973ec,2021-02-24_23h07.58.677,Colour_Similarity_Experiment,2020.2.10,MacIntel,60,6036d0d9a84aa1626184a6ef,16.94376578,16.73643137,16.67106161,16.68068557,16.67904918,16.69180693,,,,,,,,,,,,,,,,,,,,PF,strong,3,,,,,,,,2,3.984915,,,,,,,,,,,,,,,,,,,,,,,,,,,,3,strong,-44.30059814,-30.51226807,1,0,0,response5disk,2,59,1.088378906,-5.805908203,1,0,0,rectangle,1.088378906,-5.805908203,1,0,0,4,2,0,0.003365,1.088378906,-5.805908203,1,0,0,0,58,58,93,1,,,,,,,,,,,,,,,,,,,,,
,,,,,,,,,,,,,,,,,,,,,,,,,,,,,,,,,,,,,,,,,,5f285902166da3151b01faf2,6036dbc2036206fd5ef973ec,2021-02-24_23h07.58.677,Colour_Similarity_Experiment,2020.2.10,MacIntel,60,6036d0d9a84aa1626184a6ef,16.94376578,16.73643137,16.67106161,16.68068557,16.67904918,16.69180693,,,,,,,,,,,,,,,,,,,,PF,strong,3,,,,,,,,5,2.11724,,,,,,,,,,,,,,,,,,,,,,,,,,,,3,strong,47.45953369,-29.10284424,1,0,0,response3disk,6,60,19.13580322,-5.077819824,1,0,0,rectangle,19.13580322,-5.077819824,1,0,0,4,3,0,0.002325,19.13580322,-5.077819824,1,0,0,0,59,59,95,1,,,,,,,,,,,,,,,,,,,,,
,,,,,,,,,,,,,,,,,,,,,,,,,,,,,,,,,,,,,,,,,,5f285902166da3151b01faf2,6036dbc2036206fd5ef973ec,2021-02-24_23h07.58.677,Colour_Similarity_Experiment,2020.2.10,MacIntel,60,6036d0d9a84aa1626184a6ef,16.94376578,16.73643137,16.67106161,16.68068557,16.67904918,16.69180693,,,,,,,,,,,,,,,,,,,,PF,weak,3,,,,,,,,5,1.30035,,,,,,,,,,,,,,,,,,,,,,,,,,,,2,weak,69.48382568,-30.58059692,1,0,0,response3disk,1,61,6.407165527,-3.583068848,1,0,0,rectangle,6.407165527,-3.583068848,1,0,0,4,3,0,8E-05,6.407165527,-3.583068848,1,0,0,0,60,60,9,1,,,,,,,,,,,,,,,,,,,,,
,,,,,,,,,,,,,,,,,,,,,,,,,,,,,,,,,,,,,,,,,,5f285902166da3151b01faf2,6036dbc2036206fd5ef973ec,2021-02-24_23h07.58.677,Colour_Similarity_Experiment,2020.2.10,MacIntel,60,6036d0d9a84aa1626184a6ef,16.94376578,16.73643137,16.67106161,16.68068557,16.67904918,16.69180693,,,,,,,,,,,,,,,,,,,,PF,weak,3,,,,,,,,2,2.60053,,,,,,,,,,,,,,,,,,,,,,,,,,,,3,weak,-82.03668213,-48.89196777,1,0,0,response5disk,2,62,22.50610352,-2.091796875,1,0,0,rectangle,-88.61761475,33.91577148,1,0,0,1,1,1,1.4169,-5.81048584,7.116516113,1,0,0,0,61,61,36,1,response7disk_3,rectangle,,,,,,,,,,,,,,,,,,,
,,,,,,,,,,,,,,,,,,,,,,,,,,,,,,,,,,,,,,,,,,5f285902166da3151b01faf2,6036dbc2036206fd5ef973ec,2021-02-24_23h07.58.677,Colour_Similarity_Experiment,2020.2.10,MacIntel,60,6036d0d9a84aa1626184a6ef,16.94376578,16.73643137,16.67106161,16.68068557,16.67904918,16.69180693,,,,,,,,,,,,,,,,,,,,PF,weak,3,,,,,,,,4,1.433695,,,,,,,,,,,,,,,,,,,,,,,,,,,,9,weak,43.78863525,-58.25909424,1,0,0,response3disk,5,63,4.952087402,-7.25567627,1,0,0,rectangle,4.952087402,-7.25567627,1,0,0,1,3,0,0.003415,4.952087402,-7.25567627,1,0,0,0,62,62,134,1,,,,,,,,,,,,,,,,,,,,,
,,,,,,,,,,,,,,,,,,,,,,,,,,,,,,,,,,,,,,,,,,5f285902166da3151b01faf2,6036dbc2036206fd5ef973ec,2021-02-24_23h07.58.677,Colour_Similarity_Experiment,2020.2.10,MacIntel,60,6036d0d9a84aa1626184a6ef,16.94376578,16.73643137,16.67106161,16.68068557,16.67904918,16.69180693,,,,,,,,,,,,,,,,,,,,PF,strong,3,,,,,,,,6,2.213745,,,,,,,,,,,,,,,,,,,,,,,,,,,,7,strong,102.2572021,17.23532104,1,0,0,response1disk,1,64,16.34844971,6.069519043,1,0,0,rectangle,16.34844971,6.069519043,1,0,0,1,1,0,0.002625,16.34844971,6.069519043,1,0,0,0,63,63,132,1,,,,,,,,,,,,,,,,,,,,,
,,,,,,,,,,,,,,,,,,,,,,,,,,,,,,,,,,,,,,,,,,5f285902166da3151b01faf2,6036dbc2036206fd5ef973ec,2021-02-24_23h07.58.677,Colour_Similarity_Experiment,2020.2.10,MacIntel,60,6036d0d9a84aa1626184a6ef,16.94376578,16.73643137,16.67106161,16.68068557,16.67904918,16.69180693,,,,,,,,,,,,,,,,,,,,PF,weak,3,,,,,,,,4,3.93529,,,,,,,,,,,,,,,,,,,,,,,,,,,,3,weak,31.07598877,-72.21972656,1,0,0,response3disk,9,65,13.3470459,-0.574249268,1,0,0,rectangle,13.3470459,-0.574249268,1,0,0,1,5,0,0.005695,13.3470459,-0.574249268,1,0,0,0,64,64,79,1,,,,,,,,,,,,,,,,,,,,,
,,,,,,,,,,,,,,,,,,,,,,,,,,,,,,,,,,,,,,,,,,5f285902166da3151b01faf2,6036dbc2036206fd5ef973ec,2021-02-24_23h07.58.677,Colour_Similarity_Experiment,2020.2.10,MacIntel,60,6036d0d9a84aa1626184a6ef,16.94376578,16.73643137,16.67106161,16.68068557,16.67904918,16.69180693,,,,,,,,,,,,,,,,,,,,PF,strong,3,,,,,,,,2,3.33221,,,,,,,,,,,,,,,,,,,,,,,,,,,,6,strong,-66.05444336,-37.58340454,1,0,0,response5disk,1,66,7.152954102,-11.20761108,1,0,0,rectangle,7.152954102,-11.20761108,1,0,0,1,6,0,0.001355,7.152954102,-11.20761108,1,0,0,0,65,65,5,1,,,,,,,,,,,,,,,,,,,,,
,,,,,,,,,,,,,,,,,,,,,,,,,,,,,,,,,,,,,,,,,,5f285902166da3151b01faf2,6036dbc2036206fd5ef973ec,2021-02-24_23h07.58.677,Colour_Similarity_Experiment,2020.2.10,MacIntel,60,6036d0d9a84aa1626184a6ef,16.94376578,16.73643137,16.67106161,16.68068557,16.67904918,16.69180693,,,,,,,,,,,,,,,,,,,,PF,strong,3,,,,,,,,4,2.88497,,,,,,,,,,,,,,,,,,,,,,,,,,,,6,strong,18.17669678,-47.19595337,1,0,0,response3disk,4,67,-8.322937012,5.323303223,1,0,0,rectangle,-8.322937012,5.323303223,1,0,0,1,5,0,0.00279,-8.322937012,5.323303223,1,0,0,0,66,66,56,1,,,,,,,,,,,,,,,,,,,,,
,,,,,,,,,,,,,,,,,,,,,,,,,,,,,,,,,,,,,,,,,,5f285902166da3151b01faf2,6036dbc2036206fd5ef973ec,2021-02-24_23h07.58.677,Colour_Similarity_Experiment,2020.2.10,MacIntel,60,6036d0d9a84aa1626184a6ef,16.94376578,16.73643137,16.67106161,16.68068557,16.67904918,16.69180693,,,,,,,,,,,,,,,,,,,,PF,strong,3,,,,,,,,4,6.736535,,,,,,,,,,,,,,,,,,,,,,,,,,,,9,strong,55.12866211,-63.44454956,1,0,0,response3disk,5,68,17.77502441,3.336242676,1,0,0,rectangle,17.77502441,3.336242676,1,0,0,1,1,0,0.002585,17.77502441,3.336242676,1,0,0,0,67,67,128,1,,,,,,,,,,,,,,,,,,,,,
,,,,,,,,,,,,,,,,,,,,,,,,,,,,,,,,,,,,,,,,,,5f285902166da3151b01faf2,6036dbc2036206fd5ef973ec,2021-02-24_23h07.58.677,Colour_Similarity_Experiment,2020.2.10,MacIntel,60,6036d0d9a84aa1626184a6ef,16.94376578,16.73643137,16.67106161,16.68068557,16.67904918,16.69180693,,,,,,,,,,,,,,,,,,,,PF,weak,3,,,,,,,,1,3.85168,,,,,,,,,,,,,,,,,,,,,,,,,,,,8,weak,-79.86889648,47.32058716,1,0,0,response7disk,3,69,4.671813965,3.248718262,1,0,0,rectangle,4.671813965,3.248718262,1,0,0,1,5,0,0.002855,4.671813965,3.248718262,1,0,0,0,68,68,71,1,,,,,,,,,,,,,,,,,,,,,
,,,,,,,,,,,,,,,,,,,,,,,,,,,,,,,,,,,,,,,,,,5f285902166da3151b01faf2,6036dbc2036206fd5ef973ec,2021-02-24_23h07.58.677,Colour_Similarity_Experiment,2020.2.10,MacIntel,60,6036d0d9a84aa1626184a6ef,16.94376578,16.73643137,16.67106161,16.68068557,16.67904918,16.69180693,,,,,,,,,,,,,,,,,,,,PF,weak,3,,,,,,,,4,5.218535,,,,,,,,,,,,,,,,,,,,,,,,,,,,6,weak,23.38238525,-69.47406006,1,0,0,response3disk,2,70,-1.145324707,2.96484375,1,0,0,rectangle,-1.145324707,2.96484375,1,0,0,1,6,0,0.00291,-1.145324707,2.96484375,1,0,0,0,69,69,130,1,,,,,,,,,,,,,,,,,,,,,
,,,,,,,,,,,,,,,,,,,,,,,,,,,,,,,,,,,,,,,,,,5f285902166da3151b01faf2,6036dbc2036206fd5ef973ec,2021-02-24_23h07.58.677,Colour_Similarity_Experiment,2020.2.10,MacIntel,60,6036d0d9a84aa1626184a6ef,16.94376578,16.73643137,16.67106161,16.68068557,16.67904918,16.69180693,,,,,,,,,,,,,,,,,,,,PF,strong,3,,,,,,,,4,2.98419,,,,,,,,,,,,,,,,,,,,,,,,,,,,9,strong,28.69219971,-85.29150391,1,0,0,response3disk,3,71,24.57666016,-0.903839111,1,0,0,rectangle,24.57666016,-0.903839111,1,0,0,1,0,0,0.0018,24.57666016,-0.903839111,1,0,0,0,70,70,141,1,,,,,,,,,,,,,,,,,,,,,
,,,,,,,,,,,,,,,,,,,,,,,,,,,,,,,,,,,,,,,,,,5f285902166da3151b01faf2,6036dbc2036206fd5ef973ec,2021-02-24_23h07.58.677,Colour_Similarity_Experiment,2020.2.10,MacIntel,60,6036d0d9a84aa1626184a6ef,16.94376578,16.73643137,16.67106161,16.68068557,16.67904918,16.69180693,,,,,,,,,,,,,,,,,,,,PF,strong,3,,,,,,,,0,1.74987,,,,,,,,,,,,,,,,,,,,,,,,,,,,5,strong,-36.97644043,64.46307373,1,0,0,response7disk,3,72,1.912475586,-4.411987305,1,0,0,rectangle,1.912475586,-4.411987305,1,0,0,1,7,0,0.00249,1.912475586,-4.411987305,1,0,0,0,71,71,25,1,,,,,,,,,,,,,,,,,,,,,
,,,,,,,,,,,,,,,,,,,,,,,,,,,,,,,,,,,,,,,,,,5f285902166da3151b01faf2,6036dbc2036206fd5ef973ec,2021-02-24_23h07.58.677,Colour_Similarity_Experiment,2020.2.10,MacIntel,60,6036d0d9a84aa1626184a6ef,16.94376578,16.73643137,16.67106161,16.68068557,16.67904918,16.69180693,,,,,,,,,,,,,,,,,,,,PF,strong,3,,,,,,,,1,1.583495,,,,,,,,,,,,,,,,,,,,,,,,,,,,6,strong,-83.86914063,29.04412842,1,0,0,response7disk,5,73,-15.95367432,5.951721191,1,0,0,rectangle,-15.95367432,5.951721191,1,0,0,1,5,0,0.00209,-15.95367432,5.951721191,1,0,0,0,72,72,126,1,,,,,,,,,,,,,,,,,,,,,
,,,,,,,,,,,,,,,,,,,,,,,,,,,,,,,,,,,,,,,,,,5f285902166da3151b01faf2,6036dbc2036206fd5ef973ec,2021-02-24_23h07.58.677,Colour_Similarity_Experiment,2020.2.10,MacIntel,60,6036d0d9a84aa1626184a6ef,16.94376578,16.73643137,16.67106161,16.68068557,16.67904918,16.69180693,,,,,,,,,,,,,,,,,,,,PF,weak,3,,,,,,,,3,1.51673,,,,,,,,,,,,,,,,,,,,,,,,,,,,1,weak,-34.88970947,-79.27636719,1,0,0,response5disk,6,74,15.17266846,15.65890503,1,0,0,rectangle,15.17266846,15.65890503,1,0,0,7,5,0,0.000145,15.17266846,15.65890503,1,0,0,0,73,73,144,1,,,,,,,,,,,,,,,,,,,,,
,,,,,,,,,,,,,,,,,,,,,,,,,,,,,,,,,,,,,,,,,,5f285902166da3151b01faf2,6036dbc2036206fd5ef973ec,2021-02-24_23h07.58.677,Colour_Similarity_Experiment,2020.2.10,MacIntel,60,6036d0d9a84aa1626184a6ef,16.94376578,16.73643137,16.67106161,16.68068557,16.67904918,16.69180693,,,,,,,,,,,,,,,,,,,,PF,strong,3,,,,,,,,6,4.486585,,,,,,,,,,,,,,,,,,,,,,,,,,,,5,strong,75.91589355,19.8505249,1,0,0,response1disk,2,75,-10.97692871,-5.104614258,1,0,0,rectangle,40.02941895,-89.3684082,1,0,0,4,4,1,1.199435,15.87823486,3.273284912,1,0,0,0,74,74,55,1,response3disk_3,rectangle,,,,,,,,,,,,,,,,,,,
,,,,,,,,,,,,,,,,,,,,,,,,,,,,,,,,,,,,,,,,,,5f285902166da3151b01faf2,6036dbc2036206fd5ef973ec,2021-02-24_23h07.58.677,Colour_Similarity_Experiment,2020.2.10,MacIntel,60,6036d0d9a84aa1626184a6ef,16.94376578,16.73643137,16.67106161,16.68068557,16.67904918,16.69180693,,,,,,,,,,,,,,,,,,,,PF,strong,3,,,,,,,,3,3.632465,,,,,,,,,,,,,,,,,,,,,,,,,,,,6,strong,-37.76904297,-65.82336426,1,0,0,response5disk,3,76,6.268005371,-12.83721924,1,0,0,rectangle,6.268005371,-12.83721924,1,0,0,4,2,0,0.000965,6.268005371,-12.83721924,1,0,0,0,75,75,21,1,,,,,,,,,,,,,,,,,,,,,
,,,,,,,,,,,,,,,,,,,,,,,,,,,,,,,,,,,,,,,,,,5f285902166da3151b01faf2,6036dbc2036206fd5ef973ec,2021-02-24_23h07.58.677,Colour_Similarity_Experiment,2020.2.10,MacIntel,60,6036d0d9a84aa1626184a6ef,16.94376578,16.73643137,16.67106161,16.68068557,16.67904918,16.69180693,,,,,,,,,,,,,,,,,,,,PF,strong,3,,,,,,,,4,5.14993,,,,,,,,,,,,,,,,,,,,,,,,,,,,8,strong,36.89819336,-59.01947021,1,0,0,response3disk,2,77,10.92852783,-0.999145508,1,0,0,rectangle,10.92852783,-0.999145508,1,0,0,4,2,0,9E-05,10.92852783,-0.999145508,1,0,0,0,76,76,22,1,,,,,,,,,,,,,,,,,,,,,
,,,,,,,,,,,,,,,,,,,,,,,,,,,,,,,,,,,,,,,,,,5f285902166da3151b01faf2,6036dbc2036206fd5ef973ec,2021-02-24_23h07.58.677,Colour_Similarity_Experiment,2020.2.10,MacIntel,60,6036d0d9a84aa1626184a6ef,16.94376578,16.73643137,16.67106161,16.68068557,16.67904918,16.69180693,,,,,,,,,,,,,,,,,,,,PF,weak,3,,,,,,,,5,4.785855,,,,,,,,,,,,,,,,,,,,,,,,,,,,1,weak,65.13354492,-43.74493408,1,0,0,response3disk,3,78,7.86114502,-4.265136719,1,0,0,rectangle,7.86114502,-4.265136719,1,0,0,4,1,0,0.0027,7.86114502,-4.265136719,1,0,0,0,77,77,1,1,,,,,,,,,,,,,,,,,,,,,
,,,,,,,,,,,,,,,,,,,,,,,,,,,,,,,,,,,,,,,,,,5f285902166da3151b01faf2,6036dbc2036206fd5ef973ec,2021-02-24_23h07.58.677,Colour_Similarity_Experiment,2020.2.10,MacIntel,60,6036d0d9a84aa1626184a6ef,16.94376578,16.73643137,16.67106161,16.68068557,16.67904918,16.69180693,,,,,,,,,,,,,,,,,,,,PF,weak,3,,,,,,,,5,2.132125,,,,,,,,,,,,,,,,,,,,,,,,,,,,7,weak,71.0067749,-47.06854248,1,0,0,response3disk,2,79,6.990783691,-5.829040527,1,0,0,rectangle,6.990783691,-5.829040527,1,0,0,4,1,0,0.000135,6.990783691,-5.829040527,1,0,0,0,78,78,32,1,,,,,,,,,,,,,,,,,,,,,
,,,,,,,,,,,,,,,,,,,,,,,,,,,,,,,,,,,,,,,,,,5f285902166da3151b01faf2,6036dbc2036206fd5ef973ec,2021-02-24_23h07.58.677,Colour_Similarity_Experiment,2020.2.10,MacIntel,60,6036d0d9a84aa1626184a6ef,16.94376578,16.73643137,16.67106161,16.68068557,16.67904918,16.69180693,,,,,,,,,,,,,,,,,,,,PF,strong,3,,,,,,,,5,3.23321,,,,,,,,,,,,,,,,,,,,,,,,,,,,9,strong,70.69750977,-37.1907959,1,0,0,response3disk,4,80,4.548461914,3.449035645,1,0,0,rectangle,4.548461914,3.449035645,1,0,0,4,2,0,0.002885,4.548461914,3.449035645,1,0,0,0,79,79,60,1,,,,,,,,,,,,,,,,,,,,,
,,,,,,,,,,,,,,,,,,,,,,,,,,,,,,,,,,,,,,,,,,5f285902166da3151b01faf2,6036dbc2036206fd5ef973ec,2021-02-24_23h07.58.677,Colour_Similarity_Experiment,2020.2.10,MacIntel,60,6036d0d9a84aa1626184a6ef,16.94376578,16.73643137,16.67106161,16.68068557,16.67904918,16.69180693,,,,,,,,,,,,,,,,,,,,PF,strong,3,,,,,,,,4,5.54986,,,,,,,,,,,,,,,,,,,,,,,,,,,,1,strong,21.1171875,-92.69952393,1,0,0,response3disk,8,81,2.816955566,0.617980957,1,0,0,rectangle,2.816955566,0.617980957,1,0,0,4,3,0,0.003575,2.816955566,0.617980957,1,0,0,0,80,80,27,1,,,,,,,,,,,,,,,,,,,,,
,,,,,,,,,,,,,,,,,,,,,,,,,,,,,,,,,,,,,,,,,,5f285902166da3151b01faf2,6036dbc2036206fd5ef973ec,2021-02-24_23h07.58.677,Colour_Similarity_Experiment,2020.2.10,MacIntel,60,6036d0d9a84aa1626184a6ef,16.94376578,16.73643137,16.67106161,16.68068557,16.67904918,16.69180693,,,,,,,,,,,,,,,,,,,,PF,weak,3,,,,,,,,5,6.584265,,,,,,,,,,,,,,,,,,,,,,,,,,,,7,weak,66.51983643,-49.3616333,1,0,0,response3disk,5,82,-5.233154297,4.871520996,1,0,0,rectangle,-5.233154297,4.871520996,1,0,0,4,6,0,0.003745,-5.233154297,4.871520996,1,0,0,0,81,81,92,1,,,,,,,,,,,,,,,,,,,,,
,,,,,,,,,,,,,,,,,,,,,,,,,,,,,,,,,,,,,,,,,,5f285902166da3151b01faf2,6036dbc2036206fd5ef973ec,2021-02-24_23h07.58.677,Colour_Similarity_Experiment,2020.2.10,MacIntel,60,6036d0d9a84aa1626184a6ef,16.94376578,16.73643137,16.67106161,16.68068557,16.67904918,16.69180693,,,,,,,,,,,,,,,,,,,,PF,strong,3,,,,,,,,0,2.45062,,,,,,,,,,,,,,,,,,,,,,,,,,,,8,strong,-40.54418945,56.07794189,1,0,0,response7disk,5,83,-1.091918945,-11.63183594,1,0,0,rectangle,-1.091918945,-11.63183594,1,0,0,4,7,0,0.005345,-1.091918945,-11.63183594,1,0,0,0,82,82,152,1,,,,,,,,,,,,,,,,,,,,,
,,,,,,,,,,,,,,,,,,,,,,,,,,,,,,,,,,,,,,,,,,5f285902166da3151b01faf2,6036dbc2036206fd5ef973ec,2021-02-24_23h07.58.677,Colour_Similarity_Experiment,2020.2.10,MacIntel,60,6036d0d9a84aa1626184a6ef,16.94376578,16.73643137,16.67106161,16.68068557,16.67904918,16.69180693,,,,,,,,,,,,,,,,,,,,PF,weak,3,,,,,,,,5,4.601605,,,,,,,,,,,,,,,,,,,,,,,,,,,,9,weak,76.25524902,-40.82873535,1,0,0,response3disk,8,84,-10.31951904,-12.28500366,1,0,0,rectangle,-10.31951904,-12.28500366,1,0,0,4,4,0,0.00095,-10.31951904,-12.28500366,1,0,0,0,83,83,67,1,,,,,,,,,,,,,,,,,,,,,
,,,,,,,,,,,,,,,,,,,,,,,,,,,,,,,,,,,,,,,,,,5f285902166da3151b01faf2,6036dbc2036206fd5ef973ec,2021-02-24_23h07.58.677,Colour_Similarity_Experiment,2020.2.10,MacIntel,60,6036d0d9a84aa1626184a6ef,16.94376578,16.73643137,16.67106161,16.68068557,16.67904918,16.69180693,,,,,,,,,,,,,,,,,,,,PF,strong,3,,,,,,,,4,3.21771,,,,,,,,,,,,,,,,,,,,,,,,,,,,7,strong,25.55548096,-93.52053833,1,0,0,response3disk,2,85,0.990539551,8.739074707,1,0,0,rectangle,0.990539551,8.739074707,1,0,0,4,2,0,0.005435,0.990539551,8.739074707,1,0,0,0,84,84,138,1,,,,,,,,,,,,,,,,,,,,,
,,,,,,,,,,,,,,,,,,,,,,,,,,,,,,,,,,,,,,,,,,5f285902166da3151b01faf2,6036dbc2036206fd5ef973ec,2021-02-24_23h07.58.677,Colour_Similarity_Experiment,2020.2.10,MacIntel,60,6036d0d9a84aa1626184a6ef,16.94376578,16.73643137,16.67106161,16.68068557,16.67904918,16.69180693,,,,,,,,,,,,,,,,,,,,PF,weak,3,,,,,,,,2,3.132295,,,,,,,,,,,,,,,,,,,,,,,,,,,,6,weak,-74.18078613,-26.53494263,1,0,0,response5disk,1,86,31.98443604,-0.924743652,1,0,0,rectangle,31.98443604,-0.924743652,1,0,0,4,5,0,0.00346,31.98443604,-0.924743652,1,0,0,0,85,85,46,1,,,,,,,,,,,,,,,,,,,,,
,,,,,,,,,,,,,,,,,,,,,,,,,,,,,,,,,,,,,,,,,,5f285902166da3151b01faf2,6036dbc2036206fd5ef973ec,2021-02-24_23h07.58.677,Colour_Similarity_Experiment,2020.2.10,MacIntel,60,6036d0d9a84aa1626184a6ef,16.94376578,16.73643137,16.67106161,16.68068557,16.67904918,16.69180693,,,,,,,,,,,,,,,,,,,,PF,weak,3,,,,,,,,0,1.317055,,,,,,,,,,,,,,,,,,,,,,,,,,,,5,weak,-48.87750244,70.23425293,1,0,0,response7disk,2,87,-6.13848877,-13.64215088,1,0,0,rectangle,-6.13848877,-13.64215088,1,0,0,4,4,0,0.00095,-6.13848877,-13.64215088,1,0,0,0,86,86,129,1,,,,,,,,,,,,,,,,,,,,,
,,,,,,,,,,,,,,,,,,,,,,,,,,,,,,,,,,,,,,,,,,5f285902166da3151b01faf2,6036dbc2036206fd5ef973ec,2021-02-24_23h07.58.677,Colour_Similarity_Experiment,2020.2.10,MacIntel,60,6036d0d9a84aa1626184a6ef,16.94376578,16.73643137,16.67106161,16.68068557,16.67904918,16.69180693,,,,,,,,,,,,,,,,,,,,PF,weak,3,,,,,,,,5,8.552435,,,,,,,,,,,,,,,,,,,,,,,,,,,,1,weak,90.89050293,-63.378479,1,0,0,response3disk,8,88,22.66107178,-5.067199707,1,0,0,rectangle,22.66107178,-5.067199707,1,0,0,4,3,0,0.00167,22.66107178,-5.067199707,1,0,0,0,87,87,65,1,,,,,,,,,,,,,,,,,,,,,
,,,,,,,,,,,,,,,,,,,,,,,,,,,,,,,,,,,,,,,,,,5f285902166da3151b01faf2,6036dbc2036206fd5ef973ec,2021-02-24_23h07.58.677,Colour_Similarity_Experiment,2020.2.10,MacIntel,60,6036d0d9a84aa1626184a6ef,16.94376578,16.73643137,16.67106161,16.68068557,16.67904918,16.69180693,,,,,,,,,,,,,,,,,,,,PF,strong,3,,,,,,,,0,1.21706,,,,,,,,,,,,,,,,,,,,,,,,,,,,8,strong,-38.98858643,76.52844238,1,0,0,response7disk,8,89,-10.7020874,5.474609375,1,0,0,rectangle,-10.7020874,5.474609375,1,0,0,4,4,0,0.005755,-10.7020874,5.474609375,1,0,0,0,88,88,48,1,,,,,,,,,,,,,,,,,,,,,
,,,,,,,,,,,,,,,,,,,,,,,,,,,,,,,,,,,,,,,,,,5f285902166da3151b01faf2,6036dbc2036206fd5ef973ec,2021-02-24_23h07.58.677,Colour_Similarity_Experiment,2020.2.10,MacIntel,60,6036d0d9a84aa1626184a6ef,16.94376578,16.73643137,16.67106161,16.68068557,16.67904918,16.69180693,,,,,,,,,,,,,,,,,,,,PF,weak,3,,,,,,,,6,6.03417,,,,,,,,,,,,,,,,,,,,,,,,,,,,4,weak,80.44976807,22.77377319,1,0,0,response1disk,2,90,-14.20288086,8.007537842,1,0,0,rectangle,-14.20288086,8.007537842,1,0,0,4,7,0,0.002135,-14.20288086,8.007537842,1,0,0,0,89,89,108,1,,,,,,,,,,,,,,,,,,,,,
,,,,,,,,,,,,,,,,,,,,,,,,,,,,,,,,,,,,,,,,,,5f285902166da3151b01faf2,6036dbc2036206fd5ef973ec,2021-02-24_23h07.58.677,Colour_Similarity_Experiment,2020.2.10,MacIntel,60,6036d0d9a84aa1626184a6ef,16.94376578,16.73643137,16.67106161,16.68068557,16.67904918,16.69180693,,,,,,,,,,,,,,,,,,,,PF,strong,3,,,,,,,,7,6.30247,,,,,,,,,,,,,,,,,,,,,,,,,,,,9,strong,55.58026123,89.02432251,1,0,0,response1disk,7,91,7.40612793,2.603759766,1,0,0,rectangle,7.40612793,2.603759766,1,0,0,4,6,0,0.00233,7.40612793,2.603759766,1,0,0,0,90,90,100,1,,,,,,,,,,,,,,,,,,,,,
,,,,,,,,,,,,,,,,,,,,,,,,,,,,,,,,,,,,,,,,,,5f285902166da3151b01faf2,6036dbc2036206fd5ef973ec,2021-02-24_23h07.58.677,Colour_Similarity_Experiment,2020.2.10,MacIntel,60,6036d0d9a84aa1626184a6ef,16.94376578,16.73643137,16.67106161,16.68068557,16.67904918,16.69180693,,,,,,,,,,,,,,,,,,,,PF,weak,3,,,,,,,,7,2.985115,,,,,,,,,,,,,,,,,,,,,,,,,,,,7,weak,49.62518311,64.56085205,1,0,0,response1disk,9,92,13.42181396,-11.1803894,1,0,0,rectangle,13.42181396,-11.1803894,1,0,0,4,4,0,0.002655,13.42181396,-11.1803894,1,0,0,0,91,91,10,1,,,,,,,,,,,,,,,,,,,,,
,,,,,,,,,,,,,,,,,,,,,,,,,,,,,,,,,,,,,,,,,,5f285902166da3151b01faf2,6036dbc2036206fd5ef973ec,2021-02-24_23h07.58.677,Colour_Similarity_Experiment,2020.2.10,MacIntel,60,6036d0d9a84aa1626184a6ef,16.94376578,16.73643137,16.67106161,16.68068557,16.67904918,16.69180693,,,,,,,,,,,,,,,,,,,,PF,weak,3,,,,,,,,4,5.08475,,,,,,,,,,,,,,,,,,,,,,,,,,,,1,weak,40.1675415,-61.21307373,1,0,0,response3disk,5,93,-3.230285645,-2.783630371,1,0,0,rectangle,-3.230285645,-2.783630371,1,0,0,4,2,0,0.003805,-3.230285645,-2.783630371,1,0,0,0,92,92,28,1,,,,,,,,,,,,,,,,,,,,,
,,,,,,,,,,,,,,,,,,,,,,,,,,,,,,,,,,,,,,,,,,5f285902166da3151b01faf2,6036dbc2036206fd5ef973ec,2021-02-24_23h07.58.677,Colour_Similarity_Experiment,2020.2.10,MacIntel,60,6036d0d9a84aa1626184a6ef,16.94376578,16.73643137,16.67106161,16.68068557,16.67904918,16.69180693,,,,,,,,,,,,,,,,,,,,PF,strong,3,,,,,,,,5,3.183455,,,,,,,,,,,,,,,,,,,,,,,,,,,,4,strong,97.94488525,-50.04797363,1,0,0,response3disk,6,94,-5.197387695,-2.075256348,1,0,0,rectangle,-5.197387695,-2.075256348,1,0,0,4,5,0,0.003295,-5.197387695,-2.075256348,1,0,0,0,93,93,122,1,,,,,,,,,,,,,,,,,,,,,
,,,,,,,,,,,,,,,,,,,,,,,,,,,,,,,,,,,,,,,,,,5f285902166da3151b01faf2,6036dbc2036206fd5ef973ec,2021-02-24_23h07.58.677,Colour_Similarity_Experiment,2020.2.10,MacIntel,60,6036d0d9a84aa1626184a6ef,16.94376578,16.73643137,16.67106161,16.68068557,16.67904918,16.69180693,,,,,,,,,,,,,,,,,,,,PF,weak,3,,,,,,,,2,2.78621,,,,,,,,,,,,,,,,,,,,,,,,,,,,3,weak,-48.29101563,-25.55148315,1,0,0,response5disk,7,95,16.00982666,9.490447998,1,0,0,rectangle,16.00982666,9.490447998,1,0,0,4,4,0,0.002865,16.00982666,9.490447998,1,0,0,0,94,94,41,1,,,,,,,,,,,,,,,,,,,,,
,,,,,,,,,,,,,,,,,,,,,,,,,,,,,,,,,,,,,,,,,,5f285902166da3151b01faf2,6036dbc2036206fd5ef973ec,2021-02-24_23h07.58.677,Colour_Similarity_Experiment,2020.2.10,MacIntel,60,6036d0d9a84aa1626184a6ef,16.94376578,16.73643137,16.67106161,16.68068557,16.67904918,16.69180693,,,,,,,,,,,,,,,,,,,,PF,weak,3,,,,,,,,5,2.66585,,,,,,,,,,,,,,,,,,,,,,,,,,,,4,weak,75.92877197,-38.76730347,1,0,0,response3disk,5,96,16.53283691,-6.547363281,1,0,0,rectangle,16.53283691,-6.547363281,1,0,0,4,5,0,0.003235,16.53283691,-6.547363281,1,0,0,0,95,95,49,1,,,,,,,,,,,,,,,,,,,,,
,,,,,,,,,,,,,,,,,,,,,,,,,,,,,,,,,,,,,,,,,,5f285902166da3151b01faf2,6036dbc2036206fd5ef973ec,2021-02-24_23h07.58.677,Colour_Similarity_Experiment,2020.2.10,MacIntel,60,6036d0d9a84aa1626184a6ef,16.94376578,16.73643137,16.67106161,16.68068557,16.67904918,16.69180693,,,,,,,,,,,,,,,,,,,,PF,strong,3,,,,,,,,6,3.354895,,,,,,,,,,,,,,,,,,,,,,,,,,,,2,strong,74.37139893,33.03805542,1,0,0,response1disk,1,97,9.958129883,11.35067749,1,0,0,rectangle,9.958129883,11.35067749,1,0,0,4,7,0,0.01466,9.958129883,11.35067749,1,0,0,0,96,96,85,1,,,,,,,,,,,,,,,,,,,,,
,,,,,,,,,,,,,,,,,,,,,,,,,,,,,,,,,,,,,,,,,,5f285902166da3151b01faf2,6036dbc2036206fd5ef973ec,2021-02-24_23h07.58.677,Colour_Similarity_Experiment,2020.2.10,MacIntel,60,6036d0d9a84aa1626184a6ef,16.94376578,16.73643137,16.67106161,16.68068557,16.67904918,16.69180693,,,,,,,,,,,,,,,,,,,,PF,weak,3,,,,,,,,0,1.44853,,,,,,,,,,,,,,,,,,,,,,,,,,,,4,weak,-44.5378418,94.43780518,1,0,0,response7disk,1,98,20.94732666,-11.08721924,1,0,0,rectangle,20.94732666,-11.08721924,1,0,0,4,0,0,0.00157,20.94732666,-11.08721924,1,0,0,0,97,97,115,1,,,,,,,,,,,,,,,,,,,,,
,,,,,,,,,,,,,,,,,,,,,,,,,,,,,,,,,,,,,,,,,,5f285902166da3151b01faf2,6036dbc2036206fd5ef973ec,2021-02-24_23h07.58.677,Colour_Similarity_Experiment,2020.2.10,MacIntel,60,6036d0d9a84aa1626184a6ef,16.94376578,16.73643137,16.67106161,16.68068557,16.67904918,16.69180693,,,,,,,,,,,,,,,,,,,,PF,weak,3,,,,,,,,0,1.100265,,,,,,,,,,,,,,,,,,,,,,,,,,,,9,weak,-32.86694336,72.90216064,1,0,0,response7disk,1,99,-2.484558105,-2.423583984,1,0,0,rectangle,-2.484558105,-2.423583984,1,0,0,4,2,0,0.003125,-2.484558105,-2.423583984,1,0,0,0,98,98,74,1,,,,,,,,,,,,,,,,,,,,,
,,,,,,,,,,,,,,,,,,,,,,,,,,,,,,,,,,,,,,,,,,5f285902166da3151b01faf2,6036dbc2036206fd5ef973ec,2021-02-24_23h07.58.677,Colour_Similarity_Experiment,2020.2.10,MacIntel,60,6036d0d9a84aa1626184a6ef,16.94376578,16.73643137,16.67106161,16.68068557,16.67904918,16.69180693,,,,,,,,,,,,,,,,,,,,PF,weak,3,,,,,,,,4,2.334615,,,,,,,,,,,,,,,,,,,,,,,,,,,,2,weak,28.71343994,-81.44036865,1,0,0,response3disk,4,100,13.24633789,2.539123535,1,0,0,rectangle,13.24633789,2.539123535,1,0,0,4,1,0,0.002615,13.24633789,2.539123535,1,0,0,0,99,99,127,1,,,,,,,,,,,,,,,,,,,,,
,,,,,,,,,,,,,,,,,,,,,,,,,,,,,,,,,,,,,,,,,,5f285902166da3151b01faf2,6036dbc2036206fd5ef973ec,2021-02-24_23h07.58.677,Colour_Similarity_Experiment,2020.2.10,MacIntel,60,6036d0d9a84aa1626184a6ef,16.94376578,16.73643137,16.67106161,16.68068557,16.67904918,16.69180693,,,,,,,,,,,,,,,,,,,,PF,strong,3,,,,,,,,4,2.78444,,,,,,,,,,,,,,,,,,,,,,,,,,,,2,strong,30.21759033,-71.26708984,1,0,0,response3disk,2,101,6.520324707,1.406311035,1,0,0,rectangle,6.520324707,1.406311035,1,0,0,4,0,0,0.00228,6.520324707,1.406311035,1,0,0,0,100,100,142,1,,,,,,,,,,,,,,,,,,,,,
,,,,,,,,,,,,,,,,,,,,,,,,,,,,,,,,,,,,,,,,,,5f285902166da3151b01faf2,6036dbc2036206fd5ef973ec,2021-02-24_23h07.58.677,Colour_Similarity_Experiment,2020.2.10,MacIntel,60,6036d0d9a84aa1626184a6ef,16.94376578,16.73643137,16.67106161,16.68068557,16.67904918,16.69180693,,,,,,,,,,,,,,,,,,,,PF,strong,3,,,,,,,,5,1.65031,,,,,,,,,,,,,,,,,,,,,,,,,,,,4,strong,67.92663574,-40.42706299,1,0,0,response3disk,8,102,8.596618652,-7.462554932,1,0,0,rectangle,8.596618652,-7.462554932,1,0,0,4,7,0,0.001065,8.596618652,-7.462554932,1,0,0,0,101,101,35,1,,,,,,,,,,,,,,,,,,,,,
,,,,,,,,,,,,,,,,,,,,,,,,,,,,,,,,,,,,,,,,,,5f285902166da3151b01faf2,6036dbc2036206fd5ef973ec,2021-02-24_23h07.58.677,Colour_Similarity_Experiment,2020.2.10,MacIntel,60,6036d0d9a84aa1626184a6ef,16.94376578,16.73643137,16.67106161,16.68068557,16.67904918,16.69180693,,,,,,,,,,,,,,,,,,,,PF,weak,3,,,,,,,,3,4.95047,,,,,,,,,,,,,,,,,,,,,,,,,,,,9,weak,-23.11779785,-92.31732178,1,0,0,response5disk,3,103,8.192077637,5.644927979,1,0,0,rectangle,8.192077637,5.644927979,1,0,0,4,3,0,0.00163,8.192077637,5.644927979,1,0,0,0,102,102,119,1,,,,,,,,,,,,,,,,,,,,,
,,,,,,,,,,,,,,,,,,,,,,,,,,,,,,,,,,,,,,,,,,5f285902166da3151b01faf2,6036dbc2036206fd5ef973ec,2021-02-24_23h07.58.677,Colour_Similarity_Experiment,2020.2.10,MacIntel,60,6036d0d9a84aa1626184a6ef,16.94376578,16.73643137,16.67106161,16.68068557,16.67904918,16.69180693,,,,,,,,,,,,,,,,,,,,PF,strong,3,,,,,,,,3,2.4523,,,,,,,,,,,,,,,,,,,,,,,,,,,,7,strong,-25.35333252,-78.1583252,1,0,0,response5disk,5,104,-3.988952637,-3.898223877,1,0,0,rectangle,-3.988952637,-3.898223877,1,0,0,4,2,0,0.003135,-3.988952637,-3.898223877,1,0,0,0,103,103,156,1,,,,,,,,,,,,,,,,,,,,,
,,,,,,,,,,,,,,,,,,,,,,,,,,,,,,,,,,,,,,,,,,5f285902166da3151b01faf2,6036dbc2036206fd5ef973ec,2021-02-24_23h07.58.677,Colour_Similarity_Experiment,2020.2.10,MacIntel,60,6036d0d9a84aa1626184a6ef,16.94376578,16.73643137,16.67106161,16.68068557,16.67904918,16.69180693,,,,,,,,,,,,,,,,,,,,PF,weak,3,,,,,,,,4,1.634165,,,,,,,,,,,,,,,,,,,,,,,,,,,,3,weak,34.59997559,-76.70126343,1,0,0,response3disk,8,105,1.540588379,-3.420959473,1,0,0,rectangle,1.540588379,-3.420959473,1,0,0,4,2,0,0.000085,1.540588379,-3.420959473,1,0,0,0,104,104,3,1,,,,,,,,,,,,,,,,,,,,,
,,,,,,,,,,,,,,,,,,,,,,,,,,,,,,,,,,,,,,,,,,5f285902166da3151b01faf2,6036dbc2036206fd5ef973ec,2021-02-24_23h07.58.677,Colour_Similarity_Experiment,2020.2.10,MacIntel,60,6036d0d9a84aa1626184a6ef,16.94376578,16.73643137,16.67106161,16.68068557,16.67904918,16.69180693,,,,,,,,,,,,,,,,,,,,PF,weak,3,,,,,,,,3,2.867385,,,,,,,,,,,,,,,,,,,,,,,,,,,,4,weak,-24.85125732,-66.03912354,1,0,0,response5disk,7,106,1.411132813,-8.127258301,1,0,0,rectangle,1.411132813,-8.127258301,1,0,0,4,2,0,0.00014,1.411132813,-8.127258301,1,0,0,0,105,105,38,1,,,,,,,,,,,,,,,,,,,,,
,,,,,,,,,,,,,,,,,,,,,,,,,,,,,,,,,,,,,,,,,,5f285902166da3151b01faf2,6036dbc2036206fd5ef973ec,2021-02-24_23h07.58.677,Colour_Similarity_Experiment,2020.2.10,MacIntel,60,6036d0d9a84aa1626184a6ef,16.94376578,16.73643137,16.67106161,16.68068557,16.67904918,16.69180693,,,,,,,,,,,,,,,,,,,,PF,weak,3,,,,,,,,6,5.683685,,,,,,,,,,,,,,,,,,,,,,,,,,,,3,weak,84.4397583,28.36410522,1,0,0,response1disk,4,107,15.59118652,0.252929688,1,0,0,rectangle,15.59118652,0.252929688,1,0,0,4,1,0,0.00212,15.59118652,0.252929688,1,0,0,0,106,106,30,1,,,,,,,,,,,,,,,,,,,,,
,,,,,,,,,,,,,,,,,,,,,,,,,,,,,,,,,,,,,,,,,,5f285902166da3151b01faf2,6036dbc2036206fd5ef973ec,2021-02-24_23h07.58.677,Colour_Similarity_Experiment,2020.2.10,MacIntel,60,6036d0d9a84aa1626184a6ef,16.94376578,16.73643137,16.67106161,16.68068557,16.67904918,16.69180693,,,,,,,,,,,,,,,,,,,,PF,weak,3,,,,,,,,3,2.633045,,,,,,,,,,,,,,,,,,,,,,,,,,,,8,weak,-40.52868652,-83.96942139,1,0,0,response5disk,7,108,-11.91448975,-7.862731934,1,0,0,rectangle,-11.91448975,-7.862731934,1,0,0,4,6,0,0.004145,-11.91448975,-7.862731934,1,0,0,0,107,107,23,1,,,,,,,,,,,,,,,,,,,,,
,,,,,,,,,,,,,,,,,,,,,,,,,,,,,,,,,,,,,,,,,,5f285902166da3151b01faf2,6036dbc2036206fd5ef973ec,2021-02-24_23h07.58.677,Colour_Similarity_Experiment,2020.2.10,MacIntel,60,6036d0d9a84aa1626184a6ef,16.94376578,16.73643137,16.67106161,16.68068557,16.67904918,16.69180693,,,,,,,,,,,,,,,,,,,,PF,strong,3,,,,,,,,3,5.268375,,,,,,,,,,,,,,,,,,,,,,,,,,,,5,strong,-52.34771729,-86.71469116,1,0,0,response5disk,7,109,26.16870117,-13.85049438,1,0,0,rectangle,26.16870117,-13.85049438,1,0,0,5,0,0,0.003975,26.16870117,-13.85049438,1,0,0,0,108,108,7,1,,,,,,,,,,,,,,,,,,,,,
,,,,,,,,,,,,,,,,,,,,,,,,,,,,,,,,,,,,,,,,,,5f285902166da3151b01faf2,6036dbc2036206fd5ef973ec,2021-02-24_23h07.58.677,Colour_Similarity_Experiment,2020.2.10,MacIntel,60,6036d0d9a84aa1626184a6ef,16.94376578,16.73643137,16.67106161,16.68068557,16.67904918,16.69180693,,,,,,,,,,,,,,,,,,,,PF,strong,3,,,,,,,,7,1.51339,,,,,,,,,,,,,,,,,,,,,,,,,,,,2,strong,45.50915527,72.94384766,1,0,0,response1disk,9,110,3.194641113,7.866760254,1,0,0,rectangle,3.194641113,7.866760254,1,0,0,5,5,0,0.00304,3.194641113,7.866760254,1,0,0,0,109,109,72,1,,,,,,,,,,,,,,,,,,,,,
,,,,,,,,,,,,,,,,,,,,,,,,,,,,,,,,,,,,,,,,,,5f285902166da3151b01faf2,6036dbc2036206fd5ef973ec,2021-02-24_23h07.58.677,Colour_Similarity_Experiment,2020.2.10,MacIntel,60,6036d0d9a84aa1626184a6ef,16.94376578,16.73643137,16.67106161,16.68068557,16.67904918,16.69180693,,,,,,,,,,,,,,,,,,,,PF,strong,3,,,,,,,,7,1.63418,,,,,,,,,,,,,,,,,,,,,,,,,,,,4,strong,32.29498291,55.35723877,1,0,0,response1disk,7,111,13.5581665,7.372070313,1,0,0,rectangle,13.5581665,7.372070313,1,0,0,5,3,0,0.001875,13.5581665,7.372070313,1,0,0,0,110,110,87,1,,,,,,,,,,,,,,,,,,,,,
,,,,,,,,,,,,,,,,,,,,,,,,,,,,,,,,,,,,,,,,,,5f285902166da3151b01faf2,6036dbc2036206fd5ef973ec,2021-02-24_23h07.58.677,Colour_Similarity_Experiment,2020.2.10,MacIntel,60,6036d0d9a84aa1626184a6ef,16.94376578,16.73643137,16.67106161,16.68068557,16.67904918,16.69180693,,,,,,,,,,,,,,,,,,,,PF,strong,3,,,,,,,,5,2.86889,,,,,,,,,,,,,,,,,,,,,,,,,,,,3,strong,52.12408447,-29.65582275,1,0,0,response3disk,3,112,18.24005127,-6.885314941,1,0,0,rectangle,18.24005127,-6.885314941,1,0,0,5,1,0,0.00262,18.24005127,-6.885314941,1,0,0,0,111,111,68,1,,,,,,,,,,,,,,,,,,,,,
,,,,,,,,,,,,,,,,,,,,,,,,,,,,,,,,,,,,,,,,,,5f285902166da3151b01faf2,6036dbc2036206fd5ef973ec,2021-02-24_23h07.58.677,Colour_Similarity_Experiment,2020.2.10,MacIntel,60,6036d0d9a84aa1626184a6ef,16.94376578,16.73643137,16.67106161,16.68068557,16.67904918,16.69180693,,,,,,,,,,,,,,,,,,,,PF,weak,3,,,,,,,,3,5.168675,,,,,,,,,,,,,,,,,,,,,,,,,,,,3,weak,-53.62304688,-90.54638672,1,0,0,response5disk,5,113,-3.745117188,-9.566040039,1,0,0,rectangle,-3.745117188,-9.566040039,1,0,0,5,2,0,0.003895,-3.745117188,-9.566040039,1,0,0,0,112,112,66,1,,,,,,,,,,,,,,,,,,,,,
,,,,,,,,,,,,,,,,,,,,,,,,,,,,,,,,,,,,,,,,,,5f285902166da3151b01faf2,6036dbc2036206fd5ef973ec,2021-02-24_23h07.58.677,Colour_Similarity_Experiment,2020.2.10,MacIntel,60,6036d0d9a84aa1626184a6ef,16.94376578,16.73643137,16.67106161,16.68068557,16.67904918,16.69180693,,,,,,,,,,,,,,,,,,,,PF,weak,3,,,,,,,,4,1.952635,,,,,,,,,,,,,,,,,,,,,,,,,,,,5,weak,48.86206055,-80.09899902,1,0,0,response3disk,6,114,9.333129883,6.906982422,1,0,0,rectangle,9.333129883,6.906982422,1,0,0,5,1,0,0.002095,9.333129883,6.906982422,1,0,0,0,113,113,103,1,,,,,,,,,,,,,,,,,,,,,
,,,,,,,,,,,,,,,,,,,,,,,,,,,,,,,,,,,,,,,,,,5f285902166da3151b01faf2,6036dbc2036206fd5ef973ec,2021-02-24_23h07.58.677,Colour_Similarity_Experiment,2020.2.10,MacIntel,60,6036d0d9a84aa1626184a6ef,16.94376578,16.73643137,16.67106161,16.68068557,16.67904918,16.69180693,,,,,,,,,,,,,,,,,,,,PF,weak,3,,,,,,,,4,2.75123,,,,,,,,,,,,,,,,,,,,,,,,,,,,9,weak,29.48022461,-85.83441162,1,0,0,response3disk,9,115,-0.249755859,2.902893066,1,0,0,rectangle,-0.249755859,2.902893066,1,0,0,5,3,0,0.00277,-0.249755859,2.902893066,1,0,0,0,114,114,106,1,,,,,,,,,,,,,,,,,,,,,
,,,,,,,,,,,,,,,,,,,,,,,,,,,,,,,,,,,,,,,,,,5f285902166da3151b01faf2,6036dbc2036206fd5ef973ec,2021-02-24_23h07.58.677,Colour_Similarity_Experiment,2020.2.10,MacIntel,60,6036d0d9a84aa1626184a6ef,16.94376578,16.73643137,16.67106161,16.68068557,16.67904918,16.69180693,,,,,,,,,,,,,,,,,,,,PF,strong,3,,,,,,,,4,1.701005,,,,,,,,,,,,,,,,,,,,,,,,,,,,3,strong,19.07373047,-74.46051025,1,0,0,response3disk,4,116,-0.208984375,7.457580566,1,0,0,rectangle,-0.208984375,7.457580566,1,0,0,5,3,0,8.5E-05,-0.208984375,7.457580566,1,0,0,0,115,115,110,1,,,,,,,,,,,,,,,,,,,,,
,,,,,,,,,,,,,,,,,,,,,,,,,,,,,,,,,,,,,,,,,,5f285902166da3151b01faf2,6036dbc2036206fd5ef973ec,2021-02-24_23h07.58.677,Colour_Similarity_Experiment,2020.2.10,MacIntel,60,6036d0d9a84aa1626184a6ef,16.94376578,16.73643137,16.67106161,16.68068557,16.67904918,16.69180693,,,,,,,,,,,,,,,,,,,,PF,strong,3,,,,,,,,0,1.5665,,,,,,,,,,,,,,,,,,,,,,,,,,,,7,strong,-26.902771,62.98776245,1,0,0,response7disk,4,117,-5.595336914,-2.674377441,1,0,0,rectangle,-5.595336914,-2.674377441,1,0,0,5,5,0,0.00181,-5.595336914,-2.674377441,1,0,0,0,116,116,158,1,,,,,,,,,,,,,,,,,,,,,
,,,,,,,,,,,,,,,,,,,,,,,,,,,,,,,,,,,,,,,,,,5f285902166da3151b01faf2,6036dbc2036206fd5ef973ec,2021-02-24_23h07.58.677,Colour_Similarity_Experiment,2020.2.10,MacIntel,60,6036d0d9a84aa1626184a6ef,16.94376578,16.73643137,16.67106161,16.68068557,16.67904918,16.69180693,,,,,,,,,,,,,,,,,,,,PF,strong,3,,,,,,,,3,2.935005,,,,,,,,,,,,,,,,,,,,,,,,,,,,9,strong,-31.38690186,-65.32391357,1,0,0,response5disk,9,118,-1.975769043,0.945098877,1,0,0,rectangle,-1.975769043,0.945098877,1,0,0,5,7,0,0.00286,-1.975769043,0.945098877,1,0,0,0,117,117,17,1,,,,,,,,,,,,,,,,,,,,,
,,,,,,,,,,,,,,,,,,,,,,,,,,,,,,,,,,,,,,,,,,5f285902166da3151b01faf2,6036dbc2036206fd5ef973ec,2021-02-24_23h07.58.677,Colour_Similarity_Experiment,2020.2.10,MacIntel,60,6036d0d9a84aa1626184a6ef,16.94376578,16.73643137,16.67106161,16.68068557,16.67904918,16.69180693,,,,,,,,,,,,,,,,,,,,PF,weak,3,,,,,,,,3,3.33616,,,,,,,,,,,,,,,,,,,,,,,,,,,,1,weak,-25.51776123,-87.52194214,1,0,0,response5disk,1,119,6.26373291,-0.532226563,1,0,0,rectangle,-55.14605713,-38.5227356,1,0,0,5,2,1,2.218165,9.365905762,-6.994506836,1,0,0,0,118,118,76,1,response5disk_3,rectangle,,,,,,,,,,,,,,,,,,,
,,,,,,,,,,,,,,,,,,,,,,,,,,,,,,,,,,,,,,,,,,5f285902166da3151b01faf2,6036dbc2036206fd5ef973ec,2021-02-24_23h07.58.677,Colour_Similarity_Experiment,2020.2.10,MacIntel,60,6036d0d9a84aa1626184a6ef,16.94376578,16.73643137,16.67106161,16.68068557,16.67904918,16.69180693,,,,,,,,,,,,,,,,,,,,PF,strong,3,,,,,,,,0,1.36815,,,,,,,,,,,,,,,,,,,,,,,,,,,,5,strong,-46.27270508,70.57473755,1,0,0,response7disk,1,120,-7.39666748,5.405334473,1,0,0,rectangle,-7.39666748,5.405334473,1,0,0,5,7,0,0.003235,-7.39666748,5.405334473,1,0,0,0,119,119,131,1,,,,,,,,,,,,,,,,,,,,,
,,,,,,,,,,,,,,,,,,,,,,,,,,,,,,,,,,,,,,,,,,5f285902166da3151b01faf2,6036dbc2036206fd5ef973ec,2021-02-24_23h07.58.677,Colour_Similarity_Experiment,2020.2.10,MacIntel,60,6036d0d9a84aa1626184a6ef,16.94376578,16.73643137,16.67106161,16.68068557,16.67904918,16.69180693,,,,,,,,,,,,,,,,,,,,PF,strong,3,,,,,,,,5,1.43344,,,,,,,,,,,,,,,,,,,,,,,,,,,,2,strong,58.70861816,-44.11938477,1,0,0,response3disk,3,121,-4.321044922,-14.19055176,1,0,0,rectangle,70.32043457,32.12915039,1,0,0,6,6,1,1.534735,12.05871582,-4.965454102,1,0,0,0,120,120,104,1,response1disk_3,rectangle,,,,,,,,,,,,,,,,,,,
,,,,,,,,,,,,,,,,,,,,,,,,,,,,,,,,,,,,,,,,,,5f285902166da3151b01faf2,6036dbc2036206fd5ef973ec,2021-02-24_23h07.58.677,Colour_Similarity_Experiment,2020.2.10,MacIntel,60,6036d0d9a84aa1626184a6ef,16.94376578,16.73643137,16.67106161,16.68068557,16.67904918,16.69180693,,,,,,,,,,,,,,,,,,,,PF,strong,3,,,,,,,,4,1.954545,,,,,,,,,,,,,,,,,,,,,,,,,,,,5,strong,42.07263184,-83.71856689,1,0,0,response3disk,4,122,3.808410645,0.571807861,1,0,0,rectangle,3.808410645,0.571807861,1,0,0,6,0,0,0.002975,3.808410645,0.571807861,1,0,0,0,121,121,8,1,,,,,,,,,,,,,,,,,,,,,
,,,,,,,,,,,,,,,,,,,,,,,,,,,,,,,,,,,,,,,,,,5f285902166da3151b01faf2,6036dbc2036206fd5ef973ec,2021-02-24_23h07.58.677,Colour_Similarity_Experiment,2020.2.10,MacIntel,60,6036d0d9a84aa1626184a6ef,16.94376578,16.73643137,16.67106161,16.68068557,16.67904918,16.69180693,,,,,,,,,,,,,,,,,,,,PF,weak,3,,,,,,,,0,1.134305,,,,,,,,,,,,,,,,,,,,,,,,,,,,8,weak,-39.9152832,65.54931641,1,0,0,response7disk,4,123,-10.02911377,-5.40045166,1,0,0,rectangle,-10.02911377,-5.40045166,1,0,0,6,1,0,0.001335,-10.02911377,-5.40045166,1,0,0,0,122,122,78,1,,,,,,,,,,,,,,,,,,,,,
,,,,,,,,,,,,,,,,,,,,,,,,,,,,,,,,,,,,,,,,,,5f285902166da3151b01faf2,6036dbc2036206fd5ef973ec,2021-02-24_23h07.58.677,Colour_Similarity_Experiment,2020.2.10,MacIntel,60,6036d0d9a84aa1626184a6ef,16.94376578,16.73643137,16.67106161,16.68068557,16.67904918,16.69180693,,,,,,,,,,,,,,,,,,,,PF,weak,3,,,,,,,,4,2.832475,,,,,,,,,,,,,,,,,,,,,,,,,,,,7,weak,26.49163818,-64.04656982,1,0,0,response3disk,6,124,5.837524414,-8.927124023,1,0,0,rectangle,5.837524414,-8.927124023,1,0,0,6,7,0,0.003095,5.837524414,-8.927124023,1,0,0,0,123,123,29,1,,,,,,,,,,,,,,,,,,,,,
,,,,,,,,,,,,,,,,,,,,,,,,,,,,,,,,,,,,,,,,,,5f285902166da3151b01faf2,6036dbc2036206fd5ef973ec,2021-02-24_23h07.58.677,Colour_Similarity_Experiment,2020.2.10,MacIntel,60,6036d0d9a84aa1626184a6ef,16.94376578,16.73643137,16.67106161,16.68068557,16.67904918,16.69180693,,,,,,,,,,,,,,,,,,,,PF,strong,3,,,,,,,,5,2.26942,,,,,,,,,,,,,,,,,,,,,,,,,,,,7,strong,66.1819458,-45.67834473,1,0,0,response3disk,8,125,5.918945313,-12.65563965,1,0,0,rectangle,35.62207031,-64.51098633,1,0,0,4,4,1,1.317485,15.5300293,-1.517852783,1,0,0,0,124,124,97,1,response3disk_3,rectangle,,,,,,,,,,,,,,,,,,,
,,,,,,,,,,,,,,,,,,,,,,,,,,,,,,,,,,,,,,,,,,5f285902166da3151b01faf2,6036dbc2036206fd5ef973ec,2021-02-24_23h07.58.677,Colour_Similarity_Experiment,2020.2.10,MacIntel,60,6036d0d9a84aa1626184a6ef,16.94376578,16.73643137,16.67106161,16.68068557,16.67904918,16.69180693,,,,,,,,,,,,,,,,,,,,PF,strong,3,,,,,,,,3,2.300875,,,,,,,,,,,,,,,,,,,,,,,,,,,,5,strong,-20.23370361,-75.07769775,1,0,0,response5disk,5,126,-3.856994629,-6.106292725,1,0,0,rectangle,-3.856994629,-6.106292725,1,0,0,4,0,0,0.0029,-3.856994629,-6.106292725,1,0,0,0,125,125,19,1,,,,,,,,,,,,,,,,,,,,,
,,,,,,,,,,,,,,,,,,,,,,,,,,,,,,,,,,,,,,,,,,5f285902166da3151b01faf2,6036dbc2036206fd5ef973ec,2021-02-24_23h07.58.677,Colour_Similarity_Experiment,2020.2.10,MacIntel,60,6036d0d9a84aa1626184a6ef,16.94376578,16.73643137,16.67106161,16.68068557,16.67904918,16.69180693,,,,,,,,,,,,,,,,,,,,PF,strong,3,,,,,,,,5,1.43407,,,,,,,,,,,,,,,,,,,,,,,,,,,,9,strong,72.53131104,-48.29330444,1,0,0,response3disk,8,127,21.9822998,-3.41217041,1,0,0,rectangle,21.9822998,-3.41217041,1,0,0,4,5,0,0.00246,21.9822998,-3.41217041,1,0,0,0,126,126,6,1,,,,,,,,,,,,,,,,,,,,,
,,,,,,,,,,,,,,,,,,,,,,,,,,,,,,,,,,,,,,,,,,5f285902166da3151b01faf2,6036dbc2036206fd5ef973ec,2021-02-24_23h07.58.677,Colour_Similarity_Experiment,2020.2.10,MacIntel,60,6036d0d9a84aa1626184a6ef,16.94376578,16.73643137,16.67106161,16.68068557,16.67904918,16.69180693,,,,,,,,,,,,,,,,,,,,PF,strong,3,,,,,,,,3,6.2023,,,,,,,,,,,,,,,,,,,,,,,,,,,,6,strong,-48.70983887,-87.27313232,1,0,0,response5disk,6,128,10.70080566,-13.25616455,1,0,0,rectangle,10.70080566,-13.25616455,1,0,0,4,3,0,0.001095,10.70080566,-13.25616455,1,0,0,0,127,127,91,1,,,,,,,,,,,,,,,,,,,,,
,,,,,,,,,,,,,,,,,,,,,,,,,,,,,,,,,,,,,,,,,,5f285902166da3151b01faf2,6036dbc2036206fd5ef973ec,2021-02-24_23h07.58.677,Colour_Similarity_Experiment,2020.2.10,MacIntel,60,6036d0d9a84aa1626184a6ef,16.94376578,16.73643137,16.67106161,16.68068557,16.67904918,16.69180693,,,,,,,,,,,,,,,,,,,,PF,strong,3,,,,,,,,3,1.7653,,,,,,,,,,,,,,,,,,,,,,,,,,,,3,strong,-22.19744873,-70.22088623,1,0,0,response5disk,8,129,14.26062012,-9.012634277,1,0,0,rectangle,14.26062012,-9.012634277,1,0,0,4,3,0,0.00014,14.26062012,-9.012634277,1,0,0,0,128,128,44,1,,,,,,,,,,,,,,,,,,,,,
,,,,,,,,,,,,,,,,,,,,,,,,,,,,,,,,,,,,,,,,,,5f285902166da3151b01faf2,6036dbc2036206fd5ef973ec,2021-02-24_23h07.58.677,Colour_Similarity_Experiment,2020.2.10,MacIntel,60,6036d0d9a84aa1626184a6ef,16.94376578,16.73643137,16.67106161,16.68068557,16.67904918,16.69180693,,,,,,,,,,,,,,,,,,,,PF,weak,3,,,,,,,,6,5.267805,,,,,,,,,,,,,,,,,,,,,,,,,,,,5,weak,64.59521484,22.36581421,1,0,0,response1disk,1,130,27.56848145,-13.99871826,1,0,0,rectangle,74.34368896,-45.30145264,1,0,0,5,5,1,1.49799,25.19604492,-8.242645264,1,0,0,0,129,129,159,1,response3disk_3,rectangle,,,,,,,,,,,,,,,,,,,
,,,,,,,,,,,,,,,,,,,,,,,,,,,,,,,,,,,,,,,,,,5f285902166da3151b01faf2,6036dbc2036206fd5ef973ec,2021-02-24_23h07.58.677,Colour_Similarity_Experiment,2020.2.10,MacIntel,60,6036d0d9a84aa1626184a6ef,16.94376578,16.73643137,16.67106161,16.68068557,16.67904918,16.69180693,,,,,,,,,,,,,,,,,,,,PF,weak,3,,,,,,,,1,4.95222,,,,,,,,,,,,,,,,,,,,,,,,,,,,5,weak,-59.49505615,20.21588135,1,0,0,response7disk,8,131,6.377502441,6.9140625,1,0,0,rectangle,6.377502441,6.9140625,1,0,0,5,3,0,0.00098,6.377502441,6.9140625,1,0,0,0,130,130,149,1,,,,,,,,,,,,,,,,,,,,,
,,,,,,,,,,,,,,,,,,,,,,,,,,,,,,,,,,,,,,,,,,5f285902166da3151b01faf2,6036dbc2036206fd5ef973ec,2021-02-24_23h07.58.677,Colour_Similarity_Experiment,2020.2.10,MacIntel,60,6036d0d9a84aa1626184a6ef,16.94376578,16.73643137,16.67106161,16.68068557,16.67904918,16.69180693,,,,,,,,,,,,,,,,,,,,PF,strong,3,,,,,,,,2,1.267315,,,,,,,,,,,,,,,,,,,,,,,,,,,,6,strong,-49.32769775,-38.80792236,1,0,0,response5disk,9,132,-8.100646973,-12.14837646,1,0,0,rectangle,52.17150879,58.09909058,1,0,0,7,7,1,2.11765,24.26806641,-4.15826416,1,0,0,0,131,131,160,1,response1disk_3,rectangle,,,,,,,,,,,,,,,,,,,
,,,,,,,,,,,,,,,,,,,,,,,,,,,,,,,,,,,,,,,,,,5f285902166da3151b01faf2,6036dbc2036206fd5ef973ec,2021-02-24_23h07.58.677,Colour_Similarity_Experiment,2020.2.10,MacIntel,60,6036d0d9a84aa1626184a6ef,16.94376578,16.73643137,16.67106161,16.68068557,16.67904918,16.69180693,,,,,,,,,,,,,,,,,,,,PF,weak,3,,,,,,,,5,1.498785,,,,,,,,,,,,,,,,,,,,,,,,,,,,9,weak,60.02819824,-32.29418945,1,0,0,response3disk,6,133,-2.884399414,-1.530761719,1,0,0,rectangle,-2.884399414,-1.530761719,1,0,0,7,6,0,0.00287,-2.884399414,-1.530761719,1,0,0,0,132,132,148,1,,,,,,,,,,,,,,,,,,,,,
,,,,,,,,,,,,,,,,,,,,,,,,,,,,,,,,,,,,,,,,,,5f285902166da3151b01faf2,6036dbc2036206fd5ef973ec,2021-02-24_23h07.58.677,Colour_Similarity_Experiment,2020.2.10,MacIntel,60,6036d0d9a84aa1626184a6ef,16.94376578,16.73643137,16.67106161,16.68068557,16.67904918,16.69180693,,,,,,,,,,,,,,,,,,,,PF,weak,3,,,,,,,,5,1.23085,,,,,,,,,,,,,,,,,,,,,,,,,,,,1,weak,75.81695557,-43.63528442,1,0,0,response3disk,9,134,-7.439025879,3.768737793,1,0,0,rectangle,-7.439025879,3.768737793,1,0,0,7,6,0,9.5E-05,-7.439025879,3.768737793,1,0,0,0,133,133,15,1,,,,,,,,,,,,,,,,,,,,,
,,,,,,,,,,,,,,,,,,,,,,,,,,,,,,,,,,,,,,,,,,5f285902166da3151b01faf2,6036dbc2036206fd5ef973ec,2021-02-24_23h07.58.677,Colour_Similarity_Experiment,2020.2.10,MacIntel,60,6036d0d9a84aa1626184a6ef,16.94376578,16.73643137,16.67106161,16.68068557,16.67904918,16.69180693,,,,,,,,,,,,,,,,,,,,PF,weak,3,,,,,,,,5,0.983355,,,,,,,,,,,,,,,,,,,,,,,,,,,,2,weak,81.237854,-29.37994385,1,0,0,response3disk,5,135,0.419311523,0.735534668,1,0,0,rectangle,0.419311523,0.735534668,1,0,0,7,1,0,0.002895,0.419311523,0.735534668,1,0,0,0,134,134,147,1,,,,,,,,,,,,,,,,,,,,,
,,,,,,,,,,,,,,,,,,,,,,,,,,,,,,,,,,,,,,,,,,5f285902166da3151b01faf2,6036dbc2036206fd5ef973ec,2021-02-24_23h07.58.677,Colour_Similarity_Experiment,2020.2.10,MacIntel,60,6036d0d9a84aa1626184a6ef,16.94376578,16.73643137,16.67106161,16.68068557,16.67904918,16.69180693,,,,,,,,,,,,,,,,,,,,PF,weak,3,,,,,,,,3,2.248375,,,,,,,,,,,,,,,,,,,,,,,,,,,,3,weak,-27.83221436,-70.73422241,1,0,0,response5disk,1,136,9.066833496,-0.789520264,1,0,0,rectangle,9.066833496,-0.789520264,1,0,0,7,7,0,0.00093,9.066833496,-0.789520264,1,0,0,0,135,135,96,1,,,,,,,,,,,,,,,,,,,,,
,,,,,,,,,,,,,,,,,,,,,,,,,,,,,,,,,,,,,,,,,,5f285902166da3151b01faf2,6036dbc2036206fd5ef973ec,2021-02-24_23h07.58.677,Colour_Similarity_Experiment,2020.2.10,MacIntel,60,6036d0d9a84aa1626184a6ef,16.94376578,16.73643137,16.67106161,16.68068557,16.67904918,16.69180693,,,,,,,,,,,,,,,,,,,,PF,strong,3,,,,,,,,6,2.23225,,,,,,,,,,,,,,,,,,,,,,,,,,,,4,strong,70.40002441,31.17785645,1,0,0,response1disk,5,137,0.216796875,2.395141602,1,0,0,rectangle,0.216796875,2.395141602,1,0,0,7,7,0,0.000135,0.216796875,2.395141602,1,0,0,0,136,136,116,1,,,,,,,,,,,,,,,,,,,,,
,,,,,,,,,,,,,,,,,,,,,,,,,,,,,,,,,,,,,,,,,,5f285902166da3151b01faf2,6036dbc2036206fd5ef973ec,2021-02-24_23h07.58.677,Colour_Similarity_Experiment,2020.2.10,MacIntel,60,6036d0d9a84aa1626184a6ef,16.94376578,16.73643137,16.67106161,16.68068557,16.67904918,16.69180693,,,,,,,,,,,,,,,,,,,,PF,weak,3,,,,,,,,6,5.01645,,,,,,,,,,,,,,,,,,,,,,,,,,,,9,weak,87.38433838,31.48803711,1,0,0,response1disk,2,138,5.69342041,5.379150391,1,0,0,rectangle,5.69342041,5.379150391,1,0,0,7,0,0,0.003265,5.69342041,5.379150391,1,0,0,0,137,137,157,1,,,,,,,,,,,,,,,,,,,,,
,,,,,,,,,,,,,,,,,,,,,,,,,,,,,,,,,,,,,,,,,,5f285902166da3151b01faf2,6036dbc2036206fd5ef973ec,2021-02-24_23h07.58.677,Colour_Similarity_Experiment,2020.2.10,MacIntel,60,6036d0d9a84aa1626184a6ef,16.94376578,16.73643137,16.67106161,16.68068557,16.67904918,16.69180693,,,,,,,,,,,,,,,,,,,,PF,strong,3,,,,,,,,3,5.23292,,,,,,,,,,,,,,,,,,,,,,,,,,,,8,strong,-33.62469482,-54.29406738,1,0,0,response5disk,4,139,9.950744629,-12.22189331,1,0,0,rectangle,9.950744629,-12.22189331,1,0,0,7,5,0,0.00287,9.950744629,-12.22189331,1,0,0,0,138,138,88,1,,,,,,,,,,,,,,,,,,,,,
,,,,,,,,,,,,,,,,,,,,,,,,,,,,,,,,,,,,,,,,,,5f285902166da3151b01faf2,6036dbc2036206fd5ef973ec,2021-02-24_23h07.58.677,Colour_Similarity_Experiment,2020.2.10,MacIntel,60,6036d0d9a84aa1626184a6ef,16.94376578,16.73643137,16.67106161,16.68068557,16.67904918,16.69180693,,,,,,,,,,,,,,,,,,,,PF,weak,3,,,,,,,,5,7.402405,,,,,,,,,,,,,,,,,,,,,,,,,,,,5,weak,60.69671631,-42.31079102,1,0,0,response3disk,3,140,20.24090576,-7.381835938,1,0,0,rectangle,20.24090576,-7.381835938,1,0,0,7,7,0,0.00327,20.24090576,-7.381835938,1,0,0,0,139,139,109,1,,,,,,,,,,,,,,,,,,,,,
,,,,,,,,,,,,,,,,,,,,,,,,,,,,,,,,,,,,,,,,,,5f285902166da3151b01faf2,6036dbc2036206fd5ef973ec,2021-02-24_23h07.58.677,Colour_Similarity_Experiment,2020.2.10,MacIntel,60,6036d0d9a84aa1626184a6ef,16.94376578,16.73643137,16.67106161,16.68068557,16.67904918,16.69180693,,,,,,,,,,,,,,,,,,,,PF,weak,3,,,,,,,,0,1.167255,,,,,,,,,,,,,,,,,,,,,,,,,,,,2,weak,-36.06567383,53.93609619,1,0,0,response7disk,3,141,-13.52832031,9.670532227,1,0,0,rectangle,-13.52832031,9.670532227,1,0,0,7,4,0,0.00304,-13.52832031,9.670532227,1,0,0,0,140,140,69,1,,,,,,,,,,,,,,,,,,,,,
,,,,,,,,,,,,,,,,,,,,,,,,,,,,,,,,,,,,,,,,,,5f285902166da3151b01faf2,6036dbc2036206fd5ef973ec,2021-02-24_23h07.58.677,Colour_Similarity_Experiment,2020.2.10,MacIntel,60,6036d0d9a84aa1626184a6ef,16.94376578,16.73643137,16.67106161,16.68068557,16.67904918,16.69180693,,,,,,,,,,,,,,,,,,,,PF,strong,3,,,,,,,,3,3.884935,,,,,,,,,,,,,,,,,,,,,,,,,,,,6,strong,-21.6038208,-83.24713135,1,0,0,response5disk,8,142,20.11798096,10.41741943,1,0,0,rectangle,20.11798096,10.41741943,1,0,0,7,6,0,0.000915,20.11798096,10.41741943,1,0,0,0,141,141,133,1,,,,,,,,,,,,,,,,,,,,,
,,,,,,,,,,,,,,,,,,,,,,,,,,,,,,,,,,,,,,,,,,5f285902166da3151b01faf2,6036dbc2036206fd5ef973ec,2021-02-24_23h07.58.677,Colour_Similarity_Experiment,2020.2.10,MacIntel,60,6036d0d9a84aa1626184a6ef,16.94376578,16.73643137,16.67106161,16.68068557,16.67904918,16.69180693,,,,,,,,,,,,,,,,,,,,PF,strong,3,,,,,,,,5,2.366225,,,,,,,,,,,,,,,,,,,,,,,,,,,,4,strong,62.68310547,-32.97875977,1,0,0,response3disk,2,143,11.95446777,1.299926758,1,0,0,rectangle,11.95446777,1.299926758,1,0,0,7,1,0,0.001815,11.95446777,1.299926758,1,0,0,0,142,142,13,1,,,,,,,,,,,,,,,,,,,,,
,,,,,,,,,,,,,,,,,,,,,,,,,,,,,,,,,,,,,,,,,,5f285902166da3151b01faf2,6036dbc2036206fd5ef973ec,2021-02-24_23h07.58.677,Colour_Similarity_Experiment,2020.2.10,MacIntel,60,6036d0d9a84aa1626184a6ef,16.94376578,16.73643137,16.67106161,16.68068557,16.67904918,16.69180693,,,,,,,,,,,,,,,,,,,,PF,strong,3,,,,,,,,5,2.96738,,,,,,,,,,,,,,,,,,,,,,,,,,,,2,strong,70.66156006,-39.36761475,1,0,0,response3disk,6,144,-15.39575195,3.483215332,1,0,0,rectangle,-15.39575195,3.483215332,1,0,0,7,1,0,0.000155,-15.39575195,3.483215332,1,0,0,0,143,143,40,1,,,,,,,,,,,,,,,,,,,,,
,,,,,,,,,,,,,,,,,,,,,,,,,,,,,,,,,,,,,,,,,,5f285902166da3151b01faf2,6036dbc2036206fd5ef973ec,2021-02-24_23h07.58.677,Colour_Similarity_Experiment,2020.2.10,MacIntel,60,6036d0d9a84aa1626184a6ef,16.94376578,16.73643137,16.67106161,16.68068557,16.67904918,16.69180693,,,,,,,,,,,,,,,,,,,,PF,weak,3,,,,,,,,5,1.384135,,,,,,,,,,,,,,,,,,,,,,,,,,,,2,weak,62.63391113,-45.42352295,1,0,0,response3disk,9,145,0.474304199,-5.016204834,1,0,0,rectangle,0.474304199,-5.016204834,1,0,0,7,1,0,0.00014,0.474304199,-5.016204834,1,0,0,0,144,144,39,1,,,,,,,,,,,,,,,,,,,,,
,,,,,,,,,,,,,,,,,,,,,,,,,,,,,,,,,,,,,,,,,,5f285902166da3151b01faf2,6036dbc2036206fd5ef973ec,2021-02-24_23h07.58.677,Colour_Similarity_Experiment,2020.2.10,MacIntel,60,6036d0d9a84aa1626184a6ef,16.94376578,16.73643137,16.67106161,16.68068557,16.67904918,16.69180693,,,,,,,,,,,,,,,,,,,,PF,weak,3,,,,,,,,2,1.983795,,,,,,,,,,,,,,,,,,,,,,,,,,,,1,weak,-53.74493408,-38.18389893,1,0,0,response5disk,2,146,22.51196289,-7.080291748,1,0,0,rectangle,22.51196289,-7.080291748,1,0,0,7,3,0,0.00284,22.51196289,-7.080291748,1,0,0,0,145,145,24,1,,,,,,,,,,,,,,,,,,,,,
,,,,,,,,,,,,,,,,,,,,,,,,,,,,,,,,,,,,,,,,,,5f285902166da3151b01faf2,6036dbc2036206fd5ef973ec,2021-02-24_23h07.58.677,Colour_Similarity_Experiment,2020.2.10,MacIntel,60,6036d0d9a84aa1626184a6ef,16.94376578,16.73643137,16.67106161,16.68068557,16.67904918,16.69180693,,,,,,,,,,,,,,,,,,,,PF,weak,3,,,,,,,,6,2.45014,,,,,,,,,,,,,,,,,,,,,,,,,,,,6,weak,88.96960449,52.00714111,1,0,0,response1disk,6,147,-4.40411377,1.618286133,1,0,0,rectangle,-4.40411377,1.618286133,1,0,0,7,7,0,0.003355,-4.40411377,1.618286133,1,0,0,0,146,146,0,1,,,,,,,,,,,,,,,,,,,,,
,,,,,,,,,,,,,,,,,,,,,,,,,,,,,,,,,,,,,,,,,,5f285902166da3151b01faf2,6036dbc2036206fd5ef973ec,2021-02-24_23h07.58.677,Colour_Similarity_Experiment,2020.2.10,MacIntel,60,6036d0d9a84aa1626184a6ef,16.94376578,16.73643137,16.67106161,16.68068557,16.67904918,16.69180693,,,,,,,,,,,,,,,,,,,,PF,strong,3,,,,,,,,5,2.38381,,,,,,,,,,,,,,,,,,,,,,,,,,,,1,strong,68.3861084,-33.13848877,1,0,0,response3disk,2,148,12.88555908,-0.254516602,1,0,0,rectangle,12.88555908,-0.254516602,1,0,0,7,3,0,0.0019,12.88555908,-0.254516602,1,0,0,0,147,147,2,1,,,,,,,,,,,,,,,,,,,,,
,,,,,,,,,,,,,,,,,,,,,,,,,,,,,,,,,,,,,,,,,,5f285902166da3151b01faf2,6036dbc2036206fd5ef973ec,2021-02-24_23h07.58.677,Colour_Similarity_Experiment,2020.2.10,MacIntel,60,6036d0d9a84aa1626184a6ef,16.94376578,16.73643137,16.67106161,16.68068557,16.67904918,16.69180693,,,,,,,,,,,,,,,,,,,,PF,weak,3,,,,,,,,1,3.115195,,,,,,,,,,,,,,,,,,,,,,,,,,,,7,weak,-76.11846924,35.96792603,1,0,0,response7disk,1,149,23.29742432,-2.546539307,1,0,0,rectangle,23.29742432,-2.546539307,1,0,0,7,1,0,0.00256,23.29742432,-2.546539307,1,0,0,0,148,148,53,1,,,,,,,,,,,,,,,,,,,,,
,,,,,,,,,,,,,,,,,,,,,,,,,,,,,,,,,,,,,,,,,,5f285902166da3151b01faf2,6036dbc2036206fd5ef973ec,2021-02-24_23h07.58.677,Colour_Similarity_Experiment,2020.2.10,MacIntel,60,6036d0d9a84aa1626184a6ef,16.94376578,16.73643137,16.67106161,16.68068557,16.67904918,16.69180693,,,,,,,,,,,,,,,,,,,,PF,strong,3,,,,,,,,5,2.015125,,,,,,,,,,,,,,,,,,,,,,,,,,,,8,strong,82.26434326,-50.37408447,1,0,0,response3disk,6,150,12.77349854,-5.324890137,1,0,0,rectangle,12.77349854,-5.324890137,1,0,0,7,1,0,0.000085,12.77349854,-5.324890137,1,0,0,0,149,149,37,1,,,,,,,,,,,,,,,,,,,,,
,,,,,,,,,,,,,,,,,,,,,,,,,,,,,,,,,,,,,,,,,,5f285902166da3151b01faf2,6036dbc2036206fd5ef973ec,2021-02-24_23h07.58.677,Colour_Similarity_Experiment,2020.2.10,MacIntel,60,6036d0d9a84aa1626184a6ef,16.94376578,16.73643137,16.67106161,16.68068557,16.67904918,16.69180693,,,,,,,,,,,,,,,,,,,,PF,weak,3,,,,,,,,2,2.033265,,,,,,,,,,,,,,,,,,,,,,,,,,,,7,weak,-78.57366943,-23.4319458,1,0,0,response5disk,8,151,9.317871094,0.749389648,1,0,0,rectangle,9.317871094,0.749389648,1,0,0,7,0,0,0.00252,9.317871094,0.749389648,1,0,0,0,150,150,140,1,,,,,,,,,,,,,,,,,,,,,
,,,,,,,,,,,,,,,,,,,,,,,,,,,,,,,,,,,,,,,,,,5f285902166da3151b01faf2,6036dbc2036206fd5ef973ec,2021-02-24_23h07.58.677,Colour_Similarity_Experiment,2020.2.10,MacIntel,60,6036d0d9a84aa1626184a6ef,16.94376578,16.73643137,16.67106161,16.68068557,16.67904918,16.69180693,,,,,,,,,,,,,,,,,,,,PF,strong,3,,,,,,,,5,3.199555,,,,,,,,,,,,,,,,,,,,,,,,,,,,8,strong,82.33837891,-40.85699463,1,0,0,response3disk,3,152,0.558227539,-7.444763184,1,0,0,rectangle,0.558227539,-7.444763184,1,0,0,7,2,0,0.00281,0.558227539,-7.444763184,1,0,0,0,151,151,154,1,,,,,,,,,,,,,,,,,,,,,
,,,,,,,,,,,,,,,,,,,,,,,,,,,,,,,,,,,,,,,,,,5f285902166da3151b01faf2,6036dbc2036206fd5ef973ec,2021-02-24_23h07.58.677,Colour_Similarity_Experiment,2020.2.10,MacIntel,60,6036d0d9a84aa1626184a6ef,16.94376578,16.73643137,16.67106161,16.68068557,16.67904918,16.69180693,,,,,,,,,,,,,,,,,,,,PF,strong,3,,,,,,,,3,2.300555,,,,,,,,,,,,,,,,,,,,,,,,,,,,8,strong,-16.89892578,-57.98242188,1,0,0,response5disk,7,153,5.543640137,-4.271575928,1,0,0,rectangle,5.543640137,-4.271575928,1,0,0,7,6,0,0.00232,5.543640137,-4.271575928,1,0,0,0,152,152,86,1,,,,,,,,,,,,,,,,,,,,,
,,,,,,,,,,,,,,,,,,,,,,,,,,,,,,,,,,,,,,,,,,5f285902166da3151b01faf2,6036dbc2036206fd5ef973ec,2021-02-24_23h07.58.677,Colour_Similarity_Experiment,2020.2.10,MacIntel,60,6036d0d9a84aa1626184a6ef,16.94376578,16.73643137,16.67106161,16.68068557,16.67904918,16.69180693,,,,,,,,,,,,,,,,,,,,PF,strong,3,,,,,,,,6,2.651485,,,,,,,,,,,,,,,,,,,,,,,,,,,,4,strong,81.31988525,22.35174561,1,0,0,response1disk,9,154,2.143493652,-11.76721191,1,0,0,rectangle,2.143493652,-11.76721191,1,0,0,7,3,0,0.002565,2.143493652,-11.76721191,1,0,0,0,153,153,90,1,,,,,,,,,,,,,,,,,,,,,
,,,,,,,,,,,,,,,,,,,,,,,,,,,,,,,,,,,,,,,,,,5f285902166da3151b01faf2,6036dbc2036206fd5ef973ec,2021-02-24_23h07.58.677,Colour_Similarity_Experiment,2020.2.10,MacIntel,60,6036d0d9a84aa1626184a6ef,16.94376578,16.73643137,16.67106161,16.68068557,16.67904918,16.69180693,,,,,,,,,,,,,,,,,,,,PF,strong,3,,,,,,,,6,4.71669,,,,,,,,,,,,,,,,,,,,,,,,,,,,1,strong,84.03143311,16.97070313,1,0,0,response1disk,3,155,1.038513184,1.081176758,1,0,0,rectangle,1.038513184,1.081176758,1,0,0,7,4,0,0.002905,1.038513184,1.081176758,1,0,0,0,154,154,99,1,,,,,,,,,,,,,,,,,,,,,
,,,,,,,,,,,,,,,,,,,,,,,,,,,,,,,,,,,,,,,,,,5f285902166da3151b01faf2,6036dbc2036206fd5ef973ec,2021-02-24_23h07.58.677,Colour_Similarity_Experiment,2020.2.10,MacIntel,60,6036d0d9a84aa1626184a6ef,16.94376578,16.73643137,16.67106161,16.68068557,16.67904918,16.69180693,,,,,,,,,,,,,,,,,,,,PF,strong,3,,,,,,,,3,1.399555,,,,,,,,,,,,,,,,,,,,,,,,,,,,7,strong,-30.42681885,-48.18405151,1,0,0,response5disk,6,156,-3.084411621,5.489898682,1,0,0,rectangle,-3.084411621,5.489898682,1,0,0,7,1,0,0.00091,-3.084411621,5.489898682,1,0,0,0,155,155,31,1,,,,,,,,,,,,,,,,,,,,,
,,,,,,,,,,,,,,,,,,,,,,,,,,,,,,,,,,,,,,,,,,5f285902166da3151b01faf2,6036dbc2036206fd5ef973ec,2021-02-24_23h07.58.677,Colour_Similarity_Experiment,2020.2.10,MacIntel,60,6036d0d9a84aa1626184a6ef,16.94376578,16.73643137,16.67106161,16.68068557,16.67904918,16.69180693,,,,,,,,,,,,,,,,,,,,PF,strong,3,,,,,,,,1,2.683995,,,,,,,,,,,,,,,,,,,,,,,,,,,,1,strong,-72.80480957,36.60244751,1,0,0,response7disk,6,157,7.992736816,11.90060425,1,0,0,rectangle,7.992736816,11.90060425,1,0,0,7,6,0,0.002735,7.992736816,11.90060425,1,0,0,0,156,156,58,1,,,,,,,,,,,,,,,,,,,,,
,,,,,,,,,,,,,,,,,,,,,,,,,,,,,,,,,,,,,,,,,,5f285902166da3151b01faf2,6036dbc2036206fd5ef973ec,2021-02-24_23h07.58.677,Colour_Similarity_Experiment,2020.2.10,MacIntel,60,6036d0d9a84aa1626184a6ef,16.94376578,16.73643137,16.67106161,16.68068557,16.67904918,16.69180693,,,,,,,,,,,,,,,,,,,,PF,strong,3,,,,,,,,2,2.86806,,,,,,,,,,,,,,,,,,,,,,,,,,,,1,strong,-79.2166748,-31.78753662,1,0,0,response5disk,4,158,8.585571289,-3.202362061,1,0,0,rectangle,8.585571289,-3.202362061,1,0,0,7,2,0,0.002695,8.585571289,-3.202362061,1,0,0,0,157,157,135,1,,,,,,,,,,,,,,,,,,,,,
,,,,,,,,,,,,,,,,,,,,,,,,,,,,,,,,,,,,,,,,,,5f285902166da3151b01faf2,6036dbc2036206fd5ef973ec,2021-02-24_23h07.58.677,Colour_Similarity_Experiment,2020.2.10,MacIntel,60,6036d0d9a84aa1626184a6ef,16.94376578,16.73643137,16.67106161,16.68068557,16.67904918,16.69180693,,,,,,,,,,,,,,,,,,,,PF,strong,3,,,,,,,,6,1.467375,,,,,,,,,,,,,,,,,,,,,,,,,,,,1,strong,108.5001831,37.50915527,1,0,0,response1disk,1,159,22.18164063,-5.485839844,1,0,0,rectangle,22.18164063,-5.485839844,1,0,0,7,5,0,0.003255,22.18164063,-5.485839844,1,0,0,0,158,158,151,1,,,,,,,,,,,,,,,,,,,,,
,,,,,,,,,,,,,,,,,,,,,,,,,,,,,,,,,,,,,,,,,,5f285902166da3151b01faf2,6036dbc2036206fd5ef973ec,2021-02-24_23h07.58.677,Colour_Similarity_Experiment,2020.2.10,MacIntel,60,6036d0d9a84aa1626184a6ef,16.94376578,16.73643137,16.67106161,16.68068557,16.67904918,16.69180693,,,,,,,,,,,,,,,,,,,,PF,weak,3,,,,,,,,6,3.20168,,,,,,,,,,,,,,,,,,,,,,,,,,,,6,weak,70.73455811,31.80938721,1,0,0,response1disk,7,160,14.03198242,-2.038787842,1,0,0,rectangle,14.03198242,-2.038787842,1,0,0,7,7,0,0.002285,14.03198242,-2.038787842,1,0,0,0,159,159,50,1,,,,,,,,,,,,,,,,,,,,,
,,,,,,,,,,,,,,,,,,,,,,,,,,,,,,,,,,,,,,,,,,5f285902166da3151b01faf2,6036dbc2036206fd5ef973ec,2021-02-24_23h07.58.677,Colour_Similarity_Experiment,2020.2.10,MacIntel,60,6036d0d9a84aa1626184a6ef,16.94376578,16.73643137,16.67106161,16.68068557,16.67904918,16.69180693,,,,,,,,,,,,,,,,,,,,PF,strong,3,,,,,,,,3,1.281575,,,,,,,,,,,,,,,,,,,,,,,,,,,,2,strong,-27.78790283,-53.1116333,1,0,0,response5disk,4,161,2.953308105,4.625183105,1,0,0,rectangle,2.953308105,4.625183105,1,0,0,7,1,0,0.00264,2.953308105,4.625183105,1,0,0,0,160,160,145,1,,,,,,,,,,,,,,,,,,,,,
,,,,,,,,,,,,,,,,,,,,,,,,,,,,,,,,,,,,,,,,,,5f285902166da3151b01faf2,6036dbc2036206fd5ef973ec,2021-02-24_23h07.58.677,Colour_Similarity_Experiment,2020.2.10,MacIntel,60,6036d0d9a84aa1626184a6ef,16.94376578,16.73643137,16.67106161,16.68068557,16.67904918,16.69180693,,,,,,,,,,,,,,,,,,,,PF,weak,3,,,,,,,,0,1.333295,,,,,,,,,,,,,,,,,,,,,,,,,,,,7,weak,-45.24853516,83.53448486,1,0,0,response7disk,3,162,-17.4140625,-10.0826416,1,0,0,rectangle,-17.4140625,-10.0826416,1,0,0,7,6,0,0.00236,-17.4140625,-10.0826416,1,0,0,0,161,161,81,1,,,,,,,,,,,,,,,,,,,,,
,,,,,,,,,,,,,,,,,,,,,,,,,,,,,,,,,,,,,,,,,,5f285902166da3151b01faf2,6036dbc2036206fd5ef973ec,2021-02-24_23h07.58.677,Colour_Similarity_Experiment,2020.2.10,MacIntel,60,6036d0d9a84aa1626184a6ef,16.94376578,16.73643137,16.67106161,16.68068557,16.67904918,16.69180693,,,,,,,,,,,,,,,,,,,,,,,,,,,,,,,,,,,,,,,,,,,,,,,,,,,,,,,,,,,,,,,,,,,,,,,,,,,,,,,,,,,,,,,,,,,,,,,,0,0,0,0,1,,,,,,,,,,,,,,
,,,,,,,,,,,,,,,,,,,,,,,,,,,,,,,,,,,,,,,,,,5f285902166da3151b01faf2,6036dbc2036206fd5ef973ec,2021-02-24_23h07.58.677,Colour_Similarity_Experiment,2020.2.10,MacIntel,60,6036d0d9a84aa1626184a6ef,16.94376578,16.73643137,16.67106161,16.68068557,16.67904918,16.69180693,,,,,,,,,,,,,,,,,,,,PF,strong,3,,,,,,,,6,2.26639,,,,,,,,,,,,,,,,,,,,,,,,,,,,4,strong,46.31640625,31.70541382,1,0,0,response1disk,1,163,17.07720947,10.06112671,1,0,0,rectangle,17.07720947,10.06112671,1,0,0,7,3,0,0.00284,17.07720947,10.06112671,1,0,0,0,0,0,102,1,,,,,,,,,,,,,,,,,,,,,
,,,,,,,,,,,,,,,,,,,,,,,,,,,,,,,,,,,,,,,,,,5f285902166da3151b01faf2,6036dbc2036206fd5ef973ec,2021-02-24_23h07.58.677,Colour_Similarity_Experiment,2020.2.10,MacIntel,60,6036d0d9a84aa1626184a6ef,16.94376578,16.73643137,16.67106161,16.68068557,16.67904918,16.69180693,,,,,,,,,,,,,,,,,,,,PF,weak,3,,,,,,,,6,1.11586,,,,,,,,,,,,,,,,,,,,,,,,,,,,1,weak,82.81640625,27.94165039,1,0,0,response1disk,4,164,-4.864013672,-1.958984375,1,0,0,rectangle,-4.864013672,-1.958984375,1,0,0,7,7,0,0.00325,-4.864013672,-1.958984375,1,0,0,0,1,1,139,1,,,,,,,,,,,,,,,,,,,,,
,,,,,,,,,,,,,,,,,,,,,,,,,,,,,,,,,,,,,,,,,,5f285902166da3151b01faf2,6036dbc2036206fd5ef973ec,2021-02-24_23h07.58.677,Colour_Similarity_Experiment,2020.2.10,MacIntel,60,6036d0d9a84aa1626184a6ef,16.94376578,16.73643137,16.67106161,16.68068557,16.67904918,16.69180693,,,,,,,,,,,,,,,,,,,,PF,strong,3,,,,,,,,2,1.466215,,,,,,,,,,,,,,,,,,,,,,,,,,,,5,strong,-61.45318604,-31.21432495,1,0,0,response5disk,6,165,22.43322754,1.501342773,1,0,0,rectangle,22.43322754,1.501342773,1,0,0,7,7,0,0.000155,22.43322754,1.501342773,1,0,0,0,2,2,12,1,,,,,,,,,,,,,,,,,,,,,
