key_resp.keys,key_resp.rt,key_resp_16.keys,key_resp_16.rt,key_resp_2.keys,key_resp_2.rt,X Scale,ratio_pxpermm,screen_size_x,screen_size_y,testsize,key_resp_3.keys,key_resp_3.rt,key_resp_4.keys,key_resp_4.rt,line_size,key_resp_5.keys,key_resp_5.rt,key_resp_6.keys,key_resp_6.rt,key_resp_8.keys,key_resp_8.rt,key_resp_7.keys,key_resp_7.rt,key_resp_12.keys,key_resp_12.rt,key_resp_11.keys,key_resp_11.rt,key_resp_18.keys,key_resp_18.rt,key_resp_21.keys,key_resp_21.rt,key_resp_13.keys,key_resp_13.rt,key_resp_19.keys,key_resp_19.rt,ballposx,viewer_distance,trials.thisRepN,trials.thisTrialN,trials.thisN,trials.thisIndex,trials.ran,participant,session,date,expName,psychopyVersion,OS,frameRate,study_id,realFrameRate1,realFrameRate2,realFrameRate3,realFrameRate4,realFrameRate5,realFrameRate,viewerdistancecm,DVA_to_distance,radius_F,radius_P,r_F,R_P,key_resp_20.keys,key_resp_20.rt,key_resp_14.keys,key_resp_14.rt,key_resp_15.keys,key_resp_15.rt,key_resp_17.keys,key_resp_17.rt,key_resp_9.keys,key_resp_9.rt,key_resp_10.keys,key_resp_10.rt,Colour_1,Ecc,maskCon,mask_frames,mouse_5.x,mouse_5.y,mouse_5.leftButton,mouse_5.midButton,mouse_5.rightButton,mouse_5.clicked_name,Colour_2,similarity,response_time,mouse_10.x,mouse_10.y,mouse_10.leftButton,mouse_10.midButton,mouse_10.rightButton,mouse_10.clicked_name,mouse_7.x,mouse_7.y,mouse_7.leftButton,mouse_7.midButton,mouse_7.rightButton,catchnumberprac,mouse_6.x,mouse_6.y,mouse_6.leftButton,mouse_6.midButton,mouse_6.rightButton,duringprac.thisRepN,duringprac.thisTrialN,duringprac.thisN,duringprac.thisIndex,duringprac.ran,mouse_7.clicked_name,mouse_6.clicked_name,key_resp_22.keys,key_resp_22.rt,Colour1,maskCon1,mouse.x,mouse.y,mouse.leftButton,mouse.midButton,mouse.rightButton,mouse.clicked_name,Colour2,trialnumber,mouse_2.x,mouse_2.y,mouse_2.leftButton,mouse_2.midButton,mouse_2.rightButton,mouse_2.clicked_name,mouse_3.x,mouse_3.y,mouse_3.leftButton,mouse_3.midButton,mouse_3.rightButton,catchresponse,catchnumber,Catch,response_time_catch,mouse_11.x,mouse_11.y,mouse_11.leftButton,mouse_11.midButton,mouse_11.rightButton,trials_2.thisRepN,trials_2.thisTrialN,trials_2.thisN,trials_2.thisIndex,trials_2.ran,mouse_3.clicked_name,mouse_11.clicked_name,trials_3.thisRepN,trials_3.thisTrialN,trials_3.thisN,trials_3.thisIndex,trials_3.ran,answer1,rt1,answer2,rt2,answer3,rt3,answer4,rt4,answer5,rt5,answer6,rt6,answer7,rt7
space,5.634365,space,8.981385,space,5.15711,39.1,3.91,491.0485934,276.2148338,1920,space,7.49781,space,12.926775,78.2,space,2.650245,space,4.361335,space,2.925865,space,8.60433,space,7.571655,space,9.6801,space,4.591475,space,3.18852,space,1.693395,return,17.580985,-17.28,836.554429,0,0,0,0,1,5f341b3f18eb122c6c70507e,6036fcc8894cadd32021bb4d,2021-02-25_02h26.45.571,Colour_Similarity_Experiment,2020.2.10,Win32,60,6036d0d9a84aa1626184a6ef,16.70525109,17.01218868,16.66572917,16.66303342,16.66592199,16.75171831,,,,,,,,,,,,,,,,,,,,,,,,,,,,,,,,,,,,,,,,,,,,,,,,,,,,,,,,,,,,,,,,,,,,,,,,,,,,,,,,,,,,,,,,,,,,,,,,,,,,,,,,,,,,,,,,,
,,,,,,,,,,,,,,,,,,,,,,,,,,,,,,,,,,return,4.233485,-14.4,833.486381,1,0,1,0,1,5f341b3f18eb122c6c70507e,6036fcc8894cadd32021bb4d,2021-02-25_02h26.45.571,Colour_Similarity_Experiment,2020.2.10,Win32,60,6036d0d9a84aa1626184a6ef,16.70525109,17.01218868,16.66572917,16.66303342,16.66592199,16.75171831,,,,,,,,,,,,,,,,,,,,,,,,,,,,,,,,,,,,,,,,,,,,,,,,,,,,,,,,,,,,,,,,,,,,,,,,,,,,,,,,,,,,,,,,,,,,,,,,,,,,,,,,,,,,,,,,,
,,,,,,,,,,,,,,,,,,,,,,,,,,,,,,,,,,return,4.217025,-11.52,830.418333,2,0,2,0,1,5f341b3f18eb122c6c70507e,6036fcc8894cadd32021bb4d,2021-02-25_02h26.45.571,Colour_Similarity_Experiment,2020.2.10,Win32,60,6036d0d9a84aa1626184a6ef,16.70525109,17.01218868,16.66572917,16.66303342,16.66592199,16.75171831,,,,,,,,,,,,,,,,,,,,,,,,,,,,,,,,,,,,,,,,,,,,,,,,,,,,,,,,,,,,,,,,,,,,,,,,,,,,,,,,,,,,,,,,,,,,,,,,,,,,,,,,,,,,,,,,,
,,,,,,,,,,,,,,,,,,,,,,,,,,,,,,,,,,return,4.137425,0,818.1461408,3,0,3,0,1,5f341b3f18eb122c6c70507e,6036fcc8894cadd32021bb4d,2021-02-25_02h26.45.571,Colour_Similarity_Experiment,2020.2.10,Win32,60,6036d0d9a84aa1626184a6ef,16.70525109,17.01218868,16.66572917,16.66303342,16.66592199,16.75171831,,,,,,,,,,,,,,,,,,,,,,,,,,,,,,,,,,,,,,,,,,,,,,,,,,,,,,,,,,,,,,,,,,,,,,,,,,,,,,,,,,,,,,,,,,,,,,,,,,,,,,,,,,,,,,,,,
,,,,,,,,,,,,,,,,,,,,,,,,,,,,,,,,,,return,4.034205,17.28,799.7378527,4,0,4,0,1,5f341b3f18eb122c6c70507e,6036fcc8894cadd32021bb4d,2021-02-25_02h26.45.571,Colour_Similarity_Experiment,2020.2.10,Win32,60,6036d0d9a84aa1626184a6ef,16.70525109,17.01218868,16.66572917,16.66303342,16.66592199,16.75171831,,,,,,,,,,,,,,,,,,,,,,,,,,,,,,,,,,,,,,,,,,,,,,,,,,,,,,,,,,,,,,,,,,,,,,,,,,,,,,,,,,,,,,,,,,,,,,,,,,,,,,,,,,,,,,,,,
,,,,,,,,,,,,,,,,,,,,,,,,,,,,,,,,,,,,,,,,,,,5f341b3f18eb122c6c70507e,6036fcc8894cadd32021bb4d,2021-02-25_02h26.45.571,Colour_Similarity_Experiment,2020.2.10,Win32,60,6036d0d9a84aa1626184a6ef,16.70525109,17.01218868,16.66572917,16.66303342,16.66592199,16.75171831,83,14.48769871,84.97035293,566.4690195,56.64690195,254.9110588,space,6.227295,space,9.35451,space,12.930105,space,2.184335,space,10.905695,space,3.398565,2,PF,strong,3,-126,-56,1,0,0,response5disk_5,6,2,5.373395,-12,0,1,0,0,rectangle_8,-12,0,1,0,0,2,-12,0,1,0,0,0,0,0,3,1,,,,,,,,,,,,,,,,,,,,,,,,,,,,,,,,,,,,,,,,,,,,,,,,,,,,,,,,,,,,
,,,,,,,,,,,,,,,,,,,,,,,,,,,,,,,,,,,,,,,,,,,5f341b3f18eb122c6c70507e,6036fcc8894cadd32021bb4d,2021-02-25_02h26.45.571,Colour_Similarity_Experiment,2020.2.10,Win32,60,6036d0d9a84aa1626184a6ef,16.70525109,17.01218868,16.66572917,16.66303342,16.66592199,16.75171831,,,,,,,,,,,,,,,,,,,1,PF,weak,3,-112,62,1,0,0,response7disk_5,3,1,3.32995,-2,-1,1,0,0,rectangle_8,-2,-1,1,0,0,2,-2,-1,1,0,0,0,1,1,6,1,,,,,,,,,,,,,,,,,,,,,,,,,,,,,,,,,,,,,,,,,,,,,,,,,,,,,,,,,,,,
,,,,,,,,,,,,,,,,,,,,,,,,,,,,,,,,,,,,,,,,,,,5f341b3f18eb122c6c70507e,6036fcc8894cadd32021bb4d,2021-02-25_02h26.45.571,Colour_Similarity_Experiment,2020.2.10,Win32,60,6036d0d9a84aa1626184a6ef,16.70525109,17.01218868,16.66572917,16.66303342,16.66592199,16.75171831,,,,,,,,,,,,,,,,,,,4,PF,weak,3,-76,143,1,0,0,response7disk_5,4,0,7.14209,-2,3,1,0,0,rectangle_8,-2,3,1,0,0,2,-2,3,1,0,0,0,2,2,5,1,,,,,,,,,,,,,,,,,,,,,,,,,,,,,,,,,,,,,,,,,,,,,,,,,,,,,,,,,,,,
,,,,,,,,,,,,,,,,,,,,,,,,,,,,,,,,,,,,,,,,,,,5f341b3f18eb122c6c70507e,6036fcc8894cadd32021bb4d,2021-02-25_02h26.45.571,Colour_Similarity_Experiment,2020.2.10,Win32,60,6036d0d9a84aa1626184a6ef,16.70525109,17.01218868,16.66572917,16.66303342,16.66592199,16.75171831,,,,,,,,,,,,,,,,,,,3,PF,strong,3,47,-83,1,0,0,response3disk_5,5,4,4.65971,-4,6,1,0,0,rectangle_8,-4,6,1,0,0,2,-4,6,1,0,0,0,3,3,0,1,,,,,,,,,,,,,,,,,,,,,,,,,,,,,,,,,,,,,,,,,,,,,,,,,,,,,,,,,,,,
,,,,,,,,,,,,,,,,,,,,,,,,,,,,,,,,,,,,,,,,,,,5f341b3f18eb122c6c70507e,6036fcc8894cadd32021bb4d,2021-02-25_02h26.45.571,Colour_Similarity_Experiment,2020.2.10,Win32,60,6036d0d9a84aa1626184a6ef,16.70525109,17.01218868,16.66572917,16.66303342,16.66592199,16.75171831,,,,,,,,,,,,,,,,,,,7,PF,weak,3,71,116,1,0,0,response1disk_5,5,7,4.28195,-1,3,1,0,0,rectangle_8,-1,3,1,0,0,2,-1,3,1,0,0,0,4,4,1,1,,,,,,,,,,,,,,,,,,,,,,,,,,,,,,,,,,,,,,,,,,,,,,,,,,,,,,,,,,,,
,,,,,,,,,,,,,,,,,,,,,,,,,,,,,,,,,,,,,,,,,,,5f341b3f18eb122c6c70507e,6036fcc8894cadd32021bb4d,2021-02-25_02h26.45.571,Colour_Similarity_Experiment,2020.2.10,Win32,60,6036d0d9a84aa1626184a6ef,16.70525109,17.01218868,16.66572917,16.66303342,16.66592199,16.75171831,,,,,,,,,,,,,,,,,,,3,PF,strong,3,104,29,1,0,0,response1disk_5,4,6,2.27611,1,5,1,0,0,rectangle_8,-118,-61,1,0,0,2,1,1,1,0,0,0,5,5,2,1,response5disk_7,rectangle_4,,,,,,,,,,,,,,,,,,,,,,,,,,,,,,,,,,,,,,,,,,,,,,,,,,,,,,,,,,
,,,,,,,,,,,,,,,,,,,,,,,,,,,,,,,,,,,,,,,,,,,5f341b3f18eb122c6c70507e,6036fcc8894cadd32021bb4d,2021-02-25_02h26.45.571,Colour_Similarity_Experiment,2020.2.10,Win32,60,6036d0d9a84aa1626184a6ef,16.70525109,17.01218868,16.66572917,16.66303342,16.66592199,16.75171831,,,,,,,,,,,,,,,,,,,4,PF,weak,3,-123,64,1,0,0,response7disk_5,3,1,3.21375,-2,3,1,0,0,rectangle_8,-2,3,1,0,0,2,-2,3,1,0,0,0,6,6,4,1,,,,,,,,,,,,,,,,,,,,,,,,,,,,,,,,,,,,,,,,,,,,,,,,,,,,,,,,,,,,
,,,,,,,,,,,,,,,,,,,,,,,,,,,,,,,,,,,,,,,,,,,5f341b3f18eb122c6c70507e,6036fcc8894cadd32021bb4d,2021-02-25_02h26.45.571,Colour_Similarity_Experiment,2020.2.10,Win32,60,6036d0d9a84aa1626184a6ef,16.70525109,17.01218868,16.66572917,16.66303342,16.66592199,16.75171831,,,,,,,,,,,,,,,,,,,,PF,strong,3,,,,,,,,6,4.746525,,,,,,,,,,,,,,,,,,,,,,,,,space,6.628595,7,strong,98,62,1,0,0,response1disk,4,1,7,10,1,0,0,rectangle,7,10,1,0,0,,2,0,0.000835,7,10,1,0,0,0,0,0,158,1,,,,,,,,,,,,,,,,,,,,,
,,,,,,,,,,,,,,,,,,,,,,,,,,,,,,,,,,,,,,,,,,,5f341b3f18eb122c6c70507e,6036fcc8894cadd32021bb4d,2021-02-25_02h26.45.571,Colour_Similarity_Experiment,2020.2.10,Win32,60,6036d0d9a84aa1626184a6ef,16.70525109,17.01218868,16.66572917,16.66303342,16.66592199,16.75171831,,,,,,,,,,,,,,,,,,,,PF,strong,3,,,,,,,,1,3.981805,,,,,,,,,,,,,,,,,,,,,,,,,,,3,strong,-129,54,1,0,0,response7disk,3,2,-11,2,1,0,0,rectangle,-11,2,1,0,0,,4,0,0.000565,-11,2,1,0,0,0,1,1,68,1,,,,,,,,,,,,,,,,,,,,,
,,,,,,,,,,,,,,,,,,,,,,,,,,,,,,,,,,,,,,,,,,,5f341b3f18eb122c6c70507e,6036fcc8894cadd32021bb4d,2021-02-25_02h26.45.571,Colour_Similarity_Experiment,2020.2.10,Win32,60,6036d0d9a84aa1626184a6ef,16.70525109,17.01218868,16.66572917,16.66303342,16.66592199,16.75171831,,,,,,,,,,,,,,,,,,,,PF,weak,3,,,,,,,,6,2.7756,,,,,,,,,,,,,,,,,,,,,,,,,,,6,weak,106,60,1,0,0,response1disk,5,3,-7,-3,1,0,0,rectangle,-7,-3,1,0,0,,7,0,0.00054,-7,-3,1,0,0,0,2,2,59,1,,,,,,,,,,,,,,,,,,,,,
,,,,,,,,,,,,,,,,,,,,,,,,,,,,,,,,,,,,,,,,,,,5f341b3f18eb122c6c70507e,6036fcc8894cadd32021bb4d,2021-02-25_02h26.45.571,Colour_Similarity_Experiment,2020.2.10,Win32,60,6036d0d9a84aa1626184a6ef,16.70525109,17.01218868,16.66572917,16.66303342,16.66592199,16.75171831,,,,,,,,,,,,,,,,,,,,PF,weak,3,,,,,,,,6,1.548745,,,,,,,,,,,,,,,,,,,,,,,,,,,2,weak,110,54,1,0,0,response1disk,7,4,-15,-3,1,0,0,rectangle,-15,-3,1,0,0,,6,0,0.00051,-15,-3,1,0,0,0,3,3,107,1,,,,,,,,,,,,,,,,,,,,,
,,,,,,,,,,,,,,,,,,,,,,,,,,,,,,,,,,,,,,,,,,,5f341b3f18eb122c6c70507e,6036fcc8894cadd32021bb4d,2021-02-25_02h26.45.571,Colour_Similarity_Experiment,2020.2.10,Win32,60,6036d0d9a84aa1626184a6ef,16.70525109,17.01218868,16.66572917,16.66303342,16.66592199,16.75171831,,,,,,,,,,,,,,,,,,,,PF,strong,3,,,,,,,,3,4.664865,,,,,,,,,,,,,,,,,,,,,,,,,,,7,strong,-70,-108,1,0,0,response5disk,8,5,0,-2,1,0,0,rectangle,-54,129,1,0,0,0,0,1,5.20009,0,-9,1,0,0,0,4,4,97,1,response7disk_3,rectangle,,,,,,,,,,,,,,,,,,,
,,,,,,,,,,,,,,,,,,,,,,,,,,,,,,,,,,,,,,,,,,,5f341b3f18eb122c6c70507e,6036fcc8894cadd32021bb4d,2021-02-25_02h26.45.571,Colour_Similarity_Experiment,2020.2.10,Win32,60,6036d0d9a84aa1626184a6ef,16.70525109,17.01218868,16.66572917,16.66303342,16.66592199,16.75171831,,,,,,,,,,,,,,,,,,,,PF,strong,3,,,,,,,,3,2.96539,,,,,,,,,,,,,,,,,,,,,,,,,,,5,strong,-51,-104,1,0,0,response5disk,2,6,-10,1,1,0,0,rectangle,-62,136,1,0,0,0,0,1,2.087205,1,8,1,0,0,0,5,5,55,1,response7disk_3,rectangle,,,,,,,,,,,,,,,,,,,
,,,,,,,,,,,,,,,,,,,,,,,,,,,,,,,,,,,,,,,,,,,5f341b3f18eb122c6c70507e,6036fcc8894cadd32021bb4d,2021-02-25_02h26.45.571,Colour_Similarity_Experiment,2020.2.10,Win32,60,6036d0d9a84aa1626184a6ef,16.70525109,17.01218868,16.66572917,16.66303342,16.66592199,16.75171831,,,,,,,,,,,,,,,,,,,,PF,weak,3,,,,,,,,4,3.452435,,,,,,,,,,,,,,,,,,,,,,,,,,,5,weak,43,-119,1,0,0,response3disk,7,7,-11,6,1,0,0,rectangle,-11,6,1,0,0,0,4,0,0.000565,-11,6,1,0,0,0,6,6,146,1,,,,,,,,,,,,,,,,,,,,,
,,,,,,,,,,,,,,,,,,,,,,,,,,,,,,,,,,,,,,,,,,,5f341b3f18eb122c6c70507e,6036fcc8894cadd32021bb4d,2021-02-25_02h26.45.571,Colour_Similarity_Experiment,2020.2.10,Win32,60,6036d0d9a84aa1626184a6ef,16.70525109,17.01218868,16.66572917,16.66303342,16.66592199,16.75171831,,,,,,,,,,,,,,,,,,,,PF,strong,3,,,,,,,,4,3.07436,,,,,,,,,,,,,,,,,,,,,,,,,,,5,strong,45,-121,1,0,0,response3disk,4,8,-6,0,1,0,0,rectangle,-6,0,1,0,0,0,7,0,0.00049,-6,0,1,0,0,0,7,7,8,1,,,,,,,,,,,,,,,,,,,,,
,,,,,,,,,,,,,,,,,,,,,,,,,,,,,,,,,,,,,,,,,,,5f341b3f18eb122c6c70507e,6036fcc8894cadd32021bb4d,2021-02-25_02h26.45.571,Colour_Similarity_Experiment,2020.2.10,Win32,60,6036d0d9a84aa1626184a6ef,16.70525109,17.01218868,16.66572917,16.66303342,16.66592199,16.75171831,,,,,,,,,,,,,,,,,,,,PF,weak,3,,,,,,,,3,2.29688,,,,,,,,,,,,,,,,,,,,,,,,,,,6,weak,-32,-118,1,0,0,response5disk,8,9,-8,-5,1,0,0,rectangle,-8,-5,1,0,0,0,0,0,0.000505,-8,-5,1,0,0,0,8,8,64,1,,,,,,,,,,,,,,,,,,,,,
,,,,,,,,,,,,,,,,,,,,,,,,,,,,,,,,,,,,,,,,,,,5f341b3f18eb122c6c70507e,6036fcc8894cadd32021bb4d,2021-02-25_02h26.45.571,Colour_Similarity_Experiment,2020.2.10,Win32,60,6036d0d9a84aa1626184a6ef,16.70525109,17.01218868,16.66572917,16.66303342,16.66592199,16.75171831,,,,,,,,,,,,,,,,,,,,PF,weak,3,,,,,,,,0,1.603815,,,,,,,,,,,,,,,,,,,,,,,,,,,9,weak,-62,117,1,0,0,response7disk,9,10,-16,-2,1,0,0,rectangle,-16,-2,1,0,0,0,5,0,0.000535,-16,-2,1,0,0,0,9,9,106,1,,,,,,,,,,,,,,,,,,,,,
,,,,,,,,,,,,,,,,,,,,,,,,,,,,,,,,,,,,,,,,,,,5f341b3f18eb122c6c70507e,6036fcc8894cadd32021bb4d,2021-02-25_02h26.45.571,Colour_Similarity_Experiment,2020.2.10,Win32,60,6036d0d9a84aa1626184a6ef,16.70525109,17.01218868,16.66572917,16.66303342,16.66592199,16.75171831,,,,,,,,,,,,,,,,,,,,PF,weak,3,,,,,,,,2,1.8214,,,,,,,,,,,,,,,,,,,,,,,,,,,7,weak,-121,-52,1,0,0,response5disk,6,11,-33,6,1,0,0,rectangle,-33,6,1,0,0,0,5,0,0.000075,-33,6,1,0,0,0,10,10,29,1,,,,,,,,,,,,,,,,,,,,,
,,,,,,,,,,,,,,,,,,,,,,,,,,,,,,,,,,,,,,,,,,,5f341b3f18eb122c6c70507e,6036fcc8894cadd32021bb4d,2021-02-25_02h26.45.571,Colour_Similarity_Experiment,2020.2.10,Win32,60,6036d0d9a84aa1626184a6ef,16.70525109,17.01218868,16.66572917,16.66303342,16.66592199,16.75171831,,,,,,,,,,,,,,,,,,,,PF,strong,3,,,,,,,,2,1.89466,,,,,,,,,,,,,,,,,,,,,,,,,,,4,strong,-154,-62,1,0,0,response5disk,9,12,22,-3,1,0,0,rectangle,22,-3,1,0,0,0,2,0,0.000525,22,-3,1,0,0,0,11,11,90,1,,,,,,,,,,,,,,,,,,,,,
,,,,,,,,,,,,,,,,,,,,,,,,,,,,,,,,,,,,,,,,,,,5f341b3f18eb122c6c70507e,6036fcc8894cadd32021bb4d,2021-02-25_02h26.45.571,Colour_Similarity_Experiment,2020.2.10,Win32,60,6036d0d9a84aa1626184a6ef,16.70525109,17.01218868,16.66572917,16.66303342,16.66592199,16.75171831,,,,,,,,,,,,,,,,,,,,PF,weak,3,,,,,,,,5,4.446845,,,,,,,,,,,,,,,,,,,,,,,,,,,6,weak,91,-46,1,0,0,response3disk,9,13,-10,-14,1,0,0,rectangle,-10,-14,1,0,0,0,2,0,8E-05,-10,-14,1,0,0,0,12,12,45,1,,,,,,,,,,,,,,,,,,,,,
,,,,,,,,,,,,,,,,,,,,,,,,,,,,,,,,,,,,,,,,,,,5f341b3f18eb122c6c70507e,6036fcc8894cadd32021bb4d,2021-02-25_02h26.45.571,Colour_Similarity_Experiment,2020.2.10,Win32,60,6036d0d9a84aa1626184a6ef,16.70525109,17.01218868,16.66572917,16.66303342,16.66592199,16.75171831,,,,,,,,,,,,,,,,,,,,PF,weak,3,,,,,,,,2,1.898735,,,,,,,,,,,,,,,,,,,,,,,,,,,7,weak,-108,-57,1,0,0,response5disk,8,14,1,-1,1,0,0,rectangle,1,-1,1,0,0,0,7,0,0.000525,1,-1,1,0,0,0,13,13,140,1,,,,,,,,,,,,,,,,,,,,,
,,,,,,,,,,,,,,,,,,,,,,,,,,,,,,,,,,,,,,,,,,,5f341b3f18eb122c6c70507e,6036fcc8894cadd32021bb4d,2021-02-25_02h26.45.571,Colour_Similarity_Experiment,2020.2.10,Win32,60,6036d0d9a84aa1626184a6ef,16.70525109,17.01218868,16.66572917,16.66303342,16.66592199,16.75171831,,,,,,,,,,,,,,,,,,,,PF,strong,3,,,,,,,,7,2.90905,,,,,,,,,,,,,,,,,,,,,,,,,,,1,strong,45,103,1,0,0,response1disk,4,15,-11,2,1,0,0,rectangle,-11,2,1,0,0,0,0,0,0.000515,-11,2,1,0,0,0,14,14,135,1,,,,,,,,,,,,,,,,,,,,,
,,,,,,,,,,,,,,,,,,,,,,,,,,,,,,,,,,,,,,,,,,,5f341b3f18eb122c6c70507e,6036fcc8894cadd32021bb4d,2021-02-25_02h26.45.571,Colour_Similarity_Experiment,2020.2.10,Win32,60,6036d0d9a84aa1626184a6ef,16.70525109,17.01218868,16.66572917,16.66303342,16.66592199,16.75171831,,,,,,,,,,,,,,,,,,,,PF,weak,3,,,,,,,,7,1.86488,,,,,,,,,,,,,,,,,,,,,,,,,,,7,weak,73,119,1,0,0,response1disk,3,16,-7,-1,1,0,0,rectangle,-7,-1,1,0,0,0,6,0,0.00049,-7,-1,1,0,0,0,15,15,81,1,,,,,,,,,,,,,,,,,,,,,
,,,,,,,,,,,,,,,,,,,,,,,,,,,,,,,,,,,,,,,,,,,5f341b3f18eb122c6c70507e,6036fcc8894cadd32021bb4d,2021-02-25_02h26.45.571,Colour_Similarity_Experiment,2020.2.10,Win32,60,6036d0d9a84aa1626184a6ef,16.70525109,17.01218868,16.66572917,16.66303342,16.66592199,16.75171831,,,,,,,,,,,,,,,,,,,,PF,strong,3,,,,,,,,4,2.17919,,,,,,,,,,,,,,,,,,,,,,,,,,,7,strong,45,-95,1,0,0,response3disk,9,17,-13,-6,1,0,0,rectangle,-13,-6,1,0,0,0,3,0,0.0005,-13,-6,1,0,0,0,16,16,155,1,,,,,,,,,,,,,,,,,,,,,
,,,,,,,,,,,,,,,,,,,,,,,,,,,,,,,,,,,,,,,,,,,5f341b3f18eb122c6c70507e,6036fcc8894cadd32021bb4d,2021-02-25_02h26.45.571,Colour_Similarity_Experiment,2020.2.10,Win32,60,6036d0d9a84aa1626184a6ef,16.70525109,17.01218868,16.66572917,16.66303342,16.66592199,16.75171831,,,,,,,,,,,,,,,,,,,,PF,weak,3,,,,,,,,3,2.275425,,,,,,,,,,,,,,,,,,,,,,,,,,,2,weak,-61,-98,1,0,0,response5disk,5,18,7,-2,1,0,0,rectangle,7,-2,1,0,0,0,4,0,0.00094,7,-2,1,0,0,0,17,17,147,1,,,,,,,,,,,,,,,,,,,,,
,,,,,,,,,,,,,,,,,,,,,,,,,,,,,,,,,,,,,,,,,,,5f341b3f18eb122c6c70507e,6036fcc8894cadd32021bb4d,2021-02-25_02h26.45.571,Colour_Similarity_Experiment,2020.2.10,Win32,60,6036d0d9a84aa1626184a6ef,16.70525109,17.01218868,16.66572917,16.66303342,16.66592199,16.75171831,,,,,,,,,,,,,,,,,,,,PF,weak,3,,,,,,,,4,3.61213,,,,,,,,,,,,,,,,,,,,,,,,,,,5,weak,44,-96,1,0,0,response3disk,3,19,7,-10,1,0,0,rectangle,7,-10,1,0,0,0,1,0,0.00048,7,-10,1,0,0,0,18,18,109,1,,,,,,,,,,,,,,,,,,,,,
,,,,,,,,,,,,,,,,,,,,,,,,,,,,,,,,,,,,,,,,,,,5f341b3f18eb122c6c70507e,6036fcc8894cadd32021bb4d,2021-02-25_02h26.45.571,Colour_Similarity_Experiment,2020.2.10,Win32,60,6036d0d9a84aa1626184a6ef,16.70525109,17.01218868,16.66572917,16.66303342,16.66592199,16.75171831,,,,,,,,,,,,,,,,,,,,PF,weak,3,,,,,,,,7,2.525975,,,,,,,,,,,,,,,,,,,,,,,,,,,2,weak,52,92,1,0,0,response1disk,9,20,-18,2,1,0,0,rectangle,-18,2,1,0,0,0,3,0,0.000595,-18,2,1,0,0,0,19,19,39,1,,,,,,,,,,,,,,,,,,,,,
,,,,,,,,,,,,,,,,,,,,,,,,,,,,,,,,,,,,,,,,,,,5f341b3f18eb122c6c70507e,6036fcc8894cadd32021bb4d,2021-02-25_02h26.45.571,Colour_Similarity_Experiment,2020.2.10,Win32,60,6036d0d9a84aa1626184a6ef,16.70525109,17.01218868,16.66572917,16.66303342,16.66592199,16.75171831,,,,,,,,,,,,,,,,,,,,PF,weak,3,,,,,,,,3,2.128485,,,,,,,,,,,,,,,,,,,,,,,,,,,8,weak,-47,-106,1,0,0,response5disk,6,21,13,-5,1,0,0,rectangle,-46,122,1,0,0,0,0,1,1.633385,2,5,1,0,0,0,20,20,161,1,response7disk_3,rectangle,,,,,,,,,,,,,,,,,,,
,,,,,,,,,,,,,,,,,,,,,,,,,,,,,,,,,,,,,,,,,,,5f341b3f18eb122c6c70507e,6036fcc8894cadd32021bb4d,2021-02-25_02h26.45.571,Colour_Similarity_Experiment,2020.2.10,Win32,60,6036d0d9a84aa1626184a6ef,16.70525109,17.01218868,16.66572917,16.66303342,16.66592199,16.75171831,,,,,,,,,,,,,,,,,,,,PF,weak,3,,,,,,,,5,2.862105,,,,,,,,,,,,,,,,,,,,,,,,,,,9,weak,85,-43,1,0,0,response3disk,7,22,-6,-3,1,0,0,rectangle,-6,-3,1,0,0,0,4,0,0.00058,-6,-3,1,0,0,0,21,21,121,1,,,,,,,,,,,,,,,,,,,,,
,,,,,,,,,,,,,,,,,,,,,,,,,,,,,,,,,,,,,,,,,,,5f341b3f18eb122c6c70507e,6036fcc8894cadd32021bb4d,2021-02-25_02h26.45.571,Colour_Similarity_Experiment,2020.2.10,Win32,60,6036d0d9a84aa1626184a6ef,16.70525109,17.01218868,16.66572917,16.66303342,16.66592199,16.75171831,,,,,,,,,,,,,,,,,,,,PF,strong,3,,,,,,,,7,1.89665,,,,,,,,,,,,,,,,,,,,,,,,,,,4,strong,60,103,1,0,0,response1disk,1,23,-3,-9,1,0,0,rectangle,-3,-9,1,0,0,0,7,0,0.000515,-3,-9,1,0,0,0,22,22,102,1,,,,,,,,,,,,,,,,,,,,,
,,,,,,,,,,,,,,,,,,,,,,,,,,,,,,,,,,,,,,,,,,,5f341b3f18eb122c6c70507e,6036fcc8894cadd32021bb4d,2021-02-25_02h26.45.571,Colour_Similarity_Experiment,2020.2.10,Win32,60,6036d0d9a84aa1626184a6ef,16.70525109,17.01218868,16.66572917,16.66303342,16.66592199,16.75171831,,,,,,,,,,,,,,,,,,,,PF,strong,3,,,,,,,,7,3.72609,,,,,,,,,,,,,,,,,,,,,,,,,,,5,strong,64,114,1,0,0,response1disk,3,24,-14,3,1,0,0,rectangle,-14,3,1,0,0,0,0,0,0.0005,-14,3,1,0,0,0,23,23,25,1,,,,,,,,,,,,,,,,,,,,,
,,,,,,,,,,,,,,,,,,,,,,,,,,,,,,,,,,,,,,,,,,,5f341b3f18eb122c6c70507e,6036fcc8894cadd32021bb4d,2021-02-25_02h26.45.571,Colour_Similarity_Experiment,2020.2.10,Win32,60,6036d0d9a84aa1626184a6ef,16.70525109,17.01218868,16.66572917,16.66303342,16.66592199,16.75171831,,,,,,,,,,,,,,,,,,,,PF,weak,3,,,,,,,,1,3.62834,,,,,,,,,,,,,,,,,,,,,,,,,,,4,weak,-105,78,1,0,0,response7disk,4,25,-2,5,1,0,0,rectangle,-2,5,1,0,0,0,3,0,0.000545,-2,5,1,0,0,0,24,24,70,1,,,,,,,,,,,,,,,,,,,,,
,,,,,,,,,,,,,,,,,,,,,,,,,,,,,,,,,,,,,,,,,,,5f341b3f18eb122c6c70507e,6036fcc8894cadd32021bb4d,2021-02-25_02h26.45.571,Colour_Similarity_Experiment,2020.2.10,Win32,60,6036d0d9a84aa1626184a6ef,16.70525109,17.01218868,16.66572917,16.66303342,16.66592199,16.75171831,,,,,,,,,,,,,,,,,,,,PF,weak,3,,,,,,,,6,1.64804,,,,,,,,,,,,,,,,,,,,,,,,,,,4,weak,86,56,1,0,0,response1disk,8,26,13,-7,1,0,0,rectangle,13,-7,1,0,0,0,3,0,9E-05,13,-7,1,0,0,0,25,25,124,1,,,,,,,,,,,,,,,,,,,,,
,,,,,,,,,,,,,,,,,,,,,,,,,,,,,,,,,,,,,,,,,,,5f341b3f18eb122c6c70507e,6036fcc8894cadd32021bb4d,2021-02-25_02h26.45.571,Colour_Similarity_Experiment,2020.2.10,Win32,60,6036d0d9a84aa1626184a6ef,16.70525109,17.01218868,16.66572917,16.66303342,16.66592199,16.75171831,,,,,,,,,,,,,,,,,,,,PF,strong,3,,,,,,,,6,2.031755,,,,,,,,,,,,,,,,,,,,,,,,,,,3,strong,77,61,1,0,0,response1disk,6,27,5,6,1,0,0,rectangle,5,6,1,0,0,0,6,0,0.0005,5,6,1,0,0,0,26,26,95,1,,,,,,,,,,,,,,,,,,,,,
,,,,,,,,,,,,,,,,,,,,,,,,,,,,,,,,,,,,,,,,,,,5f341b3f18eb122c6c70507e,6036fcc8894cadd32021bb4d,2021-02-25_02h26.45.571,Colour_Similarity_Experiment,2020.2.10,Win32,60,6036d0d9a84aa1626184a6ef,16.70525109,17.01218868,16.66572917,16.66303342,16.66592199,16.75171831,,,,,,,,,,,,,,,,,,,,PF,strong,3,,,,,,,,6,7.71313,,,,,,,,,,,,,,,,,,,,,,,,,,,6,strong,97,39,1,0,0,response1disk,5,28,0,7,1,0,0,rectangle,0,7,1,0,0,0,5,0,0.000535,0,7,1,0,0,0,27,27,126,1,,,,,,,,,,,,,,,,,,,,,
,,,,,,,,,,,,,,,,,,,,,,,,,,,,,,,,,,,,,,,,,,,5f341b3f18eb122c6c70507e,6036fcc8894cadd32021bb4d,2021-02-25_02h26.45.571,Colour_Similarity_Experiment,2020.2.10,Win32,60,6036d0d9a84aa1626184a6ef,16.70525109,17.01218868,16.66572917,16.66303342,16.66592199,16.75171831,,,,,,,,,,,,,,,,,,,,PF,weak,3,,,,,,,,7,1.80901,,,,,,,,,,,,,,,,,,,,,,,,,,,1,weak,82,108,1,0,0,response1disk,4,29,10,2,1,0,0,rectangle,10,2,1,0,0,0,6,0,0.000545,10,2,1,0,0,0,28,28,139,1,,,,,,,,,,,,,,,,,,,,,
,,,,,,,,,,,,,,,,,,,,,,,,,,,,,,,,,,,,,,,,,,,5f341b3f18eb122c6c70507e,6036fcc8894cadd32021bb4d,2021-02-25_02h26.45.571,Colour_Similarity_Experiment,2020.2.10,Win32,60,6036d0d9a84aa1626184a6ef,16.70525109,17.01218868,16.66572917,16.66303342,16.66592199,16.75171831,,,,,,,,,,,,,,,,,,,,PF,weak,3,,,,,,,,1,4.492845,,,,,,,,,,,,,,,,,,,,,,,,,,,2,weak,-147,60,1,0,0,response7disk,2,30,-8,2,1,0,0,rectangle,-8,2,1,0,0,0,1,0,0.000495,-8,2,1,0,0,0,29,29,14,1,,,,,,,,,,,,,,,,,,,,,
,,,,,,,,,,,,,,,,,,,,,,,,,,,,,,,,,,,,,,,,,,,5f341b3f18eb122c6c70507e,6036fcc8894cadd32021bb4d,2021-02-25_02h26.45.571,Colour_Similarity_Experiment,2020.2.10,Win32,60,6036d0d9a84aa1626184a6ef,16.70525109,17.01218868,16.66572917,16.66303342,16.66592199,16.75171831,,,,,,,,,,,,,,,,,,,,PF,strong,3,,,,,,,,7,2.92232,,,,,,,,,,,,,,,,,,,,,,,,,,,1,strong,86,91,1,0,0,response1disk,8,31,9,11,1,0,0,rectangle,9,11,1,0,0,0,3,0,0.00051,9,11,1,0,0,0,30,30,27,1,,,,,,,,,,,,,,,,,,,,,
,,,,,,,,,,,,,,,,,,,,,,,,,,,,,,,,,,,,,,,,,,,5f341b3f18eb122c6c70507e,6036fcc8894cadd32021bb4d,2021-02-25_02h26.45.571,Colour_Similarity_Experiment,2020.2.10,Win32,60,6036d0d9a84aa1626184a6ef,16.70525109,17.01218868,16.66572917,16.66303342,16.66592199,16.75171831,,,,,,,,,,,,,,,,,,,,PF,strong,3,,,,,,,,6,1.796455,,,,,,,,,,,,,,,,,,,,,,,,,,,9,strong,121,57,1,0,0,response1disk,6,32,-24,-7,1,0,0,rectangle,-24,-7,1,0,0,0,4,0,0.000635,-24,-7,1,0,0,0,31,31,117,1,,,,,,,,,,,,,,,,,,,,,
,,,,,,,,,,,,,,,,,,,,,,,,,,,,,,,,,,,,,,,,,,,5f341b3f18eb122c6c70507e,6036fcc8894cadd32021bb4d,2021-02-25_02h26.45.571,Colour_Similarity_Experiment,2020.2.10,Win32,60,6036d0d9a84aa1626184a6ef,16.70525109,17.01218868,16.66572917,16.66303342,16.66592199,16.75171831,,,,,,,,,,,,,,,,,,,,PF,weak,3,,,,,,,,7,2.923425,,,,,,,,,,,,,,,,,,,,,,,,,,,7,weak,79,132,1,0,0,response1disk,4,33,-25,-3,1,0,0,rectangle,-25,-3,1,0,0,0,6,0,0.000505,-25,-3,1,0,0,0,32,32,43,1,,,,,,,,,,,,,,,,,,,,,
,,,,,,,,,,,,,,,,,,,,,,,,,,,,,,,,,,,,,,,,,,,5f341b3f18eb122c6c70507e,6036fcc8894cadd32021bb4d,2021-02-25_02h26.45.571,Colour_Similarity_Experiment,2020.2.10,Win32,60,6036d0d9a84aa1626184a6ef,16.70525109,17.01218868,16.66572917,16.66303342,16.66592199,16.75171831,,,,,,,,,,,,,,,,,,,,PF,strong,3,,,,,,,,6,1.883525,,,,,,,,,,,,,,,,,,,,,,,,,,,3,strong,116,62,1,0,0,response1disk,7,34,-7,7,1,0,0,rectangle,-7,7,1,0,0,0,3,0,0.000575,-7,7,1,0,0,0,33,33,118,1,,,,,,,,,,,,,,,,,,,,,
,,,,,,,,,,,,,,,,,,,,,,,,,,,,,,,,,,,,,,,,,,,5f341b3f18eb122c6c70507e,6036fcc8894cadd32021bb4d,2021-02-25_02h26.45.571,Colour_Similarity_Experiment,2020.2.10,Win32,60,6036d0d9a84aa1626184a6ef,16.70525109,17.01218868,16.66572917,16.66303342,16.66592199,16.75171831,,,,,,,,,,,,,,,,,,,,PF,strong,3,,,,,,,,5,3.766495,,,,,,,,,,,,,,,,,,,,,,,,,,,5,strong,104,-57,1,0,0,response3disk,7,35,-20,8,1,0,0,rectangle,-20,8,1,0,0,0,7,0,0.00056,-20,8,1,0,0,0,34,34,7,1,,,,,,,,,,,,,,,,,,,,,
,,,,,,,,,,,,,,,,,,,,,,,,,,,,,,,,,,,,,,,,,,,5f341b3f18eb122c6c70507e,6036fcc8894cadd32021bb4d,2021-02-25_02h26.45.571,Colour_Similarity_Experiment,2020.2.10,Win32,60,6036d0d9a84aa1626184a6ef,16.70525109,17.01218868,16.66572917,16.66303342,16.66592199,16.75171831,,,,,,,,,,,,,,,,,,,,PF,weak,3,,,,,,,,3,2.59999,,,,,,,,,,,,,,,,,,,,,,,,,,,6,weak,-85,-107,1,0,0,response5disk,7,36,17,15,1,0,0,rectangle,17,15,1,0,0,0,7,0,8E-05,17,15,1,0,0,0,35,35,50,1,,,,,,,,,,,,,,,,,,,,,
,,,,,,,,,,,,,,,,,,,,,,,,,,,,,,,,,,,,,,,,,,,5f341b3f18eb122c6c70507e,6036fcc8894cadd32021bb4d,2021-02-25_02h26.45.571,Colour_Similarity_Experiment,2020.2.10,Win32,60,6036d0d9a84aa1626184a6ef,16.70525109,17.01218868,16.66572917,16.66303342,16.66592199,16.75171831,,,,,,,,,,,,,,,,,,,,PF,strong,3,,,,,,,,2,1.226575,,,,,,,,,,,,,,,,,,,,,,,,,,,9,strong,-96,-59,1,0,0,response5disk,9,37,-11,-5,1,0,0,rectangle,-11,-5,1,0,0,0,4,0,0.000945,-11,-5,1,0,0,0,36,36,17,1,,,,,,,,,,,,,,,,,,,,,
,,,,,,,,,,,,,,,,,,,,,,,,,,,,,,,,,,,,,,,,,,,5f341b3f18eb122c6c70507e,6036fcc8894cadd32021bb4d,2021-02-25_02h26.45.571,Colour_Similarity_Experiment,2020.2.10,Win32,60,6036d0d9a84aa1626184a6ef,16.70525109,17.01218868,16.66572917,16.66303342,16.66592199,16.75171831,,,,,,,,,,,,,,,,,,,,PF,strong,3,,,,,,,,6,1.39492,,,,,,,,,,,,,,,,,,,,,,,,,,,2,strong,106,48,1,0,0,response1disk,7,38,10,-12,1,0,0,rectangle,10,-12,1,0,0,0,5,0,0.000495,10,-12,1,0,0,0,37,37,63,1,,,,,,,,,,,,,,,,,,,,,
,,,,,,,,,,,,,,,,,,,,,,,,,,,,,,,,,,,,,,,,,,,5f341b3f18eb122c6c70507e,6036fcc8894cadd32021bb4d,2021-02-25_02h26.45.571,Colour_Similarity_Experiment,2020.2.10,Win32,60,6036d0d9a84aa1626184a6ef,16.70525109,17.01218868,16.66572917,16.66303342,16.66592199,16.75171831,,,,,,,,,,,,,,,,,,,,PF,strong,3,,,,,,,,6,1.361155,,,,,,,,,,,,,,,,,,,,,,,,,,,9,strong,117,51,1,0,0,response1disk,4,39,-1,-5,1,0,0,rectangle,-1,-5,1,0,0,0,0,0,0.00051,-1,-5,1,0,0,0,38,38,60,1,,,,,,,,,,,,,,,,,,,,,
,,,,,,,,,,,,,,,,,,,,,,,,,,,,,,,,,,,,,,,,,,,5f341b3f18eb122c6c70507e,6036fcc8894cadd32021bb4d,2021-02-25_02h26.45.571,Colour_Similarity_Experiment,2020.2.10,Win32,60,6036d0d9a84aa1626184a6ef,16.70525109,17.01218868,16.66572917,16.66303342,16.66592199,16.75171831,,,,,,,,,,,,,,,,,,,,PF,weak,3,,,,,,,,7,1.541685,,,,,,,,,,,,,,,,,,,,,,,,,,,9,weak,70,103,1,0,0,response1disk,4,40,-2,0,1,0,0,rectangle,-2,0,1,0,0,0,4,0,0.00064,-2,0,1,0,0,0,39,39,114,1,,,,,,,,,,,,,,,,,,,,,
,,,,,,,,,,,,,,,,,,,,,,,,,,,,,,,,,,,,,,,,,,,5f341b3f18eb122c6c70507e,6036fcc8894cadd32021bb4d,2021-02-25_02h26.45.571,Colour_Similarity_Experiment,2020.2.10,Win32,60,6036d0d9a84aa1626184a6ef,16.70525109,17.01218868,16.66572917,16.66303342,16.66592199,16.75171831,,,,,,,,,,,,,,,,,,,,PF,strong,3,,,,,,,,2,2.232055,,,,,,,,,,,,,,,,,,,,,,,,,,,9,strong,-105,-56,1,0,0,response5disk,8,41,18,10,1,0,0,rectangle,18,10,1,0,0,0,1,0,0.000505,18,10,1,0,0,0,40,40,6,1,,,,,,,,,,,,,,,,,,,,,
,,,,,,,,,,,,,,,,,,,,,,,,,,,,,,,,,,,,,,,,,,,5f341b3f18eb122c6c70507e,6036fcc8894cadd32021bb4d,2021-02-25_02h26.45.571,Colour_Similarity_Experiment,2020.2.10,Win32,60,6036d0d9a84aa1626184a6ef,16.70525109,17.01218868,16.66572917,16.66303342,16.66592199,16.75171831,,,,,,,,,,,,,,,,,,,,PF,strong,3,,,,,,,,6,1.681825,,,,,,,,,,,,,,,,,,,,,,,,,,,3,strong,118,54,1,0,0,response1disk,4,42,-6,7,1,0,0,rectangle,-6,7,1,0,0,0,1,0,0.000085,-6,7,1,0,0,0,41,41,110,1,,,,,,,,,,,,,,,,,,,,,
,,,,,,,,,,,,,,,,,,,,,,,,,,,,,,,,,,,,,,,,,,,5f341b3f18eb122c6c70507e,6036fcc8894cadd32021bb4d,2021-02-25_02h26.45.571,Colour_Similarity_Experiment,2020.2.10,Win32,60,6036d0d9a84aa1626184a6ef,16.70525109,17.01218868,16.66572917,16.66303342,16.66592199,16.75171831,,,,,,,,,,,,,,,,,,,,PF,strong,3,,,,,,,,2,1.842025,,,,,,,,,,,,,,,,,,,,,,,,,,,4,strong,-119,-53,1,0,0,response5disk,4,43,16,-15,1,0,0,rectangle,16,-15,1,0,0,0,7,0,0.000565,16,-15,1,0,0,0,42,42,84,1,,,,,,,,,,,,,,,,,,,,,
,,,,,,,,,,,,,,,,,,,,,,,,,,,,,,,,,,,,,,,,,,,5f341b3f18eb122c6c70507e,6036fcc8894cadd32021bb4d,2021-02-25_02h26.45.571,Colour_Similarity_Experiment,2020.2.10,Win32,60,6036d0d9a84aa1626184a6ef,16.70525109,17.01218868,16.66572917,16.66303342,16.66592199,16.75171831,,,,,,,,,,,,,,,,,,,,PF,strong,3,,,,,,,,3,1.43162,,,,,,,,,,,,,,,,,,,,,,,,,,,9,strong,-62,-94,1,0,0,response5disk,7,44,34,-8,1,0,0,rectangle,34,-8,1,0,0,0,4,0,0.00052,34,-8,1,0,0,0,43,43,100,1,,,,,,,,,,,,,,,,,,,,,
,,,,,,,,,,,,,,,,,,,,,,,,,,,,,,,,,,,,,,,,,,,5f341b3f18eb122c6c70507e,6036fcc8894cadd32021bb4d,2021-02-25_02h26.45.571,Colour_Similarity_Experiment,2020.2.10,Win32,60,6036d0d9a84aa1626184a6ef,16.70525109,17.01218868,16.66572917,16.66303342,16.66592199,16.75171831,,,,,,,,,,,,,,,,,,,,PF,weak,3,,,,,,,,7,1.60922,,,,,,,,,,,,,,,,,,,,,,,,,,,3,weak,70,92,1,0,0,response1disk,6,45,-14,-7,1,0,0,rectangle,-14,-7,1,0,0,0,6,0,0.00048,-14,-7,1,0,0,0,44,44,47,1,,,,,,,,,,,,,,,,,,,,,
,,,,,,,,,,,,,,,,,,,,,,,,,,,,,,,,,,,,,,,,,,,5f341b3f18eb122c6c70507e,6036fcc8894cadd32021bb4d,2021-02-25_02h26.45.571,Colour_Similarity_Experiment,2020.2.10,Win32,60,6036d0d9a84aa1626184a6ef,16.70525109,17.01218868,16.66572917,16.66303342,16.66592199,16.75171831,,,,,,,,,,,,,,,,,,,,PF,strong,3,,,,,,,,1,1.93554,,,,,,,,,,,,,,,,,,,,,,,,,,,1,strong,-126,95,1,0,0,response7disk,1,46,-16,-14,1,0,0,rectangle,-16,-14,1,0,0,0,2,0,0.00057,-16,-14,1,0,0,0,45,45,151,1,,,,,,,,,,,,,,,,,,,,,
,,,,,,,,,,,,,,,,,,,,,,,,,,,,,,,,,,,,,,,,,,,5f341b3f18eb122c6c70507e,6036fcc8894cadd32021bb4d,2021-02-25_02h26.45.571,Colour_Similarity_Experiment,2020.2.10,Win32,60,6036d0d9a84aa1626184a6ef,16.70525109,17.01218868,16.66572917,16.66303342,16.66592199,16.75171831,,,,,,,,,,,,,,,,,,,,PF,weak,3,,,,,,,,6,1.258995,,,,,,,,,,,,,,,,,,,,,,,,,,,2,weak,141,49,1,0,0,response1disk,6,47,-13,-1,1,0,0,rectangle,-13,-1,1,0,0,0,1,0,0.000485,-13,-1,1,0,0,0,46,46,113,1,,,,,,,,,,,,,,,,,,,,,
,,,,,,,,,,,,,,,,,,,,,,,,,,,,,,,,,,,,,,,,,,,5f341b3f18eb122c6c70507e,6036fcc8894cadd32021bb4d,2021-02-25_02h26.45.571,Colour_Similarity_Experiment,2020.2.10,Win32,60,6036d0d9a84aa1626184a6ef,16.70525109,17.01218868,16.66572917,16.66303342,16.66592199,16.75171831,,,,,,,,,,,,,,,,,,,,PF,strong,3,,,,,,,,3,2.143155,,,,,,,,,,,,,,,,,,,,,,,,,,,6,strong,-45,-107,1,0,0,response5disk,7,48,26,7,1,0,0,rectangle,26,7,1,0,0,0,1,0,7E-05,26,7,1,0,0,0,47,47,18,1,,,,,,,,,,,,,,,,,,,,,
,,,,,,,,,,,,,,,,,,,,,,,,,,,,,,,,,,,,,,,,,,,5f341b3f18eb122c6c70507e,6036fcc8894cadd32021bb4d,2021-02-25_02h26.45.571,Colour_Similarity_Experiment,2020.2.10,Win32,60,6036d0d9a84aa1626184a6ef,16.70525109,17.01218868,16.66572917,16.66303342,16.66592199,16.75171831,,,,,,,,,,,,,,,,,,,,PF,strong,3,,,,,,,,7,1.808505,,,,,,,,,,,,,,,,,,,,,,,,,,,3,strong,73,122,1,0,0,response1disk,8,49,2,-6,1,0,0,rectangle,2,-6,1,0,0,0,2,0,0.000485,2,-6,1,0,0,0,48,48,44,1,,,,,,,,,,,,,,,,,,,,,
,,,,,,,,,,,,,,,,,,,,,,,,,,,,,,,,,,,,,,,,,,,5f341b3f18eb122c6c70507e,6036fcc8894cadd32021bb4d,2021-02-25_02h26.45.571,Colour_Similarity_Experiment,2020.2.10,Win32,60,6036d0d9a84aa1626184a6ef,16.70525109,17.01218868,16.66572917,16.66303342,16.66592199,16.75171831,,,,,,,,,,,,,,,,,,,,PF,strong,3,,,,,,,,2,1.464445,,,,,,,,,,,,,,,,,,,,,,,,,,,8,strong,-139,-64,1,0,0,response5disk,8,50,-4,5,1,0,0,rectangle,-4,5,1,0,0,0,5,0,0.000485,-4,5,1,0,0,0,49,49,48,1,,,,,,,,,,,,,,,,,,,,,
,,,,,,,,,,,,,,,,,,,,,,,,,,,,,,,,,,,,,,,,,,,5f341b3f18eb122c6c70507e,6036fcc8894cadd32021bb4d,2021-02-25_02h26.45.571,Colour_Similarity_Experiment,2020.2.10,Win32,60,6036d0d9a84aa1626184a6ef,16.70525109,17.01218868,16.66572917,16.66303342,16.66592199,16.75171831,,,,,,,,,,,,,,,,,,,,PF,strong,3,,,,,,,,3,1.932335,,,,,,,,,,,,,,,,,,,,,,,,,,,2,strong,-65,-123,1,0,0,response5disk,2,51,-12,-3,1,0,0,rectangle,-12,-3,1,0,0,0,1,0,0.000525,-12,-3,1,0,0,0,50,50,142,1,,,,,,,,,,,,,,,,,,,,,
,,,,,,,,,,,,,,,,,,,,,,,,,,,,,,,,,,,,,,,,,,,5f341b3f18eb122c6c70507e,6036fcc8894cadd32021bb4d,2021-02-25_02h26.45.571,Colour_Similarity_Experiment,2020.2.10,Win32,60,6036d0d9a84aa1626184a6ef,16.70525109,17.01218868,16.66572917,16.66303342,16.66592199,16.75171831,,,,,,,,,,,,,,,,,,,,PF,weak,3,,,,,,,,6,1.31363,,,,,,,,,,,,,,,,,,,,,,,,,,,9,weak,92,44,1,0,0,response1disk,2,52,-7,-15,1,0,0,rectangle,-7,-15,1,0,0,0,1,0,7E-05,-7,-15,1,0,0,0,51,51,157,1,,,,,,,,,,,,,,,,,,,,,
,,,,,,,,,,,,,,,,,,,,,,,,,,,,,,,,,,,,,,,,,,,5f341b3f18eb122c6c70507e,6036fcc8894cadd32021bb4d,2021-02-25_02h26.45.571,Colour_Similarity_Experiment,2020.2.10,Win32,60,6036d0d9a84aa1626184a6ef,16.70525109,17.01218868,16.66572917,16.66303342,16.66592199,16.75171831,,,,,,,,,,,,,,,,,,,,PF,strong,3,,,,,,,,7,1.626755,,,,,,,,,,,,,,,,,,,,,,,,,,,8,strong,65,101,1,0,0,response1disk,3,53,1,1,1,0,0,rectangle,1,1,1,0,0,0,0,0,0.0005,1,1,1,0,0,0,52,52,154,1,,,,,,,,,,,,,,,,,,,,,
,,,,,,,,,,,,,,,,,,,,,,,,,,,,,,,,,,,,,,,,,,,5f341b3f18eb122c6c70507e,6036fcc8894cadd32021bb4d,2021-02-25_02h26.45.571,Colour_Similarity_Experiment,2020.2.10,Win32,60,6036d0d9a84aa1626184a6ef,16.70525109,17.01218868,16.66572917,16.66303342,16.66592199,16.75171831,,,,,,,,,,,,,,,,,,,,PF,weak,3,,,,,,,,7,1.028805,,,,,,,,,,,,,,,,,,,,,,,,,,,1,weak,73,108,1,0,0,response1disk,3,54,16,-13,1,0,0,rectangle,16,-13,1,0,0,0,0,0,8.5E-05,16,-13,1,0,0,0,53,53,1,1,,,,,,,,,,,,,,,,,,,,,
,,,,,,,,,,,,,,,,,,,,,,,,,,,,,,,,,,,,,,,,,,,5f341b3f18eb122c6c70507e,6036fcc8894cadd32021bb4d,2021-02-25_02h26.45.571,Colour_Similarity_Experiment,2020.2.10,Win32,60,6036d0d9a84aa1626184a6ef,16.70525109,17.01218868,16.66572917,16.66303342,16.66592199,16.75171831,,,,,,,,,,,,,,,,,,,,PF,strong,3,,,,,,,,6,2.10159,,,,,,,,,,,,,,,,,,,,,,,,,,,5,strong,101,52,1,0,0,response1disk,1,55,-13,-7,1,0,0,rectangle,-13,-7,1,0,0,0,7,0,0.000485,-13,-7,1,0,0,0,54,54,131,1,,,,,,,,,,,,,,,,,,,,,
,,,,,,,,,,,,,,,,,,,,,,,,,,,,,,,,,,,,,,,,,,,5f341b3f18eb122c6c70507e,6036fcc8894cadd32021bb4d,2021-02-25_02h26.45.571,Colour_Similarity_Experiment,2020.2.10,Win32,60,6036d0d9a84aa1626184a6ef,16.70525109,17.01218868,16.66572917,16.66303342,16.66592199,16.75171831,,,,,,,,,,,,,,,,,,,,PF,strong,3,,,,,,,,6,1.81337,,,,,,,,,,,,,,,,,,,,,,,,,,,2,strong,90,53,1,0,0,response1disk,6,56,-9,-6,1,0,0,rectangle,-9,-6,1,0,0,0,0,0,0.000485,-9,-6,1,0,0,0,55,55,40,1,,,,,,,,,,,,,,,,,,,,,
,,,,,,,,,,,,,,,,,,,,,,,,,,,,,,,,,,,,,,,,,,,5f341b3f18eb122c6c70507e,6036fcc8894cadd32021bb4d,2021-02-25_02h26.45.571,Colour_Similarity_Experiment,2020.2.10,Win32,60,6036d0d9a84aa1626184a6ef,16.70525109,17.01218868,16.66572917,16.66303342,16.66592199,16.75171831,,,,,,,,,,,,,,,,,,,,PF,strong,3,,,,,,,,6,1.916395,,,,,,,,,,,,,,,,,,,,,,,,,,,5,strong,87,47,1,0,0,response1disk,5,57,1,-3,1,0,0,rectangle,1,-3,1,0,0,0,1,0,0.000525,1,-3,1,0,0,0,56,56,19,1,,,,,,,,,,,,,,,,,,,,,
,,,,,,,,,,,,,,,,,,,,,,,,,,,,,,,,,,,,,,,,,,,5f341b3f18eb122c6c70507e,6036fcc8894cadd32021bb4d,2021-02-25_02h26.45.571,Colour_Similarity_Experiment,2020.2.10,Win32,60,6036d0d9a84aa1626184a6ef,16.70525109,17.01218868,16.66572917,16.66303342,16.66592199,16.75171831,,,,,,,,,,,,,,,,,,,,PF,strong,3,,,,,,,,6,1.17511,,,,,,,,,,,,,,,,,,,,,,,,,,,4,strong,124,69,1,0,0,response1disk,6,58,5,-11,1,0,0,rectangle,5,-11,1,0,0,0,7,0,0.000575,5,-11,1,0,0,0,57,57,122,1,,,,,,,,,,,,,,,,,,,,,
,,,,,,,,,,,,,,,,,,,,,,,,,,,,,,,,,,,,,,,,,,,5f341b3f18eb122c6c70507e,6036fcc8894cadd32021bb4d,2021-02-25_02h26.45.571,Colour_Similarity_Experiment,2020.2.10,Win32,60,6036d0d9a84aa1626184a6ef,16.70525109,17.01218868,16.66572917,16.66303342,16.66592199,16.75171831,,,,,,,,,,,,,,,,,,,,PF,strong,3,,,,,,,,7,0.957055,,,,,,,,,,,,,,,,,,,,,,,,,,,8,strong,68,95,1,0,0,response1disk,2,59,-12,-17,1,0,0,rectangle,-12,-17,1,0,0,0,2,0,0.00047,-12,-17,1,0,0,0,58,58,22,1,,,,,,,,,,,,,,,,,,,,,
,,,,,,,,,,,,,,,,,,,,,,,,,,,,,,,,,,,,,,,,,,,5f341b3f18eb122c6c70507e,6036fcc8894cadd32021bb4d,2021-02-25_02h26.45.571,Colour_Similarity_Experiment,2020.2.10,Win32,60,6036d0d9a84aa1626184a6ef,16.70525109,17.01218868,16.66572917,16.66303342,16.66592199,16.75171831,,,,,,,,,,,,,,,,,,,,PF,weak,3,,,,,,,,7,1.11747,,,,,,,,,,,,,,,,,,,,,,,,,,,5,weak,53,105,1,0,0,response1disk,2,60,-5,-2,1,0,0,rectangle,-5,-2,1,0,0,0,2,0,7E-05,-5,-2,1,0,0,0,59,59,129,1,,,,,,,,,,,,,,,,,,,,,
,,,,,,,,,,,,,,,,,,,,,,,,,,,,,,,,,,,,,,,,,,,5f341b3f18eb122c6c70507e,6036fcc8894cadd32021bb4d,2021-02-25_02h26.45.571,Colour_Similarity_Experiment,2020.2.10,Win32,60,6036d0d9a84aa1626184a6ef,16.70525109,17.01218868,16.66572917,16.66303342,16.66592199,16.75171831,,,,,,,,,,,,,,,,,,,,PF,weak,3,,,,,,,,1,1.72979,,,,,,,,,,,,,,,,,,,,,,,,,,,4,weak,-112,47,1,0,0,response7disk,3,61,-3,-12,1,0,0,rectangle,-3,-12,1,0,0,0,4,0,0.00051,-3,-12,1,0,0,0,60,60,89,1,,,,,,,,,,,,,,,,,,,,,
,,,,,,,,,,,,,,,,,,,,,,,,,,,,,,,,,,,,,,,,,,,5f341b3f18eb122c6c70507e,6036fcc8894cadd32021bb4d,2021-02-25_02h26.45.571,Colour_Similarity_Experiment,2020.2.10,Win32,60,6036d0d9a84aa1626184a6ef,16.70525109,17.01218868,16.66572917,16.66303342,16.66592199,16.75171831,,,,,,,,,,,,,,,,,,,,PF,weak,3,,,,,,,,2,1.884265,,,,,,,,,,,,,,,,,,,,,,,,,,,5,weak,-87,-67,1,0,0,response5disk,5,62,-17,3,1,0,0,rectangle,-17,3,1,0,0,0,3,0,0.00048,-17,3,1,0,0,0,61,61,94,1,,,,,,,,,,,,,,,,,,,,,
,,,,,,,,,,,,,,,,,,,,,,,,,,,,,,,,,,,,,,,,,,,5f341b3f18eb122c6c70507e,6036fcc8894cadd32021bb4d,2021-02-25_02h26.45.571,Colour_Similarity_Experiment,2020.2.10,Win32,60,6036d0d9a84aa1626184a6ef,16.70525109,17.01218868,16.66572917,16.66303342,16.66592199,16.75171831,,,,,,,,,,,,,,,,,,,,PF,weak,3,,,,,,,,4,1.52528,,,,,,,,,,,,,,,,,,,,,,,,,,,3,weak,44,-103,1,0,0,response3disk,4,63,9,8,1,0,0,rectangle,9,8,1,0,0,0,2,0,0.00048,9,8,1,0,0,0,62,62,30,1,,,,,,,,,,,,,,,,,,,,,
,,,,,,,,,,,,,,,,,,,,,,,,,,,,,,,,,,,,,,,,,,,5f341b3f18eb122c6c70507e,6036fcc8894cadd32021bb4d,2021-02-25_02h26.45.571,Colour_Similarity_Experiment,2020.2.10,Win32,60,6036d0d9a84aa1626184a6ef,16.70525109,17.01218868,16.66572917,16.66303342,16.66592199,16.75171831,,,,,,,,,,,,,,,,,,,,PF,strong,3,,,,,,,,6,29.82798,,,,,,,,,,,,,,,,,,,,,,,,,,,7,strong,101,74,1,0,0,response1disk,6,64,-7,-4,1,0,0,rectangle,-7,-4,1,0,0,0,0,0,0.00064,-7,-4,1,0,0,0,63,63,31,1,,,,,,,,,,,,,,,,,,,,,
,,,,,,,,,,,,,,,,,,,,,,,,,,,,,,,,,,,,,,,,,,,5f341b3f18eb122c6c70507e,6036fcc8894cadd32021bb4d,2021-02-25_02h26.45.571,Colour_Similarity_Experiment,2020.2.10,Win32,60,6036d0d9a84aa1626184a6ef,16.70525109,17.01218868,16.66572917,16.66303342,16.66592199,16.75171831,,,,,,,,,,,,,,,,,,,,PF,weak,3,,,,,,,,6,0.99121,,,,,,,,,,,,,,,,,,,,,,,,,,,9,weak,106,38,1,0,0,response1disk,3,65,14,-4,1,0,0,rectangle,14,-4,1,0,0,0,7,0,0.000505,14,-4,1,0,0,0,64,64,119,1,,,,,,,,,,,,,,,,,,,,,
,,,,,,,,,,,,,,,,,,,,,,,,,,,,,,,,,,,,,,,,,,,5f341b3f18eb122c6c70507e,6036fcc8894cadd32021bb4d,2021-02-25_02h26.45.571,Colour_Similarity_Experiment,2020.2.10,Win32,60,6036d0d9a84aa1626184a6ef,16.70525109,17.01218868,16.66572917,16.66303342,16.66592199,16.75171831,,,,,,,,,,,,,,,,,,,,PF,weak,3,,,,,,,,7,1.115195,,,,,,,,,,,,,,,,,,,,,,,,,,,5,weak,72,104,1,0,0,response1disk,9,66,-27,-18,1,0,0,rectangle,-52,142,1,0,0,0,0,1,1.8165,3,4,1,0,0,0,65,65,136,1,response7disk_3,rectangle,,,,,,,,,,,,,,,,,,,
,,,,,,,,,,,,,,,,,,,,,,,,,,,,,,,,,,,,,,,,,,,5f341b3f18eb122c6c70507e,6036fcc8894cadd32021bb4d,2021-02-25_02h26.45.571,Colour_Similarity_Experiment,2020.2.10,Win32,60,6036d0d9a84aa1626184a6ef,16.70525109,17.01218868,16.66572917,16.66303342,16.66592199,16.75171831,,,,,,,,,,,,,,,,,,,,PF,strong,3,,,,,,,,3,1.63211,,,,,,,,,,,,,,,,,,,,,,,,,,,3,strong,-53,-121,1,0,0,response5disk,5,67,3,13,1,0,0,rectangle,3,13,1,0,0,0,6,0,0.0005,3,13,1,0,0,0,66,66,101,1,,,,,,,,,,,,,,,,,,,,,
,,,,,,,,,,,,,,,,,,,,,,,,,,,,,,,,,,,,,,,,,,,5f341b3f18eb122c6c70507e,6036fcc8894cadd32021bb4d,2021-02-25_02h26.45.571,Colour_Similarity_Experiment,2020.2.10,Win32,60,6036d0d9a84aa1626184a6ef,16.70525109,17.01218868,16.66572917,16.66303342,16.66592199,16.75171831,,,,,,,,,,,,,,,,,,,,PF,weak,3,,,,,,,,6,2.844745,,,,,,,,,,,,,,,,,,,,,,,,,,,8,weak,101,41,1,0,0,response1disk,5,68,24,-11,1,0,0,rectangle,24,-11,1,0,0,0,1,0,0.000555,24,-11,1,0,0,0,67,67,98,1,,,,,,,,,,,,,,,,,,,,,
,,,,,,,,,,,,,,,,,,,,,,,,,,,,,,,,,,,,,,,,,,,5f341b3f18eb122c6c70507e,6036fcc8894cadd32021bb4d,2021-02-25_02h26.45.571,Colour_Similarity_Experiment,2020.2.10,Win32,60,6036d0d9a84aa1626184a6ef,16.70525109,17.01218868,16.66572917,16.66303342,16.66592199,16.75171831,,,,,,,,,,,,,,,,,,,,PF,weak,3,,,,,,,,3,1.62003,,,,,,,,,,,,,,,,,,,,,,,,,,,8,weak,-63,-112,1,0,0,response5disk,7,69,22,8,1,0,0,rectangle,22,8,1,0,0,0,5,0,0.000505,22,8,1,0,0,0,68,68,23,1,,,,,,,,,,,,,,,,,,,,,
,,,,,,,,,,,,,,,,,,,,,,,,,,,,,,,,,,,,,,,,,,,5f341b3f18eb122c6c70507e,6036fcc8894cadd32021bb4d,2021-02-25_02h26.45.571,Colour_Similarity_Experiment,2020.2.10,Win32,60,6036d0d9a84aa1626184a6ef,16.70525109,17.01218868,16.66572917,16.66303342,16.66592199,16.75171831,,,,,,,,,,,,,,,,,,,,PF,weak,3,,,,,,,,1,1.56275,,,,,,,,,,,,,,,,,,,,,,,,,,,2,weak,-120,53,1,0,0,response7disk,4,70,-17,-10,1,0,0,rectangle,-17,-10,1,0,0,0,2,0,0.00055,-17,-10,1,0,0,0,69,69,127,1,,,,,,,,,,,,,,,,,,,,,
,,,,,,,,,,,,,,,,,,,,,,,,,,,,,,,,,,,,,,,,,,,5f341b3f18eb122c6c70507e,6036fcc8894cadd32021bb4d,2021-02-25_02h26.45.571,Colour_Similarity_Experiment,2020.2.10,Win32,60,6036d0d9a84aa1626184a6ef,16.70525109,17.01218868,16.66572917,16.66303342,16.66592199,16.75171831,,,,,,,,,,,,,,,,,,,,PF,strong,3,,,,,,,,7,1.315225,,,,,,,,,,,,,,,,,,,,,,,,,,,1,strong,73,93,1,0,0,response1disk,5,71,32,-7,1,0,0,rectangle,32,-7,1,0,0,0,1,0,0.00049,32,-7,1,0,0,0,70,70,82,1,,,,,,,,,,,,,,,,,,,,,
,,,,,,,,,,,,,,,,,,,,,,,,,,,,,,,,,,,,,,,,,,,5f341b3f18eb122c6c70507e,6036fcc8894cadd32021bb4d,2021-02-25_02h26.45.571,Colour_Similarity_Experiment,2020.2.10,Win32,60,6036d0d9a84aa1626184a6ef,16.70525109,17.01218868,16.66572917,16.66303342,16.66592199,16.75171831,,,,,,,,,,,,,,,,,,,,PF,strong,3,,,,,,,,7,2.078935,,,,,,,,,,,,,,,,,,,,,,,,,,,1,strong,56,122,1,0,0,response1disk,6,72,9,16,1,0,0,rectangle,9,16,1,0,0,0,1,0,0.000095,9,16,1,0,0,0,71,71,58,1,,,,,,,,,,,,,,,,,,,,,
,,,,,,,,,,,,,,,,,,,,,,,,,,,,,,,,,,,,,,,,,,,5f341b3f18eb122c6c70507e,6036fcc8894cadd32021bb4d,2021-02-25_02h26.45.571,Colour_Similarity_Experiment,2020.2.10,Win32,60,6036d0d9a84aa1626184a6ef,16.70525109,17.01218868,16.66572917,16.66303342,16.66592199,16.75171831,,,,,,,,,,,,,,,,,,,,PF,weak,3,,,,,,,,7,1.24859,,,,,,,,,,,,,,,,,,,,,,,,,,,8,weak,62,139,1,0,0,response1disk,3,73,-12,2,1,0,0,rectangle,-12,2,1,0,0,0,3,0,0.000565,-12,2,1,0,0,0,72,72,71,1,,,,,,,,,,,,,,,,,,,,,
,,,,,,,,,,,,,,,,,,,,,,,,,,,,,,,,,,,,,,,,,,,5f341b3f18eb122c6c70507e,6036fcc8894cadd32021bb4d,2021-02-25_02h26.45.571,Colour_Similarity_Experiment,2020.2.10,Win32,60,6036d0d9a84aa1626184a6ef,16.70525109,17.01218868,16.66572917,16.66303342,16.66592199,16.75171831,,,,,,,,,,,,,,,,,,,,PF,strong,3,,,,,,,,7,1.125455,,,,,,,,,,,,,,,,,,,,,,,,,,,4,strong,67,76,1,0,0,response1disk,3,74,24,-3,1,0,0,rectangle,24,-3,1,0,0,0,3,0,7E-05,24,-3,1,0,0,0,73,73,77,1,,,,,,,,,,,,,,,,,,,,,
,,,,,,,,,,,,,,,,,,,,,,,,,,,,,,,,,,,,,,,,,,,5f341b3f18eb122c6c70507e,6036fcc8894cadd32021bb4d,2021-02-25_02h26.45.571,Colour_Similarity_Experiment,2020.2.10,Win32,60,6036d0d9a84aa1626184a6ef,16.70525109,17.01218868,16.66572917,16.66303342,16.66592199,16.75171831,,,,,,,,,,,,,,,,,,,,PF,strong,3,,,,,,,,7,1.01291,,,,,,,,,,,,,,,,,,,,,,,,,,,1,strong,54,105,1,0,0,response1disk,3,75,0,-1,1,0,0,rectangle,0,-1,1,0,0,0,2,0,0.000525,0,-1,1,0,0,0,74,74,99,1,,,,,,,,,,,,,,,,,,,,,
,,,,,,,,,,,,,,,,,,,,,,,,,,,,,,,,,,,,,,,,,,,5f341b3f18eb122c6c70507e,6036fcc8894cadd32021bb4d,2021-02-25_02h26.45.571,Colour_Similarity_Experiment,2020.2.10,Win32,60,6036d0d9a84aa1626184a6ef,16.70525109,17.01218868,16.66572917,16.66303342,16.66592199,16.75171831,,,,,,,,,,,,,,,,,,,,PF,weak,3,,,,,,,,7,1.113745,,,,,,,,,,,,,,,,,,,,,,,,,,,3,weak,60,104,1,0,0,response1disk,1,76,2,-5,1,0,0,rectangle,2,-5,1,0,0,0,2,0,7E-05,2,-5,1,0,0,0,75,75,96,1,,,,,,,,,,,,,,,,,,,,,
,,,,,,,,,,,,,,,,,,,,,,,,,,,,,,,,,,,,,,,,,,,5f341b3f18eb122c6c70507e,6036fcc8894cadd32021bb4d,2021-02-25_02h26.45.571,Colour_Similarity_Experiment,2020.2.10,Win32,60,6036d0d9a84aa1626184a6ef,16.70525109,17.01218868,16.66572917,16.66303342,16.66592199,16.75171831,,,,,,,,,,,,,,,,,,,,PF,strong,3,,,,,,,,2,1.896885,,,,,,,,,,,,,,,,,,,,,,,,,,,7,strong,-101,-35,1,0,0,response5disk,7,77,9,-2,1,0,0,rectangle,9,-2,1,0,0,0,6,0,0.00052,9,-2,1,0,0,0,76,76,34,1,,,,,,,,,,,,,,,,,,,,,
,,,,,,,,,,,,,,,,,,,,,,,,,,,,,,,,,,,,,,,,,,,5f341b3f18eb122c6c70507e,6036fcc8894cadd32021bb4d,2021-02-25_02h26.45.571,Colour_Similarity_Experiment,2020.2.10,Win32,60,6036d0d9a84aa1626184a6ef,16.70525109,17.01218868,16.66572917,16.66303342,16.66592199,16.75171831,,,,,,,,,,,,,,,,,,,,PF,strong,3,,,,,,,,7,1.075425,,,,,,,,,,,,,,,,,,,,,,,,,,,8,strong,53,99,1,0,0,response1disk,4,78,7,-3,1,0,0,rectangle,7,-3,1,0,0,0,3,0,0.000585,7,-3,1,0,0,0,77,77,88,1,,,,,,,,,,,,,,,,,,,,,
,,,,,,,,,,,,,,,,,,,,,,,,,,,,,,,,,,,,,,,,,,,5f341b3f18eb122c6c70507e,6036fcc8894cadd32021bb4d,2021-02-25_02h26.45.571,Colour_Similarity_Experiment,2020.2.10,Win32,60,6036d0d9a84aa1626184a6ef,16.70525109,17.01218868,16.66572917,16.66303342,16.66592199,16.75171831,,,,,,,,,,,,,,,,,,,,PF,weak,3,,,,,,,,7,0.79825,,,,,,,,,,,,,,,,,,,,,,,,,,,3,weak,58,105,1,0,0,response1disk,8,79,7,4,1,0,0,rectangle,7,4,1,0,0,0,6,0,0.000525,7,4,1,0,0,0,78,78,3,1,,,,,,,,,,,,,,,,,,,,,
,,,,,,,,,,,,,,,,,,,,,,,,,,,,,,,,,,,,,,,,,,,5f341b3f18eb122c6c70507e,6036fcc8894cadd32021bb4d,2021-02-25_02h26.45.571,Colour_Similarity_Experiment,2020.2.10,Win32,60,6036d0d9a84aa1626184a6ef,16.70525109,17.01218868,16.66572917,16.66303342,16.66592199,16.75171831,,,,,,,,,,,,,,,,,,,,PF,strong,3,,,,,,,,7,1.179965,,,,,,,,,,,,,,,,,,,,,,,,,,,5,strong,50,82,1,0,0,response1disk,6,80,8,0,1,0,0,rectangle,8,0,1,0,0,0,0,0,0.0005,8,0,1,0,0,0,79,79,12,1,,,,,,,,,,,,,,,,,,,,,
,,,,,,,,,,,,,,,,,,,,,,,,,,,,,,,,,,,,,,,,,,,5f341b3f18eb122c6c70507e,6036fcc8894cadd32021bb4d,2021-02-25_02h26.45.571,Colour_Similarity_Experiment,2020.2.10,Win32,60,6036d0d9a84aa1626184a6ef,16.70525109,17.01218868,16.66572917,16.66303342,16.66592199,16.75171831,,,,,,,,,,,,,,,,,,,,PF,weak,3,,,,,,,,7,1.164915,,,,,,,,,,,,,,,,,,,,,,,,,,,3,weak,60,122,1,0,0,response1disk,7,81,5,2,1,0,0,rectangle,5,2,1,0,0,0,0,0,0.000065,5,2,1,0,0,0,80,80,41,1,,,,,,,,,,,,,,,,,,,,,
,,,,,,,,,,,,,,,,,,,,,,,,,,,,,,,,,,,,,,,,,,,5f341b3f18eb122c6c70507e,6036fcc8894cadd32021bb4d,2021-02-25_02h26.45.571,Colour_Similarity_Experiment,2020.2.10,Win32,60,6036d0d9a84aa1626184a6ef,16.70525109,17.01218868,16.66572917,16.66303342,16.66592199,16.75171831,,,,,,,,,,,,,,,,,,,,PF,strong,3,,,,,,,,2,1.818335,,,,,,,,,,,,,,,,,,,,,,,,,,,8,strong,-121,-54,1,0,0,response5disk,7,82,14,19,1,0,0,rectangle,14,19,1,0,0,0,1,0,0.000505,14,19,1,0,0,0,81,81,86,1,,,,,,,,,,,,,,,,,,,,,
,,,,,,,,,,,,,,,,,,,,,,,,,,,,,,,,,,,,,,,,,,,5f341b3f18eb122c6c70507e,6036fcc8894cadd32021bb4d,2021-02-25_02h26.45.571,Colour_Similarity_Experiment,2020.2.10,Win32,60,6036d0d9a84aa1626184a6ef,16.70525109,17.01218868,16.66572917,16.66303342,16.66592199,16.75171831,,,,,,,,,,,,,,,,,,,,PF,weak,3,,,,,,,,7,1.31432,,,,,,,,,,,,,,,,,,,,,,,,,,,8,weak,91,114,1,0,0,response1disk,9,83,33,-2,1,0,0,rectangle,33,-2,1,0,0,0,5,0,0.000495,33,-2,1,0,0,0,82,82,42,1,,,,,,,,,,,,,,,,,,,,,
,,,,,,,,,,,,,,,,,,,,,,,,,,,,,,,,,,,,,,,,,,,5f341b3f18eb122c6c70507e,6036fcc8894cadd32021bb4d,2021-02-25_02h26.45.571,Colour_Similarity_Experiment,2020.2.10,Win32,60,6036d0d9a84aa1626184a6ef,16.70525109,17.01218868,16.66572917,16.66303342,16.66592199,16.75171831,,,,,,,,,,,,,,,,,,,,PF,weak,3,,,,,,,,7,0.963925,,,,,,,,,,,,,,,,,,,,,,,,,,,1,weak,46,111,1,0,0,response1disk,7,84,22,17,1,0,0,rectangle,22,17,1,0,0,0,1,0,0.000525,22,17,1,0,0,0,83,83,150,1,,,,,,,,,,,,,,,,,,,,,
,,,,,,,,,,,,,,,,,,,,,,,,,,,,,,,,,,,,,,,,,,,5f341b3f18eb122c6c70507e,6036fcc8894cadd32021bb4d,2021-02-25_02h26.45.571,Colour_Similarity_Experiment,2020.2.10,Win32,60,6036d0d9a84aa1626184a6ef,16.70525109,17.01218868,16.66572917,16.66303342,16.66592199,16.75171831,,,,,,,,,,,,,,,,,,,,PF,weak,3,,,,,,,,7,1.27819,,,,,,,,,,,,,,,,,,,,,,,,,,,7,weak,47,100,1,0,0,response1disk,1,85,9,20,1,0,0,rectangle,9,20,1,0,0,0,2,0,0.00048,9,20,1,0,0,0,84,84,53,1,,,,,,,,,,,,,,,,,,,,,
,,,,,,,,,,,,,,,,,,,,,,,,,,,,,,,,,,,,,,,,,,,5f341b3f18eb122c6c70507e,6036fcc8894cadd32021bb4d,2021-02-25_02h26.45.571,Colour_Similarity_Experiment,2020.2.10,Win32,60,6036d0d9a84aa1626184a6ef,16.70525109,17.01218868,16.66572917,16.66303342,16.66592199,16.75171831,,,,,,,,,,,,,,,,,,,,PF,strong,3,,,,,,,,7,1.38378,,,,,,,,,,,,,,,,,,,,,,,,,,,8,strong,56,104,1,0,0,response1disk,6,86,21,4,1,0,0,rectangle,21,4,1,0,0,0,7,0,0.000485,21,4,1,0,0,0,85,85,37,1,,,,,,,,,,,,,,,,,,,,,
,,,,,,,,,,,,,,,,,,,,,,,,,,,,,,,,,,,,,,,,,,,5f341b3f18eb122c6c70507e,6036fcc8894cadd32021bb4d,2021-02-25_02h26.45.571,Colour_Similarity_Experiment,2020.2.10,Win32,60,6036d0d9a84aa1626184a6ef,16.70525109,17.01218868,16.66572917,16.66303342,16.66592199,16.75171831,,,,,,,,,,,,,,,,,,,,PF,weak,3,,,,,,,,7,1.51532,,,,,,,,,,,,,,,,,,,,,,,,,,,7,weak,72,80,1,0,0,response1disk,5,87,25,7,1,0,0,rectangle,25,7,1,0,0,0,1,0,0.00053,25,7,1,0,0,0,86,86,92,1,,,,,,,,,,,,,,,,,,,,,
,,,,,,,,,,,,,,,,,,,,,,,,,,,,,,,,,,,,,,,,,,,5f341b3f18eb122c6c70507e,6036fcc8894cadd32021bb4d,2021-02-25_02h26.45.571,Colour_Similarity_Experiment,2020.2.10,Win32,60,6036d0d9a84aa1626184a6ef,16.70525109,17.01218868,16.66572917,16.66303342,16.66592199,16.75171831,,,,,,,,,,,,,,,,,,,,PF,strong,3,,,,,,,,7,1.546945,,,,,,,,,,,,,,,,,,,,,,,,,,,2,strong,76,101,1,0,0,response1disk,5,88,21,-10,1,0,0,rectangle,21,-10,1,0,0,0,6,0,0.000495,21,-10,1,0,0,0,87,87,80,1,,,,,,,,,,,,,,,,,,,,,
,,,,,,,,,,,,,,,,,,,,,,,,,,,,,,,,,,,,,,,,,,,5f341b3f18eb122c6c70507e,6036fcc8894cadd32021bb4d,2021-02-25_02h26.45.571,Colour_Similarity_Experiment,2020.2.10,Win32,60,6036d0d9a84aa1626184a6ef,16.70525109,17.01218868,16.66572917,16.66303342,16.66592199,16.75171831,,,,,,,,,,,,,,,,,,,,PF,weak,3,,,,,,,,7,0.96128,,,,,,,,,,,,,,,,,,,,,,,,,,,7,weak,58,91,1,0,0,response1disk,9,89,3,6,1,0,0,rectangle,3,6,1,0,0,0,1,0,0.000645,3,6,1,0,0,0,88,88,10,1,,,,,,,,,,,,,,,,,,,,,
,,,,,,,,,,,,,,,,,,,,,,,,,,,,,,,,,,,,,,,,,,,5f341b3f18eb122c6c70507e,6036fcc8894cadd32021bb4d,2021-02-25_02h26.45.571,Colour_Similarity_Experiment,2020.2.10,Win32,60,6036d0d9a84aa1626184a6ef,16.70525109,17.01218868,16.66572917,16.66303342,16.66592199,16.75171831,,,,,,,,,,,,,,,,,,,,PF,strong,3,,,,,,,,6,1.416175,,,,,,,,,,,,,,,,,,,,,,,,,,,2,strong,104,60,1,0,0,response1disk,4,90,20,18,1,0,0,rectangle,20,18,1,0,0,0,6,0,0.00061,20,18,1,0,0,0,89,89,145,1,,,,,,,,,,,,,,,,,,,,,
,,,,,,,,,,,,,,,,,,,,,,,,,,,,,,,,,,,,,,,,,,,5f341b3f18eb122c6c70507e,6036fcc8894cadd32021bb4d,2021-02-25_02h26.45.571,Colour_Similarity_Experiment,2020.2.10,Win32,60,6036d0d9a84aa1626184a6ef,16.70525109,17.01218868,16.66572917,16.66303342,16.66592199,16.75171831,,,,,,,,,,,,,,,,,,,,PF,strong,3,,,,,,,,7,1.47824,,,,,,,,,,,,,,,,,,,,,,,,,,,7,strong,51,103,1,0,0,response1disk,3,91,3,-2,1,0,0,rectangle,3,-2,1,0,0,0,6,0,6E-05,3,-2,1,0,0,0,90,90,73,1,,,,,,,,,,,,,,,,,,,,,
,,,,,,,,,,,,,,,,,,,,,,,,,,,,,,,,,,,,,,,,,,,5f341b3f18eb122c6c70507e,6036fcc8894cadd32021bb4d,2021-02-25_02h26.45.571,Colour_Similarity_Experiment,2020.2.10,Win32,60,6036d0d9a84aa1626184a6ef,16.70525109,17.01218868,16.66572917,16.66303342,16.66592199,16.75171831,,,,,,,,,,,,,,,,,,,,PF,weak,3,,,,,,,,7,1.056625,,,,,,,,,,,,,,,,,,,,,,,,,,,5,weak,61,107,1,0,0,response1disk,8,92,7,-10,1,0,0,rectangle,7,-10,1,0,0,0,4,0,0.00049,7,-10,1,0,0,0,91,91,149,1,,,,,,,,,,,,,,,,,,,,,
,,,,,,,,,,,,,,,,,,,,,,,,,,,,,,,,,,,,,,,,,,,5f341b3f18eb122c6c70507e,6036fcc8894cadd32021bb4d,2021-02-25_02h26.45.571,Colour_Similarity_Experiment,2020.2.10,Win32,60,6036d0d9a84aa1626184a6ef,16.70525109,17.01218868,16.66572917,16.66303342,16.66592199,16.75171831,,,,,,,,,,,,,,,,,,,,PF,weak,3,,,,,,,,3,1.43434,,,,,,,,,,,,,,,,,,,,,,,,,,,3,weak,-64,-129,1,0,0,response5disk,5,93,22,-4,1,0,0,rectangle,22,-4,1,0,0,0,6,0,0.00047,22,-4,1,0,0,0,92,92,66,1,,,,,,,,,,,,,,,,,,,,,
,,,,,,,,,,,,,,,,,,,,,,,,,,,,,,,,,,,,,,,,,,,5f341b3f18eb122c6c70507e,6036fcc8894cadd32021bb4d,2021-02-25_02h26.45.571,Colour_Similarity_Experiment,2020.2.10,Win32,60,6036d0d9a84aa1626184a6ef,16.70525109,17.01218868,16.66572917,16.66303342,16.66592199,16.75171831,,,,,,,,,,,,,,,,,,,,PF,weak,3,,,,,,,,7,1.01522,,,,,,,,,,,,,,,,,,,,,,,,,,,1,weak,51,90,1,0,0,response1disk,8,94,0,-7,1,0,0,rectangle,0,-7,1,0,0,0,4,0,0.00059,0,-7,1,0,0,0,93,93,65,1,,,,,,,,,,,,,,,,,,,,,
,,,,,,,,,,,,,,,,,,,,,,,,,,,,,,,,,,,,,,,,,,,5f341b3f18eb122c6c70507e,6036fcc8894cadd32021bb4d,2021-02-25_02h26.45.571,Colour_Similarity_Experiment,2020.2.10,Win32,60,6036d0d9a84aa1626184a6ef,16.70525109,17.01218868,16.66572917,16.66303342,16.66592199,16.75171831,,,,,,,,,,,,,,,,,,,,PF,weak,3,,,,,,,,4,1.71502,,,,,,,,,,,,,,,,,,,,,,,,,,,9,weak,48,-89,1,0,0,response3disk,1,95,-7,-7,1,0,0,rectangle,-7,-7,1,0,0,0,5,0,0.0005,-7,-7,1,0,0,0,94,94,74,1,,,,,,,,,,,,,,,,,,,,,
,,,,,,,,,,,,,,,,,,,,,,,,,,,,,,,,,,,,,,,,,,,5f341b3f18eb122c6c70507e,6036fcc8894cadd32021bb4d,2021-02-25_02h26.45.571,Colour_Similarity_Experiment,2020.2.10,Win32,60,6036d0d9a84aa1626184a6ef,16.70525109,17.01218868,16.66572917,16.66303342,16.66592199,16.75171831,,,,,,,,,,,,,,,,,,,,PF,strong,3,,,,,,,,6,1.828245,,,,,,,,,,,,,,,,,,,,,,,,,,,4,strong,109,48,1,0,0,response1disk,7,96,17,3,1,0,0,rectangle,17,3,1,0,0,0,3,0,0.0005,17,3,1,0,0,0,95,95,87,1,,,,,,,,,,,,,,,,,,,,,
,,,,,,,,,,,,,,,,,,,,,,,,,,,,,,,,,,,,,,,,,,,5f341b3f18eb122c6c70507e,6036fcc8894cadd32021bb4d,2021-02-25_02h26.45.571,Colour_Similarity_Experiment,2020.2.10,Win32,60,6036d0d9a84aa1626184a6ef,16.70525109,17.01218868,16.66572917,16.66303342,16.66592199,16.75171831,,,,,,,,,,,,,,,,,,,,PF,weak,3,,,,,,,,6,1.181595,,,,,,,,,,,,,,,,,,,,,,,,,,,6,weak,100,45,1,0,0,response1disk,2,97,2,-7,1,0,0,rectangle,2,-7,1,0,0,0,3,0,0.000065,2,-7,1,0,0,0,96,96,130,1,,,,,,,,,,,,,,,,,,,,,
,,,,,,,,,,,,,,,,,,,,,,,,,,,,,,,,,,,,,,,,,,,5f341b3f18eb122c6c70507e,6036fcc8894cadd32021bb4d,2021-02-25_02h26.45.571,Colour_Similarity_Experiment,2020.2.10,Win32,60,6036d0d9a84aa1626184a6ef,16.70525109,17.01218868,16.66572917,16.66303342,16.66592199,16.75171831,,,,,,,,,,,,,,,,,,,,PF,weak,3,,,,,,,,0,2.007375,,,,,,,,,,,,,,,,,,,,,,,,,,,6,weak,-87,128,1,0,0,response7disk,6,98,-25,4,1,0,0,rectangle,-25,4,1,0,0,0,4,0,0.0005,-25,4,1,0,0,0,97,97,0,1,,,,,,,,,,,,,,,,,,,,,
,,,,,,,,,,,,,,,,,,,,,,,,,,,,,,,,,,,,,,,,,,,5f341b3f18eb122c6c70507e,6036fcc8894cadd32021bb4d,2021-02-25_02h26.45.571,Colour_Similarity_Experiment,2020.2.10,Win32,60,6036d0d9a84aa1626184a6ef,16.70525109,17.01218868,16.66572917,16.66303342,16.66592199,16.75171831,,,,,,,,,,,,,,,,,,,,PF,strong,3,,,,,,,,7,1.30069,,,,,,,,,,,,,,,,,,,,,,,,,,,7,strong,55,104,1,0,0,response1disk,2,99,11,13,1,0,0,rectangle,11,13,1,0,0,0,2,0,0.00066,11,13,1,0,0,0,98,98,138,1,,,,,,,,,,,,,,,,,,,,,
,,,,,,,,,,,,,,,,,,,,,,,,,,,,,,,,,,,,,,,,,,,5f341b3f18eb122c6c70507e,6036fcc8894cadd32021bb4d,2021-02-25_02h26.45.571,Colour_Similarity_Experiment,2020.2.10,Win32,60,6036d0d9a84aa1626184a6ef,16.70525109,17.01218868,16.66572917,16.66303342,16.66592199,16.75171831,,,,,,,,,,,,,,,,,,,,PF,strong,3,,,,,,,,7,0.95821,,,,,,,,,,,,,,,,,,,,,,,,,,,6,strong,69,109,1,0,0,response1disk,4,100,-1,-4,1,0,0,rectangle,-1,-4,1,0,0,0,6,0,0.0005,-1,-4,1,0,0,0,99,99,56,1,,,,,,,,,,,,,,,,,,,,,
,,,,,,,,,,,,,,,,,,,,,,,,,,,,,,,,,,,,,,,,,,,5f341b3f18eb122c6c70507e,6036fcc8894cadd32021bb4d,2021-02-25_02h26.45.571,Colour_Similarity_Experiment,2020.2.10,Win32,60,6036d0d9a84aa1626184a6ef,16.70525109,17.01218868,16.66572917,16.66303342,16.66592199,16.75171831,,,,,,,,,,,,,,,,,,,,PF,weak,3,,,,,,,,7,1.76563,,,,,,,,,,,,,,,,,,,,,,,,,,,4,weak,62,125,1,0,0,response1disk,7,101,9,13,1,0,0,rectangle,9,13,1,0,0,0,1,0,0.00049,9,13,1,0,0,0,100,100,38,1,,,,,,,,,,,,,,,,,,,,,
,,,,,,,,,,,,,,,,,,,,,,,,,,,,,,,,,,,,,,,,,,,5f341b3f18eb122c6c70507e,6036fcc8894cadd32021bb4d,2021-02-25_02h26.45.571,Colour_Similarity_Experiment,2020.2.10,Win32,60,6036d0d9a84aa1626184a6ef,16.70525109,17.01218868,16.66572917,16.66303342,16.66592199,16.75171831,,,,,,,,,,,,,,,,,,,,PF,strong,3,,,,,,,,3,1.58185,,,,,,,,,,,,,,,,,,,,,,,,,,,2,strong,-66,-95,1,0,0,response5disk,8,102,-18,5,1,0,0,rectangle,-18,5,1,0,0,0,1,0,0.000085,-18,5,1,0,0,0,101,101,62,1,,,,,,,,,,,,,,,,,,,,,
,,,,,,,,,,,,,,,,,,,,,,,,,,,,,,,,,,,,,,,,,,,5f341b3f18eb122c6c70507e,6036fcc8894cadd32021bb4d,2021-02-25_02h26.45.571,Colour_Similarity_Experiment,2020.2.10,Win32,60,6036d0d9a84aa1626184a6ef,16.70525109,17.01218868,16.66572917,16.66303342,16.66592199,16.75171831,,,,,,,,,,,,,,,,,,,,PF,strong,3,,,,,,,,4,2.05935,,,,,,,,,,,,,,,,,,,,,,,,,,,6,strong,33,-98,1,0,0,response3disk,8,103,20,-11,1,0,0,rectangle,20,-11,1,0,0,0,2,0,0.000495,20,-11,1,0,0,0,102,102,133,1,,,,,,,,,,,,,,,,,,,,,
,,,,,,,,,,,,,,,,,,,,,,,,,,,,,,,,,,,,,,,,,,,5f341b3f18eb122c6c70507e,6036fcc8894cadd32021bb4d,2021-02-25_02h26.45.571,Colour_Similarity_Experiment,2020.2.10,Win32,60,6036d0d9a84aa1626184a6ef,16.70525109,17.01218868,16.66572917,16.66303342,16.66592199,16.75171831,,,,,,,,,,,,,,,,,,,,PF,weak,3,,,,,,,,6,2.5233,,,,,,,,,,,,,,,,,,,,,,,,,,,4,weak,106,32,1,0,0,response1disk,2,104,15,11,1,0,0,rectangle,15,11,1,0,0,0,7,0,0.000505,15,11,1,0,0,0,103,103,108,1,,,,,,,,,,,,,,,,,,,,,
,,,,,,,,,,,,,,,,,,,,,,,,,,,,,,,,,,,,,,,,,,,5f341b3f18eb122c6c70507e,6036fcc8894cadd32021bb4d,2021-02-25_02h26.45.571,Colour_Similarity_Experiment,2020.2.10,Win32,60,6036d0d9a84aa1626184a6ef,16.70525109,17.01218868,16.66572917,16.66303342,16.66592199,16.75171831,,,,,,,,,,,,,,,,,,,,PF,strong,3,,,,,,,,7,2.82541,,,,,,,,,,,,,,,,,,,,,,,,,,,4,strong,59,117,1,0,0,response1disk,8,105,21,-9,1,0,0,rectangle,21,-9,1,0,0,0,2,0,0.000495,21,-9,1,0,0,0,104,104,35,1,,,,,,,,,,,,,,,,,,,,,
,,,,,,,,,,,,,,,,,,,,,,,,,,,,,,,,,,,,,,,,,,,5f341b3f18eb122c6c70507e,6036fcc8894cadd32021bb4d,2021-02-25_02h26.45.571,Colour_Similarity_Experiment,2020.2.10,Win32,60,6036d0d9a84aa1626184a6ef,16.70525109,17.01218868,16.66572917,16.66303342,16.66592199,16.75171831,,,,,,,,,,,,,,,,,,,,PF,strong,3,,,,,,,,2,1.496835,,,,,,,,,,,,,,,,,,,,,,,,,,,2,strong,-79,-59,1,0,0,response5disk,3,106,16,-13,1,0,0,rectangle,61,127,1,0,0,7,7,1,1.766435,1,-13,1,0,0,0,105,105,104,1,response1disk_3,rectangle,,,,,,,,,,,,,,,,,,,
,,,,,,,,,,,,,,,,,,,,,,,,,,,,,,,,,,,,,,,,,,,5f341b3f18eb122c6c70507e,6036fcc8894cadd32021bb4d,2021-02-25_02h26.45.571,Colour_Similarity_Experiment,2020.2.10,Win32,60,6036d0d9a84aa1626184a6ef,16.70525109,17.01218868,16.66572917,16.66303342,16.66592199,16.75171831,,,,,,,,,,,,,,,,,,,,PF,strong,3,,,,,,,,4,35.44946,,,,,,,,,,,,,,,,,,,,,,,,,,,8,strong,56,-72,1,0,0,response3disk,9,107,22,3,1,0,0,rectangle,22,3,1,0,0,7,5,0,0.00054,22,3,1,0,0,0,106,106,105,1,,,,,,,,,,,,,,,,,,,,,
,,,,,,,,,,,,,,,,,,,,,,,,,,,,,,,,,,,,,,,,,,,5f341b3f18eb122c6c70507e,6036fcc8894cadd32021bb4d,2021-02-25_02h26.45.571,Colour_Similarity_Experiment,2020.2.10,Win32,60,6036d0d9a84aa1626184a6ef,16.70525109,17.01218868,16.66572917,16.66303342,16.66592199,16.75171831,,,,,,,,,,,,,,,,,,,,PF,weak,3,,,,,,,,0,1.109315,,,,,,,,,,,,,,,,,,,,,,,,,,,1,weak,-80,123,1,0,0,response7disk,1,108,-12,-5,1,0,0,rectangle,130,55,1,0,0,6,6,1,1.828125,1,7,1,0,0,0,107,107,76,1,response1disk_3,rectangle,,,,,,,,,,,,,,,,,,,
,,,,,,,,,,,,,,,,,,,,,,,,,,,,,,,,,,,,,,,,,,,5f341b3f18eb122c6c70507e,6036fcc8894cadd32021bb4d,2021-02-25_02h26.45.571,Colour_Similarity_Experiment,2020.2.10,Win32,60,6036d0d9a84aa1626184a6ef,16.70525109,17.01218868,16.66572917,16.66303342,16.66592199,16.75171831,,,,,,,,,,,,,,,,,,,,PF,weak,3,,,,,,,,7,1.66441,,,,,,,,,,,,,,,,,,,,,,,,,,,2,weak,61,95,1,0,0,response1disk,8,109,16,9,1,0,0,rectangle,16,9,1,0,0,6,0,0,0.00057,16,9,1,0,0,0,108,108,52,1,,,,,,,,,,,,,,,,,,,,,
,,,,,,,,,,,,,,,,,,,,,,,,,,,,,,,,,,,,,,,,,,,5f341b3f18eb122c6c70507e,6036fcc8894cadd32021bb4d,2021-02-25_02h26.45.571,Colour_Similarity_Experiment,2020.2.10,Win32,60,6036d0d9a84aa1626184a6ef,16.70525109,17.01218868,16.66572917,16.66303342,16.66592199,16.75171831,,,,,,,,,,,,,,,,,,,,PF,strong,3,,,,,,,,7,1.27615,,,,,,,,,,,,,,,,,,,,,,,,,,,1,strong,54,93,1,0,0,response1disk,9,110,6,5,1,0,0,rectangle,6,5,1,0,0,6,4,0,0.000495,6,5,1,0,0,0,109,109,123,1,,,,,,,,,,,,,,,,,,,,,
,,,,,,,,,,,,,,,,,,,,,,,,,,,,,,,,,,,,,,,,,,,5f341b3f18eb122c6c70507e,6036fcc8894cadd32021bb4d,2021-02-25_02h26.45.571,Colour_Similarity_Experiment,2020.2.10,Win32,60,6036d0d9a84aa1626184a6ef,16.70525109,17.01218868,16.66572917,16.66303342,16.66592199,16.75171831,,,,,,,,,,,,,,,,,,,,PF,strong,3,,,,,,,,7,1.16459,,,,,,,,,,,,,,,,,,,,,,,,,,,3,strong,63,92,1,0,0,response1disk,9,111,11,2,1,0,0,rectangle,11,2,1,0,0,6,2,0,0.000485,11,2,1,0,0,0,110,110,143,1,,,,,,,,,,,,,,,,,,,,,
,,,,,,,,,,,,,,,,,,,,,,,,,,,,,,,,,,,,,,,,,,,5f341b3f18eb122c6c70507e,6036fcc8894cadd32021bb4d,2021-02-25_02h26.45.571,Colour_Similarity_Experiment,2020.2.10,Win32,60,6036d0d9a84aa1626184a6ef,16.70525109,17.01218868,16.66572917,16.66303342,16.66592199,16.75171831,,,,,,,,,,,,,,,,,,,,PF,weak,3,,,,,,,,7,0.864925,,,,,,,,,,,,,,,,,,,,,,,,,,,3,weak,66,100,1,0,0,response1disk,9,112,16,7,1,0,0,rectangle,16,7,1,0,0,6,0,0,0.000515,16,7,1,0,0,0,111,111,79,1,,,,,,,,,,,,,,,,,,,,,
,,,,,,,,,,,,,,,,,,,,,,,,,,,,,,,,,,,,,,,,,,,5f341b3f18eb122c6c70507e,6036fcc8894cadd32021bb4d,2021-02-25_02h26.45.571,Colour_Similarity_Experiment,2020.2.10,Win32,60,6036d0d9a84aa1626184a6ef,16.70525109,17.01218868,16.66572917,16.66303342,16.66592199,16.75171831,,,,,,,,,,,,,,,,,,,,PF,strong,3,,,,,,,,7,1.129185,,,,,,,,,,,,,,,,,,,,,,,,,,,9,strong,51,108,1,0,0,response1disk,1,113,9,3,1,0,0,rectangle,9,3,1,0,0,6,5,0,0.000465,9,3,1,0,0,0,112,112,111,1,,,,,,,,,,,,,,,,,,,,,
,,,,,,,,,,,,,,,,,,,,,,,,,,,,,,,,,,,,,,,,,,,5f341b3f18eb122c6c70507e,6036fcc8894cadd32021bb4d,2021-02-25_02h26.45.571,Colour_Similarity_Experiment,2020.2.10,Win32,60,6036d0d9a84aa1626184a6ef,16.70525109,17.01218868,16.66572917,16.66303342,16.66592199,16.75171831,,,,,,,,,,,,,,,,,,,,PF,weak,3,,,,,,,,0,1.33339,,,,,,,,,,,,,,,,,,,,,,,,,,,3,weak,-63,121,1,0,0,response7disk,3,114,-30,16,1,0,0,rectangle,-30,16,1,0,0,6,2,0,0.0005,-30,16,1,0,0,0,113,113,4,1,,,,,,,,,,,,,,,,,,,,,
,,,,,,,,,,,,,,,,,,,,,,,,,,,,,,,,,,,,,,,,,,,5f341b3f18eb122c6c70507e,6036fcc8894cadd32021bb4d,2021-02-25_02h26.45.571,Colour_Similarity_Experiment,2020.2.10,Win32,60,6036d0d9a84aa1626184a6ef,16.70525109,17.01218868,16.66572917,16.66303342,16.66592199,16.75171831,,,,,,,,,,,,,,,,,,,,PF,weak,3,,,,,,,,2,1.58194,,,,,,,,,,,,,,,,,,,,,,,,,,,5,weak,-126,-53,1,0,0,response5disk,4,115,9,4,1,0,0,rectangle,9,4,1,0,0,6,0,0,0.000555,9,4,1,0,0,0,114,114,54,1,,,,,,,,,,,,,,,,,,,,,
,,,,,,,,,,,,,,,,,,,,,,,,,,,,,,,,,,,,,,,,,,,5f341b3f18eb122c6c70507e,6036fcc8894cadd32021bb4d,2021-02-25_02h26.45.571,Colour_Similarity_Experiment,2020.2.10,Win32,60,6036d0d9a84aa1626184a6ef,16.70525109,17.01218868,16.66572917,16.66303342,16.66592199,16.75171831,,,,,,,,,,,,,,,,,,,,PF,weak,3,,,,,,,,2,1.25886,,,,,,,,,,,,,,,,,,,,,,,,,,,3,weak,-119,-44,1,0,0,response5disk,2,116,9,8,1,0,0,rectangle,-156,61,1,0,0,1,1,1,1.633225,-10,-2,1,0,0,0,115,115,36,1,response7disk_3,rectangle,,,,,,,,,,,,,,,,,,,
,,,,,,,,,,,,,,,,,,,,,,,,,,,,,,,,,,,,,,,,,,,5f341b3f18eb122c6c70507e,6036fcc8894cadd32021bb4d,2021-02-25_02h26.45.571,Colour_Similarity_Experiment,2020.2.10,Win32,60,6036d0d9a84aa1626184a6ef,16.70525109,17.01218868,16.66572917,16.66303342,16.66592199,16.75171831,,,,,,,,,,,,,,,,,,,,PF,weak,3,,,,,,,,7,2.181715,,,,,,,,,,,,,,,,,,,,,,,,,,,9,weak,56,108,1,0,0,response1disk,5,117,3,10,1,0,0,rectangle,3,10,1,0,0,1,6,0,0.00053,3,10,1,0,0,0,116,116,134,1,,,,,,,,,,,,,,,,,,,,,
,,,,,,,,,,,,,,,,,,,,,,,,,,,,,,,,,,,,,,,,,,,5f341b3f18eb122c6c70507e,6036fcc8894cadd32021bb4d,2021-02-25_02h26.45.571,Colour_Similarity_Experiment,2020.2.10,Win32,60,6036d0d9a84aa1626184a6ef,16.70525109,17.01218868,16.66572917,16.66303342,16.66592199,16.75171831,,,,,,,,,,,,,,,,,,,,PF,weak,3,,,,,,,,7,0.88819,,,,,,,,,,,,,,,,,,,,,,,,,,,8,weak,46,99,1,0,0,response1disk,1,118,4,6,1,0,0,rectangle,4,6,1,0,0,1,5,0,0.00049,4,6,1,0,0,0,117,117,57,1,,,,,,,,,,,,,,,,,,,,,
,,,,,,,,,,,,,,,,,,,,,,,,,,,,,,,,,,,,,,,,,,,5f341b3f18eb122c6c70507e,6036fcc8894cadd32021bb4d,2021-02-25_02h26.45.571,Colour_Similarity_Experiment,2020.2.10,Win32,60,6036d0d9a84aa1626184a6ef,16.70525109,17.01218868,16.66572917,16.66303342,16.66592199,16.75171831,,,,,,,,,,,,,,,,,,,,PF,strong,3,,,,,,,,7,0.84917,,,,,,,,,,,,,,,,,,,,,,,,,,,3,strong,39,93,1,0,0,response1disk,1,119,0,4,1,0,0,rectangle,0,4,1,0,0,1,6,0,0.00052,0,4,1,0,0,0,118,118,125,1,,,,,,,,,,,,,,,,,,,,,
,,,,,,,,,,,,,,,,,,,,,,,,,,,,,,,,,,,,,,,,,,,5f341b3f18eb122c6c70507e,6036fcc8894cadd32021bb4d,2021-02-25_02h26.45.571,Colour_Similarity_Experiment,2020.2.10,Win32,60,6036d0d9a84aa1626184a6ef,16.70525109,17.01218868,16.66572917,16.66303342,16.66592199,16.75171831,,,,,,,,,,,,,,,,,,,,PF,strong,3,,,,,,,,7,1.611955,,,,,,,,,,,,,,,,,,,,,,,,,,,4,strong,50,96,1,0,0,response1disk,5,120,2,7,1,0,0,rectangle,2,7,1,0,0,1,1,0,0.00054,2,7,1,0,0,0,119,119,116,1,,,,,,,,,,,,,,,,,,,,,
,,,,,,,,,,,,,,,,,,,,,,,,,,,,,,,,,,,,,,,,,,,5f341b3f18eb122c6c70507e,6036fcc8894cadd32021bb4d,2021-02-25_02h26.45.571,Colour_Similarity_Experiment,2020.2.10,Win32,60,6036d0d9a84aa1626184a6ef,16.70525109,17.01218868,16.66572917,16.66303342,16.66592199,16.75171831,,,,,,,,,,,,,,,,,,,,PF,weak,3,,,,,,,,3,0.913545,,,,,,,,,,,,,,,,,,,,,,,,,,,4,weak,-71,-103,1,0,0,response5disk,5,121,-18,0,1,0,0,rectangle,-18,0,1,0,0,1,7,0,0.000475,-18,0,1,0,0,0,120,120,49,1,,,,,,,,,,,,,,,,,,,,,
,,,,,,,,,,,,,,,,,,,,,,,,,,,,,,,,,,,,,,,,,,,5f341b3f18eb122c6c70507e,6036fcc8894cadd32021bb4d,2021-02-25_02h26.45.571,Colour_Similarity_Experiment,2020.2.10,Win32,60,6036d0d9a84aa1626184a6ef,16.70525109,17.01218868,16.66572917,16.66303342,16.66592199,16.75171831,,,,,,,,,,,,,,,,,,,,PF,strong,3,,,,,,,,3,1.715845,,,,,,,,,,,,,,,,,,,,,,,,,,,9,strong,-68,-115,1,0,0,response5disk,5,122,20,6,1,0,0,rectangle,20,6,1,0,0,1,4,0,0.0005,20,6,1,0,0,0,121,121,128,1,,,,,,,,,,,,,,,,,,,,,
,,,,,,,,,,,,,,,,,,,,,,,,,,,,,,,,,,,,,,,,,,,5f341b3f18eb122c6c70507e,6036fcc8894cadd32021bb4d,2021-02-25_02h26.45.571,Colour_Similarity_Experiment,2020.2.10,Win32,60,6036d0d9a84aa1626184a6ef,16.70525109,17.01218868,16.66572917,16.66303342,16.66592199,16.75171831,,,,,,,,,,,,,,,,,,,,PF,weak,3,,,,,,,,7,1.209865,,,,,,,,,,,,,,,,,,,,,,,,,,,7,weak,41,94,1,0,0,response1disk,2,123,4,6,1,0,0,rectangle,4,6,1,0,0,1,4,0,9.5E-05,4,6,1,0,0,0,122,122,32,1,,,,,,,,,,,,,,,,,,,,,
,,,,,,,,,,,,,,,,,,,,,,,,,,,,,,,,,,,,,,,,,,,5f341b3f18eb122c6c70507e,6036fcc8894cadd32021bb4d,2021-02-25_02h26.45.571,Colour_Similarity_Experiment,2020.2.10,Win32,60,6036d0d9a84aa1626184a6ef,16.70525109,17.01218868,16.66572917,16.66303342,16.66592199,16.75171831,,,,,,,,,,,,,,,,,,,,PF,weak,3,,,,,,,,7,1.03034,,,,,,,,,,,,,,,,,,,,,,,,,,,4,weak,32,87,1,0,0,response1disk,9,124,7,4,1,0,0,rectangle,7,4,1,0,0,1,6,0,0.00047,7,4,1,0,0,0,123,123,75,1,,,,,,,,,,,,,,,,,,,,,
,,,,,,,,,,,,,,,,,,,,,,,,,,,,,,,,,,,,,,,,,,,5f341b3f18eb122c6c70507e,6036fcc8894cadd32021bb4d,2021-02-25_02h26.45.571,Colour_Similarity_Experiment,2020.2.10,Win32,60,6036d0d9a84aa1626184a6ef,16.70525109,17.01218868,16.66572917,16.66303342,16.66592199,16.75171831,,,,,,,,,,,,,,,,,,,,PF,weak,3,,,,,,,,3,1.898595,,,,,,,,,,,,,,,,,,,,,,,,,,,1,weak,-36,-133,1,0,0,response5disk,9,125,4,-8,1,0,0,rectangle,4,-8,1,0,0,1,5,0,0.0005,4,-8,1,0,0,0,124,124,15,1,,,,,,,,,,,,,,,,,,,,,
,,,,,,,,,,,,,,,,,,,,,,,,,,,,,,,,,,,,,,,,,,,5f341b3f18eb122c6c70507e,6036fcc8894cadd32021bb4d,2021-02-25_02h26.45.571,Colour_Similarity_Experiment,2020.2.10,Win32,60,6036d0d9a84aa1626184a6ef,16.70525109,17.01218868,16.66572917,16.66303342,16.66592199,16.75171831,,,,,,,,,,,,,,,,,,,,PF,strong,3,,,,,,,,3,1.336055,,,,,,,,,,,,,,,,,,,,,,,,,,,5,strong,-58,-119,1,0,0,response5disk,8,126,17,16,1,0,0,rectangle,17,16,1,0,0,1,7,0,0.0005,17,16,1,0,0,0,125,125,16,1,,,,,,,,,,,,,,,,,,,,,
,,,,,,,,,,,,,,,,,,,,,,,,,,,,,,,,,,,,,,,,,,,5f341b3f18eb122c6c70507e,6036fcc8894cadd32021bb4d,2021-02-25_02h26.45.571,Colour_Similarity_Experiment,2020.2.10,Win32,60,6036d0d9a84aa1626184a6ef,16.70525109,17.01218868,16.66572917,16.66303342,16.66592199,16.75171831,,,,,,,,,,,,,,,,,,,,PF,weak,3,,,,,,,,7,1.48506,,,,,,,,,,,,,,,,,,,,,,,,,,,1,weak,56,106,1,0,0,response1disk,6,127,-11,-2,1,0,0,rectangle,-11,-2,1,0,0,1,2,0,0.00051,-11,-2,1,0,0,0,126,126,144,1,,,,,,,,,,,,,,,,,,,,,
,,,,,,,,,,,,,,,,,,,,,,,,,,,,,,,,,,,,,,,,,,,5f341b3f18eb122c6c70507e,6036fcc8894cadd32021bb4d,2021-02-25_02h26.45.571,Colour_Similarity_Experiment,2020.2.10,Win32,60,6036d0d9a84aa1626184a6ef,16.70525109,17.01218868,16.66572917,16.66303342,16.66592199,16.75171831,,,,,,,,,,,,,,,,,,,,PF,strong,3,,,,,,,,7,1.098155,,,,,,,,,,,,,,,,,,,,,,,,,,,6,strong,45,89,1,0,0,response1disk,1,128,7,-12,1,0,0,rectangle,7,-12,1,0,0,1,5,0,0.00049,7,-12,1,0,0,0,127,127,5,1,,,,,,,,,,,,,,,,,,,,,
,,,,,,,,,,,,,,,,,,,,,,,,,,,,,,,,,,,,,,,,,,,5f341b3f18eb122c6c70507e,6036fcc8894cadd32021bb4d,2021-02-25_02h26.45.571,Colour_Similarity_Experiment,2020.2.10,Win32,60,6036d0d9a84aa1626184a6ef,16.70525109,17.01218868,16.66572917,16.66303342,16.66592199,16.75171831,,,,,,,,,,,,,,,,,,,,PF,strong,3,,,,,,,,7,0.88091,,,,,,,,,,,,,,,,,,,,,,,,,,,8,strong,44,103,1,0,0,response1disk,1,129,7,-3,1,0,0,rectangle,7,-3,1,0,0,1,0,0,0.000645,7,-3,1,0,0,0,128,128,20,1,,,,,,,,,,,,,,,,,,,,,
,,,,,,,,,,,,,,,,,,,,,,,,,,,,,,,,,,,,,,,,,,,5f341b3f18eb122c6c70507e,6036fcc8894cadd32021bb4d,2021-02-25_02h26.45.571,Colour_Similarity_Experiment,2020.2.10,Win32,60,6036d0d9a84aa1626184a6ef,16.70525109,17.01218868,16.66572917,16.66303342,16.66592199,16.75171831,,,,,,,,,,,,,,,,,,,,PF,weak,3,,,,,,,,7,0.98097,,,,,,,,,,,,,,,,,,,,,,,,,,,2,weak,34,103,1,0,0,response1disk,1,130,-9,-4,1,0,0,rectangle,-9,-4,1,0,0,1,5,0,0.00048,-9,-4,1,0,0,0,129,129,9,1,,,,,,,,,,,,,,,,,,,,,
,,,,,,,,,,,,,,,,,,,,,,,,,,,,,,,,,,,,,,,,,,,5f341b3f18eb122c6c70507e,6036fcc8894cadd32021bb4d,2021-02-25_02h26.45.571,Colour_Similarity_Experiment,2020.2.10,Win32,60,6036d0d9a84aa1626184a6ef,16.70525109,17.01218868,16.66572917,16.66303342,16.66592199,16.75171831,,,,,,,,,,,,,,,,,,,,PF,strong,3,,,,,,,,1,1.10006,,,,,,,,,,,,,,,,,,,,,,,,,,,4,strong,-109,54,1,0,0,response7disk,2,131,-4,-16,1,0,0,rectangle,-4,-16,1,0,0,1,2,0,0.00055,-4,-16,1,0,0,0,130,130,13,1,,,,,,,,,,,,,,,,,,,,,
,,,,,,,,,,,,,,,,,,,,,,,,,,,,,,,,,,,,,,,,,,,5f341b3f18eb122c6c70507e,6036fcc8894cadd32021bb4d,2021-02-25_02h26.45.571,Colour_Similarity_Experiment,2020.2.10,Win32,60,6036d0d9a84aa1626184a6ef,16.70525109,17.01218868,16.66572917,16.66303342,16.66592199,16.75171831,,,,,,,,,,,,,,,,,,,,PF,strong,3,,,,,,,,2,1.845515,,,,,,,,,,,,,,,,,,,,,,,,,,,6,strong,-109,-64,1,0,0,response5disk,2,132,23,-6,1,0,0,rectangle,23,-6,1,0,0,1,1,0,0.000525,23,-6,1,0,0,0,131,131,112,1,,,,,,,,,,,,,,,,,,,,,
,,,,,,,,,,,,,,,,,,,,,,,,,,,,,,,,,,,,,,,,,,,5f341b3f18eb122c6c70507e,6036fcc8894cadd32021bb4d,2021-02-25_02h26.45.571,Colour_Similarity_Experiment,2020.2.10,Win32,60,6036d0d9a84aa1626184a6ef,16.70525109,17.01218868,16.66572917,16.66303342,16.66592199,16.75171831,,,,,,,,,,,,,,,,,,,,PF,strong,3,,,,,,,,5,2.375845,,,,,,,,,,,,,,,,,,,,,,,,,,,1,strong,117,-71,1,0,0,response3disk,2,133,-15,-4,1,0,0,rectangle,-15,-4,1,0,0,1,3,0,0.000545,-15,-4,1,0,0,0,132,132,2,1,,,,,,,,,,,,,,,,,,,,,
,,,,,,,,,,,,,,,,,,,,,,,,,,,,,,,,,,,,,,,,,,,5f341b3f18eb122c6c70507e,6036fcc8894cadd32021bb4d,2021-02-25_02h26.45.571,Colour_Similarity_Experiment,2020.2.10,Win32,60,6036d0d9a84aa1626184a6ef,16.70525109,17.01218868,16.66572917,16.66303342,16.66592199,16.75171831,,,,,,,,,,,,,,,,,,,,PF,weak,3,,,,,,,,7,1.209145,,,,,,,,,,,,,,,,,,,,,,,,,,,6,weak,72,118,1,0,0,response1disk,3,134,-13,0,1,0,0,rectangle,-13,0,1,0,0,1,3,0,7E-05,-13,0,1,0,0,0,133,133,26,1,,,,,,,,,,,,,,,,,,,,,
,,,,,,,,,,,,,,,,,,,,,,,,,,,,,,,,,,,,,,,,,,,5f341b3f18eb122c6c70507e,6036fcc8894cadd32021bb4d,2021-02-25_02h26.45.571,Colour_Similarity_Experiment,2020.2.10,Win32,60,6036d0d9a84aa1626184a6ef,16.70525109,17.01218868,16.66572917,16.66303342,16.66592199,16.75171831,,,,,,,,,,,,,,,,,,,,PF,weak,3,,,,,,,,7,1.101515,,,,,,,,,,,,,,,,,,,,,,,,,,,4,weak,56,113,1,0,0,response1disk,6,135,8,8,1,0,0,rectangle,8,8,1,0,0,1,1,0,0.000495,8,8,1,0,0,0,134,134,120,1,,,,,,,,,,,,,,,,,,,,,
,,,,,,,,,,,,,,,,,,,,,,,,,,,,,,,,,,,,,,,,,,,5f341b3f18eb122c6c70507e,6036fcc8894cadd32021bb4d,2021-02-25_02h26.45.571,Colour_Similarity_Experiment,2020.2.10,Win32,60,6036d0d9a84aa1626184a6ef,16.70525109,17.01218868,16.66572917,16.66303342,16.66592199,16.75171831,,,,,,,,,,,,,,,,,,,,PF,strong,3,,,,,,,,7,0.81503,,,,,,,,,,,,,,,,,,,,,,,,,,,5,strong,39,104,1,0,0,response1disk,9,136,15,-9,1,0,0,rectangle,15,-9,1,0,0,1,3,0,0.00047,15,-9,1,0,0,0,135,135,61,1,,,,,,,,,,,,,,,,,,,,,
,,,,,,,,,,,,,,,,,,,,,,,,,,,,,,,,,,,,,,,,,,,5f341b3f18eb122c6c70507e,6036fcc8894cadd32021bb4d,2021-02-25_02h26.45.571,Colour_Similarity_Experiment,2020.2.10,Win32,60,6036d0d9a84aa1626184a6ef,16.70525109,17.01218868,16.66572917,16.66303342,16.66592199,16.75171831,,,,,,,,,,,,,,,,,,,,PF,strong,3,,,,,,,,7,1.11501,,,,,,,,,,,,,,,,,,,,,,,,,,,8,strong,75,122,1,0,0,response1disk,5,137,12,-6,1,0,0,rectangle,12,-6,1,0,0,1,0,0,0.000475,12,-6,1,0,0,0,136,136,152,1,,,,,,,,,,,,,,,,,,,,,
,,,,,,,,,,,,,,,,,,,,,,,,,,,,,,,,,,,,,,,,,,,5f341b3f18eb122c6c70507e,6036fcc8894cadd32021bb4d,2021-02-25_02h26.45.571,Colour_Similarity_Experiment,2020.2.10,Win32,60,6036d0d9a84aa1626184a6ef,16.70525109,17.01218868,16.66572917,16.66303342,16.66592199,16.75171831,,,,,,,,,,,,,,,,,,,,PF,weak,3,,,,,,,,0,1.229915,,,,,,,,,,,,,,,,,,,,,,,,,,,7,weak,-68,132,1,0,0,response7disk,7,138,1,-1,1,0,0,rectangle,1,-1,1,0,0,1,6,0,0.000515,1,-1,1,0,0,0,137,137,51,1,,,,,,,,,,,,,,,,,,,,,
,,,,,,,,,,,,,,,,,,,,,,,,,,,,,,,,,,,,,,,,,,,5f341b3f18eb122c6c70507e,6036fcc8894cadd32021bb4d,2021-02-25_02h26.45.571,Colour_Similarity_Experiment,2020.2.10,Win32,60,6036d0d9a84aa1626184a6ef,16.70525109,17.01218868,16.66572917,16.66303342,16.66592199,16.75171831,,,,,,,,,,,,,,,,,,,,PF,strong,3,,,,,,,,7,1.23184,,,,,,,,,,,,,,,,,,,,,,,,,,,6,strong,63,110,1,0,0,response1disk,3,139,9,4,1,0,0,rectangle,9,4,1,0,0,1,3,0,0.0005,9,4,1,0,0,0,138,138,21,1,,,,,,,,,,,,,,,,,,,,,
,,,,,,,,,,,,,,,,,,,,,,,,,,,,,,,,,,,,,,,,,,,5f341b3f18eb122c6c70507e,6036fcc8894cadd32021bb4d,2021-02-25_02h26.45.571,Colour_Similarity_Experiment,2020.2.10,Win32,60,6036d0d9a84aa1626184a6ef,16.70525109,17.01218868,16.66572917,16.66303342,16.66592199,16.75171831,,,,,,,,,,,,,,,,,,,,PF,weak,3,,,,,,,,7,0.826165,,,,,,,,,,,,,,,,,,,,,,,,,,,8,weak,60,129,1,0,0,response1disk,4,140,-14,-6,1,0,0,rectangle,-14,-6,1,0,0,1,7,0,0.00072,-14,-6,1,0,0,0,139,139,78,1,,,,,,,,,,,,,,,,,,,,,
,,,,,,,,,,,,,,,,,,,,,,,,,,,,,,,,,,,,,,,,,,,5f341b3f18eb122c6c70507e,6036fcc8894cadd32021bb4d,2021-02-25_02h26.45.571,Colour_Similarity_Experiment,2020.2.10,Win32,60,6036d0d9a84aa1626184a6ef,16.70525109,17.01218868,16.66572917,16.66303342,16.66592199,16.75171831,,,,,,,,,,,,,,,,,,,,PF,strong,3,,,,,,,,3,2.215475,,,,,,,,,,,,,,,,,,,,,,,,,,,6,strong,-67,-99,1,0,0,response5disk,9,141,7,8,1,0,0,rectangle,-117,-63,1,0,0,1,2,1,1.883355,-7,-3,1,0,0,0,140,140,160,1,response5disk_3,rectangle,,,,,,,,,,,,,,,,,,,
,,,,,,,,,,,,,,,,,,,,,,,,,,,,,,,,,,,,,,,,,,,5f341b3f18eb122c6c70507e,6036fcc8894cadd32021bb4d,2021-02-25_02h26.45.571,Colour_Similarity_Experiment,2020.2.10,Win32,60,6036d0d9a84aa1626184a6ef,16.70525109,17.01218868,16.66572917,16.66303342,16.66592199,16.75171831,,,,,,,,,,,,,,,,,,,,PF,strong,3,,,,,,,,7,1.212905,,,,,,,,,,,,,,,,,,,,,,,,,,,9,strong,75,100,1,0,0,response1disk,3,142,13,21,1,0,0,rectangle,13,21,1,0,0,1,2,0,0.0001,13,21,1,0,0,0,141,141,141,1,,,,,,,,,,,,,,,,,,,,,
,,,,,,,,,,,,,,,,,,,,,,,,,,,,,,,,,,,,,,,,,,,5f341b3f18eb122c6c70507e,6036fcc8894cadd32021bb4d,2021-02-25_02h26.45.571,Colour_Similarity_Experiment,2020.2.10,Win32,60,6036d0d9a84aa1626184a6ef,16.70525109,17.01218868,16.66572917,16.66303342,16.66592199,16.75171831,,,,,,,,,,,,,,,,,,,,PF,strong,3,,,,,,,,0,1.27655,,,,,,,,,,,,,,,,,,,,,,,,,,,6,strong,-71,144,1,0,0,response7disk,6,143,3,-6,1,0,0,rectangle,3,-6,1,0,0,1,5,0,0.00055,3,-6,1,0,0,0,142,142,91,1,,,,,,,,,,,,,,,,,,,,,
,,,,,,,,,,,,,,,,,,,,,,,,,,,,,,,,,,,,,,,,,,,5f341b3f18eb122c6c70507e,6036fcc8894cadd32021bb4d,2021-02-25_02h26.45.571,Colour_Similarity_Experiment,2020.2.10,Win32,60,6036d0d9a84aa1626184a6ef,16.70525109,17.01218868,16.66572917,16.66303342,16.66592199,16.75171831,,,,,,,,,,,,,,,,,,,,PF,strong,3,,,,,,,,7,1.47443,,,,,,,,,,,,,,,,,,,,,,,,,,,7,strong,44,109,1,0,0,response1disk,1,144,-5,0,1,0,0,rectangle,-5,0,1,0,0,1,5,0,6E-05,-5,0,1,0,0,0,143,143,132,1,,,,,,,,,,,,,,,,,,,,,
,,,,,,,,,,,,,,,,,,,,,,,,,,,,,,,,,,,,,,,,,,,5f341b3f18eb122c6c70507e,6036fcc8894cadd32021bb4d,2021-02-25_02h26.45.571,Colour_Similarity_Experiment,2020.2.10,Win32,60,6036d0d9a84aa1626184a6ef,16.70525109,17.01218868,16.66572917,16.66303342,16.66592199,16.75171831,,,,,,,,,,,,,,,,,,,,PF,strong,3,,,,,,,,7,0.972015,,,,,,,,,,,,,,,,,,,,,,,,,,,2,strong,38,123,1,0,0,response1disk,9,145,26,10,1,0,0,rectangle,26,10,1,0,0,1,2,0,0.00067,26,10,1,0,0,0,144,144,72,1,,,,,,,,,,,,,,,,,,,,,
,,,,,,,,,,,,,,,,,,,,,,,,,,,,,,,,,,,,,,,,,,,5f341b3f18eb122c6c70507e,6036fcc8894cadd32021bb4d,2021-02-25_02h26.45.571,Colour_Similarity_Experiment,2020.2.10,Win32,60,6036d0d9a84aa1626184a6ef,16.70525109,17.01218868,16.66572917,16.66303342,16.66592199,16.75171831,,,,,,,,,,,,,,,,,,,,PF,weak,3,,,,,,,,7,0.834455,,,,,,,,,,,,,,,,,,,,,,,,,,,6,weak,49,106,1,0,0,response1disk,1,146,-14,1,1,0,0,rectangle,-14,1,1,0,0,1,6,0,0.000475,-14,1,1,0,0,0,145,145,46,1,,,,,,,,,,,,,,,,,,,,,
,,,,,,,,,,,,,,,,,,,,,,,,,,,,,,,,,,,,,,,,,,,5f341b3f18eb122c6c70507e,6036fcc8894cadd32021bb4d,2021-02-25_02h26.45.571,Colour_Similarity_Experiment,2020.2.10,Win32,60,6036d0d9a84aa1626184a6ef,16.70525109,17.01218868,16.66572917,16.66303342,16.66592199,16.75171831,,,,,,,,,,,,,,,,,,,,PF,weak,3,,,,,,,,7,1.24853,,,,,,,,,,,,,,,,,,,,,,,,,,,4,weak,96,99,1,0,0,response1disk,1,147,16,-9,1,0,0,rectangle,16,-9,1,0,0,1,6,0,0.000085,16,-9,1,0,0,0,146,146,115,1,,,,,,,,,,,,,,,,,,,,,
,,,,,,,,,,,,,,,,,,,,,,,,,,,,,,,,,,,,,,,,,,,5f341b3f18eb122c6c70507e,6036fcc8894cadd32021bb4d,2021-02-25_02h26.45.571,Colour_Similarity_Experiment,2020.2.10,Win32,60,6036d0d9a84aa1626184a6ef,16.70525109,17.01218868,16.66572917,16.66303342,16.66592199,16.75171831,,,,,,,,,,,,,,,,,,,,PF,strong,3,,,,,,,,7,0.848585,,,,,,,,,,,,,,,,,,,,,,,,,,,2,strong,40,119,1,0,0,response1disk,1,148,-7,-2,1,0,0,rectangle,-7,-2,1,0,0,1,2,0,0.001,-7,-2,1,0,0,0,147,147,85,1,,,,,,,,,,,,,,,,,,,,,
,,,,,,,,,,,,,,,,,,,,,,,,,,,,,,,,,,,,,,,,,,,5f341b3f18eb122c6c70507e,6036fcc8894cadd32021bb4d,2021-02-25_02h26.45.571,Colour_Similarity_Experiment,2020.2.10,Win32,60,6036d0d9a84aa1626184a6ef,16.70525109,17.01218868,16.66572917,16.66303342,16.66592199,16.75171831,,,,,,,,,,,,,,,,,,,,PF,weak,3,,,,,,,,7,0.675175,,,,,,,,,,,,,,,,,,,,,,,,,,,9,weak,59,94,1,0,0,response1disk,8,149,-14,-11,1,0,0,rectangle,-14,-11,1,0,0,1,2,0,9E-05,-14,-11,1,0,0,0,148,148,67,1,,,,,,,,,,,,,,,,,,,,,
,,,,,,,,,,,,,,,,,,,,,,,,,,,,,,,,,,,,,,,,,,,5f341b3f18eb122c6c70507e,6036fcc8894cadd32021bb4d,2021-02-25_02h26.45.571,Colour_Similarity_Experiment,2020.2.10,Win32,60,6036d0d9a84aa1626184a6ef,16.70525109,17.01218868,16.66572917,16.66303342,16.66592199,16.75171831,,,,,,,,,,,,,,,,,,,,PF,weak,3,,,,,,,,3,1.493195,,,,,,,,,,,,,,,,,,,,,,,,,,,8,weak,-69,-113,1,0,0,response5disk,8,150,-19,-6,1,0,0,rectangle,-19,-6,1,0,0,1,5,0,0.000885,-19,-6,1,0,0,0,149,149,153,1,,,,,,,,,,,,,,,,,,,,,
,,,,,,,,,,,,,,,,,,,,,,,,,,,,,,,,,,,,,,,,,,,5f341b3f18eb122c6c70507e,6036fcc8894cadd32021bb4d,2021-02-25_02h26.45.571,Colour_Similarity_Experiment,2020.2.10,Win32,60,6036d0d9a84aa1626184a6ef,16.70525109,17.01218868,16.66572917,16.66303342,16.66592199,16.75171831,,,,,,,,,,,,,,,,,,,,PF,weak,3,,,,,,,,2,1.00917,,,,,,,,,,,,,,,,,,,,,,,,,,,2,weak,-94,-67,1,0,0,response5disk,3,151,27,15,1,0,0,rectangle,27,15,1,0,0,1,4,0,0.000465,27,15,1,0,0,0,150,150,69,1,,,,,,,,,,,,,,,,,,,,,
,,,,,,,,,,,,,,,,,,,,,,,,,,,,,,,,,,,,,,,,,,,5f341b3f18eb122c6c70507e,6036fcc8894cadd32021bb4d,2021-02-25_02h26.45.571,Colour_Similarity_Experiment,2020.2.10,Win32,60,6036d0d9a84aa1626184a6ef,16.70525109,17.01218868,16.66572917,16.66303342,16.66592199,16.75171831,,,,,,,,,,,,,,,,,,,,PF,weak,3,,,,,,,,7,0.98197,,,,,,,,,,,,,,,,,,,,,,,,,,,8,weak,48,94,1,0,0,response1disk,2,152,-12,2,1,0,0,rectangle,-12,2,1,0,0,1,6,0,0.00048,-12,2,1,0,0,0,151,151,83,1,,,,,,,,,,,,,,,,,,,,,
,,,,,,,,,,,,,,,,,,,,,,,,,,,,,,,,,,,,,,,,,,,5f341b3f18eb122c6c70507e,6036fcc8894cadd32021bb4d,2021-02-25_02h26.45.571,Colour_Similarity_Experiment,2020.2.10,Win32,60,6036d0d9a84aa1626184a6ef,16.70525109,17.01218868,16.66572917,16.66303342,16.66592199,16.75171831,,,,,,,,,,,,,,,,,,,,PF,weak,3,,,,,,,,7,0.86519,,,,,,,,,,,,,,,,,,,,,,,,,,,9,weak,45,107,1,0,0,response1disk,6,153,-18,10,1,0,0,rectangle,-18,10,1,0,0,1,4,0,0.00048,-18,10,1,0,0,0,152,152,148,1,,,,,,,,,,,,,,,,,,,,,
,,,,,,,,,,,,,,,,,,,,,,,,,,,,,,,,,,,,,,,,,,,5f341b3f18eb122c6c70507e,6036fcc8894cadd32021bb4d,2021-02-25_02h26.45.571,Colour_Similarity_Experiment,2020.2.10,Win32,60,6036d0d9a84aa1626184a6ef,16.70525109,17.01218868,16.66572917,16.66303342,16.66592199,16.75171831,,,,,,,,,,,,,,,,,,,,PF,weak,3,,,,,,,,2,1.8666,,,,,,,,,,,,,,,,,,,,,,,,,,,1,weak,-106,-59,1,0,0,response5disk,2,154,-5,-1,1,0,0,rectangle,-5,-1,1,0,0,1,5,0,0.000545,-5,-1,1,0,0,0,153,153,24,1,,,,,,,,,,,,,,,,,,,,,
,,,,,,,,,,,,,,,,,,,,,,,,,,,,,,,,,,,,,,,,,,,5f341b3f18eb122c6c70507e,6036fcc8894cadd32021bb4d,2021-02-25_02h26.45.571,Colour_Similarity_Experiment,2020.2.10,Win32,60,6036d0d9a84aa1626184a6ef,16.70525109,17.01218868,16.66572917,16.66303342,16.66592199,16.75171831,,,,,,,,,,,,,,,,,,,,PF,strong,3,,,,,,,,7,1.55968,,,,,,,,,,,,,,,,,,,,,,,,,,,9,strong,56,89,1,0,0,response1disk,2,155,-10,-13,1,0,0,rectangle,60,109,1,0,0,7,7,1,1.666555,5,-9,1,0,0,0,154,154,11,1,response1disk_3,rectangle,,,,,,,,,,,,,,,,,,,
,,,,,,,,,,,,,,,,,,,,,,,,,,,,,,,,,,,,,,,,,,,5f341b3f18eb122c6c70507e,6036fcc8894cadd32021bb4d,2021-02-25_02h26.45.571,Colour_Similarity_Experiment,2020.2.10,Win32,60,6036d0d9a84aa1626184a6ef,16.70525109,17.01218868,16.66572917,16.66303342,16.66592199,16.75171831,,,,,,,,,,,,,,,,,,,,PF,weak,3,,,,,,,,7,0.73095,,,,,,,,,,,,,,,,,,,,,,,,,,,6,weak,51,106,1,0,0,response1disk,4,156,-12,7,1,0,0,rectangle,-12,7,1,0,0,7,2,0,0.00048,-12,7,1,0,0,0,155,155,33,1,,,,,,,,,,,,,,,,,,,,,
,,,,,,,,,,,,,,,,,,,,,,,,,,,,,,,,,,,,,,,,,,,5f341b3f18eb122c6c70507e,6036fcc8894cadd32021bb4d,2021-02-25_02h26.45.571,Colour_Similarity_Experiment,2020.2.10,Win32,60,6036d0d9a84aa1626184a6ef,16.70525109,17.01218868,16.66572917,16.66303342,16.66592199,16.75171831,,,,,,,,,,,,,,,,,,,,PF,strong,3,,,,,,,,2,1.265975,,,,,,,,,,,,,,,,,,,,,,,,,,,3,strong,-99,-53,1,0,0,response5disk,2,157,4,16,1,0,0,rectangle,4,16,1,0,0,7,0,0,0.00049,4,16,1,0,0,0,156,156,93,1,,,,,,,,,,,,,,,,,,,,,
,,,,,,,,,,,,,,,,,,,,,,,,,,,,,,,,,,,,,,,,,,,5f341b3f18eb122c6c70507e,6036fcc8894cadd32021bb4d,2021-02-25_02h26.45.571,Colour_Similarity_Experiment,2020.2.10,Win32,60,6036d0d9a84aa1626184a6ef,16.70525109,17.01218868,16.66572917,16.66303342,16.66592199,16.75171831,,,,,,,,,,,,,,,,,,,,PF,weak,3,,,,,,,,7,1.6493,,,,,,,,,,,,,,,,,,,,,,,,,,,5,weak,46,82,1,0,0,response1disk,6,158,12,-3,1,0,0,rectangle,12,-3,1,0,0,7,1,0,0.00047,12,-3,1,0,0,0,157,157,103,1,,,,,,,,,,,,,,,,,,,,,
,,,,,,,,,,,,,,,,,,,,,,,,,,,,,,,,,,,,,,,,,,,5f341b3f18eb122c6c70507e,6036fcc8894cadd32021bb4d,2021-02-25_02h26.45.571,Colour_Similarity_Experiment,2020.2.10,Win32,60,6036d0d9a84aa1626184a6ef,16.70525109,17.01218868,16.66572917,16.66303342,16.66592199,16.75171831,,,,,,,,,,,,,,,,,,,,PF,weak,3,,,,,,,,7,1.651135,,,,,,,,,,,,,,,,,,,,,,,,,,,5,weak,47,80,1,0,0,response1disk,1,159,-18,-11,1,0,0,rectangle,-70,124,1,0,0,0,0,1,1.533095,-27,7,1,0,0,0,158,158,159,1,response7disk_3,rectangle,,,,,,,,,,,,,,,,,,,
,,,,,,,,,,,,,,,,,,,,,,,,,,,,,,,,,,,,,,,,,,,5f341b3f18eb122c6c70507e,6036fcc8894cadd32021bb4d,2021-02-25_02h26.45.571,Colour_Similarity_Experiment,2020.2.10,Win32,60,6036d0d9a84aa1626184a6ef,16.70525109,17.01218868,16.66572917,16.66303342,16.66592199,16.75171831,,,,,,,,,,,,,,,,,,,,PF,weak,3,,,,,,,,7,0.96512,,,,,,,,,,,,,,,,,,,,,,,,,,,1,weak,75,106,1,0,0,response1disk,5,160,7,-13,1,0,0,rectangle,7,-13,1,0,0,0,4,0,0.000485,7,-13,1,0,0,0,159,159,28,1,,,,,,,,,,,,,,,,,,,,,
,,,,,,,,,,,,,,,,,,,,,,,,,,,,,,,,,,,,,,,,,,,5f341b3f18eb122c6c70507e,6036fcc8894cadd32021bb4d,2021-02-25_02h26.45.571,Colour_Similarity_Experiment,2020.2.10,Win32,60,6036d0d9a84aa1626184a6ef,16.70525109,17.01218868,16.66572917,16.66303342,16.66592199,16.75171831,,,,,,,,,,,,,,,,,,,,PF,strong,3,,,,,,,,7,0.930415,,,,,,,,,,,,,,,,,,,,,,,,,,,7,strong,59,105,1,0,0,response1disk,5,161,6,10,1,0,0,rectangle,6,10,1,0,0,0,1,0,0.000495,6,10,1,0,0,0,160,160,156,1,,,,,,,,,,,,,,,,,,,,,
,,,,,,,,,,,,,,,,,,,,,,,,,,,,,,,,,,,,,,,,,,,5f341b3f18eb122c6c70507e,6036fcc8894cadd32021bb4d,2021-02-25_02h26.45.571,Colour_Similarity_Experiment,2020.2.10,Win32,60,6036d0d9a84aa1626184a6ef,16.70525109,17.01218868,16.66572917,16.66303342,16.66592199,16.75171831,,,,,,,,,,,,,,,,,,,,PF,strong,3,,,,,,,,7,1.10779,,,,,,,,,,,,,,,,,,,,,,,,,,,1,strong,46,61,1,0,0,response1disk,7,162,4,-14,1,0,0,rectangle,4,-14,1,0,0,0,6,0,0.000475,4,-14,1,0,0,0,161,161,137,1,,,,,,,,,,,,,,,,,,,,,
,,,,,,,,,,,,,,,,,,,,,,,,,,,,,,,,,,,,,,,,,,,5f341b3f18eb122c6c70507e,6036fcc8894cadd32021bb4d,2021-02-25_02h26.45.571,Colour_Similarity_Experiment,2020.2.10,Win32,60,6036d0d9a84aa1626184a6ef,16.70525109,17.01218868,16.66572917,16.66303342,16.66592199,16.75171831,,,,,,,,,,,,,,,,,,,,,,,,,,,,,,,,,,,,,,,,,,,,,,,,,,,,,,,,,,,,,,,,,,,,,,,,,,,,,,,,,,,,,,,,,,,,,,,0,0,0,0,1,,,,,,,,,,,,,,
,,,,,,,,,,,,,,,,,,,,,,,,,,,,,,,,,,,,,,,,,,,5f341b3f18eb122c6c70507e,6036fcc8894cadd32021bb4d,2021-02-25_02h26.45.571,Colour_Similarity_Experiment,2020.2.10,Win32,60,6036d0d9a84aa1626184a6ef,16.70525109,17.01218868,16.66572917,16.66303342,16.66592199,16.75171831,,,,,,,,,,,,,,,,,,,,PF,strong,3,,,,,,,,7,0.9,,,,,,,,,,,,,,,,,,,,,,,,,,,7,strong,45,89,1,0,0,response1disk,4,163,3,-6,1,0,0,rectangle,3,-6,1,0,0,0,2,0,0.00051,3,-6,1,0,0,0,0,0,158,1,,,,,,,,,,,,,,,,,,,,,
,,,,,,,,,,,,,,,,,,,,,,,,,,,,,,,,,,,,,,,,,,,5f341b3f18eb122c6c70507e,6036fcc8894cadd32021bb4d,2021-02-25_02h26.45.571,Colour_Similarity_Experiment,2020.2.10,Win32,60,6036d0d9a84aa1626184a6ef,16.70525109,17.01218868,16.66572917,16.66303342,16.66592199,16.75171831,,,,,,,,,,,,,,,,,,,,PF,strong,3,,,,,,,,3,1.26895,,,,,,,,,,,,,,,,,,,,,,,,,,,3,strong,-58,-109,1,0,0,response5disk,3,164,-1,5,1,0,0,rectangle,-1,5,1,0,0,0,4,0,0.00054,-1,5,1,0,0,0,1,1,68,1,,,,,,,,,,,,,,,,,,,,,
,,,,,,,,,,,,,,,,,,,,,,,,,,,,,,,,,,,,,,,,,,,5f341b3f18eb122c6c70507e,6036fcc8894cadd32021bb4d,2021-02-25_02h26.45.571,Colour_Similarity_Experiment,2020.2.10,Win32,60,6036d0d9a84aa1626184a6ef,16.70525109,17.01218868,16.66572917,16.66303342,16.66592199,16.75171831,,,,,,,,,,,,,,,,,,,,PF,weak,3,,,,,,,,3,1.693075,,,,,,,,,,,,,,,,,,,,,,,,,,,6,weak,-58,-105,1,0,0,response5disk,5,165,-1,-1,1,0,0,rectangle,-1,-1,1,0,0,0,7,0,0.000495,-1,-1,1,0,0,0,2,2,59,1,,,,,,,,,,,,,,,,,,,,,
,,,,,,,,,,,,,,,,,,,,,,,,,,,,,,,,,,,,,,,,,,,5f341b3f18eb122c6c70507e,6036fcc8894cadd32021bb4d,2021-02-25_02h26.45.571,Colour_Similarity_Experiment,2020.2.10,Win32,60,6036d0d9a84aa1626184a6ef,16.70525109,17.01218868,16.66572917,16.66303342,16.66592199,16.75171831,,,,,,,,,,,,,,,,,,,,PF,weak,3,,,,,,,,7,1.51285,,,,,,,,,,,,,,,,,,,,,,,,,,,2,weak,62,91,1,0,0,response1disk,7,166,3,-9,1,0,0,rectangle,3,-9,1,0,0,0,6,0,0.000975,3,-9,1,0,0,0,3,3,107,1,,,,,,,,,,,,,,,,,,,,,
,,,,,,,,,,,,,,,,,,,,,,,,,,,,,,,,,,,,,,,,,,,5f341b3f18eb122c6c70507e,6036fcc8894cadd32021bb4d,2021-02-25_02h26.45.571,Colour_Similarity_Experiment,2020.2.10,Win32,60,6036d0d9a84aa1626184a6ef,16.70525109,17.01218868,16.66572917,16.66303342,16.66592199,16.75171831,,,,,,,,,,,,,,,,,,,,PF,strong,3,,,,,,,,4,2.191575,,,,,,,,,,,,,,,,,,,,,,,,,,,7,strong,71,-114,1,0,0,response3disk,8,167,9,-1,1,0,0,rectangle,-70,124,1,0,0,0,0,1,1.499575,-10,3,1,0,0,0,4,4,97,1,response7disk_3,rectangle,,,,,,,,,,,,,,,,,,,
,,,,,,,,,,,,,,,,,,,,,,,,,,,,,,,,,,,,,,,,,,,5f341b3f18eb122c6c70507e,6036fcc8894cadd32021bb4d,2021-02-25_02h26.45.571,Colour_Similarity_Experiment,2020.2.10,Win32,60,6036d0d9a84aa1626184a6ef,16.70525109,17.01218868,16.66572917,16.66303342,16.66592199,16.75171831,,,,,,,,,,,,,,,,,,,,PF,strong,3,,,,,,,,6,2.895555,,,,,,,,,,,,,,,,,,,,,,,,,,,5,strong,79,41,1,0,0,response1disk,2,168,19,-5,1,0,0,rectangle,-40,132,1,0,0,0,0,1,1.27844,-4,-4,1,0,0,0,5,5,55,1,response7disk_3,rectangle,,,,,,,,,,,,,,,,,,,
,,,,,,,,,,,,,,,,,,,,,,,,,,,,,,,,,,,,,,,,,,,5f341b3f18eb122c6c70507e,6036fcc8894cadd32021bb4d,2021-02-25_02h26.45.571,Colour_Similarity_Experiment,2020.2.10,Win32,60,6036d0d9a84aa1626184a6ef,16.70525109,17.01218868,16.66572917,16.66303342,16.66592199,16.75171831,,,,,,,,,,,,,,,,,,,,PF,weak,3,,,,,,,,7,2.42895,,,,,,,,,,,,,,,,,,,,,,,,,,,5,weak,51,118,1,0,0,response1disk,7,169,2,-12,1,0,0,rectangle,2,-12,1,0,0,0,4,0,0.000495,2,-12,1,0,0,0,6,6,146,1,,,,,,,,,,,,,,,,,,,,,
,,,,,,,,,,,,,,,,,,,,,,,,,,,,,,,,,,,,,,,,,,,5f341b3f18eb122c6c70507e,6036fcc8894cadd32021bb4d,2021-02-25_02h26.45.571,Colour_Similarity_Experiment,2020.2.10,Win32,60,6036d0d9a84aa1626184a6ef,16.70525109,17.01218868,16.66572917,16.66303342,16.66592199,16.75171831,,,,,,,,,,,,,,,,,,,,PF,strong,3,,,,,,,,7,0.881825,,,,,,,,,,,,,,,,,,,,,,,,,,,5,strong,56,123,1,0,0,response1disk,4,170,-7,-13,1,0,0,rectangle,-7,-13,1,0,0,0,7,0,0.00051,-7,-13,1,0,0,0,7,7,8,1,,,,,,,,,,,,,,,,,,,,,
,,,,,,,,,,,,,,,,,,,,,,,,,,,,,,,,,,,,,,,,,,,5f341b3f18eb122c6c70507e,6036fcc8894cadd32021bb4d,2021-02-25_02h26.45.571,Colour_Similarity_Experiment,2020.2.10,Win32,60,6036d0d9a84aa1626184a6ef,16.70525109,17.01218868,16.66572917,16.66303342,16.66592199,16.75171831,,,,,,,,,,,,,,,,,,,,PF,weak,3,,,,,,,,4,2.081795,,,,,,,,,,,,,,,,,,,,,,,,,,,6,weak,88,-146,1,0,0,response3disk,8,171,-13,7,1,0,0,rectangle,-13,7,1,0,0,0,0,0,0.0006,-13,7,1,0,0,0,8,8,64,1,,,,,,,,,,,,,,,,,,,,,
,,,,,,,,,,,,,,,,,,,,,,,,,,,,,,,,,,,,,,,,,,,5f341b3f18eb122c6c70507e,6036fcc8894cadd32021bb4d,2021-02-25_02h26.45.571,Colour_Similarity_Experiment,2020.2.10,Win32,60,6036d0d9a84aa1626184a6ef,16.70525109,17.01218868,16.66572917,16.66303342,16.66592199,16.75171831,,,,,,,,,,,,,,,,,,,,PF,weak,3,,,,,,,,0,1.40922,,,,,,,,,,,,,,,,,,,,,,,,,,,9,weak,-72,132,1,0,0,response7disk,9,172,-16,-2,1,0,0,rectangle,-16,-2,1,0,0,0,5,0,0.00049,-16,-2,1,0,0,0,9,9,106,1,,,,,,,,,,,,,,,,,,,,,
,,,,,,,,,,,,,,,,,,,,,,,,,,,,,,,,,,,,,,,,,,,5f341b3f18eb122c6c70507e,6036fcc8894cadd32021bb4d,2021-02-25_02h26.45.571,Colour_Similarity_Experiment,2020.2.10,Win32,60,6036d0d9a84aa1626184a6ef,16.70525109,17.01218868,16.66572917,16.66303342,16.66592199,16.75171831,,,,,,,,,,,,,,,,,,,,PF,weak,3,,,,,,,,2,1.36788,,,,,,,,,,,,,,,,,,,,,,,,,,,7,weak,-137,-71,1,0,0,response5disk,6,173,-8,6,1,0,0,rectangle,-8,6,1,0,0,0,5,0,0.000075,-8,6,1,0,0,0,10,10,29,1,,,,,,,,,,,,,,,,,,,,,
,,,,,,,,,,,,,,,,,,,,,,,,,,,,,,,,,,,,,,,,,,,5f341b3f18eb122c6c70507e,6036fcc8894cadd32021bb4d,2021-02-25_02h26.45.571,Colour_Similarity_Experiment,2020.2.10,Win32,60,6036d0d9a84aa1626184a6ef,16.70525109,17.01218868,16.66572917,16.66303342,16.66592199,16.75171831,,,,,,,,,,,,,,,,,,,,PF,strong,3,,,,,,,,7,2.132135,,,,,,,,,,,,,,,,,,,,,,,,,,,4,strong,55,101,1,0,0,response1disk,9,174,-7,-17,1,0,0,rectangle,-7,-17,1,0,0,0,2,0,0.00046,-7,-17,1,0,0,0,11,11,90,1,,,,,,,,,,,,,,,,,,,,,
,,,,,,,,,,,,,,,,,,,,,,,,,,,,,,,,,,,,,,,,,,,5f341b3f18eb122c6c70507e,6036fcc8894cadd32021bb4d,2021-02-25_02h26.45.571,Colour_Similarity_Experiment,2020.2.10,Win32,60,6036d0d9a84aa1626184a6ef,16.70525109,17.01218868,16.66572917,16.66303342,16.66592199,16.75171831,,,,,,,,,,,,,,,,,,,,PF,weak,3,,,,,,,,7,1.19754,,,,,,,,,,,,,,,,,,,,,,,,,,,6,weak,41,105,1,0,0,response1disk,9,175,-1,-5,1,0,0,rectangle,-1,-5,1,0,0,0,2,0,8E-05,-1,-5,1,0,0,0,12,12,45,1,,,,,,,,,,,,,,,,,,,,,
,,,,,,,,,,,,,,,,,,,,,,,,,,,,,,,,,,,,,,,,,,,5f341b3f18eb122c6c70507e,6036fcc8894cadd32021bb4d,2021-02-25_02h26.45.571,Colour_Similarity_Experiment,2020.2.10,Win32,60,6036d0d9a84aa1626184a6ef,16.70525109,17.01218868,16.66572917,16.66303342,16.66592199,16.75171831,,,,,,,,,,,,,,,,,,,,PF,weak,3,,,,,,,,3,1.141545,,,,,,,,,,,,,,,,,,,,,,,,,,,7,weak,-57,-98,1,0,0,response5disk,8,176,11,1,1,0,0,rectangle,11,1,1,0,0,0,7,0,0.00074,11,1,1,0,0,0,13,13,140,1,,,,,,,,,,,,,,,,,,,,,
,,,,,,,,,,,,,,,,,,,,,,,,,,,,,,,,,,,,,,,,,,,5f341b3f18eb122c6c70507e,6036fcc8894cadd32021bb4d,2021-02-25_02h26.45.571,Colour_Similarity_Experiment,2020.2.10,Win32,60,6036d0d9a84aa1626184a6ef,16.70525109,17.01218868,16.66572917,16.66303342,16.66592199,16.75171831,,,,,,,,,,,,,,,,,,,,PF,strong,3,,,,,,,,7,0.894805,,,,,,,,,,,,,,,,,,,,,,,,,,,1,strong,42,107,1,0,0,response1disk,4,177,18,11,1,0,0,rectangle,18,11,1,0,0,0,0,0,0.000455,18,11,1,0,0,0,14,14,135,1,,,,,,,,,,,,,,,,,,,,,
,,,,,,,,,,,,,,,,,,,,,,,,,,,,,,,,,,,,,,,,,,,5f341b3f18eb122c6c70507e,6036fcc8894cadd32021bb4d,2021-02-25_02h26.45.571,Colour_Similarity_Experiment,2020.2.10,Win32,60,6036d0d9a84aa1626184a6ef,16.70525109,17.01218868,16.66572917,16.66303342,16.66592199,16.75171831,,,,,,,,,,,,,,,,,,,,PF,weak,3,,,,,,,,7,0.778255,,,,,,,,,,,,,,,,,,,,,,,,,,,7,weak,56,82,1,0,0,response1disk,3,178,19,-6,1,0,0,rectangle,19,-6,1,0,0,0,6,0,0.000495,19,-6,1,0,0,0,15,15,81,1,,,,,,,,,,,,,,,,,,,,,
,,,,,,,,,,,,,,,,,,,,,,,,,,,,,,,,,,,,,,,,,,,5f341b3f18eb122c6c70507e,6036fcc8894cadd32021bb4d,2021-02-25_02h26.45.571,Colour_Similarity_Experiment,2020.2.10,Win32,60,6036d0d9a84aa1626184a6ef,16.70525109,17.01218868,16.66572917,16.66303342,16.66592199,16.75171831,,,,,,,,,,,,,,,,,,,,PF,strong,3,,,,,,,,7,0.804235,,,,,,,,,,,,,,,,,,,,,,,,,,,7,strong,48,93,1,0,0,response1disk,9,179,3,-8,1,0,0,rectangle,3,-8,1,0,0,0,3,0,0.000475,3,-8,1,0,0,0,16,16,155,1,,,,,,,,,,,,,,,,,,,,,
,,,,,,,,,,,,,,,,,,,,,,,,,,,,,,,,,,,,,,,,,,,5f341b3f18eb122c6c70507e,6036fcc8894cadd32021bb4d,2021-02-25_02h26.45.571,Colour_Similarity_Experiment,2020.2.10,Win32,60,6036d0d9a84aa1626184a6ef,16.70525109,17.01218868,16.66572917,16.66303342,16.66592199,16.75171831,,,,,,,,,,,,,,,,,,,,PF,weak,3,,,,,,,,7,0.728085,,,,,,,,,,,,,,,,,,,,,,,,,,,2,weak,47,96,1,0,0,response1disk,5,180,-8,5,1,0,0,rectangle,-8,5,1,0,0,0,4,0,0.000485,-8,5,1,0,0,0,17,17,147,1,,,,,,,,,,,,,,,,,,,,,
,,,,,,,,,,,,,,,,,,,,,,,,,,,,,,,,,,,,,,,,,,,5f341b3f18eb122c6c70507e,6036fcc8894cadd32021bb4d,2021-02-25_02h26.45.571,Colour_Similarity_Experiment,2020.2.10,Win32,60,6036d0d9a84aa1626184a6ef,16.70525109,17.01218868,16.66572917,16.66303342,16.66592199,16.75171831,,,,,,,,,,,,,,,,,,,,PF,weak,3,,,,,,,,3,1.263985,,,,,,,,,,,,,,,,,,,,,,,,,,,5,weak,-55,-114,1,0,0,response5disk,3,181,13,-3,1,0,0,rectangle,13,-3,1,0,0,0,1,0,0.000475,13,-3,1,0,0,0,18,18,109,1,,,,,,,,,,,,,,,,,,,,,
,,,,,,,,,,,,,,,,,,,,,,,,,,,,,,,,,,,,,,,,,,,5f341b3f18eb122c6c70507e,6036fcc8894cadd32021bb4d,2021-02-25_02h26.45.571,Colour_Similarity_Experiment,2020.2.10,Win32,60,6036d0d9a84aa1626184a6ef,16.70525109,17.01218868,16.66572917,16.66303342,16.66592199,16.75171831,,,,,,,,,,,,,,,,,,,,PF,weak,3,,,,,,,,7,1.127545,,,,,,,,,,,,,,,,,,,,,,,,,,,2,weak,60,95,1,0,0,response1disk,9,182,20,0,1,0,0,rectangle,20,0,1,0,0,0,3,0,0.00045,20,0,1,0,0,0,19,19,39,1,,,,,,,,,,,,,,,,,,,,,
,,,,,,,,,,,,,,,,,,,,,,,,,,,,,,,,,,,,,,,,,,,5f341b3f18eb122c6c70507e,6036fcc8894cadd32021bb4d,2021-02-25_02h26.45.571,Colour_Similarity_Experiment,2020.2.10,Win32,60,6036d0d9a84aa1626184a6ef,16.70525109,17.01218868,16.66572917,16.66303342,16.66592199,16.75171831,,,,,,,,,,,,,,,,,,,,PF,weak,3,,,,,,,,4,1.445645,,,,,,,,,,,,,,,,,,,,,,,,,,,8,weak,63,-87,1,0,0,response3disk,6,183,1,12,1,0,0,rectangle,-53,113,1,0,0,0,0,1,1.33327,-12,-2,1,0,0,0,20,20,161,1,response7disk_3,rectangle,,,,,,,,,,,,,,,,,,,
,,,,,,,,,,,,,,,,,,,,,,,,,,,,,,,,,,,,,,,,,,,5f341b3f18eb122c6c70507e,6036fcc8894cadd32021bb4d,2021-02-25_02h26.45.571,Colour_Similarity_Experiment,2020.2.10,Win32,60,6036d0d9a84aa1626184a6ef,16.70525109,17.01218868,16.66572917,16.66303342,16.66592199,16.75171831,,,,,,,,,,,,,,,,,,,,PF,weak,3,,,,,,,,5,2.38138,,,,,,,,,,,,,,,,,,,,,,,,,,,9,weak,123,-68,1,0,0,response3disk,7,184,-5,10,1,0,0,rectangle,-5,10,1,0,0,0,4,0,0.000805,-5,10,1,0,0,0,21,21,121,1,,,,,,,,,,,,,,,,,,,,,
,,,,,,,,,,,,,,,,,,,,,,,,,,,,,,,,,,,,,,,,,,,5f341b3f18eb122c6c70507e,6036fcc8894cadd32021bb4d,2021-02-25_02h26.45.571,Colour_Similarity_Experiment,2020.2.10,Win32,60,6036d0d9a84aa1626184a6ef,16.70525109,17.01218868,16.66572917,16.66303342,16.66592199,16.75171831,,,,,,,,,,,,,,,,,,,,PF,strong,3,,,,,,,,5,1.593685,,,,,,,,,,,,,,,,,,,,,,,,,,,4,strong,105,-42,1,0,0,response3disk,1,185,-3,20,1,0,0,rectangle,-3,20,1,0,0,0,7,0,0.000635,-3,20,1,0,0,0,22,22,102,1,,,,,,,,,,,,,,,,,,,,,
,,,,,,,,,,,,,,,,,,,,,,,,,,,,,,,,,,,,,,,,,,,5f341b3f18eb122c6c70507e,6036fcc8894cadd32021bb4d,2021-02-25_02h26.45.571,Colour_Similarity_Experiment,2020.2.10,Win32,60,6036d0d9a84aa1626184a6ef,16.70525109,17.01218868,16.66572917,16.66303342,16.66592199,16.75171831,,,,,,,,,,,,,,,,,,,,PF,strong,3,,,,,,,,5,0.912295,,,,,,,,,,,,,,,,,,,,,,,,,,,5,strong,122,-64,1,0,0,response3disk,3,186,25,-1,1,0,0,rectangle,25,-1,1,0,0,0,0,0,0.00049,25,-1,1,0,0,0,23,23,25,1,,,,,,,,,,,,,,,,,,,,,
,,,,,,,,,,,,,,,,,,,,,,,,,,,,,,,,,,,,,,,,,,,5f341b3f18eb122c6c70507e,6036fcc8894cadd32021bb4d,2021-02-25_02h26.45.571,Colour_Similarity_Experiment,2020.2.10,Win32,60,6036d0d9a84aa1626184a6ef,16.70525109,17.01218868,16.66572917,16.66303342,16.66592199,16.75171831,,,,,,,,,,,,,,,,,,,,PF,weak,3,,,,,,,,0,1.74537,,,,,,,,,,,,,,,,,,,,,,,,,,,4,weak,-57,116,1,0,0,response7disk,4,187,-30,15,1,0,0,rectangle,-30,15,1,0,0,0,3,0,0.00051,-30,15,1,0,0,0,24,24,70,1,,,,,,,,,,,,,,,,,,,,,
,,,,,,,,,,,,,,,,,,,,,,,,,,,,,,,,,,,,,,,,,,,5f341b3f18eb122c6c70507e,6036fcc8894cadd32021bb4d,2021-02-25_02h26.45.571,Colour_Similarity_Experiment,2020.2.10,Win32,60,6036d0d9a84aa1626184a6ef,16.70525109,17.01218868,16.66572917,16.66303342,16.66592199,16.75171831,,,,,,,,,,,,,,,,,,,,PF,weak,3,,,,,,,,5,1.19691,,,,,,,,,,,,,,,,,,,,,,,,,,,4,weak,71,-41,1,0,0,response3disk,8,188,-7,0,1,0,0,rectangle,-7,0,1,0,0,0,3,0,0.000165,-7,0,1,0,0,0,25,25,124,1,,,,,,,,,,,,,,,,,,,,,
,,,,,,,,,,,,,,,,,,,,,,,,,,,,,,,,,,,,,,,,,,,5f341b3f18eb122c6c70507e,6036fcc8894cadd32021bb4d,2021-02-25_02h26.45.571,Colour_Similarity_Experiment,2020.2.10,Win32,60,6036d0d9a84aa1626184a6ef,16.70525109,17.01218868,16.66572917,16.66303342,16.66592199,16.75171831,,,,,,,,,,,,,,,,,,,,PF,strong,3,,,,,,,,5,1.397775,,,,,,,,,,,,,,,,,,,,,,,,,,,3,strong,116,-58,1,0,0,response3disk,6,189,10,-2,1,0,0,rectangle,10,-2,1,0,0,0,6,0,0.00048,10,-2,1,0,0,0,26,26,95,1,,,,,,,,,,,,,,,,,,,,,
,,,,,,,,,,,,,,,,,,,,,,,,,,,,,,,,,,,,,,,,,,,5f341b3f18eb122c6c70507e,6036fcc8894cadd32021bb4d,2021-02-25_02h26.45.571,Colour_Similarity_Experiment,2020.2.10,Win32,60,6036d0d9a84aa1626184a6ef,16.70525109,17.01218868,16.66572917,16.66303342,16.66592199,16.75171831,,,,,,,,,,,,,,,,,,,,PF,strong,3,,,,,,,,5,0.827155,,,,,,,,,,,,,,,,,,,,,,,,,,,6,strong,131,-66,1,0,0,response3disk,5,190,17,3,1,0,0,rectangle,17,3,1,0,0,0,5,0,0.000475,17,3,1,0,0,0,27,27,126,1,,,,,,,,,,,,,,,,,,,,,
,,,,,,,,,,,,,,,,,,,,,,,,,,,,,,,,,,,,,,,,,,,5f341b3f18eb122c6c70507e,6036fcc8894cadd32021bb4d,2021-02-25_02h26.45.571,Colour_Similarity_Experiment,2020.2.10,Win32,60,6036d0d9a84aa1626184a6ef,16.70525109,17.01218868,16.66572917,16.66303342,16.66592199,16.75171831,,,,,,,,,,,,,,,,,,,,PF,weak,3,,,,,,,,5,0.69824,,,,,,,,,,,,,,,,,,,,,,,,,,,1,weak,94,-51,1,0,0,response3disk,4,191,8,2,1,0,0,rectangle,8,2,1,0,0,0,6,0,0.00044,8,2,1,0,0,0,28,28,139,1,,,,,,,,,,,,,,,,,,,,,
,,,,,,,,,,,,,,,,,,,,,,,,,,,,,,,,,,,,,,,,,,,5f341b3f18eb122c6c70507e,6036fcc8894cadd32021bb4d,2021-02-25_02h26.45.571,Colour_Similarity_Experiment,2020.2.10,Win32,60,6036d0d9a84aa1626184a6ef,16.70525109,17.01218868,16.66572917,16.66303342,16.66592199,16.75171831,,,,,,,,,,,,,,,,,,,,PF,weak,3,,,,,,,,0,1.250295,,,,,,,,,,,,,,,,,,,,,,,,,,,2,weak,-57,110,1,0,0,response7disk,2,192,-16,14,1,0,0,rectangle,-16,14,1,0,0,0,1,0,0.000825,-16,14,1,0,0,0,29,29,14,1,,,,,,,,,,,,,,,,,,,,,
,,,,,,,,,,,,,,,,,,,,,,,,,,,,,,,,,,,,,,,,,,,5f341b3f18eb122c6c70507e,6036fcc8894cadd32021bb4d,2021-02-25_02h26.45.571,Colour_Similarity_Experiment,2020.2.10,Win32,60,6036d0d9a84aa1626184a6ef,16.70525109,17.01218868,16.66572917,16.66303342,16.66592199,16.75171831,,,,,,,,,,,,,,,,,,,,PF,strong,3,,,,,,,,5,1.14876,,,,,,,,,,,,,,,,,,,,,,,,,,,1,strong,115,-61,1,0,0,response3disk,8,193,19,-7,1,0,0,rectangle,19,-7,1,0,0,0,3,0,0.00046,19,-7,1,0,0,0,30,30,27,1,,,,,,,,,,,,,,,,,,,,,
,,,,,,,,,,,,,,,,,,,,,,,,,,,,,,,,,,,,,,,,,,,5f341b3f18eb122c6c70507e,6036fcc8894cadd32021bb4d,2021-02-25_02h26.45.571,Colour_Similarity_Experiment,2020.2.10,Win32,60,6036d0d9a84aa1626184a6ef,16.70525109,17.01218868,16.66572917,16.66303342,16.66592199,16.75171831,,,,,,,,,,,,,,,,,,,,PF,strong,3,,,,,,,,5,2.159105,,,,,,,,,,,,,,,,,,,,,,,,,,,9,strong,92,-51,1,0,0,response3disk,6,194,-14,4,1,0,0,rectangle,-14,4,1,0,0,0,4,0,0.000475,-14,4,1,0,0,0,31,31,117,1,,,,,,,,,,,,,,,,,,,,,
