key_resp.keys,key_resp.rt,key_resp_16.keys,key_resp_16.rt,key_resp_2.keys,key_resp_2.rt,X Scale,ratio_pxpermm,screen_size_x,screen_size_y,testsize,key_resp_3.keys,key_resp_3.rt,key_resp_4.keys,key_resp_4.rt,line_size,key_resp_5.keys,key_resp_5.rt,key_resp_6.keys,key_resp_6.rt,key_resp_8.keys,key_resp_8.rt,key_resp_7.keys,key_resp_7.rt,key_resp_12.keys,key_resp_12.rt,key_resp_11.keys,key_resp_11.rt,key_resp_18.keys,key_resp_18.rt,key_resp_21.keys,key_resp_21.rt,key_resp_13.keys,key_resp_13.rt,key_resp_19.keys,key_resp_19.rt,ballposx,viewer_distance,trials.thisRepN,trials.thisTrialN,trials.thisN,trials.thisIndex,trials.ran,participant,session,date,expName,psychopyVersion,OS,frameRate,study_id,realFrameRate1,realFrameRate2,realFrameRate3,realFrameRate4,realFrameRate5,realFrameRate,viewerdistancecm,DVA_to_distance,radius_F,radius_P,r_F,R_P,key_resp_20.keys,key_resp_20.rt,key_resp_14.keys,key_resp_14.rt,key_resp_15.keys,key_resp_15.rt,key_resp_17.keys,key_resp_17.rt,key_resp_9.keys,key_resp_9.rt,key_resp_10.keys,key_resp_10.rt,Colour_1,Ecc,maskCon,mask_frames,mouse_5.x,mouse_5.y,mouse_5.leftButton,mouse_5.midButton,mouse_5.rightButton,mouse_5.clicked_name,Colour_2,similarity,response_time,mouse_10.x,mouse_10.y,mouse_10.leftButton,mouse_10.midButton,mouse_10.rightButton,mouse_10.clicked_name,mouse_7.x,mouse_7.y,mouse_7.leftButton,mouse_7.midButton,mouse_7.rightButton,mouse_7.clicked_name,catchnumberprac,mouse_6.x,mouse_6.y,mouse_6.leftButton,mouse_6.midButton,mouse_6.rightButton,mouse_6.clicked_name,duringprac.thisRepN,duringprac.thisTrialN,duringprac.thisN,duringprac.thisIndex,duringprac.ran,key_resp_22.keys,key_resp_22.rt,Colour1,maskCon1,mouse.x,mouse.y,mouse.leftButton,mouse.midButton,mouse.rightButton,mouse.clicked_name,Colour2,trialnumber,mouse_2.x,mouse_2.y,mouse_2.leftButton,mouse_2.midButton,mouse_2.rightButton,mouse_2.clicked_name,mouse_3.x,mouse_3.y,mouse_3.leftButton,mouse_3.midButton,mouse_3.rightButton,catchresponse,catchnumber,Catch,response_time_catch,mouse_11.x,mouse_11.y,mouse_11.leftButton,mouse_11.midButton,mouse_11.rightButton,trials_2.thisRepN,trials_2.thisTrialN,trials_2.thisN,trials_2.thisIndex,trials_2.ran,mouse_3.clicked_name,mouse_11.clicked_name,trials_3.thisRepN,trials_3.thisTrialN,trials_3.thisN,trials_3.thisIndex,trials_3.ran,answer1,rt1,answer2,rt2,answer3,rt3,answer4,rt4,answer5,rt5,answer6,rt6,answer7,rt7
space,5.69637,space,6.424875,space,19.85706,36.7,3.67,523.1607629,294.2779292,1920,space,1.65503,space,15.659275,73.4,space,11.238335,space,4.175645,space,0.655055,space,4.35232,space,5.69636,space,7.935055,space,9.172045,space,4.156815,space,2.68084,return,4.545365,-1169.28,2198.734314,0,0,0,0,1,5f5290ff7ef2f05699c250d6,6036d877e0ec51ef81f678e2,2021-02-24_23h51.56.976,Colour_Similarity_Experiment,2020.2.10,Win32,60,6036d0d9a84aa1626184a6ef,7.044949772,6.972570194,6.953678855,6.950744351,6.944470927,6.955366082,,,,,,,,,,,,,,,,,,,,,,,,,,,,,,,,,,,,,,,,,,,,,,,,,,,,,,,,,,,,,,,,,,,,,,,,,,,,,,,,,,,,,,,,,,,,,,,,,,,,,,,,,,,,,,,,,
,,,,,,,,,,,,,,,,,,,,,,,,,,,,,,,,,,return,2.833895,-460.8,1394.638217,1,0,1,0,1,5f5290ff7ef2f05699c250d6,6036d877e0ec51ef81f678e2,2021-02-24_23h51.56.976,Colour_Similarity_Experiment,2020.2.10,Win32,60,6036d0d9a84aa1626184a6ef,7.044949772,6.972570194,6.953678855,6.950744351,6.944470927,6.955366082,,,,,,,,,,,,,,,,,,,,,,,,,,,,,,,,,,,,,,,,,,,,,,,,,,,,,,,,,,,,,,,,,,,,,,,,,,,,,,,,,,,,,,,,,,,,,,,,,,,,,,,,,,,,,,,,,
,,,,,,,,,,,,,,,,,,,,,,,,,,,,,,,,,,return,7.056905,100.8,757.2449695,2,0,2,0,1,5f5290ff7ef2f05699c250d6,6036d877e0ec51ef81f678e2,2021-02-24_23h51.56.976,Colour_Similarity_Experiment,2020.2.10,Win32,60,6036d0d9a84aa1626184a6ef,7.044949772,6.972570194,6.953678855,6.950744351,6.944470927,6.955366082,,,,,,,,,,,,,,,,,,,,,,,,,,,,,,,,,,,,,,,,,,,,,,,,,,,,,,,,,,,,,,,,,,,,,,,,,,,,,,,,,,,,,,,,,,,,,,,,,,,,,,,,,,,,,,,,,
,,,,,,,,,,,,,,,,,,,,,,,,,,,,,,,,,,return,1.546185,74.88,786.6631194,3,0,3,0,1,5f5290ff7ef2f05699c250d6,6036d877e0ec51ef81f678e2,2021-02-24_23h51.56.976,Colour_Similarity_Experiment,2020.2.10,Win32,60,6036d0d9a84aa1626184a6ef,7.044949772,6.972570194,6.953678855,6.950744351,6.944470927,6.955366082,,,,,,,,,,,,,,,,,,,,,,,,,,,,,,,,,,,,,,,,,,,,,,,,,,,,,,,,,,,,,,,,,,,,,,,,,,,,,,,,,,,,,,,,,,,,,,,,,,,,,,,,,,,,,,,,,
,,,,,,,,,,,,,,,,,,,,,,,,,,,,,,,,,,return,1.745405,-5.76,878.1862524,4,0,4,0,1,5f5290ff7ef2f05699c250d6,6036d877e0ec51ef81f678e2,2021-02-24_23h51.56.976,Colour_Similarity_Experiment,2020.2.10,Win32,60,6036d0d9a84aa1626184a6ef,7.044949772,6.972570194,6.953678855,6.950744351,6.944470927,6.955366082,,,,,,,,,,,,,,,,,,,,,,,,,,,,,,,,,,,,,,,,,,,,,,,,,,,,,,,,,,,,,,,,,,,,,,,,,,,,,,,,,,,,,,,,,,,,,,,,,,,,,,,,,,,,,,,,,
,,,,,,,,,,,,,,,,,,,,,,,,,,,,,,,,,,,,,,,,,,,5f5290ff7ef2f05699c250d6,6036d877e0ec51ef81f678e2,2021-02-24_23h51.56.976,Colour_Similarity_Experiment,2020.2.10,Win32,60,6036d0d9a84aa1626184a6ef,7.044949772,6.972570194,6.953678855,6.950744351,6.944470927,6.955366082,76,13.2658446,73.02847453,486.8564969,48.68564969,219.0854236,space,3.47953,space,3.59423,space,37.107885,space,10.215055,space,1.05203,space,5.16877,5,PF,weak,7,-45,114,1,0,0,response7disk_5,7,0,16.50451,-2,-7,1,0,0,rectangle_8,-135,-51,1,0,0,response5disk_7,2,-4,6,1,0,0,rectangle_4,0,0,0,5,1,,,,,,,,,,,,,,,,,,,,,,,,,,,,,,,,,,,,,,,,,,,,,,,,,,,,,,,,,,
,,,,,,,,,,,,,,,,,,,,,,,,,,,,,,,,,,,,,,,,,,,5f5290ff7ef2f05699c250d6,6036d877e0ec51ef81f678e2,2021-02-24_23h51.56.976,Colour_Similarity_Experiment,2020.2.10,Win32,60,6036d0d9a84aa1626184a6ef,7.044949772,6.972570194,6.953678855,6.950744351,6.944470927,6.955366082,,,,,,,,,,,,,,,,,,,1,PF,strong,7,81,112,1,0,0,response1disk_5,2,7,4.722625,-6,1,1,0,0,rectangle_8,-6,1,1,0,0,,2,-6,1,1,0,0,,0,1,1,0,1,,,,,,,,,,,,,,,,,,,,,,,,,,,,,,,,,,,,,,,,,,,,,,,,,,,,,,,,,,
,,,,,,,,,,,,,,,,,,,,,,,,,,,,,,,,,,,,,,,,,,,5f5290ff7ef2f05699c250d6,6036d877e0ec51ef81f678e2,2021-02-24_23h51.56.976,Colour_Similarity_Experiment,2020.2.10,Win32,60,6036d0d9a84aa1626184a6ef,7.044949772,6.972570194,6.953678855,6.950744351,6.944470927,6.955366082,,,,,,,,,,,,,,,,,,,1,PF,weak,7,21,-92,1,0,0,response3disk_5,2,4,3.194945,4,-7,1,0,0,rectangle_8,4,-7,1,0,0,,2,4,-7,1,0,0,,0,2,2,4,1,,,,,,,,,,,,,,,,,,,,,,,,,,,,,,,,,,,,,,,,,,,,,,,,,,,,,,,,,,
,,,,,,,,,,,,,,,,,,,,,,,,,,,,,,,,,,,,,,,,,,,5f5290ff7ef2f05699c250d6,6036d877e0ec51ef81f678e2,2021-02-24_23h51.56.976,Colour_Similarity_Experiment,2020.2.10,Win32,60,6036d0d9a84aa1626184a6ef,7.044949772,6.972570194,6.953678855,6.950744351,6.944470927,6.955366082,,,,,,,,,,,,,,,,,,,1,PF,strong,7,150,47,1,0,0,response1disk_5,4,6,17.56393,-7,0,1,0,0,rectangle_8,-7,0,1,0,0,,2,-7,0,1,0,0,,0,3,3,3,1,,,,,,,,,,,,,,,,,,,,,,,,,,,,,,,,,,,,,,,,,,,,,,,,,,,,,,,,,,
,,,,,,,,,,,,,,,,,,,,,,,,,,,,,,,,,,,,,,,,,,,5f5290ff7ef2f05699c250d6,6036d877e0ec51ef81f678e2,2021-02-24_23h51.56.976,Colour_Similarity_Experiment,2020.2.10,Win32,60,6036d0d9a84aa1626184a6ef,7.044949772,6.972570194,6.953678855,6.950744351,6.944470927,6.955366082,,,,,,,,,,,,,,,,,,,6,PF,weak,7,-70,122,1,0,0,response7disk_5,7,0,1.930935,-7,-6,1,0,0,rectangle_8,-7,-6,1,0,0,,2,-7,-6,1,0,0,,0,4,4,6,1,,,,,,,,,,,,,,,,,,,,,,,,,,,,,,,,,,,,,,,,,,,,,,,,,,,,,,,,,,
,,,,,,,,,,,,,,,,,,,,,,,,,,,,,,,,,,,,,,,,,,,5f5290ff7ef2f05699c250d6,6036d877e0ec51ef81f678e2,2021-02-24_23h51.56.976,Colour_Similarity_Experiment,2020.2.10,Win32,60,6036d0d9a84aa1626184a6ef,7.044949772,6.972570194,6.953678855,6.950744351,6.944470927,6.955366082,,,,,,,,,,,,,,,,,,,3,PF,weak,7,53,-83,1,0,0,response3disk_5,9,4,2.69064,-12,-5,1,0,0,rectangle_8,-133,-67,1,0,0,response5disk_7,2,2,-11,1,0,0,rectangle_4,0,5,5,1,1,,,,,,,,,,,,,,,,,,,,,,,,,,,,,,,,,,,,,,,,,,,,,,,,,,,,,,,,,,
,,,,,,,,,,,,,,,,,,,,,,,,,,,,,,,,,,,,,,,,,,,5f5290ff7ef2f05699c250d6,6036d877e0ec51ef81f678e2,2021-02-24_23h51.56.976,Colour_Similarity_Experiment,2020.2.10,Win32,60,6036d0d9a84aa1626184a6ef,7.044949772,6.972570194,6.953678855,6.950744351,6.944470927,6.955366082,,,,,,,,,,,,,,,,,,,8,PF,strong,7,-149,35,1,0,0,response7disk_5,9,1,2.60991,-14,0,1,0,0,rectangle_8,-14,0,1,0,0,,2,-14,0,1,0,0,,0,6,6,2,1,,,,,,,,,,,,,,,,,,,,,,,,,,,,,,,,,,,,,,,,,,,,,,,,,,,,,,,,,,
,,,,,,,,,,,,,,,,,,,,,,,,,,,,,,,,,,,,,,,,,,,5f5290ff7ef2f05699c250d6,6036d877e0ec51ef81f678e2,2021-02-24_23h51.56.976,Colour_Similarity_Experiment,2020.2.10,Win32,60,6036d0d9a84aa1626184a6ef,7.044949772,6.972570194,6.953678855,6.950744351,6.944470927,6.955366082,,,,,,,,,,,,,,,,,,,,PF,weak,7,,,,,,,,0,1.471515,,,,,,,,,,,,,,,,,,,,,,,,,space,3.590935,2,weak,-46,102,1,0,0,response7disk,2,1,5,8,1,0,0,rectangle,5,8,1,0,0,,2,0,0.00229,5,8,1,0,0,0,0,0,14,1,,,,,,,,,,,,,,,,,,,,,
,,,,,,,,,,,,,,,,,,,,,,,,,,,,,,,,,,,,,,,,,,,5f5290ff7ef2f05699c250d6,6036d877e0ec51ef81f678e2,2021-02-24_23h51.56.976,Colour_Similarity_Experiment,2020.2.10,Win32,60,6036d0d9a84aa1626184a6ef,7.044949772,6.972570194,6.953678855,6.950744351,6.944470927,6.955366082,,,,,,,,,,,,,,,,,,,,PF,weak,7,,,,,,,,1,1.618225,,,,,,,,,,,,,,,,,,,,,,,,,,,1,weak,-95,47,1,0,0,response7disk,1,2,4,-17,1,0,0,rectangle,60,121,1,0,0,7,7,1,3.257035,-2,0,1,0,0,0,1,1,76,1,response1disk_3,rectangle,,,,,,,,,,,,,,,,,,,
,,,,,,,,,,,,,,,,,,,,,,,,,,,,,,,,,,,,,,,,,,,5f5290ff7ef2f05699c250d6,6036d877e0ec51ef81f678e2,2021-02-24_23h51.56.976,Colour_Similarity_Experiment,2020.2.10,Win32,60,6036d0d9a84aa1626184a6ef,7.044949772,6.972570194,6.953678855,6.950744351,6.944470927,6.955366082,,,,,,,,,,,,,,,,,,,,PF,weak,7,,,,,,,,3,1.78841,,,,,,,,,,,,,,,,,,,,,,,,,,,4,weak,-34,-75,1,0,0,response5disk,7,3,-3,4,1,0,0,rectangle,-3,4,1,0,0,7,5,0,0.001605,-3,4,1,0,0,0,2,2,38,1,,,,,,,,,,,,,,,,,,,,,
,,,,,,,,,,,,,,,,,,,,,,,,,,,,,,,,,,,,,,,,,,,5f5290ff7ef2f05699c250d6,6036d877e0ec51ef81f678e2,2021-02-24_23h51.56.976,Colour_Similarity_Experiment,2020.2.10,Win32,60,6036d0d9a84aa1626184a6ef,7.044949772,6.972570194,6.953678855,6.950744351,6.944470927,6.955366082,,,,,,,,,,,,,,,,,,,,PF,strong,7,,,,,,,,6,1.71947,,,,,,,,,,,,,,,,,,,,,,,,,,,6,strong,104,88,1,0,0,response1disk,8,4,2,2,1,0,0,rectangle,2,2,1,0,0,7,0,0,0.000935,2,2,1,0,0,0,3,3,133,1,,,,,,,,,,,,,,,,,,,,,
,,,,,,,,,,,,,,,,,,,,,,,,,,,,,,,,,,,,,,,,,,,5f5290ff7ef2f05699c250d6,6036d877e0ec51ef81f678e2,2021-02-24_23h51.56.976,Colour_Similarity_Experiment,2020.2.10,Win32,60,6036d0d9a84aa1626184a6ef,7.044949772,6.972570194,6.953678855,6.950744351,6.944470927,6.955366082,,,,,,,,,,,,,,,,,,,,PF,strong,7,,,,,,,,5,2.042075,,,,,,,,,,,,,,,,,,,,,,,,,,,1,strong,121,-57,1,0,0,response3disk,8,5,-41,3,1,0,0,rectangle,-41,3,1,0,0,7,2,0,0.00115,-41,3,1,0,0,0,4,4,27,1,,,,,,,,,,,,,,,,,,,,,
,,,,,,,,,,,,,,,,,,,,,,,,,,,,,,,,,,,,,,,,,,,5f5290ff7ef2f05699c250d6,6036d877e0ec51ef81f678e2,2021-02-24_23h51.56.976,Colour_Similarity_Experiment,2020.2.10,Win32,60,6036d0d9a84aa1626184a6ef,7.044949772,6.972570194,6.953678855,6.950744351,6.944470927,6.955366082,,,,,,,,,,,,,,,,,,,,PF,strong,7,,,,,,,,7,2.67273,,,,,,,,,,,,,,,,,,,,,,,,,,,1,strong,62,105,1,0,0,response1disk,2,6,0,0,1,0,0,rectangle,0,0,1,0,0,7,3,0,0.001125,0,0,1,0,0,0,5,5,2,1,,,,,,,,,,,,,,,,,,,,,
,,,,,,,,,,,,,,,,,,,,,,,,,,,,,,,,,,,,,,,,,,,5f5290ff7ef2f05699c250d6,6036d877e0ec51ef81f678e2,2021-02-24_23h51.56.976,Colour_Similarity_Experiment,2020.2.10,Win32,60,6036d0d9a84aa1626184a6ef,7.044949772,6.972570194,6.953678855,6.950744351,6.944470927,6.955366082,,,,,,,,,,,,,,,,,,,,PF,strong,7,,,,,,,,3,2.13076,,,,,,,,,,,,,,,,,,,,,,,,,,,2,strong,-79,-114,1,0,0,response5disk,2,7,12,12,1,0,0,rectangle,12,12,1,0,0,7,0,0,0.001465,12,12,1,0,0,0,6,6,142,1,,,,,,,,,,,,,,,,,,,,,
,,,,,,,,,,,,,,,,,,,,,,,,,,,,,,,,,,,,,,,,,,,5f5290ff7ef2f05699c250d6,6036d877e0ec51ef81f678e2,2021-02-24_23h51.56.976,Colour_Similarity_Experiment,2020.2.10,Win32,60,6036d0d9a84aa1626184a6ef,7.044949772,6.972570194,6.953678855,6.950744351,6.944470927,6.955366082,,,,,,,,,,,,,,,,,,,,PF,strong,7,,,,,,,,4,1.85461,,,,,,,,,,,,,,,,,,,,,,,,,,,8,strong,79,-90,1,0,0,response3disk,6,8,-18,1,1,0,0,rectangle,-18,1,1,0,0,7,6,0,0.001145,-18,1,1,0,0,0,7,7,37,1,,,,,,,,,,,,,,,,,,,,,
,,,,,,,,,,,,,,,,,,,,,,,,,,,,,,,,,,,,,,,,,,,5f5290ff7ef2f05699c250d6,6036d877e0ec51ef81f678e2,2021-02-24_23h51.56.976,Colour_Similarity_Experiment,2020.2.10,Win32,60,6036d0d9a84aa1626184a6ef,7.044949772,6.972570194,6.953678855,6.950744351,6.944470927,6.955366082,,,,,,,,,,,,,,,,,,,,PF,weak,7,,,,,,,,0,1.17931,,,,,,,,,,,,,,,,,,,,,,,,,,,7,weak,-48,108,1,0,0,response7disk,7,9,7,3,1,0,0,rectangle,7,3,1,0,0,7,0,0,0.001425,7,3,1,0,0,0,8,8,51,1,,,,,,,,,,,,,,,,,,,,,
,,,,,,,,,,,,,,,,,,,,,,,,,,,,,,,,,,,,,,,,,,,5f5290ff7ef2f05699c250d6,6036d877e0ec51ef81f678e2,2021-02-24_23h51.56.976,Colour_Similarity_Experiment,2020.2.10,Win32,60,6036d0d9a84aa1626184a6ef,7.044949772,6.972570194,6.953678855,6.950744351,6.944470927,6.955366082,,,,,,,,,,,,,,,,,,,,PF,weak,7,,,,,,,,6,1.242965,,,,,,,,,,,,,,,,,,,,,,,,,,,1,weak,120,62,1,0,0,response1disk,6,10,-7,-2,1,0,0,rectangle,-7,-2,1,0,0,7,4,0,0.000965,-7,-2,1,0,0,0,9,9,144,1,,,,,,,,,,,,,,,,,,,,,
,,,,,,,,,,,,,,,,,,,,,,,,,,,,,,,,,,,,,,,,,,,5f5290ff7ef2f05699c250d6,6036d877e0ec51ef81f678e2,2021-02-24_23h51.56.976,Colour_Similarity_Experiment,2020.2.10,Win32,60,6036d0d9a84aa1626184a6ef,7.044949772,6.972570194,6.953678855,6.950744351,6.944470927,6.955366082,,,,,,,,,,,,,,,,,,,,PF,strong,7,,,,,,,,6,1.138075,,,,,,,,,,,,,,,,,,,,,,,,,,,9,strong,109,47,1,0,0,response1disk,7,11,10,3,1,0,0,rectangle,10,3,1,0,0,7,4,0,0.00019,10,3,1,0,0,0,10,10,100,1,,,,,,,,,,,,,,,,,,,,,
,,,,,,,,,,,,,,,,,,,,,,,,,,,,,,,,,,,,,,,,,,,5f5290ff7ef2f05699c250d6,6036d877e0ec51ef81f678e2,2021-02-24_23h51.56.976,Colour_Similarity_Experiment,2020.2.10,Win32,60,6036d0d9a84aa1626184a6ef,7.044949772,6.972570194,6.953678855,6.950744351,6.944470927,6.955366082,,,,,,,,,,,,,,,,,,,,PF,weak,7,,,,,,,,4,1.659805,,,,,,,,,,,,,,,,,,,,,,,,,,,7,weak,53,-116,1,0,0,response3disk,5,12,-6,6,1,0,0,rectangle,-6,6,1,0,0,7,4,0,0.00017,-6,6,1,0,0,0,11,11,92,1,,,,,,,,,,,,,,,,,,,,,
,,,,,,,,,,,,,,,,,,,,,,,,,,,,,,,,,,,,,,,,,,,5f5290ff7ef2f05699c250d6,6036d877e0ec51ef81f678e2,2021-02-24_23h51.56.976,Colour_Similarity_Experiment,2020.2.10,Win32,60,6036d0d9a84aa1626184a6ef,7.044949772,6.972570194,6.953678855,6.950744351,6.944470927,6.955366082,,,,,,,,,,,,,,,,,,,,PF,strong,7,,,,,,,,2,2.166265,,,,,,,,,,,,,,,,,,,,,,,,,,,6,strong,-88,-59,1,0,0,response5disk,6,13,-13,-12,1,0,0,rectangle,-13,-12,1,0,0,7,2,0,0.001035,-13,-12,1,0,0,0,12,12,91,1,,,,,,,,,,,,,,,,,,,,,
,,,,,,,,,,,,,,,,,,,,,,,,,,,,,,,,,,,,,,,,,,,5f5290ff7ef2f05699c250d6,6036d877e0ec51ef81f678e2,2021-02-24_23h51.56.976,Colour_Similarity_Experiment,2020.2.10,Win32,60,6036d0d9a84aa1626184a6ef,7.044949772,6.972570194,6.953678855,6.950744351,6.944470927,6.955366082,,,,,,,,,,,,,,,,,,,,PF,weak,7,,,,,,,,5,1.13569,,,,,,,,,,,,,,,,,,,,,,,,,,,6,weak,141,-58,1,0,0,response3disk,8,14,-4,3,1,0,0,rectangle,-4,3,1,0,0,7,7,0,0.00129,-4,3,1,0,0,0,13,13,64,1,,,,,,,,,,,,,,,,,,,,,
,,,,,,,,,,,,,,,,,,,,,,,,,,,,,,,,,,,,,,,,,,,5f5290ff7ef2f05699c250d6,6036d877e0ec51ef81f678e2,2021-02-24_23h51.56.976,Colour_Similarity_Experiment,2020.2.10,Win32,60,6036d0d9a84aa1626184a6ef,7.044949772,6.972570194,6.953678855,6.950744351,6.944470927,6.955366082,,,,,,,,,,,,,,,,,,,,PF,weak,7,,,,,,,,4,1.79869,,,,,,,,,,,,,,,,,,,,,,,,,,,1,weak,59,-93,1,0,0,response3disk,8,15,-1,-4,1,0,0,rectangle,-1,-4,1,0,0,7,4,0,0.00119,-1,-4,1,0,0,0,14,14,65,1,,,,,,,,,,,,,,,,,,,,,
,,,,,,,,,,,,,,,,,,,,,,,,,,,,,,,,,,,,,,,,,,,5f5290ff7ef2f05699c250d6,6036d877e0ec51ef81f678e2,2021-02-24_23h51.56.976,Colour_Similarity_Experiment,2020.2.10,Win32,60,6036d0d9a84aa1626184a6ef,7.044949772,6.972570194,6.953678855,6.950744351,6.944470927,6.955366082,,,,,,,,,,,,,,,,,,,,PF,strong,7,,,,,,,,7,1.02559,,,,,,,,,,,,,,,,,,,,,,,,,,,6,strong,79,111,1,0,0,response1disk,3,16,-9,-1,1,0,0,rectangle,-9,-1,1,0,0,7,3,0,0.00109,-9,-1,1,0,0,0,15,15,21,1,,,,,,,,,,,,,,,,,,,,,
,,,,,,,,,,,,,,,,,,,,,,,,,,,,,,,,,,,,,,,,,,,5f5290ff7ef2f05699c250d6,6036d877e0ec51ef81f678e2,2021-02-24_23h51.56.976,Colour_Similarity_Experiment,2020.2.10,Win32,60,6036d0d9a84aa1626184a6ef,7.044949772,6.972570194,6.953678855,6.950744351,6.944470927,6.955366082,,,,,,,,,,,,,,,,,,,,PF,strong,7,,,,,,,,7,0.93053,,,,,,,,,,,,,,,,,,,,,,,,,,,7,strong,66,88,1,0,0,response1disk,4,17,-12,-2,1,0,0,rectangle,-12,-2,1,0,0,7,6,0,0.000945,-12,-2,1,0,0,0,16,16,158,1,,,,,,,,,,,,,,,,,,,,,
,,,,,,,,,,,,,,,,,,,,,,,,,,,,,,,,,,,,,,,,,,,5f5290ff7ef2f05699c250d6,6036d877e0ec51ef81f678e2,2021-02-24_23h51.56.976,Colour_Similarity_Experiment,2020.2.10,Win32,60,6036d0d9a84aa1626184a6ef,7.044949772,6.972570194,6.953678855,6.950744351,6.944470927,6.955366082,,,,,,,,,,,,,,,,,,,,PF,strong,7,,,,,,,,2,1.3888,,,,,,,,,,,,,,,,,,,,,,,,,,,5,strong,-83,-54,1,0,0,response5disk,5,18,12,-3,1,0,0,rectangle,12,-3,1,0,0,7,6,0,0.000145,12,-3,1,0,0,0,17,17,19,1,,,,,,,,,,,,,,,,,,,,,
,,,,,,,,,,,,,,,,,,,,,,,,,,,,,,,,,,,,,,,,,,,5f5290ff7ef2f05699c250d6,6036d877e0ec51ef81f678e2,2021-02-24_23h51.56.976,Colour_Similarity_Experiment,2020.2.10,Win32,60,6036d0d9a84aa1626184a6ef,7.044949772,6.972570194,6.953678855,6.950744351,6.944470927,6.955366082,,,,,,,,,,,,,,,,,,,,PF,strong,7,,,,,,,,5,0.972645,,,,,,,,,,,,,,,,,,,,,,,,,,,8,strong,142,-57,1,0,0,response3disk,3,19,7,3,1,0,0,rectangle,7,3,1,0,0,7,7,0,0.00109,7,3,1,0,0,0,18,18,154,1,,,,,,,,,,,,,,,,,,,,,
,,,,,,,,,,,,,,,,,,,,,,,,,,,,,,,,,,,,,,,,,,,5f5290ff7ef2f05699c250d6,6036d877e0ec51ef81f678e2,2021-02-24_23h51.56.976,Colour_Similarity_Experiment,2020.2.10,Win32,60,6036d0d9a84aa1626184a6ef,7.044949772,6.972570194,6.953678855,6.950744351,6.944470927,6.955366082,,,,,,,,,,,,,,,,,,,,PF,strong,7,,,,,,,,5,1.104425,,,,,,,,,,,,,,,,,,,,,,,,,,,4,strong,86,-44,1,0,0,response3disk,2,20,6,0,1,0,0,rectangle,6,0,1,0,0,7,6,0,0.00118,6,0,1,0,0,0,19,19,13,1,,,,,,,,,,,,,,,,,,,,,
,,,,,,,,,,,,,,,,,,,,,,,,,,,,,,,,,,,,,,,,,,,5f5290ff7ef2f05699c250d6,6036d877e0ec51ef81f678e2,2021-02-24_23h51.56.976,Colour_Similarity_Experiment,2020.2.10,Win32,60,6036d0d9a84aa1626184a6ef,7.044949772,6.972570194,6.953678855,6.950744351,6.944470927,6.955366082,,,,,,,,,,,,,,,,,,,,PF,weak,7,,,,,,,,2,1.84259,,,,,,,,,,,,,,,,,,,,,,,,,,,9,weak,-91,-52,1,0,0,response5disk,8,21,-8,-4,1,0,0,rectangle,-8,-4,1,0,0,7,6,0,0.000145,-8,-4,1,0,0,0,20,20,67,1,,,,,,,,,,,,,,,,,,,,,
,,,,,,,,,,,,,,,,,,,,,,,,,,,,,,,,,,,,,,,,,,,5f5290ff7ef2f05699c250d6,6036d877e0ec51ef81f678e2,2021-02-24_23h51.56.976,Colour_Similarity_Experiment,2020.2.10,Win32,60,6036d0d9a84aa1626184a6ef,7.044949772,6.972570194,6.953678855,6.950744351,6.944470927,6.955366082,,,,,,,,,,,,,,,,,,,,PF,strong,7,,,,,,,,7,1.33145,,,,,,,,,,,,,,,,,,,,,,,,,,,1,strong,58,106,1,0,0,response1disk,3,22,-20,-14,1,0,0,rectangle,-20,-14,1,0,0,7,1,0,0.00119,-20,-14,1,0,0,0,21,21,99,1,,,,,,,,,,,,,,,,,,,,,
,,,,,,,,,,,,,,,,,,,,,,,,,,,,,,,,,,,,,,,,,,,5f5290ff7ef2f05699c250d6,6036d877e0ec51ef81f678e2,2021-02-24_23h51.56.976,Colour_Similarity_Experiment,2020.2.10,Win32,60,6036d0d9a84aa1626184a6ef,7.044949772,6.972570194,6.953678855,6.950744351,6.944470927,6.955366082,,,,,,,,,,,,,,,,,,,,PF,strong,7,,,,,,,,5,1.097275,,,,,,,,,,,,,,,,,,,,,,,,,,,9,strong,94,-62,1,0,0,response3disk,2,23,6,-2,1,0,0,rectangle,-94,44,1,0,0,1,1,1,1.95875,6,-19,1,0,0,0,22,22,11,1,response7disk_3,rectangle,,,,,,,,,,,,,,,,,,,
,,,,,,,,,,,,,,,,,,,,,,,,,,,,,,,,,,,,,,,,,,,5f5290ff7ef2f05699c250d6,6036d877e0ec51ef81f678e2,2021-02-24_23h51.56.976,Colour_Similarity_Experiment,2020.2.10,Win32,60,6036d0d9a84aa1626184a6ef,7.044949772,6.972570194,6.953678855,6.950744351,6.944470927,6.955366082,,,,,,,,,,,,,,,,,,,,PF,strong,7,,,,,,,,7,1.736485,,,,,,,,,,,,,,,,,,,,,,,,,,,5,strong,70,104,1,0,0,response1disk,8,24,12,4,1,0,0,rectangle,12,4,1,0,0,1,5,0,0.00181,12,4,1,0,0,0,23,23,16,1,,,,,,,,,,,,,,,,,,,,,
,,,,,,,,,,,,,,,,,,,,,,,,,,,,,,,,,,,,,,,,,,,5f5290ff7ef2f05699c250d6,6036d877e0ec51ef81f678e2,2021-02-24_23h51.56.976,Colour_Similarity_Experiment,2020.2.10,Win32,60,6036d0d9a84aa1626184a6ef,7.044949772,6.972570194,6.953678855,6.950744351,6.944470927,6.955366082,,,,,,,,,,,,,,,,,,,,PF,weak,7,,,,,,,,0,0.921145,,,,,,,,,,,,,,,,,,,,,,,,,,,9,weak,-67,120,1,0,0,response7disk,9,25,-1,4,1,0,0,rectangle,-1,4,1,0,0,1,3,0,0.00098,-1,4,1,0,0,0,24,24,106,1,,,,,,,,,,,,,,,,,,,,,
,,,,,,,,,,,,,,,,,,,,,,,,,,,,,,,,,,,,,,,,,,,5f5290ff7ef2f05699c250d6,6036d877e0ec51ef81f678e2,2021-02-24_23h51.56.976,Colour_Similarity_Experiment,2020.2.10,Win32,60,6036d0d9a84aa1626184a6ef,7.044949772,6.972570194,6.953678855,6.950744351,6.944470927,6.955366082,,,,,,,,,,,,,,,,,,,,PF,weak,7,,,,,,,,5,0.70838,,,,,,,,,,,,,,,,,,,,,,,,,,,3,weak,109,-66,1,0,0,response3disk,7,26,1,-4,1,0,0,rectangle,1,-4,1,0,0,1,5,0,0.0009,1,-4,1,0,0,0,25,25,41,1,,,,,,,,,,,,,,,,,,,,,
,,,,,,,,,,,,,,,,,,,,,,,,,,,,,,,,,,,,,,,,,,,5f5290ff7ef2f05699c250d6,6036d877e0ec51ef81f678e2,2021-02-24_23h51.56.976,Colour_Similarity_Experiment,2020.2.10,Win32,60,6036d0d9a84aa1626184a6ef,7.044949772,6.972570194,6.953678855,6.950744351,6.944470927,6.955366082,,,,,,,,,,,,,,,,,,,,PF,weak,7,,,,,,,,2,1.77753,,,,,,,,,,,,,,,,,,,,,,,,,,,5,weak,-71,-45,1,0,0,response5disk,3,27,2,-4,1,0,0,rectangle,2,-4,1,0,0,1,0,0,0.00089,2,-4,1,0,0,0,26,26,109,1,,,,,,,,,,,,,,,,,,,,,
,,,,,,,,,,,,,,,,,,,,,,,,,,,,,,,,,,,,,,,,,,,5f5290ff7ef2f05699c250d6,6036d877e0ec51ef81f678e2,2021-02-24_23h51.56.976,Colour_Similarity_Experiment,2020.2.10,Win32,60,6036d0d9a84aa1626184a6ef,7.044949772,6.972570194,6.953678855,6.950744351,6.944470927,6.955366082,,,,,,,,,,,,,,,,,,,,PF,weak,7,,,,,,,,6,0.82339,,,,,,,,,,,,,,,,,,,,,,,,,,,9,weak,114,61,1,0,0,response1disk,7,28,-12,1,1,0,0,rectangle,-12,1,1,0,0,1,5,0,0.001425,-12,1,1,0,0,0,27,27,121,1,,,,,,,,,,,,,,,,,,,,,
,,,,,,,,,,,,,,,,,,,,,,,,,,,,,,,,,,,,,,,,,,,5f5290ff7ef2f05699c250d6,6036d877e0ec51ef81f678e2,2021-02-24_23h51.56.976,Colour_Similarity_Experiment,2020.2.10,Win32,60,6036d0d9a84aa1626184a6ef,7.044949772,6.972570194,6.953678855,6.950744351,6.944470927,6.955366082,,,,,,,,,,,,,,,,,,,,PF,strong,7,,,,,,,,0,0.88205,,,,,,,,,,,,,,,,,,,,,,,,,,,3,strong,-64,101,1,0,0,response7disk,3,29,8,-4,1,0,0,rectangle,8,-4,1,0,0,1,6,0,0.00091,8,-4,1,0,0,0,28,28,68,1,,,,,,,,,,,,,,,,,,,,,
,,,,,,,,,,,,,,,,,,,,,,,,,,,,,,,,,,,,,,,,,,,5f5290ff7ef2f05699c250d6,6036d877e0ec51ef81f678e2,2021-02-24_23h51.56.976,Colour_Similarity_Experiment,2020.2.10,Win32,60,6036d0d9a84aa1626184a6ef,7.044949772,6.972570194,6.953678855,6.950744351,6.944470927,6.955366082,,,,,,,,,,,,,,,,,,,,PF,strong,7,,,,,,,,5,0.894795,,,,,,,,,,,,,,,,,,,,,,,,,,,8,strong,123,-83,1,0,0,response3disk,1,30,-4,4,1,0,0,rectangle,-4,4,1,0,0,1,2,0,0.001355,-4,4,1,0,0,0,29,29,20,1,,,,,,,,,,,,,,,,,,,,,
,,,,,,,,,,,,,,,,,,,,,,,,,,,,,,,,,,,,,,,,,,,5f5290ff7ef2f05699c250d6,6036d877e0ec51ef81f678e2,2021-02-24_23h51.56.976,Colour_Similarity_Experiment,2020.2.10,Win32,60,6036d0d9a84aa1626184a6ef,7.044949772,6.972570194,6.953678855,6.950744351,6.944470927,6.955366082,,,,,,,,,,,,,,,,,,,,PF,weak,7,,,,,,,,6,0.979575,,,,,,,,,,,,,,,,,,,,,,,,,,,3,weak,112,68,1,0,0,response1disk,8,31,-4,12,1,0,0,rectangle,-4,12,1,0,0,1,5,0,0.001205,-4,12,1,0,0,0,30,30,3,1,,,,,,,,,,,,,,,,,,,,,
,,,,,,,,,,,,,,,,,,,,,,,,,,,,,,,,,,,,,,,,,,,5f5290ff7ef2f05699c250d6,6036d877e0ec51ef81f678e2,2021-02-24_23h51.56.976,Colour_Similarity_Experiment,2020.2.10,Win32,60,6036d0d9a84aa1626184a6ef,7.044949772,6.972570194,6.953678855,6.950744351,6.944470927,6.955366082,,,,,,,,,,,,,,,,,,,,PF,weak,7,,,,,,,,7,0.91566,,,,,,,,,,,,,,,,,,,,,,,,,,,5,weak,33,133,1,0,0,response1disk,1,32,-7,1,1,0,0,rectangle,121,-56,1,0,0,5,5,1,1.54812,3,-11,1,0,0,0,31,31,159,1,response3disk_3,rectangle,,,,,,,,,,,,,,,,,,,
,,,,,,,,,,,,,,,,,,,,,,,,,,,,,,,,,,,,,,,,,,,5f5290ff7ef2f05699c250d6,6036d877e0ec51ef81f678e2,2021-02-24_23h51.56.976,Colour_Similarity_Experiment,2020.2.10,Win32,60,6036d0d9a84aa1626184a6ef,7.044949772,6.972570194,6.953678855,6.950744351,6.944470927,6.955366082,,,,,,,,,,,,,,,,,,,,PF,weak,7,,,,,,,,2,0.69659,,,,,,,,,,,,,,,,,,,,,,,,,,,3,weak,-78,-53,1,0,0,response5disk,6,33,11,6,1,0,0,rectangle,11,6,1,0,0,5,4,0,0.001,11,6,1,0,0,0,32,32,47,1,,,,,,,,,,,,,,,,,,,,,
,,,,,,,,,,,,,,,,,,,,,,,,,,,,,,,,,,,,,,,,,,,5f5290ff7ef2f05699c250d6,6036d877e0ec51ef81f678e2,2021-02-24_23h51.56.976,Colour_Similarity_Experiment,2020.2.10,Win32,60,6036d0d9a84aa1626184a6ef,7.044949772,6.972570194,6.953678855,6.950744351,6.944470927,6.955366082,,,,,,,,,,,,,,,,,,,,PF,weak,7,,,,,,,,3,1.358465,,,,,,,,,,,,,,,,,,,,,,,,,,,4,weak,-59,-125,1,0,0,response5disk,5,34,-4,1,1,0,0,rectangle,-4,1,1,0,0,5,0,0,0.00107,-4,1,1,0,0,0,33,33,49,1,,,,,,,,,,,,,,,,,,,,,
,,,,,,,,,,,,,,,,,,,,,,,,,,,,,,,,,,,,,,,,,,,5f5290ff7ef2f05699c250d6,6036d877e0ec51ef81f678e2,2021-02-24_23h51.56.976,Colour_Similarity_Experiment,2020.2.10,Win32,60,6036d0d9a84aa1626184a6ef,7.044949772,6.972570194,6.953678855,6.950744351,6.944470927,6.955366082,,,,,,,,,,,,,,,,,,,,PF,strong,7,,,,,,,,6,13.59653,,,,,,,,,,,,,,,,,,,,,,,,,,,8,strong,108,56,1,0,0,response1disk,4,35,-7,4,1,0,0,rectangle,-7,4,1,0,0,5,1,0,0.00108,-7,4,1,0,0,0,34,34,88,1,,,,,,,,,,,,,,,,,,,,,
,,,,,,,,,,,,,,,,,,,,,,,,,,,,,,,,,,,,,,,,,,,5f5290ff7ef2f05699c250d6,6036d877e0ec51ef81f678e2,2021-02-24_23h51.56.976,Colour_Similarity_Experiment,2020.2.10,Win32,60,6036d0d9a84aa1626184a6ef,7.044949772,6.972570194,6.953678855,6.950744351,6.944470927,6.955366082,,,,,,,,,,,,,,,,,,,,PF,strong,7,,,,,,,,6,1.7218,,,,,,,,,,,,,,,,,,,,,,,,,,,6,strong,111,40,1,0,0,response1disk,4,36,6,-6,1,0,0,rectangle,6,-6,1,0,0,5,7,0,0.00123,6,-6,1,0,0,0,35,35,56,1,,,,,,,,,,,,,,,,,,,,,
,,,,,,,,,,,,,,,,,,,,,,,,,,,,,,,,,,,,,,,,,,,5f5290ff7ef2f05699c250d6,6036d877e0ec51ef81f678e2,2021-02-24_23h51.56.976,Colour_Similarity_Experiment,2020.2.10,Win32,60,6036d0d9a84aa1626184a6ef,7.044949772,6.972570194,6.953678855,6.950744351,6.944470927,6.955366082,,,,,,,,,,,,,,,,,,,,PF,weak,7,,,,,,,,5,0.84726,,,,,,,,,,,,,,,,,,,,,,,,,,,6,weak,90,-64,1,0,0,response3disk,9,37,-7,-5,1,0,0,rectangle,-7,-5,1,0,0,5,5,0,0.001645,-7,-5,1,0,0,0,36,36,45,1,,,,,,,,,,,,,,,,,,,,,
,,,,,,,,,,,,,,,,,,,,,,,,,,,,,,,,,,,,,,,,,,,5f5290ff7ef2f05699c250d6,6036d877e0ec51ef81f678e2,2021-02-24_23h51.56.976,Colour_Similarity_Experiment,2020.2.10,Win32,60,6036d0d9a84aa1626184a6ef,7.044949772,6.972570194,6.953678855,6.950744351,6.944470927,6.955366082,,,,,,,,,,,,,,,,,,,,PF,strong,7,,,,,,,,5,0.902495,,,,,,,,,,,,,,,,,,,,,,,,,,,3,strong,97,-63,1,0,0,response3disk,8,38,-4,7,1,0,0,rectangle,-4,7,1,0,0,5,5,0,0.000145,-4,7,1,0,0,0,37,37,44,1,,,,,,,,,,,,,,,,,,,,,
,,,,,,,,,,,,,,,,,,,,,,,,,,,,,,,,,,,,,,,,,,,5f5290ff7ef2f05699c250d6,6036d877e0ec51ef81f678e2,2021-02-24_23h51.56.976,Colour_Similarity_Experiment,2020.2.10,Win32,60,6036d0d9a84aa1626184a6ef,7.044949772,6.972570194,6.953678855,6.950744351,6.944470927,6.955366082,,,,,,,,,,,,,,,,,,,,PF,strong,7,,,,,,,,6,1.468385,,,,,,,,,,,,,,,,,,,,,,,,,,,2,strong,149,68,1,0,0,response1disk,5,39,-18,-11,1,0,0,rectangle,-18,-11,1,0,0,5,2,0,0.000965,-18,-11,1,0,0,0,38,38,80,1,,,,,,,,,,,,,,,,,,,,,
,,,,,,,,,,,,,,,,,,,,,,,,,,,,,,,,,,,,,,,,,,,5f5290ff7ef2f05699c250d6,6036d877e0ec51ef81f678e2,2021-02-24_23h51.56.976,Colour_Similarity_Experiment,2020.2.10,Win32,60,6036d0d9a84aa1626184a6ef,7.044949772,6.972570194,6.953678855,6.950744351,6.944470927,6.955366082,,,,,,,,,,,,,,,,,,,,PF,weak,7,,,,,,,,7,1.20816,,,,,,,,,,,,,,,,,,,,,,,,,,,8,weak,62,116,1,0,0,response1disk,4,40,-3,7,1,0,0,rectangle,-3,7,1,0,0,5,3,0,0.001035,-3,7,1,0,0,0,39,39,78,1,,,,,,,,,,,,,,,,,,,,,
,,,,,,,,,,,,,,,,,,,,,,,,,,,,,,,,,,,,,,,,,,,5f5290ff7ef2f05699c250d6,6036d877e0ec51ef81f678e2,2021-02-24_23h51.56.976,Colour_Similarity_Experiment,2020.2.10,Win32,60,6036d0d9a84aa1626184a6ef,7.044949772,6.972570194,6.953678855,6.950744351,6.944470927,6.955366082,,,,,,,,,,,,,,,,,,,,PF,strong,7,,,,,,,,7,0.99814,,,,,,,,,,,,,,,,,,,,,,,,,,,1,strong,74,118,1,0,0,response1disk,6,41,9,6,1,0,0,rectangle,9,6,1,0,0,5,0,0,0.001275,9,6,1,0,0,0,40,40,58,1,,,,,,,,,,,,,,,,,,,,,
,,,,,,,,,,,,,,,,,,,,,,,,,,,,,,,,,,,,,,,,,,,5f5290ff7ef2f05699c250d6,6036d877e0ec51ef81f678e2,2021-02-24_23h51.56.976,Colour_Similarity_Experiment,2020.2.10,Win32,60,6036d0d9a84aa1626184a6ef,7.044949772,6.972570194,6.953678855,6.950744351,6.944470927,6.955366082,,,,,,,,,,,,,,,,,,,,PF,strong,7,,,,,,,,1,1.583385,,,,,,,,,,,,,,,,,,,,,,,,,,,9,strong,-108,64,1,0,0,response7disk,9,42,10,-5,1,0,0,rectangle,10,-5,1,0,0,5,0,0,0.00015,10,-5,1,0,0,0,41,41,17,1,,,,,,,,,,,,,,,,,,,,,
,,,,,,,,,,,,,,,,,,,,,,,,,,,,,,,,,,,,,,,,,,,5f5290ff7ef2f05699c250d6,6036d877e0ec51ef81f678e2,2021-02-24_23h51.56.976,Colour_Similarity_Experiment,2020.2.10,Win32,60,6036d0d9a84aa1626184a6ef,7.044949772,6.972570194,6.953678855,6.950744351,6.944470927,6.955366082,,,,,,,,,,,,,,,,,,,,PF,weak,7,,,,,,,,0,0.802295,,,,,,,,,,,,,,,,,,,,,,,,,,,3,weak,-52,124,1,0,0,response7disk,4,43,-2,-2,1,0,0,rectangle,-2,-2,1,0,0,5,7,0,0.001255,-2,-2,1,0,0,0,42,42,30,1,,,,,,,,,,,,,,,,,,,,,
,,,,,,,,,,,,,,,,,,,,,,,,,,,,,,,,,,,,,,,,,,,5f5290ff7ef2f05699c250d6,6036d877e0ec51ef81f678e2,2021-02-24_23h51.56.976,Colour_Similarity_Experiment,2020.2.10,Win32,60,6036d0d9a84aa1626184a6ef,7.044949772,6.972570194,6.953678855,6.950744351,6.944470927,6.955366082,,,,,,,,,,,,,,,,,,,,PF,strong,7,,,,,,,,6,1.07031,,,,,,,,,,,,,,,,,,,,,,,,,,,2,strong,104,70,1,0,0,response1disk,7,44,-24,-5,1,0,0,rectangle,-24,-5,1,0,0,5,0,0,0.001285,-24,-5,1,0,0,0,43,43,63,1,,,,,,,,,,,,,,,,,,,,,
,,,,,,,,,,,,,,,,,,,,,,,,,,,,,,,,,,,,,,,,,,,5f5290ff7ef2f05699c250d6,6036d877e0ec51ef81f678e2,2021-02-24_23h51.56.976,Colour_Similarity_Experiment,2020.2.10,Win32,60,6036d0d9a84aa1626184a6ef,7.044949772,6.972570194,6.953678855,6.950744351,6.944470927,6.955366082,,,,,,,,,,,,,,,,,,,,PF,weak,7,,,,,,,,2,1.26404,,,,,,,,,,,,,,,,,,,,,,,,,,,7,weak,-119,-50,1,0,0,response5disk,6,45,0,12,1,0,0,rectangle,0,12,1,0,0,5,3,0,0.00163,0,12,1,0,0,0,44,44,29,1,,,,,,,,,,,,,,,,,,,,,
,,,,,,,,,,,,,,,,,,,,,,,,,,,,,,,,,,,,,,,,,,,5f5290ff7ef2f05699c250d6,6036d877e0ec51ef81f678e2,2021-02-24_23h51.56.976,Colour_Similarity_Experiment,2020.2.10,Win32,60,6036d0d9a84aa1626184a6ef,7.044949772,6.972570194,6.953678855,6.950744351,6.944470927,6.955366082,,,,,,,,,,,,,,,,,,,,PF,weak,7,,,,,,,,6,0.86802,,,,,,,,,,,,,,,,,,,,,,,,,,,2,weak,142,63,1,0,0,response1disk,5,46,-7,-4,1,0,0,rectangle,-7,-4,1,0,0,5,1,0,0.000875,-7,-4,1,0,0,0,45,45,147,1,,,,,,,,,,,,,,,,,,,,,
,,,,,,,,,,,,,,,,,,,,,,,,,,,,,,,,,,,,,,,,,,,5f5290ff7ef2f05699c250d6,6036d877e0ec51ef81f678e2,2021-02-24_23h51.56.976,Colour_Similarity_Experiment,2020.2.10,Win32,60,6036d0d9a84aa1626184a6ef,7.044949772,6.972570194,6.953678855,6.950744351,6.944470927,6.955366082,,,,,,,,,,,,,,,,,,,,PF,weak,7,,,,,,,,7,0.802575,,,,,,,,,,,,,,,,,,,,,,,,,,,4,weak,66,97,1,0,0,response1disk,9,47,-4,4,1,0,0,rectangle,-4,4,1,0,0,5,6,0,0.00094,-4,4,1,0,0,0,46,46,75,1,,,,,,,,,,,,,,,,,,,,,
,,,,,,,,,,,,,,,,,,,,,,,,,,,,,,,,,,,,,,,,,,,5f5290ff7ef2f05699c250d6,6036d877e0ec51ef81f678e2,2021-02-24_23h51.56.976,Colour_Similarity_Experiment,2020.2.10,Win32,60,6036d0d9a84aa1626184a6ef,7.044949772,6.972570194,6.953678855,6.950744351,6.944470927,6.955366082,,,,,,,,,,,,,,,,,,,,PF,strong,7,,,,,,,,0,1.94412,,,,,,,,,,,,,,,,,,,,,,,,,,,1,strong,-30,49,1,0,0,response7disk,1,48,8,-6,1,0,0,rectangle,8,-6,1,0,0,5,1,0,0.000965,8,-6,1,0,0,0,47,47,151,1,,,,,,,,,,,,,,,,,,,,,
,,,,,,,,,,,,,,,,,,,,,,,,,,,,,,,,,,,,,,,,,,,5f5290ff7ef2f05699c250d6,6036d877e0ec51ef81f678e2,2021-02-24_23h51.56.976,Colour_Similarity_Experiment,2020.2.10,Win32,60,6036d0d9a84aa1626184a6ef,7.044949772,6.972570194,6.953678855,6.950744351,6.944470927,6.955366082,,,,,,,,,,,,,,,,,,,,PF,weak,7,,,,,,,,7,2.19795,,,,,,,,,,,,,,,,,,,,,,,,,,,4,weak,79,107,1,0,0,response1disk,1,49,2,-1,1,0,0,rectangle,2,-1,1,0,0,5,0,0,0.00123,2,-1,1,0,0,0,48,48,115,1,,,,,,,,,,,,,,,,,,,,,
,,,,,,,,,,,,,,,,,,,,,,,,,,,,,,,,,,,,,,,,,,,5f5290ff7ef2f05699c250d6,6036d877e0ec51ef81f678e2,2021-02-24_23h51.56.976,Colour_Similarity_Experiment,2020.2.10,Win32,60,6036d0d9a84aa1626184a6ef,7.044949772,6.972570194,6.953678855,6.950744351,6.944470927,6.955366082,,,,,,,,,,,,,,,,,,,,PF,weak,7,,,,,,,,1,1.55919,,,,,,,,,,,,,,,,,,,,,,,,,,,3,weak,-102,51,1,0,0,response7disk,2,50,-15,18,1,0,0,rectangle,104,-75,1,0,0,5,5,1,1.56258,-10,3,1,0,0,0,49,49,36,1,response3disk_3,rectangle,,,,,,,,,,,,,,,,,,,
,,,,,,,,,,,,,,,,,,,,,,,,,,,,,,,,,,,,,,,,,,,5f5290ff7ef2f05699c250d6,6036d877e0ec51ef81f678e2,2021-02-24_23h51.56.976,Colour_Similarity_Experiment,2020.2.10,Win32,60,6036d0d9a84aa1626184a6ef,7.044949772,6.972570194,6.953678855,6.950744351,6.944470927,6.955366082,,,,,,,,,,,,,,,,,,,,PF,strong,7,,,,,,,,3,1.37503,,,,,,,,,,,,,,,,,,,,,,,,,,,9,strong,-93,-131,1,0,0,response5disk,8,51,2,4,1,0,0,rectangle,2,4,1,0,0,5,7,0,0.00093,2,4,1,0,0,0,50,50,6,1,,,,,,,,,,,,,,,,,,,,,
,,,,,,,,,,,,,,,,,,,,,,,,,,,,,,,,,,,,,,,,,,,5f5290ff7ef2f05699c250d6,6036d877e0ec51ef81f678e2,2021-02-24_23h51.56.976,Colour_Similarity_Experiment,2020.2.10,Win32,60,6036d0d9a84aa1626184a6ef,7.044949772,6.972570194,6.953678855,6.950744351,6.944470927,6.955366082,,,,,,,,,,,,,,,,,,,,PF,weak,7,,,,,,,,1,1.104065,,,,,,,,,,,,,,,,,,,,,,,,,,,8,weak,-111,48,1,0,0,response7disk,6,52,-9,1,1,0,0,rectangle,121,44,1,0,0,6,6,1,1.652885,-18,1,1,0,0,0,51,51,161,1,response1disk_3,rectangle,,,,,,,,,,,,,,,,,,,
,,,,,,,,,,,,,,,,,,,,,,,,,,,,,,,,,,,,,,,,,,,5f5290ff7ef2f05699c250d6,6036d877e0ec51ef81f678e2,2021-02-24_23h51.56.976,Colour_Similarity_Experiment,2020.2.10,Win32,60,6036d0d9a84aa1626184a6ef,7.044949772,6.972570194,6.953678855,6.950744351,6.944470927,6.955366082,,,,,,,,,,,,,,,,,,,,PF,weak,7,,,,,,,,7,2.20865,,,,,,,,,,,,,,,,,,,,,,,,,,,1,weak,58,115,1,0,0,response1disk,5,53,8,9,1,0,0,rectangle,8,9,1,0,0,6,2,0,0.001085,8,9,1,0,0,0,52,52,28,1,,,,,,,,,,,,,,,,,,,,,
,,,,,,,,,,,,,,,,,,,,,,,,,,,,,,,,,,,,,,,,,,,5f5290ff7ef2f05699c250d6,6036d877e0ec51ef81f678e2,2021-02-24_23h51.56.976,Colour_Similarity_Experiment,2020.2.10,Win32,60,6036d0d9a84aa1626184a6ef,7.044949772,6.972570194,6.953678855,6.950744351,6.944470927,6.955366082,,,,,,,,,,,,,,,,,,,,PF,weak,7,,,,,,,,0,0.95018,,,,,,,,,,,,,,,,,,,,,,,,,,,4,weak,-86,115,1,0,0,response7disk,4,54,15,-20,1,0,0,rectangle,15,-20,1,0,0,6,4,0,0.001005,15,-20,1,0,0,0,53,53,70,1,,,,,,,,,,,,,,,,,,,,,
,,,,,,,,,,,,,,,,,,,,,,,,,,,,,,,,,,,,,,,,,,,5f5290ff7ef2f05699c250d6,6036d877e0ec51ef81f678e2,2021-02-24_23h51.56.976,Colour_Similarity_Experiment,2020.2.10,Win32,60,6036d0d9a84aa1626184a6ef,7.044949772,6.972570194,6.953678855,6.950744351,6.944470927,6.955366082,,,,,,,,,,,,,,,,,,,,PF,weak,7,,,,,,,,4,0.881715,,,,,,,,,,,,,,,,,,,,,,,,,,,5,weak,61,-76,1,0,0,response3disk,9,55,8,-9,1,0,0,rectangle,57,122,1,0,0,7,7,1,1.53434,-8,-9,1,0,0,0,54,54,136,1,response1disk_3,rectangle,,,,,,,,,,,,,,,,,,,
,,,,,,,,,,,,,,,,,,,,,,,,,,,,,,,,,,,,,,,,,,,5f5290ff7ef2f05699c250d6,6036d877e0ec51ef81f678e2,2021-02-24_23h51.56.976,Colour_Similarity_Experiment,2020.2.10,Win32,60,6036d0d9a84aa1626184a6ef,7.044949772,6.972570194,6.953678855,6.950744351,6.944470927,6.955366082,,,,,,,,,,,,,,,,,,,,PF,weak,7,,,,,,,,6,0.95876,,,,,,,,,,,,,,,,,,,,,,,,,,,7,weak,126,66,1,0,0,response1disk,3,56,0,3,1,0,0,rectangle,0,3,1,0,0,7,1,0,0.001355,0,3,1,0,0,0,55,55,81,1,,,,,,,,,,,,,,,,,,,,,
,,,,,,,,,,,,,,,,,,,,,,,,,,,,,,,,,,,,,,,,,,,5f5290ff7ef2f05699c250d6,6036d877e0ec51ef81f678e2,2021-02-24_23h51.56.976,Colour_Similarity_Experiment,2020.2.10,Win32,60,6036d0d9a84aa1626184a6ef,7.044949772,6.972570194,6.953678855,6.950744351,6.944470927,6.955366082,,,,,,,,,,,,,,,,,,,,PF,strong,7,,,,,,,,7,1.458755,,,,,,,,,,,,,,,,,,,,,,,,,,,9,strong,73,112,1,0,0,response1disk,1,57,-16,1,1,0,0,rectangle,-16,1,1,0,0,7,4,0,0.00112,-16,1,1,0,0,0,56,56,111,1,,,,,,,,,,,,,,,,,,,,,
,,,,,,,,,,,,,,,,,,,,,,,,,,,,,,,,,,,,,,,,,,,5f5290ff7ef2f05699c250d6,6036d877e0ec51ef81f678e2,2021-02-24_23h51.56.976,Colour_Similarity_Experiment,2020.2.10,Win32,60,6036d0d9a84aa1626184a6ef,7.044949772,6.972570194,6.953678855,6.950744351,6.944470927,6.955366082,,,,,,,,,,,,,,,,,,,,PF,strong,7,,,,,,,,2,0.932885,,,,,,,,,,,,,,,,,,,,,,,,,,,1,strong,-79,-69,1,0,0,response5disk,9,58,8,8,1,0,0,rectangle,8,8,1,0,0,7,6,0,0.001305,8,8,1,0,0,0,57,57,123,1,,,,,,,,,,,,,,,,,,,,,
,,,,,,,,,,,,,,,,,,,,,,,,,,,,,,,,,,,,,,,,,,,5f5290ff7ef2f05699c250d6,6036d877e0ec51ef81f678e2,2021-02-24_23h51.56.976,Colour_Similarity_Experiment,2020.2.10,Win32,60,6036d0d9a84aa1626184a6ef,7.044949772,6.972570194,6.953678855,6.950744351,6.944470927,6.955366082,,,,,,,,,,,,,,,,,,,,PF,strong,7,,,,,,,,5,1.331225,,,,,,,,,,,,,,,,,,,,,,,,,,,7,strong,112,-60,1,0,0,response3disk,7,59,2,0,1,0,0,rectangle,2,0,1,0,0,7,6,0,0.00014,2,0,1,0,0,0,58,58,34,1,,,,,,,,,,,,,,,,,,,,,
,,,,,,,,,,,,,,,,,,,,,,,,,,,,,,,,,,,,,,,,,,,5f5290ff7ef2f05699c250d6,6036d877e0ec51ef81f678e2,2021-02-24_23h51.56.976,Colour_Similarity_Experiment,2020.2.10,Win32,60,6036d0d9a84aa1626184a6ef,7.044949772,6.972570194,6.953678855,6.950744351,6.944470927,6.955366082,,,,,,,,,,,,,,,,,,,,PF,weak,7,,,,,,,,6,1.01057,,,,,,,,,,,,,,,,,,,,,,,,,,,8,weak,131,93,1,0,0,response1disk,3,60,13,15,1,0,0,rectangle,13,15,1,0,0,7,2,0,0.00157,13,15,1,0,0,0,59,59,71,1,,,,,,,,,,,,,,,,,,,,,
,,,,,,,,,,,,,,,,,,,,,,,,,,,,,,,,,,,,,,,,,,,5f5290ff7ef2f05699c250d6,6036d877e0ec51ef81f678e2,2021-02-24_23h51.56.976,Colour_Similarity_Experiment,2020.2.10,Win32,60,6036d0d9a84aa1626184a6ef,7.044949772,6.972570194,6.953678855,6.950744351,6.944470927,6.955366082,,,,,,,,,,,,,,,,,,,,PF,weak,7,,,,,,,,7,1.405485,,,,,,,,,,,,,,,,,,,,,,,,,,,2,weak,77,121,1,0,0,response1disk,6,61,-10,5,1,0,0,rectangle,-10,5,1,0,0,7,1,0,0.001,-10,5,1,0,0,0,60,60,113,1,,,,,,,,,,,,,,,,,,,,,
,,,,,,,,,,,,,,,,,,,,,,,,,,,,,,,,,,,,,,,,,,,5f5290ff7ef2f05699c250d6,6036d877e0ec51ef81f678e2,2021-02-24_23h51.56.976,Colour_Similarity_Experiment,2020.2.10,Win32,60,6036d0d9a84aa1626184a6ef,7.044949772,6.972570194,6.953678855,6.950744351,6.944470927,6.955366082,,,,,,,,,,,,,,,,,,,,PF,strong,7,,,,,,,,7,0.940845,,,,,,,,,,,,,,,,,,,,,,,,,,,3,strong,64,89,1,0,0,response1disk,7,62,4,0,1,0,0,rectangle,4,0,1,0,0,7,0,0,0.000895,4,0,1,0,0,0,61,61,118,1,,,,,,,,,,,,,,,,,,,,,
,,,,,,,,,,,,,,,,,,,,,,,,,,,,,,,,,,,,,,,,,,,5f5290ff7ef2f05699c250d6,6036d877e0ec51ef81f678e2,2021-02-24_23h51.56.976,Colour_Similarity_Experiment,2020.2.10,Win32,60,6036d0d9a84aa1626184a6ef,7.044949772,6.972570194,6.953678855,6.950744351,6.944470927,6.955366082,,,,,,,,,,,,,,,,,,,,PF,weak,7,,,,,,,,0,0.76386,,,,,,,,,,,,,,,,,,,,,,,,,,,6,weak,-77,112,1,0,0,response7disk,6,63,1,1,1,0,0,rectangle,1,1,1,0,0,7,0,0,0.00016,1,1,1,0,0,0,62,62,0,1,,,,,,,,,,,,,,,,,,,,,
,,,,,,,,,,,,,,,,,,,,,,,,,,,,,,,,,,,,,,,,,,,5f5290ff7ef2f05699c250d6,6036d877e0ec51ef81f678e2,2021-02-24_23h51.56.976,Colour_Similarity_Experiment,2020.2.10,Win32,60,6036d0d9a84aa1626184a6ef,7.044949772,6.972570194,6.953678855,6.950744351,6.944470927,6.955366082,,,,,,,,,,,,,,,,,,,,PF,weak,7,,,,,,,,7,1.127345,,,,,,,,,,,,,,,,,,,,,,,,,,,8,weak,78,95,1,0,0,response1disk,7,64,7,1,1,0,0,rectangle,7,1,1,0,0,7,7,0,0.001115,7,1,1,0,0,0,63,63,23,1,,,,,,,,,,,,,,,,,,,,,
,,,,,,,,,,,,,,,,,,,,,,,,,,,,,,,,,,,,,,,,,,,5f5290ff7ef2f05699c250d6,6036d877e0ec51ef81f678e2,2021-02-24_23h51.56.976,Colour_Similarity_Experiment,2020.2.10,Win32,60,6036d0d9a84aa1626184a6ef,7.044949772,6.972570194,6.953678855,6.950744351,6.944470927,6.955366082,,,,,,,,,,,,,,,,,,,,PF,strong,7,,,,,,,,5,1.73199,,,,,,,,,,,,,,,,,,,,,,,,,,,3,strong,94,-49,1,0,0,response3disk,2,65,9,4,1,0,0,rectangle,9,4,1,0,0,7,7,0,0.00014,9,4,1,0,0,0,64,64,93,1,,,,,,,,,,,,,,,,,,,,,
,,,,,,,,,,,,,,,,,,,,,,,,,,,,,,,,,,,,,,,,,,,5f5290ff7ef2f05699c250d6,6036d877e0ec51ef81f678e2,2021-02-24_23h51.56.976,Colour_Similarity_Experiment,2020.2.10,Win32,60,6036d0d9a84aa1626184a6ef,7.044949772,6.972570194,6.953678855,6.950744351,6.944470927,6.955366082,,,,,,,,,,,,,,,,,,,,PF,strong,7,,,,,,,,1,0.93408,,,,,,,,,,,,,,,,,,,,,,,,,,,4,strong,-128,50,1,0,0,response7disk,5,66,20,1,1,0,0,rectangle,20,1,1,0,0,7,3,0,0.000985,20,1,1,0,0,0,65,65,116,1,,,,,,,,,,,,,,,,,,,,,
,,,,,,,,,,,,,,,,,,,,,,,,,,,,,,,,,,,,,,,,,,,5f5290ff7ef2f05699c250d6,6036d877e0ec51ef81f678e2,2021-02-24_23h51.56.976,Colour_Similarity_Experiment,2020.2.10,Win32,60,6036d0d9a84aa1626184a6ef,7.044949772,6.972570194,6.953678855,6.950744351,6.944470927,6.955366082,,,,,,,,,,,,,,,,,,,,PF,strong,7,,,,,,,,4,1.277695,,,,,,,,,,,,,,,,,,,,,,,,,,,7,strong,75,-111,1,0,0,response3disk,3,67,-33,10,1,0,0,rectangle,-33,10,1,0,0,7,0,0,0.001535,-33,10,1,0,0,0,66,66,73,1,,,,,,,,,,,,,,,,,,,,,
,,,,,,,,,,,,,,,,,,,,,,,,,,,,,,,,,,,,,,,,,,,5f5290ff7ef2f05699c250d6,6036d877e0ec51ef81f678e2,2021-02-24_23h51.56.976,Colour_Similarity_Experiment,2020.2.10,Win32,60,6036d0d9a84aa1626184a6ef,7.044949772,6.972570194,6.953678855,6.950744351,6.944470927,6.955366082,,,,,,,,,,,,,,,,,,,,PF,strong,7,,,,,,,,7,2.374605,,,,,,,,,,,,,,,,,,,,,,,,,,,8,strong,54,90,1,0,0,response1disk,2,68,7,2,1,0,0,rectangle,7,2,1,0,0,7,5,0,0.001285,7,2,1,0,0,0,67,67,22,1,,,,,,,,,,,,,,,,,,,,,
,,,,,,,,,,,,,,,,,,,,,,,,,,,,,,,,,,,,,,,,,,,5f5290ff7ef2f05699c250d6,6036d877e0ec51ef81f678e2,2021-02-24_23h51.56.976,Colour_Similarity_Experiment,2020.2.10,Win32,60,6036d0d9a84aa1626184a6ef,7.044949772,6.972570194,6.953678855,6.950744351,6.944470927,6.955366082,,,,,,,,,,,,,,,,,,,,PF,weak,7,,,,,,,,3,1.166465,,,,,,,,,,,,,,,,,,,,,,,,,,,7,weak,-77,-120,1,0,0,response5disk,8,69,-14,3,1,0,0,rectangle,-14,3,1,0,0,7,2,0,0.001385,-14,3,1,0,0,0,68,68,140,1,,,,,,,,,,,,,,,,,,,,,
,,,,,,,,,,,,,,,,,,,,,,,,,,,,,,,,,,,,,,,,,,,5f5290ff7ef2f05699c250d6,6036d877e0ec51ef81f678e2,2021-02-24_23h51.56.976,Colour_Similarity_Experiment,2020.2.10,Win32,60,6036d0d9a84aa1626184a6ef,7.044949772,6.972570194,6.953678855,6.950744351,6.944470927,6.955366082,,,,,,,,,,,,,,,,,,,,PF,strong,7,,,,,,,,6,1.096465,,,,,,,,,,,,,,,,,,,,,,,,,,,8,strong,107,46,1,0,0,response1disk,7,70,-9,3,1,0,0,rectangle,-9,3,1,0,0,7,3,0,0.00099,-9,3,1,0,0,0,69,69,86,1,,,,,,,,,,,,,,,,,,,,,
,,,,,,,,,,,,,,,,,,,,,,,,,,,,,,,,,,,,,,,,,,,5f5290ff7ef2f05699c250d6,6036d877e0ec51ef81f678e2,2021-02-24_23h51.56.976,Colour_Similarity_Experiment,2020.2.10,Win32,60,6036d0d9a84aa1626184a6ef,7.044949772,6.972570194,6.953678855,6.950744351,6.944470927,6.955366082,,,,,,,,,,,,,,,,,,,,PF,weak,7,,,,,,,,1,5.966095,,,,,,,,,,,,,,,,,,,,,,,,,,,1,weak,-107,47,1,0,0,response7disk,4,71,-3,3,1,0,0,rectangle,-3,3,1,0,0,7,0,0,0.000905,-3,3,1,0,0,0,70,70,139,1,,,,,,,,,,,,,,,,,,,,,
,,,,,,,,,,,,,,,,,,,,,,,,,,,,,,,,,,,,,,,,,,,5f5290ff7ef2f05699c250d6,6036d877e0ec51ef81f678e2,2021-02-24_23h51.56.976,Colour_Similarity_Experiment,2020.2.10,Win32,60,6036d0d9a84aa1626184a6ef,7.044949772,6.972570194,6.953678855,6.950744351,6.944470927,6.955366082,,,,,,,,,,,,,,,,,,,,PF,weak,7,,,,,,,,3,1.131645,,,,,,,,,,,,,,,,,,,,,,,,,,,2,weak,-85,-95,1,0,0,response5disk,1,72,2,-5,1,0,0,rectangle,2,-5,1,0,0,7,2,0,0.000975,2,-5,1,0,0,0,71,71,9,1,,,,,,,,,,,,,,,,,,,,,
,,,,,,,,,,,,,,,,,,,,,,,,,,,,,,,,,,,,,,,,,,,5f5290ff7ef2f05699c250d6,6036d877e0ec51ef81f678e2,2021-02-24_23h51.56.976,Colour_Similarity_Experiment,2020.2.10,Win32,60,6036d0d9a84aa1626184a6ef,7.044949772,6.972570194,6.953678855,6.950744351,6.944470927,6.955366082,,,,,,,,,,,,,,,,,,,,PF,strong,7,,,,,,,,6,4.424015,,,,,,,,,,,,,,,,,,,,,,,,,,,6,strong,131,47,1,0,0,response1disk,1,73,-21,8,1,0,0,rectangle,-21,8,1,0,0,7,5,0,0.001025,-21,8,1,0,0,0,72,72,5,1,,,,,,,,,,,,,,,,,,,,,
,,,,,,,,,,,,,,,,,,,,,,,,,,,,,,,,,,,,,,,,,,,5f5290ff7ef2f05699c250d6,6036d877e0ec51ef81f678e2,2021-02-24_23h51.56.976,Colour_Similarity_Experiment,2020.2.10,Win32,60,6036d0d9a84aa1626184a6ef,7.044949772,6.972570194,6.953678855,6.950744351,6.944470927,6.955366082,,,,,,,,,,,,,,,,,,,,PF,strong,7,,,,,,,,7,1.29174,,,,,,,,,,,,,,,,,,,,,,,,,,,1,strong,62,117,1,0,0,response1disk,7,74,-4,-1,1,0,0,rectangle,-4,-1,1,0,0,7,4,0,0.00108,-4,-1,1,0,0,0,73,73,137,1,,,,,,,,,,,,,,,,,,,,,
,,,,,,,,,,,,,,,,,,,,,,,,,,,,,,,,,,,,,,,,,,,5f5290ff7ef2f05699c250d6,6036d877e0ec51ef81f678e2,2021-02-24_23h51.56.976,Colour_Similarity_Experiment,2020.2.10,Win32,60,6036d0d9a84aa1626184a6ef,7.044949772,6.972570194,6.953678855,6.950744351,6.944470927,6.955366082,,,,,,,,,,,,,,,,,,,,PF,strong,7,,,,,,,,7,1.027705,,,,,,,,,,,,,,,,,,,,,,,,,,,8,strong,66,100,1,0,0,response1disk,8,75,3,-1,1,0,0,rectangle,3,-1,1,0,0,7,7,0,0.00093,3,-1,1,0,0,0,74,74,48,1,,,,,,,,,,,,,,,,,,,,,
,,,,,,,,,,,,,,,,,,,,,,,,,,,,,,,,,,,,,,,,,,,5f5290ff7ef2f05699c250d6,6036d877e0ec51ef81f678e2,2021-02-24_23h51.56.976,Colour_Similarity_Experiment,2020.2.10,Win32,60,6036d0d9a84aa1626184a6ef,7.044949772,6.972570194,6.953678855,6.950744351,6.944470927,6.955366082,,,,,,,,,,,,,,,,,,,,PF,strong,7,,,,,,,,4,1.31098,,,,,,,,,,,,,,,,,,,,,,,,,,,2,strong,76,-127,1,0,0,response3disk,6,76,-5,3,1,0,0,rectangle,-5,3,1,0,0,7,2,0,0.00088,-5,3,1,0,0,0,75,75,40,1,,,,,,,,,,,,,,,,,,,,,
,,,,,,,,,,,,,,,,,,,,,,,,,,,,,,,,,,,,,,,,,,,5f5290ff7ef2f05699c250d6,6036d877e0ec51ef81f678e2,2021-02-24_23h51.56.976,Colour_Similarity_Experiment,2020.2.10,Win32,60,6036d0d9a84aa1626184a6ef,7.044949772,6.972570194,6.953678855,6.950744351,6.944470927,6.955366082,,,,,,,,,,,,,,,,,,,,PF,strong,7,,,,,,,,5,0.83351,,,,,,,,,,,,,,,,,,,,,,,,,,,7,strong,104,-80,1,0,0,response3disk,5,77,15,5,1,0,0,rectangle,15,5,1,0,0,7,5,0,0.001245,15,5,1,0,0,0,76,76,156,1,,,,,,,,,,,,,,,,,,,,,
,,,,,,,,,,,,,,,,,,,,,,,,,,,,,,,,,,,,,,,,,,,5f5290ff7ef2f05699c250d6,6036d877e0ec51ef81f678e2,2021-02-24_23h51.56.976,Colour_Similarity_Experiment,2020.2.10,Win32,60,6036d0d9a84aa1626184a6ef,7.044949772,6.972570194,6.953678855,6.950744351,6.944470927,6.955366082,,,,,,,,,,,,,,,,,,,,PF,strong,7,,,,,,,,6,0.92243,,,,,,,,,,,,,,,,,,,,,,,,,,,1,strong,97,75,1,0,0,response1disk,4,78,-22,-19,1,0,0,rectangle,-22,-19,1,0,0,7,7,0,0.001175,-22,-19,1,0,0,0,77,77,135,1,,,,,,,,,,,,,,,,,,,,,
,,,,,,,,,,,,,,,,,,,,,,,,,,,,,,,,,,,,,,,,,,,5f5290ff7ef2f05699c250d6,6036d877e0ec51ef81f678e2,2021-02-24_23h51.56.976,Colour_Similarity_Experiment,2020.2.10,Win32,60,6036d0d9a84aa1626184a6ef,7.044949772,6.972570194,6.953678855,6.950744351,6.944470927,6.955366082,,,,,,,,,,,,,,,,,,,,PF,weak,7,,,,,,,,2,0.831875,,,,,,,,,,,,,,,,,,,,,,,,,,,6,weak,-84,-49,1,0,0,response5disk,2,79,-6,1,1,0,0,rectangle,-6,1,1,0,0,7,2,0,0.001125,-6,1,1,0,0,0,78,78,130,1,,,,,,,,,,,,,,,,,,,,,
,,,,,,,,,,,,,,,,,,,,,,,,,,,,,,,,,,,,,,,,,,,5f5290ff7ef2f05699c250d6,6036d877e0ec51ef81f678e2,2021-02-24_23h51.56.976,Colour_Similarity_Experiment,2020.2.10,Win32,60,6036d0d9a84aa1626184a6ef,7.044949772,6.972570194,6.953678855,6.950744351,6.944470927,6.955366082,,,,,,,,,,,,,,,,,,,,PF,weak,7,,,,,,,,3,1.29858,,,,,,,,,,,,,,,,,,,,,,,,,,,1,weak,-68,-115,1,0,0,response5disk,9,80,0,13,1,0,0,rectangle,0,13,1,0,0,7,2,0,0.000145,0,13,1,0,0,0,79,79,15,1,,,,,,,,,,,,,,,,,,,,,
,,,,,,,,,,,,,,,,,,,,,,,,,,,,,,,,,,,,,,,,,,,5f5290ff7ef2f05699c250d6,6036d877e0ec51ef81f678e2,2021-02-24_23h51.56.976,Colour_Similarity_Experiment,2020.2.10,Win32,60,6036d0d9a84aa1626184a6ef,7.044949772,6.972570194,6.953678855,6.950744351,6.944470927,6.955366082,,,,,,,,,,,,,,,,,,,,PF,strong,7,,,,,,,,6,0.88584,,,,,,,,,,,,,,,,,,,,,,,,,,,2,strong,123,51,1,0,0,response1disk,9,81,-6,7,1,0,0,rectangle,-6,7,1,0,0,7,3,0,0.001355,-6,7,1,0,0,0,80,80,72,1,,,,,,,,,,,,,,,,,,,,,
,,,,,,,,,,,,,,,,,,,,,,,,,,,,,,,,,,,,,,,,,,,5f5290ff7ef2f05699c250d6,6036d877e0ec51ef81f678e2,2021-02-24_23h51.56.976,Colour_Similarity_Experiment,2020.2.10,Win32,60,6036d0d9a84aa1626184a6ef,7.044949772,6.972570194,6.953678855,6.950744351,6.944470927,6.955366082,,,,,,,,,,,,,,,,,,,,PF,weak,7,,,,,,,,7,1.284095,,,,,,,,,,,,,,,,,,,,,,,,,,,8,weak,81,105,1,0,0,response1disk,1,82,20,9,1,0,0,rectangle,20,9,1,0,0,7,6,0,0.00157,20,9,1,0,0,0,81,81,57,1,,,,,,,,,,,,,,,,,,,,,
,,,,,,,,,,,,,,,,,,,,,,,,,,,,,,,,,,,,,,,,,,,5f5290ff7ef2f05699c250d6,6036d877e0ec51ef81f678e2,2021-02-24_23h51.56.976,Colour_Similarity_Experiment,2020.2.10,Win32,60,6036d0d9a84aa1626184a6ef,7.044949772,6.972570194,6.953678855,6.950744351,6.944470927,6.955366082,,,,,,,,,,,,,,,,,,,,PF,weak,7,,,,,,,,0,0.87967,,,,,,,,,,,,,,,,,,,,,,,,,,,5,weak,-51,100,1,0,0,response7disk,5,83,-2,-2,1,0,0,rectangle,-2,-2,1,0,0,7,5,0,0.001205,-2,-2,1,0,0,0,82,82,94,1,,,,,,,,,,,,,,,,,,,,,
,,,,,,,,,,,,,,,,,,,,,,,,,,,,,,,,,,,,,,,,,,,5f5290ff7ef2f05699c250d6,6036d877e0ec51ef81f678e2,2021-02-24_23h51.56.976,Colour_Similarity_Experiment,2020.2.10,Win32,60,6036d0d9a84aa1626184a6ef,7.044949772,6.972570194,6.953678855,6.950744351,6.944470927,6.955366082,,,,,,,,,,,,,,,,,,,,PF,strong,7,,,,,,,,3,0.868615,,,,,,,,,,,,,,,,,,,,,,,,,,,7,strong,-71,-123,1,0,0,response5disk,6,84,2,3,1,0,0,rectangle,2,3,1,0,0,7,3,0,0.00107,2,3,1,0,0,0,83,83,31,1,,,,,,,,,,,,,,,,,,,,,
,,,,,,,,,,,,,,,,,,,,,,,,,,,,,,,,,,,,,,,,,,,5f5290ff7ef2f05699c250d6,6036d877e0ec51ef81f678e2,2021-02-24_23h51.56.976,Colour_Similarity_Experiment,2020.2.10,Win32,60,6036d0d9a84aa1626184a6ef,7.044949772,6.972570194,6.953678855,6.950744351,6.944470927,6.955366082,,,,,,,,,,,,,,,,,,,,PF,weak,7,,,,,,,,5,0.8266,,,,,,,,,,,,,,,,,,,,,,,,,,,2,weak,124,-69,1,0,0,response3disk,8,85,6,7,1,0,0,rectangle,6,7,1,0,0,7,1,0,0.001555,6,7,1,0,0,0,84,84,52,1,,,,,,,,,,,,,,,,,,,,,
,,,,,,,,,,,,,,,,,,,,,,,,,,,,,,,,,,,,,,,,,,,5f5290ff7ef2f05699c250d6,6036d877e0ec51ef81f678e2,2021-02-24_23h51.56.976,Colour_Similarity_Experiment,2020.2.10,Win32,60,6036d0d9a84aa1626184a6ef,7.044949772,6.972570194,6.953678855,6.950744351,6.944470927,6.955366082,,,,,,,,,,,,,,,,,,,,PF,weak,7,,,,,,,,5,1.63914,,,,,,,,,,,,,,,,,,,,,,,,,,,2,weak,123,-71,1,0,0,response3disk,3,86,-4,-6,1,0,0,rectangle,-4,-6,1,0,0,7,3,0,0.000945,-4,-6,1,0,0,0,85,85,69,1,,,,,,,,,,,,,,,,,,,,,
,,,,,,,,,,,,,,,,,,,,,,,,,,,,,,,,,,,,,,,,,,,5f5290ff7ef2f05699c250d6,6036d877e0ec51ef81f678e2,2021-02-24_23h51.56.976,Colour_Similarity_Experiment,2020.2.10,Win32,60,6036d0d9a84aa1626184a6ef,7.044949772,6.972570194,6.953678855,6.950744351,6.944470927,6.955366082,,,,,,,,,,,,,,,,,,,,PF,strong,7,,,,,,,,6,1.922985,,,,,,,,,,,,,,,,,,,,,,,,,,,2,strong,136,51,1,0,0,response1disk,4,87,-8,2,1,0,0,rectangle,-8,2,1,0,0,7,3,0,0.000295,-8,2,1,0,0,0,86,86,145,1,,,,,,,,,,,,,,,,,,,,,
,,,,,,,,,,,,,,,,,,,,,,,,,,,,,,,,,,,,,,,,,,,5f5290ff7ef2f05699c250d6,6036d877e0ec51ef81f678e2,2021-02-24_23h51.56.976,Colour_Similarity_Experiment,2020.2.10,Win32,60,6036d0d9a84aa1626184a6ef,7.044949772,6.972570194,6.953678855,6.950744351,6.944470927,6.955366082,,,,,,,,,,,,,,,,,,,,PF,strong,7,,,,,,,,4,1.18796,,,,,,,,,,,,,,,,,,,,,,,,,,,4,strong,49,-123,1,0,0,response3disk,9,88,14,-7,1,0,0,rectangle,14,-7,1,0,0,7,4,0,0.00104,14,-7,1,0,0,0,87,87,90,1,,,,,,,,,,,,,,,,,,,,,
,,,,,,,,,,,,,,,,,,,,,,,,,,,,,,,,,,,,,,,,,,,5f5290ff7ef2f05699c250d6,6036d877e0ec51ef81f678e2,2021-02-24_23h51.56.976,Colour_Similarity_Experiment,2020.2.10,Win32,60,6036d0d9a84aa1626184a6ef,7.044949772,6.972570194,6.953678855,6.950744351,6.944470927,6.955366082,,,,,,,,,,,,,,,,,,,,PF,strong,7,,,,,,,,6,0.84009,,,,,,,,,,,,,,,,,,,,,,,,,,,6,strong,112,66,1,0,0,response1disk,9,89,-5,2,1,0,0,rectangle,-89,141,1,0,0,0,0,1,1.562105,-4,3,1,0,0,0,88,88,160,1,response7disk_3,rectangle,,,,,,,,,,,,,,,,,,,
,,,,,,,,,,,,,,,,,,,,,,,,,,,,,,,,,,,,,,,,,,,5f5290ff7ef2f05699c250d6,6036d877e0ec51ef81f678e2,2021-02-24_23h51.56.976,Colour_Similarity_Experiment,2020.2.10,Win32,60,6036d0d9a84aa1626184a6ef,7.044949772,6.972570194,6.953678855,6.950744351,6.944470927,6.955366082,,,,,,,,,,,,,,,,,,,,PF,weak,7,,,,,,,,0,0.770815,,,,,,,,,,,,,,,,,,,,,,,,,,,3,weak,-78,115,1,0,0,response7disk,3,90,7,-11,1,0,0,rectangle,7,-11,1,0,0,0,2,0,0.001085,7,-11,1,0,0,0,89,89,4,1,,,,,,,,,,,,,,,,,,,,,
,,,,,,,,,,,,,,,,,,,,,,,,,,,,,,,,,,,,,,,,,,,5f5290ff7ef2f05699c250d6,6036d877e0ec51ef81f678e2,2021-02-24_23h51.56.976,Colour_Similarity_Experiment,2020.2.10,Win32,60,6036d0d9a84aa1626184a6ef,7.044949772,6.972570194,6.953678855,6.950744351,6.944470927,6.955366082,,,,,,,,,,,,,,,,,,,,PF,weak,7,,,,,,,,7,1.269555,,,,,,,,,,,,,,,,,,,,,,,,,,,6,weak,66,140,1,0,0,response1disk,1,91,-20,-7,1,0,0,rectangle,-20,-7,1,0,0,0,1,0,0.000885,-20,-7,1,0,0,0,90,90,46,1,,,,,,,,,,,,,,,,,,,,,
,,,,,,,,,,,,,,,,,,,,,,,,,,,,,,,,,,,,,,,,,,,5f5290ff7ef2f05699c250d6,6036d877e0ec51ef81f678e2,2021-02-24_23h51.56.976,Colour_Similarity_Experiment,2020.2.10,Win32,60,6036d0d9a84aa1626184a6ef,7.044949772,6.972570194,6.953678855,6.950744351,6.944470927,6.955366082,,,,,,,,,,,,,,,,,,,,PF,strong,7,,,,,,,,6,2.333025,,,,,,,,,,,,,,,,,,,,,,,,,,,9,strong,132,71,1,0,0,response1disk,5,92,-10,-14,1,0,0,rectangle,-10,-14,1,0,0,0,1,0,0.000135,-10,-14,1,0,0,0,91,91,128,1,,,,,,,,,,,,,,,,,,,,,
,,,,,,,,,,,,,,,,,,,,,,,,,,,,,,,,,,,,,,,,,,,5f5290ff7ef2f05699c250d6,6036d877e0ec51ef81f678e2,2021-02-24_23h51.56.976,Colour_Similarity_Experiment,2020.2.10,Win32,60,6036d0d9a84aa1626184a6ef,7.044949772,6.972570194,6.953678855,6.950744351,6.944470927,6.955366082,,,,,,,,,,,,,,,,,,,,PF,weak,7,,,,,,,,6,0.93281,,,,,,,,,,,,,,,,,,,,,,,,,,,9,weak,134,72,1,0,0,response1disk,3,93,3,1,1,0,0,rectangle,3,1,1,0,0,0,5,0,0.001345,3,1,1,0,0,0,92,92,119,1,,,,,,,,,,,,,,,,,,,,,
,,,,,,,,,,,,,,,,,,,,,,,,,,,,,,,,,,,,,,,,,,,5f5290ff7ef2f05699c250d6,6036d877e0ec51ef81f678e2,2021-02-24_23h51.56.976,Colour_Similarity_Experiment,2020.2.10,Win32,60,6036d0d9a84aa1626184a6ef,7.044949772,6.972570194,6.953678855,6.950744351,6.944470927,6.955366082,,,,,,,,,,,,,,,,,,,,PF,strong,7,,,,,,,,7,1.1644,,,,,,,,,,,,,,,,,,,,,,,,,,,1,strong,75,138,1,0,0,response1disk,5,94,-6,7,1,0,0,rectangle,-6,7,1,0,0,0,6,0,0.000955,-6,7,1,0,0,0,93,93,82,1,,,,,,,,,,,,,,,,,,,,,
,,,,,,,,,,,,,,,,,,,,,,,,,,,,,,,,,,,,,,,,,,,5f5290ff7ef2f05699c250d6,6036d877e0ec51ef81f678e2,2021-02-24_23h51.56.976,Colour_Similarity_Experiment,2020.2.10,Win32,60,6036d0d9a84aa1626184a6ef,7.044949772,6.972570194,6.953678855,6.950744351,6.944470927,6.955366082,,,,,,,,,,,,,,,,,,,,PF,weak,7,,,,,,,,7,1.11736,,,,,,,,,,,,,,,,,,,,,,,,,,,9,weak,82,83,1,0,0,response1disk,4,95,-4,4,1,0,0,rectangle,-4,4,1,0,0,0,3,0,0.00103,-4,4,1,0,0,0,94,94,114,1,,,,,,,,,,,,,,,,,,,,,
,,,,,,,,,,,,,,,,,,,,,,,,,,,,,,,,,,,,,,,,,,,5f5290ff7ef2f05699c250d6,6036d877e0ec51ef81f678e2,2021-02-24_23h51.56.976,Colour_Similarity_Experiment,2020.2.10,Win32,60,6036d0d9a84aa1626184a6ef,7.044949772,6.972570194,6.953678855,6.950744351,6.944470927,6.955366082,,,,,,,,,,,,,,,,,,,,PF,strong,7,,,,,,,,5,2.652725,,,,,,,,,,,,,,,,,,,,,,,,,,,4,strong,145,-88,1,0,0,response3disk,8,96,-17,3,1,0,0,rectangle,-17,3,1,0,0,0,7,0,0.00212,-17,3,1,0,0,0,95,95,35,1,,,,,,,,,,,,,,,,,,,,,
,,,,,,,,,,,,,,,,,,,,,,,,,,,,,,,,,,,,,,,,,,,5f5290ff7ef2f05699c250d6,6036d877e0ec51ef81f678e2,2021-02-24_23h51.56.976,Colour_Similarity_Experiment,2020.2.10,Win32,60,6036d0d9a84aa1626184a6ef,7.044949772,6.972570194,6.953678855,6.950744351,6.944470927,6.955366082,,,,,,,,,,,,,,,,,,,,PF,weak,7,,,,,,,,5,0.79168,,,,,,,,,,,,,,,,,,,,,,,,,,,2,weak,97,-67,1,0,0,response3disk,4,97,-2,1,1,0,0,rectangle,-2,1,1,0,0,0,3,0,0.00093,-2,1,1,0,0,0,96,96,127,1,,,,,,,,,,,,,,,,,,,,,
,,,,,,,,,,,,,,,,,,,,,,,,,,,,,,,,,,,,,,,,,,,5f5290ff7ef2f05699c250d6,6036d877e0ec51ef81f678e2,2021-02-24_23h51.56.976,Colour_Similarity_Experiment,2020.2.10,Win32,60,6036d0d9a84aa1626184a6ef,7.044949772,6.972570194,6.953678855,6.950744351,6.944470927,6.955366082,,,,,,,,,,,,,,,,,,,,PF,weak,7,,,,,,,,6,0.83315,,,,,,,,,,,,,,,,,,,,,,,,,,,9,weak,106,52,1,0,0,response1disk,2,98,-14,2,1,0,0,rectangle,-14,2,1,0,0,0,4,0,0.001875,-14,2,1,0,0,0,97,97,157,1,,,,,,,,,,,,,,,,,,,,,
,,,,,,,,,,,,,,,,,,,,,,,,,,,,,,,,,,,,,,,,,,,5f5290ff7ef2f05699c250d6,6036d877e0ec51ef81f678e2,2021-02-24_23h51.56.976,Colour_Similarity_Experiment,2020.2.10,Win32,60,6036d0d9a84aa1626184a6ef,7.044949772,6.972570194,6.953678855,6.950744351,6.944470927,6.955366082,,,,,,,,,,,,,,,,,,,,PF,strong,7,,,,,,,,3,2.23626,,,,,,,,,,,,,,,,,,,,,,,,,,,7,strong,-58,-112,1,0,0,response5disk,8,99,0,9,1,0,0,rectangle,28,-112,1,0,0,4,4,1,1.8889,0,-7,1,0,0,0,98,98,97,1,response3disk_3,rectangle,,,,,,,,,,,,,,,,,,,
,,,,,,,,,,,,,,,,,,,,,,,,,,,,,,,,,,,,,,,,,,,5f5290ff7ef2f05699c250d6,6036d877e0ec51ef81f678e2,2021-02-24_23h51.56.976,Colour_Similarity_Experiment,2020.2.10,Win32,60,6036d0d9a84aa1626184a6ef,7.044949772,6.972570194,6.953678855,6.950744351,6.944470927,6.955366082,,,,,,,,,,,,,,,,,,,,PF,weak,7,,,,,,,,5,2.16658,,,,,,,,,,,,,,,,,,,,,,,,,,,8,weak,126,-70,1,0,0,response3disk,2,100,-9,18,1,0,0,rectangle,-9,18,1,0,0,4,3,0,0.00138,-9,18,1,0,0,0,99,99,83,1,,,,,,,,,,,,,,,,,,,,,
,,,,,,,,,,,,,,,,,,,,,,,,,,,,,,,,,,,,,,,,,,,5f5290ff7ef2f05699c250d6,6036d877e0ec51ef81f678e2,2021-02-24_23h51.56.976,Colour_Similarity_Experiment,2020.2.10,Win32,60,6036d0d9a84aa1626184a6ef,7.044949772,6.972570194,6.953678855,6.950744351,6.944470927,6.955366082,,,,,,,,,,,,,,,,,,,,PF,weak,7,,,,,,,,3,1.041785,,,,,,,,,,,,,,,,,,,,,,,,,,,7,weak,-64,-110,1,0,0,response5disk,9,101,9,9,1,0,0,rectangle,9,9,1,0,0,4,4,0,0.00134,9,9,1,0,0,0,100,100,10,1,,,,,,,,,,,,,,,,,,,,,
,,,,,,,,,,,,,,,,,,,,,,,,,,,,,,,,,,,,,,,,,,,5f5290ff7ef2f05699c250d6,6036d877e0ec51ef81f678e2,2021-02-24_23h51.56.976,Colour_Similarity_Experiment,2020.2.10,Win32,60,6036d0d9a84aa1626184a6ef,7.044949772,6.972570194,6.953678855,6.950744351,6.944470927,6.955366082,,,,,,,,,,,,,,,,,,,,PF,strong,7,,,,,,,,2,1.51059,,,,,,,,,,,,,,,,,,,,,,,,,,,5,strong,-125,-68,1,0,0,response5disk,4,102,5,5,1,0,0,rectangle,5,5,1,0,0,4,7,0,0.001045,5,5,1,0,0,0,101,101,8,1,,,,,,,,,,,,,,,,,,,,,
,,,,,,,,,,,,,,,,,,,,,,,,,,,,,,,,,,,,,,,,,,,5f5290ff7ef2f05699c250d6,6036d877e0ec51ef81f678e2,2021-02-24_23h51.56.976,Colour_Similarity_Experiment,2020.2.10,Win32,60,6036d0d9a84aa1626184a6ef,7.044949772,6.972570194,6.953678855,6.950744351,6.944470927,6.955366082,,,,,,,,,,,,,,,,,,,,PF,weak,7,,,,,,,,3,1.033615,,,,,,,,,,,,,,,,,,,,,,,,,,,1,weak,-55,-111,1,0,0,response5disk,2,103,10,0,1,0,0,rectangle,10,0,1,0,0,4,1,0,0.00119,10,0,1,0,0,0,102,102,24,1,,,,,,,,,,,,,,,,,,,,,
,,,,,,,,,,,,,,,,,,,,,,,,,,,,,,,,,,,,,,,,,,,5f5290ff7ef2f05699c250d6,6036d877e0ec51ef81f678e2,2021-02-24_23h51.56.976,Colour_Similarity_Experiment,2020.2.10,Win32,60,6036d0d9a84aa1626184a6ef,7.044949772,6.972570194,6.953678855,6.950744351,6.944470927,6.955366082,,,,,,,,,,,,,,,,,,,,PF,strong,7,,,,,,,,4,0.96546,,,,,,,,,,,,,,,,,,,,,,,,,,,8,strong,41,-101,1,0,0,response3disk,5,104,-1,1,1,0,0,rectangle,-1,1,1,0,0,4,5,0,0.000885,-1,1,1,0,0,0,103,103,152,1,,,,,,,,,,,,,,,,,,,,,
,,,,,,,,,,,,,,,,,,,,,,,,,,,,,,,,,,,,,,,,,,,5f5290ff7ef2f05699c250d6,6036d877e0ec51ef81f678e2,2021-02-24_23h51.56.976,Colour_Similarity_Experiment,2020.2.10,Win32,60,6036d0d9a84aa1626184a6ef,7.044949772,6.972570194,6.953678855,6.950744351,6.944470927,6.955366082,,,,,,,,,,,,,,,,,,,,PF,strong,7,,,,,,,,2,1.330875,,,,,,,,,,,,,,,,,,,,,,,,,,,2,strong,-102,-52,1,0,0,response5disk,1,105,1,-1,1,0,0,rectangle,1,-1,1,0,0,4,4,0,0.000935,1,-1,1,0,0,0,104,104,85,1,,,,,,,,,,,,,,,,,,,,,
,,,,,,,,,,,,,,,,,,,,,,,,,,,,,,,,,,,,,,,,,,,5f5290ff7ef2f05699c250d6,6036d877e0ec51ef81f678e2,2021-02-24_23h51.56.976,Colour_Similarity_Experiment,2020.2.10,Win32,60,6036d0d9a84aa1626184a6ef,7.044949772,6.972570194,6.953678855,6.950744351,6.944470927,6.955366082,,,,,,,,,,,,,,,,,,,,PF,weak,7,,,,,,,,6,1.08336,,,,,,,,,,,,,,,,,,,,,,,,,,,7,weak,106,63,1,0,0,response1disk,4,106,0,-3,1,0,0,rectangle,0,-3,1,0,0,4,2,0,0.00131,0,-3,1,0,0,0,105,105,43,1,,,,,,,,,,,,,,,,,,,,,
,,,,,,,,,,,,,,,,,,,,,,,,,,,,,,,,,,,,,,,,,,,5f5290ff7ef2f05699c250d6,6036d877e0ec51ef81f678e2,2021-02-24_23h51.56.976,Colour_Similarity_Experiment,2020.2.10,Win32,60,6036d0d9a84aa1626184a6ef,7.044949772,6.972570194,6.953678855,6.950744351,6.944470927,6.955366082,,,,,,,,,,,,,,,,,,,,PF,weak,7,,,,,,,,6,0.93767,,,,,,,,,,,,,,,,,,,,,,,,,,,4,weak,120,68,1,0,0,response1disk,8,107,0,8,1,0,0,rectangle,0,8,1,0,0,4,6,0,0.00127,0,8,1,0,0,0,106,106,124,1,,,,,,,,,,,,,,,,,,,,,
,,,,,,,,,,,,,,,,,,,,,,,,,,,,,,,,,,,,,,,,,,,5f5290ff7ef2f05699c250d6,6036d877e0ec51ef81f678e2,2021-02-24_23h51.56.976,Colour_Similarity_Experiment,2020.2.10,Win32,60,6036d0d9a84aa1626184a6ef,7.044949772,6.972570194,6.953678855,6.950744351,6.944470927,6.955366082,,,,,,,,,,,,,,,,,,,,PF,weak,7,,,,,,,,5,1.354245,,,,,,,,,,,,,,,,,,,,,,,,,,,9,weak,105,-74,1,0,0,response3disk,5,108,1,7,1,0,0,rectangle,1,7,1,0,0,4,3,0,0.000865,1,7,1,0,0,0,107,107,134,1,,,,,,,,,,,,,,,,,,,,,
,,,,,,,,,,,,,,,,,,,,,,,,,,,,,,,,,,,,,,,,,,,5f5290ff7ef2f05699c250d6,6036d877e0ec51ef81f678e2,2021-02-24_23h51.56.976,Colour_Similarity_Experiment,2020.2.10,Win32,60,6036d0d9a84aa1626184a6ef,7.044949772,6.972570194,6.953678855,6.950744351,6.944470927,6.955366082,,,,,,,,,,,,,,,,,,,,PF,weak,7,,,,,,,,6,0.847665,,,,,,,,,,,,,,,,,,,,,,,,,,,2,weak,146,58,1,0,0,response1disk,7,109,-10,-1,1,0,0,rectangle,-10,-1,1,0,0,4,6,0,0.001115,-10,-1,1,0,0,0,108,108,107,1,,,,,,,,,,,,,,,,,,,,,
,,,,,,,,,,,,,,,,,,,,,,,,,,,,,,,,,,,,,,,,,,,5f5290ff7ef2f05699c250d6,6036d877e0ec51ef81f678e2,2021-02-24_23h51.56.976,Colour_Similarity_Experiment,2020.2.10,Win32,60,6036d0d9a84aa1626184a6ef,7.044949772,6.972570194,6.953678855,6.950744351,6.944470927,6.955366082,,,,,,,,,,,,,,,,,,,,PF,weak,7,,,,,,,,6,0.743255,,,,,,,,,,,,,,,,,,,,,,,,,,,9,weak,90,53,1,0,0,response1disk,6,110,-12,-5,1,0,0,rectangle,-12,-5,1,0,0,4,3,0,0.000905,-12,-5,1,0,0,0,109,109,148,1,,,,,,,,,,,,,,,,,,,,,
,,,,,,,,,,,,,,,,,,,,,,,,,,,,,,,,,,,,,,,,,,,5f5290ff7ef2f05699c250d6,6036d877e0ec51ef81f678e2,2021-02-24_23h51.56.976,Colour_Similarity_Experiment,2020.2.10,Win32,60,6036d0d9a84aa1626184a6ef,7.044949772,6.972570194,6.953678855,6.950744351,6.944470927,6.955366082,,,,,,,,,,,,,,,,,,,,PF,strong,7,,,,,,,,7,1.048715,,,,,,,,,,,,,,,,,,,,,,,,,,,4,strong,79,117,1,0,0,response1disk,7,111,9,-1,1,0,0,rectangle,9,-1,1,0,0,4,3,0,0.000145,9,-1,1,0,0,0,110,110,87,1,,,,,,,,,,,,,,,,,,,,,
,,,,,,,,,,,,,,,,,,,,,,,,,,,,,,,,,,,,,,,,,,,5f5290ff7ef2f05699c250d6,6036d877e0ec51ef81f678e2,2021-02-24_23h51.56.976,Colour_Similarity_Experiment,2020.2.10,Win32,60,6036d0d9a84aa1626184a6ef,7.044949772,6.972570194,6.953678855,6.950744351,6.944470927,6.955366082,,,,,,,,,,,,,,,,,,,,PF,strong,7,,,,,,,,5,3.115435,,,,,,,,,,,,,,,,,,,,,,,,,,,5,strong,109,-45,1,0,0,response3disk,6,112,-6,3,1,0,0,rectangle,-6,3,1,0,0,4,7,0,0.00108,-6,3,1,0,0,0,111,111,12,1,,,,,,,,,,,,,,,,,,,,,
,,,,,,,,,,,,,,,,,,,,,,,,,,,,,,,,,,,,,,,,,,,5f5290ff7ef2f05699c250d6,6036d877e0ec51ef81f678e2,2021-02-24_23h51.56.976,Colour_Similarity_Experiment,2020.2.10,Win32,60,6036d0d9a84aa1626184a6ef,7.044949772,6.972570194,6.953678855,6.950744351,6.944470927,6.955366082,,,,,,,,,,,,,,,,,,,,PF,weak,7,,,,,,,,4,1.4495,,,,,,,,,,,,,,,,,,,,,,,,,,,5,weak,61,-116,1,0,0,response3disk,7,113,-2,3,1,0,0,rectangle,-2,3,1,0,0,4,5,0,0.00132,-2,3,1,0,0,0,112,112,146,1,,,,,,,,,,,,,,,,,,,,,
,,,,,,,,,,,,,,,,,,,,,,,,,,,,,,,,,,,,,,,,,,,5f5290ff7ef2f05699c250d6,6036d877e0ec51ef81f678e2,2021-02-24_23h51.56.976,Colour_Similarity_Experiment,2020.2.10,Win32,60,6036d0d9a84aa1626184a6ef,7.044949772,6.972570194,6.953678855,6.950744351,6.944470927,6.955366082,,,,,,,,,,,,,,,,,,,,PF,weak,7,,,,,,,,2,1.25036,,,,,,,,,,,,,,,,,,,,,,,,,,,6,weak,-108,-61,1,0,0,response5disk,7,114,5,2,1,0,0,rectangle,5,2,1,0,0,4,2,0,0.00105,5,2,1,0,0,0,113,113,50,1,,,,,,,,,,,,,,,,,,,,,
,,,,,,,,,,,,,,,,,,,,,,,,,,,,,,,,,,,,,,,,,,,5f5290ff7ef2f05699c250d6,6036d877e0ec51ef81f678e2,2021-02-24_23h51.56.976,Colour_Similarity_Experiment,2020.2.10,Win32,60,6036d0d9a84aa1626184a6ef,7.044949772,6.972570194,6.953678855,6.950744351,6.944470927,6.955366082,,,,,,,,,,,,,,,,,,,,PF,strong,7,,,,,,,,4,1.104635,,,,,,,,,,,,,,,,,,,,,,,,,,,2,strong,50,-109,1,0,0,response3disk,3,115,-7,-4,1,0,0,rectangle,-50,-105,1,0,0,3,3,1,1.68048,3,-1,1,0,0,0,114,114,104,1,response5disk_3,rectangle,,,,,,,,,,,,,,,,,,,
,,,,,,,,,,,,,,,,,,,,,,,,,,,,,,,,,,,,,,,,,,,5f5290ff7ef2f05699c250d6,6036d877e0ec51ef81f678e2,2021-02-24_23h51.56.976,Colour_Similarity_Experiment,2020.2.10,Win32,60,6036d0d9a84aa1626184a6ef,7.044949772,6.972570194,6.953678855,6.950744351,6.944470927,6.955366082,,,,,,,,,,,,,,,,,,,,PF,strong,7,,,,,,,,5,1.694665,,,,,,,,,,,,,,,,,,,,,,,,,,,7,strong,110,-77,1,0,0,response3disk,9,116,10,11,1,0,0,rectangle,10,11,1,0,0,3,2,0,0.001055,10,11,1,0,0,0,115,115,155,1,,,,,,,,,,,,,,,,,,,,,
,,,,,,,,,,,,,,,,,,,,,,,,,,,,,,,,,,,,,,,,,,,5f5290ff7ef2f05699c250d6,6036d877e0ec51ef81f678e2,2021-02-24_23h51.56.976,Colour_Similarity_Experiment,2020.2.10,Win32,60,6036d0d9a84aa1626184a6ef,7.044949772,6.972570194,6.953678855,6.950744351,6.944470927,6.955366082,,,,,,,,,,,,,,,,,,,,PF,strong,7,,,,,,,,6,0.92116,,,,,,,,,,,,,,,,,,,,,,,,,,,4,strong,125,63,1,0,0,response1disk,1,117,-2,-5,1,0,0,rectangle,-2,-5,1,0,0,3,6,0,0.00119,-2,-5,1,0,0,0,116,116,102,1,,,,,,,,,,,,,,,,,,,,,
,,,,,,,,,,,,,,,,,,,,,,,,,,,,,,,,,,,,,,,,,,,5f5290ff7ef2f05699c250d6,6036d877e0ec51ef81f678e2,2021-02-24_23h51.56.976,Colour_Similarity_Experiment,2020.2.10,Win32,60,6036d0d9a84aa1626184a6ef,7.044949772,6.972570194,6.953678855,6.950744351,6.944470927,6.955366082,,,,,,,,,,,,,,,,,,,,PF,weak,7,,,,,,,,5,2.243145,,,,,,,,,,,,,,,,,,,,,,,,,,,8,weak,100,-63,1,0,0,response3disk,9,118,-15,4,1,0,0,rectangle,-15,4,1,0,0,3,5,0,0.00133,-15,4,1,0,0,0,117,117,42,1,,,,,,,,,,,,,,,,,,,,,
,,,,,,,,,,,,,,,,,,,,,,,,,,,,,,,,,,,,,,,,,,,5f5290ff7ef2f05699c250d6,6036d877e0ec51ef81f678e2,2021-02-24_23h51.56.976,Colour_Similarity_Experiment,2020.2.10,Win32,60,6036d0d9a84aa1626184a6ef,7.044949772,6.972570194,6.953678855,6.950744351,6.944470927,6.955366082,,,,,,,,,,,,,,,,,,,,PF,strong,7,,,,,,,,0,1.50578,,,,,,,,,,,,,,,,,,,,,,,,,,,3,strong,-63,126,1,0,0,response7disk,4,119,4,9,1,0,0,rectangle,4,9,1,0,0,3,7,0,0.00138,4,9,1,0,0,0,118,118,110,1,,,,,,,,,,,,,,,,,,,,,
,,,,,,,,,,,,,,,,,,,,,,,,,,,,,,,,,,,,,,,,,,,5f5290ff7ef2f05699c250d6,6036d877e0ec51ef81f678e2,2021-02-24_23h51.56.976,Colour_Similarity_Experiment,2020.2.10,Win32,60,6036d0d9a84aa1626184a6ef,7.044949772,6.972570194,6.953678855,6.950744351,6.944470927,6.955366082,,,,,,,,,,,,,,,,,,,,PF,weak,7,,,,,,,,6,0.84036,,,,,,,,,,,,,,,,,,,,,,,,,,,7,weak,101,52,1,0,0,response1disk,1,120,-2,3,1,0,0,rectangle,-2,3,1,0,0,3,2,0,0.000925,-2,3,1,0,0,0,119,119,53,1,,,,,,,,,,,,,,,,,,,,,
,,,,,,,,,,,,,,,,,,,,,,,,,,,,,,,,,,,,,,,,,,,5f5290ff7ef2f05699c250d6,6036d877e0ec51ef81f678e2,2021-02-24_23h51.56.976,Colour_Similarity_Experiment,2020.2.10,Win32,60,6036d0d9a84aa1626184a6ef,7.044949772,6.972570194,6.953678855,6.950744351,6.944470927,6.955366082,,,,,,,,,,,,,,,,,,,,PF,strong,7,,,,,,,,6,0.93041,,,,,,,,,,,,,,,,,,,,,,,,,,,9,strong,116,49,1,0,0,response1disk,3,121,7,-6,1,0,0,rectangle,7,-6,1,0,0,3,5,0,0.00115,7,-6,1,0,0,0,120,120,141,1,,,,,,,,,,,,,,,,,,,,,
,,,,,,,,,,,,,,,,,,,,,,,,,,,,,,,,,,,,,,,,,,,5f5290ff7ef2f05699c250d6,6036d877e0ec51ef81f678e2,2021-02-24_23h51.56.976,Colour_Similarity_Experiment,2020.2.10,Win32,60,6036d0d9a84aa1626184a6ef,7.044949772,6.972570194,6.953678855,6.950744351,6.944470927,6.955366082,,,,,,,,,,,,,,,,,,,,PF,strong,7,,,,,,,,4,0.8129,,,,,,,,,,,,,,,,,,,,,,,,,,,2,strong,76,-92,1,0,0,response3disk,8,122,-1,9,1,0,0,rectangle,-1,9,1,0,0,3,1,0,0.00085,-1,9,1,0,0,0,121,121,62,1,,,,,,,,,,,,,,,,,,,,,
,,,,,,,,,,,,,,,,,,,,,,,,,,,,,,,,,,,,,,,,,,,5f5290ff7ef2f05699c250d6,6036d877e0ec51ef81f678e2,2021-02-24_23h51.56.976,Colour_Similarity_Experiment,2020.2.10,Win32,60,6036d0d9a84aa1626184a6ef,7.044949772,6.972570194,6.953678855,6.950744351,6.944470927,6.955366082,,,,,,,,,,,,,,,,,,,,PF,weak,7,,,,,,,,5,0.73475,,,,,,,,,,,,,,,,,,,,,,,,,,,4,weak,103,-58,1,0,0,response3disk,6,123,13,-2,1,0,0,rectangle,13,-2,1,0,0,3,2,0,0.00107,13,-2,1,0,0,0,122,122,120,1,,,,,,,,,,,,,,,,,,,,,
,,,,,,,,,,,,,,,,,,,,,,,,,,,,,,,,,,,,,,,,,,,5f5290ff7ef2f05699c250d6,6036d877e0ec51ef81f678e2,2021-02-24_23h51.56.976,Colour_Similarity_Experiment,2020.2.10,Win32,60,6036d0d9a84aa1626184a6ef,7.044949772,6.972570194,6.953678855,6.950744351,6.944470927,6.955366082,,,,,,,,,,,,,,,,,,,,PF,weak,7,,,,,,,,4,1.26211,,,,,,,,,,,,,,,,,,,,,,,,,,,6,weak,39,-101,1,0,0,response3disk,3,124,0,7,1,0,0,rectangle,0,7,1,0,0,3,0,0,0.0016,0,7,1,0,0,0,123,123,26,1,,,,,,,,,,,,,,,,,,,,,
,,,,,,,,,,,,,,,,,,,,,,,,,,,,,,,,,,,,,,,,,,,5f5290ff7ef2f05699c250d6,6036d877e0ec51ef81f678e2,2021-02-24_23h51.56.976,Colour_Similarity_Experiment,2020.2.10,Win32,60,6036d0d9a84aa1626184a6ef,7.044949772,6.972570194,6.953678855,6.950744351,6.944470927,6.955366082,,,,,,,,,,,,,,,,,,,,PF,strong,7,,,,,,,,2,2.07036,,,,,,,,,,,,,,,,,,,,,,,,,,,4,strong,-100,-41,1,0,0,response5disk,4,125,0,-4,1,0,0,rectangle,0,-4,1,0,0,3,3,0,0.00095,0,-4,1,0,0,0,124,124,84,1,,,,,,,,,,,,,,,,,,,,,
,,,,,,,,,,,,,,,,,,,,,,,,,,,,,,,,,,,,,,,,,,,5f5290ff7ef2f05699c250d6,6036d877e0ec51ef81f678e2,2021-02-24_23h51.56.976,Colour_Similarity_Experiment,2020.2.10,Win32,60,6036d0d9a84aa1626184a6ef,7.044949772,6.972570194,6.953678855,6.950744351,6.944470927,6.955366082,,,,,,,,,,,,,,,,,,,,PF,weak,7,,,,,,,,7,1.609845,,,,,,,,,,,,,,,,,,,,,,,,,,,1,weak,72,125,1,0,0,response1disk,3,126,-3,-4,1,0,0,rectangle,-3,-4,1,0,0,3,0,0,0.000835,-3,-4,1,0,0,0,125,125,1,1,,,,,,,,,,,,,,,,,,,,,
,,,,,,,,,,,,,,,,,,,,,,,,,,,,,,,,,,,,,,,,,,,5f5290ff7ef2f05699c250d6,6036d877e0ec51ef81f678e2,2021-02-24_23h51.56.976,Colour_Similarity_Experiment,2020.2.10,Win32,60,6036d0d9a84aa1626184a6ef,7.044949772,6.972570194,6.953678855,6.950744351,6.944470927,6.955366082,,,,,,,,,,,,,,,,,,,,PF,strong,7,,,,,,,,5,1.218805,,,,,,,,,,,,,,,,,,,,,,,,,,,5,strong,125,-45,1,0,0,response3disk,3,127,4,-2,1,0,0,rectangle,4,-2,1,0,0,3,6,0,0.00127,4,-2,1,0,0,0,126,126,25,1,,,,,,,,,,,,,,,,,,,,,
,,,,,,,,,,,,,,,,,,,,,,,,,,,,,,,,,,,,,,,,,,,5f5290ff7ef2f05699c250d6,6036d877e0ec51ef81f678e2,2021-02-24_23h51.56.976,Colour_Similarity_Experiment,2020.2.10,Win32,60,6036d0d9a84aa1626184a6ef,7.044949772,6.972570194,6.953678855,6.950744351,6.944470927,6.955366082,,,,,,,,,,,,,,,,,,,,PF,strong,7,,,,,,,,6,1.187395,,,,,,,,,,,,,,,,,,,,,,,,,,,6,strong,122,70,1,0,0,response1disk,2,128,-2,-3,1,0,0,rectangle,-2,-3,1,0,0,3,5,0,0.000895,-2,-3,1,0,0,0,127,127,112,1,,,,,,,,,,,,,,,,,,,,,
,,,,,,,,,,,,,,,,,,,,,,,,,,,,,,,,,,,,,,,,,,,5f5290ff7ef2f05699c250d6,6036d877e0ec51ef81f678e2,2021-02-24_23h51.56.976,Colour_Similarity_Experiment,2020.2.10,Win32,60,6036d0d9a84aa1626184a6ef,7.044949772,6.972570194,6.953678855,6.950744351,6.944470927,6.955366082,,,,,,,,,,,,,,,,,,,,PF,weak,7,,,,,,,,2,1.013975,,,,,,,,,,,,,,,,,,,,,,,,,,,5,weak,-139,-66,1,0,0,response5disk,4,129,-1,-3,1,0,0,rectangle,-1,-3,1,0,0,3,1,0,0.000905,-1,-3,1,0,0,0,128,128,54,1,,,,,,,,,,,,,,,,,,,,,
,,,,,,,,,,,,,,,,,,,,,,,,,,,,,,,,,,,,,,,,,,,5f5290ff7ef2f05699c250d6,6036d877e0ec51ef81f678e2,2021-02-24_23h51.56.976,Colour_Similarity_Experiment,2020.2.10,Win32,60,6036d0d9a84aa1626184a6ef,7.044949772,6.972570194,6.953678855,6.950744351,6.944470927,6.955366082,,,,,,,,,,,,,,,,,,,,PF,weak,7,,,,,,,,6,1.007105,,,,,,,,,,,,,,,,,,,,,,,,,,,6,weak,123,54,1,0,0,response1disk,4,130,4,3,1,0,0,rectangle,4,3,1,0,0,3,2,0,0.00092,4,3,1,0,0,0,129,129,33,1,,,,,,,,,,,,,,,,,,,,,
,,,,,,,,,,,,,,,,,,,,,,,,,,,,,,,,,,,,,,,,,,,5f5290ff7ef2f05699c250d6,6036d877e0ec51ef81f678e2,2021-02-24_23h51.56.976,Colour_Similarity_Experiment,2020.2.10,Win32,60,6036d0d9a84aa1626184a6ef,7.044949772,6.972570194,6.953678855,6.950744351,6.944470927,6.955366082,,,,,,,,,,,,,,,,,,,,PF,strong,7,,,,,,,,6,0.826635,,,,,,,,,,,,,,,,,,,,,,,,,,,9,strong,119,59,1,0,0,response1disk,4,131,1,0,1,0,0,rectangle,1,0,1,0,0,3,6,0,0.001025,1,0,1,0,0,0,130,130,60,1,,,,,,,,,,,,,,,,,,,,,
,,,,,,,,,,,,,,,,,,,,,,,,,,,,,,,,,,,,,,,,,,,5f5290ff7ef2f05699c250d6,6036d877e0ec51ef81f678e2,2021-02-24_23h51.56.976,Colour_Similarity_Experiment,2020.2.10,Win32,60,6036d0d9a84aa1626184a6ef,7.044949772,6.972570194,6.953678855,6.950744351,6.944470927,6.955366082,,,,,,,,,,,,,,,,,,,,PF,weak,7,,,,,,,,7,0.958855,,,,,,,,,,,,,,,,,,,,,,,,,,,5,weak,63,114,1,0,0,response1disk,6,132,-3,-2,1,0,0,rectangle,-3,-2,1,0,0,3,1,0,0.001055,-3,-2,1,0,0,0,131,131,103,1,,,,,,,,,,,,,,,,,,,,,
,,,,,,,,,,,,,,,,,,,,,,,,,,,,,,,,,,,,,,,,,,,5f5290ff7ef2f05699c250d6,6036d877e0ec51ef81f678e2,2021-02-24_23h51.56.976,Colour_Similarity_Experiment,2020.2.10,Win32,60,6036d0d9a84aa1626184a6ef,7.044949772,6.972570194,6.953678855,6.950744351,6.944470927,6.955366082,,,,,,,,,,,,,,,,,,,,PF,strong,7,,,,,,,,4,0.859115,,,,,,,,,,,,,,,,,,,,,,,,,,,9,strong,84,-93,1,0,0,response3disk,6,133,-11,3,1,0,0,rectangle,-11,3,1,0,0,3,7,0,0.001175,-11,3,1,0,0,0,132,132,117,1,,,,,,,,,,,,,,,,,,,,,
,,,,,,,,,,,,,,,,,,,,,,,,,,,,,,,,,,,,,,,,,,,5f5290ff7ef2f05699c250d6,6036d877e0ec51ef81f678e2,2021-02-24_23h51.56.976,Colour_Similarity_Experiment,2020.2.10,Win32,60,6036d0d9a84aa1626184a6ef,7.044949772,6.972570194,6.953678855,6.950744351,6.944470927,6.955366082,,,,,,,,,,,,,,,,,,,,PF,weak,7,,,,,,,,5,1.176255,,,,,,,,,,,,,,,,,,,,,,,,,,,3,weak,118,-68,1,0,0,response3disk,9,134,-16,0,1,0,0,rectangle,-16,0,1,0,0,3,2,0,0.00094,-16,0,1,0,0,0,133,133,79,1,,,,,,,,,,,,,,,,,,,,,
,,,,,,,,,,,,,,,,,,,,,,,,,,,,,,,,,,,,,,,,,,,5f5290ff7ef2f05699c250d6,6036d877e0ec51ef81f678e2,2021-02-24_23h51.56.976,Colour_Similarity_Experiment,2020.2.10,Win32,60,6036d0d9a84aa1626184a6ef,7.044949772,6.972570194,6.953678855,6.950744351,6.944470927,6.955366082,,,,,,,,,,,,,,,,,,,,PF,strong,7,,,,,,,,6,0.777455,,,,,,,,,,,,,,,,,,,,,,,,,,,3,strong,166,81,1,0,0,response1disk,6,135,6,-1,1,0,0,rectangle,6,-1,1,0,0,3,6,0,0.001135,6,-1,1,0,0,0,134,134,95,1,,,,,,,,,,,,,,,,,,,,,
,,,,,,,,,,,,,,,,,,,,,,,,,,,,,,,,,,,,,,,,,,,5f5290ff7ef2f05699c250d6,6036d877e0ec51ef81f678e2,2021-02-24_23h51.56.976,Colour_Similarity_Experiment,2020.2.10,Win32,60,6036d0d9a84aa1626184a6ef,7.044949772,6.972570194,6.953678855,6.950744351,6.944470927,6.955366082,,,,,,,,,,,,,,,,,,,,PF,strong,7,,,,,,,,6,1.45676,,,,,,,,,,,,,,,,,,,,,,,,,,,3,strong,121,72,1,0,0,response1disk,5,136,-14,-3,1,0,0,rectangle,-14,-3,1,0,0,3,1,0,0.001085,-14,-3,1,0,0,0,135,135,101,1,,,,,,,,,,,,,,,,,,,,,
,,,,,,,,,,,,,,,,,,,,,,,,,,,,,,,,,,,,,,,,,,,5f5290ff7ef2f05699c250d6,6036d877e0ec51ef81f678e2,2021-02-24_23h51.56.976,Colour_Similarity_Experiment,2020.2.10,Win32,60,6036d0d9a84aa1626184a6ef,7.044949772,6.972570194,6.953678855,6.950744351,6.944470927,6.955366082,,,,,,,,,,,,,,,,,,,,PF,strong,7,,,,,,,,5,1.1526,,,,,,,,,,,,,,,,,,,,,,,,,,,5,strong,98,-44,1,0,0,response3disk,9,137,12,5,1,0,0,rectangle,12,5,1,0,0,3,5,0,0.001145,12,5,1,0,0,0,136,136,61,1,,,,,,,,,,,,,,,,,,,,,
,,,,,,,,,,,,,,,,,,,,,,,,,,,,,,,,,,,,,,,,,,,5f5290ff7ef2f05699c250d6,6036d877e0ec51ef81f678e2,2021-02-24_23h51.56.976,Colour_Similarity_Experiment,2020.2.10,Win32,60,6036d0d9a84aa1626184a6ef,7.044949772,6.972570194,6.953678855,6.950744351,6.944470927,6.955366082,,,,,,,,,,,,,,,,,,,,PF,strong,7,,,,,,,,7,1.02776,,,,,,,,,,,,,,,,,,,,,,,,,,,4,strong,73,119,1,0,0,response1disk,6,138,3,3,1,0,0,rectangle,3,3,1,0,0,3,2,0,0.00108,3,3,1,0,0,0,137,137,122,1,,,,,,,,,,,,,,,,,,,,,
,,,,,,,,,,,,,,,,,,,,,,,,,,,,,,,,,,,,,,,,,,,5f5290ff7ef2f05699c250d6,6036d877e0ec51ef81f678e2,2021-02-24_23h51.56.976,Colour_Similarity_Experiment,2020.2.10,Win32,60,6036d0d9a84aa1626184a6ef,7.044949772,6.972570194,6.953678855,6.950744351,6.944470927,6.955366082,,,,,,,,,,,,,,,,,,,,PF,weak,7,,,,,,,,2,1.1459,,,,,,,,,,,,,,,,,,,,,,,,,,,9,weak,-122,-56,1,0,0,response5disk,1,139,0,0,1,0,0,rectangle,0,0,1,0,0,3,7,0,0.000925,0,0,1,0,0,0,138,138,74,1,,,,,,,,,,,,,,,,,,,,,
,,,,,,,,,,,,,,,,,,,,,,,,,,,,,,,,,,,,,,,,,,,5f5290ff7ef2f05699c250d6,6036d877e0ec51ef81f678e2,2021-02-24_23h51.56.976,Colour_Similarity_Experiment,2020.2.10,Win32,60,6036d0d9a84aa1626184a6ef,7.044949772,6.972570194,6.953678855,6.950744351,6.944470927,6.955366082,,,,,,,,,,,,,,,,,,,,PF,strong,7,,,,,,,,5,1.006895,,,,,,,,,,,,,,,,,,,,,,,,,,,5,strong,117,-57,1,0,0,response3disk,1,140,2,-7,1,0,0,rectangle,2,-7,1,0,0,3,4,0,0.00086,2,-7,1,0,0,0,139,139,131,1,,,,,,,,,,,,,,,,,,,,,
,,,,,,,,,,,,,,,,,,,,,,,,,,,,,,,,,,,,,,,,,,,5f5290ff7ef2f05699c250d6,6036d877e0ec51ef81f678e2,2021-02-24_23h51.56.976,Colour_Similarity_Experiment,2020.2.10,Win32,60,6036d0d9a84aa1626184a6ef,7.044949772,6.972570194,6.953678855,6.950744351,6.944470927,6.955366082,,,,,,,,,,,,,,,,,,,,PF,weak,7,,,,,,,,2,0.97499,,,,,,,,,,,,,,,,,,,,,,,,,,,3,weak,-101,-47,1,0,0,response5disk,5,141,-1,1,1,0,0,rectangle,-1,1,1,0,0,3,3,0,0.0015,-1,1,1,0,0,0,140,140,66,1,,,,,,,,,,,,,,,,,,,,,
,,,,,,,,,,,,,,,,,,,,,,,,,,,,,,,,,,,,,,,,,,,5f5290ff7ef2f05699c250d6,6036d877e0ec51ef81f678e2,2021-02-24_23h51.56.976,Colour_Similarity_Experiment,2020.2.10,Win32,60,6036d0d9a84aa1626184a6ef,7.044949772,6.972570194,6.953678855,6.950744351,6.944470927,6.955366082,,,,,,,,,,,,,,,,,,,,PF,weak,7,,,,,,,,3,1.076205,,,,,,,,,,,,,,,,,,,,,,,,,,,2,weak,-72,-117,1,0,0,response5disk,9,142,2,-5,1,0,0,rectangle,2,-5,1,0,0,3,7,0,0.000985,2,-5,1,0,0,0,141,141,39,1,,,,,,,,,,,,,,,,,,,,,
,,,,,,,,,,,,,,,,,,,,,,,,,,,,,,,,,,,,,,,,,,,5f5290ff7ef2f05699c250d6,6036d877e0ec51ef81f678e2,2021-02-24_23h51.56.976,Colour_Similarity_Experiment,2020.2.10,Win32,60,6036d0d9a84aa1626184a6ef,7.044949772,6.972570194,6.953678855,6.950744351,6.944470927,6.955366082,,,,,,,,,,,,,,,,,,,,PF,weak,7,,,,,,,,6,0.74997,,,,,,,,,,,,,,,,,,,,,,,,,,,4,weak,111,60,1,0,0,response1disk,2,143,0,4,1,0,0,rectangle,0,4,1,0,0,3,0,0,0.001205,0,4,1,0,0,0,142,142,108,1,,,,,,,,,,,,,,,,,,,,,
,,,,,,,,,,,,,,,,,,,,,,,,,,,,,,,,,,,,,,,,,,,5f5290ff7ef2f05699c250d6,6036d877e0ec51ef81f678e2,2021-02-24_23h51.56.976,Colour_Similarity_Experiment,2020.2.10,Win32,60,6036d0d9a84aa1626184a6ef,7.044949772,6.972570194,6.953678855,6.950744351,6.944470927,6.955366082,,,,,,,,,,,,,,,,,,,,PF,weak,7,,,,,,,,2,1.18088,,,,,,,,,,,,,,,,,,,,,,,,,,,4,weak,-109,-62,1,0,0,response5disk,3,144,-11,4,1,0,0,rectangle,-11,4,1,0,0,3,2,0,0.00101,-11,4,1,0,0,0,143,143,89,1,,,,,,,,,,,,,,,,,,,,,
,,,,,,,,,,,,,,,,,,,,,,,,,,,,,,,,,,,,,,,,,,,5f5290ff7ef2f05699c250d6,6036d877e0ec51ef81f678e2,2021-02-24_23h51.56.976,Colour_Similarity_Experiment,2020.2.10,Win32,60,6036d0d9a84aa1626184a6ef,7.044949772,6.972570194,6.953678855,6.950744351,6.944470927,6.955366082,,,,,,,,,,,,,,,,,,,,PF,strong,7,,,,,,,,5,1.09719,,,,,,,,,,,,,,,,,,,,,,,,,,,3,strong,144,-63,1,0,0,response3disk,1,145,8,-1,1,0,0,rectangle,8,-1,1,0,0,3,2,0,0.000135,8,-1,1,0,0,0,144,144,125,1,,,,,,,,,,,,,,,,,,,,,
,,,,,,,,,,,,,,,,,,,,,,,,,,,,,,,,,,,,,,,,,,,5f5290ff7ef2f05699c250d6,6036d877e0ec51ef81f678e2,2021-02-24_23h51.56.976,Colour_Similarity_Experiment,2020.2.10,Win32,60,6036d0d9a84aa1626184a6ef,7.044949772,6.972570194,6.953678855,6.950744351,6.944470927,6.955366082,,,,,,,,,,,,,,,,,,,,PF,strong,7,,,,,,,,6,1.090285,,,,,,,,,,,,,,,,,,,,,,,,,,,6,strong,82,35,1,0,0,response1disk,7,146,-10,-7,1,0,0,rectangle,-10,-7,1,0,0,3,3,0,0.00142,-10,-7,1,0,0,0,145,145,18,1,,,,,,,,,,,,,,,,,,,,,
,,,,,,,,,,,,,,,,,,,,,,,,,,,,,,,,,,,,,,,,,,,5f5290ff7ef2f05699c250d6,6036d877e0ec51ef81f678e2,2021-02-24_23h51.56.976,Colour_Similarity_Experiment,2020.2.10,Win32,60,6036d0d9a84aa1626184a6ef,7.044949772,6.972570194,6.953678855,6.950744351,6.944470927,6.955366082,,,,,,,,,,,,,,,,,,,,PF,weak,7,,,,,,,,0,0.892815,,,,,,,,,,,,,,,,,,,,,,,,,,,8,weak,-68,119,1,0,0,response7disk,8,147,-7,8,1,0,0,rectangle,-7,8,1,0,0,3,2,0,0.00107,-7,8,1,0,0,0,146,146,153,1,,,,,,,,,,,,,,,,,,,,,
,,,,,,,,,,,,,,,,,,,,,,,,,,,,,,,,,,,,,,,,,,,5f5290ff7ef2f05699c250d6,6036d877e0ec51ef81f678e2,2021-02-24_23h51.56.976,Colour_Similarity_Experiment,2020.2.10,Win32,60,6036d0d9a84aa1626184a6ef,7.044949772,6.972570194,6.953678855,6.950744351,6.944470927,6.955366082,,,,,,,,,,,,,,,,,,,,PF,strong,7,,,,,,,,3,1.15046,,,,,,,,,,,,,,,,,,,,,,,,,,,8,strong,-63,-112,1,0,0,response5disk,9,148,-5,-1,1,0,0,rectangle,-5,-1,1,0,0,3,5,0,0.001165,-5,-1,1,0,0,0,147,147,105,1,,,,,,,,,,,,,,,,,,,,,
,,,,,,,,,,,,,,,,,,,,,,,,,,,,,,,,,,,,,,,,,,,5f5290ff7ef2f05699c250d6,6036d877e0ec51ef81f678e2,2021-02-24_23h51.56.976,Colour_Similarity_Experiment,2020.2.10,Win32,60,6036d0d9a84aa1626184a6ef,7.044949772,6.972570194,6.953678855,6.950744351,6.944470927,6.955366082,,,,,,,,,,,,,,,,,,,,PF,weak,7,,,,,,,,5,0.701425,,,,,,,,,,,,,,,,,,,,,,,,,,,5,weak,126,-68,1,0,0,response3disk,8,149,8,7,1,0,0,rectangle,8,7,1,0,0,3,6,0,0.001165,8,7,1,0,0,0,148,148,149,1,,,,,,,,,,,,,,,,,,,,,
,,,,,,,,,,,,,,,,,,,,,,,,,,,,,,,,,,,,,,,,,,,5f5290ff7ef2f05699c250d6,6036d877e0ec51ef81f678e2,2021-02-24_23h51.56.976,Colour_Similarity_Experiment,2020.2.10,Win32,60,6036d0d9a84aa1626184a6ef,7.044949772,6.972570194,6.953678855,6.950744351,6.944470927,6.955366082,,,,,,,,,,,,,,,,,,,,PF,weak,7,,,,,,,,6,0.666755,,,,,,,,,,,,,,,,,,,,,,,,,,,5,weak,124,70,1,0,0,response1disk,2,150,1,-5,1,0,0,rectangle,1,-5,1,0,0,3,2,0,0.001,1,-5,1,0,0,0,149,149,129,1,,,,,,,,,,,,,,,,,,,,,
,,,,,,,,,,,,,,,,,,,,,,,,,,,,,,,,,,,,,,,,,,,5f5290ff7ef2f05699c250d6,6036d877e0ec51ef81f678e2,2021-02-24_23h51.56.976,Colour_Similarity_Experiment,2020.2.10,Win32,60,6036d0d9a84aa1626184a6ef,7.044949772,6.972570194,6.953678855,6.950744351,6.944470927,6.955366082,,,,,,,,,,,,,,,,,,,,PF,strong,7,,,,,,,,7,1.187735,,,,,,,,,,,,,,,,,,,,,,,,,,,6,strong,40,124,1,0,0,response1disk,5,151,-1,4,1,0,0,rectangle,-1,4,1,0,0,3,1,0,0.001125,-1,4,1,0,0,0,150,150,126,1,,,,,,,,,,,,,,,,,,,,,
,,,,,,,,,,,,,,,,,,,,,,,,,,,,,,,,,,,,,,,,,,,5f5290ff7ef2f05699c250d6,6036d877e0ec51ef81f678e2,2021-02-24_23h51.56.976,Colour_Similarity_Experiment,2020.2.10,Win32,60,6036d0d9a84aa1626184a6ef,7.044949772,6.972570194,6.953678855,6.950744351,6.944470927,6.955366082,,,,,,,,,,,,,,,,,,,,PF,strong,7,,,,,,,,2,1.02613,,,,,,,,,,,,,,,,,,,,,,,,,,,5,strong,-90,-46,1,0,0,response5disk,7,152,7,5,1,0,0,rectangle,7,5,1,0,0,3,0,0,0.00097,7,5,1,0,0,0,151,151,7,1,,,,,,,,,,,,,,,,,,,,,
,,,,,,,,,,,,,,,,,,,,,,,,,,,,,,,,,,,,,,,,,,,5f5290ff7ef2f05699c250d6,6036d877e0ec51ef81f678e2,2021-02-24_23h51.56.976,Colour_Similarity_Experiment,2020.2.10,Win32,60,6036d0d9a84aa1626184a6ef,7.044949772,6.972570194,6.953678855,6.950744351,6.944470927,6.955366082,,,,,,,,,,,,,,,,,,,,PF,strong,7,,,,,,,,4,0.86123,,,,,,,,,,,,,,,,,,,,,,,,,,,4,strong,51,-85,1,0,0,response3disk,3,153,12,3,1,0,0,rectangle,12,3,1,0,0,3,6,0,0.00099,12,3,1,0,0,0,152,152,77,1,,,,,,,,,,,,,,,,,,,,,
,,,,,,,,,,,,,,,,,,,,,,,,,,,,,,,,,,,,,,,,,,,5f5290ff7ef2f05699c250d6,6036d877e0ec51ef81f678e2,2021-02-24_23h51.56.976,Colour_Similarity_Experiment,2020.2.10,Win32,60,6036d0d9a84aa1626184a6ef,7.044949772,6.972570194,6.953678855,6.950744351,6.944470927,6.955366082,,,,,,,,,,,,,,,,,,,,PF,strong,7,,,,,,,,5,0.770775,,,,,,,,,,,,,,,,,,,,,,,,,,,7,strong,121,-50,1,0,0,response3disk,1,154,-11,2,1,0,0,rectangle,-11,2,1,0,0,3,6,0,0.00014,-11,2,1,0,0,0,153,153,132,1,,,,,,,,,,,,,,,,,,,,,
,,,,,,,,,,,,,,,,,,,,,,,,,,,,,,,,,,,,,,,,,,,5f5290ff7ef2f05699c250d6,6036d877e0ec51ef81f678e2,2021-02-24_23h51.56.976,Colour_Similarity_Experiment,2020.2.10,Win32,60,6036d0d9a84aa1626184a6ef,7.044949772,6.972570194,6.953678855,6.950744351,6.944470927,6.955366082,,,,,,,,,,,,,,,,,,,,PF,weak,7,,,,,,,,6,0.78085,,,,,,,,,,,,,,,,,,,,,,,,,,,1,weak,119,55,1,0,0,response1disk,7,155,12,4,1,0,0,rectangle,12,4,1,0,0,3,1,0,0.0009,12,4,1,0,0,0,154,154,150,1,,,,,,,,,,,,,,,,,,,,,
,,,,,,,,,,,,,,,,,,,,,,,,,,,,,,,,,,,,,,,,,,,5f5290ff7ef2f05699c250d6,6036d877e0ec51ef81f678e2,2021-02-24_23h51.56.976,Colour_Similarity_Experiment,2020.2.10,Win32,60,6036d0d9a84aa1626184a6ef,7.044949772,6.972570194,6.953678855,6.950744351,6.944470927,6.955366082,,,,,,,,,,,,,,,,,,,,PF,strong,7,,,,,,,,7,0.965635,,,,,,,,,,,,,,,,,,,,,,,,,,,5,strong,72,130,1,0,0,response1disk,2,156,1,9,1,0,0,rectangle,-76,-114,1,0,0,3,3,1,2.18066,9,11,1,0,0,0,155,155,55,1,response5disk_3,rectangle,,,,,,,,,,,,,,,,,,,
,,,,,,,,,,,,,,,,,,,,,,,,,,,,,,,,,,,,,,,,,,,5f5290ff7ef2f05699c250d6,6036d877e0ec51ef81f678e2,2021-02-24_23h51.56.976,Colour_Similarity_Experiment,2020.2.10,Win32,60,6036d0d9a84aa1626184a6ef,7.044949772,6.972570194,6.953678855,6.950744351,6.944470927,6.955366082,,,,,,,,,,,,,,,,,,,,PF,strong,7,,,,,,,,2,2.20794,,,,,,,,,,,,,,,,,,,,,,,,,,,3,strong,-104,-62,1,0,0,response5disk,9,157,2,-6,1,0,0,rectangle,2,-6,1,0,0,3,2,0,0.000865,2,-6,1,0,0,0,156,156,143,1,,,,,,,,,,,,,,,,,,,,,
,,,,,,,,,,,,,,,,,,,,,,,,,,,,,,,,,,,,,,,,,,,5f5290ff7ef2f05699c250d6,6036d877e0ec51ef81f678e2,2021-02-24_23h51.56.976,Colour_Similarity_Experiment,2020.2.10,Win32,60,6036d0d9a84aa1626184a6ef,7.044949772,6.972570194,6.953678855,6.950744351,6.944470927,6.955366082,,,,,,,,,,,,,,,,,,,,PF,strong,7,,,,,,,,5,0.86132,,,,,,,,,,,,,,,,,,,,,,,,,,,7,strong,113,-76,1,0,0,response3disk,2,158,-2,6,1,0,0,rectangle,-2,6,1,0,0,3,5,0,0.00128,-2,6,1,0,0,0,157,157,138,1,,,,,,,,,,,,,,,,,,,,,
,,,,,,,,,,,,,,,,,,,,,,,,,,,,,,,,,,,,,,,,,,,5f5290ff7ef2f05699c250d6,6036d877e0ec51ef81f678e2,2021-02-24_23h51.56.976,Colour_Similarity_Experiment,2020.2.10,Win32,60,6036d0d9a84aa1626184a6ef,7.044949772,6.972570194,6.953678855,6.950744351,6.944470927,6.955366082,,,,,,,,,,,,,,,,,,,,PF,weak,7,,,,,,,,7,1.000305,,,,,,,,,,,,,,,,,,,,,,,,,,,3,weak,72,118,1,0,0,response1disk,1,159,1,4,1,0,0,rectangle,1,4,1,0,0,3,7,0,0.000865,1,4,1,0,0,0,158,158,96,1,,,,,,,,,,,,,,,,,,,,,
,,,,,,,,,,,,,,,,,,,,,,,,,,,,,,,,,,,,,,,,,,,5f5290ff7ef2f05699c250d6,6036d877e0ec51ef81f678e2,2021-02-24_23h51.56.976,Colour_Similarity_Experiment,2020.2.10,Win32,60,6036d0d9a84aa1626184a6ef,7.044949772,6.972570194,6.953678855,6.950744351,6.944470927,6.955366082,,,,,,,,,,,,,,,,,,,,PF,weak,7,,,,,,,,4,1.3053,,,,,,,,,,,,,,,,,,,,,,,,,,,6,weak,52,-97,1,0,0,response3disk,5,160,-5,4,1,0,0,rectangle,-5,4,1,0,0,3,7,0,0.000135,-5,4,1,0,0,0,159,159,59,1,,,,,,,,,,,,,,,,,,,,,
,,,,,,,,,,,,,,,,,,,,,,,,,,,,,,,,,,,,,,,,,,,5f5290ff7ef2f05699c250d6,6036d877e0ec51ef81f678e2,2021-02-24_23h51.56.976,Colour_Similarity_Experiment,2020.2.10,Win32,60,6036d0d9a84aa1626184a6ef,7.044949772,6.972570194,6.953678855,6.950744351,6.944470927,6.955366082,,,,,,,,,,,,,,,,,,,,PF,weak,7,,,,,,,,6,1.15277,,,,,,,,,,,,,,,,,,,,,,,,,,,7,weak,140,65,1,0,0,response1disk,2,161,5,0,1,0,0,rectangle,5,0,1,0,0,3,1,0,0.00094,5,0,1,0,0,0,160,160,32,1,,,,,,,,,,,,,,,,,,,,,
,,,,,,,,,,,,,,,,,,,,,,,,,,,,,,,,,,,,,,,,,,,5f5290ff7ef2f05699c250d6,6036d877e0ec51ef81f678e2,2021-02-24_23h51.56.976,Colour_Similarity_Experiment,2020.2.10,Win32,60,6036d0d9a84aa1626184a6ef,7.044949772,6.972570194,6.953678855,6.950744351,6.944470927,6.955366082,,,,,,,,,,,,,,,,,,,,PF,weak,7,,,,,,,,7,1.07384,,,,,,,,,,,,,,,,,,,,,,,,,,,8,weak,72,131,1,0,0,response1disk,5,162,-5,-1,1,0,0,rectangle,-5,-1,1,0,0,3,5,0,0.000885,-5,-1,1,0,0,0,161,161,98,1,,,,,,,,,,,,,,,,,,,,,
,,,,,,,,,,,,,,,,,,,,,,,,,,,,,,,,,,,,,,,,,,,5f5290ff7ef2f05699c250d6,6036d877e0ec51ef81f678e2,2021-02-24_23h51.56.976,Colour_Similarity_Experiment,2020.2.10,Win32,60,6036d0d9a84aa1626184a6ef,7.044949772,6.972570194,6.953678855,6.950744351,6.944470927,6.955366082,,,,,,,,,,,,,,,,,,,,,,,,,,,,,,,,,,,,,,,,,,,,,,,,,,,,,,,,,,,,,,,,,,,,,,,,,,,,,,,,,,,,,,,,,,,,,,,0,0,0,0,1,,,,,,,,,,,,,,
,,,,,,,,,,,,,,,,,,,,,,,,,,,,,,,,,,,,,,,,,,,5f5290ff7ef2f05699c250d6,6036d877e0ec51ef81f678e2,2021-02-24_23h51.56.976,Colour_Similarity_Experiment,2020.2.10,Win32,60,6036d0d9a84aa1626184a6ef,7.044949772,6.972570194,6.953678855,6.950744351,6.944470927,6.955366082,,,,,,,,,,,,,,,,,,,,PF,weak,7,,,,,,,,2,1.16662,,,,,,,,,,,,,,,,,,,,,,,,,,,2,weak,-94,-41,1,0,0,response5disk,2,163,-6,0,1,0,0,rectangle,-6,0,1,0,0,3,2,0,0.00103,-6,0,1,0,0,0,0,0,14,1,,,,,,,,,,,,,,,,,,,,,
,,,,,,,,,,,,,,,,,,,,,,,,,,,,,,,,,,,,,,,,,,,5f5290ff7ef2f05699c250d6,6036d877e0ec51ef81f678e2,2021-02-24_23h51.56.976,Colour_Similarity_Experiment,2020.2.10,Win32,60,6036d0d9a84aa1626184a6ef,7.044949772,6.972570194,6.953678855,6.950744351,6.944470927,6.955366082,,,,,,,,,,,,,,,,,,,,PF,weak,7,,,,,,,,0,0.757125,,,,,,,,,,,,,,,,,,,,,,,,,,,1,weak,-56,112,1,0,0,response7disk,1,164,3,3,1,0,0,rectangle,60,121,1,0,0,7,7,1,2.04169,0,-1,1,0,0,0,1,1,76,1,response1disk_3,rectangle,,,,,,,,,,,,,,,,,,,
,,,,,,,,,,,,,,,,,,,,,,,,,,,,,,,,,,,,,,,,,,,5f5290ff7ef2f05699c250d6,6036d877e0ec51ef81f678e2,2021-02-24_23h51.56.976,Colour_Similarity_Experiment,2020.2.10,Win32,60,6036d0d9a84aa1626184a6ef,7.044949772,6.972570194,6.953678855,6.950744351,6.944470927,6.955366082,,,,,,,,,,,,,,,,,,,,PF,weak,7,,,,,,,,6,1.07046,,,,,,,,,,,,,,,,,,,,,,,,,,,4,weak,115,59,1,0,0,response1disk,7,165,0,8,1,0,0,rectangle,0,8,1,0,0,7,5,0,0.001225,0,8,1,0,0,0,2,2,38,1,,,,,,,,,,,,,,,,,,,,,
,,,,,,,,,,,,,,,,,,,,,,,,,,,,,,,,,,,,,,,,,,,5f5290ff7ef2f05699c250d6,6036d877e0ec51ef81f678e2,2021-02-24_23h51.56.976,Colour_Similarity_Experiment,2020.2.10,Win32,60,6036d0d9a84aa1626184a6ef,7.044949772,6.972570194,6.953678855,6.950744351,6.944470927,6.955366082,,,,,,,,,,,,,,,,,,,,PF,strong,7,,,,,,,,5,2.17262,,,,,,,,,,,,,,,,,,,,,,,,,,,6,strong,101,-63,1,0,0,response3disk,8,166,-23,11,1,0,0,rectangle,-23,11,1,0,0,7,0,0,0.00127,-23,11,1,0,0,0,3,3,133,1,,,,,,,,,,,,,,,,,,,,,
,,,,,,,,,,,,,,,,,,,,,,,,,,,,,,,,,,,,,,,,,,,5f5290ff7ef2f05699c250d6,6036d877e0ec51ef81f678e2,2021-02-24_23h51.56.976,Colour_Similarity_Experiment,2020.2.10,Win32,60,6036d0d9a84aa1626184a6ef,7.044949772,6.972570194,6.953678855,6.950744351,6.944470927,6.955366082,,,,,,,,,,,,,,,,,,,,PF,strong,7,,,,,,,,3,1.06988,,,,,,,,,,,,,,,,,,,,,,,,,,,1,strong,-38,-84,1,0,0,response5disk,8,167,14,-4,1,0,0,rectangle,14,-4,1,0,0,7,2,0,0.00084,14,-4,1,0,0,0,4,4,27,1,,,,,,,,,,,,,,,,,,,,,
,,,,,,,,,,,,,,,,,,,,,,,,,,,,,,,,,,,,,,,,,,,5f5290ff7ef2f05699c250d6,6036d877e0ec51ef81f678e2,2021-02-24_23h51.56.976,Colour_Similarity_Experiment,2020.2.10,Win32,60,6036d0d9a84aa1626184a6ef,7.044949772,6.972570194,6.953678855,6.950744351,6.944470927,6.955366082,,,,,,,,,,,,,,,,,,,,PF,strong,7,,,,,,,,2,1.361325,,,,,,,,,,,,,,,,,,,,,,,,,,,1,strong,-144,-43,1,0,0,response5disk,2,168,-13,-4,1,0,0,rectangle,-13,-4,1,0,0,7,3,0,0.000875,-13,-4,1,0,0,0,5,5,2,1,,,,,,,,,,,,,,,,,,,,,
,,,,,,,,,,,,,,,,,,,,,,,,,,,,,,,,,,,,,,,,,,,5f5290ff7ef2f05699c250d6,6036d877e0ec51ef81f678e2,2021-02-24_23h51.56.976,Colour_Similarity_Experiment,2020.2.10,Win32,60,6036d0d9a84aa1626184a6ef,7.044949772,6.972570194,6.953678855,6.950744351,6.944470927,6.955366082,,,,,,,,,,,,,,,,,,,,PF,strong,7,,,,,,,,2,0.98633,,,,,,,,,,,,,,,,,,,,,,,,,,,2,strong,-78,-34,1,0,0,response5disk,2,169,-3,6,1,0,0,rectangle,-3,6,1,0,0,7,0,0,0.001265,-3,6,1,0,0,0,6,6,142,1,,,,,,,,,,,,,,,,,,,,,
,,,,,,,,,,,,,,,,,,,,,,,,,,,,,,,,,,,,,,,,,,,5f5290ff7ef2f05699c250d6,6036d877e0ec51ef81f678e2,2021-02-24_23h51.56.976,Colour_Similarity_Experiment,2020.2.10,Win32,60,6036d0d9a84aa1626184a6ef,7.044949772,6.972570194,6.953678855,6.950744351,6.944470927,6.955366082,,,,,,,,,,,,,,,,,,,,PF,strong,7,,,,,,,,5,0.861245,,,,,,,,,,,,,,,,,,,,,,,,,,,8,strong,142,-64,1,0,0,response3disk,6,170,-1,2,1,0,0,rectangle,-1,2,1,0,0,7,6,0,0.00102,-1,2,1,0,0,0,7,7,37,1,,,,,,,,,,,,,,,,,,,,,
,,,,,,,,,,,,,,,,,,,,,,,,,,,,,,,,,,,,,,,,,,,5f5290ff7ef2f05699c250d6,6036d877e0ec51ef81f678e2,2021-02-24_23h51.56.976,Colour_Similarity_Experiment,2020.2.10,Win32,60,6036d0d9a84aa1626184a6ef,7.044949772,6.972570194,6.953678855,6.950744351,6.944470927,6.955366082,,,,,,,,,,,,,,,,,,,,PF,weak,7,,,,,,,,0,0.819235,,,,,,,,,,,,,,,,,,,,,,,,,,,7,weak,-72,117,1,0,0,response7disk,7,171,-4,2,1,0,0,rectangle,-4,2,1,0,0,7,0,0,0.00133,-4,2,1,0,0,0,8,8,51,1,,,,,,,,,,,,,,,,,,,,,
,,,,,,,,,,,,,,,,,,,,,,,,,,,,,,,,,,,,,,,,,,,5f5290ff7ef2f05699c250d6,6036d877e0ec51ef81f678e2,2021-02-24_23h51.56.976,Colour_Similarity_Experiment,2020.2.10,Win32,60,6036d0d9a84aa1626184a6ef,7.044949772,6.972570194,6.953678855,6.950744351,6.944470927,6.955366082,,,,,,,,,,,,,,,,,,,,PF,weak,7,,,,,,,,6,1.44425,,,,,,,,,,,,,,,,,,,,,,,,,,,1,weak,99,58,1,0,0,response1disk,6,172,-9,-15,1,0,0,rectangle,-9,-15,1,0,0,7,4,0,0.000875,-9,-15,1,0,0,0,9,9,144,1,,,,,,,,,,,,,,,,,,,,,
,,,,,,,,,,,,,,,,,,,,,,,,,,,,,,,,,,,,,,,,,,,5f5290ff7ef2f05699c250d6,6036d877e0ec51ef81f678e2,2021-02-24_23h51.56.976,Colour_Similarity_Experiment,2020.2.10,Win32,60,6036d0d9a84aa1626184a6ef,7.044949772,6.972570194,6.953678855,6.950744351,6.944470927,6.955366082,,,,,,,,,,,,,,,,,,,,PF,strong,7,,,,,,,,7,2.26409,,,,,,,,,,,,,,,,,,,,,,,,,,,9,strong,44,80,1,0,0,response1disk,7,173,-7,-7,1,0,0,rectangle,-7,-7,1,0,0,7,4,0,0.000145,-7,-7,1,0,0,0,10,10,100,1,,,,,,,,,,,,,,,,,,,,,
,,,,,,,,,,,,,,,,,,,,,,,,,,,,,,,,,,,,,,,,,,,5f5290ff7ef2f05699c250d6,6036d877e0ec51ef81f678e2,2021-02-24_23h51.56.976,Colour_Similarity_Experiment,2020.2.10,Win32,60,6036d0d9a84aa1626184a6ef,7.044949772,6.972570194,6.953678855,6.950744351,6.944470927,6.955366082,,,,,,,,,,,,,,,,,,,,PF,weak,7,,,,,,,,3,1.05562,,,,,,,,,,,,,,,,,,,,,,,,,,,7,weak,-46,-98,1,0,0,response5disk,5,174,0,-9,1,0,0,rectangle,0,-9,1,0,0,7,4,0,0.00015,0,-9,1,0,0,0,11,11,92,1,,,,,,,,,,,,,,,,,,,,,
,,,,,,,,,,,,,,,,,,,,,,,,,,,,,,,,,,,,,,,,,,,5f5290ff7ef2f05699c250d6,6036d877e0ec51ef81f678e2,2021-02-24_23h51.56.976,Colour_Similarity_Experiment,2020.2.10,Win32,60,6036d0d9a84aa1626184a6ef,7.044949772,6.972570194,6.953678855,6.950744351,6.944470927,6.955366082,,,,,,,,,,,,,,,,,,,,PF,strong,7,,,,,,,,2,0.99981,,,,,,,,,,,,,,,,,,,,,,,,,,,6,strong,-114,-49,1,0,0,response5disk,6,175,-1,-8,1,0,0,rectangle,-1,-8,1,0,0,7,2,0,0.00085,-1,-8,1,0,0,0,12,12,91,1,,,,,,,,,,,,,,,,,,,,,
,,,,,,,,,,,,,,,,,,,,,,,,,,,,,,,,,,,,,,,,,,,5f5290ff7ef2f05699c250d6,6036d877e0ec51ef81f678e2,2021-02-24_23h51.56.976,Colour_Similarity_Experiment,2020.2.10,Win32,60,6036d0d9a84aa1626184a6ef,7.044949772,6.972570194,6.953678855,6.950744351,6.944470927,6.955366082,,,,,,,,,,,,,,,,,,,,PF,weak,7,,,,,,,,5,1.12465,,,,,,,,,,,,,,,,,,,,,,,,,,,6,weak,117,-66,1,0,0,response3disk,8,176,12,-5,1,0,0,rectangle,12,-5,1,0,0,7,7,0,0.00105,12,-5,1,0,0,0,13,13,64,1,,,,,,,,,,,,,,,,,,,,,
,,,,,,,,,,,,,,,,,,,,,,,,,,,,,,,,,,,,,,,,,,,5f5290ff7ef2f05699c250d6,6036d877e0ec51ef81f678e2,2021-02-24_23h51.56.976,Colour_Similarity_Experiment,2020.2.10,Win32,60,6036d0d9a84aa1626184a6ef,7.044949772,6.972570194,6.953678855,6.950744351,6.944470927,6.955366082,,,,,,,,,,,,,,,,,,,,PF,weak,7,,,,,,,,7,1.06977,,,,,,,,,,,,,,,,,,,,,,,,,,,1,weak,65,109,1,0,0,response1disk,8,177,-6,9,1,0,0,rectangle,-6,9,1,0,0,7,4,0,0.001415,-6,9,1,0,0,0,14,14,65,1,,,,,,,,,,,,,,,,,,,,,
,,,,,,,,,,,,,,,,,,,,,,,,,,,,,,,,,,,,,,,,,,,5f5290ff7ef2f05699c250d6,6036d877e0ec51ef81f678e2,2021-02-24_23h51.56.976,Colour_Similarity_Experiment,2020.2.10,Win32,60,6036d0d9a84aa1626184a6ef,7.044949772,6.972570194,6.953678855,6.950744351,6.944470927,6.955366082,,,,,,,,,,,,,,,,,,,,PF,strong,7,,,,,,,,6,0.88889,,,,,,,,,,,,,,,,,,,,,,,,,,,6,strong,122,60,1,0,0,response1disk,3,178,17,-3,1,0,0,rectangle,17,-3,1,0,0,7,3,0,0.00094,17,-3,1,0,0,0,15,15,21,1,,,,,,,,,,,,,,,,,,,,,
,,,,,,,,,,,,,,,,,,,,,,,,,,,,,,,,,,,,,,,,,,,5f5290ff7ef2f05699c250d6,6036d877e0ec51ef81f678e2,2021-02-24_23h51.56.976,Colour_Similarity_Experiment,2020.2.10,Win32,60,6036d0d9a84aa1626184a6ef,7.044949772,6.972570194,6.953678855,6.950744351,6.944470927,6.955366082,,,,,,,,,,,,,,,,,,,,PF,strong,7,,,,,,,,6,0.77091,,,,,,,,,,,,,,,,,,,,,,,,,,,7,strong,101,57,1,0,0,response1disk,4,179,-10,-4,1,0,0,rectangle,-10,-4,1,0,0,7,6,0,0.001075,-10,-4,1,0,0,0,16,16,158,1,,,,,,,,,,,,,,,,,,,,,
,,,,,,,,,,,,,,,,,,,,,,,,,,,,,,,,,,,,,,,,,,,5f5290ff7ef2f05699c250d6,6036d877e0ec51ef81f678e2,2021-02-24_23h51.56.976,Colour_Similarity_Experiment,2020.2.10,Win32,60,6036d0d9a84aa1626184a6ef,7.044949772,6.972570194,6.953678855,6.950744351,6.944470927,6.955366082,,,,,,,,,,,,,,,,,,,,PF,strong,7,,,,,,,,6,0.944755,,,,,,,,,,,,,,,,,,,,,,,,,,,5,strong,93,73,1,0,0,response1disk,5,180,-28,-9,1,0,0,rectangle,-28,-9,1,0,0,7,6,0,0.000135,-28,-9,1,0,0,0,17,17,19,1,,,,,,,,,,,,,,,,,,,,,
,,,,,,,,,,,,,,,,,,,,,,,,,,,,,,,,,,,,,,,,,,,5f5290ff7ef2f05699c250d6,6036d877e0ec51ef81f678e2,2021-02-24_23h51.56.976,Colour_Similarity_Experiment,2020.2.10,Win32,60,6036d0d9a84aa1626184a6ef,7.044949772,6.972570194,6.953678855,6.950744351,6.944470927,6.955366082,,,,,,,,,,,,,,,,,,,,PF,strong,7,,,,,,,,5,0.854025,,,,,,,,,,,,,,,,,,,,,,,,,,,8,strong,91,-52,1,0,0,response3disk,3,181,4,0,1,0,0,rectangle,4,0,1,0,0,7,7,0,0.001235,4,0,1,0,0,0,18,18,154,1,,,,,,,,,,,,,,,,,,,,,
,,,,,,,,,,,,,,,,,,,,,,,,,,,,,,,,,,,,,,,,,,,5f5290ff7ef2f05699c250d6,6036d877e0ec51ef81f678e2,2021-02-24_23h51.56.976,Colour_Similarity_Experiment,2020.2.10,Win32,60,6036d0d9a84aa1626184a6ef,7.044949772,6.972570194,6.953678855,6.950744351,6.944470927,6.955366082,,,,,,,,,,,,,,,,,,,,PF,strong,7,,,,,,,,6,0.95843,,,,,,,,,,,,,,,,,,,,,,,,,,,4,strong,127,67,1,0,0,response1disk,2,182,4,-2,1,0,0,rectangle,4,-2,1,0,0,7,6,0,0.00133,4,-2,1,0,0,0,19,19,13,1,,,,,,,,,,,,,,,,,,,,,
,,,,,,,,,,,,,,,,,,,,,,,,,,,,,,,,,,,,,,,,,,,5f5290ff7ef2f05699c250d6,6036d877e0ec51ef81f678e2,2021-02-24_23h51.56.976,Colour_Similarity_Experiment,2020.2.10,Win32,60,6036d0d9a84aa1626184a6ef,7.044949772,6.972570194,6.953678855,6.950744351,6.944470927,6.955366082,,,,,,,,,,,,,,,,,,,,PF,weak,7,,,,,,,,2,0.972045,,,,,,,,,,,,,,,,,,,,,,,,,,,9,weak,-99,-50,1,0,0,response5disk,8,183,13,4,1,0,0,rectangle,13,4,1,0,0,7,6,0,0.000165,13,4,1,0,0,0,20,20,67,1,,,,,,,,,,,,,,,,,,,,,
,,,,,,,,,,,,,,,,,,,,,,,,,,,,,,,,,,,,,,,,,,,5f5290ff7ef2f05699c250d6,6036d877e0ec51ef81f678e2,2021-02-24_23h51.56.976,Colour_Similarity_Experiment,2020.2.10,Win32,60,6036d0d9a84aa1626184a6ef,7.044949772,6.972570194,6.953678855,6.950744351,6.944470927,6.955366082,,,,,,,,,,,,,,,,,,,,PF,strong,7,,,,,,,,3,0.965445,,,,,,,,,,,,,,,,,,,,,,,,,,,1,strong,-70,-94,1,0,0,response5disk,3,184,-13,8,1,0,0,rectangle,-13,8,1,0,0,7,1,0,0.00115,-13,8,1,0,0,0,21,21,99,1,,,,,,,,,,,,,,,,,,,,,
,,,,,,,,,,,,,,,,,,,,,,,,,,,,,,,,,,,,,,,,,,,5f5290ff7ef2f05699c250d6,6036d877e0ec51ef81f678e2,2021-02-24_23h51.56.976,Colour_Similarity_Experiment,2020.2.10,Win32,60,6036d0d9a84aa1626184a6ef,7.044949772,6.972570194,6.953678855,6.950744351,6.944470927,6.955366082,,,,,,,,,,,,,,,,,,,,PF,strong,7,,,,,,,,2,1.51402,,,,,,,,,,,,,,,,,,,,,,,,,,,9,strong,-109,-56,1,0,0,response5disk,2,185,-3,-12,1,0,0,rectangle,-118,35,1,0,0,1,1,1,1.5765,9,4,1,0,0,0,22,22,11,1,response7disk_3,rectangle,,,,,,,,,,,,,,,,,,,
,,,,,,,,,,,,,,,,,,,,,,,,,,,,,,,,,,,,,,,,,,,5f5290ff7ef2f05699c250d6,6036d877e0ec51ef81f678e2,2021-02-24_23h51.56.976,Colour_Similarity_Experiment,2020.2.10,Win32,60,6036d0d9a84aa1626184a6ef,7.044949772,6.972570194,6.953678855,6.950744351,6.944470927,6.955366082,,,,,,,,,,,,,,,,,,,,PF,strong,7,,,,,,,,6,1.151045,,,,,,,,,,,,,,,,,,,,,,,,,,,5,strong,129,63,1,0,0,response1disk,8,186,9,8,1,0,0,rectangle,9,8,1,0,0,1,5,0,0.001535,9,8,1,0,0,0,23,23,16,1,,,,,,,,,,,,,,,,,,,,,
,,,,,,,,,,,,,,,,,,,,,,,,,,,,,,,,,,,,,,,,,,,5f5290ff7ef2f05699c250d6,6036d877e0ec51ef81f678e2,2021-02-24_23h51.56.976,Colour_Similarity_Experiment,2020.2.10,Win32,60,6036d0d9a84aa1626184a6ef,7.044949772,6.972570194,6.953678855,6.950744351,6.944470927,6.955366082,,,,,,,,,,,,,,,,,,,,PF,weak,7,,,,,,,,0,0.72942,,,,,,,,,,,,,,,,,,,,,,,,,,,9,weak,-55,117,1,0,0,response7disk,9,187,-11,8,1,0,0,rectangle,-11,8,1,0,0,1,3,0,0.00086,-11,8,1,0,0,0,24,24,106,1,,,,,,,,,,,,,,,,,,,,,
,,,,,,,,,,,,,,,,,,,,,,,,,,,,,,,,,,,,,,,,,,,5f5290ff7ef2f05699c250d6,6036d877e0ec51ef81f678e2,2021-02-24_23h51.56.976,Colour_Similarity_Experiment,2020.2.10,Win32,60,6036d0d9a84aa1626184a6ef,7.044949772,6.972570194,6.953678855,6.950744351,6.944470927,6.955366082,,,,,,,,,,,,,,,,,,,,PF,weak,7,,,,,,,,7,1.534795,,,,,,,,,,,,,,,,,,,,,,,,,,,3,weak,78,131,1,0,0,response1disk,7,188,1,9,1,0,0,rectangle,1,9,1,0,0,1,5,0,0.00199,1,9,1,0,0,0,25,25,41,1,,,,,,,,,,,,,,,,,,,,,
,,,,,,,,,,,,,,,,,,,,,,,,,,,,,,,,,,,,,,,,,,,5f5290ff7ef2f05699c250d6,6036d877e0ec51ef81f678e2,2021-02-24_23h51.56.976,Colour_Similarity_Experiment,2020.2.10,Win32,60,6036d0d9a84aa1626184a6ef,7.044949772,6.972570194,6.953678855,6.950744351,6.944470927,6.955366082,,,,,,,,,,,,,,,,,,,,PF,weak,7,,,,,,,,2,0.916875,,,,,,,,,,,,,,,,,,,,,,,,,,,5,weak,-100,-57,1,0,0,response5disk,3,189,15,6,1,0,0,rectangle,15,6,1,0,0,1,0,0,0.000945,15,6,1,0,0,0,26,26,109,1,,,,,,,,,,,,,,,,,,,,,
,,,,,,,,,,,,,,,,,,,,,,,,,,,,,,,,,,,,,,,,,,,5f5290ff7ef2f05699c250d6,6036d877e0ec51ef81f678e2,2021-02-24_23h51.56.976,Colour_Similarity_Experiment,2020.2.10,Win32,60,6036d0d9a84aa1626184a6ef,7.044949772,6.972570194,6.953678855,6.950744351,6.944470927,6.955366082,,,,,,,,,,,,,,,,,,,,PF,weak,7,,,,,,,,7,1.159835,,,,,,,,,,,,,,,,,,,,,,,,,,,9,weak,59,104,1,0,0,response1disk,7,190,9,-14,1,0,0,rectangle,9,-14,1,0,0,1,5,0,0.001265,9,-14,1,0,0,0,27,27,121,1,,,,,,,,,,,,,,,,,,,,,
,,,,,,,,,,,,,,,,,,,,,,,,,,,,,,,,,,,,,,,,,,,5f5290ff7ef2f05699c250d6,6036d877e0ec51ef81f678e2,2021-02-24_23h51.56.976,Colour_Similarity_Experiment,2020.2.10,Win32,60,6036d0d9a84aa1626184a6ef,7.044949772,6.972570194,6.953678855,6.950744351,6.944470927,6.955366082,,,,,,,,,,,,,,,,,,,,PF,strong,7,,,,,,,,0,0.965325,,,,,,,,,,,,,,,,,,,,,,,,,,,3,strong,-59,80,1,0,0,response7disk,3,191,7,-18,1,0,0,rectangle,7,-18,1,0,0,1,6,0,0.002205,7,-18,1,0,0,0,28,28,68,1,,,,,,,,,,,,,,,,,,,,,
,,,,,,,,,,,,,,,,,,,,,,,,,,,,,,,,,,,,,,,,,,,5f5290ff7ef2f05699c250d6,6036d877e0ec51ef81f678e2,2021-02-24_23h51.56.976,Colour_Similarity_Experiment,2020.2.10,Win32,60,6036d0d9a84aa1626184a6ef,7.044949772,6.972570194,6.953678855,6.950744351,6.944470927,6.955366082,,,,,,,,,,,,,,,,,,,,PF,strong,7,,,,,,,,5,0.87953,,,,,,,,,,,,,,,,,,,,,,,,,,,8,strong,146,-70,1,0,0,response3disk,1,192,2,-16,1,0,0,rectangle,2,-16,1,0,0,1,2,0,0.001075,2,-16,1,0,0,0,29,29,20,1,,,,,,,,,,,,,,,,,,,,,
,,,,,,,,,,,,,,,,,,,,,,,,,,,,,,,,,,,,,,,,,,,5f5290ff7ef2f05699c250d6,6036d877e0ec51ef81f678e2,2021-02-24_23h51.56.976,Colour_Similarity_Experiment,2020.2.10,Win32,60,6036d0d9a84aa1626184a6ef,7.044949772,6.972570194,6.953678855,6.950744351,6.944470927,6.955366082,,,,,,,,,,,,,,,,,,,,PF,weak,7,,,,,,,,6,0.761045,,,,,,,,,,,,,,,,,,,,,,,,,,,3,weak,96,64,1,0,0,response1disk,8,193,-1,3,1,0,0,rectangle,-1,3,1,0,0,1,5,0,0.000905,-1,3,1,0,0,0,30,30,3,1,,,,,,,,,,,,,,,,,,,,,
,,,,,,,,,,,,,,,,,,,,,,,,,,,,,,,,,,,,,,,,,,,5f5290ff7ef2f05699c250d6,6036d877e0ec51ef81f678e2,2021-02-24_23h51.56.976,Colour_Similarity_Experiment,2020.2.10,Win32,60,6036d0d9a84aa1626184a6ef,7.044949772,6.972570194,6.953678855,6.950744351,6.944470927,6.955366082,,,,,,,,,,,,,,,,,,,,PF,weak,7,,,,,,,,6,0.631595,,,,,,,,,,,,,,,,,,,,,,,,,,,5,weak,105,66,1,0,0,response1disk,1,194,-9,4,1,0,0,rectangle,93,-38,1,0,0,5,5,1,1.430845,17,6,1,0,0,0,31,31,159,1,response3disk_3,rectangle,,,,,,,,,,,,,,,,,,,
