key_resp.keys,key_resp.rt,key_resp_16.keys,key_resp_16.rt,key_resp_2.keys,key_resp_2.rt,X Scale,ratio_pxpermm,screen_size_x,screen_size_y,testsize,key_resp_3.keys,key_resp_4.keys,key_resp_4.rt,line_size,key_resp_5.keys,key_resp_5.rt,key_resp_6.keys,key_resp_6.rt,key_resp_8.keys,key_resp_8.rt,key_resp_7.keys,key_resp_7.rt,key_resp_12.keys,key_resp_12.rt,key_resp_11.keys,key_resp_11.rt,key_resp_18.keys,key_resp_18.rt,key_resp_21.keys,key_resp_21.rt,key_resp_13.keys,key_resp_13.rt,key_resp_19.keys,key_resp_19.rt,ballposx,viewer_distance,trials.thisRepN,trials.thisTrialN,trials.thisN,trials.thisIndex,trials.ran,participant,session,date,expName,psychopyVersion,OS,frameRate,study_id,realFrameRate1,realFrameRate2,realFrameRate3,realFrameRate4,realFrameRate5,realFrameRate,viewerdistancecm,DVA_to_distance,radius_F,radius_P,r_F,R_P,key_resp_20.keys,key_resp_20.rt,key_resp_14.keys,key_resp_14.rt,key_resp_15.keys,key_resp_15.rt,key_resp_17.keys,key_resp_17.rt,key_resp_9.keys,key_resp_9.rt,key_resp_10.keys,key_resp_10.rt,Colour_1,Ecc,maskCon,mask_frames,mouse_5.x,mouse_5.y,mouse_5.leftButton,mouse_5.midButton,mouse_5.rightButton,mouse_5.clicked_name,Colour_2,similarity,response_time,mouse_10.x,mouse_10.y,mouse_10.leftButton,mouse_10.midButton,mouse_10.rightButton,mouse_10.clicked_name,mouse_7.x,mouse_7.y,mouse_7.leftButton,mouse_7.midButton,mouse_7.rightButton,catchnumberprac,mouse_6.x,mouse_6.y,mouse_6.leftButton,mouse_6.midButton,mouse_6.rightButton,duringprac.thisRepN,duringprac.thisTrialN,duringprac.thisN,duringprac.thisIndex,duringprac.ran,mouse_7.clicked_name,catchprac,mouse_6.clicked_name,key_resp_22.keys,key_resp_22.rt,Colour1,maskCon1,mouse.x,mouse.y,mouse.leftButton,mouse.midButton,mouse.rightButton,mouse.clicked_name,Colour2,trialnumber,mouse_2.x,mouse_2.y,mouse_2.leftButton,mouse_2.midButton,mouse_2.rightButton,mouse_2.clicked_name,mouse_3.x,mouse_3.y,mouse_3.leftButton,mouse_3.midButton,mouse_3.rightButton,catchresponse,catchnumber,Catch,response_time_catch,mouse_11.x,mouse_11.y,mouse_11.leftButton,mouse_11.midButton,mouse_11.rightButton,trials_2.thisRepN,trials_2.thisTrialN,trials_2.thisN,trials_2.thisIndex,trials_2.ran,mouse_3.clicked_name,mouse_11.clicked_name,trials_3.thisRepN,trials_3.thisTrialN,trials_3.thisN,trials_3.thisIndex,trials_3.ran,answer1,rt1,answer2,rt2,answer3,rt3,answer4,rt4,answer5,rt5,answer6,rt6,answer7,rt7
space,6.10912,space,39.24861,space,13.093345,44.4,4.44,307.6576577,172.972973,1366,,space,16.30212,88.8,space,17.122875,space,9.65815,space,5.16298,space,5.866395,space,8.48839,space,9.30398,space,3.618015,space,16.433985,space,38.717465,return,4.542015,-49.176,558.728265,0,0,0,0,1,5f6bf519a0ac5f171d604e74,6036d866a668505c4ea4e70b,2021-02-24_22h51.56.207,Colour_Similarity_Experiment,2020.2.10,Win32,60,6036d0d9a84aa1626184a6ef,17.19034884,16.69327103,16.66666483,16.66744388,16.66563589,16.67325391,,,,,,,,,,,,,,,,,,,,,,,,,,,,,,,,,,,,,,,,,,,,,,,,,,,,,,,,,,,,,,,,,,,,,,,,,,,,,,,,,,,,,,,,,,,,,,,,,,,,,,,,,,,,,,,,,,
,,,,,,,,,,,,,,,,,,,,,,,,,,,,,,,,,return,4.2382,-10.245,522.2058899,1,0,1,0,1,5f6bf519a0ac5f171d604e74,6036d866a668505c4ea4e70b,2021-02-24_22h51.56.207,Colour_Similarity_Experiment,2020.2.10,Win32,60,6036d0d9a84aa1626184a6ef,17.19034884,16.69327103,16.66666483,16.66744388,16.66563589,16.67325391,,,,,,,,,,,,,,,,,,,,,,,,,,,,,,,,,,,,,,,,,,,,,,,,,,,,,,,,,,,,,,,,,,,,,,,,,,,,,,,,,,,,,,,,,,,,,,,,,,,,,,,,,,,,,,,,,,
,,,,,,,,,,,,,,,,,,,,,,,,,,,,,,,,,return,3.867995,34.833,479.916824,2,0,2,0,1,5f6bf519a0ac5f171d604e74,6036d866a668505c4ea4e70b,2021-02-24_22h51.56.207,Colour_Similarity_Experiment,2020.2.10,Win32,60,6036d0d9a84aa1626184a6ef,17.19034884,16.69327103,16.66666483,16.66744388,16.66563589,16.67325391,,,,,,,,,,,,,,,,,,,,,,,,,,,,,,,,,,,,,,,,,,,,,,,,,,,,,,,,,,,,,,,,,,,,,,,,,,,,,,,,,,,,,,,,,,,,,,,,,,,,,,,,,,,,,,,,,,
,,,,,,,,,,,,,,,,,,,,,,,,,,,,,,,,,return,4.175465,-2.049,514.5169688,3,0,3,0,1,5f6bf519a0ac5f171d604e74,6036d866a668505c4ea4e70b,2021-02-24_22h51.56.207,Colour_Similarity_Experiment,2020.2.10,Win32,60,6036d0d9a84aa1626184a6ef,17.19034884,16.69327103,16.66666483,16.66744388,16.66563589,16.67325391,,,,,,,,,,,,,,,,,,,,,,,,,,,,,,,,,,,,,,,,,,,,,,,,,,,,,,,,,,,,,,,,,,,,,,,,,,,,,,,,,,,,,,,,,,,,,,,,,,,,,,,,,,,,,,,,,,
,,,,,,,,,,,,,,,,,,,,,,,,,,,,,,,,,return,4.100375,6.147,506.8280477,4,0,4,0,1,5f6bf519a0ac5f171d604e74,6036d866a668505c4ea4e70b,2021-02-24_22h51.56.207,Colour_Similarity_Experiment,2020.2.10,Win32,60,6036d0d9a84aa1626184a6ef,17.19034884,16.69327103,16.66666483,16.66744388,16.66563589,16.67325391,,,,,,,,,,,,,,,,,,,,,,,,,,,,,,,,,,,,,,,,,,,,,,,,,,,,,,,,,,,,,,,,,,,,,,,,,,,,,,,,,,,,,,,,,,,,,,,,,,,,,,,,,,,,,,,,,,
,,,,,,,,,,,,,,,,,,,,,,,,,,,,,,,,,,,,,,,,,,5f6bf519a0ac5f171d604e74,6036d866a668505c4ea4e70b,2021-02-24_22h51.56.207,Colour_Similarity_Experiment,2020.2.10,Win32,60,6036d0d9a84aa1626184a6ef,17.19034884,16.69327103,16.66666483,16.66744388,16.66563589,16.67325391,51,8.90207993,59.28785233,395.2523489,39.52523489,177.863557,space,4.02064,space,13.23752,space,55.95536,space,11.747545,space,4.32516,space,6.133065,6,PF,weak,3,93,-42,1,0,0,response3disk_5,6,5,16.40901,0,2,1,0,0,rectangle_8,0,2,1,0,0,7,0,2,1,0,0,0,0,0,1,1,,,,,,,,,,,,,,,,,,,,,,,,,,,,,,,,,,,,,,,,,,,,,,,,,,,,,,,,,,,,,
,,,,,,,,,,,,,,,,,,,,,,,,,,,,,,,,,,,,,,,,,,5f6bf519a0ac5f171d604e74,6036d866a668505c4ea4e70b,2021-02-24_22h51.56.207,Colour_Similarity_Experiment,2020.2.10,Win32,60,6036d0d9a84aa1626184a6ef,17.19034884,16.69327103,16.66666483,16.66744388,16.66563589,16.67325391,,,,,,,,,,,,,,,,,,,6,PF,weak,3,-33,70,1,0,0,response7disk_5,6,0,5.90095,0,4,1,0,0,rectangle_8,0,4,1,0,0,7,0,4,1,0,0,0,1,1,5,1,,,,,,,,,,,,,,,,,,,,,,,,,,,,,,,,,,,,,,,,,,,,,,,,,,,,,,,,,,,,,
,,,,,,,,,,,,,,,,,,,,,,,,,,,,,,,,,,,,,,,,,,5f6bf519a0ac5f171d604e74,6036d866a668505c4ea4e70b,2021-02-24_22h51.56.207,Colour_Similarity_Experiment,2020.2.10,Win32,60,6036d0d9a84aa1626184a6ef,17.19034884,16.69327103,16.66666483,16.66744388,16.66563589,16.67325391,,,,,,,,,,,,,,,,,,,8,PF,strong,3,-61,41,1,0,0,response7disk_5,7,1,5.05886,0,-1,1,0,0,rectangle_8,0,-1,1,0,0,7,0,-1,1,0,0,0,2,2,2,1,,,,,,,,,,,,,,,,,,,,,,,,,,,,,,,,,,,,,,,,,,,,,,,,,,,,,,,,,,,,,
,,,,,,,,,,,,,,,,,,,,,,,,,,,,,,,,,,,,,,,,,,5f6bf519a0ac5f171d604e74,6036d866a668505c4ea4e70b,2021-02-24_22h51.56.207,Colour_Similarity_Experiment,2020.2.10,Win32,60,6036d0d9a84aa1626184a6ef,17.19034884,16.69327103,16.66666483,16.66744388,16.66563589,16.67325391,,,,,,,,,,,,,,,,,,,4,PF,weak,3,-30,78,1,0,0,response7disk_5,3,0,2.767275,12,-1,1,0,0,rectangle_8,23,91,1,0,0,7,1,3,1,0,0,0,3,3,6,1,response1disk_7,7,rectangle_4,,,,,,,,,,,,,,,,,,,,,,,,,,,,,,,,,,,,,,,,,,,,,,,,,,,,,,,,,,
,,,,,,,,,,,,,,,,,,,,,,,,,,,,,,,,,,,,,,,,,,5f6bf519a0ac5f171d604e74,6036d866a668505c4ea4e70b,2021-02-24_22h51.56.207,Colour_Similarity_Experiment,2020.2.10,Win32,60,6036d0d9a84aa1626184a6ef,17.19034884,16.69327103,16.66666483,16.66744388,16.66563589,16.67325391,,,,,,,,,,,,,,,,,,,6,PF,strong,3,78,-28,1,0,0,response3disk_5,8,5,6.017585,0,2,1,0,0,rectangle_8,26,64,1,0,0,7,-3,5,1,0,0,0,4,4,3,1,response1disk_7,7,rectangle_4,,,,,,,,,,,,,,,,,,,,,,,,,,,,,,,,,,,,,,,,,,,,,,,,,,,,,,,,,,
,,,,,,,,,,,,,,,,,,,,,,,,,,,,,,,,,,,,,,,,,,5f6bf519a0ac5f171d604e74,6036d866a668505c4ea4e70b,2021-02-24_22h51.56.207,Colour_Similarity_Experiment,2020.2.10,Win32,60,6036d0d9a84aa1626184a6ef,17.19034884,16.69327103,16.66666483,16.66744388,16.66563589,16.67325391,,,,,,,,,,,,,,,,,,,1,PF,weak,3,-75,-50,1,0,0,response5disk_5,6,2,5.683725,-2,0,1,0,0,rectangle_8,-2,0,1,0,0,7,-2,0,1,0,0,0,5,5,4,1,,,,,,,,,,,,,,,,,,,,,,,,,,,,,,,,,,,,,,,,,,,,,,,,,,,,,,,,,,,,,
,,,,,,,,,,,,,,,,,,,,,,,,,,,,,,,,,,,,,,,,,,5f6bf519a0ac5f171d604e74,6036d866a668505c4ea4e70b,2021-02-24_22h51.56.207,Colour_Similarity_Experiment,2020.2.10,Win32,60,6036d0d9a84aa1626184a6ef,17.19034884,16.69327103,16.66666483,16.66744388,16.66563589,16.67325391,,,,,,,,,,,,,,,,,,,6,PF,strong,3,29,104,1,0,0,response1disk_5,4,7,3.266885,7,-1,1,0,0,rectangle_8,7,-1,1,0,0,7,7,-1,1,0,0,0,6,6,0,1,,,,,,,,,,,,,,,,,,,,,,,,,,,,,,,,,,,,,,,,,,,,,,,,,,,,,,,,,,,,,
,,,,,,,,,,,,,,,,,,,,,,,,,,,,,,,,,,,,,,,,,,5f6bf519a0ac5f171d604e74,6036d866a668505c4ea4e70b,2021-02-24_22h51.56.207,Colour_Similarity_Experiment,2020.2.10,Win32,60,6036d0d9a84aa1626184a6ef,17.19034884,16.69327103,16.66666483,16.66744388,16.66563589,16.67325391,,,,,,,,,,,,,,,,,,,,PF,strong,3,,,,,,,,2,6.67711,,,,,,,,,,,,,,,,,,,,,,,,,,space,8.69372,2,strong,-107,-42,1,0,0,response5disk,5,1,-7,-5,1,0,0,rectangle,-7,-5,1,0,0,,1,0,0.003075,-7,-5,1,0,0,0,0,0,80,1,,,,,,,,,,,,,,,,,,,,,
,,,,,,,,,,,,,,,,,,,,,,,,,,,,,,,,,,,,,,,,,,5f6bf519a0ac5f171d604e74,6036d866a668505c4ea4e70b,2021-02-24_22h51.56.207,Colour_Similarity_Experiment,2020.2.10,Win32,60,6036d0d9a84aa1626184a6ef,17.19034884,16.69327103,16.66666483,16.66744388,16.66563589,16.67325391,,,,,,,,,,,,,,,,,,,,PF,weak,3,,,,,,,,1,3.56573,,,,,,,,,,,,,,,,,,,,,,,,,,,,3,weak,-64,31,1,0,0,response7disk,3,2,1,2,1,0,0,rectangle,1,2,1,0,0,,7,0,0.00152,1,2,1,0,0,0,1,1,4,1,,,,,,,,,,,,,,,,,,,,,
,,,,,,,,,,,,,,,,,,,,,,,,,,,,,,,,,,,,,,,,,,5f6bf519a0ac5f171d604e74,6036d866a668505c4ea4e70b,2021-02-24_22h51.56.207,Colour_Similarity_Experiment,2020.2.10,Win32,60,6036d0d9a84aa1626184a6ef,17.19034884,16.69327103,16.66666483,16.66744388,16.66563589,16.67325391,,,,,,,,,,,,,,,,,,,,PF,weak,3,,,,,,,,7,2.90941,,,,,,,,,,,,,,,,,,,,,,,,,,,,6,weak,39,75,1,0,0,response1disk,2,3,3,2,1,0,0,rectangle,3,2,1,0,0,,0,0,0.00204,3,2,1,0,0,0,2,2,130,1,,,,,,,,,,,,,,,,,,,,,
,,,,,,,,,,,,,,,,,,,,,,,,,,,,,,,,,,,,,,,,,,5f6bf519a0ac5f171d604e74,6036d866a668505c4ea4e70b,2021-02-24_22h51.56.207,Colour_Similarity_Experiment,2020.2.10,Win32,60,6036d0d9a84aa1626184a6ef,17.19034884,16.69327103,16.66666483,16.66744388,16.66563589,16.67325391,,,,,,,,,,,,,,,,,,,,PF,strong,3,,,,,,,,2,2.29587,,,,,,,,,,,,,,,,,,,,,,,,,,,,5,strong,-77,-25,1,0,0,response5disk,9,4,-4,6,1,0,0,rectangle,-4,6,1,0,0,,0,0,0.00055,-4,6,1,0,0,0,3,3,61,1,,,,,,,,,,,,,,,,,,,,,
,,,,,,,,,,,,,,,,,,,,,,,,,,,,,,,,,,,,,,,,,,5f6bf519a0ac5f171d604e74,6036d866a668505c4ea4e70b,2021-02-24_22h51.56.207,Colour_Similarity_Experiment,2020.2.10,Win32,60,6036d0d9a84aa1626184a6ef,17.19034884,16.69327103,16.66666483,16.66744388,16.66563589,16.67325391,,,,,,,,,,,,,,,,,,,,PF,weak,3,,,,,,,,7,2.88041,,,,,,,,,,,,,,,,,,,,,,,,,,,,7,weak,35,92,1,0,0,response1disk,1,5,3,4,1,0,0,rectangle,3,4,1,0,0,,0,0,0.00016,3,4,1,0,0,0,4,4,53,1,,,,,,,,,,,,,,,,,,,,,
,,,,,,,,,,,,,,,,,,,,,,,,,,,,,,,,,,,,,,,,,,5f6bf519a0ac5f171d604e74,6036d866a668505c4ea4e70b,2021-02-24_22h51.56.207,Colour_Similarity_Experiment,2020.2.10,Win32,60,6036d0d9a84aa1626184a6ef,17.19034884,16.69327103,16.66666483,16.66744388,16.66563589,16.67325391,,,,,,,,,,,,,,,,,,,,PF,strong,3,,,,,,,,7,2.81677,,,,,,,,,,,,,,,,,,,,,,,,,,,,3,strong,37,67,1,0,0,response1disk,5,6,-1,6,1,0,0,rectangle,-1,6,1,0,0,,5,0,0.002735,-1,6,1,0,0,0,5,5,101,1,,,,,,,,,,,,,,,,,,,,,
,,,,,,,,,,,,,,,,,,,,,,,,,,,,,,,,,,,,,,,,,,5f6bf519a0ac5f171d604e74,6036d866a668505c4ea4e70b,2021-02-24_22h51.56.207,Colour_Similarity_Experiment,2020.2.10,Win32,60,6036d0d9a84aa1626184a6ef,17.19034884,16.69327103,16.66666483,16.66744388,16.66563589,16.67325391,,,,,,,,,,,,,,,,,,,,PF,weak,3,,,,,,,,7,1.317875,,,,,,,,,,,,,,,,,,,,,,,,,,,,3,weak,30,67,1,0,0,response1disk,1,7,4,6,1,0,0,rectangle,4,6,1,0,0,,1,0,0.00152,4,6,1,0,0,0,6,6,96,1,,,,,,,,,,,,,,,,,,,,,
,,,,,,,,,,,,,,,,,,,,,,,,,,,,,,,,,,,,,,,,,,5f6bf519a0ac5f171d604e74,6036d866a668505c4ea4e70b,2021-02-24_22h51.56.207,Colour_Similarity_Experiment,2020.2.10,Win32,60,6036d0d9a84aa1626184a6ef,17.19034884,16.69327103,16.66666483,16.66744388,16.66563589,16.67325391,,,,,,,,,,,,,,,,,,,,PF,weak,3,,,,,,,,1,2.70007,,,,,,,,,,,,,,,,,,,,,,,,,,,,8,weak,-77,27,1,0,0,response7disk,9,8,-3,1,1,0,0,rectangle,-3,1,1,0,0,,5,0,0.001545,-3,1,1,0,0,0,7,7,42,1,,,,,,,,,,,,,,,,,,,,,
,,,,,,,,,,,,,,,,,,,,,,,,,,,,,,,,,,,,,,,,,,5f6bf519a0ac5f171d604e74,6036d866a668505c4ea4e70b,2021-02-24_22h51.56.207,Colour_Similarity_Experiment,2020.2.10,Win32,60,6036d0d9a84aa1626184a6ef,17.19034884,16.69327103,16.66666483,16.66744388,16.66563589,16.67325391,,,,,,,,,,,,,,,,,,,,PF,strong,3,,,,,,,,4,6.067865,,,,,,,,,,,,,,,,,,,,,,,,,,,,5,strong,37,-83,1,0,0,response3disk,6,9,1,2,1,0,0,rectangle,1,2,1,0,0,,1,0,0.00193,1,2,1,0,0,0,8,8,12,1,,,,,,,,,,,,,,,,,,,,,
,,,,,,,,,,,,,,,,,,,,,,,,,,,,,,,,,,,,,,,,,,5f6bf519a0ac5f171d604e74,6036d866a668505c4ea4e70b,2021-02-24_22h51.56.207,Colour_Similarity_Experiment,2020.2.10,Win32,60,6036d0d9a84aa1626184a6ef,17.19034884,16.69327103,16.66666483,16.66744388,16.66563589,16.67325391,,,,,,,,,,,,,,,,,,,,PF,weak,3,,,,,,,,4,4.950075,,,,,,,,,,,,,,,,,,,,,,,,,,,,5,weak,34,-96,1,0,0,response3disk,5,10,-3,-2,1,0,0,rectangle,-3,-2,1,0,0,,7,0,0.001735,-3,-2,1,0,0,0,9,9,94,1,,,,,,,,,,,,,,,,,,,,,
,,,,,,,,,,,,,,,,,,,,,,,,,,,,,,,,,,,,,,,,,,5f6bf519a0ac5f171d604e74,6036d866a668505c4ea4e70b,2021-02-24_22h51.56.207,Colour_Similarity_Experiment,2020.2.10,Win32,60,6036d0d9a84aa1626184a6ef,17.19034884,16.69327103,16.66666483,16.66744388,16.66563589,16.67325391,,,,,,,,,,,,,,,,,,,,PF,weak,3,,,,,,,,7,1.84273,,,,,,,,,,,,,,,,,,,,,,,,,,,,4,weak,37,67,1,0,0,response1disk,6,11,5,-1,1,0,0,rectangle,5,-1,1,0,0,,1,0,0.001605,5,-1,1,0,0,0,10,10,120,1,,,,,,,,,,,,,,,,,,,,,
,,,,,,,,,,,,,,,,,,,,,,,,,,,,,,,,,,,,,,,,,,5f6bf519a0ac5f171d604e74,6036d866a668505c4ea4e70b,2021-02-24_22h51.56.207,Colour_Similarity_Experiment,2020.2.10,Win32,60,6036d0d9a84aa1626184a6ef,17.19034884,16.69327103,16.66666483,16.66744388,16.66563589,16.67325391,,,,,,,,,,,,,,,,,,,,PF,strong,3,,,,,,,,4,3.949775,,,,,,,,,,,,,,,,,,,,,,,,,,,,6,strong,61,-79,1,0,0,response3disk,5,12,0,2,1,0,0,rectangle,0,2,1,0,0,,7,0,0.00196,0,2,1,0,0,0,11,11,126,1,,,,,,,,,,,,,,,,,,,,,
,,,,,,,,,,,,,,,,,,,,,,,,,,,,,,,,,,,,,,,,,,5f6bf519a0ac5f171d604e74,6036d866a668505c4ea4e70b,2021-02-24_22h51.56.207,Colour_Similarity_Experiment,2020.2.10,Win32,60,6036d0d9a84aa1626184a6ef,17.19034884,16.69327103,16.66666483,16.66744388,16.66563589,16.67325391,,,,,,,,,,,,,,,,,,,,PF,weak,3,,,,,,,,7,2.499555,,,,,,,,,,,,,,,,,,,,,,,,,,,,4,weak,43,69,1,0,0,response1disk,5,13,-10,-3,1,0,0,rectangle,-10,-3,1,0,0,,2,0,0.002255,-10,-3,1,0,0,0,12,12,49,1,,,,,,,,,,,,,,,,,,,,,
,,,,,,,,,,,,,,,,,,,,,,,,,,,,,,,,,,,,,,,,,,5f6bf519a0ac5f171d604e74,6036d866a668505c4ea4e70b,2021-02-24_22h51.56.207,Colour_Similarity_Experiment,2020.2.10,Win32,60,6036d0d9a84aa1626184a6ef,17.19034884,16.69327103,16.66666483,16.66744388,16.66563589,16.67325391,,,,,,,,,,,,,,,,,,,,PF,weak,3,,,,,,,,7,1.394845,,,,,,,,,,,,,,,,,,,,,,,,,,,,7,weak,33,69,1,0,0,response1disk,2,14,-2,2,1,0,0,rectangle,-2,2,1,0,0,,5,0,0.002425,-2,2,1,0,0,0,13,13,32,1,,,,,,,,,,,,,,,,,,,,,
,,,,,,,,,,,,,,,,,,,,,,,,,,,,,,,,,,,,,,,,,,5f6bf519a0ac5f171d604e74,6036d866a668505c4ea4e70b,2021-02-24_22h51.56.207,Colour_Similarity_Experiment,2020.2.10,Win32,60,6036d0d9a84aa1626184a6ef,17.19034884,16.69327103,16.66666483,16.66744388,16.66563589,16.67325391,,,,,,,,,,,,,,,,,,,,PF,strong,3,,,,,,,,5,2.416655,,,,,,,,,,,,,,,,,,,,,,,,,,,,7,strong,97,-55,1,0,0,response3disk,9,15,1,0,1,0,0,rectangle,1,0,1,0,0,,7,0,0.003245,1,0,1,0,0,0,14,14,155,1,,,,,,,,,,,,,,,,,,,,,
,,,,,,,,,,,,,,,,,,,,,,,,,,,,,,,,,,,,,,,,,,5f6bf519a0ac5f171d604e74,6036d866a668505c4ea4e70b,2021-02-24_22h51.56.207,Colour_Similarity_Experiment,2020.2.10,Win32,60,6036d0d9a84aa1626184a6ef,17.19034884,16.69327103,16.66666483,16.66744388,16.66563589,16.67325391,,,,,,,,,,,,,,,,,,,,PF,weak,3,,,,,,,,7,1.217335,,,,,,,,,,,,,,,,,,,,,,,,,,,,5,weak,41,78,1,0,0,response1disk,2,16,-4,3,1,0,0,rectangle,-4,3,1,0,0,,1,0,0.001955,-4,3,1,0,0,0,15,15,129,1,,,,,,,,,,,,,,,,,,,,,
,,,,,,,,,,,,,,,,,,,,,,,,,,,,,,,,,,,,,,,,,,5f6bf519a0ac5f171d604e74,6036d866a668505c4ea4e70b,2021-02-24_22h51.56.207,Colour_Similarity_Experiment,2020.2.10,Win32,60,6036d0d9a84aa1626184a6ef,17.19034884,16.69327103,16.66666483,16.66744388,16.66563589,16.67325391,,,,,,,,,,,,,,,,,,,,PF,weak,3,,,,,,,,5,4.395275,,,,,,,,,,,,,,,,,,,,,,,,,,,,7,weak,52,-30,1,0,0,response3disk,6,17,3,3,1,0,0,rectangle,3,3,1,0,0,,3,0,0.00134,3,3,1,0,0,0,16,16,29,1,,,,,,,,,,,,,,,,,,,,,
,,,,,,,,,,,,,,,,,,,,,,,,,,,,,,,,,,,,,,,,,,5f6bf519a0ac5f171d604e74,6036d866a668505c4ea4e70b,2021-02-24_22h51.56.207,Colour_Similarity_Experiment,2020.2.10,Win32,60,6036d0d9a84aa1626184a6ef,17.19034884,16.69327103,16.66666483,16.66744388,16.66563589,16.67325391,,,,,,,,,,,,,,,,,,,,PF,weak,3,,,,,,,,7,1.19965,,,,,,,,,,,,,,,,,,,,,,,,,,,,4,weak,34,65,1,0,0,response1disk,8,18,-10,-9,1,0,0,rectangle,-10,-9,1,0,0,,0,0,0.00202,-10,-9,1,0,0,0,17,17,124,1,,,,,,,,,,,,,,,,,,,,,
,,,,,,,,,,,,,,,,,,,,,,,,,,,,,,,,,,,,,,,,,,5f6bf519a0ac5f171d604e74,6036d866a668505c4ea4e70b,2021-02-24_22h51.56.207,Colour_Similarity_Experiment,2020.2.10,Win32,60,6036d0d9a84aa1626184a6ef,17.19034884,16.69327103,16.66666483,16.66744388,16.66563589,16.67325391,,,,,,,,,,,,,,,,,,,,PF,weak,3,,,,,,,,5,4.56087,,,,,,,,,,,,,,,,,,,,,,,,,,,,8,weak,59,-35,1,0,0,response3disk,5,19,-3,3,1,0,0,rectangle,-3,3,1,0,0,,7,0,0.00127,-3,3,1,0,0,0,18,18,98,1,,,,,,,,,,,,,,,,,,,,,
,,,,,,,,,,,,,,,,,,,,,,,,,,,,,,,,,,,,,,,,,,5f6bf519a0ac5f171d604e74,6036d866a668505c4ea4e70b,2021-02-24_22h51.56.207,Colour_Similarity_Experiment,2020.2.10,Win32,60,6036d0d9a84aa1626184a6ef,17.19034884,16.69327103,16.66666483,16.66744388,16.66563589,16.67325391,,,,,,,,,,,,,,,,,,,,PF,strong,3,,,,,,,,7,1.700215,,,,,,,,,,,,,,,,,,,,,,,,,,,,7,strong,43,77,1,0,0,response1disk,3,20,2,8,1,0,0,rectangle,2,8,1,0,0,,4,0,0.001575,2,8,1,0,0,0,19,19,73,1,,,,,,,,,,,,,,,,,,,,,
,,,,,,,,,,,,,,,,,,,,,,,,,,,,,,,,,,,,,,,,,,5f6bf519a0ac5f171d604e74,6036d866a668505c4ea4e70b,2021-02-24_22h51.56.207,Colour_Similarity_Experiment,2020.2.10,Win32,60,6036d0d9a84aa1626184a6ef,17.19034884,16.69327103,16.66666483,16.66744388,16.66563589,16.67325391,,,,,,,,,,,,,,,,,,,,PF,strong,3,,,,,,,,7,3.3429,,,,,,,,,,,,,,,,,,,,,,,,,,,,7,strong,29,70,1,0,0,response1disk,8,21,3,4,1,0,0,rectangle,18,-88,1,0,0,4,4,1,4.287245,-1,7,1,0,0,0,20,20,97,1,response3disk_3,rectangle,,,,,,,,,,,,,,,,,,,
,,,,,,,,,,,,,,,,,,,,,,,,,,,,,,,,,,,,,,,,,,5f6bf519a0ac5f171d604e74,6036d866a668505c4ea4e70b,2021-02-24_22h51.56.207,Colour_Similarity_Experiment,2020.2.10,Win32,60,6036d0d9a84aa1626184a6ef,17.19034884,16.69327103,16.66666483,16.66744388,16.66563589,16.67325391,,,,,,,,,,,,,,,,,,,,PF,strong,3,,,,,,,,7,1.284595,,,,,,,,,,,,,,,,,,,,,,,,,,,,2,strong,36,68,1,0,0,response1disk,3,22,-5,4,1,0,0,rectangle,46,-96,1,0,0,4,4,1,2.86703,3,6,1,0,0,0,21,21,104,1,response3disk_3,rectangle,,,,,,,,,,,,,,,,,,,
,,,,,,,,,,,,,,,,,,,,,,,,,,,,,,,,,,,,,,,,,,5f6bf519a0ac5f171d604e74,6036d866a668505c4ea4e70b,2021-02-24_22h51.56.207,Colour_Similarity_Experiment,2020.2.10,Win32,60,6036d0d9a84aa1626184a6ef,17.19034884,16.69327103,16.66666483,16.66744388,16.66563589,16.67325391,,,,,,,,,,,,,,,,,,,,PF,weak,3,,,,,,,,6,2.46618,,,,,,,,,,,,,,,,,,,,,,,,,,,,3,weak,87,35,1,0,0,response1disk,8,23,1,8,1,0,0,rectangle,1,8,1,0,0,4,7,0,0.00123,1,8,1,0,0,0,22,22,3,1,,,,,,,,,,,,,,,,,,,,,
,,,,,,,,,,,,,,,,,,,,,,,,,,,,,,,,,,,,,,,,,,5f6bf519a0ac5f171d604e74,6036d866a668505c4ea4e70b,2021-02-24_22h51.56.207,Colour_Similarity_Experiment,2020.2.10,Win32,60,6036d0d9a84aa1626184a6ef,17.19034884,16.69327103,16.66666483,16.66744388,16.66563589,16.67325391,,,,,,,,,,,,,,,,,,,,PF,strong,3,,,,,,,,6,1.84623,,,,,,,,,,,,,,,,,,,,,,,,,,,,9,strong,66,29,1,0,0,response1disk,1,24,4,-4,1,0,0,rectangle,4,-4,1,0,0,4,4,0,0.002185,4,-4,1,0,0,0,23,23,111,1,,,,,,,,,,,,,,,,,,,,,
,,,,,,,,,,,,,,,,,,,,,,,,,,,,,,,,,,,,,,,,,,5f6bf519a0ac5f171d604e74,6036d866a668505c4ea4e70b,2021-02-24_22h51.56.207,Colour_Similarity_Experiment,2020.2.10,Win32,60,6036d0d9a84aa1626184a6ef,17.19034884,16.69327103,16.66666483,16.66744388,16.66563589,16.67325391,,,,,,,,,,,,,,,,,,,,PF,strong,3,,,,,,,,6,2.047065,,,,,,,,,,,,,,,,,,,,,,,,,,,,1,strong,65,25,1,0,0,response1disk,7,25,-7,7,1,0,0,rectangle,-7,7,1,0,0,4,3,0,0.002215,-7,7,1,0,0,0,24,24,137,1,,,,,,,,,,,,,,,,,,,,,
,,,,,,,,,,,,,,,,,,,,,,,,,,,,,,,,,,,,,,,,,,5f6bf519a0ac5f171d604e74,6036d866a668505c4ea4e70b,2021-02-24_22h51.56.207,Colour_Similarity_Experiment,2020.2.10,Win32,60,6036d0d9a84aa1626184a6ef,17.19034884,16.69327103,16.66666483,16.66744388,16.66563589,16.67325391,,,,,,,,,,,,,,,,,,,,PF,weak,3,,,,,,,,7,1.201555,,,,,,,,,,,,,,,,,,,,,,,,,,,,9,weak,46,93,1,0,0,response1disk,4,26,-1,4,1,0,0,rectangle,-1,4,1,0,0,4,5,0,0.00181,-1,4,1,0,0,0,25,25,114,1,,,,,,,,,,,,,,,,,,,,,
,,,,,,,,,,,,,,,,,,,,,,,,,,,,,,,,,,,,,,,,,,5f6bf519a0ac5f171d604e74,6036d866a668505c4ea4e70b,2021-02-24_22h51.56.207,Colour_Similarity_Experiment,2020.2.10,Win32,60,6036d0d9a84aa1626184a6ef,17.19034884,16.69327103,16.66666483,16.66744388,16.66563589,16.67325391,,,,,,,,,,,,,,,,,,,,PF,weak,3,,,,,,,,7,1.365325,,,,,,,,,,,,,,,,,,,,,,,,,,,,3,weak,41,66,1,0,0,response1disk,4,27,-2,1,1,0,0,rectangle,-2,1,1,0,0,4,6,0,0.00155,-2,1,1,0,0,0,26,26,30,1,,,,,,,,,,,,,,,,,,,,,
,,,,,,,,,,,,,,,,,,,,,,,,,,,,,,,,,,,,,,,,,,5f6bf519a0ac5f171d604e74,6036d866a668505c4ea4e70b,2021-02-24_22h51.56.207,Colour_Similarity_Experiment,2020.2.10,Win32,60,6036d0d9a84aa1626184a6ef,17.19034884,16.69327103,16.66666483,16.66744388,16.66563589,16.67325391,,,,,,,,,,,,,,,,,,,,PF,weak,3,,,,,,,,0,2.484665,,,,,,,,,,,,,,,,,,,,,,,,,,,,7,weak,-36,75,1,0,0,response7disk,7,28,-7,0,1,0,0,rectangle,-7,0,1,0,0,4,5,0,0.00127,-7,0,1,0,0,0,27,27,51,1,,,,,,,,,,,,,,,,,,,,,
,,,,,,,,,,,,,,,,,,,,,,,,,,,,,,,,,,,,,,,,,,5f6bf519a0ac5f171d604e74,6036d866a668505c4ea4e70b,2021-02-24_22h51.56.207,Colour_Similarity_Experiment,2020.2.10,Win32,60,6036d0d9a84aa1626184a6ef,17.19034884,16.69327103,16.66666483,16.66744388,16.66563589,16.67325391,,,,,,,,,,,,,,,,,,,,PF,weak,3,,,,,,,,7,3.116865,,,,,,,,,,,,,,,,,,,,,,,,,,,,5,weak,58,85,1,0,0,response1disk,1,29,5,4,1,0,0,rectangle,-77,-35,1,0,0,4,2,1,2.532425,0,3,1,0,0,0,28,28,159,1,response5disk_3,rectangle,,,,,,,,,,,,,,,,,,,
,,,,,,,,,,,,,,,,,,,,,,,,,,,,,,,,,,,,,,,,,,5f6bf519a0ac5f171d604e74,6036d866a668505c4ea4e70b,2021-02-24_22h51.56.207,Colour_Similarity_Experiment,2020.2.10,Win32,60,6036d0d9a84aa1626184a6ef,17.19034884,16.69327103,16.66666483,16.66744388,16.66563589,16.67325391,,,,,,,,,,,,,,,,,,,,PF,strong,3,,,,,,,,5,2.11757,,,,,,,,,,,,,,,,,,,,,,,,,,,,3,strong,67,-35,1,0,0,response3disk,3,30,-4,-3,1,0,0,rectangle,-4,-3,1,0,0,4,2,0,0.000215,-4,-3,1,0,0,0,29,29,68,1,,,,,,,,,,,,,,,,,,,,,
,,,,,,,,,,,,,,,,,,,,,,,,,,,,,,,,,,,,,,,,,,5f6bf519a0ac5f171d604e74,6036d866a668505c4ea4e70b,2021-02-24_22h51.56.207,Colour_Similarity_Experiment,2020.2.10,Win32,60,6036d0d9a84aa1626184a6ef,17.19034884,16.69327103,16.66666483,16.66744388,16.66563589,16.67325391,,,,,,,,,,,,,,,,,,,,PF,strong,3,,,,,,,,6,2.83181,,,,,,,,,,,,,,,,,,,,,,,,,,,,2,strong,96,35,1,0,0,response1disk,8,31,2,0,1,0,0,rectangle,2,0,1,0,0,4,1,0,0.002215,2,0,1,0,0,0,30,30,62,1,,,,,,,,,,,,,,,,,,,,,
,,,,,,,,,,,,,,,,,,,,,,,,,,,,,,,,,,,,,,,,,,5f6bf519a0ac5f171d604e74,6036d866a668505c4ea4e70b,2021-02-24_22h51.56.207,Colour_Similarity_Experiment,2020.2.10,Win32,60,6036d0d9a84aa1626184a6ef,17.19034884,16.69327103,16.66666483,16.66744388,16.66563589,16.67325391,,,,,,,,,,,,,,,,,,,,PF,strong,3,,,,,,,,6,1.49842,,,,,,,,,,,,,,,,,,,,,,,,,,,,6,strong,68,30,1,0,0,response1disk,8,32,-6,7,1,0,0,rectangle,-6,7,1,0,0,4,1,0,0.00024,-6,7,1,0,0,0,31,31,133,1,,,,,,,,,,,,,,,,,,,,,
,,,,,,,,,,,,,,,,,,,,,,,,,,,,,,,,,,,,,,,,,,5f6bf519a0ac5f171d604e74,6036d866a668505c4ea4e70b,2021-02-24_22h51.56.207,Colour_Similarity_Experiment,2020.2.10,Win32,60,6036d0d9a84aa1626184a6ef,17.19034884,16.69327103,16.66666483,16.66744388,16.66563589,16.67325391,,,,,,,,,,,,,,,,,,,,PF,strong,3,,,,,,,,6,2.111175,,,,,,,,,,,,,,,,,,,,,,,,,,,,2,strong,68,33,1,0,0,response1disk,6,33,5,5,1,0,0,rectangle,5,5,1,0,0,4,1,0,0.00012,5,5,1,0,0,0,32,32,40,1,,,,,,,,,,,,,,,,,,,,,
,,,,,,,,,,,,,,,,,,,,,,,,,,,,,,,,,,,,,,,,,,5f6bf519a0ac5f171d604e74,6036d866a668505c4ea4e70b,2021-02-24_22h51.56.207,Colour_Similarity_Experiment,2020.2.10,Win32,60,6036d0d9a84aa1626184a6ef,17.19034884,16.69327103,16.66666483,16.66744388,16.66563589,16.67325391,,,,,,,,,,,,,,,,,,,,PF,strong,3,,,,,,,,6,2.433075,,,,,,,,,,,,,,,,,,,,,,,,,,,,9,strong,67,41,1,0,0,response1disk,9,34,-2,8,1,0,0,rectangle,-2,8,1,0,0,4,3,0,0.00155,-2,8,1,0,0,0,33,33,17,1,,,,,,,,,,,,,,,,,,,,,
,,,,,,,,,,,,,,,,,,,,,,,,,,,,,,,,,,,,,,,,,,5f6bf519a0ac5f171d604e74,6036d866a668505c4ea4e70b,2021-02-24_22h51.56.207,Colour_Similarity_Experiment,2020.2.10,Win32,60,6036d0d9a84aa1626184a6ef,17.19034884,16.69327103,16.66666483,16.66744388,16.66563589,16.67325391,,,,,,,,,,,,,,,,,,,,PF,weak,3,,,,,,,,6,5.73428,,,,,,,,,,,,,,,,,,,,,,,,,,,,7,weak,92,33,1,0,0,response1disk,8,35,2,8,1,0,0,rectangle,2,8,1,0,0,4,3,0,0.00024,2,8,1,0,0,0,34,34,140,1,,,,,,,,,,,,,,,,,,,,,
,,,,,,,,,,,,,,,,,,,,,,,,,,,,,,,,,,,,,,,,,,5f6bf519a0ac5f171d604e74,6036d866a668505c4ea4e70b,2021-02-24_22h51.56.207,Colour_Similarity_Experiment,2020.2.10,Win32,60,6036d0d9a84aa1626184a6ef,17.19034884,16.69327103,16.66666483,16.66744388,16.66563589,16.67325391,,,,,,,,,,,,,,,,,,,,PF,weak,3,,,,,,,,0,3.01665,,,,,,,,,,,,,,,,,,,,,,,,,,,,4,weak,-35,66,1,0,0,response7disk,3,36,3,2,1,0,0,rectangle,3,2,1,0,0,4,7,0,0.002255,3,2,1,0,0,0,35,35,89,1,,,,,,,,,,,,,,,,,,,,,
,,,,,,,,,,,,,,,,,,,,,,,,,,,,,,,,,,,,,,,,,,5f6bf519a0ac5f171d604e74,6036d866a668505c4ea4e70b,2021-02-24_22h51.56.207,Colour_Similarity_Experiment,2020.2.10,Win32,60,6036d0d9a84aa1626184a6ef,17.19034884,16.69327103,16.66666483,16.66744388,16.66563589,16.67325391,,,,,,,,,,,,,,,,,,,,PF,strong,3,,,,,,,,7,2.949755,,,,,,,,,,,,,,,,,,,,,,,,,,,,3,strong,39,85,1,0,0,response1disk,8,37,4,6,1,0,0,rectangle,4,6,1,0,0,4,6,0,0.00194,4,6,1,0,0,0,36,36,44,1,,,,,,,,,,,,,,,,,,,,,
,,,,,,,,,,,,,,,,,,,,,,,,,,,,,,,,,,,,,,,,,,5f6bf519a0ac5f171d604e74,6036d866a668505c4ea4e70b,2021-02-24_22h51.56.207,Colour_Similarity_Experiment,2020.2.10,Win32,60,6036d0d9a84aa1626184a6ef,17.19034884,16.69327103,16.66666483,16.66744388,16.66563589,16.67325391,,,,,,,,,,,,,,,,,,,,PF,strong,3,,,,,,,,0,1.642895,,,,,,,,,,,,,,,,,,,,,,,,,,,,8,strong,-34,81,1,0,0,response7disk,8,38,-2,9,1,0,0,rectangle,-2,9,1,0,0,4,5,0,0.001455,-2,9,1,0,0,0,37,37,48,1,,,,,,,,,,,,,,,,,,,,,
,,,,,,,,,,,,,,,,,,,,,,,,,,,,,,,,,,,,,,,,,,5f6bf519a0ac5f171d604e74,6036d866a668505c4ea4e70b,2021-02-24_22h51.56.207,Colour_Similarity_Experiment,2020.2.10,Win32,60,6036d0d9a84aa1626184a6ef,17.19034884,16.69327103,16.66666483,16.66744388,16.66563589,16.67325391,,,,,,,,,,,,,,,,,,,,PF,weak,3,,,,,,,,7,2.91631,,,,,,,,,,,,,,,,,,,,,,,,,,,,5,weak,45,74,1,0,0,response1disk,3,39,5,4,1,0,0,rectangle,5,4,1,0,0,4,0,0,0.002225,5,4,1,0,0,0,38,38,109,1,,,,,,,,,,,,,,,,,,,,,
,,,,,,,,,,,,,,,,,,,,,,,,,,,,,,,,,,,,,,,,,,5f6bf519a0ac5f171d604e74,6036d866a668505c4ea4e70b,2021-02-24_22h51.56.207,Colour_Similarity_Experiment,2020.2.10,Win32,60,6036d0d9a84aa1626184a6ef,17.19034884,16.69327103,16.66666483,16.66744388,16.66563589,16.67325391,,,,,,,,,,,,,,,,,,,,PF,strong,3,,,,,,,,1,3.71015,,,,,,,,,,,,,,,,,,,,,,,,,,,,9,strong,-61,38,1,0,0,response7disk,5,40,4,2,1,0,0,rectangle,4,2,1,0,0,4,6,0,0.001295,4,2,1,0,0,0,39,39,128,1,,,,,,,,,,,,,,,,,,,,,
,,,,,,,,,,,,,,,,,,,,,,,,,,,,,,,,,,,,,,,,,,5f6bf519a0ac5f171d604e74,6036d866a668505c4ea4e70b,2021-02-24_22h51.56.207,Colour_Similarity_Experiment,2020.2.10,Win32,60,6036d0d9a84aa1626184a6ef,17.19034884,16.69327103,16.66666483,16.66744388,16.66563589,16.67325391,,,,,,,,,,,,,,,,,,,,PF,strong,3,,,,,,,,7,1.849995,,,,,,,,,,,,,,,,,,,,,,,,,,,,2,strong,44,79,1,0,0,response1disk,7,41,0,-2,1,0,0,rectangle,0,-2,1,0,0,4,2,0,0.001645,0,-2,1,0,0,0,40,40,63,1,,,,,,,,,,,,,,,,,,,,,
,,,,,,,,,,,,,,,,,,,,,,,,,,,,,,,,,,,,,,,,,,5f6bf519a0ac5f171d604e74,6036d866a668505c4ea4e70b,2021-02-24_22h51.56.207,Colour_Similarity_Experiment,2020.2.10,Win32,60,6036d0d9a84aa1626184a6ef,17.19034884,16.69327103,16.66666483,16.66744388,16.66563589,16.67325391,,,,,,,,,,,,,,,,,,,,PF,weak,3,,,,,,,,7,1.16524,,,,,,,,,,,,,,,,,,,,,,,,,,,,7,weak,42,69,1,0,0,response1disk,3,42,2,5,1,0,0,rectangle,2,5,1,0,0,4,7,0,0.00133,2,5,1,0,0,0,41,41,81,1,,,,,,,,,,,,,,,,,,,,,
,,,,,,,,,,,,,,,,,,,,,,,,,,,,,,,,,,,,,,,,,,5f6bf519a0ac5f171d604e74,6036d866a668505c4ea4e70b,2021-02-24_22h51.56.207,Colour_Similarity_Experiment,2020.2.10,Win32,60,6036d0d9a84aa1626184a6ef,17.19034884,16.69327103,16.66666483,16.66744388,16.66563589,16.67325391,,,,,,,,,,,,,,,,,,,,PF,strong,3,,,,,,,,7,1.586805,,,,,,,,,,,,,,,,,,,,,,,,,,,,1,strong,46,73,1,0,0,response1disk,3,43,9,3,1,0,0,rectangle,9,3,1,0,0,4,3,0,0.001315,9,3,1,0,0,0,42,42,99,1,,,,,,,,,,,,,,,,,,,,,
,,,,,,,,,,,,,,,,,,,,,,,,,,,,,,,,,,,,,,,,,,5f6bf519a0ac5f171d604e74,6036d866a668505c4ea4e70b,2021-02-24_22h51.56.207,Colour_Similarity_Experiment,2020.2.10,Win32,60,6036d0d9a84aa1626184a6ef,17.19034884,16.69327103,16.66666483,16.66744388,16.66563589,16.67325391,,,,,,,,,,,,,,,,,,,,PF,strong,3,,,,,,,,0,1.49897,,,,,,,,,,,,,,,,,,,,,,,,,,,,6,strong,-26,63,1,0,0,response7disk,7,44,-12,5,1,0,0,rectangle,-12,5,1,0,0,4,5,0,0.00125,-12,5,1,0,0,0,43,43,18,1,,,,,,,,,,,,,,,,,,,,,
,,,,,,,,,,,,,,,,,,,,,,,,,,,,,,,,,,,,,,,,,,5f6bf519a0ac5f171d604e74,6036d866a668505c4ea4e70b,2021-02-24_22h51.56.207,Colour_Similarity_Experiment,2020.2.10,Win32,60,6036d0d9a84aa1626184a6ef,17.19034884,16.69327103,16.66666483,16.66744388,16.66563589,16.67325391,,,,,,,,,,,,,,,,,,,,PF,strong,3,,,,,,,,4,4.99941,,,,,,,,,,,,,,,,,,,,,,,,,,,,5,strong,20,-76,1,0,0,response3disk,4,45,-1,-1,1,0,0,rectangle,-1,-1,1,0,0,4,3,0,0.001245,-1,-1,1,0,0,0,44,44,8,1,,,,,,,,,,,,,,,,,,,,,
,,,,,,,,,,,,,,,,,,,,,,,,,,,,,,,,,,,,,,,,,,5f6bf519a0ac5f171d604e74,6036d866a668505c4ea4e70b,2021-02-24_22h51.56.207,Colour_Similarity_Experiment,2020.2.10,Win32,60,6036d0d9a84aa1626184a6ef,17.19034884,16.69327103,16.66666483,16.66744388,16.66563589,16.67325391,,,,,,,,,,,,,,,,,,,,PF,weak,3,,,,,,,,7,1.180735,,,,,,,,,,,,,,,,,,,,,,,,,,,,4,weak,44,74,1,0,0,response1disk,7,46,4,2,1,0,0,rectangle,4,2,1,0,0,4,4,0,0.001375,4,2,1,0,0,0,45,45,38,1,,,,,,,,,,,,,,,,,,,,,
,,,,,,,,,,,,,,,,,,,,,,,,,,,,,,,,,,,,,,,,,,5f6bf519a0ac5f171d604e74,6036d866a668505c4ea4e70b,2021-02-24_22h51.56.207,Colour_Similarity_Experiment,2020.2.10,Win32,60,6036d0d9a84aa1626184a6ef,17.19034884,16.69327103,16.66666483,16.66744388,16.66563589,16.67325391,,,,,,,,,,,,,,,,,,,,PF,strong,3,,,,,,,,7,2.532305,,,,,,,,,,,,,,,,,,,,,,,,,,,,6,strong,35,50,1,0,0,response1disk,9,47,-8,-5,1,0,0,rectangle,-28,54,1,0,0,0,0,1,2.53359,2,1,1,0,0,0,46,46,160,1,response7disk_3,rectangle,,,,,,,,,,,,,,,,,,,
,,,,,,,,,,,,,,,,,,,,,,,,,,,,,,,,,,,,,,,,,,5f6bf519a0ac5f171d604e74,6036d866a668505c4ea4e70b,2021-02-24_22h51.56.207,Colour_Similarity_Experiment,2020.2.10,Win32,60,6036d0d9a84aa1626184a6ef,17.19034884,16.69327103,16.66666483,16.66744388,16.66563589,16.67325391,,,,,,,,,,,,,,,,,,,,PF,strong,3,,,,,,,,0,4.51797,,,,,,,,,,,,,,,,,,,,,,,,,,,,9,strong,-26,70,1,0,0,response7disk,6,48,-3,7,1,0,0,rectangle,-3,7,1,0,0,0,6,0,0.00223,-3,7,1,0,0,0,47,47,117,1,,,,,,,,,,,,,,,,,,,,,
,,,,,,,,,,,,,,,,,,,,,,,,,,,,,,,,,,,,,,,,,,5f6bf519a0ac5f171d604e74,6036d866a668505c4ea4e70b,2021-02-24_22h51.56.207,Colour_Similarity_Experiment,2020.2.10,Win32,60,6036d0d9a84aa1626184a6ef,17.19034884,16.69327103,16.66666483,16.66744388,16.66563589,16.67325391,,,,,,,,,,,,,,,,,,,,PF,weak,3,,,,,,,,1,2.200695,,,,,,,,,,,,,,,,,,,,,,,,,,,,5,weak,-70,29,1,0,0,response7disk,6,49,0,9,1,0,0,rectangle,0,9,1,0,0,0,2,0,0.001705,0,9,1,0,0,0,48,48,103,1,,,,,,,,,,,,,,,,,,,,,
,,,,,,,,,,,,,,,,,,,,,,,,,,,,,,,,,,,,,,,,,,5f6bf519a0ac5f171d604e74,6036d866a668505c4ea4e70b,2021-02-24_22h51.56.207,Colour_Similarity_Experiment,2020.2.10,Win32,60,6036d0d9a84aa1626184a6ef,17.19034884,16.69327103,16.66666483,16.66744388,16.66563589,16.67325391,,,,,,,,,,,,,,,,,,,,PF,weak,3,,,,,,,,6,2.89867,,,,,,,,,,,,,,,,,,,,,,,,,,,,7,weak,80,28,1,0,0,response1disk,9,50,7,-3,1,0,0,rectangle,7,-3,1,0,0,0,7,0,0.002465,7,-3,1,0,0,0,49,49,10,1,,,,,,,,,,,,,,,,,,,,,
,,,,,,,,,,,,,,,,,,,,,,,,,,,,,,,,,,,,,,,,,,5f6bf519a0ac5f171d604e74,6036d866a668505c4ea4e70b,2021-02-24_22h51.56.207,Colour_Similarity_Experiment,2020.2.10,Win32,60,6036d0d9a84aa1626184a6ef,17.19034884,16.69327103,16.66666483,16.66744388,16.66563589,16.67325391,,,,,,,,,,,,,,,,,,,,PF,weak,3,,,,,,,,5,1.86352,,,,,,,,,,,,,,,,,,,,,,,,,,,,6,weak,84,-30,1,0,0,response3disk,7,51,1,-8,1,0,0,rectangle,1,-8,1,0,0,0,4,0,0.00155,1,-8,1,0,0,0,50,50,50,1,,,,,,,,,,,,,,,,,,,,,
,,,,,,,,,,,,,,,,,,,,,,,,,,,,,,,,,,,,,,,,,,5f6bf519a0ac5f171d604e74,6036d866a668505c4ea4e70b,2021-02-24_22h51.56.207,Colour_Similarity_Experiment,2020.2.10,Win32,60,6036d0d9a84aa1626184a6ef,17.19034884,16.69327103,16.66666483,16.66744388,16.66563589,16.67325391,,,,,,,,,,,,,,,,,,,,PF,strong,3,,,,,,,,5,3.500315,,,,,,,,,,,,,,,,,,,,,,,,,,,,1,strong,74,-30,1,0,0,response3disk,9,52,-2,-1,1,0,0,rectangle,-2,-1,1,0,0,0,2,0,0.0024,-2,-1,1,0,0,0,51,51,123,1,,,,,,,,,,,,,,,,,,,,,
,,,,,,,,,,,,,,,,,,,,,,,,,,,,,,,,,,,,,,,,,,5f6bf519a0ac5f171d604e74,6036d866a668505c4ea4e70b,2021-02-24_22h51.56.207,Colour_Similarity_Experiment,2020.2.10,Win32,60,6036d0d9a84aa1626184a6ef,17.19034884,16.69327103,16.66666483,16.66744388,16.66563589,16.67325391,,,,,,,,,,,,,,,,,,,,PF,weak,3,,,,,,,,7,1.44581,,,,,,,,,,,,,,,,,,,,,,,,,,,,6,weak,24,63,1,0,0,response1disk,9,53,0,6,1,0,0,rectangle,0,6,1,0,0,0,1,0,0.0015,0,6,1,0,0,0,52,52,45,1,,,,,,,,,,,,,,,,,,,,,
,,,,,,,,,,,,,,,,,,,,,,,,,,,,,,,,,,,,,,,,,,5f6bf519a0ac5f171d604e74,6036d866a668505c4ea4e70b,2021-02-24_22h51.56.207,Colour_Similarity_Experiment,2020.2.10,Win32,60,6036d0d9a84aa1626184a6ef,17.19034884,16.69327103,16.66666483,16.66744388,16.66563589,16.67325391,,,,,,,,,,,,,,,,,,,,PF,strong,3,,,,,,,,7,2.133645,,,,,,,,,,,,,,,,,,,,,,,,,,,,4,strong,31,50,1,0,0,response1disk,1,54,-5,5,1,0,0,rectangle,-5,5,1,0,0,0,1,0,0.000345,-5,5,1,0,0,0,53,53,102,1,,,,,,,,,,,,,,,,,,,,,
,,,,,,,,,,,,,,,,,,,,,,,,,,,,,,,,,,,,,,,,,,5f6bf519a0ac5f171d604e74,6036d866a668505c4ea4e70b,2021-02-24_22h51.56.207,Colour_Similarity_Experiment,2020.2.10,Win32,60,6036d0d9a84aa1626184a6ef,17.19034884,16.69327103,16.66666483,16.66744388,16.66563589,16.67325391,,,,,,,,,,,,,,,,,,,,PF,strong,3,,,,,,,,6,1.884385,,,,,,,,,,,,,,,,,,,,,,,,,,,,2,strong,79,34,1,0,0,response1disk,1,55,0,7,1,0,0,rectangle,0,7,1,0,0,0,4,0,0.00118,0,7,1,0,0,0,54,54,85,1,,,,,,,,,,,,,,,,,,,,,
,,,,,,,,,,,,,,,,,,,,,,,,,,,,,,,,,,,,,,,,,,5f6bf519a0ac5f171d604e74,6036d866a668505c4ea4e70b,2021-02-24_22h51.56.207,Colour_Similarity_Experiment,2020.2.10,Win32,60,6036d0d9a84aa1626184a6ef,17.19034884,16.69327103,16.66666483,16.66744388,16.66563589,16.67325391,,,,,,,,,,,,,,,,,,,,PF,strong,3,,,,,,,,7,1.550245,,,,,,,,,,,,,,,,,,,,,,,,,,,,7,strong,42,69,1,0,0,response1disk,4,56,4,3,1,0,0,rectangle,4,3,1,0,0,0,0,0,0.002375,4,3,1,0,0,0,55,55,158,1,,,,,,,,,,,,,,,,,,,,,
,,,,,,,,,,,,,,,,,,,,,,,,,,,,,,,,,,,,,,,,,,5f6bf519a0ac5f171d604e74,6036d866a668505c4ea4e70b,2021-02-24_22h51.56.207,Colour_Similarity_Experiment,2020.2.10,Win32,60,6036d0d9a84aa1626184a6ef,17.19034884,16.69327103,16.66666483,16.66744388,16.66563589,16.67325391,,,,,,,,,,,,,,,,,,,,PF,weak,3,,,,,,,,7,1.130175,,,,,,,,,,,,,,,,,,,,,,,,,,,,9,weak,31,95,1,0,0,response1disk,6,57,4,-3,1,0,0,rectangle,4,-3,1,0,0,0,4,0,0.0014,4,-3,1,0,0,0,56,56,148,1,,,,,,,,,,,,,,,,,,,,,
,,,,,,,,,,,,,,,,,,,,,,,,,,,,,,,,,,,,,,,,,,5f6bf519a0ac5f171d604e74,6036d866a668505c4ea4e70b,2021-02-24_22h51.56.207,Colour_Similarity_Experiment,2020.2.10,Win32,60,6036d0d9a84aa1626184a6ef,17.19034884,16.69327103,16.66666483,16.66744388,16.66563589,16.67325391,,,,,,,,,,,,,,,,,,,,PF,weak,3,,,,,,,,7,2.277,,,,,,,,,,,,,,,,,,,,,,,,,,,,8,weak,37,90,1,0,0,response1disk,2,58,0,8,1,0,0,rectangle,0,8,1,0,0,0,1,0,0.00173,0,8,1,0,0,0,57,57,83,1,,,,,,,,,,,,,,,,,,,,,
,,,,,,,,,,,,,,,,,,,,,,,,,,,,,,,,,,,,,,,,,,5f6bf519a0ac5f171d604e74,6036d866a668505c4ea4e70b,2021-02-24_22h51.56.207,Colour_Similarity_Experiment,2020.2.10,Win32,60,6036d0d9a84aa1626184a6ef,17.19034884,16.69327103,16.66666483,16.66744388,16.66563589,16.67325391,,,,,,,,,,,,,,,,,,,,PF,weak,3,,,,,,,,7,1.56501,,,,,,,,,,,,,,,,,,,,,,,,,,,,1,weak,42,67,1,0,0,response1disk,8,59,1,7,1,0,0,rectangle,1,7,1,0,0,0,5,0,0.001435,1,7,1,0,0,0,58,58,65,1,,,,,,,,,,,,,,,,,,,,,
,,,,,,,,,,,,,,,,,,,,,,,,,,,,,,,,,,,,,,,,,,5f6bf519a0ac5f171d604e74,6036d866a668505c4ea4e70b,2021-02-24_22h51.56.207,Colour_Similarity_Experiment,2020.2.10,Win32,60,6036d0d9a84aa1626184a6ef,17.19034884,16.69327103,16.66666483,16.66744388,16.66563589,16.67325391,,,,,,,,,,,,,,,,,,,,PF,strong,3,,,,,,,,5,2.26674,,,,,,,,,,,,,,,,,,,,,,,,,,,,7,strong,91,-41,1,0,0,response3disk,6,60,-8,-5,1,0,0,rectangle,-8,-5,1,0,0,0,6,0,0.001685,-8,-5,1,0,0,0,59,59,31,1,,,,,,,,,,,,,,,,,,,,,
,,,,,,,,,,,,,,,,,,,,,,,,,,,,,,,,,,,,,,,,,,5f6bf519a0ac5f171d604e74,6036d866a668505c4ea4e70b,2021-02-24_22h51.56.207,Colour_Similarity_Experiment,2020.2.10,Win32,60,6036d0d9a84aa1626184a6ef,17.19034884,16.69327103,16.66666483,16.66744388,16.66563589,16.67325391,,,,,,,,,,,,,,,,,,,,PF,strong,3,,,,,,,,7,1.949355,,,,,,,,,,,,,,,,,,,,,,,,,,,,3,strong,49,80,1,0,0,response1disk,7,61,2,6,1,0,0,rectangle,2,6,1,0,0,0,3,0,0.001645,2,6,1,0,0,0,60,60,118,1,,,,,,,,,,,,,,,,,,,,,
,,,,,,,,,,,,,,,,,,,,,,,,,,,,,,,,,,,,,,,,,,5f6bf519a0ac5f171d604e74,6036d866a668505c4ea4e70b,2021-02-24_22h51.56.207,Colour_Similarity_Experiment,2020.2.10,Win32,60,6036d0d9a84aa1626184a6ef,17.19034884,16.69327103,16.66666483,16.66744388,16.66563589,16.67325391,,,,,,,,,,,,,,,,,,,,PF,weak,3,,,,,,,,5,1.684475,,,,,,,,,,,,,,,,,,,,,,,,,,,,8,weak,79,-60,1,0,0,response3disk,6,62,-6,-2,1,0,0,rectangle,85,46,1,0,0,6,6,1,2.66732,11,7,1,0,0,0,61,61,161,1,response1disk_3,rectangle,,,,,,,,,,,,,,,,,,,
,,,,,,,,,,,,,,,,,,,,,,,,,,,,,,,,,,,,,,,,,,5f6bf519a0ac5f171d604e74,6036d866a668505c4ea4e70b,2021-02-24_22h51.56.207,Colour_Similarity_Experiment,2020.2.10,Win32,60,6036d0d9a84aa1626184a6ef,17.19034884,16.69327103,16.66666483,16.66744388,16.66563589,16.67325391,,,,,,,,,,,,,,,,,,,,PF,weak,3,,,,,,,,4,4.832225,,,,,,,,,,,,,,,,,,,,,,,,,,,,2,weak,24,-87,1,0,0,response3disk,3,63,-3,0,1,0,0,rectangle,-3,0,1,0,0,6,0,0,0.00186,-3,0,1,0,0,0,62,62,69,1,,,,,,,,,,,,,,,,,,,,,
,,,,,,,,,,,,,,,,,,,,,,,,,,,,,,,,,,,,,,,,,,5f6bf519a0ac5f171d604e74,6036d866a668505c4ea4e70b,2021-02-24_22h51.56.207,Colour_Similarity_Experiment,2020.2.10,Win32,60,6036d0d9a84aa1626184a6ef,17.19034884,16.69327103,16.66666483,16.66744388,16.66563589,16.67325391,,,,,,,,,,,,,,,,,,,,PF,strong,3,,,,,,,,7,1.76728,,,,,,,,,,,,,,,,,,,,,,,,,,,,1,strong,49,78,1,0,0,response1disk,8,64,-2,7,1,0,0,rectangle,-2,7,1,0,0,6,1,0,0.001245,-2,7,1,0,0,0,63,63,27,1,,,,,,,,,,,,,,,,,,,,,
,,,,,,,,,,,,,,,,,,,,,,,,,,,,,,,,,,,,,,,,,,5f6bf519a0ac5f171d604e74,6036d866a668505c4ea4e70b,2021-02-24_22h51.56.207,Colour_Similarity_Experiment,2020.2.10,Win32,60,6036d0d9a84aa1626184a6ef,17.19034884,16.69327103,16.66666483,16.66744388,16.66563589,16.67325391,,,,,,,,,,,,,,,,,,,,PF,strong,3,,,,,,,,6,5.316775,,,,,,,,,,,,,,,,,,,,,,,,,,,,9,strong,94,29,1,0,0,response1disk,7,65,-1,4,1,0,0,rectangle,-1,4,1,0,0,6,5,0,0.00189,-1,4,1,0,0,0,64,64,100,1,,,,,,,,,,,,,,,,,,,,,
,,,,,,,,,,,,,,,,,,,,,,,,,,,,,,,,,,,,,,,,,,5f6bf519a0ac5f171d604e74,6036d866a668505c4ea4e70b,2021-02-24_22h51.56.207,Colour_Similarity_Experiment,2020.2.10,Win32,60,6036d0d9a84aa1626184a6ef,17.19034884,16.69327103,16.66666483,16.66744388,16.66563589,16.67325391,,,,,,,,,,,,,,,,,,,,PF,weak,3,,,,,,,,7,1.35872,,,,,,,,,,,,,,,,,,,,,,,,,,,,1,weak,44,73,1,0,0,response1disk,4,66,-5,1,1,0,0,rectangle,-5,1,1,0,0,6,4,0,0.00211,-5,1,1,0,0,0,65,65,139,1,,,,,,,,,,,,,,,,,,,,,
,,,,,,,,,,,,,,,,,,,,,,,,,,,,,,,,,,,,,,,,,,5f6bf519a0ac5f171d604e74,6036d866a668505c4ea4e70b,2021-02-24_22h51.56.207,Colour_Similarity_Experiment,2020.2.10,Win32,60,6036d0d9a84aa1626184a6ef,17.19034884,16.69327103,16.66666483,16.66744388,16.66563589,16.67325391,,,,,,,,,,,,,,,,,,,,PF,strong,3,,,,,,,,7,1.066975,,,,,,,,,,,,,,,,,,,,,,,,,,,,9,strong,36,71,1,0,0,response1disk,4,67,-15,-4,1,0,0,rectangle,-15,-4,1,0,0,6,4,0,0.00022,-15,-4,1,0,0,0,66,66,60,1,,,,,,,,,,,,,,,,,,,,,
,,,,,,,,,,,,,,,,,,,,,,,,,,,,,,,,,,,,,,,,,,5f6bf519a0ac5f171d604e74,6036d866a668505c4ea4e70b,2021-02-24_22h51.56.207,Colour_Similarity_Experiment,2020.2.10,Win32,60,6036d0d9a84aa1626184a6ef,17.19034884,16.69327103,16.66666483,16.66744388,16.66563589,16.67325391,,,,,,,,,,,,,,,,,,,,PF,strong,3,,,,,,,,0,2.051975,,,,,,,,,,,,,,,,,,,,,,,,,,,,1,strong,-42,72,1,0,0,response7disk,1,68,2,9,1,0,0,rectangle,2,9,1,0,0,6,1,0,0.00137,2,9,1,0,0,0,67,67,151,1,,,,,,,,,,,,,,,,,,,,,
,,,,,,,,,,,,,,,,,,,,,,,,,,,,,,,,,,,,,,,,,,5f6bf519a0ac5f171d604e74,6036d866a668505c4ea4e70b,2021-02-24_22h51.56.207,Colour_Similarity_Experiment,2020.2.10,Win32,60,6036d0d9a84aa1626184a6ef,17.19034884,16.69327103,16.66666483,16.66744388,16.66563589,16.67325391,,,,,,,,,,,,,,,,,,,,PF,weak,3,,,,,,,,0,3.05253,,,,,,,,,,,,,,,,,,,,,,,,,,,,8,weak,-32,61,1,0,0,response7disk,8,69,-7,14,1,0,0,rectangle,-7,14,1,0,0,6,6,0,0.002625,-7,14,1,0,0,0,68,68,153,1,,,,,,,,,,,,,,,,,,,,,
,,,,,,,,,,,,,,,,,,,,,,,,,,,,,,,,,,,,,,,,,,5f6bf519a0ac5f171d604e74,6036d866a668505c4ea4e70b,2021-02-24_22h51.56.207,Colour_Similarity_Experiment,2020.2.10,Win32,60,6036d0d9a84aa1626184a6ef,17.19034884,16.69327103,16.66666483,16.66744388,16.66563589,16.67325391,,,,,,,,,,,,,,,,,,,,PF,weak,3,,,,,,,,4,3.14875,,,,,,,,,,,,,,,,,,,,,,,,,,,,7,weak,30,-71,1,0,0,response3disk,5,70,2,8,1,0,0,rectangle,2,8,1,0,0,6,4,0,0.001575,2,8,1,0,0,0,69,69,92,1,,,,,,,,,,,,,,,,,,,,,
,,,,,,,,,,,,,,,,,,,,,,,,,,,,,,,,,,,,,,,,,,5f6bf519a0ac5f171d604e74,6036d866a668505c4ea4e70b,2021-02-24_22h51.56.207,Colour_Similarity_Experiment,2020.2.10,Win32,60,6036d0d9a84aa1626184a6ef,17.19034884,16.69327103,16.66666483,16.66744388,16.66563589,16.67325391,,,,,,,,,,,,,,,,,,,,PF,strong,3,,,,,,,,2,3.882725,,,,,,,,,,,,,,,,,,,,,,,,,,,,3,strong,-64,-32,1,0,0,response5disk,2,71,7,5,1,0,0,rectangle,7,5,1,0,0,6,2,0,0.0017,7,5,1,0,0,0,70,70,93,1,,,,,,,,,,,,,,,,,,,,,
,,,,,,,,,,,,,,,,,,,,,,,,,,,,,,,,,,,,,,,,,,5f6bf519a0ac5f171d604e74,6036d866a668505c4ea4e70b,2021-02-24_22h51.56.207,Colour_Similarity_Experiment,2020.2.10,Win32,60,6036d0d9a84aa1626184a6ef,17.19034884,16.69327103,16.66666483,16.66744388,16.66563589,16.67325391,,,,,,,,,,,,,,,,,,,,PF,weak,3,,,,,,,,7,1.06693,,,,,,,,,,,,,,,,,,,,,,,,,,,,3,weak,41,81,1,0,0,response1disk,6,72,-9,3,1,0,0,rectangle,-9,3,1,0,0,6,3,0,0.00243,-9,3,1,0,0,0,71,71,47,1,,,,,,,,,,,,,,,,,,,,,
,,,,,,,,,,,,,,,,,,,,,,,,,,,,,,,,,,,,,,,,,,5f6bf519a0ac5f171d604e74,6036d866a668505c4ea4e70b,2021-02-24_22h51.56.207,Colour_Similarity_Experiment,2020.2.10,Win32,60,6036d0d9a84aa1626184a6ef,17.19034884,16.69327103,16.66666483,16.66744388,16.66563589,16.67325391,,,,,,,,,,,,,,,,,,,,PF,weak,3,,,,,,,,7,1.00886,,,,,,,,,,,,,,,,,,,,,,,,,,,,1,weak,49,73,1,0,0,response1disk,6,73,8,6,1,0,0,rectangle,8,6,1,0,0,6,1,0,0.0014,8,6,1,0,0,0,72,72,144,1,,,,,,,,,,,,,,,,,,,,,
,,,,,,,,,,,,,,,,,,,,,,,,,,,,,,,,,,,,,,,,,,5f6bf519a0ac5f171d604e74,6036d866a668505c4ea4e70b,2021-02-24_22h51.56.207,Colour_Similarity_Experiment,2020.2.10,Win32,60,6036d0d9a84aa1626184a6ef,17.19034884,16.69327103,16.66666483,16.66744388,16.66563589,16.67325391,,,,,,,,,,,,,,,,,,,,PF,weak,3,,,,,,,,7,3.432755,,,,,,,,,,,,,,,,,,,,,,,,,,,,9,weak,54,68,1,0,0,response1disk,2,74,1,5,1,0,0,rectangle,1,5,1,0,0,6,3,0,0.002015,1,5,1,0,0,0,73,73,157,1,,,,,,,,,,,,,,,,,,,,,
,,,,,,,,,,,,,,,,,,,,,,,,,,,,,,,,,,,,,,,,,,5f6bf519a0ac5f171d604e74,6036d866a668505c4ea4e70b,2021-02-24_22h51.56.207,Colour_Similarity_Experiment,2020.2.10,Win32,60,6036d0d9a84aa1626184a6ef,17.19034884,16.69327103,16.66666483,16.66744388,16.66563589,16.67325391,,,,,,,,,,,,,,,,,,,,PF,strong,3,,,,,,,,6,4.65419,,,,,,,,,,,,,,,,,,,,,,,,,,,,4,strong,63,34,1,0,0,response1disk,2,75,0,3,1,0,0,rectangle,0,3,1,0,0,6,2,0,0.00118,0,3,1,0,0,0,74,74,13,1,,,,,,,,,,,,,,,,,,,,,
,,,,,,,,,,,,,,,,,,,,,,,,,,,,,,,,,,,,,,,,,,5f6bf519a0ac5f171d604e74,6036d866a668505c4ea4e70b,2021-02-24_22h51.56.207,Colour_Similarity_Experiment,2020.2.10,Win32,60,6036d0d9a84aa1626184a6ef,17.19034884,16.69327103,16.66666483,16.66744388,16.66563589,16.67325391,,,,,,,,,,,,,,,,,,,,PF,weak,3,,,,,,,,0,1.333355,,,,,,,,,,,,,,,,,,,,,,,,,,,,9,weak,-33,95,1,0,0,response7disk,9,76,-1,4,1,0,0,rectangle,-1,4,1,0,0,6,4,0,0.00464,-1,4,1,0,0,0,75,75,106,1,,,,,,,,,,,,,,,,,,,,,
,,,,,,,,,,,,,,,,,,,,,,,,,,,,,,,,,,,,,,,,,,5f6bf519a0ac5f171d604e74,6036d866a668505c4ea4e70b,2021-02-24_22h51.56.207,Colour_Similarity_Experiment,2020.2.10,Win32,60,6036d0d9a84aa1626184a6ef,17.19034884,16.69327103,16.66666483,16.66744388,16.66563589,16.67325391,,,,,,,,,,,,,,,,,,,,PF,weak,3,,,,,,,,1,2.23455,,,,,,,,,,,,,,,,,,,,,,,,,,,,6,weak,-80,43,1,0,0,response7disk,4,77,-5,4,1,0,0,rectangle,-5,4,1,0,0,6,1,0,0.00175,-5,4,1,0,0,0,76,76,33,1,,,,,,,,,,,,,,,,,,,,,
,,,,,,,,,,,,,,,,,,,,,,,,,,,,,,,,,,,,,,,,,,5f6bf519a0ac5f171d604e74,6036d866a668505c4ea4e70b,2021-02-24_22h51.56.207,Colour_Similarity_Experiment,2020.2.10,Win32,60,6036d0d9a84aa1626184a6ef,17.19034884,16.69327103,16.66666483,16.66744388,16.66563589,16.67325391,,,,,,,,,,,,,,,,,,,,PF,strong,3,,,,,,,,7,1.64421,,,,,,,,,,,,,,,,,,,,,,,,,,,,1,strong,39,102,1,0,0,response1disk,4,78,-3,7,1,0,0,rectangle,-3,7,1,0,0,6,6,0,0.001635,-3,7,1,0,0,0,77,77,135,1,,,,,,,,,,,,,,,,,,,,,
,,,,,,,,,,,,,,,,,,,,,,,,,,,,,,,,,,,,,,,,,,5f6bf519a0ac5f171d604e74,6036d866a668505c4ea4e70b,2021-02-24_22h51.56.207,Colour_Similarity_Experiment,2020.2.10,Win32,60,6036d0d9a84aa1626184a6ef,17.19034884,16.69327103,16.66666483,16.66744388,16.66563589,16.67325391,,,,,,,,,,,,,,,,,,,,PF,strong,3,,,,,,,,7,1.20093,,,,,,,,,,,,,,,,,,,,,,,,,,,,3,strong,31,69,1,0,0,response1disk,6,79,-8,-3,1,0,0,rectangle,-8,-3,1,0,0,6,2,0,0.00197,-8,-3,1,0,0,0,78,78,95,1,,,,,,,,,,,,,,,,,,,,,
,,,,,,,,,,,,,,,,,,,,,,,,,,,,,,,,,,,,,,,,,,5f6bf519a0ac5f171d604e74,6036d866a668505c4ea4e70b,2021-02-24_22h51.56.207,Colour_Similarity_Experiment,2020.2.10,Win32,60,6036d0d9a84aa1626184a6ef,17.19034884,16.69327103,16.66666483,16.66744388,16.66563589,16.67325391,,,,,,,,,,,,,,,,,,,,PF,strong,3,,,,,,,,7,1.17856,,,,,,,,,,,,,,,,,,,,,,,,,,,,1,strong,28,90,1,0,0,response1disk,5,80,-6,6,1,0,0,rectangle,-6,6,1,0,0,6,7,0,0.001475,-6,6,1,0,0,0,79,79,82,1,,,,,,,,,,,,,,,,,,,,,
,,,,,,,,,,,,,,,,,,,,,,,,,,,,,,,,,,,,,,,,,,5f6bf519a0ac5f171d604e74,6036d866a668505c4ea4e70b,2021-02-24_22h51.56.207,Colour_Similarity_Experiment,2020.2.10,Win32,60,6036d0d9a84aa1626184a6ef,17.19034884,16.69327103,16.66666483,16.66744388,16.66563589,16.67325391,,,,,,,,,,,,,,,,,,,,PF,strong,3,,,,,,,,5,2.7495,,,,,,,,,,,,,,,,,,,,,,,,,,,,4,strong,89,-77,1,0,0,response3disk,5,81,6,-7,1,0,0,rectangle,6,-7,1,0,0,6,1,0,0.001825,6,-7,1,0,0,0,80,80,116,1,,,,,,,,,,,,,,,,,,,,,
,,,,,,,,,,,,,,,,,,,,,,,,,,,,,,,,,,,,,,,,,,5f6bf519a0ac5f171d604e74,6036d866a668505c4ea4e70b,2021-02-24_22h51.56.207,Colour_Similarity_Experiment,2020.2.10,Win32,60,6036d0d9a84aa1626184a6ef,17.19034884,16.69327103,16.66666483,16.66744388,16.66563589,16.67325391,,,,,,,,,,,,,,,,,,,,PF,strong,3,,,,,,,,5,5.936575,,,,,,,,,,,,,,,,,,,,,,,,,,,,8,strong,86,-44,1,0,0,response3disk,7,82,1,7,1,0,0,rectangle,1,7,1,0,0,6,4,0,0.001265,1,7,1,0,0,0,81,81,86,1,,,,,,,,,,,,,,,,,,,,,
,,,,,,,,,,,,,,,,,,,,,,,,,,,,,,,,,,,,,,,,,,5f6bf519a0ac5f171d604e74,6036d866a668505c4ea4e70b,2021-02-24_22h51.56.207,Colour_Similarity_Experiment,2020.2.10,Win32,60,6036d0d9a84aa1626184a6ef,17.19034884,16.69327103,16.66666483,16.66744388,16.66563589,16.67325391,,,,,,,,,,,,,,,,,,,,PF,strong,3,,,,,,,,7,3.998345,,,,,,,,,,,,,,,,,,,,,,,,,,,,5,strong,34,52,1,0,0,response1disk,2,83,9,4,1,0,0,rectangle,83,25,1,0,0,6,6,1,2.632035,5,-6,1,0,0,0,82,82,55,1,response1disk_3,rectangle,,,,,,,,,,,,,,,,,,,
,,,,,,,,,,,,,,,,,,,,,,,,,,,,,,,,,,,,,,,,,,5f6bf519a0ac5f171d604e74,6036d866a668505c4ea4e70b,2021-02-24_22h51.56.207,Colour_Similarity_Experiment,2020.2.10,Win32,60,6036d0d9a84aa1626184a6ef,17.19034884,16.69327103,16.66666483,16.66744388,16.66563589,16.67325391,,,,,,,,,,,,,,,,,,,,PF,weak,3,,,,,,,,4,4.03368,,,,,,,,,,,,,,,,,,,,,,,,,,,,2,weak,53,-86,1,0,0,response3disk,1,84,-10,-5,1,0,0,rectangle,-10,-5,1,0,0,6,0,0,0.00215,-10,-5,1,0,0,0,83,83,9,1,,,,,,,,,,,,,,,,,,,,,
,,,,,,,,,,,,,,,,,,,,,,,,,,,,,,,,,,,,,,,,,,5f6bf519a0ac5f171d604e74,6036d866a668505c4ea4e70b,2021-02-24_22h51.56.207,Colour_Similarity_Experiment,2020.2.10,Win32,60,6036d0d9a84aa1626184a6ef,17.19034884,16.69327103,16.66666483,16.66744388,16.66563589,16.67325391,,,,,,,,,,,,,,,,,,,,PF,strong,3,,,,,,,,7,4.113225,,,,,,,,,,,,,,,,,,,,,,,,,,,,8,strong,46,94,1,0,0,response1disk,1,85,1,7,1,0,0,rectangle,1,7,1,0,0,6,1,0,0.001755,1,7,1,0,0,0,84,84,20,1,,,,,,,,,,,,,,,,,,,,,
,,,,,,,,,,,,,,,,,,,,,,,,,,,,,,,,,,,,,,,,,,5f6bf519a0ac5f171d604e74,6036d866a668505c4ea4e70b,2021-02-24_22h51.56.207,Colour_Similarity_Experiment,2020.2.10,Win32,60,6036d0d9a84aa1626184a6ef,17.19034884,16.69327103,16.66666483,16.66744388,16.66563589,16.67325391,,,,,,,,,,,,,,,,,,,,PF,weak,3,,,,,,,,7,1.24987,,,,,,,,,,,,,,,,,,,,,,,,,,,,9,weak,31,58,1,0,0,response1disk,1,86,16,4,1,0,0,rectangle,16,4,1,0,0,6,1,0,0.000345,16,4,1,0,0,0,85,85,74,1,,,,,,,,,,,,,,,,,,,,,
,,,,,,,,,,,,,,,,,,,,,,,,,,,,,,,,,,,,,,,,,,5f6bf519a0ac5f171d604e74,6036d866a668505c4ea4e70b,2021-02-24_22h51.56.207,Colour_Similarity_Experiment,2020.2.10,Win32,60,6036d0d9a84aa1626184a6ef,17.19034884,16.69327103,16.66666483,16.66744388,16.66563589,16.67325391,,,,,,,,,,,,,,,,,,,,PF,weak,3,,,,,,,,5,2.399195,,,,,,,,,,,,,,,,,,,,,,,,,,,,4,weak,88,-46,1,0,0,response3disk,2,87,2,2,1,0,0,rectangle,2,2,1,0,0,6,2,0,0.001845,2,2,1,0,0,0,86,86,108,1,,,,,,,,,,,,,,,,,,,,,
,,,,,,,,,,,,,,,,,,,,,,,,,,,,,,,,,,,,,,,,,,5f6bf519a0ac5f171d604e74,6036d866a668505c4ea4e70b,2021-02-24_22h51.56.207,Colour_Similarity_Experiment,2020.2.10,Win32,60,6036d0d9a84aa1626184a6ef,17.19034884,16.69327103,16.66666483,16.66744388,16.66563589,16.67325391,,,,,,,,,,,,,,,,,,,,PF,weak,3,,,,,,,,6,1.5171,,,,,,,,,,,,,,,,,,,,,,,,,,,,8,weak,82,42,1,0,0,response1disk,7,88,-8,0,1,0,0,rectangle,-8,0,1,0,0,6,0,0,0.001845,-8,0,1,0,0,0,87,87,23,1,,,,,,,,,,,,,,,,,,,,,
,,,,,,,,,,,,,,,,,,,,,,,,,,,,,,,,,,,,,,,,,,5f6bf519a0ac5f171d604e74,6036d866a668505c4ea4e70b,2021-02-24_22h51.56.207,Colour_Similarity_Experiment,2020.2.10,Win32,60,6036d0d9a84aa1626184a6ef,17.19034884,16.69327103,16.66666483,16.66744388,16.66563589,16.67325391,,,,,,,,,,,,,,,,,,,,PF,strong,3,,,,,,,,6,2.117245,,,,,,,,,,,,,,,,,,,,,,,,,,,,5,strong,98,57,1,0,0,response1disk,7,89,8,5,1,0,0,rectangle,8,5,1,0,0,6,7,0,0.001825,8,5,1,0,0,0,88,88,7,1,,,,,,,,,,,,,,,,,,,,,
,,,,,,,,,,,,,,,,,,,,,,,,,,,,,,,,,,,,,,,,,,5f6bf519a0ac5f171d604e74,6036d866a668505c4ea4e70b,2021-02-24_22h51.56.207,Colour_Similarity_Experiment,2020.2.10,Win32,60,6036d0d9a84aa1626184a6ef,17.19034884,16.69327103,16.66666483,16.66744388,16.66563589,16.67325391,,,,,,,,,,,,,,,,,,,,PF,strong,3,,,,,,,,2,3.069055,,,,,,,,,,,,,,,,,,,,,,,,,,,,6,strong,-90,-22,1,0,0,response5disk,4,90,-1,8,1,0,0,rectangle,-1,8,1,0,0,6,5,0,0.00164,-1,8,1,0,0,0,89,89,56,1,,,,,,,,,,,,,,,,,,,,,
,,,,,,,,,,,,,,,,,,,,,,,,,,,,,,,,,,,,,,,,,,5f6bf519a0ac5f171d604e74,6036d866a668505c4ea4e70b,2021-02-24_22h51.56.207,Colour_Similarity_Experiment,2020.2.10,Win32,60,6036d0d9a84aa1626184a6ef,17.19034884,16.69327103,16.66666483,16.66744388,16.66563589,16.67325391,,,,,,,,,,,,,,,,,,,,PF,weak,3,,,,,,,,7,1.7671,,,,,,,,,,,,,,,,,,,,,,,,,,,,2,weak,45,87,1,0,0,response1disk,5,91,4,5,1,0,0,rectangle,4,5,1,0,0,6,4,0,0.001715,4,5,1,0,0,0,90,90,147,1,,,,,,,,,,,,,,,,,,,,,
,,,,,,,,,,,,,,,,,,,,,,,,,,,,,,,,,,,,,,,,,,5f6bf519a0ac5f171d604e74,6036d866a668505c4ea4e70b,2021-02-24_22h51.56.207,Colour_Similarity_Experiment,2020.2.10,Win32,60,6036d0d9a84aa1626184a6ef,17.19034884,16.69327103,16.66666483,16.66744388,16.66563589,16.67325391,,,,,,,,,,,,,,,,,,,,PF,strong,3,,,,,,,,0,1.36635,,,,,,,,,,,,,,,,,,,,,,,,,,,,4,strong,-46,85,1,0,0,response7disk,3,92,2,11,1,0,0,rectangle,2,11,1,0,0,6,5,0,0.002125,2,11,1,0,0,0,91,91,77,1,,,,,,,,,,,,,,,,,,,,,
,,,,,,,,,,,,,,,,,,,,,,,,,,,,,,,,,,,,,,,,,,5f6bf519a0ac5f171d604e74,6036d866a668505c4ea4e70b,2021-02-24_22h51.56.207,Colour_Similarity_Experiment,2020.2.10,Win32,60,6036d0d9a84aa1626184a6ef,17.19034884,16.69327103,16.66666483,16.66744388,16.66563589,16.67325391,,,,,,,,,,,,,,,,,,,,PF,strong,3,,,,,,,,5,3.183705,,,,,,,,,,,,,,,,,,,,,,,,,,,,8,strong,87,-23,1,0,0,response3disk,2,93,-14,-3,1,0,0,rectangle,-14,-3,1,0,0,6,3,0,0.002025,-14,-3,1,0,0,0,92,92,22,1,,,,,,,,,,,,,,,,,,,,,
,,,,,,,,,,,,,,,,,,,,,,,,,,,,,,,,,,,,,,,,,,5f6bf519a0ac5f171d604e74,6036d866a668505c4ea4e70b,2021-02-24_22h51.56.207,Colour_Similarity_Experiment,2020.2.10,Win32,60,6036d0d9a84aa1626184a6ef,17.19034884,16.69327103,16.66666483,16.66744388,16.66563589,16.67325391,,,,,,,,,,,,,,,,,,,,PF,weak,3,,,,,,,,0,1.16239,,,,,,,,,,,,,,,,,,,,,,,,,,,,2,weak,-38,113,1,0,0,response7disk,2,94,16,4,1,0,0,rectangle,16,4,1,0,0,6,5,0,0.00336,16,4,1,0,0,0,93,93,14,1,,,,,,,,,,,,,,,,,,,,,
,,,,,,,,,,,,,,,,,,,,,,,,,,,,,,,,,,,,,,,,,,5f6bf519a0ac5f171d604e74,6036d866a668505c4ea4e70b,2021-02-24_22h51.56.207,Colour_Similarity_Experiment,2020.2.10,Win32,60,6036d0d9a84aa1626184a6ef,17.19034884,16.69327103,16.66666483,16.66744388,16.66563589,16.67325391,,,,,,,,,,,,,,,,,,,,PF,weak,3,,,,,,,,4,4.11654,,,,,,,,,,,,,,,,,,,,,,,,,,,,6,weak,29,-85,1,0,0,response3disk,3,95,1,-2,1,0,0,rectangle,1,-2,1,0,0,6,7,0,0.00173,1,-2,1,0,0,0,94,94,26,1,,,,,,,,,,,,,,,,,,,,,
,,,,,,,,,,,,,,,,,,,,,,,,,,,,,,,,,,,,,,,,,,5f6bf519a0ac5f171d604e74,6036d866a668505c4ea4e70b,2021-02-24_22h51.56.207,Colour_Similarity_Experiment,2020.2.10,Win32,60,6036d0d9a84aa1626184a6ef,17.19034884,16.69327103,16.66666483,16.66744388,16.66563589,16.67325391,,,,,,,,,,,,,,,,,,,,PF,strong,3,,,,,,,,4,2.668595,,,,,,,,,,,,,,,,,,,,,,,,,,,,4,strong,41,-69,1,0,0,response3disk,6,96,1,-4,1,0,0,rectangle,1,-4,1,0,0,6,0,0,0.001265,1,-4,1,0,0,0,95,95,122,1,,,,,,,,,,,,,,,,,,,,,
,,,,,,,,,,,,,,,,,,,,,,,,,,,,,,,,,,,,,,,,,,5f6bf519a0ac5f171d604e74,6036d866a668505c4ea4e70b,2021-02-24_22h51.56.207,Colour_Similarity_Experiment,2020.2.10,Win32,60,6036d0d9a84aa1626184a6ef,17.19034884,16.69327103,16.66666483,16.66744388,16.66563589,16.67325391,,,,,,,,,,,,,,,,,,,,PF,weak,3,,,,,,,,5,5.46747,,,,,,,,,,,,,,,,,,,,,,,,,,,,8,weak,99,-40,1,0,0,response3disk,1,97,4,6,1,0,0,rectangle,4,6,1,0,0,6,3,0,0.001665,4,6,1,0,0,0,96,96,57,1,,,,,,,,,,,,,,,,,,,,,
,,,,,,,,,,,,,,,,,,,,,,,,,,,,,,,,,,,,,,,,,,5f6bf519a0ac5f171d604e74,6036d866a668505c4ea4e70b,2021-02-24_22h51.56.207,Colour_Similarity_Experiment,2020.2.10,Win32,60,6036d0d9a84aa1626184a6ef,17.19034884,16.69327103,16.66666483,16.66744388,16.66563589,16.67325391,,,,,,,,,,,,,,,,,,,,PF,weak,3,,,,,,,,7,2.150745,,,,,,,,,,,,,,,,,,,,,,,,,,,,3,weak,40,61,1,0,0,response1disk,9,98,-1,1,1,0,0,rectangle,-1,1,1,0,0,6,4,0,0.002185,-1,1,1,0,0,0,97,97,79,1,,,,,,,,,,,,,,,,,,,,,
,,,,,,,,,,,,,,,,,,,,,,,,,,,,,,,,,,,,,,,,,,5f6bf519a0ac5f171d604e74,6036d866a668505c4ea4e70b,2021-02-24_22h51.56.207,Colour_Similarity_Experiment,2020.2.10,Win32,60,6036d0d9a84aa1626184a6ef,17.19034884,16.69327103,16.66666483,16.66744388,16.66563589,16.67325391,,,,,,,,,,,,,,,,,,,,PF,weak,3,,,,,,,,5,1.792345,,,,,,,,,,,,,,,,,,,,,,,,,,,,9,weak,106,-40,1,0,0,response3disk,8,99,18,-3,1,0,0,rectangle,18,-3,1,0,0,6,5,0,0.00185,18,-3,1,0,0,0,98,98,67,1,,,,,,,,,,,,,,,,,,,,,
,,,,,,,,,,,,,,,,,,,,,,,,,,,,,,,,,,,,,,,,,,5f6bf519a0ac5f171d604e74,6036d866a668505c4ea4e70b,2021-02-24_22h51.56.207,Colour_Similarity_Experiment,2020.2.10,Win32,60,6036d0d9a84aa1626184a6ef,17.19034884,16.69327103,16.66666483,16.66744388,16.66563589,16.67325391,,,,,,,,,,,,,,,,,,,,PF,weak,3,,,,,,,,6,3.031485,,,,,,,,,,,,,,,,,,,,,,,,,,,,2,weak,97,41,1,0,0,response1disk,4,100,9,-5,1,0,0,rectangle,9,-5,1,0,0,6,3,0,0.00248,9,-5,1,0,0,0,99,99,127,1,,,,,,,,,,,,,,,,,,,,,
,,,,,,,,,,,,,,,,,,,,,,,,,,,,,,,,,,,,,,,,,,5f6bf519a0ac5f171d604e74,6036d866a668505c4ea4e70b,2021-02-24_22h51.56.207,Colour_Similarity_Experiment,2020.2.10,Win32,60,6036d0d9a84aa1626184a6ef,17.19034884,16.69327103,16.66666483,16.66744388,16.66563589,16.67325391,,,,,,,,,,,,,,,,,,,,PF,strong,3,,,,,,,,6,1.699635,,,,,,,,,,,,,,,,,,,,,,,,,,,,7,strong,108,31,1,0,0,response1disk,5,101,4,3,1,0,0,rectangle,4,3,1,0,0,6,4,0,0.00248,4,3,1,0,0,0,100,100,156,1,,,,,,,,,,,,,,,,,,,,,
,,,,,,,,,,,,,,,,,,,,,,,,,,,,,,,,,,,,,,,,,,5f6bf519a0ac5f171d604e74,6036d866a668505c4ea4e70b,2021-02-24_22h51.56.207,Colour_Similarity_Experiment,2020.2.10,Win32,60,6036d0d9a84aa1626184a6ef,17.19034884,16.69327103,16.66666483,16.66744388,16.66563589,16.67325391,,,,,,,,,,,,,,,,,,,,PF,weak,3,,,,,,,,5,1.58282,,,,,,,,,,,,,,,,,,,,,,,,,,,,6,weak,52,-24,1,0,0,response3disk,8,102,6,-5,1,0,0,rectangle,6,-5,1,0,0,6,5,0,0.00232,6,-5,1,0,0,0,101,101,64,1,,,,,,,,,,,,,,,,,,,,,
,,,,,,,,,,,,,,,,,,,,,,,,,,,,,,,,,,,,,,,,,,5f6bf519a0ac5f171d604e74,6036d866a668505c4ea4e70b,2021-02-24_22h51.56.207,Colour_Similarity_Experiment,2020.2.10,Win32,60,6036d0d9a84aa1626184a6ef,17.19034884,16.69327103,16.66666483,16.66744388,16.66563589,16.67325391,,,,,,,,,,,,,,,,,,,,PF,strong,3,,,,,,,,4,2.97531,,,,,,,,,,,,,,,,,,,,,,,,,,,,6,strong,52,-82,1,0,0,response3disk,1,103,-2,-3,1,0,0,rectangle,-2,-3,1,0,0,6,3,0,0.00118,-2,-3,1,0,0,0,102,102,5,1,,,,,,,,,,,,,,,,,,,,,
,,,,,,,,,,,,,,,,,,,,,,,,,,,,,,,,,,,,,,,,,,5f6bf519a0ac5f171d604e74,6036d866a668505c4ea4e70b,2021-02-24_22h51.56.207,Colour_Similarity_Experiment,2020.2.10,Win32,60,6036d0d9a84aa1626184a6ef,17.19034884,16.69327103,16.66666483,16.66744388,16.66563589,16.67325391,,,,,,,,,,,,,,,,,,,,PF,weak,3,,,,,,,,7,1.64941,,,,,,,,,,,,,,,,,,,,,,,,,,,,3,weak,54,62,1,0,0,response1disk,5,104,0,7,1,0,0,rectangle,0,7,1,0,0,6,3,0,0.000325,0,7,1,0,0,0,103,103,66,1,,,,,,,,,,,,,,,,,,,,,
,,,,,,,,,,,,,,,,,,,,,,,,,,,,,,,,,,,,,,,,,,5f6bf519a0ac5f171d604e74,6036d866a668505c4ea4e70b,2021-02-24_22h51.56.207,Colour_Similarity_Experiment,2020.2.10,Win32,60,6036d0d9a84aa1626184a6ef,17.19034884,16.69327103,16.66666483,16.66744388,16.66563589,16.67325391,,,,,,,,,,,,,,,,,,,,PF,weak,3,,,,,,,,7,1.24978,,,,,,,,,,,,,,,,,,,,,,,,,,,,4,weak,47,74,1,0,0,response1disk,9,105,3,6,1,0,0,rectangle,3,6,1,0,0,6,1,0,0.002035,3,6,1,0,0,0,104,104,75,1,,,,,,,,,,,,,,,,,,,,,
,,,,,,,,,,,,,,,,,,,,,,,,,,,,,,,,,,,,,,,,,,5f6bf519a0ac5f171d604e74,6036d866a668505c4ea4e70b,2021-02-24_22h51.56.207,Colour_Similarity_Experiment,2020.2.10,Win32,60,6036d0d9a84aa1626184a6ef,17.19034884,16.69327103,16.66666483,16.66744388,16.66563589,16.67325391,,,,,,,,,,,,,,,,,,,,PF,strong,3,,,,,,,,0,1.333055,,,,,,,,,,,,,,,,,,,,,,,,,,,,3,strong,-38,68,1,0,0,response7disk,4,106,11,6,1,0,0,rectangle,11,6,1,0,0,6,4,0,0.00311,11,6,1,0,0,0,105,105,110,1,,,,,,,,,,,,,,,,,,,,,
,,,,,,,,,,,,,,,,,,,,,,,,,,,,,,,,,,,,,,,,,,5f6bf519a0ac5f171d604e74,6036d866a668505c4ea4e70b,2021-02-24_22h51.56.207,Colour_Similarity_Experiment,2020.2.10,Win32,60,6036d0d9a84aa1626184a6ef,17.19034884,16.69327103,16.66666483,16.66744388,16.66563589,16.67325391,,,,,,,,,,,,,,,,,,,,PF,strong,3,,,,,,,,0,1.8002,,,,,,,,,,,,,,,,,,,,,,,,,,,,3,strong,-47,89,1,0,0,response7disk,1,107,5,13,1,0,0,rectangle,5,13,1,0,0,6,6,0,0.002545,5,13,1,0,0,0,106,106,125,1,,,,,,,,,,,,,,,,,,,,,
,,,,,,,,,,,,,,,,,,,,,,,,,,,,,,,,,,,,,,,,,,5f6bf519a0ac5f171d604e74,6036d866a668505c4ea4e70b,2021-02-24_22h51.56.207,Colour_Similarity_Experiment,2020.2.10,Win32,60,6036d0d9a84aa1626184a6ef,17.19034884,16.69327103,16.66666483,16.66744388,16.66563589,16.67325391,,,,,,,,,,,,,,,,,,,,PF,weak,3,,,,,,,,7,1.14394,,,,,,,,,,,,,,,,,,,,,,,,,,,,3,weak,25,82,1,0,0,response1disk,7,108,-10,3,1,0,0,rectangle,-10,3,1,0,0,6,6,0,0.000175,-10,3,1,0,0,0,107,107,41,1,,,,,,,,,,,,,,,,,,,,,
,,,,,,,,,,,,,,,,,,,,,,,,,,,,,,,,,,,,,,,,,,5f6bf519a0ac5f171d604e74,6036d866a668505c4ea4e70b,2021-02-24_22h51.56.207,Colour_Similarity_Experiment,2020.2.10,Win32,60,6036d0d9a84aa1626184a6ef,17.19034884,16.69327103,16.66666483,16.66744388,16.66563589,16.67325391,,,,,,,,,,,,,,,,,,,,PF,weak,3,,,,,,,,7,1.49961,,,,,,,,,,,,,,,,,,,,,,,,,,,,8,weak,51,74,1,0,0,response1disk,4,109,5,5,1,0,0,rectangle,5,5,1,0,0,6,5,0,0.001775,5,5,1,0,0,0,108,108,78,1,,,,,,,,,,,,,,,,,,,,,
,,,,,,,,,,,,,,,,,,,,,,,,,,,,,,,,,,,,,,,,,,5f6bf519a0ac5f171d604e74,6036d866a668505c4ea4e70b,2021-02-24_22h51.56.207,Colour_Similarity_Experiment,2020.2.10,Win32,60,6036d0d9a84aa1626184a6ef,17.19034884,16.69327103,16.66666483,16.66744388,16.66563589,16.67325391,,,,,,,,,,,,,,,,,,,,PF,strong,3,,,,,,,,3,3.52816,,,,,,,,,,,,,,,,,,,,,,,,,,,,5,strong,-42,-81,1,0,0,response5disk,3,110,-7,2,1,0,0,rectangle,-7,2,1,0,0,6,1,0,0.001295,-7,2,1,0,0,0,109,109,25,1,,,,,,,,,,,,,,,,,,,,,
,,,,,,,,,,,,,,,,,,,,,,,,,,,,,,,,,,,,,,,,,,5f6bf519a0ac5f171d604e74,6036d866a668505c4ea4e70b,2021-02-24_22h51.56.207,Colour_Similarity_Experiment,2020.2.10,Win32,60,6036d0d9a84aa1626184a6ef,17.19034884,16.69327103,16.66666483,16.66744388,16.66563589,16.67325391,,,,,,,,,,,,,,,,,,,,PF,weak,3,,,,,,,,7,4.100005,,,,,,,,,,,,,,,,,,,,,,,,,,,,9,weak,37,58,1,0,0,response1disk,7,111,8,7,1,0,0,rectangle,8,7,1,0,0,6,1,0,0.00019,8,7,1,0,0,0,110,110,121,1,,,,,,,,,,,,,,,,,,,,,
,,,,,,,,,,,,,,,,,,,,,,,,,,,,,,,,,,,,,,,,,,5f6bf519a0ac5f171d604e74,6036d866a668505c4ea4e70b,2021-02-24_22h51.56.207,Colour_Similarity_Experiment,2020.2.10,Win32,60,6036d0d9a84aa1626184a6ef,17.19034884,16.69327103,16.66666483,16.66744388,16.66563589,16.67325391,,,,,,,,,,,,,,,,,,,,PF,strong,3,,,,,,,,7,7.627125,,,,,,,,,,,,,,,,,,,,,,,,,,,,4,strong,42,71,1,0,0,response1disk,9,112,-1,3,1,0,0,rectangle,-1,3,1,0,0,6,4,0,0.00147,-1,3,1,0,0,0,111,111,90,1,,,,,,,,,,,,,,,,,,,,,
,,,,,,,,,,,,,,,,,,,,,,,,,,,,,,,,,,,,,,,,,,5f6bf519a0ac5f171d604e74,6036d866a668505c4ea4e70b,2021-02-24_22h51.56.207,Colour_Similarity_Experiment,2020.2.10,Win32,60,6036d0d9a84aa1626184a6ef,17.19034884,16.69327103,16.66666483,16.66744388,16.66563589,16.67325391,,,,,,,,,,,,,,,,,,,,PF,weak,3,,,,,,,,7,1.16575,,,,,,,,,,,,,,,,,,,,,,,,,,,,4,weak,33,65,1,0,0,response1disk,1,113,5,10,1,0,0,rectangle,5,10,1,0,0,6,6,0,0.00156,5,10,1,0,0,0,112,112,115,1,,,,,,,,,,,,,,,,,,,,,
,,,,,,,,,,,,,,,,,,,,,,,,,,,,,,,,,,,,,,,,,,5f6bf519a0ac5f171d604e74,6036d866a668505c4ea4e70b,2021-02-24_22h51.56.207,Colour_Similarity_Experiment,2020.2.10,Win32,60,6036d0d9a84aa1626184a6ef,17.19034884,16.69327103,16.66666483,16.66744388,16.66563589,16.67325391,,,,,,,,,,,,,,,,,,,,PF,weak,3,,,,,,,,0,1.168665,,,,,,,,,,,,,,,,,,,,,,,,,,,,6,weak,-43,72,1,0,0,response7disk,6,114,10,-1,1,0,0,rectangle,10,-1,1,0,0,6,3,0,0.00192,10,-1,1,0,0,0,113,113,0,1,,,,,,,,,,,,,,,,,,,,,
,,,,,,,,,,,,,,,,,,,,,,,,,,,,,,,,,,,,,,,,,,5f6bf519a0ac5f171d604e74,6036d866a668505c4ea4e70b,2021-02-24_22h51.56.207,Colour_Similarity_Experiment,2020.2.10,Win32,60,6036d0d9a84aa1626184a6ef,17.19034884,16.69327103,16.66666483,16.66744388,16.66563589,16.67325391,,,,,,,,,,,,,,,,,,,,PF,strong,3,,,,,,,,3,2.46563,,,,,,,,,,,,,,,,,,,,,,,,,,,,8,strong,-29,-44,1,0,0,response5disk,5,115,0,-4,1,0,0,rectangle,0,-4,1,0,0,6,0,0,0.0019,0,-4,1,0,0,0,114,114,152,1,,,,,,,,,,,,,,,,,,,,,
,,,,,,,,,,,,,,,,,,,,,,,,,,,,,,,,,,,,,,,,,,5f6bf519a0ac5f171d604e74,6036d866a668505c4ea4e70b,2021-02-24_22h51.56.207,Colour_Similarity_Experiment,2020.2.10,Win32,60,6036d0d9a84aa1626184a6ef,17.19034884,16.69327103,16.66666483,16.66744388,16.66563589,16.67325391,,,,,,,,,,,,,,,,,,,,PF,strong,3,,,,,,,,3,3.244815,,,,,,,,,,,,,,,,,,,,,,,,,,,,8,strong,-27,-69,1,0,0,response5disk,6,116,1,2,1,0,0,rectangle,1,2,1,0,0,6,7,0,0.00125,1,2,1,0,0,0,115,115,37,1,,,,,,,,,,,,,,,,,,,,,
,,,,,,,,,,,,,,,,,,,,,,,,,,,,,,,,,,,,,,,,,,5f6bf519a0ac5f171d604e74,6036d866a668505c4ea4e70b,2021-02-24_22h51.56.207,Colour_Similarity_Experiment,2020.2.10,Win32,60,6036d0d9a84aa1626184a6ef,17.19034884,16.69327103,16.66666483,16.66744388,16.66563589,16.67325391,,,,,,,,,,,,,,,,,,,,PF,strong,3,,,,,,,,4,7.566595,,,,,,,,,,,,,,,,,,,,,,,,,,,,9,strong,58,-80,1,0,0,response3disk,2,117,2,3,1,0,0,rectangle,46,-76,1,0,0,4,4,1,1.75025,-2,-6,1,0,0,0,116,116,11,1,response3disk_3,rectangle,,,,,,,,,,,,,,,,,,,
,,,,,,,,,,,,,,,,,,,,,,,,,,,,,,,,,,,,,,,,,,5f6bf519a0ac5f171d604e74,6036d866a668505c4ea4e70b,2021-02-24_22h51.56.207,Colour_Similarity_Experiment,2020.2.10,Win32,60,6036d0d9a84aa1626184a6ef,17.19034884,16.69327103,16.66666483,16.66744388,16.66563589,16.67325391,,,,,,,,,,,,,,,,,,,,PF,weak,3,,,,,,,,3,4.942575,,,,,,,,,,,,,,,,,,,,,,,,,,,,1,weak,-35,-91,1,0,0,response5disk,2,118,1,-2,1,0,0,rectangle,1,-2,1,0,0,4,4,0,0.00023,1,-2,1,0,0,0,117,117,24,1,,,,,,,,,,,,,,,,,,,,,
,,,,,,,,,,,,,,,,,,,,,,,,,,,,,,,,,,,,,,,,,,5f6bf519a0ac5f171d604e74,6036d866a668505c4ea4e70b,2021-02-24_22h51.56.207,Colour_Similarity_Experiment,2020.2.10,Win32,60,6036d0d9a84aa1626184a6ef,17.19034884,16.69327103,16.66666483,16.66744388,16.66563589,16.67325391,,,,,,,,,,,,,,,,,,,,PF,weak,3,,,,,,,,0,1.1321,,,,,,,,,,,,,,,,,,,,,,,,,,,,1,weak,-41,79,1,0,0,response7disk,1,119,-3,6,1,0,0,rectangle,31,-72,1,0,0,4,4,1,1.39928,-3,1,1,0,0,0,118,118,76,1,response3disk_3,rectangle,,,,,,,,,,,,,,,,,,,
,,,,,,,,,,,,,,,,,,,,,,,,,,,,,,,,,,,,,,,,,,5f6bf519a0ac5f171d604e74,6036d866a668505c4ea4e70b,2021-02-24_22h51.56.207,Colour_Similarity_Experiment,2020.2.10,Win32,60,6036d0d9a84aa1626184a6ef,17.19034884,16.69327103,16.66666483,16.66744388,16.66563589,16.67325391,,,,,,,,,,,,,,,,,,,,PF,strong,3,,,,,,,,0,1.26677,,,,,,,,,,,,,,,,,,,,,,,,,,,,8,strong,-29,68,1,0,0,response7disk,9,120,4,-6,1,0,0,rectangle,4,-6,1,0,0,4,4,0,0.00034,4,-6,1,0,0,0,119,119,105,1,,,,,,,,,,,,,,,,,,,,,
,,,,,,,,,,,,,,,,,,,,,,,,,,,,,,,,,,,,,,,,,,5f6bf519a0ac5f171d604e74,6036d866a668505c4ea4e70b,2021-02-24_22h51.56.207,Colour_Similarity_Experiment,2020.2.10,Win32,60,6036d0d9a84aa1626184a6ef,17.19034884,16.69327103,16.66666483,16.66744388,16.66563589,16.67325391,,,,,,,,,,,,,,,,,,,,PF,strong,3,,,,,,,,3,2.100045,,,,,,,,,,,,,,,,,,,,,,,,,,,,1,strong,-44,-97,1,0,0,response5disk,6,121,1,-1,1,0,0,rectangle,1,-1,1,0,0,4,6,0,0.002285,1,-1,1,0,0,0,120,120,58,1,,,,,,,,,,,,,,,,,,,,,
,,,,,,,,,,,,,,,,,,,,,,,,,,,,,,,,,,,,,,,,,,5f6bf519a0ac5f171d604e74,6036d866a668505c4ea4e70b,2021-02-24_22h51.56.207,Colour_Similarity_Experiment,2020.2.10,Win32,60,6036d0d9a84aa1626184a6ef,17.19034884,16.69327103,16.66666483,16.66744388,16.66563589,16.67325391,,,,,,,,,,,,,,,,,,,,PF,weak,3,,,,,,,,7,1.879115,,,,,,,,,,,,,,,,,,,,,,,,,,,,5,weak,26,56,1,0,0,response1disk,8,122,-1,5,1,0,0,rectangle,-1,5,1,0,0,4,7,0,0.001205,-1,5,1,0,0,0,121,121,149,1,,,,,,,,,,,,,,,,,,,,,
,,,,,,,,,,,,,,,,,,,,,,,,,,,,,,,,,,,,,,,,,,5f6bf519a0ac5f171d604e74,6036d866a668505c4ea4e70b,2021-02-24_22h51.56.207,Colour_Similarity_Experiment,2020.2.10,Win32,60,6036d0d9a84aa1626184a6ef,17.19034884,16.69327103,16.66666483,16.66744388,16.66563589,16.67325391,,,,,,,,,,,,,,,,,,,,PF,weak,3,,,,,,,,7,1.618575,,,,,,,,,,,,,,,,,,,,,,,,,,,,2,weak,19,71,1,0,0,response1disk,8,123,1,1,1,0,0,rectangle,1,1,1,0,0,4,0,0,0.00173,1,1,1,0,0,0,122,122,52,1,,,,,,,,,,,,,,,,,,,,,
,,,,,,,,,,,,,,,,,,,,,,,,,,,,,,,,,,,,,,,,,,5f6bf519a0ac5f171d604e74,6036d866a668505c4ea4e70b,2021-02-24_22h51.56.207,Colour_Similarity_Experiment,2020.2.10,Win32,60,6036d0d9a84aa1626184a6ef,17.19034884,16.69327103,16.66666483,16.66744388,16.66563589,16.67325391,,,,,,,,,,,,,,,,,,,,PF,strong,3,,,,,,,,4,4.99916,,,,,,,,,,,,,,,,,,,,,,,,,,,,8,strong,19,-95,1,0,0,response3disk,3,124,11,-1,1,0,0,rectangle,11,-1,1,0,0,4,3,0,0.001825,11,-1,1,0,0,0,123,123,154,1,,,,,,,,,,,,,,,,,,,,,
,,,,,,,,,,,,,,,,,,,,,,,,,,,,,,,,,,,,,,,,,,5f6bf519a0ac5f171d604e74,6036d866a668505c4ea4e70b,2021-02-24_22h51.56.207,Colour_Similarity_Experiment,2020.2.10,Win32,60,6036d0d9a84aa1626184a6ef,17.19034884,16.69327103,16.66666483,16.66744388,16.66563589,16.67325391,,,,,,,,,,,,,,,,,,,,PF,weak,3,,,,,,,,4,4.84946,,,,,,,,,,,,,,,,,,,,,,,,,,,,6,weak,54,-95,1,0,0,response3disk,5,125,2,-2,1,0,0,rectangle,2,-2,1,0,0,4,2,0,0.004005,2,-2,1,0,0,0,124,124,59,1,,,,,,,,,,,,,,,,,,,,,
,,,,,,,,,,,,,,,,,,,,,,,,,,,,,,,,,,,,,,,,,,5f6bf519a0ac5f171d604e74,6036d866a668505c4ea4e70b,2021-02-24_22h51.56.207,Colour_Similarity_Experiment,2020.2.10,Win32,60,6036d0d9a84aa1626184a6ef,17.19034884,16.69327103,16.66666483,16.66744388,16.66563589,16.67325391,,,,,,,,,,,,,,,,,,,,PF,weak,3,,,,,,,,7,5.330345,,,,,,,,,,,,,,,,,,,,,,,,,,,,9,weak,73,108,1,0,0,response1disk,5,126,0,-6,1,0,0,rectangle,0,-6,1,0,0,4,4,0,0.00164,0,-6,1,0,0,0,125,125,134,1,,,,,,,,,,,,,,,,,,,,,
,,,,,,,,,,,,,,,,,,,,,,,,,,,,,,,,,,,,,,,,,,5f6bf519a0ac5f171d604e74,6036d866a668505c4ea4e70b,2021-02-24_22h51.56.207,Colour_Similarity_Experiment,2020.2.10,Win32,60,6036d0d9a84aa1626184a6ef,17.19034884,16.69327103,16.66666483,16.66744388,16.66563589,16.67325391,,,,,,,,,,,,,,,,,,,,PF,weak,3,,,,,,,,7,4.04986,,,,,,,,,,,,,,,,,,,,,,,,,,,,5,weak,49,71,1,0,0,response1disk,9,127,-1,1,1,0,0,rectangle,70,43,1,0,0,6,6,1,1.933875,-7,3,1,0,0,0,126,126,136,1,response1disk_3,rectangle,,,,,,,,,,,,,,,,,,,
,,,,,,,,,,,,,,,,,,,,,,,,,,,,,,,,,,,,,,,,,,5f6bf519a0ac5f171d604e74,6036d866a668505c4ea4e70b,2021-02-24_22h51.56.207,Colour_Similarity_Experiment,2020.2.10,Win32,60,6036d0d9a84aa1626184a6ef,17.19034884,16.69327103,16.66666483,16.66744388,16.66563589,16.67325391,,,,,,,,,,,,,,,,,,,,PF,strong,3,,,,,,,,7,2.710625,,,,,,,,,,,,,,,,,,,,,,,,,,,,2,strong,43,75,1,0,0,response1disk,9,128,2,-2,1,0,0,rectangle,2,-2,1,0,0,6,5,0,0.002345,2,-2,1,0,0,0,127,127,72,1,,,,,,,,,,,,,,,,,,,,,
,,,,,,,,,,,,,,,,,,,,,,,,,,,,,,,,,,,,,,,,,,5f6bf519a0ac5f171d604e74,6036d866a668505c4ea4e70b,2021-02-24_22h51.56.207,Colour_Similarity_Experiment,2020.2.10,Win32,60,6036d0d9a84aa1626184a6ef,17.19034884,16.69327103,16.66666483,16.66744388,16.66563589,16.67325391,,,,,,,,,,,,,,,,,,,,PF,weak,3,,,,,,,,4,3.300925,,,,,,,,,,,,,,,,,,,,,,,,,,,,5,weak,65,-81,1,0,0,response3disk,4,129,-5,0,1,0,0,rectangle,-5,0,1,0,0,6,0,0,0.001975,-5,0,1,0,0,0,128,128,54,1,,,,,,,,,,,,,,,,,,,,,
,,,,,,,,,,,,,,,,,,,,,,,,,,,,,,,,,,,,,,,,,,5f6bf519a0ac5f171d604e74,6036d866a668505c4ea4e70b,2021-02-24_22h51.56.207,Colour_Similarity_Experiment,2020.2.10,Win32,60,6036d0d9a84aa1626184a6ef,17.19034884,16.69327103,16.66666483,16.66744388,16.66563589,16.67325391,,,,,,,,,,,,,,,,,,,,PF,strong,3,,,,,,,,0,1.06633,,,,,,,,,,,,,,,,,,,,,,,,,,,,2,strong,-34,50,1,0,0,response7disk,2,130,9,8,1,0,0,rectangle,9,8,1,0,0,6,3,0,0.0016,9,8,1,0,0,0,129,129,142,1,,,,,,,,,,,,,,,,,,,,,
,,,,,,,,,,,,,,,,,,,,,,,,,,,,,,,,,,,,,,,,,,5f6bf519a0ac5f171d604e74,6036d866a668505c4ea4e70b,2021-02-24_22h51.56.207,Colour_Similarity_Experiment,2020.2.10,Win32,60,6036d0d9a84aa1626184a6ef,17.19034884,16.69327103,16.66666483,16.66744388,16.66563589,16.67325391,,,,,,,,,,,,,,,,,,,,PF,weak,3,,,,,,,,7,1.18277,,,,,,,,,,,,,,,,,,,,,,,,,,,,1,weak,30,67,1,0,0,response1disk,5,131,-6,-1,1,0,0,rectangle,-6,-1,1,0,0,6,0,0,0.00218,-6,-1,1,0,0,0,130,130,28,1,,,,,,,,,,,,,,,,,,,,,
,,,,,,,,,,,,,,,,,,,,,,,,,,,,,,,,,,,,,,,,,,5f6bf519a0ac5f171d604e74,6036d866a668505c4ea4e70b,2021-02-24_22h51.56.207,Colour_Similarity_Experiment,2020.2.10,Win32,60,6036d0d9a84aa1626184a6ef,17.19034884,16.69327103,16.66666483,16.66744388,16.66563589,16.67325391,,,,,,,,,,,,,,,,,,,,PF,strong,3,,,,,,,,7,1.33353,,,,,,,,,,,,,,,,,,,,,,,,,,,,6,strong,36,62,1,0,0,response1disk,2,132,6,-4,1,0,0,rectangle,6,-4,1,0,0,6,3,0,0.001945,6,-4,1,0,0,0,131,131,112,1,,,,,,,,,,,,,,,,,,,,,
,,,,,,,,,,,,,,,,,,,,,,,,,,,,,,,,,,,,,,,,,,5f6bf519a0ac5f171d604e74,6036d866a668505c4ea4e70b,2021-02-24_22h51.56.207,Colour_Similarity_Experiment,2020.2.10,Win32,60,6036d0d9a84aa1626184a6ef,17.19034884,16.69327103,16.66666483,16.66744388,16.66563589,16.67325391,,,,,,,,,,,,,,,,,,,,PF,weak,3,,,,,,,,4,4.216405,,,,,,,,,,,,,,,,,,,,,,,,,,,,1,weak,18,-85,1,0,0,response3disk,9,133,-3,-6,1,0,0,rectangle,-3,-6,1,0,0,6,1,0,0.00196,-3,-6,1,0,0,0,132,132,15,1,,,,,,,,,,,,,,,,,,,,,
,,,,,,,,,,,,,,,,,,,,,,,,,,,,,,,,,,,,,,,,,,5f6bf519a0ac5f171d604e74,6036d866a668505c4ea4e70b,2021-02-24_22h51.56.207,Colour_Similarity_Experiment,2020.2.10,Win32,60,6036d0d9a84aa1626184a6ef,17.19034884,16.69327103,16.66666483,16.66744388,16.66563589,16.67325391,,,,,,,,,,,,,,,,,,,,PF,weak,3,,,,,,,,7,1.16043,,,,,,,,,,,,,,,,,,,,,,,,,,,,2,weak,30,73,1,0,0,response1disk,6,134,9,3,1,0,0,rectangle,9,3,1,0,0,6,0,0,0.00258,9,3,1,0,0,0,133,133,113,1,,,,,,,,,,,,,,,,,,,,,
,,,,,,,,,,,,,,,,,,,,,,,,,,,,,,,,,,,,,,,,,,5f6bf519a0ac5f171d604e74,6036d866a668505c4ea4e70b,2021-02-24_22h51.56.207,Colour_Similarity_Experiment,2020.2.10,Win32,60,6036d0d9a84aa1626184a6ef,17.19034884,16.69327103,16.66666483,16.66744388,16.66563589,16.67325391,,,,,,,,,,,,,,,,,,,,PF,weak,3,,,,,,,,4,2.95057,,,,,,,,,,,,,,,,,,,,,,,,,,,,5,weak,61,-70,1,0,0,response3disk,7,135,-1,-12,1,0,0,rectangle,-1,-12,1,0,0,6,5,0,0.002025,-1,-12,1,0,0,0,134,134,146,1,,,,,,,,,,,,,,,,,,,,,
,,,,,,,,,,,,,,,,,,,,,,,,,,,,,,,,,,,,,,,,,,5f6bf519a0ac5f171d604e74,6036d866a668505c4ea4e70b,2021-02-24_22h51.56.207,Colour_Similarity_Experiment,2020.2.10,Win32,60,6036d0d9a84aa1626184a6ef,17.19034884,16.69327103,16.66666483,16.66744388,16.66563589,16.67325391,,,,,,,,,,,,,,,,,,,,PF,strong,3,,,,,,,,0,1.13431,,,,,,,,,,,,,,,,,,,,,,,,,,,,7,strong,-36,82,1,0,0,response7disk,7,136,1,0,1,0,0,rectangle,1,0,1,0,0,6,5,0,0.000215,1,0,1,0,0,0,135,135,34,1,,,,,,,,,,,,,,,,,,,,,
,,,,,,,,,,,,,,,,,,,,,,,,,,,,,,,,,,,,,,,,,,5f6bf519a0ac5f171d604e74,6036d866a668505c4ea4e70b,2021-02-24_22h51.56.207,Colour_Similarity_Experiment,2020.2.10,Win32,60,6036d0d9a84aa1626184a6ef,17.19034884,16.69327103,16.66666483,16.66744388,16.66563589,16.67325391,,,,,,,,,,,,,,,,,,,,PF,weak,3,,,,,,,,7,1.212275,,,,,,,,,,,,,,,,,,,,,,,,,,,,1,weak,23,50,1,0,0,response1disk,3,137,5,4,1,0,0,rectangle,5,4,1,0,0,6,1,0,0.001215,5,4,1,0,0,0,136,136,1,1,,,,,,,,,,,,,,,,,,,,,
,,,,,,,,,,,,,,,,,,,,,,,,,,,,,,,,,,,,,,,,,,5f6bf519a0ac5f171d604e74,6036d866a668505c4ea4e70b,2021-02-24_22h51.56.207,Colour_Similarity_Experiment,2020.2.10,Win32,60,6036d0d9a84aa1626184a6ef,17.19034884,16.69327103,16.66666483,16.66744388,16.66563589,16.67325391,,,,,,,,,,,,,,,,,,,,PF,weak,3,,,,,,,,0,1.11645,,,,,,,,,,,,,,,,,,,,,,,,,,,,4,weak,-37,69,1,0,0,response7disk,4,138,5,1,1,0,0,rectangle,5,1,1,0,0,6,7,0,0.002665,5,1,1,0,0,0,137,137,70,1,,,,,,,,,,,,,,,,,,,,,
,,,,,,,,,,,,,,,,,,,,,,,,,,,,,,,,,,,,,,,,,,5f6bf519a0ac5f171d604e74,6036d866a668505c4ea4e70b,2021-02-24_22h51.56.207,Colour_Similarity_Experiment,2020.2.10,Win32,60,6036d0d9a84aa1626184a6ef,17.19034884,16.69327103,16.66666483,16.66744388,16.66563589,16.67325391,,,,,,,,,,,,,,,,,,,,PF,strong,3,,,,,,,,0,1.21729,,,,,,,,,,,,,,,,,,,,,,,,,,,,6,strong,-48,70,1,0,0,response7disk,6,139,-7,1,1,0,0,rectangle,-7,1,1,0,0,6,6,0,0.001925,-7,1,1,0,0,0,138,138,91,1,,,,,,,,,,,,,,,,,,,,,
,,,,,,,,,,,,,,,,,,,,,,,,,,,,,,,,,,,,,,,,,,5f6bf519a0ac5f171d604e74,6036d866a668505c4ea4e70b,2021-02-24_22h51.56.207,Colour_Similarity_Experiment,2020.2.10,Win32,60,6036d0d9a84aa1626184a6ef,17.19034884,16.69327103,16.66666483,16.66744388,16.66563589,16.67325391,,,,,,,,,,,,,,,,,,,,PF,weak,3,,,,,,,,7,1.102105,,,,,,,,,,,,,,,,,,,,,,,,,,,,1,weak,38,71,1,0,0,response1disk,7,140,-9,-3,1,0,0,rectangle,-9,-3,1,0,0,6,4,0,0.00174,-9,-3,1,0,0,0,139,139,150,1,,,,,,,,,,,,,,,,,,,,,
,,,,,,,,,,,,,,,,,,,,,,,,,,,,,,,,,,,,,,,,,,5f6bf519a0ac5f171d604e74,6036d866a668505c4ea4e70b,2021-02-24_22h51.56.207,Colour_Similarity_Experiment,2020.2.10,Win32,60,6036d0d9a84aa1626184a6ef,17.19034884,16.69327103,16.66666483,16.66744388,16.66563589,16.67325391,,,,,,,,,,,,,,,,,,,,PF,weak,3,,,,,,,,7,2.917225,,,,,,,,,,,,,,,,,,,,,,,,,,,,8,weak,54,80,1,0,0,response1disk,3,141,6,-3,1,0,0,rectangle,6,-3,1,0,0,6,5,0,0.0016,6,-3,1,0,0,0,140,140,71,1,,,,,,,,,,,,,,,,,,,,,
,,,,,,,,,,,,,,,,,,,,,,,,,,,,,,,,,,,,,,,,,,5f6bf519a0ac5f171d604e74,6036d866a668505c4ea4e70b,2021-02-24_22h51.56.207,Colour_Similarity_Experiment,2020.2.10,Win32,60,6036d0d9a84aa1626184a6ef,17.19034884,16.69327103,16.66666483,16.66744388,16.66563589,16.67325391,,,,,,,,,,,,,,,,,,,,PF,weak,3,,,,,,,,7,1.05371,,,,,,,,,,,,,,,,,,,,,,,,,,,,7,weak,62,97,1,0,0,response1disk,4,142,6,7,1,0,0,rectangle,6,7,1,0,0,6,5,0,0.000315,6,7,1,0,0,0,141,141,43,1,,,,,,,,,,,,,,,,,,,,,
,,,,,,,,,,,,,,,,,,,,,,,,,,,,,,,,,,,,,,,,,,5f6bf519a0ac5f171d604e74,6036d866a668505c4ea4e70b,2021-02-24_22h51.56.207,Colour_Similarity_Experiment,2020.2.10,Win32,60,6036d0d9a84aa1626184a6ef,17.19034884,16.69327103,16.66666483,16.66744388,16.66563589,16.67325391,,,,,,,,,,,,,,,,,,,,PF,strong,3,,,,,,,,7,1.034145,,,,,,,,,,,,,,,,,,,,,,,,,,,,3,strong,51,78,1,0,0,response1disk,9,143,9,3,1,0,0,rectangle,9,3,1,0,0,6,2,0,0.002575,9,3,1,0,0,0,142,142,143,1,,,,,,,,,,,,,,,,,,,,,
,,,,,,,,,,,,,,,,,,,,,,,,,,,,,,,,,,,,,,,,,,5f6bf519a0ac5f171d604e74,6036d866a668505c4ea4e70b,2021-02-24_22h51.56.207,Colour_Similarity_Experiment,2020.2.10,Win32,60,6036d0d9a84aa1626184a6ef,17.19034884,16.69327103,16.66666483,16.66744388,16.66563589,16.67325391,,,,,,,,,,,,,,,,,,,,PF,weak,3,,,,,,,,2,6.158685,,,,,,,,,,,,,,,,,,,,,,,,,,,,3,weak,-64,-41,1,0,0,response5disk,2,144,6,6,1,0,0,rectangle,35,69,1,0,0,7,7,1,1.7525,0,0,1,0,0,0,143,143,36,1,response1disk_3,rectangle,,,,,,,,,,,,,,,,,,,
,,,,,,,,,,,,,,,,,,,,,,,,,,,,,,,,,,,,,,,,,,5f6bf519a0ac5f171d604e74,6036d866a668505c4ea4e70b,2021-02-24_22h51.56.207,Colour_Similarity_Experiment,2020.2.10,Win32,60,6036d0d9a84aa1626184a6ef,17.19034884,16.69327103,16.66666483,16.66744388,16.66563589,16.67325391,,,,,,,,,,,,,,,,,,,,PF,strong,3,,,,,,,,0,1.19499,,,,,,,,,,,,,,,,,,,,,,,,,,,,5,strong,-31,62,1,0,0,response7disk,5,145,-4,-6,1,0,0,rectangle,-4,-6,1,0,0,7,2,0,0.001225,-4,-6,1,0,0,0,144,144,19,1,,,,,,,,,,,,,,,,,,,,,
,,,,,,,,,,,,,,,,,,,,,,,,,,,,,,,,,,,,,,,,,,5f6bf519a0ac5f171d604e74,6036d866a668505c4ea4e70b,2021-02-24_22h51.56.207,Colour_Similarity_Experiment,2020.2.10,Win32,60,6036d0d9a84aa1626184a6ef,17.19034884,16.69327103,16.66666483,16.66744388,16.66563589,16.67325391,,,,,,,,,,,,,,,,,,,,PF,weak,3,,,,,,,,7,1.050355,,,,,,,,,,,,,,,,,,,,,,,,,,,,2,weak,34,61,1,0,0,response1disk,9,146,4,8,1,0,0,rectangle,4,8,1,0,0,7,6,0,0.00199,4,8,1,0,0,0,145,145,39,1,,,,,,,,,,,,,,,,,,,,,
,,,,,,,,,,,,,,,,,,,,,,,,,,,,,,,,,,,,,,,,,,5f6bf519a0ac5f171d604e74,6036d866a668505c4ea4e70b,2021-02-24_22h51.56.207,Colour_Similarity_Experiment,2020.2.10,Win32,60,6036d0d9a84aa1626184a6ef,17.19034884,16.69327103,16.66666483,16.66744388,16.66563589,16.67325391,,,,,,,,,,,,,,,,,,,,PF,strong,3,,,,,,,,7,1.65331,,,,,,,,,,,,,,,,,,,,,,,,,,,,7,strong,37,58,1,0,0,response1disk,2,147,4,9,1,0,0,rectangle,4,9,1,0,0,7,3,0,0.00197,4,9,1,0,0,0,146,146,138,1,,,,,,,,,,,,,,,,,,,,,
,,,,,,,,,,,,,,,,,,,,,,,,,,,,,,,,,,,,,,,,,,5f6bf519a0ac5f171d604e74,6036d866a668505c4ea4e70b,2021-02-24_22h51.56.207,Colour_Similarity_Experiment,2020.2.10,Win32,60,6036d0d9a84aa1626184a6ef,17.19034884,16.69327103,16.66666483,16.66744388,16.66563589,16.67325391,,,,,,,,,,,,,,,,,,,,PF,strong,3,,,,,,,,7,2.849425,,,,,,,,,,,,,,,,,,,,,,,,,,,,9,strong,33,61,1,0,0,response1disk,3,148,8,10,1,0,0,rectangle,8,10,1,0,0,7,5,0,0.0016,8,10,1,0,0,0,147,147,141,1,,,,,,,,,,,,,,,,,,,,,
,,,,,,,,,,,,,,,,,,,,,,,,,,,,,,,,,,,,,,,,,,5f6bf519a0ac5f171d604e74,6036d866a668505c4ea4e70b,2021-02-24_22h51.56.207,Colour_Similarity_Experiment,2020.2.10,Win32,60,6036d0d9a84aa1626184a6ef,17.19034884,16.69327103,16.66666483,16.66744388,16.66563589,16.67325391,,,,,,,,,,,,,,,,,,,,PF,weak,3,,,,,,,,7,0.949755,,,,,,,,,,,,,,,,,,,,,,,,,,,,6,weak,43,76,1,0,0,response1disk,1,149,8,3,1,0,0,rectangle,8,3,1,0,0,7,1,0,0.001345,8,3,1,0,0,0,148,148,46,1,,,,,,,,,,,,,,,,,,,,,
,,,,,,,,,,,,,,,,,,,,,,,,,,,,,,,,,,,,,,,,,,5f6bf519a0ac5f171d604e74,6036d866a668505c4ea4e70b,2021-02-24_22h51.56.207,Colour_Similarity_Experiment,2020.2.10,Win32,60,6036d0d9a84aa1626184a6ef,17.19034884,16.69327103,16.66666483,16.66744388,16.66563589,16.67325391,,,,,,,,,,,,,,,,,,,,PF,strong,3,,,,,,,,4,2.85989,,,,,,,,,,,,,,,,,,,,,,,,,,,,1,strong,46,-89,1,0,0,response3disk,2,150,0,4,1,0,0,rectangle,0,4,1,0,0,7,2,0,0.001425,0,4,1,0,0,0,149,149,2,1,,,,,,,,,,,,,,,,,,,,,
,,,,,,,,,,,,,,,,,,,,,,,,,,,,,,,,,,,,,,,,,,5f6bf519a0ac5f171d604e74,6036d866a668505c4ea4e70b,2021-02-24_22h51.56.207,Colour_Similarity_Experiment,2020.2.10,Win32,60,6036d0d9a84aa1626184a6ef,17.19034884,16.69327103,16.66666483,16.66744388,16.66563589,16.67325391,,,,,,,,,,,,,,,,,,,,PF,weak,3,,,,,,,,7,0.980365,,,,,,,,,,,,,,,,,,,,,,,,,,,,2,weak,39,77,1,0,0,response1disk,7,151,5,-2,1,0,0,rectangle,5,-2,1,0,0,7,4,0,0.00128,5,-2,1,0,0,0,150,150,107,1,,,,,,,,,,,,,,,,,,,,,
,,,,,,,,,,,,,,,,,,,,,,,,,,,,,,,,,,,,,,,,,,5f6bf519a0ac5f171d604e74,6036d866a668505c4ea4e70b,2021-02-24_22h51.56.207,Colour_Similarity_Experiment,2020.2.10,Win32,60,6036d0d9a84aa1626184a6ef,17.19034884,16.69327103,16.66666483,16.66744388,16.66563589,16.67325391,,,,,,,,,,,,,,,,,,,,PF,weak,3,,,,,,,,7,1.0493,,,,,,,,,,,,,,,,,,,,,,,,,,,,9,weak,48,85,1,0,0,response1disk,3,152,-5,12,1,0,0,rectangle,-5,12,1,0,0,7,7,0,0.00249,-5,12,1,0,0,0,151,151,119,1,,,,,,,,,,,,,,,,,,,,,
,,,,,,,,,,,,,,,,,,,,,,,,,,,,,,,,,,,,,,,,,,5f6bf519a0ac5f171d604e74,6036d866a668505c4ea4e70b,2021-02-24_22h51.56.207,Colour_Similarity_Experiment,2020.2.10,Win32,60,6036d0d9a84aa1626184a6ef,17.19034884,16.69327103,16.66666483,16.66744388,16.66563589,16.67325391,,,,,,,,,,,,,,,,,,,,PF,strong,3,,,,,,,,5,3.783175,,,,,,,,,,,,,,,,,,,,,,,,,,,,6,strong,67,-44,1,0,0,response3disk,3,153,2,-3,1,0,0,rectangle,2,-3,1,0,0,7,5,0,0.001685,2,-3,1,0,0,0,152,152,21,1,,,,,,,,,,,,,,,,,,,,,
,,,,,,,,,,,,,,,,,,,,,,,,,,,,,,,,,,,,,,,,,,5f6bf519a0ac5f171d604e74,6036d866a668505c4ea4e70b,2021-02-24_22h51.56.207,Colour_Similarity_Experiment,2020.2.10,Win32,60,6036d0d9a84aa1626184a6ef,17.19034884,16.69327103,16.66666483,16.66744388,16.66563589,16.67325391,,,,,,,,,,,,,,,,,,,,PF,strong,3,,,,,,,,3,3.428795,,,,,,,,,,,,,,,,,,,,,,,,,,,,9,strong,-26,-69,1,0,0,response5disk,8,154,-3,6,1,0,0,rectangle,-3,6,1,0,0,7,7,0,0.001345,-3,6,1,0,0,0,153,153,6,1,,,,,,,,,,,,,,,,,,,,,
,,,,,,,,,,,,,,,,,,,,,,,,,,,,,,,,,,,,,,,,,,5f6bf519a0ac5f171d604e74,6036d866a668505c4ea4e70b,2021-02-24_22h51.56.207,Colour_Similarity_Experiment,2020.2.10,Win32,60,6036d0d9a84aa1626184a6ef,17.19034884,16.69327103,16.66666483,16.66744388,16.66563589,16.67325391,,,,,,,,,,,,,,,,,,,,PF,strong,3,,,,,,,,7,2.868045,,,,,,,,,,,,,,,,,,,,,,,,,,,,5,strong,40,66,1,0,0,response1disk,1,155,-2,-8,1,0,0,rectangle,-2,-8,1,0,0,7,4,0,0.001445,-2,-8,1,0,0,0,154,154,131,1,,,,,,,,,,,,,,,,,,,,,
,,,,,,,,,,,,,,,,,,,,,,,,,,,,,,,,,,,,,,,,,,5f6bf519a0ac5f171d604e74,6036d866a668505c4ea4e70b,2021-02-24_22h51.56.207,Colour_Similarity_Experiment,2020.2.10,Win32,60,6036d0d9a84aa1626184a6ef,17.19034884,16.69327103,16.66666483,16.66744388,16.66563589,16.67325391,,,,,,,,,,,,,,,,,,,,PF,strong,3,,,,,,,,4,5.02453,,,,,,,,,,,,,,,,,,,,,,,,,,,,5,strong,33,-96,1,0,0,response3disk,8,156,10,-2,1,0,0,rectangle,10,-2,1,0,0,7,0,0,0.00201,10,-2,1,0,0,0,155,155,16,1,,,,,,,,,,,,,,,,,,,,,
,,,,,,,,,,,,,,,,,,,,,,,,,,,,,,,,,,,,,,,,,,5f6bf519a0ac5f171d604e74,6036d866a668505c4ea4e70b,2021-02-24_22h51.56.207,Colour_Similarity_Experiment,2020.2.10,Win32,60,6036d0d9a84aa1626184a6ef,17.19034884,16.69327103,16.66666483,16.66744388,16.66563589,16.67325391,,,,,,,,,,,,,,,,,,,,PF,strong,3,,,,,,,,0,1.515755,,,,,,,,,,,,,,,,,,,,,,,,,,,,4,strong,-25,100,1,0,0,response7disk,4,157,4,4,1,0,0,rectangle,4,4,1,0,0,7,2,0,0.001835,4,4,1,0,0,0,156,156,84,1,,,,,,,,,,,,,,,,,,,,,
,,,,,,,,,,,,,,,,,,,,,,,,,,,,,,,,,,,,,,,,,,5f6bf519a0ac5f171d604e74,6036d866a668505c4ea4e70b,2021-02-24_22h51.56.207,Colour_Similarity_Experiment,2020.2.10,Win32,60,6036d0d9a84aa1626184a6ef,17.19034884,16.69327103,16.66666483,16.66744388,16.66563589,16.67325391,,,,,,,,,,,,,,,,,,,,PF,strong,3,,,,,,,,7,1.80999,,,,,,,,,,,,,,,,,,,,,,,,,,,,8,strong,40,85,1,0,0,response1disk,4,158,5,4,1,0,0,rectangle,5,4,1,0,0,7,3,0,0.002095,5,4,1,0,0,0,157,157,88,1,,,,,,,,,,,,,,,,,,,,,
,,,,,,,,,,,,,,,,,,,,,,,,,,,,,,,,,,,,,,,,,,5f6bf519a0ac5f171d604e74,6036d866a668505c4ea4e70b,2021-02-24_22h51.56.207,Colour_Similarity_Experiment,2020.2.10,Win32,60,6036d0d9a84aa1626184a6ef,17.19034884,16.69327103,16.66666483,16.66744388,16.66563589,16.67325391,,,,,,,,,,,,,,,,,,,,PF,strong,3,,,,,,,,7,1.350245,,,,,,,,,,,,,,,,,,,,,,,,,,,,4,strong,37,79,1,0,0,response1disk,8,159,-6,0,1,0,0,rectangle,-6,0,1,0,0,7,6,0,0.00191,-6,0,1,0,0,0,158,158,35,1,,,,,,,,,,,,,,,,,,,,,
,,,,,,,,,,,,,,,,,,,,,,,,,,,,,,,,,,,,,,,,,,5f6bf519a0ac5f171d604e74,6036d866a668505c4ea4e70b,2021-02-24_22h51.56.207,Colour_Similarity_Experiment,2020.2.10,Win32,60,6036d0d9a84aa1626184a6ef,17.19034884,16.69327103,16.66666483,16.66744388,16.66563589,16.67325391,,,,,,,,,,,,,,,,,,,,PF,strong,3,,,,,,,,4,3.07112,,,,,,,,,,,,,,,,,,,,,,,,,,,,7,strong,39,-101,1,0,0,response3disk,1,160,-7,3,1,0,0,rectangle,-7,3,1,0,0,7,4,0,0.001355,-7,3,1,0,0,0,159,159,132,1,,,,,,,,,,,,,,,,,,,,,
,,,,,,,,,,,,,,,,,,,,,,,,,,,,,,,,,,,,,,,,,,5f6bf519a0ac5f171d604e74,6036d866a668505c4ea4e70b,2021-02-24_22h51.56.207,Colour_Similarity_Experiment,2020.2.10,Win32,60,6036d0d9a84aa1626184a6ef,17.19034884,16.69327103,16.66666483,16.66744388,16.66563589,16.67325391,,,,,,,,,,,,,,,,,,,,PF,strong,3,,,,,,,,1,1.53284,,,,,,,,,,,,,,,,,,,,,,,,,,,,2,strong,-69,37,1,0,0,response7disk,4,161,3,-3,1,0,0,rectangle,3,-3,1,0,0,7,7,0,0.00306,3,-3,1,0,0,0,160,160,145,1,,,,,,,,,,,,,,,,,,,,,
,,,,,,,,,,,,,,,,,,,,,,,,,,,,,,,,,,,,,,,,,,5f6bf519a0ac5f171d604e74,6036d866a668505c4ea4e70b,2021-02-24_22h51.56.207,Colour_Similarity_Experiment,2020.2.10,Win32,60,6036d0d9a84aa1626184a6ef,17.19034884,16.69327103,16.66666483,16.66744388,16.66563589,16.67325391,,,,,,,,,,,,,,,,,,,,PF,strong,3,,,,,,,,1,2.709435,,,,,,,,,,,,,,,,,,,,,,,,,,,,4,strong,-79,31,1,0,0,response7disk,7,162,-2,5,1,0,0,rectangle,-2,5,1,0,0,7,4,0,0.00125,-2,5,1,0,0,0,161,161,87,1,,,,,,,,,,,,,,,,,,,,,
,,,,,,,,,,,,,,,,,,,,,,,,,,,,,,,,,,,,,,,,,,5f6bf519a0ac5f171d604e74,6036d866a668505c4ea4e70b,2021-02-24_22h51.56.207,Colour_Similarity_Experiment,2020.2.10,Win32,60,6036d0d9a84aa1626184a6ef,17.19034884,16.69327103,16.66666483,16.66744388,16.66563589,16.67325391,,,,,,,,,,,,,,,,,,,,,,,,,,,,,,,,,,,,,,,,,,,,,,,,,,,,,,,,,,,,,,,,,,,,,,,,,,,,,,,,,,,,,,,,,,,,,,,,0,0,0,0,1,,,,,,,,,,,,,,
,,,,,,,,,,,,,,,,,,,,,,,,,,,,,,,,,,,,,,,,,,5f6bf519a0ac5f171d604e74,6036d866a668505c4ea4e70b,2021-02-24_22h51.56.207,Colour_Similarity_Experiment,2020.2.10,Win32,60,6036d0d9a84aa1626184a6ef,17.19034884,16.69327103,16.66666483,16.66744388,16.66563589,16.67325391,,,,,,,,,,,,,,,,,,,,PF,strong,3,,,,,,,,3,4.61297,,,,,,,,,,,,,,,,,,,,,,,,,,,,2,strong,-27,-102,1,0,0,response5disk,5,163,-3,6,1,0,0,rectangle,-3,6,1,0,0,7,1,0,0.00269,-3,6,1,0,0,0,0,0,80,1,,,,,,,,,,,,,,,,,,,,,
,,,,,,,,,,,,,,,,,,,,,,,,,,,,,,,,,,,,,,,,,,5f6bf519a0ac5f171d604e74,6036d866a668505c4ea4e70b,2021-02-24_22h51.56.207,Colour_Similarity_Experiment,2020.2.10,Win32,60,6036d0d9a84aa1626184a6ef,17.19034884,16.69327103,16.66666483,16.66744388,16.66563589,16.67325391,,,,,,,,,,,,,,,,,,,,PF,weak,3,,,,,,,,1,2.378975,,,,,,,,,,,,,,,,,,,,,,,,,,,,3,weak,-49,30,1,0,0,response7disk,3,164,-8,-3,1,0,0,rectangle,-8,-3,1,0,0,7,7,0,0.001985,-8,-3,1,0,0,0,1,1,4,1,,,,,,,,,,,,,,,,,,,,,
,,,,,,,,,,,,,,,,,,,,,,,,,,,,,,,,,,,,,,,,,,5f6bf519a0ac5f171d604e74,6036d866a668505c4ea4e70b,2021-02-24_22h51.56.207,Colour_Similarity_Experiment,2020.2.10,Win32,60,6036d0d9a84aa1626184a6ef,17.19034884,16.69327103,16.66666483,16.66744388,16.66563589,16.67325391,,,,,,,,,,,,,,,,,,,,PF,weak,3,,,,,,,,7,1.436425,,,,,,,,,,,,,,,,,,,,,,,,,,,,6,weak,44,64,1,0,0,response1disk,2,165,-1,-2,1,0,0,rectangle,-1,-2,1,0,0,7,0,0,0.001455,-1,-2,1,0,0,0,2,2,130,1,,,,,,,,,,,,,,,,,,,,,
,,,,,,,,,,,,,,,,,,,,,,,,,,,,,,,,,,,,,,,,,,5f6bf519a0ac5f171d604e74,6036d866a668505c4ea4e70b,2021-02-24_22h51.56.207,Colour_Similarity_Experiment,2020.2.10,Win32,60,6036d0d9a84aa1626184a6ef,17.19034884,16.69327103,16.66666483,16.66744388,16.66563589,16.67325391,,,,,,,,,,,,,,,,,,,,PF,strong,3,,,,,,,,6,9.88293,,,,,,,,,,,,,,,,,,,,,,,,,,,,5,strong,95,25,1,0,0,response1disk,9,166,5,-2,1,0,0,rectangle,5,-2,1,0,0,7,0,0,0.001035,5,-2,1,0,0,0,3,3,61,1,,,,,,,,,,,,,,,,,,,,,
,,,,,,,,,,,,,,,,,,,,,,,,,,,,,,,,,,,,,,,,,,5f6bf519a0ac5f171d604e74,6036d866a668505c4ea4e70b,2021-02-24_22h51.56.207,Colour_Similarity_Experiment,2020.2.10,Win32,60,6036d0d9a84aa1626184a6ef,17.19034884,16.69327103,16.66666483,16.66744388,16.66563589,16.67325391,,,,,,,,,,,,,,,,,,,,PF,weak,3,,,,,,,,7,1.59509,,,,,,,,,,,,,,,,,,,,,,,,,,,,7,weak,41,75,1,0,0,response1disk,1,167,-12,1,1,0,0,rectangle,-12,1,1,0,0,7,0,0,0.00028,-12,1,1,0,0,0,4,4,53,1,,,,,,,,,,,,,,,,,,,,,
,,,,,,,,,,,,,,,,,,,,,,,,,,,,,,,,,,,,,,,,,,5f6bf519a0ac5f171d604e74,6036d866a668505c4ea4e70b,2021-02-24_22h51.56.207,Colour_Similarity_Experiment,2020.2.10,Win32,60,6036d0d9a84aa1626184a6ef,17.19034884,16.69327103,16.66666483,16.66744388,16.66563589,16.67325391,,,,,,,,,,,,,,,,,,,,PF,strong,3,,,,,,,,4,4.114205,,,,,,,,,,,,,,,,,,,,,,,,,,,,3,strong,32,-59,1,0,0,response3disk,5,168,3,5,1,0,0,rectangle,3,5,1,0,0,7,5,0,0.002905,3,5,1,0,0,0,5,5,101,1,,,,,,,,,,,,,,,,,,,,,
,,,,,,,,,,,,,,,,,,,,,,,,,,,,,,,,,,,,,,,,,,5f6bf519a0ac5f171d604e74,6036d866a668505c4ea4e70b,2021-02-24_22h51.56.207,Colour_Similarity_Experiment,2020.2.10,Win32,60,6036d0d9a84aa1626184a6ef,17.19034884,16.69327103,16.66666483,16.66744388,16.66563589,16.67325391,,,,,,,,,,,,,,,,,,,,PF,weak,3,,,,,,,,7,2.250575,,,,,,,,,,,,,,,,,,,,,,,,,,,,3,weak,61,90,1,0,0,response1disk,1,169,-6,0,1,0,0,rectangle,-6,0,1,0,0,7,1,0,0.003055,-6,0,1,0,0,0,6,6,96,1,,,,,,,,,,,,,,,,,,,,,
,,,,,,,,,,,,,,,,,,,,,,,,,,,,,,,,,,,,,,,,,,5f6bf519a0ac5f171d604e74,6036d866a668505c4ea4e70b,2021-02-24_22h51.56.207,Colour_Similarity_Experiment,2020.2.10,Win32,60,6036d0d9a84aa1626184a6ef,17.19034884,16.69327103,16.66666483,16.66744388,16.66563589,16.67325391,,,,,,,,,,,,,,,,,,,,PF,weak,3,,,,,,,,2,2.880805,,,,,,,,,,,,,,,,,,,,,,,,,,,,8,weak,-65,-39,1,0,0,response5disk,9,170,0,0,1,0,0,rectangle,0,0,1,0,0,7,5,0,0.00206,0,0,1,0,0,0,7,7,42,1,,,,,,,,,,,,,,,,,,,,,
,,,,,,,,,,,,,,,,,,,,,,,,,,,,,,,,,,,,,,,,,,5f6bf519a0ac5f171d604e74,6036d866a668505c4ea4e70b,2021-02-24_22h51.56.207,Colour_Similarity_Experiment,2020.2.10,Win32,60,6036d0d9a84aa1626184a6ef,17.19034884,16.69327103,16.66666483,16.66744388,16.66563589,16.67325391,,,,,,,,,,,,,,,,,,,,PF,strong,3,,,,,,,,1,2.257945,,,,,,,,,,,,,,,,,,,,,,,,,,,,5,strong,-74,28,1,0,0,response7disk,6,171,11,12,1,0,0,rectangle,11,12,1,0,0,7,1,0,0.001025,11,12,1,0,0,0,8,8,12,1,,,,,,,,,,,,,,,,,,,,,
,,,,,,,,,,,,,,,,,,,,,,,,,,,,,,,,,,,,,,,,,,5f6bf519a0ac5f171d604e74,6036d866a668505c4ea4e70b,2021-02-24_22h51.56.207,Colour_Similarity_Experiment,2020.2.10,Win32,60,6036d0d9a84aa1626184a6ef,17.19034884,16.69327103,16.66666483,16.66744388,16.66563589,16.67325391,,,,,,,,,,,,,,,,,,,,PF,weak,3,,,,,,,,0,1.03395,,,,,,,,,,,,,,,,,,,,,,,,,,,,5,weak,-31,81,1,0,0,response7disk,5,172,3,0,1,0,0,rectangle,3,0,1,0,0,7,7,0,0.002155,3,0,1,0,0,0,9,9,94,1,,,,,,,,,,,,,,,,,,,,,
,,,,,,,,,,,,,,,,,,,,,,,,,,,,,,,,,,,,,,,,,,5f6bf519a0ac5f171d604e74,6036d866a668505c4ea4e70b,2021-02-24_22h51.56.207,Colour_Similarity_Experiment,2020.2.10,Win32,60,6036d0d9a84aa1626184a6ef,17.19034884,16.69327103,16.66666483,16.66744388,16.66563589,16.67325391,,,,,,,,,,,,,,,,,,,,PF,weak,3,,,,,,,,6,4.744005,,,,,,,,,,,,,,,,,,,,,,,,,,,,4,weak,78,43,1,0,0,response1disk,6,173,18,0,1,0,0,rectangle,18,0,1,0,0,7,1,0,0.001505,18,0,1,0,0,0,10,10,120,1,,,,,,,,,,,,,,,,,,,,,
,,,,,,,,,,,,,,,,,,,,,,,,,,,,,,,,,,,,,,,,,,5f6bf519a0ac5f171d604e74,6036d866a668505c4ea4e70b,2021-02-24_22h51.56.207,Colour_Similarity_Experiment,2020.2.10,Win32,60,6036d0d9a84aa1626184a6ef,17.19034884,16.69327103,16.66666483,16.66744388,16.66563589,16.67325391,,,,,,,,,,,,,,,,,,,,PF,strong,3,,,,,,,,0,1.063015,,,,,,,,,,,,,,,,,,,,,,,,,,,,6,strong,-45,59,1,0,0,response7disk,5,174,-5,8,1,0,0,rectangle,-5,8,1,0,0,7,7,0,0.002735,-5,8,1,0,0,0,11,11,126,1,,,,,,,,,,,,,,,,,,,,,
,,,,,,,,,,,,,,,,,,,,,,,,,,,,,,,,,,,,,,,,,,5f6bf519a0ac5f171d604e74,6036d866a668505c4ea4e70b,2021-02-24_22h51.56.207,Colour_Similarity_Experiment,2020.2.10,Win32,60,6036d0d9a84aa1626184a6ef,17.19034884,16.69327103,16.66666483,16.66744388,16.66563589,16.67325391,,,,,,,,,,,,,,,,,,,,PF,weak,3,,,,,,,,2,1.93441,,,,,,,,,,,,,,,,,,,,,,,,,,,,4,weak,-75,-30,1,0,0,response5disk,5,175,-1,15,1,0,0,rectangle,-1,15,1,0,0,7,2,0,0.002945,-1,15,1,0,0,0,12,12,49,1,,,,,,,,,,,,,,,,,,,,,
,,,,,,,,,,,,,,,,,,,,,,,,,,,,,,,,,,,,,,,,,,5f6bf519a0ac5f171d604e74,6036d866a668505c4ea4e70b,2021-02-24_22h51.56.207,Colour_Similarity_Experiment,2020.2.10,Win32,60,6036d0d9a84aa1626184a6ef,17.19034884,16.69327103,16.66666483,16.66744388,16.66563589,16.67325391,,,,,,,,,,,,,,,,,,,,PF,weak,3,,,,,,,,7,1.045315,,,,,,,,,,,,,,,,,,,,,,,,,,,,7,weak,20,85,1,0,0,response1disk,2,176,1,2,1,0,0,rectangle,1,2,1,0,0,7,5,0,0.00319,1,2,1,0,0,0,13,13,32,1,,,,,,,,,,,,,,,,,,,,,
,,,,,,,,,,,,,,,,,,,,,,,,,,,,,,,,,,,,,,,,,,5f6bf519a0ac5f171d604e74,6036d866a668505c4ea4e70b,2021-02-24_22h51.56.207,Colour_Similarity_Experiment,2020.2.10,Win32,60,6036d0d9a84aa1626184a6ef,17.19034884,16.69327103,16.66666483,16.66744388,16.66563589,16.67325391,,,,,,,,,,,,,,,,,,,,PF,strong,3,,,,,,,,3,3.000525,,,,,,,,,,,,,,,,,,,,,,,,,,,,7,strong,-59,-75,1,0,0,response5disk,9,177,10,10,1,0,0,rectangle,10,10,1,0,0,7,7,0,0.001925,10,10,1,0,0,0,14,14,155,1,,,,,,,,,,,,,,,,,,,,,
,,,,,,,,,,,,,,,,,,,,,,,,,,,,,,,,,,,,,,,,,,5f6bf519a0ac5f171d604e74,6036d866a668505c4ea4e70b,2021-02-24_22h51.56.207,Colour_Similarity_Experiment,2020.2.10,Win32,60,6036d0d9a84aa1626184a6ef,17.19034884,16.69327103,16.66666483,16.66744388,16.66563589,16.67325391,,,,,,,,,,,,,,,,,,,,PF,weak,3,,,,,,,,7,1.117005,,,,,,,,,,,,,,,,,,,,,,,,,,,,5,weak,20,68,1,0,0,response1disk,2,178,8,12,1,0,0,rectangle,8,12,1,0,0,7,1,0,0.003055,8,12,1,0,0,0,15,15,129,1,,,,,,,,,,,,,,,,,,,,,
,,,,,,,,,,,,,,,,,,,,,,,,,,,,,,,,,,,,,,,,,,5f6bf519a0ac5f171d604e74,6036d866a668505c4ea4e70b,2021-02-24_22h51.56.207,Colour_Similarity_Experiment,2020.2.10,Win32,60,6036d0d9a84aa1626184a6ef,17.19034884,16.69327103,16.66666483,16.66744388,16.66563589,16.67325391,,,,,,,,,,,,,,,,,,,,PF,weak,3,,,,,,,,2,1.76076,,,,,,,,,,,,,,,,,,,,,,,,,,,,7,weak,-85,-43,1,0,0,response5disk,6,179,-6,3,1,0,0,rectangle,-6,3,1,0,0,7,3,0,0.002285,-6,3,1,0,0,0,16,16,29,1,,,,,,,,,,,,,,,,,,,,,
,,,,,,,,,,,,,,,,,,,,,,,,,,,,,,,,,,,,,,,,,,5f6bf519a0ac5f171d604e74,6036d866a668505c4ea4e70b,2021-02-24_22h51.56.207,Colour_Similarity_Experiment,2020.2.10,Win32,60,6036d0d9a84aa1626184a6ef,17.19034884,16.69327103,16.66666483,16.66744388,16.66563589,16.67325391,,,,,,,,,,,,,,,,,,,,PF,weak,3,,,,,,,,7,0.999965,,,,,,,,,,,,,,,,,,,,,,,,,,,,4,weak,37,78,1,0,0,response1disk,8,180,-7,3,1,0,0,rectangle,-7,3,1,0,0,7,0,0,0.003765,-7,3,1,0,0,0,17,17,124,1,,,,,,,,,,,,,,,,,,,,,
,,,,,,,,,,,,,,,,,,,,,,,,,,,,,,,,,,,,,,,,,,5f6bf519a0ac5f171d604e74,6036d866a668505c4ea4e70b,2021-02-24_22h51.56.207,Colour_Similarity_Experiment,2020.2.10,Win32,60,6036d0d9a84aa1626184a6ef,17.19034884,16.69327103,16.66666483,16.66744388,16.66563589,16.67325391,,,,,,,,,,,,,,,,,,,,PF,weak,3,,,,,,,,7,1.30115,,,,,,,,,,,,,,,,,,,,,,,,,,,,8,weak,32,88,1,0,0,response1disk,5,181,0,-9,1,0,0,rectangle,0,-9,1,0,0,7,7,0,0.002855,0,-9,1,0,0,0,18,18,98,1,,,,,,,,,,,,,,,,,,,,,
,,,,,,,,,,,,,,,,,,,,,,,,,,,,,,,,,,,,,,,,,,5f6bf519a0ac5f171d604e74,6036d866a668505c4ea4e70b,2021-02-24_22h51.56.207,Colour_Similarity_Experiment,2020.2.10,Win32,60,6036d0d9a84aa1626184a6ef,17.19034884,16.69327103,16.66666483,16.66744388,16.66563589,16.67325391,,,,,,,,,,,,,,,,,,,,PF,strong,3,,,,,,,,7,1.04557,,,,,,,,,,,,,,,,,,,,,,,,,,,,7,strong,25,77,1,0,0,response1disk,3,182,-3,11,1,0,0,rectangle,-3,11,1,0,0,7,4,0,0.002205,-3,11,1,0,0,0,19,19,73,1,,,,,,,,,,,,,,,,,,,,,
,,,,,,,,,,,,,,,,,,,,,,,,,,,,,,,,,,,,,,,,,,5f6bf519a0ac5f171d604e74,6036d866a668505c4ea4e70b,2021-02-24_22h51.56.207,Colour_Similarity_Experiment,2020.2.10,Win32,60,6036d0d9a84aa1626184a6ef,17.19034884,16.69327103,16.66666483,16.66744388,16.66563589,16.67325391,,,,,,,,,,,,,,,,,,,,PF,strong,3,,,,,,,,3,2.617495,,,,,,,,,,,,,,,,,,,,,,,,,,,,7,strong,-29,-64,1,0,0,response5disk,8,183,3,5,1,0,0,rectangle,28,-60,1,0,0,4,4,1,1.750155,12,5,1,0,0,0,20,20,97,1,response3disk_3,rectangle,,,,,,,,,,,,,,,,,,,
,,,,,,,,,,,,,,,,,,,,,,,,,,,,,,,,,,,,,,,,,,5f6bf519a0ac5f171d604e74,6036d866a668505c4ea4e70b,2021-02-24_22h51.56.207,Colour_Similarity_Experiment,2020.2.10,Win32,60,6036d0d9a84aa1626184a6ef,17.19034884,16.69327103,16.66666483,16.66744388,16.66563589,16.67325391,,,,,,,,,,,,,,,,,,,,PF,strong,3,,,,,,,,1,2.13341,,,,,,,,,,,,,,,,,,,,,,,,,,,,2,strong,-87,32,1,0,0,response7disk,3,184,3,0,1,0,0,rectangle,39,-86,1,0,0,4,4,1,1.265885,0,-3,1,0,0,0,21,21,104,1,response3disk_3,rectangle,,,,,,,,,,,,,,,,,,,
,,,,,,,,,,,,,,,,,,,,,,,,,,,,,,,,,,,,,,,,,,5f6bf519a0ac5f171d604e74,6036d866a668505c4ea4e70b,2021-02-24_22h51.56.207,Colour_Similarity_Experiment,2020.2.10,Win32,60,6036d0d9a84aa1626184a6ef,17.19034884,16.69327103,16.66666483,16.66744388,16.66563589,16.67325391,,,,,,,,,,,,,,,,,,,,PF,weak,3,,,,,,,,7,1.20168,,,,,,,,,,,,,,,,,,,,,,,,,,,,3,weak,46,79,1,0,0,response1disk,8,185,12,6,1,0,0,rectangle,12,6,1,0,0,4,7,0,0.00201,12,6,1,0,0,0,22,22,3,1,,,,,,,,,,,,,,,,,,,,,
,,,,,,,,,,,,,,,,,,,,,,,,,,,,,,,,,,,,,,,,,,5f6bf519a0ac5f171d604e74,6036d866a668505c4ea4e70b,2021-02-24_22h51.56.207,Colour_Similarity_Experiment,2020.2.10,Win32,60,6036d0d9a84aa1626184a6ef,17.19034884,16.69327103,16.66666483,16.66744388,16.66563589,16.67325391,,,,,,,,,,,,,,,,,,,,PF,strong,3,,,,,,,,6,2.55081,,,,,,,,,,,,,,,,,,,,,,,,,,,,9,strong,98,27,1,0,0,response1disk,1,186,12,5,1,0,0,rectangle,12,5,1,0,0,4,4,0,0.002565,12,5,1,0,0,0,23,23,111,1,,,,,,,,,,,,,,,,,,,,,
,,,,,,,,,,,,,,,,,,,,,,,,,,,,,,,,,,,,,,,,,,5f6bf519a0ac5f171d604e74,6036d866a668505c4ea4e70b,2021-02-24_22h51.56.207,Colour_Similarity_Experiment,2020.2.10,Win32,60,6036d0d9a84aa1626184a6ef,17.19034884,16.69327103,16.66666483,16.66744388,16.66563589,16.67325391,,,,,,,,,,,,,,,,,,,,PF,strong,3,,,,,,,,2,2.767555,,,,,,,,,,,,,,,,,,,,,,,,,,,,1,strong,-71,-41,1,0,0,response5disk,7,187,4,-2,1,0,0,rectangle,4,-2,1,0,0,4,3,0,0.00295,4,-2,1,0,0,0,24,24,137,1,,,,,,,,,,,,,,,,,,,,,
,,,,,,,,,,,,,,,,,,,,,,,,,,,,,,,,,,,,,,,,,,5f6bf519a0ac5f171d604e74,6036d866a668505c4ea4e70b,2021-02-24_22h51.56.207,Colour_Similarity_Experiment,2020.2.10,Win32,60,6036d0d9a84aa1626184a6ef,17.19034884,16.69327103,16.66666483,16.66744388,16.66563589,16.67325391,,,,,,,,,,,,,,,,,,,,PF,weak,3,,,,,,,,7,1.067905,,,,,,,,,,,,,,,,,,,,,,,,,,,,9,weak,23,69,1,0,0,response1disk,4,188,5,-1,1,0,0,rectangle,5,-1,1,0,0,4,5,0,0.00346,5,-1,1,0,0,0,25,25,114,1,,,,,,,,,,,,,,,,,,,,,
,,,,,,,,,,,,,,,,,,,,,,,,,,,,,,,,,,,,,,,,,,5f6bf519a0ac5f171d604e74,6036d866a668505c4ea4e70b,2021-02-24_22h51.56.207,Colour_Similarity_Experiment,2020.2.10,Win32,60,6036d0d9a84aa1626184a6ef,17.19034884,16.69327103,16.66666483,16.66744388,16.66563589,16.67325391,,,,,,,,,,,,,,,,,,,,PF,weak,3,,,,,,,,7,1.067135,,,,,,,,,,,,,,,,,,,,,,,,,,,,3,weak,34,85,1,0,0,response1disk,4,189,-15,2,1,0,0,rectangle,-15,2,1,0,0,4,6,0,0.0019,-15,2,1,0,0,0,26,26,30,1,,,,,,,,,,,,,,,,,,,,,
,,,,,,,,,,,,,,,,,,,,,,,,,,,,,,,,,,,,,,,,,,5f6bf519a0ac5f171d604e74,6036d866a668505c4ea4e70b,2021-02-24_22h51.56.207,Colour_Similarity_Experiment,2020.2.10,Win32,60,6036d0d9a84aa1626184a6ef,17.19034884,16.69327103,16.66666483,16.66744388,16.66563589,16.67325391,,,,,,,,,,,,,,,,,,,,PF,weak,3,,,,,,,,0,1.05113,,,,,,,,,,,,,,,,,,,,,,,,,,,,7,weak,-25,91,1,0,0,response7disk,7,190,-2,10,1,0,0,rectangle,-2,10,1,0,0,4,5,0,0.00396,-2,10,1,0,0,0,27,27,51,1,,,,,,,,,,,,,,,,,,,,,
,,,,,,,,,,,,,,,,,,,,,,,,,,,,,,,,,,,,,,,,,,5f6bf519a0ac5f171d604e74,6036d866a668505c4ea4e70b,2021-02-24_22h51.56.207,Colour_Similarity_Experiment,2020.2.10,Win32,60,6036d0d9a84aa1626184a6ef,17.19034884,16.69327103,16.66666483,16.66744388,16.66563589,16.67325391,,,,,,,,,,,,,,,,,,,,PF,weak,3,,,,,,,,7,1.08907,,,,,,,,,,,,,,,,,,,,,,,,,,,,5,weak,54,77,1,0,0,response1disk,1,191,11,7,1,0,0,rectangle,-75,-37,1,0,0,4,2,1,2.265165,7,2,1,0,0,0,28,28,159,1,response5disk_3,rectangle,,,,,,,,,,,,,,,,,,,
,,,,,,,,,,,,,,,,,,,,,,,,,,,,,,,,,,,,,,,,,,5f6bf519a0ac5f171d604e74,6036d866a668505c4ea4e70b,2021-02-24_22h51.56.207,Colour_Similarity_Experiment,2020.2.10,Win32,60,6036d0d9a84aa1626184a6ef,17.19034884,16.69327103,16.66666483,16.66744388,16.66563589,16.67325391,,,,,,,,,,,,,,,,,,,,PF,strong,3,,,,,,,,1,1.53585,,,,,,,,,,,,,,,,,,,,,,,,,,,,3,strong,-89,35,1,0,0,response7disk,3,192,6,1,1,0,0,rectangle,6,1,1,0,0,4,2,0,0.00061,6,1,1,0,0,0,29,29,68,1,,,,,,,,,,,,,,,,,,,,,
,,,,,,,,,,,,,,,,,,,,,,,,,,,,,,,,,,,,,,,,,,5f6bf519a0ac5f171d604e74,6036d866a668505c4ea4e70b,2021-02-24_22h51.56.207,Colour_Similarity_Experiment,2020.2.10,Win32,60,6036d0d9a84aa1626184a6ef,17.19034884,16.69327103,16.66666483,16.66744388,16.66563589,16.67325391,,,,,,,,,,,,,,,,,,,,PF,strong,3,,,,,,,,7,1.00075,,,,,,,,,,,,,,,,,,,,,,,,,,,,2,strong,27,72,1,0,0,response1disk,8,193,-4,0,1,0,0,rectangle,-4,0,1,0,0,4,1,0,0.00331,-4,0,1,0,0,0,30,30,62,1,,,,,,,,,,,,,,,,,,,,,
,,,,,,,,,,,,,,,,,,,,,,,,,,,,,,,,,,,,,,,,,,5f6bf519a0ac5f171d604e74,6036d866a668505c4ea4e70b,2021-02-24_22h51.56.207,Colour_Similarity_Experiment,2020.2.10,Win32,60,6036d0d9a84aa1626184a6ef,17.19034884,16.69327103,16.66666483,16.66744388,16.66563589,16.67325391,,,,,,,,,,,,,,,,,,,,PF,strong,3,,,,,,,,1,4.87903,,,,,,,,,,,,,,,,,,,,,,,,,,,,6,strong,-84,32,1,0,0,response7disk,8,194,10,3,1,0,0,rectangle,10,3,1,0,0,4,1,0,0.000435,10,3,1,0,0,0,31,31,133,1,,,,,,,,,,,,,,,,,,,,,
,,,,,,,,,,,,,,,,,,,,,,,,,,,,,,,,,,,,,,,,,,5f6bf519a0ac5f171d604e74,6036d866a668505c4ea4e70b,2021-02-24_22h51.56.207,Colour_Similarity_Experiment,2020.2.10,Win32,60,6036d0d9a84aa1626184a6ef,17.19034884,16.69327103,16.66666483,16.66744388,16.66563589,16.67325391,,,,,,,,,,,,,,,,,,,,PF,strong,3,,,,,,,,7,3.88482,,,,,,,,,,,,,,,,,,,,,,,,,,,,2,strong,48,102,1,0,0,response1disk,6,195,4,14,1,0,0,rectangle,4,14,1,0,0,4,1,0,0.00016,4,14,1,0,0,0,32,32,40,1,,,,,,,,,,,,,,,,,,,,,
