key_resp.keys,key_resp.rt,key_resp_16.keys,key_resp_16.rt,key_resp_2.keys,key_resp_2.rt,X Scale,ratio_pxpermm,screen_size_x,screen_size_y,testsize,key_resp_3.keys,key_resp_4.keys,key_resp_4.rt,line_size,key_resp_5.keys,key_resp_5.rt,key_resp_6.keys,key_resp_6.rt,key_resp_8.keys,key_resp_8.rt,key_resp_7.keys,key_resp_7.rt,key_resp_12.keys,key_resp_12.rt,key_resp_11.keys,key_resp_11.rt,key_resp_18.keys,key_resp_18.rt,key_resp_21.keys,key_resp_21.rt,key_resp_13.keys,key_resp_13.rt,key_resp_19.keys,key_resp_19.rt,ballposx,viewer_distance,trials.thisRepN,trials.thisTrialN,trials.thisN,trials.thisIndex,trials.ran,participant,session,date,expName,psychopyVersion,OS,frameRate,study_id,realFrameRate1,realFrameRate2,realFrameRate3,realFrameRate4,realFrameRate5,realFrameRate,viewerdistancecm,DVA_to_distance,radius_F,radius_P,r_F,R_P,key_resp_20.keys,key_resp_20.rt,key_resp_14.keys,key_resp_14.rt,key_resp_15.keys,key_resp_15.rt,key_resp_17.keys,key_resp_17.rt,key_resp_9.keys,key_resp_9.rt,key_resp_10.keys,key_resp_10.rt,Colour_1,Ecc,maskCon,mask_frames,mouse_5.x,mouse_5.y,mouse_5.leftButton,mouse_5.midButton,mouse_5.rightButton,mouse_5.clicked_name,Colour_2,similarity,response_time,mouse_10.x,mouse_10.y,mouse_10.leftButton,mouse_10.midButton,mouse_10.rightButton,mouse_10.clicked_name,mouse_7.x,mouse_7.y,mouse_7.leftButton,mouse_7.midButton,mouse_7.rightButton,catchnumberprac,mouse_6.x,mouse_6.y,mouse_6.leftButton,mouse_6.midButton,mouse_6.rightButton,duringprac.thisRepN,duringprac.thisTrialN,duringprac.thisN,duringprac.thisIndex,duringprac.ran,mouse_7.clicked_name,mouse_6.clicked_name,key_resp_22.keys,key_resp_22.rt,Colour1,maskCon1,mouse.x,mouse.y,mouse.leftButton,mouse.midButton,mouse.rightButton,mouse.clicked_name,Colour2,trialnumber,mouse_2.x,mouse_2.y,mouse_2.leftButton,mouse_2.midButton,mouse_2.rightButton,mouse_2.clicked_name,mouse_3.x,mouse_3.y,mouse_3.leftButton,mouse_3.midButton,mouse_3.rightButton,catchresponse,catchnumber,Catch,response_time_catch,mouse_11.x,mouse_11.y,mouse_11.leftButton,mouse_11.midButton,mouse_11.rightButton,trials_2.thisRepN,trials_2.thisTrialN,trials_2.thisN,trials_2.thisIndex,trials_2.ran,mouse_3.clicked_name,mouse_11.clicked_name,trials_3.thisRepN,trials_3.thisTrialN,trials_3.thisN,trials_3.thisIndex,trials_3.ran,answer1,rt1,answer2,rt2,answer3,rt3,answer4,rt4,answer5,rt5,answer6,rt6,answer7,rt7
space,2.961405,space,3.41184,space,8.1834,45,4.5,341.3333333,192,1536,,space,39.46978,90,space,12.032705,space,6.30437,space,4.035645,space,5.76714,space,7.443195,space,6.869465,space,11.869675,space,10.749035,space,8.97369,return,9.80082,-783.36,1293.798126,0,0,0,0,1,6009aa37bb4a7c0253712de4,6036f7d9990a45de29df2c31,2021-02-25_01h05.53.491,Colour_Similarity_Experiment,2020.2.10,Win32,60,6036d0d9a84aa1626184a6ef,16.99784983,16.69524155,16.98936378,16.67790629,16.66925355,16.75794129,,,,,,,,,,,,,,,,,,,,,,,,,,,,,,,,,,,,,,,,,,,,,,,,,,,,,,,,,,,,,,,,,,,,,,,,,,,,,,,,,,,,,,,,,,,,,,,,,,,,,,,,,,,,,,,,,
,,,,,,,,,,,,,,,,,,,,,,,,,,,,,,,,,return,9.882145,-792.576,1302.328663,1,0,1,0,1,6009aa37bb4a7c0253712de4,6036f7d9990a45de29df2c31,2021-02-25_01h05.53.491,Colour_Similarity_Experiment,2020.2.10,Win32,60,6036d0d9a84aa1626184a6ef,16.99784983,16.69524155,16.98936378,16.67790629,16.66925355,16.75794129,,,,,,,,,,,,,,,,,,,,,,,,,,,,,,,,,,,,,,,,,,,,,,,,,,,,,,,,,,,,,,,,,,,,,,,,,,,,,,,,,,,,,,,,,,,,,,,,,,,,,,,,,,,,,,,,,
,,,,,,,,,,,,,,,,,,,,,,,,,,,,,,,,,return,9.914135,-797.184,1306.593932,2,0,2,0,1,6009aa37bb4a7c0253712de4,6036f7d9990a45de29df2c31,2021-02-25_01h05.53.491,Colour_Similarity_Experiment,2020.2.10,Win32,60,6036d0d9a84aa1626184a6ef,16.99784983,16.69524155,16.98936378,16.67790629,16.66925355,16.75794129,,,,,,,,,,,,,,,,,,,,,,,,,,,,,,,,,,,,,,,,,,,,,,,,,,,,,,,,,,,,,,,,,,,,,,,,,,,,,,,,,,,,,,,,,,,,,,,,,,,,,,,,,,,,,,,,,
,,,,,,,,,,,,,,,,,,,,,,,,,,,,,,,,,return,9.91163,-797.184,1306.593932,3,0,3,0,1,6009aa37bb4a7c0253712de4,6036f7d9990a45de29df2c31,2021-02-25_01h05.53.491,Colour_Similarity_Experiment,2020.2.10,Win32,60,6036d0d9a84aa1626184a6ef,16.99784983,16.69524155,16.98936378,16.67790629,16.66925355,16.75794129,,,,,,,,,,,,,,,,,,,,,,,,,,,,,,,,,,,,,,,,,,,,,,,,,,,,,,,,,,,,,,,,,,,,,,,,,,,,,,,,,,,,,,,,,,,,,,,,,,,,,,,,,,,,,,,,,
,,,,,,,,,,,,,,,,,,,,,,,,,,,,,,,,,return,9.930145,-799.488,1308.726566,4,0,4,0,1,6009aa37bb4a7c0253712de4,6036f7d9990a45de29df2c31,2021-02-25_01h05.53.491,Colour_Similarity_Experiment,2020.2.10,Win32,60,6036d0d9a84aa1626184a6ef,16.99784983,16.69524155,16.98936378,16.67790629,16.66925355,16.75794129,,,,,,,,,,,,,,,,,,,,,,,,,,,,,,,,,,,,,,,,,,,,,,,,,,,,,,,,,,,,,,,,,,,,,,,,,,,,,,,,,,,,,,,,,,,,,,,,,,,,,,,,,,,,,,,,,
,,,,,,,,,,,,,,,,,,,,,,,,,,,,,,,,,,,,,,,,,,6009aa37bb4a7c0253712de4,6036f7d9990a45de29df2c31,2021-02-25_01h05.53.491,Colour_Similarity_Experiment,2020.2.10,Win32,60,6036d0d9a84aa1626184a6ef,16.99784983,16.69524155,16.98936378,16.67790629,16.66925355,16.75794129,131,22.86612688,154.3463564,1028.97571,102.897571,463.0390693,space,6.51406,space,20.728115,space,69.07473,space,14.823845,space,13.8348,space,6.26536,6,PF,strong,3,41.60006089,107.9999952,1,0,0,response1disk_5,1,7,18.96304,-3.199988604,-6.4373E-06,1,0,0,rectangle_8,-3.199988604,-6.4373E-06,1,0,0,2,-3.199988604,-6.4373E-06,1,0,0,0,0,0,2,1,,,,,,,,,,,,,,,,,,,,,,,,,,,,,,,,,,,,,,,,,,,,,,,,,,,,,,,,,,,,
,,,,,,,,,,,,,,,,,,,,,,,,,,,,,,,,,,,,,,,,,,6009aa37bb4a7c0253712de4,6036f7d9990a45de29df2c31,2021-02-25_01h05.53.491,Colour_Similarity_Experiment,2020.2.10,Win32,60,6036d0d9a84aa1626184a6ef,16.99784983,16.69524155,16.98936378,16.67790629,16.66925355,16.75794129,,,,,,,,,,,,,,,,,,,2,PF,weak,3,36.00001198,115.9999953,1,0,0,response1disk_5,6,7,5.911875,-3.199988604,-6.4373E-06,1,0,0,rectangle_8,-3.199988604,-6.4373E-06,1,0,0,2,-3.199988604,-6.4373E-06,1,0,0,0,1,1,5,1,,,,,,,,,,,,,,,,,,,,,,,,,,,,,,,,,,,,,,,,,,,,,,,,,,,,,,,,,,,,
,,,,,,,,,,,,,,,,,,,,,,,,,,,,,,,,,,,,,,,,,,6009aa37bb4a7c0253712de4,6036f7d9990a45de29df2c31,2021-02-25_01h05.53.491,Colour_Similarity_Experiment,2020.2.10,Win32,60,6036d0d9a84aa1626184a6ef,16.99784983,16.69524155,16.98936378,16.67790629,16.66925355,16.75794129,,,,,,,,,,,,,,,,,,,4,PF,strong,3,40.80001205,107.9999952,1,0,0,response1disk_5,5,7,19.515545,-3.999988616,3.999993622,1,0,0,rectangle_8,-83.1999898,-55.20000726,1,0,0,2,-22.39994006,-1.600006461,1,0,0,0,2,2,0,1,response5disk_7,rectangle_4,,,,,,,,,,,,,,,,,,,,,,,,,,,,,,,,,,,,,,,,,,,,,,,,,,,,,,,,,,
,,,,,,,,,,,,,,,,,,,,,,,,,,,,,,,,,,,,,,,,,,6009aa37bb4a7c0253712de4,6036f7d9990a45de29df2c31,2021-02-25_01h05.53.491,Colour_Similarity_Experiment,2020.2.10,Win32,60,6036d0d9a84aa1626184a6ef,16.99784983,16.69524155,16.98936378,16.67790629,16.66925355,16.75794129,,,,,,,,,,,,,,,,,,,3,PF,weak,3,-27.99998897,87.99999487,1,0,0,response7disk_5,3,0,10.24874,4.000011504,5.599993646,1,0,0,rectangle_8,4.000011504,5.599993646,1,0,0,2,4.000011504,5.599993646,1,0,0,0,3,3,4,1,,,,,,,,,,,,,,,,,,,,,,,,,,,,,,,,,,,,,,,,,,,,,,,,,,,,,,,,,,,,
,,,,,,,,,,,,,,,,,,,,,,,,,,,,,,,,,,,,,,,,,,6009aa37bb4a7c0253712de4,6036f7d9990a45de29df2c31,2021-02-25_01h05.53.491,Colour_Similarity_Experiment,2020.2.10,Win32,60,6036d0d9a84aa1626184a6ef,16.99784983,16.69524155,16.98936378,16.67790629,16.66925355,16.75794129,,,,,,,,,,,,,,,,,,,3,PF,weak,3,45.60006095,84.79999483,1,0,0,response1disk_5,7,7,2.150245,-3.999988616,-5.600006521,1,0,0,rectangle_8,-3.999988616,-5.600006521,1,0,0,2,-3.999988616,-5.600006521,1,0,0,0,4,4,1,1,,,,,,,,,,,,,,,,,,,,,,,,,,,,,,,,,,,,,,,,,,,,,,,,,,,,,,,,,,,,
,,,,,,,,,,,,,,,,,,,,,,,,,,,,,,,,,,,,,,,,,,6009aa37bb4a7c0253712de4,6036f7d9990a45de29df2c31,2021-02-25_01h05.53.491,Colour_Similarity_Experiment,2020.2.10,Win32,60,6036d0d9a84aa1626184a6ef,16.99784983,16.69524155,16.98936378,16.67790629,16.66925355,16.75794129,,,,,,,,,,,,,,,,,,,3,PF,strong,3,28.80001187,98.39999503,1,0,0,response1disk_5,4,7,3.44647,-11.19998872,1.599993587,1,0,0,rectangle_8,-11.19998872,1.599993587,1,0,0,2,-11.19998872,1.599993587,1,0,0,0,5,5,3,1,,,,,,,,,,,,,,,,,,,,,,,,,,,,,,,,,,,,,,,,,,,,,,,,,,,,,,,,,,,,
,,,,,,,,,,,,,,,,,,,,,,,,,,,,,,,,,,,,,,,,,,6009aa37bb4a7c0253712de4,6036f7d9990a45de29df2c31,2021-02-25_01h05.53.491,Colour_Similarity_Experiment,2020.2.10,Win32,60,6036d0d9a84aa1626184a6ef,16.99784983,16.69524155,16.98936378,16.67790629,16.66925355,16.75794129,,,,,,,,,,,,,,,,,,,3,PF,weak,3,-31.19998902,79.19997033,1,0,0,response7disk_5,3,0,3.96602,-6.399939823,-4.000006497,1,0,0,rectangle_8,-6.399939823,-4.000006497,1,0,0,2,-6.399939823,-4.000006497,1,0,0,0,6,6,6,1,,,,,,,,,,,,,,,,,,,,,,,,,,,,,,,,,,,,,,,,,,,,,,,,,,,,,,,,,,,,
,,,,,,,,,,,,,,,,,,,,,,,,,,,,,,,,,,,,,,,,,,6009aa37bb4a7c0253712de4,6036f7d9990a45de29df2c31,2021-02-25_01h05.53.491,Colour_Similarity_Experiment,2020.2.10,Win32,60,6036d0d9a84aa1626184a6ef,16.99784983,16.69524155,16.98936378,16.67790629,16.66925355,16.75794129,,,,,,,,,,,,,,,,,,,,PF,weak,3,,,,,,,,7,2.12935,,,,,,,,,,,,,,,,,,,,,,,,,space,4.52077,5,weak,40.80001205,92.79999495,1,0,0,response1disk,3,1,-2.399939764,-13.60000664,1,0,0,rectangle,-2.399939764,-13.60000664,1,0,0,,0,0,0.0017,-2.399939764,-13.60000664,1,0,0,0,0,0,109,1,,,,,,,,,,,,,,,,,,,,,
,,,,,,,,,,,,,,,,,,,,,,,,,,,,,,,,,,,,,,,,,,6009aa37bb4a7c0253712de4,6036f7d9990a45de29df2c31,2021-02-25_01h05.53.491,Colour_Similarity_Experiment,2020.2.10,Win32,60,6036d0d9a84aa1626184a6ef,16.99784983,16.69524155,16.98936378,16.67790629,16.66925355,16.75794129,,,,,,,,,,,,,,,,,,,,PF,weak,3,,,,,,,,0,2.266935,,,,,,,,,,,,,,,,,,,,,,,,,,,4,weak,-32.79998904,75.9999947,1,0,0,response7disk,3,2,1.14441E-05,-0.800006449,1,0,0,rectangle,1.14441E-05,-0.800006449,1,0,0,,6,0,0.00089,1.14441E-05,-0.800006449,1,0,0,0,1,1,89,1,,,,,,,,,,,,,,,,,,,,,
,,,,,,,,,,,,,,,,,,,,,,,,,,,,,,,,,,,,,,,,,,6009aa37bb4a7c0253712de4,6036f7d9990a45de29df2c31,2021-02-25_01h05.53.491,Colour_Similarity_Experiment,2020.2.10,Win32,60,6036d0d9a84aa1626184a6ef,16.99784983,16.69524155,16.98936378,16.67790629,16.66925355,16.75794129,,,,,,,,,,,,,,,,,,,,PF,strong,3,,,,,,,,0,1.446155,,,,,,,,,,,,,,,,,,,,,,,,,,,5,strong,-22.39994006,77.59999472,1,0,0,response7disk,4,3,-14.39993994,11.19999373,1,0,0,rectangle,-14.39993994,11.19999373,1,0,0,,5,0,0.00196,-14.39993994,11.19999373,1,0,0,0,2,2,8,1,,,,,,,,,,,,,,,,,,,,,
,,,,,,,,,,,,,,,,,,,,,,,,,,,,,,,,,,,,,,,,,,6009aa37bb4a7c0253712de4,6036f7d9990a45de29df2c31,2021-02-25_01h05.53.491,Colour_Similarity_Experiment,2020.2.10,Win32,60,6036d0d9a84aa1626184a6ef,16.99784983,16.69524155,16.98936378,16.67790629,16.66925355,16.75794129,,,,,,,,,,,,,,,,,,,,PF,weak,3,,,,,,,,7,1.06278,,,,,,,,,,,,,,,,,,,,,,,,,,,2,weak,28.80001187,67.19997015,1,0,0,response1disk,9,4,-1.59998858,-8.000006557,1,0,0,rectangle,-1.59998858,-8.000006557,1,0,0,,4,0,0.001825,-1.59998858,-8.000006557,1,0,0,0,3,3,39,1,,,,,,,,,,,,,,,,,,,,,
,,,,,,,,,,,,,,,,,,,,,,,,,,,,,,,,,,,,,,,,,,6009aa37bb4a7c0253712de4,6036f7d9990a45de29df2c31,2021-02-25_01h05.53.491,Colour_Similarity_Experiment,2020.2.10,Win32,60,6036d0d9a84aa1626184a6ef,16.99784983,16.69524155,16.98936378,16.67790629,16.66925355,16.75794129,,,,,,,,,,,,,,,,,,,,PF,strong,3,,,,,,,,7,1.19651,,,,,,,,,,,,,,,,,,,,,,,,,,,1,strong,34.40001196,56.79999441,1,0,0,response1disk,3,5,6.400011539,-4.000006497,1,0,0,rectangle,6.400011539,-4.000006497,1,0,0,,4,0,0.000115,6.400011539,-4.000006497,1,0,0,0,4,4,99,1,,,,,,,,,,,,,,,,,,,,,
,,,,,,,,,,,,,,,,,,,,,,,,,,,,,,,,,,,,,,,,,,6009aa37bb4a7c0253712de4,6036f7d9990a45de29df2c31,2021-02-25_01h05.53.491,Colour_Similarity_Experiment,2020.2.10,Win32,60,6036d0d9a84aa1626184a6ef,16.99784983,16.69524155,16.98936378,16.67790629,16.66925355,16.75794129,,,,,,,,,,,,,,,,,,,,PF,weak,3,,,,,,,,7,2.746185,,,,,,,,,,,,,,,,,,,,,,,,,,,8,weak,31.20001191,67.19997015,1,0,0,response1disk,5,6,-7.999988675,-4.800006509,1,0,0,rectangle,-7.999988675,-4.800006509,1,0,0,,4,0,0.00031,-7.999988675,-4.800006509,1,0,0,0,5,5,98,1,,,,,,,,,,,,,,,,,,,,,
,,,,,,,,,,,,,,,,,,,,,,,,,,,,,,,,,,,,,,,,,,6009aa37bb4a7c0253712de4,6036f7d9990a45de29df2c31,2021-02-25_01h05.53.491,Colour_Similarity_Experiment,2020.2.10,Win32,60,6036d0d9a84aa1626184a6ef,16.99784983,16.69524155,16.98936378,16.67790629,16.66925355,16.75794129,,,,,,,,,,,,,,,,,,,,PF,strong,3,,,,,,,,7,0.95035,,,,,,,,,,,,,,,,,,,,,,,,,,,1,strong,38.40001202,83.19997039,1,0,0,response1disk,5,7,5.600060356,-6.4373E-06,1,0,0,rectangle,5.600060356,-6.4373E-06,1,0,0,,6,0,0.00093,5.600060356,-6.4373E-06,1,0,0,0,6,6,82,1,,,,,,,,,,,,,,,,,,,,,
,,,,,,,,,,,,,,,,,,,,,,,,,,,,,,,,,,,,,,,,,,6009aa37bb4a7c0253712de4,6036f7d9990a45de29df2c31,2021-02-25_01h05.53.491,Colour_Similarity_Experiment,2020.2.10,Win32,60,6036d0d9a84aa1626184a6ef,16.99784983,16.69524155,16.98936378,16.67790629,16.66925355,16.75794129,,,,,,,,,,,,,,,,,,,,PF,weak,3,,,,,,,,0,1.113125,,,,,,,,,,,,,,,,,,,,,,,,,,,4,weak,-41.59998918,72.79999465,1,0,0,response7disk,2,8,1.600060296,-8.000006557,1,0,0,rectangle,1.600060296,-8.000006557,1,0,0,,2,0,0.000855,1.600060296,-8.000006557,1,0,0,0,7,7,108,1,,,,,,,,,,,,,,,,,,,,,
,,,,,,,,,,,,,,,,,,,,,,,,,,,,,,,,,,,,,,,,,,6009aa37bb4a7c0253712de4,6036f7d9990a45de29df2c31,2021-02-25_01h05.53.491,Colour_Similarity_Experiment,2020.2.10,Win32,60,6036d0d9a84aa1626184a6ef,16.99784983,16.69524155,16.98936378,16.67790629,16.66925355,16.75794129,,,,,,,,,,,,,,,,,,,,PF,strong,3,,,,,,,,0,1.334145,,,,,,,,,,,,,,,,,,,,,,,,,,,7,strong,-31.19998902,72.79999465,1,0,0,response7disk,9,9,-5.599988639,-1.600006461,1,0,0,rectangle,-5.599988639,-1.600006461,1,0,0,,3,0,0.00083,-5.599988639,-1.600006461,1,0,0,0,8,8,155,1,,,,,,,,,,,,,,,,,,,,,
,,,,,,,,,,,,,,,,,,,,,,,,,,,,,,,,,,,,,,,,,,6009aa37bb4a7c0253712de4,6036f7d9990a45de29df2c31,2021-02-25_01h05.53.491,Colour_Similarity_Experiment,2020.2.10,Win32,60,6036d0d9a84aa1626184a6ef,16.99784983,16.69524155,16.98936378,16.67790629,16.66925355,16.75794129,,,,,,,,,,,,,,,,,,,,PF,strong,3,,,,,,,,7,1.86291,,,,,,,,,,,,,,,,,,,,,,,,,,,3,strong,31.20001191,79.19997033,1,0,0,response1disk,1,10,0.800011456,-2.400006473,1,0,0,rectangle,0.800011456,-2.400006473,1,0,0,,7,0,0.000845,0.800011456,-2.400006473,1,0,0,0,9,9,125,1,,,,,,,,,,,,,,,,,,,,,
,,,,,,,,,,,,,,,,,,,,,,,,,,,,,,,,,,,,,,,,,,6009aa37bb4a7c0253712de4,6036f7d9990a45de29df2c31,2021-02-25_01h05.53.491,Colour_Similarity_Experiment,2020.2.10,Win32,60,6036d0d9a84aa1626184a6ef,16.99784983,16.69524155,16.98936378,16.67790629,16.66925355,16.75794129,,,,,,,,,,,,,,,,,,,,PF,strong,3,,,,,,,,0,2.05009,,,,,,,,,,,,,,,,,,,,,,,,,,,2,strong,-39.19998914,77.59999472,1,0,0,response7disk,4,11,-2.399939764,-0.800006449,1,0,0,rectangle,-2.399939764,-0.800006449,1,0,0,,7,0,0.000215,-2.399939764,-0.800006449,1,0,0,0,10,10,145,1,,,,,,,,,,,,,,,,,,,,,
,,,,,,,,,,,,,,,,,,,,,,,,,,,,,,,,,,,,,,,,,,6009aa37bb4a7c0253712de4,6036f7d9990a45de29df2c31,2021-02-25_01h05.53.491,Colour_Similarity_Experiment,2020.2.10,Win32,60,6036d0d9a84aa1626184a6ef,16.99784983,16.69524155,16.98936378,16.67790629,16.66925355,16.75794129,,,,,,,,,,,,,,,,,,,,PF,strong,3,,,,,,,,0,1.51713,,,,,,,,,,,,,,,,,,,,,,,,,,,7,strong,-39.99998915,79.19997033,1,0,0,response7disk,6,12,-12.79998875,-6.4373E-06,1,0,0,rectangle,-12.79998875,-6.4373E-06,1,0,0,,4,0,0.001435,-12.79998875,-6.4373E-06,1,0,0,0,11,11,31,1,,,,,,,,,,,,,,,,,,,,,
,,,,,,,,,,,,,,,,,,,,,,,,,,,,,,,,,,,,,,,,,,6009aa37bb4a7c0253712de4,6036f7d9990a45de29df2c31,2021-02-25_01h05.53.491,Colour_Similarity_Experiment,2020.2.10,Win32,60,6036d0d9a84aa1626184a6ef,16.99784983,16.69524155,16.98936378,16.67790629,16.66925355,16.75794129,,,,,,,,,,,,,,,,,,,,PF,strong,3,,,,,,,,0,1.5299,,,,,,,,,,,,,,,,,,,,,,,,,,,4,strong,-37.59998912,82.39999479,1,0,0,response7disk,4,13,2.40001148,4.799993634,1,0,0,rectangle,2.40001148,4.799993634,1,0,0,,5,0,0.000935,2.40001148,4.799993634,1,0,0,0,12,12,84,1,,,,,,,,,,,,,,,,,,,,,
,,,,,,,,,,,,,,,,,,,,,,,,,,,,,,,,,,,,,,,,,,6009aa37bb4a7c0253712de4,6036f7d9990a45de29df2c31,2021-02-25_01h05.53.491,Colour_Similarity_Experiment,2020.2.10,Win32,60,6036d0d9a84aa1626184a6ef,16.99784983,16.69524155,16.98936378,16.67790629,16.66925355,16.75794129,,,,,,,,,,,,,,,,,,,,PF,strong,3,,,,,,,,7,1.213,,,,,,,,,,,,,,,,,,,,,,,,,,,6,strong,25.60006065,91.99999493,1,0,0,response1disk,8,14,-1.59998858,1.599993587,1,0,0,rectangle,-1.59998858,1.599993587,1,0,0,,5,0,0.0002,-1.59998858,1.599993587,1,0,0,0,13,13,133,1,,,,,,,,,,,,,,,,,,,,,
,,,,,,,,,,,,,,,,,,,,,,,,,,,,,,,,,,,,,,,,,,6009aa37bb4a7c0253712de4,6036f7d9990a45de29df2c31,2021-02-25_01h05.53.491,Colour_Similarity_Experiment,2020.2.10,Win32,60,6036d0d9a84aa1626184a6ef,16.99784983,16.69524155,16.98936378,16.67790629,16.66925355,16.75794129,,,,,,,,,,,,,,,,,,,,PF,weak,3,,,,,,,,0,0.91307,,,,,,,,,,,,,,,,,,,,,,,,,,,3,weak,-28.79998899,51.19996991,1,0,0,response7disk,4,15,2.40001148,-4.000006497,1,0,0,rectangle,2.40001148,-4.000006497,1,0,0,,4,0,0.001,2.40001148,-4.000006497,1,0,0,0,14,14,30,1,,,,,,,,,,,,,,,,,,,,,
,,,,,,,,,,,,,,,,,,,,,,,,,,,,,,,,,,,,,,,,,,6009aa37bb4a7c0253712de4,6036f7d9990a45de29df2c31,2021-02-25_01h05.53.491,Colour_Similarity_Experiment,2020.2.10,Win32,60,6036d0d9a84aa1626184a6ef,16.99784983,16.69524155,16.98936378,16.67790629,16.66925355,16.75794129,,,,,,,,,,,,,,,,,,,,PF,weak,3,,,,,,,,0,2.62967,,,,,,,,,,,,,,,,,,,,,,,,,,,1,weak,-43.1999892,78.39999473,1,0,0,response7disk,1,16,-3.999988616,-1.600006461,1,0,0,rectangle,86.40001273,-41.60000706,1,0,0,5,5,1,3.59943,-4.799988627,2.399993598,1,0,0,0,15,15,76,1,response3disk_3,rectangle,,,,,,,,,,,,,,,,,,,
,,,,,,,,,,,,,,,,,,,,,,,,,,,,,,,,,,,,,,,,,,6009aa37bb4a7c0253712de4,6036f7d9990a45de29df2c31,2021-02-25_01h05.53.491,Colour_Similarity_Experiment,2020.2.10,Win32,60,6036d0d9a84aa1626184a6ef,16.99784983,16.69524155,16.98936378,16.67790629,16.66925355,16.75794129,,,,,,,,,,,,,,,,,,,,PF,strong,3,,,,,,,,0,1.36338,,,,,,,,,,,,,,,,,,,,,,,,,,,8,strong,-29.599989,91.19997051,1,0,0,response7disk,6,17,-0.799988568,-1.600006461,1,0,0,rectangle,-0.799988568,-1.600006461,1,0,0,5,2,0,0.00149,-0.799988568,-1.600006461,1,0,0,0,16,16,37,1,,,,,,,,,,,,,,,,,,,,,
,,,,,,,,,,,,,,,,,,,,,,,,,,,,,,,,,,,,,,,,,,6009aa37bb4a7c0253712de4,6036f7d9990a45de29df2c31,2021-02-25_01h05.53.491,Colour_Similarity_Experiment,2020.2.10,Win32,60,6036d0d9a84aa1626184a6ef,16.99784983,16.69524155,16.98936378,16.67790629,16.66925355,16.75794129,,,,,,,,,,,,,,,,,,,,PF,strong,3,,,,,,,,7,1.29667,,,,,,,,,,,,,,,,,,,,,,,,,,,9,strong,28.80001187,83.19997039,1,0,0,response1disk,3,18,-4.799988627,11.99999374,1,0,0,rectangle,-4.799988627,11.99999374,1,0,0,5,1,0,0.001385,-4.799988627,11.99999374,1,0,0,0,17,17,141,1,,,,,,,,,,,,,,,,,,,,,
,,,,,,,,,,,,,,,,,,,,,,,,,,,,,,,,,,,,,,,,,,6009aa37bb4a7c0253712de4,6036f7d9990a45de29df2c31,2021-02-25_01h05.53.491,Colour_Similarity_Experiment,2020.2.10,Win32,60,6036d0d9a84aa1626184a6ef,16.99784983,16.69524155,16.98936378,16.67790629,16.66925355,16.75794129,,,,,,,,,,,,,,,,,,,,PF,weak,3,,,,,,,,7,1.43304,,,,,,,,,,,,,,,,,,,,,,,,,,,6,weak,48.00001216,86.39999485,1,0,0,response1disk,1,19,3.200011492,-0.800006449,1,0,0,rectangle,3.200011492,-0.800006449,1,0,0,5,7,0,0.001225,3.200011492,-0.800006449,1,0,0,0,18,18,46,1,,,,,,,,,,,,,,,,,,,,,
,,,,,,,,,,,,,,,,,,,,,,,,,,,,,,,,,,,,,,,,,,6009aa37bb4a7c0253712de4,6036f7d9990a45de29df2c31,2021-02-25_01h05.53.491,Colour_Similarity_Experiment,2020.2.10,Win32,60,6036d0d9a84aa1626184a6ef,16.99784983,16.69524155,16.98936378,16.67790629,16.66925355,16.75794129,,,,,,,,,,,,,,,,,,,,PF,strong,3,,,,,,,,0,1.217895,,,,,,,,,,,,,,,,,,,,,,,,,,,2,strong,-43.99998921,78.39999473,1,0,0,response7disk,6,20,5.600060356,15.9999938,1,0,0,rectangle,5.600060356,15.9999938,1,0,0,5,6,0,0.000805,5.600060356,15.9999938,1,0,0,0,19,19,40,1,,,,,,,,,,,,,,,,,,,,,
,,,,,,,,,,,,,,,,,,,,,,,,,,,,,,,,,,,,,,,,,,6009aa37bb4a7c0253712de4,6036f7d9990a45de29df2c31,2021-02-25_01h05.53.491,Colour_Similarity_Experiment,2020.2.10,Win32,60,6036d0d9a84aa1626184a6ef,16.99784983,16.69524155,16.98936378,16.67790629,16.66925355,16.75794129,,,,,,,,,,,,,,,,,,,,PF,strong,3,,,,,,,,0,1.11846,,,,,,,,,,,,,,,,,,,,,,,,,,,9,strong,-31.99998903,70.39999461,1,0,0,response7disk,1,21,4.800011516,1.599993587,1,0,0,rectangle,4.800011516,1.599993587,1,0,0,5,5,0,0.000765,4.800011516,1.599993587,1,0,0,0,20,20,111,1,,,,,,,,,,,,,,,,,,,,,
,,,,,,,,,,,,,,,,,,,,,,,,,,,,,,,,,,,,,,,,,,6009aa37bb4a7c0253712de4,6036f7d9990a45de29df2c31,2021-02-25_01h05.53.491,Colour_Similarity_Experiment,2020.2.10,Win32,60,6036d0d9a84aa1626184a6ef,16.99784983,16.69524155,16.98936378,16.67790629,16.66925355,16.75794129,,,,,,,,,,,,,,,,,,,,PF,weak,3,,,,,,,,7,0.920185,,,,,,,,,,,,,,,,,,,,,,,,,,,6,weak,33.60006077,81.59999478,1,0,0,response1disk,3,22,8.000011563,-6.4373E-06,1,0,0,rectangle,8.000011563,-6.4373E-06,1,0,0,5,2,0,0.0023,8.000011563,-6.4373E-06,1,0,0,0,21,21,26,1,,,,,,,,,,,,,,,,,,,,,
,,,,,,,,,,,,,,,,,,,,,,,,,,,,,,,,,,,,,,,,,,6009aa37bb4a7c0253712de4,6036f7d9990a45de29df2c31,2021-02-25_01h05.53.491,Colour_Similarity_Experiment,2020.2.10,Win32,60,6036d0d9a84aa1626184a6ef,16.99784983,16.69524155,16.98936378,16.67790629,16.66925355,16.75794129,,,,,,,,,,,,,,,,,,,,PF,strong,3,,,,,,,,7,0.78,,,,,,,,,,,,,,,,,,,,,,,,,,,4,strong,30.4000119,64.79999453,1,0,0,response1disk,2,23,-3.999988616,-16.80000669,1,0,0,rectangle,-3.999988616,-16.80000669,1,0,0,5,6,0,0.001025,-3.999988616,-16.80000669,1,0,0,0,22,22,13,1,,,,,,,,,,,,,,,,,,,,,
,,,,,,,,,,,,,,,,,,,,,,,,,,,,,,,,,,,,,,,,,,6009aa37bb4a7c0253712de4,6036f7d9990a45de29df2c31,2021-02-25_01h05.53.491,Colour_Similarity_Experiment,2020.2.10,Win32,60,6036d0d9a84aa1626184a6ef,16.99784983,16.69524155,16.98936378,16.67790629,16.66925355,16.75794129,,,,,,,,,,,,,,,,,,,,PF,weak,3,,,,,,,,0,1.013845,,,,,,,,,,,,,,,,,,,,,,,,,,,9,weak,-41.59998918,89.5999949,1,0,0,response7disk,2,24,-2.399939764,0.799993575,1,0,0,rectangle,-2.399939764,0.799993575,1,0,0,5,7,0,0.000905,-2.399939764,0.799993575,1,0,0,0,23,23,157,1,,,,,,,,,,,,,,,,,,,,,
,,,,,,,,,,,,,,,,,,,,,,,,,,,,,,,,,,,,,,,,,,6009aa37bb4a7c0253712de4,6036f7d9990a45de29df2c31,2021-02-25_01h05.53.491,Colour_Similarity_Experiment,2020.2.10,Win32,60,6036d0d9a84aa1626184a6ef,16.99784983,16.69524155,16.98936378,16.67790629,16.66925355,16.75794129,,,,,,,,,,,,,,,,,,,,PF,strong,3,,,,,,,,0,1.096145,,,,,,,,,,,,,,,,,,,,,,,,,,,3,strong,-35.19998908,71.19997021,1,0,0,response7disk,6,25,-7.199988663,11.19999373,1,0,0,rectangle,-7.199988663,11.19999373,1,0,0,5,4,0,0.000945,-7.199988663,11.19999373,1,0,0,0,24,24,95,1,,,,,,,,,,,,,,,,,,,,,
,,,,,,,,,,,,,,,,,,,,,,,,,,,,,,,,,,,,,,,,,,6009aa37bb4a7c0253712de4,6036f7d9990a45de29df2c31,2021-02-25_01h05.53.491,Colour_Similarity_Experiment,2020.2.10,Win32,60,6036d0d9a84aa1626184a6ef,16.99784983,16.69524155,16.98936378,16.67790629,16.66925355,16.75794129,,,,,,,,,,,,,,,,,,,,PF,strong,3,,,,,,,,0,0.830035,,,,,,,,,,,,,,,,,,,,,,,,,,,3,strong,-30.39994018,67.19997015,1,0,0,response7disk,8,26,-6.399939823,15.9999938,1,0,0,rectangle,-6.399939823,15.9999938,1,0,0,5,1,0,0.00138,-6.399939823,15.9999938,1,0,0,0,25,25,44,1,,,,,,,,,,,,,,,,,,,,,
,,,,,,,,,,,,,,,,,,,,,,,,,,,,,,,,,,,,,,,,,,6009aa37bb4a7c0253712de4,6036f7d9990a45de29df2c31,2021-02-25_01h05.53.491,Colour_Similarity_Experiment,2020.2.10,Win32,60,6036d0d9a84aa1626184a6ef,16.99784983,16.69524155,16.98936378,16.67790629,16.66925355,16.75794129,,,,,,,,,,,,,,,,,,,,PF,weak,3,,,,,,,,7,0.86725,,,,,,,,,,,,,,,,,,,,,,,,,,,9,weak,42.40001208,53.59999436,1,0,0,response1disk,7,27,4.800011516,3.19999361,1,0,0,rectangle,4.800011516,3.19999361,1,0,0,5,0,0,0.0011,4.800011516,3.19999361,1,0,0,0,26,26,121,1,,,,,,,,,,,,,,,,,,,,,
,,,,,,,,,,,,,,,,,,,,,,,,,,,,,,,,,,,,,,,,,,6009aa37bb4a7c0253712de4,6036f7d9990a45de29df2c31,2021-02-25_01h05.53.491,Colour_Similarity_Experiment,2020.2.10,Win32,60,6036d0d9a84aa1626184a6ef,16.99784983,16.69524155,16.98936378,16.67790629,16.66925355,16.75794129,,,,,,,,,,,,,,,,,,,,PF,weak,3,,,,,,,,7,1.463095,,,,,,,,,,,,,,,,,,,,,,,,,,,4,weak,19.20001173,86.39999485,1,0,0,response1disk,1,28,-0.799988568,7.19999367,1,0,0,rectangle,-0.799988568,7.19999367,1,0,0,5,1,0,0.000815,-0.799988568,7.19999367,1,0,0,0,27,27,115,1,,,,,,,,,,,,,,,,,,,,,
,,,,,,,,,,,,,,,,,,,,,,,,,,,,,,,,,,,,,,,,,,6009aa37bb4a7c0253712de4,6036f7d9990a45de29df2c31,2021-02-25_01h05.53.491,Colour_Similarity_Experiment,2020.2.10,Win32,60,6036d0d9a84aa1626184a6ef,16.99784983,16.69524155,16.98936378,16.67790629,16.66925355,16.75794129,,,,,,,,,,,,,,,,,,,,PF,weak,3,,,,,,,,0,1.1798,,,,,,,,,,,,,,,,,,,,,,,,,,,2,weak,-23.99998891,103.1999707,1,0,0,response7disk,5,29,4.000011504,15.19999379,1,0,0,rectangle,4.000011504,15.19999379,1,0,0,5,1,0,0.00019,4.000011504,15.19999379,1,0,0,0,28,28,147,1,,,,,,,,,,,,,,,,,,,,,
,,,,,,,,,,,,,,,,,,,,,,,,,,,,,,,,,,,,,,,,,,6009aa37bb4a7c0253712de4,6036f7d9990a45de29df2c31,2021-02-25_01h05.53.491,Colour_Similarity_Experiment,2020.2.10,Win32,60,6036d0d9a84aa1626184a6ef,16.99784983,16.69524155,16.98936378,16.67790629,16.66925355,16.75794129,,,,,,,,,,,,,,,,,,,,PF,weak,3,,,,,,,,7,0.896365,,,,,,,,,,,,,,,,,,,,,,,,,,,1,weak,42.40001208,85.59999484,1,0,0,response1disk,6,30,1.600060296,4.799993634,1,0,0,rectangle,1.600060296,4.799993634,1,0,0,5,3,0,0.000775,1.600060296,4.799993634,1,0,0,0,29,29,144,1,,,,,,,,,,,,,,,,,,,,,
,,,,,,,,,,,,,,,,,,,,,,,,,,,,,,,,,,,,,,,,,,6009aa37bb4a7c0253712de4,6036f7d9990a45de29df2c31,2021-02-25_01h05.53.491,Colour_Similarity_Experiment,2020.2.10,Win32,60,6036d0d9a84aa1626184a6ef,16.99784983,16.69524155,16.98936378,16.67790629,16.66925355,16.75794129,,,,,,,,,,,,,,,,,,,,PF,strong,3,,,,,,,,7,1.266615,,,,,,,,,,,,,,,,,,,,,,,,,,,7,strong,37.60006083,98.39999503,1,0,0,response1disk,4,31,-2.399939764,-1.600006461,1,0,0,rectangle,-2.399939764,-1.600006461,1,0,0,5,4,0,0.000785,-2.399939764,-1.600006461,1,0,0,0,30,30,158,1,,,,,,,,,,,,,,,,,,,,,
,,,,,,,,,,,,,,,,,,,,,,,,,,,,,,,,,,,,,,,,,,6009aa37bb4a7c0253712de4,6036f7d9990a45de29df2c31,2021-02-25_01h05.53.491,Colour_Similarity_Experiment,2020.2.10,Win32,60,6036d0d9a84aa1626184a6ef,16.99784983,16.69524155,16.98936378,16.67790629,16.66925355,16.75794129,,,,,,,,,,,,,,,,,,,,PF,strong,3,,,,,,,,0,1.16301,,,,,,,,,,,,,,,,,,,,,,,,,,,8,strong,-40.79998916,79.99999475,1,0,0,response7disk,9,32,-3.199988604,2.399993598,1,0,0,rectangle,-3.199988604,2.399993598,1,0,0,5,7,0,0.000905,-3.199988604,2.399993598,1,0,0,0,31,31,105,1,,,,,,,,,,,,,,,,,,,,,
,,,,,,,,,,,,,,,,,,,,,,,,,,,,,,,,,,,,,,,,,,6009aa37bb4a7c0253712de4,6036f7d9990a45de29df2c31,2021-02-25_01h05.53.491,Colour_Similarity_Experiment,2020.2.10,Win32,60,6036d0d9a84aa1626184a6ef,16.99784983,16.69524155,16.98936378,16.67790629,16.66925355,16.75794129,,,,,,,,,,,,,,,,,,,,PF,strong,3,,,,,,,,7,1.31306,,,,,,,,,,,,,,,,,,,,,,,,,,,5,strong,33.60006077,68.79999459,1,0,0,response1disk,1,33,-7.199988663,2.399993598,1,0,0,rectangle,-7.199988663,2.399993598,1,0,0,5,1,0,0.000865,-7.199988663,2.399993598,1,0,0,0,32,32,131,1,,,,,,,,,,,,,,,,,,,,,
,,,,,,,,,,,,,,,,,,,,,,,,,,,,,,,,,,,,,,,,,,6009aa37bb4a7c0253712de4,6036f7d9990a45de29df2c31,2021-02-25_01h05.53.491,Colour_Similarity_Experiment,2020.2.10,Win32,60,6036d0d9a84aa1626184a6ef,16.99784983,16.69524155,16.98936378,16.67790629,16.66925355,16.75794129,,,,,,,,,,,,,,,,,,,,PF,strong,3,,,,,,,,7,1.5997,,,,,,,,,,,,,,,,,,,,,,,,,,,4,strong,31.20001191,84.79999483,1,0,0,response1disk,6,34,4.000011504,3.19999361,1,0,0,rectangle,4.000011504,3.19999361,1,0,0,5,6,0,0.0014,4.000011504,3.19999361,1,0,0,0,33,33,122,1,,,,,,,,,,,,,,,,,,,,,
,,,,,,,,,,,,,,,,,,,,,,,,,,,,,,,,,,,,,,,,,,6009aa37bb4a7c0253712de4,6036f7d9990a45de29df2c31,2021-02-25_01h05.53.491,Colour_Similarity_Experiment,2020.2.10,Win32,60,6036d0d9a84aa1626184a6ef,16.99784983,16.69524155,16.98936378,16.67790629,16.66925355,16.75794129,,,,,,,,,,,,,,,,,,,,PF,weak,3,,,,,,,,7,1.129975,,,,,,,,,,,,,,,,,,,,,,,,,,,1,weak,39.20001203,86.39999485,1,0,0,response1disk,3,35,-3.999988616,-6.4373E-06,1,0,0,rectangle,-3.999988616,-6.4373E-06,1,0,0,5,0,0,0.001655,-3.999988616,-6.4373E-06,1,0,0,0,34,34,1,1,,,,,,,,,,,,,,,,,,,,,
,,,,,,,,,,,,,,,,,,,,,,,,,,,,,,,,,,,,,,,,,,6009aa37bb4a7c0253712de4,6036f7d9990a45de29df2c31,2021-02-25_01h05.53.491,Colour_Similarity_Experiment,2020.2.10,Win32,60,6036d0d9a84aa1626184a6ef,16.99784983,16.69524155,16.98936378,16.67790629,16.66925355,16.75794129,,,,,,,,,,,,,,,,,,,,PF,strong,3,,,,,,,,7,1.87948,,,,,,,,,,,,,,,,,,,,,,,,,,,8,strong,36.00001198,94.39999497,1,0,0,response1disk,1,36,1.600060296,16.79999381,1,0,0,rectangle,1.600060296,16.79999381,1,0,0,5,5,0,0.001305,1.600060296,16.79999381,1,0,0,0,35,35,20,1,,,,,,,,,,,,,,,,,,,,,
,,,,,,,,,,,,,,,,,,,,,,,,,,,,,,,,,,,,,,,,,,6009aa37bb4a7c0253712de4,6036f7d9990a45de29df2c31,2021-02-25_01h05.53.491,Colour_Similarity_Experiment,2020.2.10,Win32,60,6036d0d9a84aa1626184a6ef,16.99784983,16.69524155,16.98936378,16.67790629,16.66925355,16.75794129,,,,,,,,,,,,,,,,,,,,PF,weak,3,,,,,,,,0,0.862825,,,,,,,,,,,,,,,,,,,,,,,,,,,8,weak,-41.59998918,87.19997045,1,0,0,response7disk,9,37,-7.199988663,11.99999374,1,0,0,rectangle,-7.199988663,11.99999374,1,0,0,5,7,0,0.000855,-7.199988663,11.99999374,1,0,0,0,36,36,42,1,,,,,,,,,,,,,,,,,,,,,
,,,,,,,,,,,,,,,,,,,,,,,,,,,,,,,,,,,,,,,,,,6009aa37bb4a7c0253712de4,6036f7d9990a45de29df2c31,2021-02-25_01h05.53.491,Colour_Similarity_Experiment,2020.2.10,Win32,60,6036d0d9a84aa1626184a6ef,16.99784983,16.69524155,16.98936378,16.67790629,16.66925355,16.75794129,,,,,,,,,,,,,,,,,,,,PF,weak,3,,,,,,,,7,0.945675,,,,,,,,,,,,,,,,,,,,,,,,,,,5,weak,32.80001193,108.7999952,1,0,0,response1disk,7,38,3.200011492,3.999993622,1,0,0,rectangle,3.200011492,3.999993622,1,0,0,5,4,0,0.001125,3.200011492,3.999993622,1,0,0,0,37,37,146,1,,,,,,,,,,,,,,,,,,,,,
,,,,,,,,,,,,,,,,,,,,,,,,,,,,,,,,,,,,,,,,,,6009aa37bb4a7c0253712de4,6036f7d9990a45de29df2c31,2021-02-25_01h05.53.491,Colour_Similarity_Experiment,2020.2.10,Win32,60,6036d0d9a84aa1626184a6ef,16.99784983,16.69524155,16.98936378,16.67790629,16.66925355,16.75794129,,,,,,,,,,,,,,,,,,,,PF,strong,3,,,,,,,,0,1.19639,,,,,,,,,,,,,,,,,,,,,,,,,,,3,strong,-28.79998899,88.79999489,1,0,0,response7disk,2,39,-10.39993988,5.599993646,1,0,0,rectangle,-10.39993988,5.599993646,1,0,0,5,7,0,0.00084,-10.39993988,5.599993646,1,0,0,0,38,38,93,1,,,,,,,,,,,,,,,,,,,,,
,,,,,,,,,,,,,,,,,,,,,,,,,,,,,,,,,,,,,,,,,,6009aa37bb4a7c0253712de4,6036f7d9990a45de29df2c31,2021-02-25_01h05.53.491,Colour_Similarity_Experiment,2020.2.10,Win32,60,6036d0d9a84aa1626184a6ef,16.99784983,16.69524155,16.98936378,16.67790629,16.66925355,16.75794129,,,,,,,,,,,,,,,,,,,,PF,strong,3,,,,,,,,7,1.0335,,,,,,,,,,,,,,,,,,,,,,,,,,,1,strong,36.00001198,81.59999478,1,0,0,response1disk,6,40,-2.399939764,10.39999372,1,0,0,rectangle,-2.399939764,10.39999372,1,0,0,5,2,0,0.000885,-2.399939764,10.39999372,1,0,0,0,39,39,58,1,,,,,,,,,,,,,,,,,,,,,
,,,,,,,,,,,,,,,,,,,,,,,,,,,,,,,,,,,,,,,,,,6009aa37bb4a7c0253712de4,6036f7d9990a45de29df2c31,2021-02-25_01h05.53.491,Colour_Similarity_Experiment,2020.2.10,Win32,60,6036d0d9a84aa1626184a6ef,16.99784983,16.69524155,16.98936378,16.67790629,16.66925355,16.75794129,,,,,,,,,,,,,,,,,,,,PF,weak,3,,,,,,,,0,1.012995,,,,,,,,,,,,,,,,,,,,,,,,,,,8,weak,-26.39994012,64.79999453,1,0,0,response7disk,4,41,1.14441E-05,0.799993575,1,0,0,rectangle,1.14441E-05,0.799993575,1,0,0,5,1,0,0.00094,1.14441E-05,0.799993575,1,0,0,0,40,40,78,1,,,,,,,,,,,,,,,,,,,,,
,,,,,,,,,,,,,,,,,,,,,,,,,,,,,,,,,,,,,,,,,,6009aa37bb4a7c0253712de4,6036f7d9990a45de29df2c31,2021-02-25_01h05.53.491,Colour_Similarity_Experiment,2020.2.10,Win32,60,6036d0d9a84aa1626184a6ef,16.99784983,16.69524155,16.98936378,16.67790629,16.66925355,16.75794129,,,,,,,,,,,,,,,,,,,,PF,strong,3,,,,,,,,0,1.279985,,,,,,,,,,,,,,,,,,,,,,,,,,,5,strong,-23.99998891,67.19997015,1,0,0,response7disk,6,42,-0.799988568,7.19999367,1,0,0,rectangle,-0.799988568,7.19999367,1,0,0,5,7,0,0.000955,-0.799988568,7.19999367,1,0,0,0,41,41,12,1,,,,,,,,,,,,,,,,,,,,,
,,,,,,,,,,,,,,,,,,,,,,,,,,,,,,,,,,,,,,,,,,6009aa37bb4a7c0253712de4,6036f7d9990a45de29df2c31,2021-02-25_01h05.53.491,Colour_Similarity_Experiment,2020.2.10,Win32,60,6036d0d9a84aa1626184a6ef,16.99784983,16.69524155,16.98936378,16.67790629,16.66925355,16.75794129,,,,,,,,,,,,,,,,,,,,PF,weak,3,,,,,,,,0,1.229815,,,,,,,,,,,,,,,,,,,,,,,,,,,2,weak,-27.99998897,78.39999473,1,0,0,response7disk,2,43,-6.399939823,-0.800006449,1,0,0,rectangle,-6.399939823,-0.800006449,1,0,0,5,1,0,0.000885,-6.399939823,-0.800006449,1,0,0,0,42,42,14,1,,,,,,,,,,,,,,,,,,,,,
,,,,,,,,,,,,,,,,,,,,,,,,,,,,,,,,,,,,,,,,,,6009aa37bb4a7c0253712de4,6036f7d9990a45de29df2c31,2021-02-25_01h05.53.491,Colour_Similarity_Experiment,2020.2.10,Win32,60,6036d0d9a84aa1626184a6ef,16.99784983,16.69524155,16.98936378,16.67790629,16.66925355,16.75794129,,,,,,,,,,,,,,,,,,,,PF,weak,3,,,,,,,,0,1.1799,,,,,,,,,,,,,,,,,,,,,,,,,,,6,weak,-35.19998908,73.59999466,1,0,0,response7disk,7,44,-2.399939764,-0.800006449,1,0,0,rectangle,-2.399939764,-0.800006449,1,0,0,5,7,0,0.00084,-2.399939764,-0.800006449,1,0,0,0,43,43,50,1,,,,,,,,,,,,,,,,,,,,,
,,,,,,,,,,,,,,,,,,,,,,,,,,,,,,,,,,,,,,,,,,6009aa37bb4a7c0253712de4,6036f7d9990a45de29df2c31,2021-02-25_01h05.53.491,Colour_Similarity_Experiment,2020.2.10,Win32,60,6036d0d9a84aa1626184a6ef,16.99784983,16.69524155,16.98936378,16.67790629,16.66925355,16.75794129,,,,,,,,,,,,,,,,,,,,PF,weak,3,,,,,,,,0,0.796825,,,,,,,,,,,,,,,,,,,,,,,,,,,9,weak,-54.39994054,63.19997009,1,0,0,response7disk,5,45,-7.999988675,-11.2000066,1,0,0,rectangle,-7.999988675,-11.2000066,1,0,0,5,7,0,0.000105,-7.999988675,-11.2000066,1,0,0,0,44,44,134,1,,,,,,,,,,,,,,,,,,,,,
,,,,,,,,,,,,,,,,,,,,,,,,,,,,,,,,,,,,,,,,,,6009aa37bb4a7c0253712de4,6036f7d9990a45de29df2c31,2021-02-25_01h05.53.491,Colour_Similarity_Experiment,2020.2.10,Win32,60,6036d0d9a84aa1626184a6ef,16.99784983,16.69524155,16.98936378,16.67790629,16.66925355,16.75794129,,,,,,,,,,,,,,,,,,,,PF,strong,3,,,,,,,,7,1.400065,,,,,,,,,,,,,,,,,,,,,,,,,,,6,strong,36.80001199,89.5999949,1,0,0,response1disk,7,46,-3.999988616,-6.400006533,1,0,0,rectangle,-3.999988616,-6.400006533,1,0,0,5,0,0,0.000835,-3.999988616,-6.400006533,1,0,0,0,45,45,18,1,,,,,,,,,,,,,,,,,,,,,
,,,,,,,,,,,,,,,,,,,,,,,,,,,,,,,,,,,,,,,,,,6009aa37bb4a7c0253712de4,6036f7d9990a45de29df2c31,2021-02-25_01h05.53.491,Colour_Similarity_Experiment,2020.2.10,Win32,60,6036d0d9a84aa1626184a6ef,16.99784983,16.69524155,16.98936378,16.67790629,16.66925355,16.75794129,,,,,,,,,,,,,,,,,,,,PF,strong,3,,,,,,,,7,0.941595,,,,,,,,,,,,,,,,,,,,,,,,,,,7,strong,29.60006071,89.5999949,1,0,0,response1disk,1,47,-2.399939764,7.19999367,1,0,0,rectangle,-2.399939764,7.19999367,1,0,0,5,5,0,0.001145,-2.399939764,7.19999367,1,0,0,0,46,46,132,1,,,,,,,,,,,,,,,,,,,,,
,,,,,,,,,,,,,,,,,,,,,,,,,,,,,,,,,,,,,,,,,,6009aa37bb4a7c0253712de4,6036f7d9990a45de29df2c31,2021-02-25_01h05.53.491,Colour_Similarity_Experiment,2020.2.10,Win32,60,6036d0d9a84aa1626184a6ef,16.99784983,16.69524155,16.98936378,16.67790629,16.66925355,16.75794129,,,,,,,,,,,,,,,,,,,,PF,strong,3,,,,,,,,0,1.32996,,,,,,,,,,,,,,,,,,,,,,,,,,,6,strong,-45.59998924,75.19997027,1,0,0,response7disk,5,48,-5.599988639,10.39999372,1,0,0,rectangle,-5.599988639,10.39999372,1,0,0,5,7,0,0.00242,-5.599988639,10.39999372,1,0,0,0,47,47,126,1,,,,,,,,,,,,,,,,,,,,,
,,,,,,,,,,,,,,,,,,,,,,,,,,,,,,,,,,,,,,,,,,6009aa37bb4a7c0253712de4,6036f7d9990a45de29df2c31,2021-02-25_01h05.53.491,Colour_Similarity_Experiment,2020.2.10,Win32,60,6036d0d9a84aa1626184a6ef,16.99784983,16.69524155,16.98936378,16.67790629,16.66925355,16.75794129,,,,,,,,,,,,,,,,,,,,PF,weak,3,,,,,,,,7,0.77994,,,,,,,,,,,,,,,,,,,,,,,,,,,6,weak,36.80001199,72.79999465,1,0,0,response1disk,8,49,0.800011456,7.999993682,1,0,0,rectangle,0.800011456,7.999993682,1,0,0,5,4,0,0.00083,0.800011456,7.999993682,1,0,0,0,48,48,64,1,,,,,,,,,,,,,,,,,,,,,
,,,,,,,,,,,,,,,,,,,,,,,,,,,,,,,,,,,,,,,,,,6009aa37bb4a7c0253712de4,6036f7d9990a45de29df2c31,2021-02-25_01h05.53.491,Colour_Similarity_Experiment,2020.2.10,Win32,60,6036d0d9a84aa1626184a6ef,16.99784983,16.69524155,16.98936378,16.67790629,16.66925355,16.75794129,,,,,,,,,,,,,,,,,,,,PF,strong,3,,,,,,,,7,1.829555,,,,,,,,,,,,,,,,,,,,,,,,,,,3,strong,26.40001184,83.19997039,1,0,0,response1disk,5,50,0.800011456,-3.200006485,1,0,0,rectangle,0.800011456,-3.200006485,1,0,0,5,7,0,0.00089,0.800011456,-3.200006485,1,0,0,0,49,49,101,1,,,,,,,,,,,,,,,,,,,,,
,,,,,,,,,,,,,,,,,,,,,,,,,,,,,,,,,,,,,,,,,,6009aa37bb4a7c0253712de4,6036f7d9990a45de29df2c31,2021-02-25_01h05.53.491,Colour_Similarity_Experiment,2020.2.10,Win32,60,6036d0d9a84aa1626184a6ef,16.99784983,16.69524155,16.98936378,16.67790629,16.66925355,16.75794129,,,,,,,,,,,,,,,,,,,,PF,weak,3,,,,,,,,0,4.645795,,,,,,,,,,,,,,,,,,,,,,,,,,,9,weak,-36.7999891,76.79999471,1,0,0,response7disk,9,51,-3.999988616,3.999993622,1,0,0,rectangle,-3.999988616,3.999993622,1,0,0,5,7,0,0.00015,-3.999988616,3.999993622,1,0,0,0,50,50,106,1,,,,,,,,,,,,,,,,,,,,,
,,,,,,,,,,,,,,,,,,,,,,,,,,,,,,,,,,,,,,,,,,6009aa37bb4a7c0253712de4,6036f7d9990a45de29df2c31,2021-02-25_01h05.53.491,Colour_Similarity_Experiment,2020.2.10,Win32,60,6036d0d9a84aa1626184a6ef,16.99784983,16.69524155,16.98936378,16.67790629,16.66925355,16.75794129,,,,,,,,,,,,,,,,,,,,PF,weak,3,,,,,,,,7,0.929825,,,,,,,,,,,,,,,,,,,,,,,,,,,1,weak,40.00001204,113.5999953,1,0,0,response1disk,2,52,12.80001163,15.9999938,1,0,0,rectangle,12.80001163,15.9999938,1,0,0,5,3,0,0.000965,12.80001163,15.9999938,1,0,0,0,51,51,24,1,,,,,,,,,,,,,,,,,,,,,
,,,,,,,,,,,,,,,,,,,,,,,,,,,,,,,,,,,,,,,,,,6009aa37bb4a7c0253712de4,6036f7d9990a45de29df2c31,2021-02-25_01h05.53.491,Colour_Similarity_Experiment,2020.2.10,Win32,60,6036d0d9a84aa1626184a6ef,16.99784983,16.69524155,16.98936378,16.67790629,16.66925355,16.75794129,,,,,,,,,,,,,,,,,,,,PF,weak,3,,,,,,,,7,0.696145,,,,,,,,,,,,,,,,,,,,,,,,,,,1,weak,38.40001202,83.99999481,1,0,0,response1disk,5,53,8.800011575,3.19999361,1,0,0,rectangle,8.800011575,3.19999361,1,0,0,5,4,0,0.00143,8.800011575,3.19999361,1,0,0,0,52,52,28,1,,,,,,,,,,,,,,,,,,,,,
,,,,,,,,,,,,,,,,,,,,,,,,,,,,,,,,,,,,,,,,,,6009aa37bb4a7c0253712de4,6036f7d9990a45de29df2c31,2021-02-25_01h05.53.491,Colour_Similarity_Experiment,2020.2.10,Win32,60,6036d0d9a84aa1626184a6ef,16.99784983,16.69524155,16.98936378,16.67790629,16.66925355,16.75794129,,,,,,,,,,,,,,,,,,,,PF,strong,3,,,,,,,,0,3.56268,,,,,,,,,,,,,,,,,,,,,,,,,,,4,strong,-47.19998926,99.19997063,1,0,0,response7disk,9,54,0.800011456,-3.200006485,1,0,0,rectangle,0.800011456,-3.200006485,1,0,0,5,2,0,0.000985,0.800011456,-3.200006485,1,0,0,0,53,53,90,1,,,,,,,,,,,,,,,,,,,,,
,,,,,,,,,,,,,,,,,,,,,,,,,,,,,,,,,,,,,,,,,,6009aa37bb4a7c0253712de4,6036f7d9990a45de29df2c31,2021-02-25_01h05.53.491,Colour_Similarity_Experiment,2020.2.10,Win32,60,6036d0d9a84aa1626184a6ef,16.99784983,16.69524155,16.98936378,16.67790629,16.66925355,16.75794129,,,,,,,,,,,,,,,,,,,,PF,strong,3,,,,,,,,0,1.6293,,,,,,,,,,,,,,,,,,,,,,,,,,,5,strong,-29.599989,87.19997045,1,0,0,response7disk,8,55,-1.59998858,4.799993634,1,0,0,rectangle,-1.59998858,4.799993634,1,0,0,5,2,0,0.00019,-1.59998858,4.799993634,1,0,0,0,54,54,16,1,,,,,,,,,,,,,,,,,,,,,
,,,,,,,,,,,,,,,,,,,,,,,,,,,,,,,,,,,,,,,,,,6009aa37bb4a7c0253712de4,6036f7d9990a45de29df2c31,2021-02-25_01h05.53.491,Colour_Similarity_Experiment,2020.2.10,Win32,60,6036d0d9a84aa1626184a6ef,16.99784983,16.69524155,16.98936378,16.67790629,16.66925355,16.75794129,,,,,,,,,,,,,,,,,,,,PF,strong,3,,,,,,,,0,0.834595,,,,,,,,,,,,,,,,,,,,,,,,,,,2,strong,-44.79998922,81.59999478,1,0,0,response7disk,9,56,1.14441E-05,-0.800006449,1,0,0,rectangle,1.14441E-05,-0.800006449,1,0,0,5,5,0,0.00094,1.14441E-05,-0.800006449,1,0,0,0,55,55,72,1,,,,,,,,,,,,,,,,,,,,,
,,,,,,,,,,,,,,,,,,,,,,,,,,,,,,,,,,,,,,,,,,6009aa37bb4a7c0253712de4,6036f7d9990a45de29df2c31,2021-02-25_01h05.53.491,Colour_Similarity_Experiment,2020.2.10,Win32,60,6036d0d9a84aa1626184a6ef,16.99784983,16.69524155,16.98936378,16.67790629,16.66925355,16.75794129,,,,,,,,,,,,,,,,,,,,PF,weak,3,,,,,,,,7,0.61313,,,,,,,,,,,,,,,,,,,,,,,,,,,7,weak,29.60006071,79.19997033,1,0,0,response1disk,2,57,-7.199988663,3.19999361,1,0,0,rectangle,-7.199988663,3.19999361,1,0,0,5,1,0,0.000815,-7.199988663,3.19999361,1,0,0,0,56,56,32,1,,,,,,,,,,,,,,,,,,,,,
,,,,,,,,,,,,,,,,,,,,,,,,,,,,,,,,,,,,,,,,,,6009aa37bb4a7c0253712de4,6036f7d9990a45de29df2c31,2021-02-25_01h05.53.491,Colour_Similarity_Experiment,2020.2.10,Win32,60,6036d0d9a84aa1626184a6ef,16.99784983,16.69524155,16.98936378,16.67790629,16.66925355,16.75794129,,,,,,,,,,,,,,,,,,,,PF,strong,3,,,,,,,,7,1.129635,,,,,,,,,,,,,,,,,,,,,,,,,,,1,strong,26.40001184,91.99999493,1,0,0,response1disk,4,58,0.800011456,-14.40000665,1,0,0,rectangle,0.800011456,-14.40000665,1,0,0,5,7,0,0.000875,0.800011456,-14.40000665,1,0,0,0,57,57,135,1,,,,,,,,,,,,,,,,,,,,,
,,,,,,,,,,,,,,,,,,,,,,,,,,,,,,,,,,,,,,,,,,6009aa37bb4a7c0253712de4,6036f7d9990a45de29df2c31,2021-02-25_01h05.53.491,Colour_Similarity_Experiment,2020.2.10,Win32,60,6036d0d9a84aa1626184a6ef,16.99784983,16.69524155,16.98936378,16.67790629,16.66925355,16.75794129,,,,,,,,,,,,,,,,,,,,PF,weak,3,,,,,,,,7,1.12958,,,,,,,,,,,,,,,,,,,,,,,,,,,1,weak,22.40001178,96.79999501,1,0,0,response1disk,8,59,2.40001148,3.999993622,1,0,0,rectangle,2.40001148,3.999993622,1,0,0,5,7,0,0.000155,2.40001148,3.999993622,1,0,0,0,58,58,65,1,,,,,,,,,,,,,,,,,,,,,
,,,,,,,,,,,,,,,,,,,,,,,,,,,,,,,,,,,,,,,,,,6009aa37bb4a7c0253712de4,6036f7d9990a45de29df2c31,2021-02-25_01h05.53.491,Colour_Similarity_Experiment,2020.2.10,Win32,60,6036d0d9a84aa1626184a6ef,16.99784983,16.69524155,16.98936378,16.67790629,16.66925355,16.75794129,,,,,,,,,,,,,,,,,,,,PF,strong,3,,,,,,,,7,0.796455,,,,,,,,,,,,,,,,,,,,,,,,,,,5,strong,32.00001192,73.59999466,1,0,0,response1disk,9,60,0.800011456,1.599993587,1,0,0,rectangle,0.800011456,1.599993587,1,0,0,5,1,0,0.00141,0.800011456,1.599993587,1,0,0,0,59,59,61,1,,,,,,,,,,,,,,,,,,,,,
,,,,,,,,,,,,,,,,,,,,,,,,,,,,,,,,,,,,,,,,,,6009aa37bb4a7c0253712de4,6036f7d9990a45de29df2c31,2021-02-25_01h05.53.491,Colour_Similarity_Experiment,2020.2.10,Win32,60,6036d0d9a84aa1626184a6ef,16.99784983,16.69524155,16.98936378,16.67790629,16.66925355,16.75794129,,,,,,,,,,,,,,,,,,,,PF,strong,3,,,,,,,,0,1.263545,,,,,,,,,,,,,,,,,,,,,,,,,,,2,strong,-39.19998914,80.79999477,1,0,0,response7disk,8,61,7.200011551,-1.600006461,1,0,0,rectangle,7.200011551,-1.600006461,1,0,0,5,0,0,0.000945,7.200011551,-1.600006461,1,0,0,0,60,60,62,1,,,,,,,,,,,,,,,,,,,,,
,,,,,,,,,,,,,,,,,,,,,,,,,,,,,,,,,,,,,,,,,,6009aa37bb4a7c0253712de4,6036f7d9990a45de29df2c31,2021-02-25_01h05.53.491,Colour_Similarity_Experiment,2020.2.10,Win32,60,6036d0d9a84aa1626184a6ef,16.99784983,16.69524155,16.98936378,16.67790629,16.66925355,16.75794129,,,,,,,,,,,,,,,,,,,,PF,weak,3,,,,,,,,7,0.829875,,,,,,,,,,,,,,,,,,,,,,,,,,,3,weak,24.80001181,63.19997009,1,0,0,response1disk,6,62,-4.799988627,-15.20000666,1,0,0,rectangle,-4.799988627,-15.20000666,1,0,0,5,0,0,0.00015,-4.799988627,-15.20000666,1,0,0,0,61,61,47,1,,,,,,,,,,,,,,,,,,,,,
,,,,,,,,,,,,,,,,,,,,,,,,,,,,,,,,,,,,,,,,,,6009aa37bb4a7c0253712de4,6036f7d9990a45de29df2c31,2021-02-25_01h05.53.491,Colour_Similarity_Experiment,2020.2.10,Win32,60,6036d0d9a84aa1626184a6ef,16.99784983,16.69524155,16.98936378,16.67790629,16.66925355,16.75794129,,,,,,,,,,,,,,,,,,,,PF,weak,3,,,,,,,,7,0.89647,,,,,,,,,,,,,,,,,,,,,,,,,,,9,weak,34.40001196,79.19997033,1,0,0,response1disk,4,63,4.800011516,3.19999361,1,0,0,rectangle,4.800011516,3.19999361,1,0,0,5,0,0,0.000165,4.800011516,3.19999361,1,0,0,0,62,62,114,1,,,,,,,,,,,,,,,,,,,,,
,,,,,,,,,,,,,,,,,,,,,,,,,,,,,,,,,,,,,,,,,,6009aa37bb4a7c0253712de4,6036f7d9990a45de29df2c31,2021-02-25_01h05.53.491,Colour_Similarity_Experiment,2020.2.10,Win32,60,6036d0d9a84aa1626184a6ef,16.99784983,16.69524155,16.98936378,16.67790629,16.66925355,16.75794129,,,,,,,,,,,,,,,,,,,,PF,strong,3,,,,,,,,0,1.16742,,,,,,,,,,,,,,,,,,,,,,,,,,,2,strong,-38.3999403,64.79999453,1,0,0,response7disk,3,64,-0.799988568,-8.000006557,1,0,0,rectangle,40.00001204,87.19997045,1,0,0,7,7,1,2.778555,3.200011492,-3.200006485,1,0,0,0,63,63,104,1,response1disk_3,rectangle,,,,,,,,,,,,,,,,,,,
,,,,,,,,,,,,,,,,,,,,,,,,,,,,,,,,,,,,,,,,,,6009aa37bb4a7c0253712de4,6036f7d9990a45de29df2c31,2021-02-25_01h05.53.491,Colour_Similarity_Experiment,2020.2.10,Win32,60,6036d0d9a84aa1626184a6ef,16.99784983,16.69524155,16.98936378,16.67790629,16.66925355,16.75794129,,,,,,,,,,,,,,,,,,,,PF,weak,3,,,,,,,,0,2.32952,,,,,,,,,,,,,,,,,,,,,,,,,,,7,weak,-29.599989,80.79999477,1,0,0,response7disk,8,65,0.800011456,-2.400006473,1,0,0,rectangle,0.800011456,-2.400006473,1,0,0,7,3,0,0.000855,0.800011456,-2.400006473,1,0,0,0,64,64,140,1,,,,,,,,,,,,,,,,,,,,,
,,,,,,,,,,,,,,,,,,,,,,,,,,,,,,,,,,,,,,,,,,6009aa37bb4a7c0253712de4,6036f7d9990a45de29df2c31,2021-02-25_01h05.53.491,Colour_Similarity_Experiment,2020.2.10,Win32,60,6036d0d9a84aa1626184a6ef,16.99784983,16.69524155,16.98936378,16.67790629,16.66925355,16.75794129,,,,,,,,,,,,,,,,,,,,PF,weak,3,,,,,,,,7,0.72926,,,,,,,,,,,,,,,,,,,,,,,,,,,2,weak,43.20001209,79.99999475,1,0,0,response1disk,1,66,-2.399939764,3.19999361,1,0,0,rectangle,-2.399939764,3.19999361,1,0,0,7,4,0,0.00171,-2.399939764,3.19999361,1,0,0,0,65,65,9,1,,,,,,,,,,,,,,,,,,,,,
,,,,,,,,,,,,,,,,,,,,,,,,,,,,,,,,,,,,,,,,,,6009aa37bb4a7c0253712de4,6036f7d9990a45de29df2c31,2021-02-25_01h05.53.491,Colour_Similarity_Experiment,2020.2.10,Win32,60,6036d0d9a84aa1626184a6ef,16.99784983,16.69524155,16.98936378,16.67790629,16.66925355,16.75794129,,,,,,,,,,,,,,,,,,,,PF,weak,3,,,,,,,,7,1.35014,,,,,,,,,,,,,,,,,,,,,,,,,,,2,weak,43.20001209,87.99999487,1,0,0,response1disk,7,67,6.400011539,7.19999367,1,0,0,rectangle,6.400011539,7.19999367,1,0,0,7,5,0,0.000825,6.400011539,7.19999367,1,0,0,0,66,66,107,1,,,,,,,,,,,,,,,,,,,,,
,,,,,,,,,,,,,,,,,,,,,,,,,,,,,,,,,,,,,,,,,,6009aa37bb4a7c0253712de4,6036f7d9990a45de29df2c31,2021-02-25_01h05.53.491,Colour_Similarity_Experiment,2020.2.10,Win32,60,6036d0d9a84aa1626184a6ef,16.99784983,16.69524155,16.98936378,16.67790629,16.66925355,16.75794129,,,,,,,,,,,,,,,,,,,,PF,weak,3,,,,,,,,7,0.679715,,,,,,,,,,,,,,,,,,,,,,,,,,,5,weak,48.00001216,90.39999491,1,0,0,response1disk,9,68,12.00001162,5.599993646,1,0,0,rectangle,79.20001262,39.19996973,1,0,0,6,6,1,1.53633,14.40001166,1.599993587,1,0,0,0,67,67,136,1,response1disk_3,rectangle,,,,,,,,,,,,,,,,,,,
,,,,,,,,,,,,,,,,,,,,,,,,,,,,,,,,,,,,,,,,,,6009aa37bb4a7c0253712de4,6036f7d9990a45de29df2c31,2021-02-25_01h05.53.491,Colour_Similarity_Experiment,2020.2.10,Win32,60,6036d0d9a84aa1626184a6ef,16.99784983,16.69524155,16.98936378,16.67790629,16.66925355,16.75794129,,,,,,,,,,,,,,,,,,,,PF,weak,3,,,,,,,,7,1.529575,,,,,,,,,,,,,,,,,,,,,,,,,,,4,weak,50.4000122,100.7999951,1,0,0,response1disk,8,69,-5.599988639,11.19999373,1,0,0,rectangle,-5.599988639,11.19999373,1,0,0,6,5,0,0.001175,-5.599988639,11.19999373,1,0,0,0,68,68,124,1,,,,,,,,,,,,,,,,,,,,,
,,,,,,,,,,,,,,,,,,,,,,,,,,,,,,,,,,,,,,,,,,6009aa37bb4a7c0253712de4,6036f7d9990a45de29df2c31,2021-02-25_01h05.53.491,Colour_Similarity_Experiment,2020.2.10,Win32,60,6036d0d9a84aa1626184a6ef,16.99784983,16.69524155,16.98936378,16.67790629,16.66925355,16.75794129,,,,,,,,,,,,,,,,,,,,PF,weak,3,,,,,,,,0,1.346415,,,,,,,,,,,,,,,,,,,,,,,,,,,1,weak,-35.99998909,89.5999949,1,0,0,response7disk,9,70,1.14441E-05,-3.200006485,1,0,0,rectangle,1.14441E-05,-3.200006485,1,0,0,6,2,0,0.000785,1.14441E-05,-3.200006485,1,0,0,0,69,69,15,1,,,,,,,,,,,,,,,,,,,,,
,,,,,,,,,,,,,,,,,,,,,,,,,,,,,,,,,,,,,,,,,,6009aa37bb4a7c0253712de4,6036f7d9990a45de29df2c31,2021-02-25_01h05.53.491,Colour_Similarity_Experiment,2020.2.10,Win32,60,6036d0d9a84aa1626184a6ef,16.99784983,16.69524155,16.98936378,16.67790629,16.66925355,16.75794129,,,,,,,,,,,,,,,,,,,,PF,strong,3,,,,,,,,7,0.84322,,,,,,,,,,,,,,,,,,,,,,,,,,,6,strong,39.20001203,90.39999491,1,0,0,response1disk,2,71,1.600060296,0.799993575,1,0,0,rectangle,1.600060296,0.799993575,1,0,0,6,7,0,0.000845,1.600060296,0.799993575,1,0,0,0,70,70,112,1,,,,,,,,,,,,,,,,,,,,,
,,,,,,,,,,,,,,,,,,,,,,,,,,,,,,,,,,,,,,,,,,6009aa37bb4a7c0253712de4,6036f7d9990a45de29df2c31,2021-02-25_01h05.53.491,Colour_Similarity_Experiment,2020.2.10,Win32,60,6036d0d9a84aa1626184a6ef,16.99784983,16.69524155,16.98936378,16.67790629,16.66925355,16.75794129,,,,,,,,,,,,,,,,,,,,PF,strong,3,,,,,,,,0,1.499985,,,,,,,,,,,,,,,,,,,,,,,,,,,8,strong,-29.599989,87.19997045,1,0,0,response7disk,8,72,-4.799988627,0.799993575,1,0,0,rectangle,-4.799988627,0.799993575,1,0,0,6,0,0,0.000815,-4.799988627,0.799993575,1,0,0,0,71,71,48,1,,,,,,,,,,,,,,,,,,,,,
,,,,,,,,,,,,,,,,,,,,,,,,,,,,,,,,,,,,,,,,,,6009aa37bb4a7c0253712de4,6036f7d9990a45de29df2c31,2021-02-25_01h05.53.491,Colour_Similarity_Experiment,2020.2.10,Win32,60,6036d0d9a84aa1626184a6ef,16.99784983,16.69524155,16.98936378,16.67790629,16.66925355,16.75794129,,,,,,,,,,,,,,,,,,,,PF,strong,3,,,,,,,,0,0.70028,,,,,,,,,,,,,,,,,,,,,,,,,,,9,strong,-34.39994024,68.79999459,1,0,0,response7disk,9,73,-4.799988627,1.599993587,1,0,0,rectangle,-4.799988627,1.599993587,1,0,0,6,3,0,0.001355,-4.799988627,1.599993587,1,0,0,0,72,72,17,1,,,,,,,,,,,,,,,,,,,,,
,,,,,,,,,,,,,,,,,,,,,,,,,,,,,,,,,,,,,,,,,,6009aa37bb4a7c0253712de4,6036f7d9990a45de29df2c31,2021-02-25_01h05.53.491,Colour_Similarity_Experiment,2020.2.10,Win32,60,6036d0d9a84aa1626184a6ef,16.99784983,16.69524155,16.98936378,16.67790629,16.66925355,16.75794129,,,,,,,,,,,,,,,,,,,,PF,weak,3,,,,,,,,7,0.61271,,,,,,,,,,,,,,,,,,,,,,,,,,,9,weak,53.60001224,71.99999464,1,0,0,response1disk,1,74,16.00001168,12.79999375,1,0,0,rectangle,16.00001168,12.79999375,1,0,0,6,6,0,0.001245,16.00001168,12.79999375,1,0,0,0,73,73,74,1,,,,,,,,,,,,,,,,,,,,,
,,,,,,,,,,,,,,,,,,,,,,,,,,,,,,,,,,,,,,,,,,6009aa37bb4a7c0253712de4,6036f7d9990a45de29df2c31,2021-02-25_01h05.53.491,Colour_Similarity_Experiment,2020.2.10,Win32,60,6036d0d9a84aa1626184a6ef,16.99784983,16.69524155,16.98936378,16.67790629,16.66925355,16.75794129,,,,,,,,,,,,,,,,,,,,PF,weak,3,,,,,,,,7,1.063005,,,,,,,,,,,,,,,,,,,,,,,,,,,3,weak,36.80001199,83.19997039,1,0,0,response1disk,9,75,-3.999988616,8.799993694,1,0,0,rectangle,-3.999988616,8.799993694,1,0,0,6,3,0,0.000825,-3.999988616,8.799993694,1,0,0,0,74,74,79,1,,,,,,,,,,,,,,,,,,,,,
,,,,,,,,,,,,,,,,,,,,,,,,,,,,,,,,,,,,,,,,,,6009aa37bb4a7c0253712de4,6036f7d9990a45de29df2c31,2021-02-25_01h05.53.491,Colour_Similarity_Experiment,2020.2.10,Win32,60,6036d0d9a84aa1626184a6ef,16.99784983,16.69524155,16.98936378,16.67790629,16.66925355,16.75794129,,,,,,,,,,,,,,,,,,,,PF,weak,3,,,,,,,,7,0.566595,,,,,,,,,,,,,,,,,,,,,,,,,,,1,weak,33.60006077,79.99999475,1,0,0,response1disk,7,76,2.40001148,3.19999361,1,0,0,rectangle,2.40001148,3.19999361,1,0,0,6,1,0,0.000815,2.40001148,3.19999361,1,0,0,0,75,75,150,1,,,,,,,,,,,,,,,,,,,,,
,,,,,,,,,,,,,,,,,,,,,,,,,,,,,,,,,,,,,,,,,,6009aa37bb4a7c0253712de4,6036f7d9990a45de29df2c31,2021-02-25_01h05.53.491,Colour_Similarity_Experiment,2020.2.10,Win32,60,6036d0d9a84aa1626184a6ef,16.99784983,16.69524155,16.98936378,16.67790629,16.66925355,16.75794129,,,,,,,,,,,,,,,,,,,,PF,strong,3,,,,,,,,0,1.063075,,,,,,,,,,,,,,,,,,,,,,,,,,,7,strong,-43.1999892,84.79999483,1,0,0,response7disk,8,77,-9.599988699,7.999993682,1,0,0,rectangle,-22.39994006,-87.20000774,1,0,0,3,3,1,1.99938,4.800011516,-6.400006533,1,0,0,0,76,76,97,1,response5disk_3,rectangle,,,,,,,,,,,,,,,,,,,
,,,,,,,,,,,,,,,,,,,,,,,,,,,,,,,,,,,,,,,,,,6009aa37bb4a7c0253712de4,6036f7d9990a45de29df2c31,2021-02-25_01h05.53.491,Colour_Similarity_Experiment,2020.2.10,Win32,60,6036d0d9a84aa1626184a6ef,16.99784983,16.69524155,16.98936378,16.67790629,16.66925355,16.75794129,,,,,,,,,,,,,,,,,,,,PF,strong,3,,,,,,,,0,1.512985,,,,,,,,,,,,,,,,,,,,,,,,,,,8,strong,-35.19998908,71.19997021,1,0,0,response7disk,7,78,0.800011456,-8.000006557,1,0,0,rectangle,0.800011456,-8.000006557,1,0,0,3,7,0,0.000865,0.800011456,-8.000006557,1,0,0,0,77,77,86,1,,,,,,,,,,,,,,,,,,,,,
,,,,,,,,,,,,,,,,,,,,,,,,,,,,,,,,,,,,,,,,,,6009aa37bb4a7c0253712de4,6036f7d9990a45de29df2c31,2021-02-25_01h05.53.491,Colour_Similarity_Experiment,2020.2.10,Win32,60,6036d0d9a84aa1626184a6ef,16.99784983,16.69524155,16.98936378,16.67790629,16.66925355,16.75794129,,,,,,,,,,,,,,,,,,,,PF,weak,3,,,,,,,,0,0.946425,,,,,,,,,,,,,,,,,,,,,,,,,,,3,weak,-37.59998912,73.59999466,1,0,0,response7disk,2,79,12.00001162,3.999993622,1,0,0,rectangle,72.80001253,-39.20000702,1,0,0,5,5,1,2.03299,-16.79998881,2.399993598,1,0,0,0,78,78,36,1,response3disk_3,rectangle,,,,,,,,,,,,,,,,,,,
,,,,,,,,,,,,,,,,,,,,,,,,,,,,,,,,,,,,,,,,,,6009aa37bb4a7c0253712de4,6036f7d9990a45de29df2c31,2021-02-25_01h05.53.491,Colour_Similarity_Experiment,2020.2.10,Win32,60,6036d0d9a84aa1626184a6ef,16.99784983,16.69524155,16.98936378,16.67790629,16.66925355,16.75794129,,,,,,,,,,,,,,,,,,,,PF,strong,3,,,,,,,,0,1.74592,,,,,,,,,,,,,,,,,,,,,,,,,,,1,strong,-44.79998922,78.39999473,1,0,0,response7disk,9,80,0.800011456,0.799993575,1,0,0,rectangle,0.800011456,0.799993575,1,0,0,5,1,0,0.000815,0.800011456,0.799993575,1,0,0,0,79,79,123,1,,,,,,,,,,,,,,,,,,,,,
,,,,,,,,,,,,,,,,,,,,,,,,,,,,,,,,,,,,,,,,,,6009aa37bb4a7c0253712de4,6036f7d9990a45de29df2c31,2021-02-25_01h05.53.491,Colour_Similarity_Experiment,2020.2.10,Win32,60,6036d0d9a84aa1626184a6ef,16.99784983,16.69524155,16.98936378,16.67790629,16.66925355,16.75794129,,,,,,,,,,,,,,,,,,,,PF,weak,3,,,,,,,,7,1.68086,,,,,,,,,,,,,,,,,,,,,,,,,,,2,weak,46.40001214,94.39999497,1,0,0,response1disk,6,81,4.000011504,8.799993694,1,0,0,rectangle,4.000011504,8.799993694,1,0,0,5,3,0,0.001195,4.000011504,8.799993694,1,0,0,0,80,80,113,1,,,,,,,,,,,,,,,,,,,,,
,,,,,,,,,,,,,,,,,,,,,,,,,,,,,,,,,,,,,,,,,,6009aa37bb4a7c0253712de4,6036f7d9990a45de29df2c31,2021-02-25_01h05.53.491,Colour_Similarity_Experiment,2020.2.10,Win32,60,6036d0d9a84aa1626184a6ef,16.99784983,16.69524155,16.98936378,16.67790629,16.66925355,16.75794129,,,,,,,,,,,,,,,,,,,,PF,weak,3,,,,,,,,7,0.850295,,,,,,,,,,,,,,,,,,,,,,,,,,,4,weak,40.00001204,91.99999493,1,0,0,response1disk,9,82,4.800011516,5.599993646,1,0,0,rectangle,4.800011516,5.599993646,1,0,0,5,0,0,0.00098,4.800011516,5.599993646,1,0,0,0,81,81,75,1,,,,,,,,,,,,,,,,,,,,,
,,,,,,,,,,,,,,,,,,,,,,,,,,,,,,,,,,,,,,,,,,6009aa37bb4a7c0253712de4,6036f7d9990a45de29df2c31,2021-02-25_01h05.53.491,Colour_Similarity_Experiment,2020.2.10,Win32,60,6036d0d9a84aa1626184a6ef,16.99784983,16.69524155,16.98936378,16.67790629,16.66925355,16.75794129,,,,,,,,,,,,,,,,,,,,PF,weak,3,,,,,,,,7,0.56318,,,,,,,,,,,,,,,,,,,,,,,,,,,5,weak,36.00001198,87.99999487,1,0,0,response1disk,5,83,4.000011504,3.999993622,1,0,0,rectangle,4.000011504,3.999993622,1,0,0,5,5,0,0.00076,4.000011504,3.999993622,1,0,0,0,82,82,94,1,,,,,,,,,,,,,,,,,,,,,
,,,,,,,,,,,,,,,,,,,,,,,,,,,,,,,,,,,,,,,,,,6009aa37bb4a7c0253712de4,6036f7d9990a45de29df2c31,2021-02-25_01h05.53.491,Colour_Similarity_Experiment,2020.2.10,Win32,60,6036d0d9a84aa1626184a6ef,16.99784983,16.69524155,16.98936378,16.67790629,16.66925355,16.75794129,,,,,,,,,,,,,,,,,,,,PF,weak,3,,,,,,,,7,1.746415,,,,,,,,,,,,,,,,,,,,,,,,,,,1,weak,45.60006095,99.99999505,1,0,0,response1disk,4,84,5.600060356,15.9999938,1,0,0,rectangle,5.600060356,15.9999938,1,0,0,5,6,0,0.00094,5.600060356,15.9999938,1,0,0,0,83,83,139,1,,,,,,,,,,,,,,,,,,,,,
,,,,,,,,,,,,,,,,,,,,,,,,,,,,,,,,,,,,,,,,,,6009aa37bb4a7c0253712de4,6036f7d9990a45de29df2c31,2021-02-25_01h05.53.491,Colour_Similarity_Experiment,2020.2.10,Win32,60,6036d0d9a84aa1626184a6ef,16.99784983,16.69524155,16.98936378,16.67790629,16.66925355,16.75794129,,,,,,,,,,,,,,,,,,,,PF,strong,3,,,,,,,,0,0.966795,,,,,,,,,,,,,,,,,,,,,,,,,,,4,strong,-35.99998909,86.39999485,1,0,0,response7disk,3,85,-0.799988568,3.19999361,1,0,0,rectangle,-0.799988568,3.19999361,1,0,0,5,7,0,0.00087,-0.799988568,3.19999361,1,0,0,0,84,84,77,1,,,,,,,,,,,,,,,,,,,,,
,,,,,,,,,,,,,,,,,,,,,,,,,,,,,,,,,,,,,,,,,,6009aa37bb4a7c0253712de4,6036f7d9990a45de29df2c31,2021-02-25_01h05.53.491,Colour_Similarity_Experiment,2020.2.10,Win32,60,6036d0d9a84aa1626184a6ef,16.99784983,16.69524155,16.98936378,16.67790629,16.66925355,16.75794129,,,,,,,,,,,,,,,,,,,,PF,strong,3,,,,,,,,7,0.71301,,,,,,,,,,,,,,,,,,,,,,,,,,,6,strong,44.80001211,87.19997045,1,0,0,response1disk,1,86,11.20001161,8.799993694,1,0,0,rectangle,11.20001161,8.799993694,1,0,0,5,5,0,0.001155,11.20001161,8.799993694,1,0,0,0,85,85,5,1,,,,,,,,,,,,,,,,,,,,,
,,,,,,,,,,,,,,,,,,,,,,,,,,,,,,,,,,,,,,,,,,6009aa37bb4a7c0253712de4,6036f7d9990a45de29df2c31,2021-02-25_01h05.53.491,Colour_Similarity_Experiment,2020.2.10,Win32,60,6036d0d9a84aa1626184a6ef,16.99784983,16.69524155,16.98936378,16.67790629,16.66925355,16.75794129,,,,,,,,,,,,,,,,,,,,PF,strong,3,,,,,,,,7,1.41673,,,,,,,,,,,,,,,,,,,,,,,,,,,4,strong,32.00001192,106.3999951,1,0,0,response1disk,5,87,11.20001161,7.19999367,1,0,0,rectangle,11.20001161,7.19999367,1,0,0,5,6,0,0.000865,11.20001161,7.19999367,1,0,0,0,86,86,116,1,,,,,,,,,,,,,,,,,,,,,
,,,,,,,,,,,,,,,,,,,,,,,,,,,,,,,,,,,,,,,,,,6009aa37bb4a7c0253712de4,6036f7d9990a45de29df2c31,2021-02-25_01h05.53.491,Colour_Similarity_Experiment,2020.2.10,Win32,60,6036d0d9a84aa1626184a6ef,16.99784983,16.69524155,16.98936378,16.67790629,16.66925355,16.75794129,,,,,,,,,,,,,,,,,,,,PF,weak,3,,,,,,,,7,1.413295,,,,,,,,,,,,,,,,,,,,,,,,,,,3,weak,35.20001197,78.39999473,1,0,0,response1disk,1,88,4.000011504,6.399993658,1,0,0,rectangle,4.000011504,6.399993658,1,0,0,5,7,0,0.000715,4.000011504,6.399993658,1,0,0,0,87,87,96,1,,,,,,,,,,,,,,,,,,,,,
,,,,,,,,,,,,,,,,,,,,,,,,,,,,,,,,,,,,,,,,,,6009aa37bb4a7c0253712de4,6036f7d9990a45de29df2c31,2021-02-25_01h05.53.491,Colour_Similarity_Experiment,2020.2.10,Win32,60,6036d0d9a84aa1626184a6ef,16.99784983,16.69524155,16.98936378,16.67790629,16.66925355,16.75794129,,,,,,,,,,,,,,,,,,,,PF,strong,3,,,,,,,,7,0.863,,,,,,,,,,,,,,,,,,,,,,,,,,,7,strong,38.40001202,91.19997051,1,0,0,response1disk,5,89,-1.59998858,7.19999367,1,0,0,rectangle,-1.59998858,7.19999367,1,0,0,5,0,0,0.00081,-1.59998858,7.19999367,1,0,0,0,88,88,156,1,,,,,,,,,,,,,,,,,,,,,
,,,,,,,,,,,,,,,,,,,,,,,,,,,,,,,,,,,,,,,,,,6009aa37bb4a7c0253712de4,6036f7d9990a45de29df2c31,2021-02-25_01h05.53.491,Colour_Similarity_Experiment,2020.2.10,Win32,60,6036d0d9a84aa1626184a6ef,16.99784983,16.69524155,16.98936378,16.67790629,16.66925355,16.75794129,,,,,,,,,,,,,,,,,,,,PF,strong,3,,,,,,,,7,1.41053,,,,,,,,,,,,,,,,,,,,,,,,,,,9,strong,30.4000119,71.19997021,1,0,0,response1disk,5,90,4.000011504,0.799993575,1,0,0,rectangle,4.000011504,0.799993575,1,0,0,5,2,0,0.00141,4.000011504,0.799993575,1,0,0,0,89,89,128,1,,,,,,,,,,,,,,,,,,,,,
,,,,,,,,,,,,,,,,,,,,,,,,,,,,,,,,,,,,,,,,,,6009aa37bb4a7c0253712de4,6036f7d9990a45de29df2c31,2021-02-25_01h05.53.491,Colour_Similarity_Experiment,2020.2.10,Win32,60,6036d0d9a84aa1626184a6ef,16.99784983,16.69524155,16.98936378,16.67790629,16.66925355,16.75794129,,,,,,,,,,,,,,,,,,,,PF,weak,3,,,,,,,,7,0.66307,,,,,,,,,,,,,,,,,,,,,,,,,,,4,weak,43.20001209,76.79999471,1,0,0,response1disk,7,91,14.40001166,11.99999374,1,0,0,rectangle,14.40001166,11.99999374,1,0,0,5,6,0,0.00089,14.40001166,11.99999374,1,0,0,0,90,90,38,1,,,,,,,,,,,,,,,,,,,,,
,,,,,,,,,,,,,,,,,,,,,,,,,,,,,,,,,,,,,,,,,,6009aa37bb4a7c0253712de4,6036f7d9990a45de29df2c31,2021-02-25_01h05.53.491,Colour_Similarity_Experiment,2020.2.10,Win32,60,6036d0d9a84aa1626184a6ef,16.99784983,16.69524155,16.98936378,16.67790629,16.66925355,16.75794129,,,,,,,,,,,,,,,,,,,,PF,strong,3,,,,,,,,7,0.97929,,,,,,,,,,,,,,,,,,,,,,,,,,,3,strong,31.20001191,83.19997039,1,0,0,response1disk,7,92,-3.999988616,3.19999361,1,0,0,rectangle,-3.999988616,3.19999361,1,0,0,5,4,0,0.00084,-3.999988616,3.19999361,1,0,0,0,91,91,118,1,,,,,,,,,,,,,,,,,,,,,
,,,,,,,,,,,,,,,,,,,,,,,,,,,,,,,,,,,,,,,,,,6009aa37bb4a7c0253712de4,6036f7d9990a45de29df2c31,2021-02-25_01h05.53.491,Colour_Similarity_Experiment,2020.2.10,Win32,60,6036d0d9a84aa1626184a6ef,16.99784983,16.69524155,16.98936378,16.67790629,16.66925355,16.75794129,,,,,,,,,,,,,,,,,,,,PF,strong,3,,,,,,,,7,0.946795,,,,,,,,,,,,,,,,,,,,,,,,,,,7,strong,30.4000119,62.39999449,1,0,0,response1disk,2,93,2.40001148,4.799993634,1,0,0,rectangle,2.40001148,4.799993634,1,0,0,5,5,0,0.00082,2.40001148,4.799993634,1,0,0,0,92,92,138,1,,,,,,,,,,,,,,,,,,,,,
,,,,,,,,,,,,,,,,,,,,,,,,,,,,,,,,,,,,,,,,,,6009aa37bb4a7c0253712de4,6036f7d9990a45de29df2c31,2021-02-25_01h05.53.491,Colour_Similarity_Experiment,2020.2.10,Win32,60,6036d0d9a84aa1626184a6ef,16.99784983,16.69524155,16.98936378,16.67790629,16.66925355,16.75794129,,,,,,,,,,,,,,,,,,,,PF,strong,3,,,,,,,,7,0.679805,,,,,,,,,,,,,,,,,,,,,,,,,,,2,strong,34.40001196,75.9999947,1,0,0,response1disk,7,94,15.20001167,14.39999378,1,0,0,rectangle,15.20001167,14.39999378,1,0,0,5,4,0,0.00126,15.20001167,14.39999378,1,0,0,0,93,93,63,1,,,,,,,,,,,,,,,,,,,,,
,,,,,,,,,,,,,,,,,,,,,,,,,,,,,,,,,,,,,,,,,,6009aa37bb4a7c0253712de4,6036f7d9990a45de29df2c31,2021-02-25_01h05.53.491,Colour_Similarity_Experiment,2020.2.10,Win32,60,6036d0d9a84aa1626184a6ef,16.99784983,16.69524155,16.98936378,16.67790629,16.66925355,16.75794129,,,,,,,,,,,,,,,,,,,,PF,weak,3,,,,,,,,7,0.83357,,,,,,,,,,,,,,,,,,,,,,,,,,,7,weak,35.20001197,77.59999472,1,0,0,response1disk,3,95,1.14441E-05,3.19999361,1,0,0,rectangle,1.14441E-05,3.19999361,1,0,0,5,1,0,0.000885,1.14441E-05,3.19999361,1,0,0,0,94,94,81,1,,,,,,,,,,,,,,,,,,,,,
,,,,,,,,,,,,,,,,,,,,,,,,,,,,,,,,,,,,,,,,,,6009aa37bb4a7c0253712de4,6036f7d9990a45de29df2c31,2021-02-25_01h05.53.491,Colour_Similarity_Experiment,2020.2.10,Win32,60,6036d0d9a84aa1626184a6ef,16.99784983,16.69524155,16.98936378,16.67790629,16.66925355,16.75794129,,,,,,,,,,,,,,,,,,,,PF,weak,3,,,,,,,,7,0.729805,,,,,,,,,,,,,,,,,,,,,,,,,,,8,weak,37.60006083,76.79999471,1,0,0,response1disk,2,96,12.80001163,-6.4373E-06,1,0,0,rectangle,12.80001163,-6.4373E-06,1,0,0,5,6,0,0.00077,12.80001163,-6.4373E-06,1,0,0,0,95,95,83,1,,,,,,,,,,,,,,,,,,,,,
,,,,,,,,,,,,,,,,,,,,,,,,,,,,,,,,,,,,,,,,,,6009aa37bb4a7c0253712de4,6036f7d9990a45de29df2c31,2021-02-25_01h05.53.491,Colour_Similarity_Experiment,2020.2.10,Win32,60,6036d0d9a84aa1626184a6ef,16.99784983,16.69524155,16.98936378,16.67790629,16.66925355,16.75794129,,,,,,,,,,,,,,,,,,,,PF,strong,3,,,,,,,,7,1.32968,,,,,,,,,,,,,,,,,,,,,,,,,,,5,strong,45.60006095,83.19997039,1,0,0,response1disk,3,97,3.200011492,13.59999377,1,0,0,rectangle,3.200011492,13.59999377,1,0,0,5,3,0,0.00084,3.200011492,13.59999377,1,0,0,0,96,96,25,1,,,,,,,,,,,,,,,,,,,,,
,,,,,,,,,,,,,,,,,,,,,,,,,,,,,,,,,,,,,,,,,,6009aa37bb4a7c0253712de4,6036f7d9990a45de29df2c31,2021-02-25_01h05.53.491,Colour_Similarity_Experiment,2020.2.10,Win32,60,6036d0d9a84aa1626184a6ef,16.99784983,16.69524155,16.98936378,16.67790629,16.66925355,16.75794129,,,,,,,,,,,,,,,,,,,,PF,strong,3,,,,,,,,7,0.89641,,,,,,,,,,,,,,,,,,,,,,,,,,,1,strong,36.00001198,92.79999495,1,0,0,response1disk,7,98,-4.799988627,-6.4373E-06,1,0,0,rectangle,-4.799988627,-6.4373E-06,1,0,0,5,7,0,0.000785,-4.799988627,-6.4373E-06,1,0,0,0,97,97,137,1,,,,,,,,,,,,,,,,,,,,,
,,,,,,,,,,,,,,,,,,,,,,,,,,,,,,,,,,,,,,,,,,6009aa37bb4a7c0253712de4,6036f7d9990a45de29df2c31,2021-02-25_01h05.53.491,Colour_Similarity_Experiment,2020.2.10,Win32,60,6036d0d9a84aa1626184a6ef,16.99784983,16.69524155,16.98936378,16.67790629,16.66925355,16.75794129,,,,,,,,,,,,,,,,,,,,PF,weak,3,,,,,,,,7,0.72985,,,,,,,,,,,,,,,,,,,,,,,,,,,8,weak,42.40001208,87.19997045,1,0,0,response1disk,1,99,8.800011575,-1.600006461,1,0,0,rectangle,8.800011575,-1.600006461,1,0,0,5,5,0,0.00085,8.800011575,-1.600006461,1,0,0,0,98,98,57,1,,,,,,,,,,,,,,,,,,,,,
,,,,,,,,,,,,,,,,,,,,,,,,,,,,,,,,,,,,,,,,,,6009aa37bb4a7c0253712de4,6036f7d9990a45de29df2c31,2021-02-25_01h05.53.491,Colour_Similarity_Experiment,2020.2.10,Win32,60,6036d0d9a84aa1626184a6ef,16.99784983,16.69524155,16.98936378,16.67790629,16.66925355,16.75794129,,,,,,,,,,,,,,,,,,,,PF,weak,3,,,,,,,,7,1.416795,,,,,,,,,,,,,,,,,,,,,,,,,,,7,weak,30.4000119,79.99999475,1,0,0,response1disk,9,100,-3.199988604,7.19999367,1,0,0,rectangle,-3.199988604,7.19999367,1,0,0,5,5,0,0.00016,-3.199988604,7.19999367,1,0,0,0,99,99,10,1,,,,,,,,,,,,,,,,,,,,,
,,,,,,,,,,,,,,,,,,,,,,,,,,,,,,,,,,,,,,,,,,6009aa37bb4a7c0253712de4,6036f7d9990a45de29df2c31,2021-02-25_01h05.53.491,Colour_Similarity_Experiment,2020.2.10,Win32,60,6036d0d9a84aa1626184a6ef,16.99784983,16.69524155,16.98936378,16.67790629,16.66925355,16.75794129,,,,,,,,,,,,,,,,,,,,PF,weak,3,,,,,,,,7,0.979365,,,,,,,,,,,,,,,,,,,,,,,,,,,3,weak,28.00001186,81.59999478,1,0,0,response1disk,8,101,-12.79998875,-12.80000663,1,0,0,rectangle,-12.79998875,-12.80000663,1,0,0,5,0,0,0.0008,-12.79998875,-12.80000663,1,0,0,0,100,100,3,1,,,,,,,,,,,,,,,,,,,,,
,,,,,,,,,,,,,,,,,,,,,,,,,,,,,,,,,,,,,,,,,,6009aa37bb4a7c0253712de4,6036f7d9990a45de29df2c31,2021-02-25_01h05.53.491,Colour_Similarity_Experiment,2020.2.10,Win32,60,6036d0d9a84aa1626184a6ef,16.99784983,16.69524155,16.98936378,16.67790629,16.66925355,16.75794129,,,,,,,,,,,,,,,,,,,,PF,weak,3,,,,,,,,7,0.74635,,,,,,,,,,,,,,,,,,,,,,,,,,,5,weak,28.00001186,70.39999461,1,0,0,response1disk,2,102,3.200011492,1.599993587,1,0,0,rectangle,3.200011492,1.599993587,1,0,0,5,0,0,0.00012,3.200011492,1.599993587,1,0,0,0,101,101,129,1,,,,,,,,,,,,,,,,,,,,,
,,,,,,,,,,,,,,,,,,,,,,,,,,,,,,,,,,,,,,,,,,6009aa37bb4a7c0253712de4,6036f7d9990a45de29df2c31,2021-02-25_01h05.53.491,Colour_Similarity_Experiment,2020.2.10,Win32,60,6036d0d9a84aa1626184a6ef,16.99784983,16.69524155,16.98936378,16.67790629,16.66925355,16.75794129,,,,,,,,,,,,,,,,,,,,PF,strong,3,,,,,,,,0,0.89657,,,,,,,,,,,,,,,,,,,,,,,,,,,1,strong,-34.39994024,72.79999465,1,0,0,response7disk,1,103,-2.399939764,11.99999374,1,0,0,rectangle,-2.399939764,11.99999374,1,0,0,5,3,0,0.00102,-2.399939764,11.99999374,1,0,0,0,102,102,151,1,,,,,,,,,,,,,,,,,,,,,
,,,,,,,,,,,,,,,,,,,,,,,,,,,,,,,,,,,,,,,,,,6009aa37bb4a7c0253712de4,6036f7d9990a45de29df2c31,2021-02-25_01h05.53.491,Colour_Similarity_Experiment,2020.2.10,Win32,60,6036d0d9a84aa1626184a6ef,16.99784983,16.69524155,16.98936378,16.67790629,16.66925355,16.75794129,,,,,,,,,,,,,,,,,,,,PF,weak,3,,,,,,,,7,1.034335,,,,,,,,,,,,,,,,,,,,,,,,,,,5,weak,28.80001187,63.99999452,1,0,0,response1disk,8,104,3.200011492,5.599993646,1,0,0,rectangle,3.200011492,5.599993646,1,0,0,5,5,0,0.000705,3.200011492,5.599993646,1,0,0,0,103,103,149,1,,,,,,,,,,,,,,,,,,,,,
,,,,,,,,,,,,,,,,,,,,,,,,,,,,,,,,,,,,,,,,,,6009aa37bb4a7c0253712de4,6036f7d9990a45de29df2c31,2021-02-25_01h05.53.491,Colour_Similarity_Experiment,2020.2.10,Win32,60,6036d0d9a84aa1626184a6ef,16.99784983,16.69524155,16.98936378,16.67790629,16.66925355,16.75794129,,,,,,,,,,,,,,,,,,,,PF,strong,3,,,,,,,,7,1.033765,,,,,,,,,,,,,,,,,,,,,,,,,,,7,strong,30.4000119,68.79999459,1,0,0,response1disk,3,105,8.800011575,-2.400006473,1,0,0,rectangle,8.800011575,-2.400006473,1,0,0,5,6,0,0.002295,8.800011575,-2.400006473,1,0,0,0,104,104,73,1,,,,,,,,,,,,,,,,,,,,,
,,,,,,,,,,,,,,,,,,,,,,,,,,,,,,,,,,,,,,,,,,6009aa37bb4a7c0253712de4,6036f7d9990a45de29df2c31,2021-02-25_01h05.53.491,Colour_Similarity_Experiment,2020.2.10,Win32,60,6036d0d9a84aa1626184a6ef,16.99784983,16.69524155,16.98936378,16.67790629,16.66925355,16.75794129,,,,,,,,,,,,,,,,,,,,PF,strong,3,,,,,,,,7,0.78352,,,,,,,,,,,,,,,,,,,,,,,,,,,1,strong,41.60006089,58.39999443,1,0,0,response1disk,2,106,11.20001161,-6.400006533,1,0,0,rectangle,11.20001161,-6.400006533,1,0,0,5,6,0,9.5E-05,11.20001161,-6.400006533,1,0,0,0,105,105,2,1,,,,,,,,,,,,,,,,,,,,,
,,,,,,,,,,,,,,,,,,,,,,,,,,,,,,,,,,,,,,,,,,6009aa37bb4a7c0253712de4,6036f7d9990a45de29df2c31,2021-02-25_01h05.53.491,Colour_Similarity_Experiment,2020.2.10,Win32,60,6036d0d9a84aa1626184a6ef,16.99784983,16.69524155,16.98936378,16.67790629,16.66925355,16.75794129,,,,,,,,,,,,,,,,,,,,PF,weak,3,,,,,,,,7,0.7834,,,,,,,,,,,,,,,,,,,,,,,,,,,7,weak,27.20001185,85.59999484,1,0,0,response1disk,5,107,0.800011456,-1.600006461,1,0,0,rectangle,0.800011456,-1.600006461,1,0,0,5,0,0,0.000885,0.800011456,-1.600006461,1,0,0,0,106,106,92,1,,,,,,,,,,,,,,,,,,,,,
,,,,,,,,,,,,,,,,,,,,,,,,,,,,,,,,,,,,,,,,,,6009aa37bb4a7c0253712de4,6036f7d9990a45de29df2c31,2021-02-25_01h05.53.491,Colour_Similarity_Experiment,2020.2.10,Win32,60,6036d0d9a84aa1626184a6ef,16.99784983,16.69524155,16.98936378,16.67790629,16.66925355,16.75794129,,,,,,,,,,,,,,,,,,,,PF,strong,3,,,,,,,,7,0.76253,,,,,,,,,,,,,,,,,,,,,,,,,,,4,strong,40.80001205,74.39999467,1,0,0,response1disk,7,108,4.800011516,-5.600006521,1,0,0,rectangle,4.800011516,-5.600006521,1,0,0,5,2,0,0.0009,4.800011516,-5.600006521,1,0,0,0,107,107,87,1,,,,,,,,,,,,,,,,,,,,,
,,,,,,,,,,,,,,,,,,,,,,,,,,,,,,,,,,,,,,,,,,6009aa37bb4a7c0253712de4,6036f7d9990a45de29df2c31,2021-02-25_01h05.53.491,Colour_Similarity_Experiment,2020.2.10,Win32,60,6036d0d9a84aa1626184a6ef,16.99784983,16.69524155,16.98936378,16.67790629,16.66925355,16.75794129,,,,,,,,,,,,,,,,,,,,PF,strong,3,,,,,,,,0,0.999865,,,,,,,,,,,,,,,,,,,,,,,,,,,9,strong,-43.1999892,69.5999946,1,0,0,response7disk,8,109,0.800011456,2.399993598,1,0,0,rectangle,0.800011456,2.399993598,1,0,0,5,2,0,0.00015,0.800011456,2.399993598,1,0,0,0,108,108,6,1,,,,,,,,,,,,,,,,,,,,,
,,,,,,,,,,,,,,,,,,,,,,,,,,,,,,,,,,,,,,,,,,6009aa37bb4a7c0253712de4,6036f7d9990a45de29df2c31,2021-02-25_01h05.53.491,Colour_Similarity_Experiment,2020.2.10,Win32,60,6036d0d9a84aa1626184a6ef,16.99784983,16.69524155,16.98936378,16.67790629,16.66925355,16.75794129,,,,,,,,,,,,,,,,,,,,PF,weak,3,,,,,,,,0,0.680105,,,,,,,,,,,,,,,,,,,,,,,,,,,3,weak,-31.99998903,55.19996997,1,0,0,response7disk,3,110,-4.799988627,5.599993646,1,0,0,rectangle,-4.799988627,5.599993646,1,0,0,5,4,0,0.00083,-4.799988627,5.599993646,1,0,0,0,109,109,4,1,,,,,,,,,,,,,,,,,,,,,
,,,,,,,,,,,,,,,,,,,,,,,,,,,,,,,,,,,,,,,,,,6009aa37bb4a7c0253712de4,6036f7d9990a45de29df2c31,2021-02-25_01h05.53.491,Colour_Similarity_Experiment,2020.2.10,Win32,60,6036d0d9a84aa1626184a6ef,16.99784983,16.69524155,16.98936378,16.67790629,16.66925355,16.75794129,,,,,,,,,,,,,,,,,,,,PF,strong,3,,,,,,,,0,0.76322,,,,,,,,,,,,,,,,,,,,,,,,,,,3,strong,-25.59998894,63.19997009,1,0,0,response7disk,3,111,4.000011504,2.399993598,1,0,0,rectangle,4.000011504,2.399993598,1,0,0,5,3,0,0.00076,4.000011504,2.399993598,1,0,0,0,110,110,68,1,,,,,,,,,,,,,,,,,,,,,
,,,,,,,,,,,,,,,,,,,,,,,,,,,,,,,,,,,,,,,,,,6009aa37bb4a7c0253712de4,6036f7d9990a45de29df2c31,2021-02-25_01h05.53.491,Colour_Similarity_Experiment,2020.2.10,Win32,60,6036d0d9a84aa1626184a6ef,16.99784983,16.69524155,16.98936378,16.67790629,16.66925355,16.75794129,,,,,,,,,,,,,,,,,,,,PF,weak,3,,,,,,,,7,0.73007,,,,,,,,,,,,,,,,,,,,,,,,,,,4,weak,31.20001191,72.79999465,1,0,0,response1disk,5,112,3.200011492,-5.600006521,1,0,0,rectangle,3.200011492,-5.600006521,1,0,0,5,0,0,0.000805,3.200011492,-5.600006521,1,0,0,0,111,111,49,1,,,,,,,,,,,,,,,,,,,,,
,,,,,,,,,,,,,,,,,,,,,,,,,,,,,,,,,,,,,,,,,,6009aa37bb4a7c0253712de4,6036f7d9990a45de29df2c31,2021-02-25_01h05.53.491,Colour_Similarity_Experiment,2020.2.10,Win32,60,6036d0d9a84aa1626184a6ef,16.99784983,16.69524155,16.98936378,16.67790629,16.66925355,16.75794129,,,,,,,,,,,,,,,,,,,,PF,strong,3,,,,,,,,0,1.47978,,,,,,,,,,,,,,,,,,,,,,,,,,,2,strong,-26.39994012,65.59999454,1,0,0,response7disk,2,113,-0.799988568,4.799993634,1,0,0,rectangle,-0.799988568,4.799993634,1,0,0,5,3,0,0.000935,-0.799988568,4.799993634,1,0,0,0,112,112,142,1,,,,,,,,,,,,,,,,,,,,,
,,,,,,,,,,,,,,,,,,,,,,,,,,,,,,,,,,,,,,,,,,6009aa37bb4a7c0253712de4,6036f7d9990a45de29df2c31,2021-02-25_01h05.53.491,Colour_Similarity_Experiment,2020.2.10,Win32,60,6036d0d9a84aa1626184a6ef,16.99784983,16.69524155,16.98936378,16.67790629,16.66925355,16.75794129,,,,,,,,,,,,,,,,,,,,PF,strong,3,,,,,,,,7,0.866685,,,,,,,,,,,,,,,,,,,,,,,,,,,2,strong,44.80001211,89.5999949,1,0,0,response1disk,1,114,9.600060415,-1.600006461,1,0,0,rectangle,9.600060415,-1.600006461,1,0,0,5,6,0,0.00079,9.600060415,-1.600006461,1,0,0,0,113,113,85,1,,,,,,,,,,,,,,,,,,,,,
,,,,,,,,,,,,,,,,,,,,,,,,,,,,,,,,,,,,,,,,,,6009aa37bb4a7c0253712de4,6036f7d9990a45de29df2c31,2021-02-25_01h05.53.491,Colour_Similarity_Experiment,2020.2.10,Win32,60,6036d0d9a84aa1626184a6ef,16.99784983,16.69524155,16.98936378,16.67790629,16.66925355,16.75794129,,,,,,,,,,,,,,,,,,,,PF,strong,3,,,,,,,,7,1.0335,,,,,,,,,,,,,,,,,,,,,,,,,,,6,strong,32.00001192,73.59999466,1,0,0,response1disk,4,115,9.600060415,9.599993706,1,0,0,rectangle,9.600060415,9.599993706,1,0,0,5,4,0,0.00086,9.600060415,9.599993706,1,0,0,0,114,114,56,1,,,,,,,,,,,,,,,,,,,,,
,,,,,,,,,,,,,,,,,,,,,,,,,,,,,,,,,,,,,,,,,,6009aa37bb4a7c0253712de4,6036f7d9990a45de29df2c31,2021-02-25_01h05.53.491,Colour_Similarity_Experiment,2020.2.10,Win32,60,6036d0d9a84aa1626184a6ef,16.99784983,16.69524155,16.98936378,16.67790629,16.66925355,16.75794129,,,,,,,,,,,,,,,,,,,,PF,weak,3,,,,,,,,7,0.846415,,,,,,,,,,,,,,,,,,,,,,,,,,,8,weak,37.60006083,63.99999452,1,0,0,response1disk,6,116,16.80001169,4.799993634,1,0,0,rectangle,83.20001268,-48.80000716,1,0,0,5,5,1,1.582715,-10.39993988,-3.200006485,1,0,0,0,115,115,161,1,response3disk_3,rectangle,,,,,,,,,,,,,,,,,,,
,,,,,,,,,,,,,,,,,,,,,,,,,,,,,,,,,,,,,,,,,,6009aa37bb4a7c0253712de4,6036f7d9990a45de29df2c31,2021-02-25_01h05.53.491,Colour_Similarity_Experiment,2020.2.10,Win32,60,6036d0d9a84aa1626184a6ef,16.99784983,16.69524155,16.98936378,16.67790629,16.66925355,16.75794129,,,,,,,,,,,,,,,,,,,,PF,strong,3,,,,,,,,7,1.232925,,,,,,,,,,,,,,,,,,,,,,,,,,,3,strong,24.80001181,93.59999496,1,0,0,response1disk,9,117,-1.59998858,-9.60000658,1,0,0,rectangle,-1.59998858,-9.60000658,1,0,0,5,3,0,0.00086,-1.59998858,-9.60000658,1,0,0,0,116,116,143,1,,,,,,,,,,,,,,,,,,,,,
,,,,,,,,,,,,,,,,,,,,,,,,,,,,,,,,,,,,,,,,,,6009aa37bb4a7c0253712de4,6036f7d9990a45de29df2c31,2021-02-25_01h05.53.491,Colour_Similarity_Experiment,2020.2.10,Win32,60,6036d0d9a84aa1626184a6ef,16.99784983,16.69524155,16.98936378,16.67790629,16.66925355,16.75794129,,,,,,,,,,,,,,,,,,,,PF,strong,3,,,,,,,,7,1.02959,,,,,,,,,,,,,,,,,,,,,,,,,,,8,strong,20.80001175,59.19997003,1,0,0,response1disk,2,118,-9.599988699,0.799993575,1,0,0,rectangle,-9.599988699,0.799993575,1,0,0,5,3,0,0.00019,-9.599988699,0.799993575,1,0,0,0,117,117,22,1,,,,,,,,,,,,,,,,,,,,,
,,,,,,,,,,,,,,,,,,,,,,,,,,,,,,,,,,,,,,,,,,6009aa37bb4a7c0253712de4,6036f7d9990a45de29df2c31,2021-02-25_01h05.53.491,Colour_Similarity_Experiment,2020.2.10,Win32,60,6036d0d9a84aa1626184a6ef,16.99784983,16.69524155,16.98936378,16.67790629,16.66925355,16.75794129,,,,,,,,,,,,,,,,,,,,PF,weak,3,,,,,,,,0,0.89714,,,,,,,,,,,,,,,,,,,,,,,,,,,9,weak,-42.39994036,76.79999471,1,0,0,response7disk,8,119,-9.599988699,5.599993646,1,0,0,rectangle,-9.599988699,5.599993646,1,0,0,5,0,0,0.00114,-9.599988699,5.599993646,1,0,0,0,118,118,67,1,,,,,,,,,,,,,,,,,,,,,
,,,,,,,,,,,,,,,,,,,,,,,,,,,,,,,,,,,,,,,,,,6009aa37bb4a7c0253712de4,6036f7d9990a45de29df2c31,2021-02-25_01h05.53.491,Colour_Similarity_Experiment,2020.2.10,Win32,60,6036d0d9a84aa1626184a6ef,16.99784983,16.69524155,16.98936378,16.67790629,16.66925355,16.75794129,,,,,,,,,,,,,,,,,,,,PF,strong,3,,,,,,,,0,1.06713,,,,,,,,,,,,,,,,,,,,,,,,,,,6,strong,-38.3999403,78.39999473,1,0,0,response7disk,9,120,-3.199988604,-6.400006533,1,0,0,rectangle,40.80001205,-102.400008,1,0,0,4,4,1,2.161075,-10.39993988,4.799993634,1,0,0,0,119,119,160,1,response3disk_3,rectangle,,,,,,,,,,,,,,,,,,,
,,,,,,,,,,,,,,,,,,,,,,,,,,,,,,,,,,,,,,,,,,6009aa37bb4a7c0253712de4,6036f7d9990a45de29df2c31,2021-02-25_01h05.53.491,Colour_Similarity_Experiment,2020.2.10,Win32,60,6036d0d9a84aa1626184a6ef,16.99784983,16.69524155,16.98936378,16.67790629,16.66925355,16.75794129,,,,,,,,,,,,,,,,,,,,PF,weak,3,,,,,,,,7,0.729395,,,,,,,,,,,,,,,,,,,,,,,,,,,3,weak,31.20001191,89.5999949,1,0,0,response1disk,7,121,2.40001148,-6.4373E-06,1,0,0,rectangle,2.40001148,-6.4373E-06,1,0,0,4,6,0,0.00086,2.40001148,-6.4373E-06,1,0,0,0,120,120,41,1,,,,,,,,,,,,,,,,,,,,,
,,,,,,,,,,,,,,,,,,,,,,,,,,,,,,,,,,,,,,,,,,6009aa37bb4a7c0253712de4,6036f7d9990a45de29df2c31,2021-02-25_01h05.53.491,Colour_Similarity_Experiment,2020.2.10,Win32,60,6036d0d9a84aa1626184a6ef,16.99784983,16.69524155,16.98936378,16.67790629,16.66925355,16.75794129,,,,,,,,,,,,,,,,,,,,PF,strong,3,,,,,,,,7,0.66851,,,,,,,,,,,,,,,,,,,,,,,,,,,7,strong,24.80001181,79.19997033,1,0,0,response1disk,7,122,-4.799988627,-5.600006521,1,0,0,rectangle,-4.799988627,-5.600006521,1,0,0,4,4,0,0.000975,-4.799988627,-5.600006521,1,0,0,0,121,121,34,1,,,,,,,,,,,,,,,,,,,,,
,,,,,,,,,,,,,,,,,,,,,,,,,,,,,,,,,,,,,,,,,,6009aa37bb4a7c0253712de4,6036f7d9990a45de29df2c31,2021-02-25_01h05.53.491,Colour_Similarity_Experiment,2020.2.10,Win32,60,6036d0d9a84aa1626184a6ef,16.99784983,16.69524155,16.98936378,16.67790629,16.66925355,16.75794129,,,,,,,,,,,,,,,,,,,,PF,strong,3,,,,,,,,7,0.979595,,,,,,,,,,,,,,,,,,,,,,,,,,,6,strong,31.20001191,68.79999459,1,0,0,response1disk,3,123,3.200011492,-7.200006545,1,0,0,rectangle,3.200011492,-7.200006545,1,0,0,4,4,0,0.000165,3.200011492,-7.200006545,1,0,0,0,122,122,21,1,,,,,,,,,,,,,,,,,,,,,
,,,,,,,,,,,,,,,,,,,,,,,,,,,,,,,,,,,,,,,,,,6009aa37bb4a7c0253712de4,6036f7d9990a45de29df2c31,2021-02-25_01h05.53.491,Colour_Similarity_Experiment,2020.2.10,Win32,60,6036d0d9a84aa1626184a6ef,16.99784983,16.69524155,16.98936378,16.67790629,16.66925355,16.75794129,,,,,,,,,,,,,,,,,,,,PF,weak,3,,,,,,,,7,0.59673,,,,,,,,,,,,,,,,,,,,,,,,,,,9,weak,36.80001199,69.5999946,1,0,0,response1disk,6,124,1.14441E-05,-1.600006461,1,0,0,rectangle,1.14441E-05,-1.600006461,1,0,0,4,4,0,0.00018,1.14441E-05,-1.600006461,1,0,0,0,123,123,148,1,,,,,,,,,,,,,,,,,,,,,
,,,,,,,,,,,,,,,,,,,,,,,,,,,,,,,,,,,,,,,,,,6009aa37bb4a7c0253712de4,6036f7d9990a45de29df2c31,2021-02-25_01h05.53.491,Colour_Similarity_Experiment,2020.2.10,Win32,60,6036d0d9a84aa1626184a6ef,16.99784983,16.69524155,16.98936378,16.67790629,16.66925355,16.75794129,,,,,,,,,,,,,,,,,,,,PF,weak,3,,,,,,,,0,0.779985,,,,,,,,,,,,,,,,,,,,,,,,,,,2,weak,-47.19998926,72.79999465,1,0,0,response7disk,3,125,-15.99998879,15.19999379,1,0,0,rectangle,-15.99998879,15.19999379,1,0,0,4,7,0,0.001545,-15.99998879,15.19999379,1,0,0,0,124,124,69,1,,,,,,,,,,,,,,,,,,,,,
,,,,,,,,,,,,,,,,,,,,,,,,,,,,,,,,,,,,,,,,,,6009aa37bb4a7c0253712de4,6036f7d9990a45de29df2c31,2021-02-25_01h05.53.491,Colour_Similarity_Experiment,2020.2.10,Win32,60,6036d0d9a84aa1626184a6ef,16.99784983,16.69524155,16.98936378,16.67790629,16.66925355,16.75794129,,,,,,,,,,,,,,,,,,,,PF,weak,3,,,,,,,,0,0.59607,,,,,,,,,,,,,,,,,,,,,,,,,,,8,weak,-34.39994024,86.39999485,1,0,0,response7disk,8,126,1.600060296,-6.4373E-06,1,0,0,rectangle,1.600060296,-6.4373E-06,1,0,0,4,4,0,0.000695,1.600060296,-6.4373E-06,1,0,0,0,125,125,153,1,,,,,,,,,,,,,,,,,,,,,
,,,,,,,,,,,,,,,,,,,,,,,,,,,,,,,,,,,,,,,,,,6009aa37bb4a7c0253712de4,6036f7d9990a45de29df2c31,2021-02-25_01h05.53.491,Colour_Similarity_Experiment,2020.2.10,Win32,60,6036d0d9a84aa1626184a6ef,16.99784983,16.69524155,16.98936378,16.67790629,16.66925355,16.75794129,,,,,,,,,,,,,,,,,,,,PF,weak,3,,,,,,,,0,0.66306,,,,,,,,,,,,,,,,,,,,,,,,,,,4,weak,-42.39994036,64.79999453,1,0,0,response7disk,4,127,-15.19998878,0.799993575,1,0,0,rectangle,-15.19998878,0.799993575,1,0,0,4,2,0,0.00092,-15.19998878,0.799993575,1,0,0,0,126,126,70,1,,,,,,,,,,,,,,,,,,,,,
,,,,,,,,,,,,,,,,,,,,,,,,,,,,,,,,,,,,,,,,,,6009aa37bb4a7c0253712de4,6036f7d9990a45de29df2c31,2021-02-25_01h05.53.491,Colour_Similarity_Experiment,2020.2.10,Win32,60,6036d0d9a84aa1626184a6ef,16.99784983,16.69524155,16.98936378,16.67790629,16.66925355,16.75794129,,,,,,,,,,,,,,,,,,,,PF,weak,3,,,,,,,,7,0.683645,,,,,,,,,,,,,,,,,,,,,,,,,,,8,weak,37.60006083,79.19997033,1,0,0,response1disk,3,128,4.800011516,7.999993682,1,0,0,rectangle,4.800011516,7.999993682,1,0,0,4,5,0,0.001055,4.800011516,7.999993682,1,0,0,0,127,127,71,1,,,,,,,,,,,,,,,,,,,,,
,,,,,,,,,,,,,,,,,,,,,,,,,,,,,,,,,,,,,,,,,,6009aa37bb4a7c0253712de4,6036f7d9990a45de29df2c31,2021-02-25_01h05.53.491,Colour_Similarity_Experiment,2020.2.10,Win32,60,6036d0d9a84aa1626184a6ef,16.99784983,16.69524155,16.98936378,16.67790629,16.66925355,16.75794129,,,,,,,,,,,,,,,,,,,,PF,strong,3,,,,,,,,7,0.71316,,,,,,,,,,,,,,,,,,,,,,,,,,,9,strong,34.40001196,68.79999459,1,0,0,response1disk,7,129,7.200011551,-0.800006449,1,0,0,rectangle,7.200011551,-0.800006449,1,0,0,4,7,0,0.001225,7.200011551,-0.800006449,1,0,0,0,128,128,100,1,,,,,,,,,,,,,,,,,,,,,
,,,,,,,,,,,,,,,,,,,,,,,,,,,,,,,,,,,,,,,,,,6009aa37bb4a7c0253712de4,6036f7d9990a45de29df2c31,2021-02-25_01h05.53.491,Colour_Similarity_Experiment,2020.2.10,Win32,60,6036d0d9a84aa1626184a6ef,16.99784983,16.69524155,16.98936378,16.67790629,16.66925355,16.75794129,,,,,,,,,,,,,,,,,,,,PF,strong,3,,,,,,,,7,0.72975,,,,,,,,,,,,,,,,,,,,,,,,,,,9,strong,45.60006095,73.59999466,1,0,0,response1disk,4,130,-0.799988568,-4.800006509,1,0,0,rectangle,-0.799988568,-4.800006509,1,0,0,4,1,0,0.000865,-0.799988568,-4.800006509,1,0,0,0,129,129,60,1,,,,,,,,,,,,,,,,,,,,,
,,,,,,,,,,,,,,,,,,,,,,,,,,,,,,,,,,,,,,,,,,6009aa37bb4a7c0253712de4,6036f7d9990a45de29df2c31,2021-02-25_01h05.53.491,Colour_Similarity_Experiment,2020.2.10,Win32,60,6036d0d9a84aa1626184a6ef,16.99784983,16.69524155,16.98936378,16.67790629,16.66925355,16.75794129,,,,,,,,,,,,,,,,,,,,PF,weak,3,,,,,,,,7,0.52992,,,,,,,,,,,,,,,,,,,,,,,,,,,2,weak,40.00001204,65.59999454,1,0,0,response1disk,8,131,1.600060296,-13.60000664,1,0,0,rectangle,1.600060296,-13.60000664,1,0,0,4,5,0,0.0008,1.600060296,-13.60000664,1,0,0,0,130,130,52,1,,,,,,,,,,,,,,,,,,,,,
,,,,,,,,,,,,,,,,,,,,,,,,,,,,,,,,,,,,,,,,,,6009aa37bb4a7c0253712de4,6036f7d9990a45de29df2c31,2021-02-25_01h05.53.491,Colour_Similarity_Experiment,2020.2.10,Win32,60,6036d0d9a84aa1626184a6ef,16.99784983,16.69524155,16.98936378,16.67790629,16.66925355,16.75794129,,,,,,,,,,,,,,,,,,,,PF,weak,3,,,,,,,,7,0.63346,,,,,,,,,,,,,,,,,,,,,,,,,,,9,weak,40.80001205,72.79999465,1,0,0,response1disk,3,132,-5.599988639,-6.400006533,1,0,0,rectangle,-5.599988639,-6.400006533,1,0,0,4,2,0,0.00098,-5.599988639,-6.400006533,1,0,0,0,131,131,119,1,,,,,,,,,,,,,,,,,,,,,
,,,,,,,,,,,,,,,,,,,,,,,,,,,,,,,,,,,,,,,,,,6009aa37bb4a7c0253712de4,6036f7d9990a45de29df2c31,2021-02-25_01h05.53.491,Colour_Similarity_Experiment,2020.2.10,Win32,60,6036d0d9a84aa1626184a6ef,16.99784983,16.69524155,16.98936378,16.67790629,16.66925355,16.75794129,,,,,,,,,,,,,,,,,,,,PF,strong,3,,,,,,,,7,0.6797,,,,,,,,,,,,,,,,,,,,,,,,,,,2,strong,37.60006083,92.79999495,1,0,0,response1disk,5,133,-5.599988639,-4.800006509,1,0,0,rectangle,-5.599988639,-4.800006509,1,0,0,4,4,0,0.0009,-5.599988639,-4.800006509,1,0,0,0,132,132,80,1,,,,,,,,,,,,,,,,,,,,,
,,,,,,,,,,,,,,,,,,,,,,,,,,,,,,,,,,,,,,,,,,6009aa37bb4a7c0253712de4,6036f7d9990a45de29df2c31,2021-02-25_01h05.53.491,Colour_Similarity_Experiment,2020.2.10,Win32,60,6036d0d9a84aa1626184a6ef,16.99784983,16.69524155,16.98936378,16.67790629,16.66925355,16.75794129,,,,,,,,,,,,,,,,,,,,PF,strong,3,,,,,,,,7,0.679945,,,,,,,,,,,,,,,,,,,,,,,,,,,5,strong,27.20001185,108.7999952,1,0,0,response1disk,2,134,16.00001168,11.19999373,1,0,0,rectangle,89.60001278,31.99999404,1,0,0,6,6,1,1.803335,10.4000116,3.999993622,1,0,0,0,133,133,55,1,response1disk_3,rectangle,,,,,,,,,,,,,,,,,,,
,,,,,,,,,,,,,,,,,,,,,,,,,,,,,,,,,,,,,,,,,,6009aa37bb4a7c0253712de4,6036f7d9990a45de29df2c31,2021-02-25_01h05.53.491,Colour_Similarity_Experiment,2020.2.10,Win32,60,6036d0d9a84aa1626184a6ef,16.99784983,16.69524155,16.98936378,16.67790629,16.66925355,16.75794129,,,,,,,,,,,,,,,,,,,,PF,strong,3,,,,,,,,7,0.76336,,,,,,,,,,,,,,,,,,,,,,,,,,,8,strong,31.20001191,75.19997027,1,0,0,response1disk,5,135,2.40001148,15.9999938,1,0,0,rectangle,2.40001148,15.9999938,1,0,0,6,4,0,0.000835,2.40001148,15.9999938,1,0,0,0,134,134,152,1,,,,,,,,,,,,,,,,,,,,,
,,,,,,,,,,,,,,,,,,,,,,,,,,,,,,,,,,,,,,,,,,6009aa37bb4a7c0253712de4,6036f7d9990a45de29df2c31,2021-02-25_01h05.53.491,Colour_Similarity_Experiment,2020.2.10,Win32,60,6036d0d9a84aa1626184a6ef,16.99784983,16.69524155,16.98936378,16.67790629,16.66925355,16.75794129,,,,,,,,,,,,,,,,,,,,PF,weak,3,,,,,,,,7,0.53356,,,,,,,,,,,,,,,,,,,,,,,,,,,2,weak,25.60006065,60.79999447,1,0,0,response1disk,4,136,16.00001168,-6.4373E-06,1,0,0,rectangle,16.00001168,-6.4373E-06,1,0,0,6,4,0,0.000175,16.00001168,-6.4373E-06,1,0,0,0,135,135,127,1,,,,,,,,,,,,,,,,,,,,,
,,,,,,,,,,,,,,,,,,,,,,,,,,,,,,,,,,,,,,,,,,6009aa37bb4a7c0253712de4,6036f7d9990a45de29df2c31,2021-02-25_01h05.53.491,Colour_Similarity_Experiment,2020.2.10,Win32,60,6036d0d9a84aa1626184a6ef,16.99784983,16.69524155,16.98936378,16.67790629,16.66925355,16.75794129,,,,,,,,,,,,,,,,,,,,PF,weak,3,,,,,,,,0,0.863035,,,,,,,,,,,,,,,,,,,,,,,,,,,6,weak,-25.59998894,87.99999487,1,0,0,response7disk,4,137,1.14441E-05,16.79999381,1,0,0,rectangle,1.14441E-05,16.79999381,1,0,0,6,5,0,0.000755,1.14441E-05,16.79999381,1,0,0,0,136,136,33,1,,,,,,,,,,,,,,,,,,,,,
,,,,,,,,,,,,,,,,,,,,,,,,,,,,,,,,,,,,,,,,,,6009aa37bb4a7c0253712de4,6036f7d9990a45de29df2c31,2021-02-25_01h05.53.491,Colour_Similarity_Experiment,2020.2.10,Win32,60,6036d0d9a84aa1626184a6ef,16.99784983,16.69524155,16.98936378,16.67790629,16.66925355,16.75794129,,,,,,,,,,,,,,,,,,,,PF,strong,3,,,,,,,,7,0.612825,,,,,,,,,,,,,,,,,,,,,,,,,,,9,strong,32.80001193,71.19997021,1,0,0,response1disk,6,138,-2.399939764,4.799993634,1,0,0,rectangle,-2.399939764,4.799993634,1,0,0,6,6,0,0.0008,-2.399939764,4.799993634,1,0,0,0,137,137,117,1,,,,,,,,,,,,,,,,,,,,,
,,,,,,,,,,,,,,,,,,,,,,,,,,,,,,,,,,,,,,,,,,6009aa37bb4a7c0253712de4,6036f7d9990a45de29df2c31,2021-02-25_01h05.53.491,Colour_Similarity_Experiment,2020.2.10,Win32,60,6036d0d9a84aa1626184a6ef,16.99784983,16.69524155,16.98936378,16.67790629,16.66925355,16.75794129,,,,,,,,,,,,,,,,,,,,PF,strong,3,,,,,,,,0,0.89634,,,,,,,,,,,,,,,,,,,,,,,,,,,3,strong,-21.59998888,75.19997027,1,0,0,response7disk,4,139,6.400011539,10.39999372,1,0,0,rectangle,6.400011539,10.39999372,1,0,0,6,6,0,9.5E-05,6.400011539,10.39999372,1,0,0,0,138,138,110,1,,,,,,,,,,,,,,,,,,,,,
,,,,,,,,,,,,,,,,,,,,,,,,,,,,,,,,,,,,,,,,,,6009aa37bb4a7c0253712de4,6036f7d9990a45de29df2c31,2021-02-25_01h05.53.491,Colour_Similarity_Experiment,2020.2.10,Win32,60,6036d0d9a84aa1626184a6ef,16.99784983,16.69524155,16.98936378,16.67790629,16.66925355,16.75794129,,,,,,,,,,,,,,,,,,,,PF,weak,3,,,,,,,,0,0.834285,,,,,,,,,,,,,,,,,,,,,,,,,,,6,weak,-32.79998904,66.39999455,1,0,0,response7disk,5,140,3.200011492,15.9999938,1,0,0,rectangle,3.200011492,15.9999938,1,0,0,6,4,0,0.00081,3.200011492,15.9999938,1,0,0,0,139,139,59,1,,,,,,,,,,,,,,,,,,,,,
,,,,,,,,,,,,,,,,,,,,,,,,,,,,,,,,,,,,,,,,,,6009aa37bb4a7c0253712de4,6036f7d9990a45de29df2c31,2021-02-25_01h05.53.491,Colour_Similarity_Experiment,2020.2.10,Win32,60,6036d0d9a84aa1626184a6ef,16.99784983,16.69524155,16.98936378,16.67790629,16.66925355,16.75794129,,,,,,,,,,,,,,,,,,,,PF,weak,3,,,,,,,,7,0.59639,,,,,,,,,,,,,,,,,,,,,,,,,,,4,weak,30.4000119,78.39999473,1,0,0,response1disk,6,141,-2.399939764,7.999993682,1,0,0,rectangle,-2.399939764,7.999993682,1,0,0,6,7,0,0.000865,-2.399939764,7.999993682,1,0,0,0,140,140,120,1,,,,,,,,,,,,,,,,,,,,,
,,,,,,,,,,,,,,,,,,,,,,,,,,,,,,,,,,,,,,,,,,6009aa37bb4a7c0253712de4,6036f7d9990a45de29df2c31,2021-02-25_01h05.53.491,Colour_Similarity_Experiment,2020.2.10,Win32,60,6036d0d9a84aa1626184a6ef,16.99784983,16.69524155,16.98936378,16.67790629,16.66925355,16.75794129,,,,,,,,,,,,,,,,,,,,PF,weak,3,,,,,,,,7,1.763145,,,,,,,,,,,,,,,,,,,,,,,,,,,7,weak,32.00001192,70.39999461,1,0,0,response1disk,6,142,4.000011504,-0.800006449,1,0,0,rectangle,4.000011504,-0.800006449,1,0,0,6,3,0,0.00084,4.000011504,-0.800006449,1,0,0,0,141,141,29,1,,,,,,,,,,,,,,,,,,,,,
,,,,,,,,,,,,,,,,,,,,,,,,,,,,,,,,,,,,,,,,,,6009aa37bb4a7c0253712de4,6036f7d9990a45de29df2c31,2021-02-25_01h05.53.491,Colour_Similarity_Experiment,2020.2.10,Win32,60,6036d0d9a84aa1626184a6ef,16.99784983,16.69524155,16.98936378,16.67790629,16.66925355,16.75794129,,,,,,,,,,,,,,,,,,,,PF,weak,3,,,,,,,,7,0.629705,,,,,,,,,,,,,,,,,,,,,,,,,,,3,weak,40.00001204,71.19997021,1,0,0,response1disk,5,143,11.20001161,-4.800006509,1,0,0,rectangle,11.20001161,-4.800006509,1,0,0,6,4,0,0.00126,11.20001161,-4.800006509,1,0,0,0,142,142,66,1,,,,,,,,,,,,,,,,,,,,,
,,,,,,,,,,,,,,,,,,,,,,,,,,,,,,,,,,,,,,,,,,6009aa37bb4a7c0253712de4,6036f7d9990a45de29df2c31,2021-02-25_01h05.53.491,Colour_Similarity_Experiment,2020.2.10,Win32,60,6036d0d9a84aa1626184a6ef,16.99784983,16.69524155,16.98936378,16.67790629,16.66925355,16.75794129,,,,,,,,,,,,,,,,,,,,PF,weak,3,,,,,,,,7,0.52994,,,,,,,,,,,,,,,,,,,,,,,,,,,7,weak,38.40001202,59.99999446,1,0,0,response1disk,4,144,9.600060415,-8.000006557,1,0,0,rectangle,9.600060415,-8.000006557,1,0,0,6,5,0,0.000785,9.600060415,-8.000006557,1,0,0,0,143,143,43,1,,,,,,,,,,,,,,,,,,,,,
,,,,,,,,,,,,,,,,,,,,,,,,,,,,,,,,,,,,,,,,,,6009aa37bb4a7c0253712de4,6036f7d9990a45de29df2c31,2021-02-25_01h05.53.491,Colour_Similarity_Experiment,2020.2.10,Win32,60,6036d0d9a84aa1626184a6ef,16.99784983,16.69524155,16.98936378,16.67790629,16.66925355,16.75794129,,,,,,,,,,,,,,,,,,,,PF,weak,3,,,,,,,,0,1.22976,,,,,,,,,,,,,,,,,,,,,,,,,,,5,weak,-40.79998916,81.59999478,1,0,0,response7disk,4,145,1.14441E-05,-4.800006509,1,0,0,rectangle,1.14441E-05,-4.800006509,1,0,0,6,6,0,0.00103,1.14441E-05,-4.800006509,1,0,0,0,144,144,54,1,,,,,,,,,,,,,,,,,,,,,
,,,,,,,,,,,,,,,,,,,,,,,,,,,,,,,,,,,,,,,,,,6009aa37bb4a7c0253712de4,6036f7d9990a45de29df2c31,2021-02-25_01h05.53.491,Colour_Similarity_Experiment,2020.2.10,Win32,60,6036d0d9a84aa1626184a6ef,16.99784983,16.69524155,16.98936378,16.67790629,16.66925355,16.75794129,,,,,,,,,,,,,,,,,,,,PF,weak,3,,,,,,,,7,2.11291,,,,,,,,,,,,,,,,,,,,,,,,,,,6,weak,28.00001186,70.39999461,1,0,0,response1disk,6,146,-1.59998858,9.599993706,1,0,0,rectangle,-1.59998858,9.599993706,1,0,0,6,1,0,0.00104,-1.59998858,9.599993706,1,0,0,0,145,145,0,1,,,,,,,,,,,,,,,,,,,,,
,,,,,,,,,,,,,,,,,,,,,,,,,,,,,,,,,,,,,,,,,,6009aa37bb4a7c0253712de4,6036f7d9990a45de29df2c31,2021-02-25_01h05.53.491,Colour_Similarity_Experiment,2020.2.10,Win32,60,6036d0d9a84aa1626184a6ef,16.99784983,16.69524155,16.98936378,16.67790629,16.66925355,16.75794129,,,,,,,,,,,,,,,,,,,,PF,weak,3,,,,,,,,7,1.16339,,,,,,,,,,,,,,,,,,,,,,,,,,,6,weak,28.80001187,91.19997051,1,0,0,response1disk,9,147,-8.799988687,0.799993575,1,0,0,rectangle,-8.799988687,0.799993575,1,0,0,6,6,0,0.000785,-8.799988687,0.799993575,1,0,0,0,146,146,45,1,,,,,,,,,,,,,,,,,,,,,
,,,,,,,,,,,,,,,,,,,,,,,,,,,,,,,,,,,,,,,,,,6009aa37bb4a7c0253712de4,6036f7d9990a45de29df2c31,2021-02-25_01h05.53.491,Colour_Similarity_Experiment,2020.2.10,Win32,60,6036d0d9a84aa1626184a6ef,16.99784983,16.69524155,16.98936378,16.67790629,16.66925355,16.75794129,,,,,,,,,,,,,,,,,,,,PF,strong,3,,,,,,,,7,0.729505,,,,,,,,,,,,,,,,,,,,,,,,,,,8,strong,29.60006071,70.39999461,1,0,0,response1disk,3,148,2.40001148,-3.200006485,1,0,0,rectangle,2.40001148,-3.200006485,1,0,0,6,1,0,0.001035,2.40001148,-3.200006485,1,0,0,0,147,147,154,1,,,,,,,,,,,,,,,,,,,,,
,,,,,,,,,,,,,,,,,,,,,,,,,,,,,,,,,,,,,,,,,,6009aa37bb4a7c0253712de4,6036f7d9990a45de29df2c31,2021-02-25_01h05.53.491,Colour_Similarity_Experiment,2020.2.10,Win32,60,6036d0d9a84aa1626184a6ef,16.99784983,16.69524155,16.98936378,16.67790629,16.66925355,16.75794129,,,,,,,,,,,,,,,,,,,,PF,weak,3,,,,,,,,0,0.96308,,,,,,,,,,,,,,,,,,,,,,,,,,,7,weak,-27.99998897,85.59999484,1,0,0,response7disk,7,149,5.600060356,-11.2000066,1,0,0,rectangle,5.600060356,-11.2000066,1,0,0,6,7,0,0.00079,5.600060356,-11.2000066,1,0,0,0,148,148,51,1,,,,,,,,,,,,,,,,,,,,,
,,,,,,,,,,,,,,,,,,,,,,,,,,,,,,,,,,,,,,,,,,6009aa37bb4a7c0253712de4,6036f7d9990a45de29df2c31,2021-02-25_01h05.53.491,Colour_Similarity_Experiment,2020.2.10,Win32,60,6036d0d9a84aa1626184a6ef,16.99784983,16.69524155,16.98936378,16.67790629,16.66925355,16.75794129,,,,,,,,,,,,,,,,,,,,PF,strong,3,,,,,,,,0,1.56261,,,,,,,,,,,,,,,,,,,,,,,,,,,1,strong,-41.59998918,103.1999707,1,0,0,response7disk,8,150,-4.799988627,16.79999381,1,0,0,rectangle,-4.799988627,16.79999381,1,0,0,6,3,0,0.00081,-4.799988627,16.79999381,1,0,0,0,149,149,27,1,,,,,,,,,,,,,,,,,,,,,
,,,,,,,,,,,,,,,,,,,,,,,,,,,,,,,,,,,,,,,,,,6009aa37bb4a7c0253712de4,6036f7d9990a45de29df2c31,2021-02-25_01h05.53.491,Colour_Similarity_Experiment,2020.2.10,Win32,60,6036d0d9a84aa1626184a6ef,16.99784983,16.69524155,16.98936378,16.67790629,16.66925355,16.75794129,,,,,,,,,,,,,,,,,,,,PF,strong,3,,,,,,,,7,0.829755,,,,,,,,,,,,,,,,,,,,,,,,,,,4,strong,47.20001215,76.79999471,1,0,0,response1disk,8,151,5.600060356,12.79999375,1,0,0,rectangle,5.600060356,12.79999375,1,0,0,6,0,0,0.000845,5.600060356,12.79999375,1,0,0,0,150,150,35,1,,,,,,,,,,,,,,,,,,,,,
,,,,,,,,,,,,,,,,,,,,,,,,,,,,,,,,,,,,,,,,,,6009aa37bb4a7c0253712de4,6036f7d9990a45de29df2c31,2021-02-25_01h05.53.491,Colour_Similarity_Experiment,2020.2.10,Win32,60,6036d0d9a84aa1626184a6ef,16.99784983,16.69524155,16.98936378,16.67790629,16.66925355,16.75794129,,,,,,,,,,,,,,,,,,,,PF,weak,3,,,,,,,,7,1.15107,,,,,,,,,,,,,,,,,,,,,,,,,,,8,weak,24.80001181,92.79999495,1,0,0,response1disk,7,152,1.14441E-05,-7.200006545,1,0,0,rectangle,1.14441E-05,-7.200006545,1,0,0,6,1,0,0.000815,1.14441E-05,-7.200006545,1,0,0,0,151,151,23,1,,,,,,,,,,,,,,,,,,,,,
,,,,,,,,,,,,,,,,,,,,,,,,,,,,,,,,,,,,,,,,,,6009aa37bb4a7c0253712de4,6036f7d9990a45de29df2c31,2021-02-25_01h05.53.491,Colour_Similarity_Experiment,2020.2.10,Win32,60,6036d0d9a84aa1626184a6ef,16.99784983,16.69524155,16.98936378,16.67790629,16.66925355,16.75794129,,,,,,,,,,,,,,,,,,,,PF,strong,3,,,,,,,,7,2.358005,,,,,,,,,,,,,,,,,,,,,,,,,,,6,strong,42.40001208,123.199971,1,0,0,response1disk,6,153,3.200011492,0.799993575,1,0,0,rectangle,3.200011492,0.799993575,1,0,0,6,3,0,0.00108,3.200011492,0.799993575,1,0,0,0,152,152,91,1,,,,,,,,,,,,,,,,,,,,,
,,,,,,,,,,,,,,,,,,,,,,,,,,,,,,,,,,,,,,,,,,6009aa37bb4a7c0253712de4,6036f7d9990a45de29df2c31,2021-02-25_01h05.53.491,Colour_Similarity_Experiment,2020.2.10,Win32,60,6036d0d9a84aa1626184a6ef,16.99784983,16.69524155,16.98936378,16.67790629,16.66925355,16.75794129,,,,,,,,,,,,,,,,,,,,PF,strong,3,,,,,,,,7,1.01685,,,,,,,,,,,,,,,,,,,,,,,,,,,5,strong,29.60006071,79.19997033,1,0,0,response1disk,7,154,5.600060356,3.999993622,1,0,0,rectangle,5.600060356,3.999993622,1,0,0,6,5,0,0.0008,5.600060356,3.999993622,1,0,0,0,153,153,7,1,,,,,,,,,,,,,,,,,,,,,
,,,,,,,,,,,,,,,,,,,,,,,,,,,,,,,,,,,,,,,,,,6009aa37bb4a7c0253712de4,6036f7d9990a45de29df2c31,2021-02-25_01h05.53.491,Colour_Similarity_Experiment,2020.2.10,Win32,60,6036d0d9a84aa1626184a6ef,16.99784983,16.69524155,16.98936378,16.67790629,16.66925355,16.75794129,,,,,,,,,,,,,,,,,,,,PF,weak,3,,,,,,,,7,0.84672,,,,,,,,,,,,,,,,,,,,,,,,,,,7,weak,35.20001197,93.59999496,1,0,0,response1disk,1,155,3.200011492,5.599993646,1,0,0,rectangle,3.200011492,5.599993646,1,0,0,6,4,0,0.0014,3.200011492,5.599993646,1,0,0,0,154,154,53,1,,,,,,,,,,,,,,,,,,,,,
,,,,,,,,,,,,,,,,,,,,,,,,,,,,,,,,,,,,,,,,,,6009aa37bb4a7c0253712de4,6036f7d9990a45de29df2c31,2021-02-25_01h05.53.491,Colour_Similarity_Experiment,2020.2.10,Win32,60,6036d0d9a84aa1626184a6ef,16.99784983,16.69524155,16.98936378,16.67790629,16.66925355,16.75794129,,,,,,,,,,,,,,,,,,,,PF,weak,3,,,,,,,,7,0.76322,,,,,,,,,,,,,,,,,,,,,,,,,,,5,weak,48.00001216,93.59999496,1,0,0,response1disk,1,156,4.000011504,9.599993706,1,0,0,rectangle,-80.79998976,45.59999424,1,0,0,1,1,1,1.38267,1.14441E-05,6.399993658,1,0,0,0,155,155,159,1,response7disk_3,rectangle,,,,,,,,,,,,,,,,,,,
,,,,,,,,,,,,,,,,,,,,,,,,,,,,,,,,,,,,,,,,,,6009aa37bb4a7c0253712de4,6036f7d9990a45de29df2c31,2021-02-25_01h05.53.491,Colour_Similarity_Experiment,2020.2.10,Win32,60,6036d0d9a84aa1626184a6ef,16.99784983,16.69524155,16.98936378,16.67790629,16.66925355,16.75794129,,,,,,,,,,,,,,,,,,,,PF,strong,3,,,,,,,,7,1.679655,,,,,,,,,,,,,,,,,,,,,,,,,,,8,strong,36.80001199,74.39999467,1,0,0,response1disk,4,157,9.600060415,10.39999372,1,0,0,rectangle,9.600060415,10.39999372,1,0,0,1,6,0,0.001685,9.600060415,10.39999372,1,0,0,0,156,156,88,1,,,,,,,,,,,,,,,,,,,,,
,,,,,,,,,,,,,,,,,,,,,,,,,,,,,,,,,,,,,,,,,,6009aa37bb4a7c0253712de4,6036f7d9990a45de29df2c31,2021-02-25_01h05.53.491,Colour_Similarity_Experiment,2020.2.10,Win32,60,6036d0d9a84aa1626184a6ef,16.99784983,16.69524155,16.98936378,16.67790629,16.66925355,16.75794129,,,,,,,,,,,,,,,,,,,,PF,strong,3,,,,,,,,7,0.69605,,,,,,,,,,,,,,,,,,,,,,,,,,,4,strong,28.80001187,76.79999471,1,0,0,response1disk,1,158,1.14441E-05,8.799993694,1,0,0,rectangle,1.14441E-05,8.799993694,1,0,0,1,3,0,0.00087,1.14441E-05,8.799993694,1,0,0,0,157,157,102,1,,,,,,,,,,,,,,,,,,,,,
,,,,,,,,,,,,,,,,,,,,,,,,,,,,,,,,,,,,,,,,,,6009aa37bb4a7c0253712de4,6036f7d9990a45de29df2c31,2021-02-25_01h05.53.491,Colour_Similarity_Experiment,2020.2.10,Win32,60,6036d0d9a84aa1626184a6ef,16.99784983,16.69524155,16.98936378,16.67790629,16.66925355,16.75794129,,,,,,,,,,,,,,,,,,,,PF,weak,3,,,,,,,,7,0.46703,,,,,,,,,,,,,,,,,,,,,,,,,,,6,weak,28.00001186,63.19997009,1,0,0,response1disk,2,159,7.200011551,-9.60000658,1,0,0,rectangle,7.200011551,-9.60000658,1,0,0,1,3,0,0.000155,7.200011551,-9.60000658,1,0,0,0,158,158,130,1,,,,,,,,,,,,,,,,,,,,,
,,,,,,,,,,,,,,,,,,,,,,,,,,,,,,,,,,,,,,,,,,6009aa37bb4a7c0253712de4,6036f7d9990a45de29df2c31,2021-02-25_01h05.53.491,Colour_Similarity_Experiment,2020.2.10,Win32,60,6036d0d9a84aa1626184a6ef,16.99784983,16.69524155,16.98936378,16.67790629,16.66925355,16.75794129,,,,,,,,,,,,,,,,,,,,PF,weak,3,,,,,,,,0,0.80012,,,,,,,,,,,,,,,,,,,,,,,,,,,5,weak,-32.79998904,78.39999473,1,0,0,response7disk,6,160,13.60006047,-8.000006557,1,0,0,rectangle,13.60006047,-8.000006557,1,0,0,1,1,0,0.000795,13.60006047,-8.000006557,1,0,0,0,159,159,103,1,,,,,,,,,,,,,,,,,,,,,
,,,,,,,,,,,,,,,,,,,,,,,,,,,,,,,,,,,,,,,,,,6009aa37bb4a7c0253712de4,6036f7d9990a45de29df2c31,2021-02-25_01h05.53.491,Colour_Similarity_Experiment,2020.2.10,Win32,60,6036d0d9a84aa1626184a6ef,16.99784983,16.69524155,16.98936378,16.67790629,16.66925355,16.75794129,,,,,,,,,,,,,,,,,,,,PF,strong,3,,,,,,,,0,0.71313,,,,,,,,,,,,,,,,,,,,,,,,,,,5,strong,-35.99998909,73.59999466,1,0,0,response7disk,5,161,1.14441E-05,6.399993658,1,0,0,rectangle,1.14441E-05,6.399993658,1,0,0,1,5,0,0.001265,1.14441E-05,6.399993658,1,0,0,0,160,160,19,1,,,,,,,,,,,,,,,,,,,,,
,,,,,,,,,,,,,,,,,,,,,,,,,,,,,,,,,,,,,,,,,,6009aa37bb4a7c0253712de4,6036f7d9990a45de29df2c31,2021-02-25_01h05.53.491,Colour_Similarity_Experiment,2020.2.10,Win32,60,6036d0d9a84aa1626184a6ef,16.99784983,16.69524155,16.98936378,16.67790629,16.66925355,16.75794129,,,,,,,,,,,,,,,,,,,,PF,strong,3,,,,,,,,0,0.746415,,,,,,,,,,,,,,,,,,,,,,,,,,,9,strong,-31.19998902,59.99999446,1,0,0,response7disk,2,162,-8.799988687,11.99999374,1,0,0,rectangle,84.0000127,28.79999399,1,0,0,6,6,1,2.08258,12.00001162,7.999993682,1,0,0,0,161,161,11,1,response1disk_3,rectangle,,,,,,,,,,,,,,,,,,,
,,,,,,,,,,,,,,,,,,,,,,,,,,,,,,,,,,,,,,,,,,6009aa37bb4a7c0253712de4,6036f7d9990a45de29df2c31,2021-02-25_01h05.53.491,Colour_Similarity_Experiment,2020.2.10,Win32,60,6036d0d9a84aa1626184a6ef,16.99784983,16.69524155,16.98936378,16.67790629,16.66925355,16.75794129,,,,,,,,,,,,,,,,,,,,,,,,,,,,,,,,,,,,,,,,,,,,,,,,,,,,,,,,,,,,,,,,,,,,,,,,,,,,,,,,,,,,,,,,,,,,,,,0,0,0,0,1,,,,,,,,,,,,,,
,,,,,,,,,,,,,,,,,,,,,,,,,,,,,,,,,,,,,,,,,,6009aa37bb4a7c0253712de4,6036f7d9990a45de29df2c31,2021-02-25_01h05.53.491,Colour_Similarity_Experiment,2020.2.10,Win32,60,6036d0d9a84aa1626184a6ef,16.99784983,16.69524155,16.98936378,16.67790629,16.66925355,16.75794129,,,,,,,,,,,,,,,,,,,,PF,weak,3,,,,,,,,0,1.246175,,,,,,,,,,,,,,,,,,,,,,,,,,,5,weak,-40.79998916,90.39999491,1,0,0,response7disk,3,163,-8.799988687,11.19999373,1,0,0,rectangle,-8.799988687,11.19999373,1,0,0,6,0,0,0.000745,-8.799988687,11.19999373,1,0,0,0,0,0,109,1,,,,,,,,,,,,,,,,,,,,,
,,,,,,,,,,,,,,,,,,,,,,,,,,,,,,,,,,,,,,,,,,6009aa37bb4a7c0253712de4,6036f7d9990a45de29df2c31,2021-02-25_01h05.53.491,Colour_Similarity_Experiment,2020.2.10,Win32,60,6036d0d9a84aa1626184a6ef,16.99784983,16.69524155,16.98936378,16.67790629,16.66925355,16.75794129,,,,,,,,,,,,,,,,,,,,PF,weak,3,,,,,,,,0,0.616785,,,,,,,,,,,,,,,,,,,,,,,,,,,4,weak,-38.3999403,61.59999448,1,0,0,response7disk,3,164,-5.599988639,-4.800006509,1,0,0,rectangle,-5.599988639,-4.800006509,1,0,0,6,6,0,0.00078,-5.599988639,-4.800006509,1,0,0,0,1,1,89,1,,,,,,,,,,,,,,,,,,,,,
,,,,,,,,,,,,,,,,,,,,,,,,,,,,,,,,,,,,,,,,,,6009aa37bb4a7c0253712de4,6036f7d9990a45de29df2c31,2021-02-25_01h05.53.491,Colour_Similarity_Experiment,2020.2.10,Win32,60,6036d0d9a84aa1626184a6ef,16.99784983,16.69524155,16.98936378,16.67790629,16.66925355,16.75794129,,,,,,,,,,,,,,,,,,,,PF,strong,3,,,,,,,,0,0.9464,,,,,,,,,,,,,,,,,,,,,,,,,,,5,strong,-38.3999403,83.19997039,1,0,0,response7disk,4,165,17.60006053,-13.60000664,1,0,0,rectangle,17.60006053,-13.60000664,1,0,0,6,5,0,0.00072,17.60006053,-13.60000664,1,0,0,0,2,2,8,1,,,,,,,,,,,,,,,,,,,,,
,,,,,,,,,,,,,,,,,,,,,,,,,,,,,,,,,,,,,,,,,,6009aa37bb4a7c0253712de4,6036f7d9990a45de29df2c31,2021-02-25_01h05.53.491,Colour_Similarity_Experiment,2020.2.10,Win32,60,6036d0d9a84aa1626184a6ef,16.99784983,16.69524155,16.98936378,16.67790629,16.66925355,16.75794129,,,,,,,,,,,,,,,,,,,,PF,weak,3,,,,,,,,7,0.596435,,,,,,,,,,,,,,,,,,,,,,,,,,,2,weak,49.60006101,72.79999465,1,0,0,response1disk,9,166,-7.999988675,6.399993658,1,0,0,rectangle,-7.999988675,6.399993658,1,0,0,6,4,0,0.00086,-7.999988675,6.399993658,1,0,0,0,3,3,39,1,,,,,,,,,,,,,,,,,,,,,
,,,,,,,,,,,,,,,,,,,,,,,,,,,,,,,,,,,,,,,,,,6009aa37bb4a7c0253712de4,6036f7d9990a45de29df2c31,2021-02-25_01h05.53.491,Colour_Similarity_Experiment,2020.2.10,Win32,60,6036d0d9a84aa1626184a6ef,16.99784983,16.69524155,16.98936378,16.67790629,16.66925355,16.75794129,,,,,,,,,,,,,,,,,,,,PF,strong,3,,,,,,,,7,1.06274,,,,,,,,,,,,,,,,,,,,,,,,,,,1,strong,42.40001208,84.79999483,1,0,0,response1disk,3,167,-3.999988616,-1.600006461,1,0,0,rectangle,-3.999988616,-1.600006461,1,0,0,6,4,0,0.000155,-3.999988616,-1.600006461,1,0,0,0,4,4,99,1,,,,,,,,,,,,,,,,,,,,,
