key_resp.keys,key_resp.rt,key_resp_16.keys,key_resp_16.rt,key_resp_2.keys,key_resp_2.rt,X Scale,ratio_pxpermm,screen_size_x,screen_size_y,testsize,key_resp_3.keys,key_resp_4.keys,key_resp_4.rt,line_size,key_resp_5.keys,key_resp_5.rt,key_resp_6.keys,key_resp_6.rt,key_resp_8.keys,key_resp_8.rt,key_resp_7.keys,key_resp_7.rt,key_resp_12.keys,key_resp_12.rt,key_resp_11.keys,key_resp_11.rt,key_resp_18.keys,key_resp_18.rt,key_resp_21.keys,key_resp_21.rt,key_resp_13.keys,key_resp_13.rt,key_resp_19.keys,key_resp_19.rt,ballposx,viewer_distance,trials.thisRepN,trials.thisTrialN,trials.thisN,trials.thisIndex,trials.ran,participant,session,date,expName,psychopyVersion,OS,frameRate,study_id,realFrameRate1,realFrameRate2,realFrameRate3,realFrameRate4,realFrameRate5,realFrameRate,viewerdistancecm,DVA_to_distance,radius_F,radius_P,r_F,R_P,key_resp_20.keys,key_resp_20.rt,key_resp_14.keys,key_resp_14.rt,key_resp_15.keys,key_resp_15.rt,key_resp_17.keys,key_resp_17.rt,key_resp_9.keys,key_resp_9.rt,key_resp_10.keys,key_resp_10.rt,Colour_1,Ecc,maskCon,mask_frames,mouse_5.x,mouse_5.y,mouse_5.leftButton,mouse_5.midButton,mouse_5.rightButton,mouse_5.clicked_name,Colour_2,similarity,response_time,mouse_10.x,mouse_10.y,mouse_10.leftButton,mouse_10.midButton,mouse_10.rightButton,mouse_10.clicked_name,mouse_7.x,mouse_7.y,mouse_7.leftButton,mouse_7.midButton,mouse_7.rightButton,mouse_7.clicked_name,catchprac,catchnumberprac,mouse_6.x,mouse_6.y,mouse_6.leftButton,mouse_6.midButton,mouse_6.rightButton,mouse_6.clicked_name,duringprac.thisRepN,duringprac.thisTrialN,duringprac.thisN,duringprac.thisIndex,duringprac.ran,key_resp_22.keys,key_resp_22.rt,Colour1,maskCon1,mouse.x,mouse.y,mouse.leftButton,mouse.midButton,mouse.rightButton,mouse.clicked_name,Colour2,trialnumber,mouse_2.x,mouse_2.y,mouse_2.leftButton,mouse_2.midButton,mouse_2.rightButton,mouse_2.clicked_name,mouse_3.x,mouse_3.y,mouse_3.leftButton,mouse_3.midButton,mouse_3.rightButton,catchresponse,catchnumber,response_time_catch,mouse_11.x,mouse_11.y,mouse_11.leftButton,mouse_11.midButton,mouse_11.rightButton,trials_2.thisRepN,trials_2.thisTrialN,trials_2.thisN,trials_2.thisIndex,trials_2.ran,Catch,mouse_3.clicked_name,mouse_11.clicked_name,trials_3.thisRepN,trials_3.thisTrialN,trials_3.thisN,trials_3.thisIndex,trials_3.ran,answer1,rt1,answer2,rt2,answer3,rt3,answer4,rt4,answer5,rt5,answer6,rt6,answer7,rt7
space,8.39055,space,41.514875,space,43.484085,39.8,3.98,343.2160804,192.9648241,1366,,space,32.25095,79.6,space,41.881795,space,45.97336,space,12.27755,space,17.22999,space,19.67023,space,30.775205,space,26.54843,space,58.417825,space,55.48417,return,10.286265,-754.032,1360.977669,0,0,0,0,1,5a06f0579b760100013a6d8c,6068482302d74db6f9917386,2021-04-03_12h50.11.800,Colour_Similarity_Experiment,2020.2.10,Win32,60,60674ec340277cd6a308bc9f,16.82922456,16.69180595,16.6902401,16.68154522,16.68656975,16.6902401,,,,,,,,,,,,,,,,,,,,,,,,,,,,,,,,,,,,,,,,,,,,,,,,,,,,,,,,,,,,,,,,,,,,,,,,,,,,,,,,,,,,,,,,,,,,,,,,,,,,,,,,,,,,,,,,,,
,,,,,,,,,,,,,,,,,,,,,,,,,,,,,,,,,return,4.078535,8.196,563.2617662,1,0,1,0,1,5a06f0579b760100013a6d8c,6068482302d74db6f9917386,2021-04-03_12h50.11.800,Colour_Similarity_Experiment,2020.2.10,Win32,60,60674ec340277cd6a308bc9f,16.82922456,16.69180595,16.6902401,16.68154522,16.68656975,16.6902401,,,,,,,,,,,,,,,,,,,,,,,,,,,,,,,,,,,,,,,,,,,,,,,,,,,,,,,,,,,,,,,,,,,,,,,,,,,,,,,,,,,,,,,,,,,,,,,,,,,,,,,,,,,,,,,,,,
,,,,,,,,,,,,,,,,,,,,,,,,,,,,,,,,,return,4.22615,-8.196,580.4169469,2,0,2,0,1,5a06f0579b760100013a6d8c,6068482302d74db6f9917386,2021-04-03_12h50.11.800,Colour_Similarity_Experiment,2020.2.10,Win32,60,60674ec340277cd6a308bc9f,16.82922456,16.69180595,16.6902401,16.68154522,16.68656975,16.6902401,,,,,,,,,,,,,,,,,,,,,,,,,,,,,,,,,,,,,,,,,,,,,,,,,,,,,,,,,,,,,,,,,,,,,,,,,,,,,,,,,,,,,,,,,,,,,,,,,,,,,,,,,,,,,,,,,,
,,,,,,,,,,,,,,,,,,,,,,,,,,,,,,,,,return,4.736305,-71.715,646.8932721,3,0,3,0,1,5a06f0579b760100013a6d8c,6068482302d74db6f9917386,2021-04-03_12h50.11.800,Colour_Similarity_Experiment,2020.2.10,Win32,60,60674ec340277cd6a308bc9f,16.82922456,16.69180595,16.6902401,16.68154522,16.68656975,16.6902401,,,,,,,,,,,,,,,,,,,,,,,,,,,,,,,,,,,,,,,,,,,,,,,,,,,,,,,,,,,,,,,,,,,,,,,,,,,,,,,,,,,,,,,,,,,,,,,,,,,,,,,,,,,,,,,,,,
,,,,,,,,,,,,,,,,,,,,,,,,,,,,,,,,,return,4.30537,-18.441,591.1389348,4,0,4,0,1,5a06f0579b760100013a6d8c,6068482302d74db6f9917386,2021-04-03_12h50.11.800,Colour_Similarity_Experiment,2020.2.10,Win32,60,60674ec340277cd6a308bc9f,16.82922456,16.69180595,16.6902401,16.68154522,16.68656975,16.6902401,,,,,,,,,,,,,,,,,,,,,,,,,,,,,,,,,,,,,,,,,,,,,,,,,,,,,,,,,,,,,,,,,,,,,,,,,,,,,,,,,,,,,,,,,,,,,,,,,,,,,,,,,,,,,,,,,,
,,,,,,,,,,,,,,,,,,,,,,,,,,,,,,,,,,,,,,,,,,5a06f0579b760100013a6d8c,6068482302d74db6f9917386,2021-04-03_12h50.11.800,Colour_Similarity_Experiment,2020.2.10,Win32,60,60674ec340277cd6a308bc9f,16.82922456,16.69180595,16.6902401,16.68154522,16.68656975,16.6902401,58,10.12393404,60.4398862,402.9325747,40.29325747,181.3196586,space,14.175875,space,41.679505,space,73.265715,space,13.29159,space,7.324725,space,18.132245,6,PF,strong,3,37,89,1,0,0,response1disk_5,6,7,29.47036,0,0,1,0,0,rectangle_8,81,-36,1,0,0,response3disk_7,5,5,-1,2,1,0,0,rectangle_4,0,0,0,3,1,,,,,,,,,,,,,,,,,,,,,,,,,,,,,,,,,,,,,,,,,,,,,,,,,,,,,,,,,,
,,,,,,,,,,,,,,,,,,,,,,,,,,,,,,,,,,,,,,,,,,5a06f0579b760100013a6d8c,6068482302d74db6f9917386,2021-04-03_12h50.11.800,Colour_Similarity_Experiment,2020.2.10,Win32,60,60674ec340277cd6a308bc9f,16.82922456,16.69180595,16.6902401,16.68154522,16.68656975,16.6902401,,,,,,,,,,,,,,,,,,,5,PF,weak,3,-38,99,1,0,0,response7disk_5,3,0,7.90418,-2,-2,1,0,0,rectangle_8,-2,-2,1,0,0,,,5,-2,-2,1,0,0,,0,1,1,6,1,,,,,,,,,,,,,,,,,,,,,,,,,,,,,,,,,,,,,,,,,,,,,,,,,,,,,,,,,,
,,,,,,,,,,,,,,,,,,,,,,,,,,,,,,,,,,,,,,,,,,5a06f0579b760100013a6d8c,6068482302d74db6f9917386,2021-04-03_12h50.11.800,Colour_Similarity_Experiment,2020.2.10,Win32,60,60674ec340277cd6a308bc9f,16.82922456,16.69180595,16.6902401,16.68154522,16.68656975,16.6902401,,,,,,,,,,,,,,,,,,,2,PF,weak,3,96,35,1,0,0,response1disk_5,5,6,6.907345,-2,-1,1,0,0,rectangle_8,-2,-1,1,0,0,,,5,-2,-1,1,0,0,,0,2,2,4,1,,,,,,,,,,,,,,,,,,,,,,,,,,,,,,,,,,,,,,,,,,,,,,,,,,,,,,,,,,
,,,,,,,,,,,,,,,,,,,,,,,,,,,,,,,,,,,,,,,,,,5a06f0579b760100013a6d8c,6068482302d74db6f9917386,2021-04-03_12h50.11.800,Colour_Similarity_Experiment,2020.2.10,Win32,60,60674ec340277cd6a308bc9f,16.82922456,16.69180595,16.6902401,16.68154522,16.68656975,16.6902401,,,,,,,,,,,,,,,,,,,4,PF,weak,3,-42,-64,1,0,0,response5disk_5,5,3,4.956705,2,3,1,0,0,rectangle_8,2,3,1,0,0,,,5,2,3,1,0,0,,0,3,3,1,1,,,,,,,,,,,,,,,,,,,,,,,,,,,,,,,,,,,,,,,,,,,,,,,,,,,,,,,,,,
,,,,,,,,,,,,,,,,,,,,,,,,,,,,,,,,,,,,,,,,,,5a06f0579b760100013a6d8c,6068482302d74db6f9917386,2021-04-03_12h50.11.800,Colour_Similarity_Experiment,2020.2.10,Win32,60,60674ec340277cd6a308bc9f,16.82922456,16.69180595,16.6902401,16.68154522,16.68656975,16.6902401,,,,,,,,,,,,,,,,,,,7,PF,strong,3,43,-73,1,0,0,response3disk_5,9,4,2.203795,2,3,1,0,0,rectangle_8,83,-34,1,0,0,response3disk_7,5,5,-2,2,1,0,0,rectangle_4,0,4,4,0,1,,,,,,,,,,,,,,,,,,,,,,,,,,,,,,,,,,,,,,,,,,,,,,,,,,,,,,,,,,
,,,,,,,,,,,,,,,,,,,,,,,,,,,,,,,,,,,,,,,,,,5a06f0579b760100013a6d8c,6068482302d74db6f9917386,2021-04-03_12h50.11.800,Colour_Similarity_Experiment,2020.2.10,Win32,60,60674ec340277cd6a308bc9f,16.82922456,16.69180595,16.6902401,16.68154522,16.68656975,16.6902401,,,,,,,,,,,,,,,,,,,1,PF,weak,3,83,-34,1,0,0,response3disk_5,2,5,4.07362,-4,1,1,0,0,rectangle_8,-4,1,1,0,0,,,5,-4,1,1,0,0,,0,5,5,5,1,,,,,,,,,,,,,,,,,,,,,,,,,,,,,,,,,,,,,,,,,,,,,,,,,,,,,,,,,,
,,,,,,,,,,,,,,,,,,,,,,,,,,,,,,,,,,,,,,,,,,5a06f0579b760100013a6d8c,6068482302d74db6f9917386,2021-04-03_12h50.11.800,Colour_Similarity_Experiment,2020.2.10,Win32,60,60674ec340277cd6a308bc9f,16.82922456,16.69180595,16.6902401,16.68154522,16.68656975,16.6902401,,,,,,,,,,,,,,,,,,,3,PF,strong,3,80,-35,1,0,0,response3disk_5,2,5,3.086335,-7,2,1,0,0,rectangle_8,-7,2,1,0,0,,,5,-7,2,1,0,0,,0,6,6,2,1,,,,,,,,,,,,,,,,,,,,,,,,,,,,,,,,,,,,,,,,,,,,,,,,,,,,,,,,,,
,,,,,,,,,,,,,,,,,,,,,,,,,,,,,,,,,,,,,,,,,,5a06f0579b760100013a6d8c,6068482302d74db6f9917386,2021-04-03_12h50.11.800,Colour_Similarity_Experiment,2020.2.10,Win32,60,60674ec340277cd6a308bc9f,16.82922456,16.69180595,16.6902401,16.68154522,16.68656975,16.6902401,,,,,,,,,,,,,,,,,,,,PF,strong,3,,,,,,,,5,4.02052,,,,,,,,,,,,,,,,,,,,,,,,,,space,9.616055,6,strong,73,-34,1,0,0,response3disk,4,1,5,3,1,0,0,rectangle,5,3,1,0,0,,7,0.00455,5,3,1,0,0,0,0,0,56,1,0,,,,,,,,,,,,,,,,,,,,,
,,,,,,,,,,,,,,,,,,,,,,,,,,,,,,,,,,,,,,,,,,5a06f0579b760100013a6d8c,6068482302d74db6f9917386,2021-04-03_12h50.11.800,Colour_Similarity_Experiment,2020.2.10,Win32,60,60674ec340277cd6a308bc9f,16.82922456,16.69180595,16.6902401,16.68154522,16.68656975,16.6902401,,,,,,,,,,,,,,,,,,,,PF,weak,3,,,,,,,,7,1.98176,,,,,,,,,,,,,,,,,,,,,,,,,,,,1,weak,45,101,1,0,0,response1disk,7,2,0,-2,1,0,0,rectangle,0,-2,1,0,0,,3,0.00286,0,-2,1,0,0,0,1,1,150,1,0,,,,,,,,,,,,,,,,,,,,,
,,,,,,,,,,,,,,,,,,,,,,,,,,,,,,,,,,,,,,,,,,5a06f0579b760100013a6d8c,6068482302d74db6f9917386,2021-04-03_12h50.11.800,Colour_Similarity_Experiment,2020.2.10,Win32,60,60674ec340277cd6a308bc9f,16.82922456,16.69180595,16.6902401,16.68154522,16.68656975,16.6902401,,,,,,,,,,,,,,,,,,,,PF,weak,3,,,,,,,,3,1.251525,,,,,,,,,,,,,,,,,,,,,,,,,,,,5,weak,-36,-70,1,0,0,response5disk,5,3,0,1,1,0,0,rectangle,0,1,1,0,0,,5,0.00367,0,1,1,0,0,0,2,2,94,1,0,,,,,,,,,,,,,,,,,,,,,
,,,,,,,,,,,,,,,,,,,,,,,,,,,,,,,,,,,,,,,,,,5a06f0579b760100013a6d8c,6068482302d74db6f9917386,2021-04-03_12h50.11.800,Colour_Similarity_Experiment,2020.2.10,Win32,60,60674ec340277cd6a308bc9f,16.82922456,16.69180595,16.6902401,16.68154522,16.68656975,16.6902401,,,,,,,,,,,,,,,,,,,,PF,strong,3,,,,,,,,6,1.946895,,,,,,,,,,,,,,,,,,,,,,,,,,,,3,strong,82,40,1,0,0,response1disk,6,4,3,2,1,0,0,rectangle,3,2,1,0,0,,0,0.002645,3,2,1,0,0,0,3,3,95,1,0,,,,,,,,,,,,,,,,,,,,,
,,,,,,,,,,,,,,,,,,,,,,,,,,,,,,,,,,,,,,,,,,5a06f0579b760100013a6d8c,6068482302d74db6f9917386,2021-04-03_12h50.11.800,Colour_Similarity_Experiment,2020.2.10,Win32,60,60674ec340277cd6a308bc9f,16.82922456,16.69180595,16.6902401,16.68154522,16.68656975,16.6902401,,,,,,,,,,,,,,,,,,,,PF,strong,3,,,,,,,,5,2.1042,,,,,,,,,,,,,,,,,,,,,,,,,,,,7,strong,85,-35,1,0,0,response3disk,4,5,2,2,1,0,0,rectangle,2,2,1,0,0,,4,0.003335,2,2,1,0,0,0,4,4,158,1,0,,,,,,,,,,,,,,,,,,,,,
,,,,,,,,,,,,,,,,,,,,,,,,,,,,,,,,,,,,,,,,,,5a06f0579b760100013a6d8c,6068482302d74db6f9917386,2021-04-03_12h50.11.800,Colour_Similarity_Experiment,2020.2.10,Win32,60,60674ec340277cd6a308bc9f,16.82922456,16.69180595,16.6902401,16.68154522,16.68656975,16.6902401,,,,,,,,,,,,,,,,,,,,PF,strong,3,,,,,,,,4,3.621,,,,,,,,,,,,,,,,,,,,,,,,,,,,6,strong,40,-86,1,0,0,response3disk,1,6,0,3,1,0,0,rectangle,0,3,1,0,0,,4,0.00074,0,3,1,0,0,0,5,5,5,1,0,,,,,,,,,,,,,,,,,,,,,
,,,,,,,,,,,,,,,,,,,,,,,,,,,,,,,,,,,,,,,,,,5a06f0579b760100013a6d8c,6068482302d74db6f9917386,2021-04-03_12h50.11.800,Colour_Similarity_Experiment,2020.2.10,Win32,60,60674ec340277cd6a308bc9f,16.82922456,16.69180595,16.6902401,16.68154522,16.68656975,16.6902401,,,,,,,,,,,,,,,,,,,,PF,strong,3,,,,,,,,2,2.77104,,,,,,,,,,,,,,,,,,,,,,,,,,,,3,strong,-84,-29,1,0,0,response5disk,4,7,1,-1,1,0,0,rectangle,1,-1,1,0,0,,4,0.00034,1,-1,1,0,0,0,6,6,110,1,0,,,,,,,,,,,,,,,,,,,,,
,,,,,,,,,,,,,,,,,,,,,,,,,,,,,,,,,,,,,,,,,,5a06f0579b760100013a6d8c,6068482302d74db6f9917386,2021-04-03_12h50.11.800,Colour_Similarity_Experiment,2020.2.10,Win32,60,60674ec340277cd6a308bc9f,16.82922456,16.69180595,16.6902401,16.68154522,16.68656975,16.6902401,,,,,,,,,,,,,,,,,,,,PF,strong,3,,,,,,,,6,1.780365,,,,,,,,,,,,,,,,,,,,,,,,,,,,5,strong,92,47,1,0,0,response1disk,9,8,-6,4,1,0,0,rectangle,-6,4,1,0,0,,2,0.00182,-6,4,1,0,0,0,7,7,61,1,0,,,,,,,,,,,,,,,,,,,,,
,,,,,,,,,,,,,,,,,,,,,,,,,,,,,,,,,,,,,,,,,,5a06f0579b760100013a6d8c,6068482302d74db6f9917386,2021-04-03_12h50.11.800,Colour_Similarity_Experiment,2020.2.10,Win32,60,60674ec340277cd6a308bc9f,16.82922456,16.69180595,16.6902401,16.68154522,16.68656975,16.6902401,,,,,,,,,,,,,,,,,,,,PF,strong,3,,,,,,,,7,1.936795,,,,,,,,,,,,,,,,,,,,,,,,,,,,9,strong,53,90,1,0,0,response1disk,7,9,6,-1,1,0,0,rectangle,6,-1,1,0,0,,2,0.00075,6,-1,1,0,0,0,8,8,100,1,0,,,,,,,,,,,,,,,,,,,,,
,,,,,,,,,,,,,,,,,,,,,,,,,,,,,,,,,,,,,,,,,,5a06f0579b760100013a6d8c,6068482302d74db6f9917386,2021-04-03_12h50.11.800,Colour_Similarity_Experiment,2020.2.10,Win32,60,60674ec340277cd6a308bc9f,16.82922456,16.69180595,16.6902401,16.68154522,16.68656975,16.6902401,,,,,,,,,,,,,,,,,,,,PF,strong,3,,,,,,,,4,3.838645,,,,,,,,,,,,,,,,,,,,,,,,,,,,5,strong,34,-86,1,0,0,response3disk,3,10,1,1,1,0,0,rectangle,1,1,1,0,0,,4,0.00356,1,1,1,0,0,0,9,9,25,1,0,,,,,,,,,,,,,,,,,,,,,
,,,,,,,,,,,,,,,,,,,,,,,,,,,,,,,,,,,,,,,,,,5a06f0579b760100013a6d8c,6068482302d74db6f9917386,2021-04-03_12h50.11.800,Colour_Similarity_Experiment,2020.2.10,Win32,60,60674ec340277cd6a308bc9f,16.82922456,16.69180595,16.6902401,16.68154522,16.68656975,16.6902401,,,,,,,,,,,,,,,,,,,,PF,weak,3,,,,,,,,7,1.168905,,,,,,,,,,,,,,,,,,,,,,,,,,,,8,weak,37,94,1,0,0,response1disk,1,11,4,-3,1,0,0,rectangle,4,-3,1,0,0,,0,0.003865,4,-3,1,0,0,0,10,10,57,1,0,,,,,,,,,,,,,,,,,,,,,
,,,,,,,,,,,,,,,,,,,,,,,,,,,,,,,,,,,,,,,,,,5a06f0579b760100013a6d8c,6068482302d74db6f9917386,2021-04-03_12h50.11.800,Colour_Similarity_Experiment,2020.2.10,Win32,60,60674ec340277cd6a308bc9f,16.82922456,16.69180595,16.6902401,16.68154522,16.68656975,16.6902401,,,,,,,,,,,,,,,,,,,,PF,strong,3,,,,,,,,7,1.740815,,,,,,,,,,,,,,,,,,,,,,,,,,,,8,strong,44,101,1,0,0,response1disk,7,12,3,9,1,0,0,rectangle,3,9,1,0,0,,4,0.00356,3,9,1,0,0,0,11,11,86,1,0,,,,,,,,,,,,,,,,,,,,,
,,,,,,,,,,,,,,,,,,,,,,,,,,,,,,,,,,,,,,,,,,5a06f0579b760100013a6d8c,6068482302d74db6f9917386,2021-04-03_12h50.11.800,Colour_Similarity_Experiment,2020.2.10,Win32,60,60674ec340277cd6a308bc9f,16.82922456,16.69180595,16.6902401,16.68154522,16.68656975,16.6902401,,,,,,,,,,,,,,,,,,,,PF,weak,3,,,,,,,,7,1.283805,,,,,,,,,,,,,,,,,,,,,,,,,,,,7,weak,39,115,1,0,0,response1disk,1,13,-1,-3,1,0,0,rectangle,-1,-3,1,0,0,,5,0.00413,-1,-3,1,0,0,0,12,12,53,1,0,,,,,,,,,,,,,,,,,,,,,
,,,,,,,,,,,,,,,,,,,,,,,,,,,,,,,,,,,,,,,,,,5a06f0579b760100013a6d8c,6068482302d74db6f9917386,2021-04-03_12h50.11.800,Colour_Similarity_Experiment,2020.2.10,Win32,60,60674ec340277cd6a308bc9f,16.82922456,16.69180595,16.6902401,16.68154522,16.68656975,16.6902401,,,,,,,,,,,,,,,,,,,,PF,strong,3,,,,,,,,3,2.48478,,,,,,,,,,,,,,,,,,,,,,,,,,,,2,strong,-37,-95,1,0,0,response5disk,5,14,-1,4,1,0,0,rectangle,-1,4,1,0,0,,1,0.00384,-1,4,1,0,0,0,13,13,80,1,0,,,,,,,,,,,,,,,,,,,,,
,,,,,,,,,,,,,,,,,,,,,,,,,,,,,,,,,,,,,,,,,,5a06f0579b760100013a6d8c,6068482302d74db6f9917386,2021-04-03_12h50.11.800,Colour_Similarity_Experiment,2020.2.10,Win32,60,60674ec340277cd6a308bc9f,16.82922456,16.69180595,16.6902401,16.68154522,16.68656975,16.6902401,,,,,,,,,,,,,,,,,,,,PF,weak,3,,,,,,,,3,1.83578,,,,,,,,,,,,,,,,,,,,,,,,,,,,2,weak,-44,-84,1,0,0,response5disk,1,15,-1,0,1,0,0,rectangle,-1,0,1,0,0,,1,0.000475,-1,0,1,0,0,0,14,14,9,1,0,,,,,,,,,,,,,,,,,,,,,
,,,,,,,,,,,,,,,,,,,,,,,,,,,,,,,,,,,,,,,,,,5a06f0579b760100013a6d8c,6068482302d74db6f9917386,2021-04-03_12h50.11.800,Colour_Similarity_Experiment,2020.2.10,Win32,60,60674ec340277cd6a308bc9f,16.82922456,16.69180595,16.6902401,16.68154522,16.68656975,16.6902401,,,,,,,,,,,,,,,,,,,,PF,weak,3,,,,,,,,2,1.51799,,,,,,,,,,,,,,,,,,,,,,,,,,,,6,weak,-83,-35,1,0,0,response5disk,7,16,-1,0,1,0,0,rectangle,-1,0,1,0,0,,1,0.000755,-1,0,1,0,0,0,15,15,50,1,0,,,,,,,,,,,,,,,,,,,,,
,,,,,,,,,,,,,,,,,,,,,,,,,,,,,,,,,,,,,,,,,,5a06f0579b760100013a6d8c,6068482302d74db6f9917386,2021-04-03_12h50.11.800,Colour_Similarity_Experiment,2020.2.10,Win32,60,60674ec340277cd6a308bc9f,16.82922456,16.69180595,16.6902401,16.68154522,16.68656975,16.6902401,,,,,,,,,,,,,,,,,,,,PF,weak,3,,,,,,,,1,1.334955,,,,,,,,,,,,,,,,,,,,,,,,,,,,1,weak,-82,39,1,0,0,response7disk,1,17,-6,-2,1,0,0,rectangle,95,34,1,0,0,6,6,13.967955,-2,0,1,0,0,0,16,16,76,1,1,response1disk_3,rectangle,,,,,,,,,,,,,,,,,,,
,,,,,,,,,,,,,,,,,,,,,,,,,,,,,,,,,,,,,,,,,,5a06f0579b760100013a6d8c,6068482302d74db6f9917386,2021-04-03_12h50.11.800,Colour_Similarity_Experiment,2020.2.10,Win32,60,60674ec340277cd6a308bc9f,16.82922456,16.69180595,16.6902401,16.68154522,16.68656975,16.6902401,,,,,,,,,,,,,,,,,,,,PF,weak,3,,,,,,,,7,1.318055,,,,,,,,,,,,,,,,,,,,,,,,,,,,9,weak,35,98,1,0,0,response1disk,7,18,0,5,1,0,0,rectangle,0,5,1,0,0,6,1,0.00383,0,5,1,0,0,0,17,17,121,1,0,,,,,,,,,,,,,,,,,,,,,
,,,,,,,,,,,,,,,,,,,,,,,,,,,,,,,,,,,,,,,,,,5a06f0579b760100013a6d8c,6068482302d74db6f9917386,2021-04-03_12h50.11.800,Colour_Similarity_Experiment,2020.2.10,Win32,60,60674ec340277cd6a308bc9f,16.82922456,16.69180595,16.6902401,16.68154522,16.68656975,16.6902401,,,,,,,,,,,,,,,,,,,,PF,weak,3,,,,,,,,2,7.87699,,,,,,,,,,,,,,,,,,,,,,,,,,,,4,weak,-85,-32,1,0,0,response5disk,3,19,5,1,1,0,0,rectangle,5,1,1,0,0,6,1,0.001025,5,1,1,0,0,0,18,18,89,1,0,,,,,,,,,,,,,,,,,,,,,
,,,,,,,,,,,,,,,,,,,,,,,,,,,,,,,,,,,,,,,,,,5a06f0579b760100013a6d8c,6068482302d74db6f9917386,2021-04-03_12h50.11.800,Colour_Similarity_Experiment,2020.2.10,Win32,60,60674ec340277cd6a308bc9f,16.82922456,16.69180595,16.6902401,16.68154522,16.68656975,16.6902401,,,,,,,,,,,,,,,,,,,,PF,strong,3,,,,,,,,5,2.248705,,,,,,,,,,,,,,,,,,,,,,,,,,,,5,strong,86,-34,1,0,0,response3disk,6,20,-5,0,1,0,0,rectangle,-5,0,1,0,0,6,6,0.002355,-5,0,1,0,0,0,19,19,12,1,0,,,,,,,,,,,,,,,,,,,,,
,,,,,,,,,,,,,,,,,,,,,,,,,,,,,,,,,,,,,,,,,,5a06f0579b760100013a6d8c,6068482302d74db6f9917386,2021-04-03_12h50.11.800,Colour_Similarity_Experiment,2020.2.10,Win32,60,60674ec340277cd6a308bc9f,16.82922456,16.69180595,16.6902401,16.68154522,16.68656975,16.6902401,,,,,,,,,,,,,,,,,,,,PF,strong,3,,,,,,,,5,2.60245,,,,,,,,,,,,,,,,,,,,,,,,,,,,2,strong,79,-32,1,0,0,response3disk,6,21,3,-1,1,0,0,rectangle,3,-1,1,0,0,6,3,0.00358,3,-1,1,0,0,0,20,20,40,1,0,,,,,,,,,,,,,,,,,,,,,
,,,,,,,,,,,,,,,,,,,,,,,,,,,,,,,,,,,,,,,,,,5a06f0579b760100013a6d8c,6068482302d74db6f9917386,2021-04-03_12h50.11.800,Colour_Similarity_Experiment,2020.2.10,Win32,60,60674ec340277cd6a308bc9f,16.82922456,16.69180595,16.6902401,16.68154522,16.68656975,16.6902401,,,,,,,,,,,,,,,,,,,,PF,strong,3,,,,,,,,4,4.032655,,,,,,,,,,,,,,,,,,,,,,,,,,,,9,strong,41,-95,1,0,0,response3disk,4,22,0,3,1,0,0,rectangle,0,3,1,0,0,6,3,0.00044,0,3,1,0,0,0,21,21,60,1,0,,,,,,,,,,,,,,,,,,,,,
,,,,,,,,,,,,,,,,,,,,,,,,,,,,,,,,,,,,,,,,,,5a06f0579b760100013a6d8c,6068482302d74db6f9917386,2021-04-03_12h50.11.800,Colour_Similarity_Experiment,2020.2.10,Win32,60,60674ec340277cd6a308bc9f,16.82922456,16.69180595,16.6902401,16.68154522,16.68656975,16.6902401,,,,,,,,,,,,,,,,,,,,PF,strong,3,,,,,,,,4,2.152285,,,,,,,,,,,,,,,,,,,,,,,,,,,,6,strong,39,-96,1,0,0,response3disk,9,23,-1,2,1,0,0,rectangle,-87,36,1,0,0,1,1,2.96936,-5,6,1,0,0,0,22,22,160,1,1,response7disk_3,rectangle,,,,,,,,,,,,,,,,,,,
,,,,,,,,,,,,,,,,,,,,,,,,,,,,,,,,,,,,,,,,,,5a06f0579b760100013a6d8c,6068482302d74db6f9917386,2021-04-03_12h50.11.800,Colour_Similarity_Experiment,2020.2.10,Win32,60,60674ec340277cd6a308bc9f,16.82922456,16.69180595,16.6902401,16.68154522,16.68656975,16.6902401,,,,,,,,,,,,,,,,,,,,PF,strong,3,,,,,,,,7,3.18884,,,,,,,,,,,,,,,,,,,,,,,,,,,,3,strong,40,100,1,0,0,response1disk,9,24,-3,4,1,0,0,rectangle,-3,4,1,0,0,1,0,0.00354,-3,4,1,0,0,0,23,23,143,1,0,,,,,,,,,,,,,,,,,,,,,
,,,,,,,,,,,,,,,,,,,,,,,,,,,,,,,,,,,,,,,,,,5a06f0579b760100013a6d8c,6068482302d74db6f9917386,2021-04-03_12h50.11.800,Colour_Similarity_Experiment,2020.2.10,Win32,60,60674ec340277cd6a308bc9f,16.82922456,16.69180595,16.6902401,16.68154522,16.68656975,16.6902401,,,,,,,,,,,,,,,,,,,,PF,weak,3,,,,,,,,3,2.71984,,,,,,,,,,,,,,,,,,,,,,,,,,,,3,weak,-43,-94,1,0,0,response5disk,5,25,-1,3,1,0,0,rectangle,-1,3,1,0,0,1,0,0.000545,-1,3,1,0,0,0,24,24,66,1,0,,,,,,,,,,,,,,,,,,,,,
,,,,,,,,,,,,,,,,,,,,,,,,,,,,,,,,,,,,,,,,,,5a06f0579b760100013a6d8c,6068482302d74db6f9917386,2021-04-03_12h50.11.800,Colour_Similarity_Experiment,2020.2.10,Win32,60,60674ec340277cd6a308bc9f,16.82922456,16.69180595,16.6902401,16.68154522,16.68656975,16.6902401,,,,,,,,,,,,,,,,,,,,PF,weak,3,,,,,,,,7,1.73692,,,,,,,,,,,,,,,,,,,,,,,,,,,,6,weak,31,108,1,0,0,response1disk,5,26,0,-2,1,0,0,rectangle,0,-2,1,0,0,1,5,0.00355,0,-2,1,0,0,0,25,25,59,1,0,,,,,,,,,,,,,,,,,,,,,
,,,,,,,,,,,,,,,,,,,,,,,,,,,,,,,,,,,,,,,,,,5a06f0579b760100013a6d8c,6068482302d74db6f9917386,2021-04-03_12h50.11.800,Colour_Similarity_Experiment,2020.2.10,Win32,60,60674ec340277cd6a308bc9f,16.82922456,16.69180595,16.6902401,16.68154522,16.68656975,16.6902401,,,,,,,,,,,,,,,,,,,,PF,strong,3,,,,,,,,6,2.136015,,,,,,,,,,,,,,,,,,,,,,,,,,,,8,strong,101,39,1,0,0,response1disk,9,27,-1,2,1,0,0,rectangle,-1,2,1,0,0,1,7,0.002835,-1,2,1,0,0,0,26,26,105,1,0,,,,,,,,,,,,,,,,,,,,,
,,,,,,,,,,,,,,,,,,,,,,,,,,,,,,,,,,,,,,,,,,5a06f0579b760100013a6d8c,6068482302d74db6f9917386,2021-04-03_12h50.11.800,Colour_Similarity_Experiment,2020.2.10,Win32,60,60674ec340277cd6a308bc9f,16.82922456,16.69180595,16.6902401,16.68154522,16.68656975,16.6902401,,,,,,,,,,,,,,,,,,,,PF,strong,3,,,,,,,,7,1.519465,,,,,,,,,,,,,,,,,,,,,,,,,,,,7,strong,36,109,1,0,0,response1disk,2,28,-2,0,1,0,0,rectangle,-2,0,1,0,0,1,5,0.003865,-2,0,1,0,0,0,27,27,138,1,0,,,,,,,,,,,,,,,,,,,,,
,,,,,,,,,,,,,,,,,,,,,,,,,,,,,,,,,,,,,,,,,,5a06f0579b760100013a6d8c,6068482302d74db6f9917386,2021-04-03_12h50.11.800,Colour_Similarity_Experiment,2020.2.10,Win32,60,60674ec340277cd6a308bc9f,16.82922456,16.69180595,16.6902401,16.68154522,16.68656975,16.6902401,,,,,,,,,,,,,,,,,,,,PF,weak,3,,,,,,,,7,4.424905,,,,,,,,,,,,,,,,,,,,,,,,,,,,7,weak,36,102,1,0,0,response1disk,3,29,-1,1,1,0,0,rectangle,-1,1,1,0,0,1,1,0.00222,-1,1,1,0,0,0,28,28,81,1,0,,,,,,,,,,,,,,,,,,,,,
,,,,,,,,,,,,,,,,,,,,,,,,,,,,,,,,,,,,,,,,,,5a06f0579b760100013a6d8c,6068482302d74db6f9917386,2021-04-03_12h50.11.800,Colour_Similarity_Experiment,2020.2.10,Win32,60,60674ec340277cd6a308bc9f,16.82922456,16.69180595,16.6902401,16.68154522,16.68656975,16.6902401,,,,,,,,,,,,,,,,,,,,PF,weak,3,,,,,,,,1,1.302325,,,,,,,,,,,,,,,,,,,,,,,,,,,,7,weak,-93,35,1,0,0,response7disk,7,30,-1,0,1,0,0,rectangle,-1,0,1,0,0,1,1,0.001285,-1,0,1,0,0,0,29,29,51,1,0,,,,,,,,,,,,,,,,,,,,,
,,,,,,,,,,,,,,,,,,,,,,,,,,,,,,,,,,,,,,,,,,5a06f0579b760100013a6d8c,6068482302d74db6f9917386,2021-04-03_12h50.11.800,Colour_Similarity_Experiment,2020.2.10,Win32,60,60674ec340277cd6a308bc9f,16.82922456,16.69180595,16.6902401,16.68154522,16.68656975,16.6902401,,,,,,,,,,,,,,,,,,,,PF,strong,3,,,,,,,,7,1.28572,,,,,,,,,,,,,,,,,,,,,,,,,,,,8,strong,31,103,1,0,0,response1disk,2,31,-4,7,1,0,0,rectangle,-4,7,1,0,0,1,6,0.00345,-4,7,1,0,0,0,30,30,22,1,0,,,,,,,,,,,,,,,,,,,,,
,,,,,,,,,,,,,,,,,,,,,,,,,,,,,,,,,,,,,,,,,,5a06f0579b760100013a6d8c,6068482302d74db6f9917386,2021-04-03_12h50.11.800,Colour_Similarity_Experiment,2020.2.10,Win32,60,60674ec340277cd6a308bc9f,16.82922456,16.69180595,16.6902401,16.68154522,16.68656975,16.6902401,,,,,,,,,,,,,,,,,,,,PF,weak,3,,,,,,,,7,1.05207,,,,,,,,,,,,,,,,,,,,,,,,,,,,1,weak,34,100,1,0,0,response1disk,3,32,4,4,1,0,0,rectangle,4,4,1,0,0,1,1,0.00358,4,4,1,0,0,0,31,31,1,1,0,,,,,,,,,,,,,,,,,,,,,
,,,,,,,,,,,,,,,,,,,,,,,,,,,,,,,,,,,,,,,,,,5a06f0579b760100013a6d8c,6068482302d74db6f9917386,2021-04-03_12h50.11.800,Colour_Similarity_Experiment,2020.2.10,Win32,60,60674ec340277cd6a308bc9f,16.82922456,16.69180595,16.6902401,16.68154522,16.68656975,16.6902401,,,,,,,,,,,,,,,,,,,,PF,strong,3,,,,,,,,6,2.029705,,,,,,,,,,,,,,,,,,,,,,,,,,,,5,strong,97,42,1,0,0,response1disk,1,33,-5,3,1,0,0,rectangle,-5,3,1,0,0,1,1,0.00149,-5,3,1,0,0,0,32,32,131,1,0,,,,,,,,,,,,,,,,,,,,,
,,,,,,,,,,,,,,,,,,,,,,,,,,,,,,,,,,,,,,,,,,5a06f0579b760100013a6d8c,6068482302d74db6f9917386,2021-04-03_12h50.11.800,Colour_Similarity_Experiment,2020.2.10,Win32,60,60674ec340277cd6a308bc9f,16.82922456,16.69180595,16.6902401,16.68154522,16.68656975,16.6902401,,,,,,,,,,,,,,,,,,,,PF,weak,3,,,,,,,,2,2.6546,,,,,,,,,,,,,,,,,,,,,,,,,,,,9,weak,-90,-32,1,0,0,response5disk,4,34,4,3,1,0,0,rectangle,4,3,1,0,0,1,6,0.004045,4,3,1,0,0,0,33,33,114,1,0,,,,,,,,,,,,,,,,,,,,,
,,,,,,,,,,,,,,,,,,,,,,,,,,,,,,,,,,,,,,,,,,5a06f0579b760100013a6d8c,6068482302d74db6f9917386,2021-04-03_12h50.11.800,Colour_Similarity_Experiment,2020.2.10,Win32,60,60674ec340277cd6a308bc9f,16.82922456,16.69180595,16.6902401,16.68154522,16.68656975,16.6902401,,,,,,,,,,,,,,,,,,,,PF,weak,3,,,,,,,,7,1.31323,,,,,,,,,,,,,,,,,,,,,,,,,,,,9,weak,39,101,1,0,0,response1disk,6,35,-2,3,1,0,0,rectangle,-2,3,1,0,0,1,4,0.002995,-2,3,1,0,0,0,34,34,148,1,0,,,,,,,,,,,,,,,,,,,,,
,,,,,,,,,,,,,,,,,,,,,,,,,,,,,,,,,,,,,,,,,,5a06f0579b760100013a6d8c,6068482302d74db6f9917386,2021-04-03_12h50.11.800,Colour_Similarity_Experiment,2020.2.10,Win32,60,60674ec340277cd6a308bc9f,16.82922456,16.69180595,16.6902401,16.68154522,16.68656975,16.6902401,,,,,,,,,,,,,,,,,,,,PF,strong,3,,,,,,,,4,1.78477,,,,,,,,,,,,,,,,,,,,,,,,,,,,9,strong,32,-95,1,0,0,response3disk,2,36,-1,2,1,0,0,rectangle,41,104,1,0,0,7,7,2.33534,-3,2,1,0,0,0,35,35,11,1,1,response1disk_3,rectangle,,,,,,,,,,,,,,,,,,,
,,,,,,,,,,,,,,,,,,,,,,,,,,,,,,,,,,,,,,,,,,5a06f0579b760100013a6d8c,6068482302d74db6f9917386,2021-04-03_12h50.11.800,Colour_Similarity_Experiment,2020.2.10,Win32,60,60674ec340277cd6a308bc9f,16.82922456,16.69180595,16.6902401,16.68154522,16.68656975,16.6902401,,,,,,,,,,,,,,,,,,,,PF,weak,3,,,,,,,,5,2.0814,,,,,,,,,,,,,,,,,,,,,,,,,,,,2,weak,83,-34,1,0,0,response3disk,5,37,3,3,1,0,0,rectangle,3,3,1,0,0,7,5,0.001855,3,3,1,0,0,0,36,36,147,1,0,,,,,,,,,,,,,,,,,,,,,
,,,,,,,,,,,,,,,,,,,,,,,,,,,,,,,,,,,,,,,,,,5a06f0579b760100013a6d8c,6068482302d74db6f9917386,2021-04-03_12h50.11.800,Colour_Similarity_Experiment,2020.2.10,Win32,60,60674ec340277cd6a308bc9f,16.82922456,16.69180595,16.6902401,16.68154522,16.68656975,16.6902401,,,,,,,,,,,,,,,,,,,,PF,strong,3,,,,,,,,6,1.620515,,,,,,,,,,,,,,,,,,,,,,,,,,,,9,strong,95,38,1,0,0,response1disk,6,38,4,4,1,0,0,rectangle,4,4,1,0,0,7,3,0.002935,4,4,1,0,0,0,37,37,117,1,0,,,,,,,,,,,,,,,,,,,,,
,,,,,,,,,,,,,,,,,,,,,,,,,,,,,,,,,,,,,,,,,,5a06f0579b760100013a6d8c,6068482302d74db6f9917386,2021-04-03_12h50.11.800,Colour_Similarity_Experiment,2020.2.10,Win32,60,60674ec340277cd6a308bc9f,16.82922456,16.69180595,16.6902401,16.68154522,16.68656975,16.6902401,,,,,,,,,,,,,,,,,,,,PF,weak,3,,,,,,,,5,1.87891,,,,,,,,,,,,,,,,,,,,,,,,,,,,1,weak,90,-33,1,0,0,response3disk,2,39,-1,1,1,0,0,rectangle,-1,1,1,0,0,7,3,0.00048,-1,1,1,0,0,0,38,38,24,1,0,,,,,,,,,,,,,,,,,,,,,
,,,,,,,,,,,,,,,,,,,,,,,,,,,,,,,,,,,,,,,,,,5a06f0579b760100013a6d8c,6068482302d74db6f9917386,2021-04-03_12h50.11.800,Colour_Similarity_Experiment,2020.2.10,Win32,60,60674ec340277cd6a308bc9f,16.82922456,16.69180595,16.6902401,16.68154522,16.68656975,16.6902401,,,,,,,,,,,,,,,,,,,,PF,strong,3,,,,,,,,3,1.469615,,,,,,,,,,,,,,,,,,,,,,,,,,,,5,strong,-39,-96,1,0,0,response5disk,5,40,1,3,1,0,0,rectangle,1,3,1,0,0,7,0,0.00531,1,3,1,0,0,0,39,39,19,1,0,,,,,,,,,,,,,,,,,,,,,
,,,,,,,,,,,,,,,,,,,,,,,,,,,,,,,,,,,,,,,,,,5a06f0579b760100013a6d8c,6068482302d74db6f9917386,2021-04-03_12h50.11.800,Colour_Similarity_Experiment,2020.2.10,Win32,60,60674ec340277cd6a308bc9f,16.82922456,16.69180595,16.6902401,16.68154522,16.68656975,16.6902401,,,,,,,,,,,,,,,,,,,,PF,weak,3,,,,,,,,1,1.5043,,,,,,,,,,,,,,,,,,,,,,,,,,,,4,weak,-82,34,1,0,0,response7disk,4,41,1,6,1,0,0,rectangle,1,6,1,0,0,7,4,0.00349,1,6,1,0,0,0,40,40,70,1,0,,,,,,,,,,,,,,,,,,,,,
,,,,,,,,,,,,,,,,,,,,,,,,,,,,,,,,,,,,,,,,,,5a06f0579b760100013a6d8c,6068482302d74db6f9917386,2021-04-03_12h50.11.800,Colour_Similarity_Experiment,2020.2.10,Win32,60,60674ec340277cd6a308bc9f,16.82922456,16.69180595,16.6902401,16.68154522,16.68656975,16.6902401,,,,,,,,,,,,,,,,,,,,PF,strong,3,,,,,,,,5,2.7037,,,,,,,,,,,,,,,,,,,,,,,,,,,,3,strong,84,-31,1,0,0,response3disk,8,42,6,3,1,0,0,rectangle,6,3,1,0,0,7,6,0.001735,6,3,1,0,0,0,41,41,44,1,0,,,,,,,,,,,,,,,,,,,,,
,,,,,,,,,,,,,,,,,,,,,,,,,,,,,,,,,,,,,,,,,,5a06f0579b760100013a6d8c,6068482302d74db6f9917386,2021-04-03_12h50.11.800,Colour_Similarity_Experiment,2020.2.10,Win32,60,60674ec340277cd6a308bc9f,16.82922456,16.69180595,16.6902401,16.68154522,16.68656975,16.6902401,,,,,,,,,,,,,,,,,,,,PF,weak,3,,,,,,,,4,1.862725,,,,,,,,,,,,,,,,,,,,,,,,,,,,9,weak,41,-90,1,0,0,response3disk,2,43,-2,2,1,0,0,rectangle,-2,2,1,0,0,7,3,0.0036,-2,2,1,0,0,0,42,42,157,1,0,,,,,,,,,,,,,,,,,,,,,
,,,,,,,,,,,,,,,,,,,,,,,,,,,,,,,,,,,,,,,,,,5a06f0579b760100013a6d8c,6068482302d74db6f9917386,2021-04-03_12h50.11.800,Colour_Similarity_Experiment,2020.2.10,Win32,60,60674ec340277cd6a308bc9f,16.82922456,16.69180595,16.6902401,16.68154522,16.68656975,16.6902401,,,,,,,,,,,,,,,,,,,,PF,strong,3,,,,,,,,5,2.336185,,,,,,,,,,,,,,,,,,,,,,,,,,,,2,strong,83,-34,1,0,0,response3disk,2,44,2,2,1,0,0,rectangle,2,2,1,0,0,7,7,0.00356,2,2,1,0,0,0,43,43,142,1,0,,,,,,,,,,,,,,,,,,,,,
,,,,,,,,,,,,,,,,,,,,,,,,,,,,,,,,,,,,,,,,,,5a06f0579b760100013a6d8c,6068482302d74db6f9917386,2021-04-03_12h50.11.800,Colour_Similarity_Experiment,2020.2.10,Win32,60,60674ec340277cd6a308bc9f,16.82922456,16.69180595,16.6902401,16.68154522,16.68656975,16.6902401,,,,,,,,,,,,,,,,,,,,PF,weak,3,,,,,,,,7,1.18127,,,,,,,,,,,,,,,,,,,,,,,,,,,,7,weak,35,99,1,0,0,response1disk,9,45,0,0,1,0,0,rectangle,0,0,1,0,0,7,5,0.00378,0,0,1,0,0,0,44,44,10,1,0,,,,,,,,,,,,,,,,,,,,,
,,,,,,,,,,,,,,,,,,,,,,,,,,,,,,,,,,,,,,,,,,5a06f0579b760100013a6d8c,6068482302d74db6f9917386,2021-04-03_12h50.11.800,Colour_Similarity_Experiment,2020.2.10,Win32,60,60674ec340277cd6a308bc9f,16.82922456,16.69180595,16.6902401,16.68154522,16.68656975,16.6902401,,,,,,,,,,,,,,,,,,,,PF,weak,3,,,,,,,,7,1.65279,,,,,,,,,,,,,,,,,,,,,,,,,,,,6,weak,36,94,1,0,0,response1disk,2,46,0,5,1,0,0,rectangle,0,5,1,0,0,7,6,0.003165,0,5,1,0,0,0,45,45,130,1,0,,,,,,,,,,,,,,,,,,,,,
,,,,,,,,,,,,,,,,,,,,,,,,,,,,,,,,,,,,,,,,,,5a06f0579b760100013a6d8c,6068482302d74db6f9917386,2021-04-03_12h50.11.800,Colour_Similarity_Experiment,2020.2.10,Win32,60,60674ec340277cd6a308bc9f,16.82922456,16.69180595,16.6902401,16.68154522,16.68656975,16.6902401,,,,,,,,,,,,,,,,,,,,PF,strong,3,,,,,,,,4,4.18529,,,,,,,,,,,,,,,,,,,,,,,,,,,,2,strong,34,-97,1,0,0,response3disk,3,47,-3,1,1,0,0,rectangle,36,104,1,0,0,7,7,2.637385,-4,2,1,0,0,0,46,46,104,1,1,response1disk_3,rectangle,,,,,,,,,,,,,,,,,,,
,,,,,,,,,,,,,,,,,,,,,,,,,,,,,,,,,,,,,,,,,,5a06f0579b760100013a6d8c,6068482302d74db6f9917386,2021-04-03_12h50.11.800,Colour_Similarity_Experiment,2020.2.10,Win32,60,60674ec340277cd6a308bc9f,16.82922456,16.69180595,16.6902401,16.68154522,16.68656975,16.6902401,,,,,,,,,,,,,,,,,,,,PF,weak,3,,,,,,,,7,1.569395,,,,,,,,,,,,,,,,,,,,,,,,,,,,9,weak,31,98,1,0,0,response1disk,5,48,-8,3,1,0,0,rectangle,-8,3,1,0,0,7,7,0.00063,-8,3,1,0,0,0,47,47,134,1,0,,,,,,,,,,,,,,,,,,,,,
,,,,,,,,,,,,,,,,,,,,,,,,,,,,,,,,,,,,,,,,,,5a06f0579b760100013a6d8c,6068482302d74db6f9917386,2021-04-03_12h50.11.800,Colour_Similarity_Experiment,2020.2.10,Win32,60,60674ec340277cd6a308bc9f,16.82922456,16.69180595,16.6902401,16.68154522,16.68656975,16.6902401,,,,,,,,,,,,,,,,,,,,PF,strong,3,,,,,,,,3,2.370175,,,,,,,,,,,,,,,,,,,,,,,,,,,,7,strong,-47,-97,1,0,0,response5disk,8,49,2,7,1,0,0,rectangle,82,-35,1,0,0,5,5,6.608385,-8,0,1,0,0,0,48,48,97,1,1,response3disk_3,rectangle,,,,,,,,,,,,,,,,,,,
,,,,,,,,,,,,,,,,,,,,,,,,,,,,,,,,,,,,,,,,,,5a06f0579b760100013a6d8c,6068482302d74db6f9917386,2021-04-03_12h50.11.800,Colour_Similarity_Experiment,2020.2.10,Win32,60,60674ec340277cd6a308bc9f,16.82922456,16.69180595,16.6902401,16.68154522,16.68656975,16.6902401,,,,,,,,,,,,,,,,,,,,PF,strong,3,,,,,,,,3,1.669465,,,,,,,,,,,,,,,,,,,,,,,,,,,,3,strong,-39,-101,1,0,0,response5disk,5,50,-2,3,1,0,0,rectangle,-2,3,1,0,0,5,4,0.003315,-2,3,1,0,0,0,49,49,101,1,0,,,,,,,,,,,,,,,,,,,,,
,,,,,,,,,,,,,,,,,,,,,,,,,,,,,,,,,,,,,,,,,,5a06f0579b760100013a6d8c,6068482302d74db6f9917386,2021-04-03_12h50.11.800,Colour_Similarity_Experiment,2020.2.10,Win32,60,60674ec340277cd6a308bc9f,16.82922456,16.69180595,16.6902401,16.68154522,16.68656975,16.6902401,,,,,,,,,,,,,,,,,,,,PF,strong,3,,,,,,,,1,1.551175,,,,,,,,,,,,,,,,,,,,,,,,,,,,7,strong,-84,41,1,0,0,response7disk,7,51,6,2,1,0,0,rectangle,6,2,1,0,0,5,3,0.00264,6,2,1,0,0,0,50,50,34,1,0,,,,,,,,,,,,,,,,,,,,,
,,,,,,,,,,,,,,,,,,,,,,,,,,,,,,,,,,,,,,,,,,5a06f0579b760100013a6d8c,6068482302d74db6f9917386,2021-04-03_12h50.11.800,Colour_Similarity_Experiment,2020.2.10,Win32,60,60674ec340277cd6a308bc9f,16.82922456,16.69180595,16.6902401,16.68154522,16.68656975,16.6902401,,,,,,,,,,,,,,,,,,,,PF,weak,3,,,,,,,,5,1.400665,,,,,,,,,,,,,,,,,,,,,,,,,,,,5,weak,89,-31,1,0,0,response3disk,2,52,-9,-1,1,0,0,rectangle,-9,-1,1,0,0,5,1,0.00417,-9,-1,1,0,0,0,51,51,129,1,0,,,,,,,,,,,,,,,,,,,,,
,,,,,,,,,,,,,,,,,,,,,,,,,,,,,,,,,,,,,,,,,,5a06f0579b760100013a6d8c,6068482302d74db6f9917386,2021-04-03_12h50.11.800,Colour_Similarity_Experiment,2020.2.10,Win32,60,60674ec340277cd6a308bc9f,16.82922456,16.69180595,16.6902401,16.68154522,16.68656975,16.6902401,,,,,,,,,,,,,,,,,,,,PF,strong,3,,,,,,,,4,2.003805,,,,,,,,,,,,,,,,,,,,,,,,,,,,6,strong,40,-100,1,0,0,response3disk,7,53,-4,2,1,0,0,rectangle,-4,2,1,0,0,5,7,0.004065,-4,2,1,0,0,0,52,52,18,1,0,,,,,,,,,,,,,,,,,,,,,
,,,,,,,,,,,,,,,,,,,,,,,,,,,,,,,,,,,,,,,,,,5a06f0579b760100013a6d8c,6068482302d74db6f9917386,2021-04-03_12h50.11.800,Colour_Similarity_Experiment,2020.2.10,Win32,60,60674ec340277cd6a308bc9f,16.82922456,16.69180595,16.6902401,16.68154522,16.68656975,16.6902401,,,,,,,,,,,,,,,,,,,,PF,weak,3,,,,,,,,1,1.351235,,,,,,,,,,,,,,,,,,,,,,,,,,,,2,weak,-90,44,1,0,0,response7disk,2,54,-7,-1,1,0,0,rectangle,-7,-1,1,0,0,5,5,0.00231,-7,-1,1,0,0,0,53,53,14,1,0,,,,,,,,,,,,,,,,,,,,,
,,,,,,,,,,,,,,,,,,,,,,,,,,,,,,,,,,,,,,,,,,5a06f0579b760100013a6d8c,6068482302d74db6f9917386,2021-04-03_12h50.11.800,Colour_Similarity_Experiment,2020.2.10,Win32,60,60674ec340277cd6a308bc9f,16.82922456,16.69180595,16.6902401,16.68154522,16.68656975,16.6902401,,,,,,,,,,,,,,,,,,,,PF,weak,3,,,,,,,,7,1.45257,,,,,,,,,,,,,,,,,,,,,,,,,,,,6,weak,24,95,1,0,0,response1disk,1,55,1,4,1,0,0,rectangle,1,4,1,0,0,5,4,0.003345,1,4,1,0,0,0,54,54,46,1,0,,,,,,,,,,,,,,,,,,,,,
,,,,,,,,,,,,,,,,,,,,,,,,,,,,,,,,,,,,,,,,,,5a06f0579b760100013a6d8c,6068482302d74db6f9917386,2021-04-03_12h50.11.800,Colour_Similarity_Experiment,2020.2.10,Win32,60,60674ec340277cd6a308bc9f,16.82922456,16.69180595,16.6902401,16.68154522,16.68656975,16.6902401,,,,,,,,,,,,,,,,,,,,PF,strong,3,,,,,,,,5,1.703335,,,,,,,,,,,,,,,,,,,,,,,,,,,,3,strong,87,-33,1,0,0,response3disk,7,56,-6,0,1,0,0,rectangle,-6,0,1,0,0,5,3,0.00441,-6,0,1,0,0,0,55,55,118,1,0,,,,,,,,,,,,,,,,,,,,,
,,,,,,,,,,,,,,,,,,,,,,,,,,,,,,,,,,,,,,,,,,5a06f0579b760100013a6d8c,6068482302d74db6f9917386,2021-04-03_12h50.11.800,Colour_Similarity_Experiment,2020.2.10,Win32,60,60674ec340277cd6a308bc9f,16.82922456,16.69180595,16.6902401,16.68154522,16.68656975,16.6902401,,,,,,,,,,,,,,,,,,,,PF,strong,3,,,,,,,,2,1.752715,,,,,,,,,,,,,,,,,,,,,,,,,,,,9,strong,-83,-34,1,0,0,response5disk,3,57,-5,3,1,0,0,rectangle,-5,3,1,0,0,5,7,0.003845,-5,3,1,0,0,0,56,56,141,1,0,,,,,,,,,,,,,,,,,,,,,
,,,,,,,,,,,,,,,,,,,,,,,,,,,,,,,,,,,,,,,,,,5a06f0579b760100013a6d8c,6068482302d74db6f9917386,2021-04-03_12h50.11.800,Colour_Similarity_Experiment,2020.2.10,Win32,60,60674ec340277cd6a308bc9f,16.82922456,16.69180595,16.6902401,16.68154522,16.68656975,16.6902401,,,,,,,,,,,,,,,,,,,,PF,weak,3,,,,,,,,7,1.051775,,,,,,,,,,,,,,,,,,,,,,,,,,,,8,weak,40,100,1,0,0,response1disk,2,58,-1,1,1,0,0,rectangle,-1,1,1,0,0,5,4,0.00351,-1,1,1,0,0,0,57,57,83,1,0,,,,,,,,,,,,,,,,,,,,,
,,,,,,,,,,,,,,,,,,,,,,,,,,,,,,,,,,,,,,,,,,5a06f0579b760100013a6d8c,6068482302d74db6f9917386,2021-04-03_12h50.11.800,Colour_Similarity_Experiment,2020.2.10,Win32,60,60674ec340277cd6a308bc9f,16.82922456,16.69180595,16.6902401,16.68154522,16.68656975,16.6902401,,,,,,,,,,,,,,,,,,,,PF,weak,3,,,,,,,,6,1.61865,,,,,,,,,,,,,,,,,,,,,,,,,,,,5,weak,99,41,1,0,0,response1disk,9,59,-6,2,1,0,0,rectangle,-85,33,1,0,0,1,1,2.151965,-6,3,1,0,0,0,58,58,136,1,1,response7disk_3,rectangle,,,,,,,,,,,,,,,,,,,
,,,,,,,,,,,,,,,,,,,,,,,,,,,,,,,,,,,,,,,,,,5a06f0579b760100013a6d8c,6068482302d74db6f9917386,2021-04-03_12h50.11.800,Colour_Similarity_Experiment,2020.2.10,Win32,60,60674ec340277cd6a308bc9f,16.82922456,16.69180595,16.6902401,16.68154522,16.68656975,16.6902401,,,,,,,,,,,,,,,,,,,,PF,strong,3,,,,,,,,3,1.917985,,,,,,,,,,,,,,,,,,,,,,,,,,,,9,strong,-42,-90,1,0,0,response5disk,5,60,-7,2,1,0,0,rectangle,-7,2,1,0,0,1,5,0.00309,-7,2,1,0,0,0,59,59,128,1,0,,,,,,,,,,,,,,,,,,,,,
,,,,,,,,,,,,,,,,,,,,,,,,,,,,,,,,,,,,,,,,,,5a06f0579b760100013a6d8c,6068482302d74db6f9917386,2021-04-03_12h50.11.800,Colour_Similarity_Experiment,2020.2.10,Win32,60,60674ec340277cd6a308bc9f,16.82922456,16.69180595,16.6902401,16.68154522,16.68656975,16.6902401,,,,,,,,,,,,,,,,,,,,PF,weak,3,,,,,,,,1,1.00062,,,,,,,,,,,,,,,,,,,,,,,,,,,,5,weak,-104,55,1,0,0,response7disk,4,61,3,7,1,0,0,rectangle,3,7,1,0,0,1,7,0.002815,3,7,1,0,0,0,60,60,54,1,0,,,,,,,,,,,,,,,,,,,,,
,,,,,,,,,,,,,,,,,,,,,,,,,,,,,,,,,,,,,,,,,,5a06f0579b760100013a6d8c,6068482302d74db6f9917386,2021-04-03_12h50.11.800,Colour_Similarity_Experiment,2020.2.10,Win32,60,60674ec340277cd6a308bc9f,16.82922456,16.69180595,16.6902401,16.68154522,16.68656975,16.6902401,,,,,,,,,,,,,,,,,,,,PF,strong,3,,,,,,,,5,3.737885,,,,,,,,,,,,,,,,,,,,,,,,,,,,8,strong,82,-36,1,0,0,response3disk,4,62,-3,1,1,0,0,rectangle,-3,1,1,0,0,1,7,0.000435,-3,1,1,0,0,0,61,61,88,1,0,,,,,,,,,,,,,,,,,,,,,
,,,,,,,,,,,,,,,,,,,,,,,,,,,,,,,,,,,,,,,,,,5a06f0579b760100013a6d8c,6068482302d74db6f9917386,2021-04-03_12h50.11.800,Colour_Similarity_Experiment,2020.2.10,Win32,60,60674ec340277cd6a308bc9f,16.82922456,16.69180595,16.6902401,16.68154522,16.68656975,16.6902401,,,,,,,,,,,,,,,,,,,,PF,strong,3,,,,,,,,1,1.034585,,,,,,,,,,,,,,,,,,,,,,,,,,,,4,strong,-67,44,1,0,0,response7disk,4,63,-11,-2,1,0,0,rectangle,-11,-2,1,0,0,1,0,0.00458,-11,-2,1,0,0,0,62,62,84,1,0,,,,,,,,,,,,,,,,,,,,,
,,,,,,,,,,,,,,,,,,,,,,,,,,,,,,,,,,,,,,,,,,5a06f0579b760100013a6d8c,6068482302d74db6f9917386,2021-04-03_12h50.11.800,Colour_Similarity_Experiment,2020.2.10,Win32,60,60674ec340277cd6a308bc9f,16.82922456,16.69180595,16.6902401,16.68154522,16.68656975,16.6902401,,,,,,,,,,,,,,,,,,,,PF,strong,3,,,,,,,,7,1.669335,,,,,,,,,,,,,,,,,,,,,,,,,,,,9,strong,37,109,1,0,0,response1disk,1,64,3,3,1,0,0,rectangle,3,3,1,0,0,1,4,0.003205,3,3,1,0,0,0,63,63,111,1,0,,,,,,,,,,,,,,,,,,,,,
,,,,,,,,,,,,,,,,,,,,,,,,,,,,,,,,,,,,,,,,,,5a06f0579b760100013a6d8c,6068482302d74db6f9917386,2021-04-03_12h50.11.800,Colour_Similarity_Experiment,2020.2.10,Win32,60,60674ec340277cd6a308bc9f,16.82922456,16.69180595,16.6902401,16.68154522,16.68656975,16.6902401,,,,,,,,,,,,,,,,,,,,PF,weak,3,,,,,,,,7,1.951765,,,,,,,,,,,,,,,,,,,,,,,,,,,,1,weak,50,102,1,0,0,response1disk,6,65,5,4,1,0,0,rectangle,5,4,1,0,0,1,0,0.00362,5,4,1,0,0,0,64,64,144,1,0,,,,,,,,,,,,,,,,,,,,,
,,,,,,,,,,,,,,,,,,,,,,,,,,,,,,,,,,,,,,,,,,5a06f0579b760100013a6d8c,6068482302d74db6f9917386,2021-04-03_12h50.11.800,Colour_Similarity_Experiment,2020.2.10,Win32,60,60674ec340277cd6a308bc9f,16.82922456,16.69180595,16.6902401,16.68154522,16.68656975,16.6902401,,,,,,,,,,,,,,,,,,,,PF,weak,3,,,,,,,,7,0.93857,,,,,,,,,,,,,,,,,,,,,,,,,,,,7,weak,34,89,1,0,0,response1disk,2,66,0,0,1,0,0,rectangle,0,0,1,0,0,1,0,0.000485,0,0,1,0,0,0,65,65,32,1,0,,,,,,,,,,,,,,,,,,,,,
,,,,,,,,,,,,,,,,,,,,,,,,,,,,,,,,,,,,,,,,,,5a06f0579b760100013a6d8c,6068482302d74db6f9917386,2021-04-03_12h50.11.800,Colour_Similarity_Experiment,2020.2.10,Win32,60,60674ec340277cd6a308bc9f,16.82922456,16.69180595,16.6902401,16.68154522,16.68656975,16.6902401,,,,,,,,,,,,,,,,,,,,PF,strong,3,,,,,,,,3,4.20521,,,,,,,,,,,,,,,,,,,,,,,,,,,,3,strong,-39,-95,1,0,0,response5disk,3,67,-2,3,1,0,0,rectangle,-2,3,1,0,0,1,7,0.00364,-2,3,1,0,0,0,66,66,68,1,0,,,,,,,,,,,,,,,,,,,,,
,,,,,,,,,,,,,,,,,,,,,,,,,,,,,,,,,,,,,,,,,,5a06f0579b760100013a6d8c,6068482302d74db6f9917386,2021-04-03_12h50.11.800,Colour_Similarity_Experiment,2020.2.10,Win32,60,60674ec340277cd6a308bc9f,16.82922456,16.69180595,16.6902401,16.68154522,16.68656975,16.6902401,,,,,,,,,,,,,,,,,,,,PF,strong,3,,,,,,,,2,2.870705,,,,,,,,,,,,,,,,,,,,,,,,,,,,1,strong,-90,-35,1,0,0,response5disk,1,68,-4,2,1,0,0,rectangle,-4,2,1,0,0,1,5,0.001805,-4,2,1,0,0,0,67,67,151,1,0,,,,,,,,,,,,,,,,,,,,,
,,,,,,,,,,,,,,,,,,,,,,,,,,,,,,,,,,,,,,,,,,5a06f0579b760100013a6d8c,6068482302d74db6f9917386,2021-04-03_12h50.11.800,Colour_Similarity_Experiment,2020.2.10,Win32,60,60674ec340277cd6a308bc9f,16.82922456,16.69180595,16.6902401,16.68154522,16.68656975,16.6902401,,,,,,,,,,,,,,,,,,,,PF,strong,3,,,,,,,,4,1.97953,,,,,,,,,,,,,,,,,,,,,,,,,,,,2,strong,42,-90,1,0,0,response3disk,4,69,2,1,1,0,0,rectangle,2,1,1,0,0,1,2,0.002255,2,1,1,0,0,0,68,68,145,1,0,,,,,,,,,,,,,,,,,,,,,
,,,,,,,,,,,,,,,,,,,,,,,,,,,,,,,,,,,,,,,,,,5a06f0579b760100013a6d8c,6068482302d74db6f9917386,2021-04-03_12h50.11.800,Colour_Similarity_Experiment,2020.2.10,Win32,60,60674ec340277cd6a308bc9f,16.82922456,16.69180595,16.6902401,16.68154522,16.68656975,16.6902401,,,,,,,,,,,,,,,,,,,,PF,strong,3,,,,,,,,7,1.11441,,,,,,,,,,,,,,,,,,,,,,,,,,,,1,strong,47,97,1,0,0,response1disk,3,70,-4,4,1,0,0,rectangle,-4,4,1,0,0,1,1,0.002845,-4,4,1,0,0,0,69,69,99,1,0,,,,,,,,,,,,,,,,,,,,,
,,,,,,,,,,,,,,,,,,,,,,,,,,,,,,,,,,,,,,,,,,5a06f0579b760100013a6d8c,6068482302d74db6f9917386,2021-04-03_12h50.11.800,Colour_Similarity_Experiment,2020.2.10,Win32,60,60674ec340277cd6a308bc9f,16.82922456,16.69180595,16.6902401,16.68154522,16.68656975,16.6902401,,,,,,,,,,,,,,,,,,,,PF,weak,3,,,,,,,,4,1.50364,,,,,,,,,,,,,,,,,,,,,,,,,,,,7,weak,49,-83,1,0,0,response3disk,8,71,0,0,1,0,0,rectangle,0,0,1,0,0,1,3,0.00358,0,0,1,0,0,0,70,70,140,1,0,,,,,,,,,,,,,,,,,,,,,
,,,,,,,,,,,,,,,,,,,,,,,,,,,,,,,,,,,,,,,,,,5a06f0579b760100013a6d8c,6068482302d74db6f9917386,2021-04-03_12h50.11.800,Colour_Similarity_Experiment,2020.2.10,Win32,60,60674ec340277cd6a308bc9f,16.82922456,16.69180595,16.6902401,16.68154522,16.68656975,16.6902401,,,,,,,,,,,,,,,,,,,,PF,strong,3,,,,,,,,4,1.986,,,,,,,,,,,,,,,,,,,,,,,,,,,,2,strong,41,-91,1,0,0,response3disk,9,72,-6,6,1,0,0,rectangle,-6,6,1,0,0,1,4,0.00346,-6,6,1,0,0,0,71,71,72,1,0,,,,,,,,,,,,,,,,,,,,,
,,,,,,,,,,,,,,,,,,,,,,,,,,,,,,,,,,,,,,,,,,5a06f0579b760100013a6d8c,6068482302d74db6f9917386,2021-04-03_12h50.11.800,Colour_Similarity_Experiment,2020.2.10,Win32,60,60674ec340277cd6a308bc9f,16.82922456,16.69180595,16.6902401,16.68154522,16.68656975,16.6902401,,,,,,,,,,,,,,,,,,,,PF,weak,3,,,,,,,,5,1.63634,,,,,,,,,,,,,,,,,,,,,,,,,,,,2,weak,75,-39,1,0,0,response3disk,6,73,-2,1,1,0,0,rectangle,-2,1,1,0,0,1,5,0.003465,-2,1,1,0,0,0,72,72,113,1,0,,,,,,,,,,,,,,,,,,,,,
,,,,,,,,,,,,,,,,,,,,,,,,,,,,,,,,,,,,,,,,,,5a06f0579b760100013a6d8c,6068482302d74db6f9917386,2021-04-03_12h50.11.800,Colour_Similarity_Experiment,2020.2.10,Win32,60,60674ec340277cd6a308bc9f,16.82922456,16.69180595,16.6902401,16.68154522,16.68656975,16.6902401,,,,,,,,,,,,,,,,,,,,PF,weak,3,,,,,,,,5,1.15293,,,,,,,,,,,,,,,,,,,,,,,,,,,,9,weak,82,-38,1,0,0,response3disk,3,74,-2,5,1,0,0,rectangle,-2,5,1,0,0,1,3,0.00233,-2,5,1,0,0,0,73,73,119,1,0,,,,,,,,,,,,,,,,,,,,,
,,,,,,,,,,,,,,,,,,,,,,,,,,,,,,,,,,,,,,,,,,5a06f0579b760100013a6d8c,6068482302d74db6f9917386,2021-04-03_12h50.11.800,Colour_Similarity_Experiment,2020.2.10,Win32,60,60674ec340277cd6a308bc9f,16.82922456,16.69180595,16.6902401,16.68154522,16.68656975,16.6902401,,,,,,,,,,,,,,,,,,,,PF,strong,3,,,,,,,,6,2.389005,,,,,,,,,,,,,,,,,,,,,,,,,,,,8,strong,96,35,1,0,0,response1disk,8,75,-1,2,1,0,0,rectangle,-1,2,1,0,0,1,0,0.004565,-1,2,1,0,0,0,74,74,48,1,0,,,,,,,,,,,,,,,,,,,,,
,,,,,,,,,,,,,,,,,,,,,,,,,,,,,,,,,,,,,,,,,,5a06f0579b760100013a6d8c,6068482302d74db6f9917386,2021-04-03_12h50.11.800,Colour_Similarity_Experiment,2020.2.10,Win32,60,60674ec340277cd6a308bc9f,16.82922456,16.69180595,16.6902401,16.68154522,16.68656975,16.6902401,,,,,,,,,,,,,,,,,,,,PF,strong,3,,,,,,,,2,2.31558,,,,,,,,,,,,,,,,,,,,,,,,,,,,4,strong,-91,-35,1,0,0,response5disk,3,76,0,4,1,0,0,rectangle,0,4,1,0,0,1,4,0.00239,0,4,1,0,0,0,75,75,77,1,0,,,,,,,,,,,,,,,,,,,,,
,,,,,,,,,,,,,,,,,,,,,,,,,,,,,,,,,,,,,,,,,,5a06f0579b760100013a6d8c,6068482302d74db6f9917386,2021-04-03_12h50.11.800,Colour_Similarity_Experiment,2020.2.10,Win32,60,60674ec340277cd6a308bc9f,16.82922456,16.69180595,16.6902401,16.68154522,16.68656975,16.6902401,,,,,,,,,,,,,,,,,,,,PF,strong,3,,,,,,,,5,1.61889,,,,,,,,,,,,,,,,,,,,,,,,,,,,2,strong,63,-28,1,0,0,response3disk,8,77,-14,2,1,0,0,rectangle,-14,2,1,0,0,1,6,0.00392,-14,2,1,0,0,0,76,76,62,1,0,,,,,,,,,,,,,,,,,,,,,
,,,,,,,,,,,,,,,,,,,,,,,,,,,,,,,,,,,,,,,,,,5a06f0579b760100013a6d8c,6068482302d74db6f9917386,2021-04-03_12h50.11.800,Colour_Similarity_Experiment,2020.2.10,Win32,60,60674ec340277cd6a308bc9f,16.82922456,16.69180595,16.6902401,16.68154522,16.68656975,16.6902401,,,,,,,,,,,,,,,,,,,,PF,weak,3,,,,,,,,3,1.38622,,,,,,,,,,,,,,,,,,,,,,,,,,,,8,weak,-41,-81,1,0,0,response5disk,8,78,-1,4,1,0,0,rectangle,-1,4,1,0,0,1,5,0.002965,-1,4,1,0,0,0,77,77,153,1,0,,,,,,,,,,,,,,,,,,,,,
,,,,,,,,,,,,,,,,,,,,,,,,,,,,,,,,,,,,,,,,,,5a06f0579b760100013a6d8c,6068482302d74db6f9917386,2021-04-03_12h50.11.800,Colour_Similarity_Experiment,2020.2.10,Win32,60,60674ec340277cd6a308bc9f,16.82922456,16.69180595,16.6902401,16.68154522,16.68656975,16.6902401,,,,,,,,,,,,,,,,,,,,PF,weak,3,,,,,,,,3,1.251285,,,,,,,,,,,,,,,,,,,,,,,,,,,,7,weak,-42,-83,1,0,0,response5disk,6,79,0,4,1,0,0,rectangle,0,4,1,0,0,1,5,0.00037,0,4,1,0,0,0,78,78,29,1,0,,,,,,,,,,,,,,,,,,,,,
,,,,,,,,,,,,,,,,,,,,,,,,,,,,,,,,,,,,,,,,,,5a06f0579b760100013a6d8c,6068482302d74db6f9917386,2021-04-03_12h50.11.800,Colour_Similarity_Experiment,2020.2.10,Win32,60,60674ec340277cd6a308bc9f,16.82922456,16.69180595,16.6902401,16.68154522,16.68656975,16.6902401,,,,,,,,,,,,,,,,,,,,PF,weak,3,,,,,,,,4,1.30945,,,,,,,,,,,,,,,,,,,,,,,,,,,,6,weak,44,-98,1,0,0,response3disk,8,80,-2,5,1,0,0,rectangle,-2,5,1,0,0,1,2,0.003465,-2,5,1,0,0,0,79,79,64,1,0,,,,,,,,,,,,,,,,,,,,,
,,,,,,,,,,,,,,,,,,,,,,,,,,,,,,,,,,,,,,,,,,5a06f0579b760100013a6d8c,6068482302d74db6f9917386,2021-04-03_12h50.11.800,Colour_Similarity_Experiment,2020.2.10,Win32,60,60674ec340277cd6a308bc9f,16.82922456,16.69180595,16.6902401,16.68154522,16.68656975,16.6902401,,,,,,,,,,,,,,,,,,,,PF,strong,3,,,,,,,,3,1.820485,,,,,,,,,,,,,,,,,,,,,,,,,,,,2,strong,-32,-87,1,0,0,response5disk,1,81,-4,-1,1,0,0,rectangle,-4,-1,1,0,0,1,5,0.00286,-4,-1,1,0,0,0,80,80,85,1,0,,,,,,,,,,,,,,,,,,,,,
,,,,,,,,,,,,,,,,,,,,,,,,,,,,,,,,,,,,,,,,,,5a06f0579b760100013a6d8c,6068482302d74db6f9917386,2021-04-03_12h50.11.800,Colour_Similarity_Experiment,2020.2.10,Win32,60,60674ec340277cd6a308bc9f,16.82922456,16.69180595,16.6902401,16.68154522,16.68656975,16.6902401,,,,,,,,,,,,,,,,,,,,PF,strong,3,,,,,,,,4,1.736065,,,,,,,,,,,,,,,,,,,,,,,,,,,,6,strong,38,-100,1,0,0,response3disk,8,82,2,0,1,0,0,rectangle,2,0,1,0,0,1,7,0.00366,2,0,1,0,0,0,81,81,133,1,0,,,,,,,,,,,,,,,,,,,,,
,,,,,,,,,,,,,,,,,,,,,,,,,,,,,,,,,,,,,,,,,,5a06f0579b760100013a6d8c,6068482302d74db6f9917386,2021-04-03_12h50.11.800,Colour_Similarity_Experiment,2020.2.10,Win32,60,60674ec340277cd6a308bc9f,16.82922456,16.69180595,16.6902401,16.68154522,16.68656975,16.6902401,,,,,,,,,,,,,,,,,,,,PF,strong,3,,,,,,,,7,1.250785,,,,,,,,,,,,,,,,,,,,,,,,,,,,4,strong,36,103,1,0,0,response1disk,2,83,1,1,1,0,0,rectangle,1,1,1,0,0,1,2,0.0035,1,1,1,0,0,0,82,82,13,1,0,,,,,,,,,,,,,,,,,,,,,
,,,,,,,,,,,,,,,,,,,,,,,,,,,,,,,,,,,,,,,,,,5a06f0579b760100013a6d8c,6068482302d74db6f9917386,2021-04-03_12h50.11.800,Colour_Similarity_Experiment,2020.2.10,Win32,60,60674ec340277cd6a308bc9f,16.82922456,16.69180595,16.6902401,16.68154522,16.68656975,16.6902401,,,,,,,,,,,,,,,,,,,,PF,strong,3,,,,,,,,7,1.735085,,,,,,,,,,,,,,,,,,,,,,,,,,,,5,strong,39,94,1,0,0,response1disk,2,84,0,-3,1,0,0,rectangle,83,-37,1,0,0,5,5,1.90163,-3,1,1,0,0,0,83,83,55,1,1,response3disk_3,rectangle,,,,,,,,,,,,,,,,,,,
,,,,,,,,,,,,,,,,,,,,,,,,,,,,,,,,,,,,,,,,,,5a06f0579b760100013a6d8c,6068482302d74db6f9917386,2021-04-03_12h50.11.800,Colour_Similarity_Experiment,2020.2.10,Win32,60,60674ec340277cd6a308bc9f,16.82922456,16.69180595,16.6902401,16.68154522,16.68656975,16.6902401,,,,,,,,,,,,,,,,,,,,PF,strong,3,,,,,,,,6,1.669825,,,,,,,,,,,,,,,,,,,,,,,,,,,,2,strong,99,40,1,0,0,response1disk,7,85,-2,-2,1,0,0,rectangle,-2,-2,1,0,0,5,1,0.002185,-2,-2,1,0,0,0,84,84,63,1,0,,,,,,,,,,,,,,,,,,,,,
,,,,,,,,,,,,,,,,,,,,,,,,,,,,,,,,,,,,,,,,,,5a06f0579b760100013a6d8c,6068482302d74db6f9917386,2021-04-03_12h50.11.800,Colour_Similarity_Experiment,2020.2.10,Win32,60,60674ec340277cd6a308bc9f,16.82922456,16.69180595,16.6902401,16.68154522,16.68656975,16.6902401,,,,,,,,,,,,,,,,,,,,PF,weak,3,,,,,,,,7,1.19977,,,,,,,,,,,,,,,,,,,,,,,,,,,,6,weak,29,103,1,0,0,response1disk,4,86,-4,0,1,0,0,rectangle,-4,0,1,0,0,5,0,0.00392,-4,0,1,0,0,0,85,85,33,1,0,,,,,,,,,,,,,,,,,,,,,
,,,,,,,,,,,,,,,,,,,,,,,,,,,,,,,,,,,,,,,,,,5a06f0579b760100013a6d8c,6068482302d74db6f9917386,2021-04-03_12h50.11.800,Colour_Similarity_Experiment,2020.2.10,Win32,60,60674ec340277cd6a308bc9f,16.82922456,16.69180595,16.6902401,16.68154522,16.68656975,16.6902401,,,,,,,,,,,,,,,,,,,,PF,weak,3,,,,,,,,7,0.91813,,,,,,,,,,,,,,,,,,,,,,,,,,,,4,weak,32,98,1,0,0,response1disk,1,87,0,-4,1,0,0,rectangle,0,-4,1,0,0,5,0,0.00174,0,-4,1,0,0,0,86,86,115,1,0,,,,,,,,,,,,,,,,,,,,,
,,,,,,,,,,,,,,,,,,,,,,,,,,,,,,,,,,,,,,,,,,5a06f0579b760100013a6d8c,6068482302d74db6f9917386,2021-04-03_12h50.11.800,Colour_Similarity_Experiment,2020.2.10,Win32,60,60674ec340277cd6a308bc9f,16.82922456,16.69180595,16.6902401,16.68154522,16.68656975,16.6902401,,,,,,,,,,,,,,,,,,,,PF,weak,3,,,,,,,,7,1.01827,,,,,,,,,,,,,,,,,,,,,,,,,,,,3,weak,47,98,1,0,0,response1disk,1,88,-3,-1,1,0,0,rectangle,-3,-1,1,0,0,5,6,0.00361,-3,-1,1,0,0,0,87,87,96,1,0,,,,,,,,,,,,,,,,,,,,,
,,,,,,,,,,,,,,,,,,,,,,,,,,,,,,,,,,,,,,,,,,5a06f0579b760100013a6d8c,6068482302d74db6f9917386,2021-04-03_12h50.11.800,Colour_Similarity_Experiment,2020.2.10,Win32,60,60674ec340277cd6a308bc9f,16.82922456,16.69180595,16.6902401,16.68154522,16.68656975,16.6902401,,,,,,,,,,,,,,,,,,,,PF,strong,3,,,,,,,,7,1.08487,,,,,,,,,,,,,,,,,,,,,,,,,,,,4,strong,42,104,1,0,0,response1disk,7,89,-4,4,1,0,0,rectangle,-4,4,1,0,0,5,5,0.00374,-4,4,1,0,0,0,88,88,87,1,0,,,,,,,,,,,,,,,,,,,,,
,,,,,,,,,,,,,,,,,,,,,,,,,,,,,,,,,,,,,,,,,,5a06f0579b760100013a6d8c,6068482302d74db6f9917386,2021-04-03_12h50.11.800,Colour_Similarity_Experiment,2020.2.10,Win32,60,60674ec340277cd6a308bc9f,16.82922456,16.69180595,16.6902401,16.68154522,16.68656975,16.6902401,,,,,,,,,,,,,,,,,,,,PF,strong,3,,,,,,,,6,2.485555,,,,,,,,,,,,,,,,,,,,,,,,,,,,6,strong,96,42,1,0,0,response1disk,3,90,-3,0,1,0,0,rectangle,-3,0,1,0,0,5,4,0.00367,-3,0,1,0,0,0,89,89,21,1,0,,,,,,,,,,,,,,,,,,,,,
,,,,,,,,,,,,,,,,,,,,,,,,,,,,,,,,,,,,,,,,,,5a06f0579b760100013a6d8c,6068482302d74db6f9917386,2021-04-03_12h50.11.800,Colour_Similarity_Experiment,2020.2.10,Win32,60,60674ec340277cd6a308bc9f,16.82922456,16.69180595,16.6902401,16.68154522,16.68656975,16.6902401,,,,,,,,,,,,,,,,,,,,PF,strong,3,,,,,,,,7,1.001435,,,,,,,,,,,,,,,,,,,,,,,,,,,,3,strong,35,118,1,0,0,response1disk,1,91,-1,2,1,0,0,rectangle,-1,2,1,0,0,5,3,0.005185,-1,2,1,0,0,0,90,90,125,1,0,,,,,,,,,,,,,,,,,,,,,
,,,,,,,,,,,,,,,,,,,,,,,,,,,,,,,,,,,,,,,,,,5a06f0579b760100013a6d8c,6068482302d74db6f9917386,2021-04-03_12h50.11.800,Colour_Similarity_Experiment,2020.2.10,Win32,60,60674ec340277cd6a308bc9f,16.82922456,16.69180595,16.6902401,16.68154522,16.68656975,16.6902401,,,,,,,,,,,,,,,,,,,,PF,strong,3,,,,,,,,6,1.38521,,,,,,,,,,,,,,,,,,,,,,,,,,,,8,strong,89,39,1,0,0,response1disk,3,92,-5,-1,1,0,0,rectangle,-5,-1,1,0,0,5,0,0.00372,-5,-1,1,0,0,0,91,91,154,1,0,,,,,,,,,,,,,,,,,,,,,
,,,,,,,,,,,,,,,,,,,,,,,,,,,,,,,,,,,,,,,,,,5a06f0579b760100013a6d8c,6068482302d74db6f9917386,2021-04-03_12h50.11.800,Colour_Similarity_Experiment,2020.2.10,Win32,60,60674ec340277cd6a308bc9f,16.82922456,16.69180595,16.6902401,16.68154522,16.68656975,16.6902401,,,,,,,,,,,,,,,,,,,,PF,strong,3,,,,,,,,7,1.367955,,,,,,,,,,,,,,,,,,,,,,,,,,,,1,strong,35,87,1,0,0,response1disk,4,93,0,-1,1,0,0,rectangle,0,-1,1,0,0,5,1,0.003535,0,-1,1,0,0,0,92,92,135,1,0,,,,,,,,,,,,,,,,,,,,,
,,,,,,,,,,,,,,,,,,,,,,,,,,,,,,,,,,,,,,,,,,5a06f0579b760100013a6d8c,6068482302d74db6f9917386,2021-04-03_12h50.11.800,Colour_Similarity_Experiment,2020.2.10,Win32,60,60674ec340277cd6a308bc9f,16.82922456,16.69180595,16.6902401,16.68154522,16.68656975,16.6902401,,,,,,,,,,,,,,,,,,,,PF,strong,3,,,,,,,,7,1.016855,,,,,,,,,,,,,,,,,,,,,,,,,,,,8,strong,44,94,1,0,0,response1disk,1,94,3,2,1,0,0,rectangle,3,2,1,0,0,5,0,0.003095,3,2,1,0,0,0,93,93,20,1,0,,,,,,,,,,,,,,,,,,,,,
,,,,,,,,,,,,,,,,,,,,,,,,,,,,,,,,,,,,,,,,,,5a06f0579b760100013a6d8c,6068482302d74db6f9917386,2021-04-03_12h50.11.800,Colour_Similarity_Experiment,2020.2.10,Win32,60,60674ec340277cd6a308bc9f,16.82922456,16.69180595,16.6902401,16.68154522,16.68656975,16.6902401,,,,,,,,,,,,,,,,,,,,PF,weak,3,,,,,,,,7,1.120725,,,,,,,,,,,,,,,,,,,,,,,,,,,,1,weak,37,98,1,0,0,response1disk,8,95,0,0,1,0,0,rectangle,0,0,1,0,0,5,0,0.00069,0,0,1,0,0,0,94,94,65,1,0,,,,,,,,,,,,,,,,,,,,,
,,,,,,,,,,,,,,,,,,,,,,,,,,,,,,,,,,,,,,,,,,5a06f0579b760100013a6d8c,6068482302d74db6f9917386,2021-04-03_12h50.11.800,Colour_Similarity_Experiment,2020.2.10,Win32,60,60674ec340277cd6a308bc9f,16.82922456,16.69180595,16.6902401,16.68154522,16.68656975,16.6902401,,,,,,,,,,,,,,,,,,,,PF,weak,3,,,,,,,,7,0.85293,,,,,,,,,,,,,,,,,,,,,,,,,,,,4,weak,42,93,1,0,0,response1disk,7,96,-3,0,1,0,0,rectangle,-3,0,1,0,0,5,6,0.00366,-3,0,1,0,0,0,95,95,38,1,0,,,,,,,,,,,,,,,,,,,,,
,,,,,,,,,,,,,,,,,,,,,,,,,,,,,,,,,,,,,,,,,,5a06f0579b760100013a6d8c,6068482302d74db6f9917386,2021-04-03_12h50.11.800,Colour_Similarity_Experiment,2020.2.10,Win32,60,60674ec340277cd6a308bc9f,16.82922456,16.69180595,16.6902401,16.68154522,16.68656975,16.6902401,,,,,,,,,,,,,,,,,,,,PF,weak,3,,,,,,,,7,0.69573,,,,,,,,,,,,,,,,,,,,,,,,,,,,5,weak,42,114,1,0,0,response1disk,6,97,3,0,1,0,0,rectangle,3,0,1,0,0,5,1,0.002535,3,0,1,0,0,0,96,96,103,1,0,,,,,,,,,,,,,,,,,,,,,
,,,,,,,,,,,,,,,,,,,,,,,,,,,,,,,,,,,,,,,,,,5a06f0579b760100013a6d8c,6068482302d74db6f9917386,2021-04-03_12h50.11.800,Colour_Similarity_Experiment,2020.2.10,Win32,60,60674ec340277cd6a308bc9f,16.82922456,16.69180595,16.6902401,16.68154522,16.68656975,16.6902401,,,,,,,,,,,,,,,,,,,,PF,strong,3,,,,,,,,7,0.934885,,,,,,,,,,,,,,,,,,,,,,,,,,,,9,strong,35,102,1,0,0,response1disk,8,98,5,-2,1,0,0,rectangle,5,-2,1,0,0,5,6,0.003925,5,-2,1,0,0,0,97,97,6,1,0,,,,,,,,,,,,,,,,,,,,,
,,,,,,,,,,,,,,,,,,,,,,,,,,,,,,,,,,,,,,,,,,5a06f0579b760100013a6d8c,6068482302d74db6f9917386,2021-04-03_12h50.11.800,Colour_Similarity_Experiment,2020.2.10,Win32,60,60674ec340277cd6a308bc9f,16.82922456,16.69180595,16.6902401,16.68154522,16.68656975,16.6902401,,,,,,,,,,,,,,,,,,,,PF,weak,3,,,,,,,,7,1.101615,,,,,,,,,,,,,,,,,,,,,,,,,,,,4,weak,35,103,1,0,0,response1disk,9,99,3,1,1,0,0,rectangle,3,1,1,0,0,5,5,0.004135,3,1,1,0,0,0,98,98,75,1,0,,,,,,,,,,,,,,,,,,,,,
,,,,,,,,,,,,,,,,,,,,,,,,,,,,,,,,,,,,,,,,,,5a06f0579b760100013a6d8c,6068482302d74db6f9917386,2021-04-03_12h50.11.800,Colour_Similarity_Experiment,2020.2.10,Win32,60,60674ec340277cd6a308bc9f,16.82922456,16.69180595,16.6902401,16.68154522,16.68656975,16.6902401,,,,,,,,,,,,,,,,,,,,PF,weak,3,,,,,,,,4,1.66761,,,,,,,,,,,,,,,,,,,,,,,,,,,,1,weak,29,-86,1,0,0,response3disk,9,100,2,0,1,0,0,rectangle,2,0,1,0,0,5,7,0.00375,2,0,1,0,0,0,99,99,15,1,0,,,,,,,,,,,,,,,,,,,,,
,,,,,,,,,,,,,,,,,,,,,,,,,,,,,,,,,,,,,,,,,,5a06f0579b760100013a6d8c,6068482302d74db6f9917386,2021-04-03_12h50.11.800,Colour_Similarity_Experiment,2020.2.10,Win32,60,60674ec340277cd6a308bc9f,16.82922456,16.69180595,16.6902401,16.68154522,16.68656975,16.6902401,,,,,,,,,,,,,,,,,,,,PF,strong,3,,,,,,,,7,1.184915,,,,,,,,,,,,,,,,,,,,,,,,,,,,1,strong,58,111,1,0,0,response1disk,5,101,10,0,1,0,0,rectangle,10,0,1,0,0,5,5,0.00368,10,0,1,0,0,0,100,100,82,1,0,,,,,,,,,,,,,,,,,,,,,
,,,,,,,,,,,,,,,,,,,,,,,,,,,,,,,,,,,,,,,,,,5a06f0579b760100013a6d8c,6068482302d74db6f9917386,2021-04-03_12h50.11.800,Colour_Similarity_Experiment,2020.2.10,Win32,60,60674ec340277cd6a308bc9f,16.82922456,16.69180595,16.6902401,16.68154522,16.68656975,16.6902401,,,,,,,,,,,,,,,,,,,,PF,strong,3,,,,,,,,3,1.249225,,,,,,,,,,,,,,,,,,,,,,,,,,,,1,strong,-40,-82,1,0,0,response5disk,9,102,4,-1,1,0,0,rectangle,4,-1,1,0,0,5,2,0.00223,4,-1,1,0,0,0,101,101,123,1,0,,,,,,,,,,,,,,,,,,,,,
,,,,,,,,,,,,,,,,,,,,,,,,,,,,,,,,,,,,,,,,,,5a06f0579b760100013a6d8c,6068482302d74db6f9917386,2021-04-03_12h50.11.800,Colour_Similarity_Experiment,2020.2.10,Win32,60,60674ec340277cd6a308bc9f,16.82922456,16.69180595,16.6902401,16.68154522,16.68656975,16.6902401,,,,,,,,,,,,,,,,,,,,PF,strong,3,,,,,,,,5,2.736315,,,,,,,,,,,,,,,,,,,,,,,,,,,,5,strong,90,-31,1,0,0,response3disk,4,103,-6,3,1,0,0,rectangle,-6,3,1,0,0,5,4,0.003895,-6,3,1,0,0,0,102,102,8,1,0,,,,,,,,,,,,,,,,,,,,,
,,,,,,,,,,,,,,,,,,,,,,,,,,,,,,,,,,,,,,,,,,5a06f0579b760100013a6d8c,6068482302d74db6f9917386,2021-04-03_12h50.11.800,Colour_Similarity_Experiment,2020.2.10,Win32,60,60674ec340277cd6a308bc9f,16.82922456,16.69180595,16.6902401,16.68154522,16.68656975,16.6902401,,,,,,,,,,,,,,,,,,,,PF,strong,3,,,,,,,,7,1.268185,,,,,,,,,,,,,,,,,,,,,,,,,,,,4,strong,44,97,1,0,0,response1disk,9,104,-2,4,1,0,0,rectangle,-2,4,1,0,0,5,7,0.00366,-2,4,1,0,0,0,103,103,90,1,0,,,,,,,,,,,,,,,,,,,,,
,,,,,,,,,,,,,,,,,,,,,,,,,,,,,,,,,,,,,,,,,,5a06f0579b760100013a6d8c,6068482302d74db6f9917386,2021-04-03_12h50.11.800,Colour_Similarity_Experiment,2020.2.10,Win32,60,60674ec340277cd6a308bc9f,16.82922456,16.69180595,16.6902401,16.68154522,16.68656975,16.6902401,,,,,,,,,,,,,,,,,,,,PF,weak,3,,,,,,,,2,1.25134,,,,,,,,,,,,,,,,,,,,,,,,,,,,9,weak,-78,-40,1,0,0,response5disk,9,105,0,2,1,0,0,rectangle,0,2,1,0,0,5,0,0.00342,0,2,1,0,0,0,104,104,106,1,0,,,,,,,,,,,,,,,,,,,,,
,,,,,,,,,,,,,,,,,,,,,,,,,,,,,,,,,,,,,,,,,,5a06f0579b760100013a6d8c,6068482302d74db6f9917386,2021-04-03_12h50.11.800,Colour_Similarity_Experiment,2020.2.10,Win32,60,60674ec340277cd6a308bc9f,16.82922456,16.69180595,16.6902401,16.68154522,16.68656975,16.6902401,,,,,,,,,,,,,,,,,,,,PF,strong,3,,,,,,,,7,1.085165,,,,,,,,,,,,,,,,,,,,,,,,,,,,3,strong,28,90,1,0,0,response1disk,2,106,1,5,1,0,0,rectangle,1,5,1,0,0,5,4,0.003465,1,5,1,0,0,0,105,105,93,1,0,,,,,,,,,,,,,,,,,,,,,
,,,,,,,,,,,,,,,,,,,,,,,,,,,,,,,,,,,,,,,,,,5a06f0579b760100013a6d8c,6068482302d74db6f9917386,2021-04-03_12h50.11.800,Colour_Similarity_Experiment,2020.2.10,Win32,60,60674ec340277cd6a308bc9f,16.82922456,16.69180595,16.6902401,16.68154522,16.68656975,16.6902401,,,,,,,,,,,,,,,,,,,,PF,weak,3,,,,,,,,3,1.11731,,,,,,,,,,,,,,,,,,,,,,,,,,,,4,weak,-58,-80,1,0,0,response5disk,5,107,0,1,1,0,0,rectangle,0,1,1,0,0,5,2,0.003305,0,1,1,0,0,0,106,106,49,1,0,,,,,,,,,,,,,,,,,,,,,
,,,,,,,,,,,,,,,,,,,,,,,,,,,,,,,,,,,,,,,,,,5a06f0579b760100013a6d8c,6068482302d74db6f9917386,2021-04-03_12h50.11.800,Colour_Similarity_Experiment,2020.2.10,Win32,60,60674ec340277cd6a308bc9f,16.82922456,16.69180595,16.6902401,16.68154522,16.68656975,16.6902401,,,,,,,,,,,,,,,,,,,,PF,weak,3,,,,,,,,7,1.14971,,,,,,,,,,,,,,,,,,,,,,,,,,,,6,weak,32,87,1,0,0,response1disk,3,108,-3,-3,1,0,0,rectangle,-3,-3,1,0,0,5,3,0.003525,-3,-3,1,0,0,0,107,107,26,1,0,,,,,,,,,,,,,,,,,,,,,
,,,,,,,,,,,,,,,,,,,,,,,,,,,,,,,,,,,,,,,,,,5a06f0579b760100013a6d8c,6068482302d74db6f9917386,2021-04-03_12h50.11.800,Colour_Similarity_Experiment,2020.2.10,Win32,60,60674ec340277cd6a308bc9f,16.82922456,16.69180595,16.6902401,16.68154522,16.68656975,16.6902401,,,,,,,,,,,,,,,,,,,,PF,weak,3,,,,,,,,1,1.36472,,,,,,,,,,,,,,,,,,,,,,,,,,,,3,weak,-81,32,1,0,0,response7disk,4,109,-1,0,1,0,0,rectangle,-1,0,1,0,0,5,2,0.00239,-1,0,1,0,0,0,108,108,30,1,0,,,,,,,,,,,,,,,,,,,,,
,,,,,,,,,,,,,,,,,,,,,,,,,,,,,,,,,,,,,,,,,,5a06f0579b760100013a6d8c,6068482302d74db6f9917386,2021-04-03_12h50.11.800,Colour_Similarity_Experiment,2020.2.10,Win32,60,60674ec340277cd6a308bc9f,16.82922456,16.69180595,16.6902401,16.68154522,16.68656975,16.6902401,,,,,,,,,,,,,,,,,,,,PF,weak,3,,,,,,,,2,1.16982,,,,,,,,,,,,,,,,,,,,,,,,,,,,8,weak,-85,-59,1,0,0,response5disk,7,110,0,3,1,0,0,rectangle,0,3,1,0,0,5,5,0.002355,0,3,1,0,0,0,109,109,23,1,0,,,,,,,,,,,,,,,,,,,,,
,,,,,,,,,,,,,,,,,,,,,,,,,,,,,,,,,,,,,,,,,,5a06f0579b760100013a6d8c,6068482302d74db6f9917386,2021-04-03_12h50.11.800,Colour_Similarity_Experiment,2020.2.10,Win32,60,60674ec340277cd6a308bc9f,16.82922456,16.69180595,16.6902401,16.68154522,16.68656975,16.6902401,,,,,,,,,,,,,,,,,,,,PF,weak,3,,,,,,,,7,1.59594,,,,,,,,,,,,,,,,,,,,,,,,,,,,2,weak,40,89,1,0,0,response1disk,7,111,-3,-2,1,0,0,rectangle,-3,-2,1,0,0,5,0,0.0028,-3,-2,1,0,0,0,110,110,107,1,0,,,,,,,,,,,,,,,,,,,,,
,,,,,,,,,,,,,,,,,,,,,,,,,,,,,,,,,,,,,,,,,,5a06f0579b760100013a6d8c,6068482302d74db6f9917386,2021-04-03_12h50.11.800,Colour_Similarity_Experiment,2020.2.10,Win32,60,60674ec340277cd6a308bc9f,16.82922456,16.69180595,16.6902401,16.68154522,16.68656975,16.6902401,,,,,,,,,,,,,,,,,,,,PF,weak,3,,,,,,,,5,1.586955,,,,,,,,,,,,,,,,,,,,,,,,,,,,5,weak,86,-38,1,0,0,response3disk,7,112,2,2,1,0,0,rectangle,2,2,1,0,0,5,0,0.000735,2,2,1,0,0,0,111,111,146,1,0,,,,,,,,,,,,,,,,,,,,,
,,,,,,,,,,,,,,,,,,,,,,,,,,,,,,,,,,,,,,,,,,5a06f0579b760100013a6d8c,6068482302d74db6f9917386,2021-04-03_12h50.11.800,Colour_Similarity_Experiment,2020.2.10,Win32,60,60674ec340277cd6a308bc9f,16.82922456,16.69180595,16.6902401,16.68154522,16.68656975,16.6902401,,,,,,,,,,,,,,,,,,,,PF,weak,3,,,,,,,,7,1.229415,,,,,,,,,,,,,,,,,,,,,,,,,,,,5,weak,49,104,1,0,0,response1disk,8,113,7,3,1,0,0,rectangle,7,3,1,0,0,5,6,0.002375,7,3,1,0,0,0,112,112,149,1,0,,,,,,,,,,,,,,,,,,,,,
,,,,,,,,,,,,,,,,,,,,,,,,,,,,,,,,,,,,,,,,,,5a06f0579b760100013a6d8c,6068482302d74db6f9917386,2021-04-03_12h50.11.800,Colour_Similarity_Experiment,2020.2.10,Win32,60,60674ec340277cd6a308bc9f,16.82922456,16.69180595,16.6902401,16.68154522,16.68656975,16.6902401,,,,,,,,,,,,,,,,,,,,PF,weak,3,,,,,,,,7,1.05216,,,,,,,,,,,,,,,,,,,,,,,,,,,,4,weak,41,96,1,0,0,response1disk,2,114,3,2,1,0,0,rectangle,3,2,1,0,0,5,5,0.003975,3,2,1,0,0,0,113,113,108,1,0,,,,,,,,,,,,,,,,,,,,,
,,,,,,,,,,,,,,,,,,,,,,,,,,,,,,,,,,,,,,,,,,5a06f0579b760100013a6d8c,6068482302d74db6f9917386,2021-04-03_12h50.11.800,Colour_Similarity_Experiment,2020.2.10,Win32,60,60674ec340277cd6a308bc9f,16.82922456,16.69180595,16.6902401,16.68154522,16.68656975,16.6902401,,,,,,,,,,,,,,,,,,,,PF,weak,3,,,,,,,,6,1.43539,,,,,,,,,,,,,,,,,,,,,,,,,,,,9,weak,91,41,1,0,0,response1disk,8,115,-5,9,1,0,0,rectangle,-5,9,1,0,0,5,3,0.00318,-5,9,1,0,0,0,114,114,67,1,0,,,,,,,,,,,,,,,,,,,,,
,,,,,,,,,,,,,,,,,,,,,,,,,,,,,,,,,,,,,,,,,,5a06f0579b760100013a6d8c,6068482302d74db6f9917386,2021-04-03_12h50.11.800,Colour_Similarity_Experiment,2020.2.10,Win32,60,60674ec340277cd6a308bc9f,16.82922456,16.69180595,16.6902401,16.68154522,16.68656975,16.6902401,,,,,,,,,,,,,,,,,,,,PF,weak,3,,,,,,,,7,0.901695,,,,,,,,,,,,,,,,,,,,,,,,,,,,8,weak,51,95,1,0,0,response1disk,9,116,0,6,1,0,0,rectangle,0,6,1,0,0,5,7,0.004155,0,6,1,0,0,0,115,115,42,1,0,,,,,,,,,,,,,,,,,,,,,
,,,,,,,,,,,,,,,,,,,,,,,,,,,,,,,,,,,,,,,,,,5a06f0579b760100013a6d8c,6068482302d74db6f9917386,2021-04-03_12h50.11.800,Colour_Similarity_Experiment,2020.2.10,Win32,60,60674ec340277cd6a308bc9f,16.82922456,16.69180595,16.6902401,16.68154522,16.68656975,16.6902401,,,,,,,,,,,,,,,,,,,,PF,strong,3,,,,,,,,3,1.636335,,,,,,,,,,,,,,,,,,,,,,,,,,,,9,strong,-41,-79,1,0,0,response5disk,9,117,-8,6,1,0,0,rectangle,-8,6,1,0,0,5,3,0.003045,-8,6,1,0,0,0,116,116,17,1,0,,,,,,,,,,,,,,,,,,,,,
,,,,,,,,,,,,,,,,,,,,,,,,,,,,,,,,,,,,,,,,,,5a06f0579b760100013a6d8c,6068482302d74db6f9917386,2021-04-03_12h50.11.800,Colour_Similarity_Experiment,2020.2.10,Win32,60,60674ec340277cd6a308bc9f,16.82922456,16.69180595,16.6902401,16.68154522,16.68656975,16.6902401,,,,,,,,,,,,,,,,,,,,PF,strong,3,,,,,,,,7,2.286855,,,,,,,,,,,,,,,,,,,,,,,,,,,,7,strong,47,95,1,0,0,response1disk,1,118,2,1,1,0,0,rectangle,2,1,1,0,0,5,7,0.003515,2,1,1,0,0,0,117,117,132,1,0,,,,,,,,,,,,,,,,,,,,,
,,,,,,,,,,,,,,,,,,,,,,,,,,,,,,,,,,,,,,,,,,5a06f0579b760100013a6d8c,6068482302d74db6f9917386,2021-04-03_12h50.11.800,Colour_Similarity_Experiment,2020.2.10,Win32,60,60674ec340277cd6a308bc9f,16.82922456,16.69180595,16.6902401,16.68154522,16.68656975,16.6902401,,,,,,,,,,,,,,,,,,,,PF,strong,3,,,,,,,,5,1.76917,,,,,,,,,,,,,,,,,,,,,,,,,,,,7,strong,71,-50,1,0,0,response3disk,5,119,2,-2,1,0,0,rectangle,2,-2,1,0,0,5,5,0.003495,2,-2,1,0,0,0,118,118,156,1,0,,,,,,,,,,,,,,,,,,,,,
,,,,,,,,,,,,,,,,,,,,,,,,,,,,,,,,,,,,,,,,,,5a06f0579b760100013a6d8c,6068482302d74db6f9917386,2021-04-03_12h50.11.800,Colour_Similarity_Experiment,2020.2.10,Win32,60,60674ec340277cd6a308bc9f,16.82922456,16.69180595,16.6902401,16.68154522,16.68656975,16.6902401,,,,,,,,,,,,,,,,,,,,PF,strong,3,,,,,,,,2,1.46394,,,,,,,,,,,,,,,,,,,,,,,,,,,,7,strong,-81,-48,1,0,0,response5disk,6,120,8,2,1,0,0,rectangle,8,2,1,0,0,5,2,0.00405,8,2,1,0,0,0,119,119,31,1,0,,,,,,,,,,,,,,,,,,,,,
,,,,,,,,,,,,,,,,,,,,,,,,,,,,,,,,,,,,,,,,,,5a06f0579b760100013a6d8c,6068482302d74db6f9917386,2021-04-03_12h50.11.800,Colour_Similarity_Experiment,2020.2.10,Win32,60,60674ec340277cd6a308bc9f,16.82922456,16.69180595,16.6902401,16.68154522,16.68656975,16.6902401,,,,,,,,,,,,,,,,,,,,PF,strong,3,,,,,,,,3,1.237695,,,,,,,,,,,,,,,,,,,,,,,,,,,,6,strong,-40,-78,1,0,0,response5disk,5,121,2,3,1,0,0,rectangle,2,3,1,0,0,5,2,0.00128,2,3,1,0,0,0,120,120,126,1,0,,,,,,,,,,,,,,,,,,,,,
,,,,,,,,,,,,,,,,,,,,,,,,,,,,,,,,,,,,,,,,,,5a06f0579b760100013a6d8c,6068482302d74db6f9917386,2021-04-03_12h50.11.800,Colour_Similarity_Experiment,2020.2.10,Win32,60,60674ec340277cd6a308bc9f,16.82922456,16.69180595,16.6902401,16.68154522,16.68656975,16.6902401,,,,,,,,,,,,,,,,,,,,PF,weak,3,,,,,,,,7,1.002035,,,,,,,,,,,,,,,,,,,,,,,,,,,,3,weak,46,104,1,0,0,response1disk,9,122,-10,6,1,0,0,rectangle,-10,6,1,0,0,5,1,0.003535,-10,6,1,0,0,0,121,121,79,1,0,,,,,,,,,,,,,,,,,,,,,
,,,,,,,,,,,,,,,,,,,,,,,,,,,,,,,,,,,,,,,,,,5a06f0579b760100013a6d8c,6068482302d74db6f9917386,2021-04-03_12h50.11.800,Colour_Similarity_Experiment,2020.2.10,Win32,60,60674ec340277cd6a308bc9f,16.82922456,16.69180595,16.6902401,16.68154522,16.68656975,16.6902401,,,,,,,,,,,,,,,,,,,,PF,weak,3,,,,,,,,7,0.932875,,,,,,,,,,,,,,,,,,,,,,,,,,,,8,weak,42,80,1,0,0,response1disk,4,123,-5,7,1,0,0,rectangle,-5,7,1,0,0,5,3,0.002475,-5,7,1,0,0,0,122,122,78,1,0,,,,,,,,,,,,,,,,,,,,,
,,,,,,,,,,,,,,,,,,,,,,,,,,,,,,,,,,,,,,,,,,5a06f0579b760100013a6d8c,6068482302d74db6f9917386,2021-04-03_12h50.11.800,Colour_Similarity_Experiment,2020.2.10,Win32,60,60674ec340277cd6a308bc9f,16.82922456,16.69180595,16.6902401,16.68154522,16.68656975,16.6902401,,,,,,,,,,,,,,,,,,,,PF,weak,3,,,,,,,,7,1.08471,,,,,,,,,,,,,,,,,,,,,,,,,,,,3,weak,42,86,1,0,0,response1disk,7,124,3,0,1,0,0,rectangle,3,0,1,0,0,5,4,0.00355,3,0,1,0,0,0,123,123,41,1,0,,,,,,,,,,,,,,,,,,,,,
,,,,,,,,,,,,,,,,,,,,,,,,,,,,,,,,,,,,,,,,,,5a06f0579b760100013a6d8c,6068482302d74db6f9917386,2021-04-03_12h50.11.800,Colour_Similarity_Experiment,2020.2.10,Win32,60,60674ec340277cd6a308bc9f,16.82922456,16.69180595,16.6902401,16.68154522,16.68656975,16.6902401,,,,,,,,,,,,,,,,,,,,PF,strong,3,,,,,,,,7,1.886775,,,,,,,,,,,,,,,,,,,,,,,,,,,,1,strong,40,80,1,0,0,response1disk,2,125,5,2,1,0,0,rectangle,5,2,1,0,0,5,5,0.003305,5,2,1,0,0,0,124,124,2,1,0,,,,,,,,,,,,,,,,,,,,,
,,,,,,,,,,,,,,,,,,,,,,,,,,,,,,,,,,,,,,,,,,5a06f0579b760100013a6d8c,6068482302d74db6f9917386,2021-04-03_12h50.11.800,Colour_Similarity_Experiment,2020.2.10,Win32,60,60674ec340277cd6a308bc9f,16.82922456,16.69180595,16.6902401,16.68154522,16.68656975,16.6902401,,,,,,,,,,,,,,,,,,,,PF,weak,3,,,,,,,,6,0.934105,,,,,,,,,,,,,,,,,,,,,,,,,,,,2,weak,87,30,1,0,0,response1disk,4,126,9,2,1,0,0,rectangle,9,2,1,0,0,5,2,0.003245,9,2,1,0,0,0,125,125,127,1,0,,,,,,,,,,,,,,,,,,,,,
,,,,,,,,,,,,,,,,,,,,,,,,,,,,,,,,,,,,,,,,,,5a06f0579b760100013a6d8c,6068482302d74db6f9917386,2021-04-03_12h50.11.800,Colour_Similarity_Experiment,2020.2.10,Win32,60,60674ec340277cd6a308bc9f,16.82922456,16.69180595,16.6902401,16.68154522,16.68656975,16.6902401,,,,,,,,,,,,,,,,,,,,PF,weak,3,,,,,,,,2,1.0519,,,,,,,,,,,,,,,,,,,,,,,,,,,,6,weak,-72,-35,1,0,0,response5disk,6,127,-4,3,1,0,0,rectangle,-4,3,1,0,0,5,2,0.00071,-4,3,1,0,0,0,126,126,0,1,0,,,,,,,,,,,,,,,,,,,,,
,,,,,,,,,,,,,,,,,,,,,,,,,,,,,,,,,,,,,,,,,,5a06f0579b760100013a6d8c,6068482302d74db6f9917386,2021-04-03_12h50.11.800,Colour_Similarity_Experiment,2020.2.10,Win32,60,60674ec340277cd6a308bc9f,16.82922456,16.69180595,16.6902401,16.68154522,16.68656975,16.6902401,,,,,,,,,,,,,,,,,,,,PF,strong,3,,,,,,,,4,1.60092,,,,,,,,,,,,,,,,,,,,,,,,,,,,4,strong,35,-86,1,0,0,response3disk,6,128,-2,-1,1,0,0,rectangle,-2,-1,1,0,0,5,6,0.003785,-2,-1,1,0,0,0,127,127,122,1,0,,,,,,,,,,,,,,,,,,,,,
,,,,,,,,,,,,,,,,,,,,,,,,,,,,,,,,,,,,,,,,,,5a06f0579b760100013a6d8c,6068482302d74db6f9917386,2021-04-03_12h50.11.800,Colour_Similarity_Experiment,2020.2.10,Win32,60,60674ec340277cd6a308bc9f,16.82922456,16.69180595,16.6902401,16.68154522,16.68656975,16.6902401,,,,,,,,,,,,,,,,,,,,PF,strong,3,,,,,,,,5,8.060585,,,,,,,,,,,,,,,,,,,,,,,,,,,,6,strong,66,-35,1,0,0,response3disk,2,129,-1,0,1,0,0,rectangle,-1,0,1,0,0,5,5,0.003355,-1,0,1,0,0,0,128,128,112,1,0,,,,,,,,,,,,,,,,,,,,,
,,,,,,,,,,,,,,,,,,,,,,,,,,,,,,,,,,,,,,,,,,5a06f0579b760100013a6d8c,6068482302d74db6f9917386,2021-04-03_12h50.11.800,Colour_Similarity_Experiment,2020.2.10,Win32,60,60674ec340277cd6a308bc9f,16.82922456,16.69180595,16.6902401,16.68154522,16.68656975,16.6902401,,,,,,,,,,,,,,,,,,,,PF,strong,3,,,,,,,,5,2.220395,,,,,,,,,,,,,,,,,,,,,,,,,,,,5,strong,75,-46,1,0,0,response3disk,8,130,-2,-3,1,0,0,rectangle,-2,-3,1,0,0,5,6,0.00386,-2,-3,1,0,0,0,129,129,16,1,0,,,,,,,,,,,,,,,,,,,,,
,,,,,,,,,,,,,,,,,,,,,,,,,,,,,,,,,,,,,,,,,,5a06f0579b760100013a6d8c,6068482302d74db6f9917386,2021-04-03_12h50.11.800,Colour_Similarity_Experiment,2020.2.10,Win32,60,60674ec340277cd6a308bc9f,16.82922456,16.69180595,16.6902401,16.68154522,16.68656975,16.6902401,,,,,,,,,,,,,,,,,,,,PF,weak,3,,,,,,,,4,1.151725,,,,,,,,,,,,,,,,,,,,,,,,,,,,8,weak,60,-85,1,0,0,response3disk,5,131,-7,2,1,0,0,rectangle,-7,2,1,0,0,5,0,0.00319,-7,2,1,0,0,0,130,130,98,1,0,,,,,,,,,,,,,,,,,,,,,
,,,,,,,,,,,,,,,,,,,,,,,,,,,,,,,,,,,,,,,,,,5a06f0579b760100013a6d8c,6068482302d74db6f9917386,2021-04-03_12h50.11.800,Colour_Similarity_Experiment,2020.2.10,Win32,60,60674ec340277cd6a308bc9f,16.82922456,16.69180595,16.6902401,16.68154522,16.68656975,16.6902401,,,,,,,,,,,,,,,,,,,,PF,weak,3,,,,,,,,7,1.62051,,,,,,,,,,,,,,,,,,,,,,,,,,,,3,weak,48,93,1,0,0,response1disk,8,132,-5,0,1,0,0,rectangle,-5,0,1,0,0,5,3,0.004695,-5,0,1,0,0,0,131,131,3,1,0,,,,,,,,,,,,,,,,,,,,,
,,,,,,,,,,,,,,,,,,,,,,,,,,,,,,,,,,,,,,,,,,5a06f0579b760100013a6d8c,6068482302d74db6f9917386,2021-04-03_12h50.11.800,Colour_Similarity_Experiment,2020.2.10,Win32,60,60674ec340277cd6a308bc9f,16.82922456,16.69180595,16.6902401,16.68154522,16.68656975,16.6902401,,,,,,,,,,,,,,,,,,,,PF,strong,3,,,,,,,,7,1.73612,,,,,,,,,,,,,,,,,,,,,,,,,,,,1,strong,39,109,1,0,0,response1disk,8,133,0,6,1,0,0,rectangle,0,6,1,0,0,5,5,0.00255,0,6,1,0,0,0,132,132,27,1,0,,,,,,,,,,,,,,,,,,,,,
,,,,,,,,,,,,,,,,,,,,,,,,,,,,,,,,,,,,,,,,,,5a06f0579b760100013a6d8c,6068482302d74db6f9917386,2021-04-03_12h50.11.800,Colour_Similarity_Experiment,2020.2.10,Win32,60,60674ec340277cd6a308bc9f,16.82922456,16.69180595,16.6902401,16.68154522,16.68656975,16.6902401,,,,,,,,,,,,,,,,,,,,PF,weak,3,,,,,,,,7,0.962675,,,,,,,,,,,,,,,,,,,,,,,,,,,,2,weak,52,74,1,0,0,response1disk,8,134,-1,2,1,0,0,rectangle,-1,2,1,0,0,5,2,0.00253,-1,2,1,0,0,0,133,133,52,1,0,,,,,,,,,,,,,,,,,,,,,
,,,,,,,,,,,,,,,,,,,,,,,,,,,,,,,,,,,,,,,,,,5a06f0579b760100013a6d8c,6068482302d74db6f9917386,2021-04-03_12h50.11.800,Colour_Similarity_Experiment,2020.2.10,Win32,60,60674ec340277cd6a308bc9f,16.82922456,16.69180595,16.6902401,16.68154522,16.68656975,16.6902401,,,,,,,,,,,,,,,,,,,,PF,weak,3,,,,,,,,5,1.933765,,,,,,,,,,,,,,,,,,,,,,,,,,,,9,weak,82,-32,1,0,0,response3disk,1,135,13,-4,1,0,0,rectangle,13,-4,1,0,0,5,5,0.003985,13,-4,1,0,0,0,134,134,74,1,0,,,,,,,,,,,,,,,,,,,,,
,,,,,,,,,,,,,,,,,,,,,,,,,,,,,,,,,,,,,,,,,,5a06f0579b760100013a6d8c,6068482302d74db6f9917386,2021-04-03_12h50.11.800,Colour_Similarity_Experiment,2020.2.10,Win32,60,60674ec340277cd6a308bc9f,16.82922456,16.69180595,16.6902401,16.68154522,16.68656975,16.6902401,,,,,,,,,,,,,,,,,,,,PF,strong,3,,,,,,,,7,1.13597,,,,,,,,,,,,,,,,,,,,,,,,,,,,1,strong,34,104,1,0,0,response1disk,7,136,2,-1,1,0,0,rectangle,2,-1,1,0,0,5,4,0.00264,2,-1,1,0,0,0,135,135,137,1,0,,,,,,,,,,,,,,,,,,,,,
,,,,,,,,,,,,,,,,,,,,,,,,,,,,,,,,,,,,,,,,,,5a06f0579b760100013a6d8c,6068482302d74db6f9917386,2021-04-03_12h50.11.800,Colour_Similarity_Experiment,2020.2.10,Win32,60,60674ec340277cd6a308bc9f,16.82922456,16.69180595,16.6902401,16.68154522,16.68656975,16.6902401,,,,,,,,,,,,,,,,,,,,PF,weak,3,,,,,,,,4,1.31986,,,,,,,,,,,,,,,,,,,,,,,,,,,,7,weak,45,-72,1,0,0,response3disk,5,137,-2,2,1,0,0,rectangle,-2,2,1,0,0,5,3,0.003385,-2,2,1,0,0,0,136,136,92,1,0,,,,,,,,,,,,,,,,,,,,,
,,,,,,,,,,,,,,,,,,,,,,,,,,,,,,,,,,,,,,,,,,5a06f0579b760100013a6d8c,6068482302d74db6f9917386,2021-04-03_12h50.11.800,Colour_Similarity_Experiment,2020.2.10,Win32,60,60674ec340277cd6a308bc9f,16.82922456,16.69180595,16.6902401,16.68154522,16.68656975,16.6902401,,,,,,,,,,,,,,,,,,,,PF,weak,3,,,,,,,,7,0.9348,,,,,,,,,,,,,,,,,,,,,,,,,,,,1,weak,48,96,1,0,0,response1disk,4,138,2,2,1,0,0,rectangle,2,2,1,0,0,5,2,0.003285,2,2,1,0,0,0,137,137,139,1,0,,,,,,,,,,,,,,,,,,,,,
,,,,,,,,,,,,,,,,,,,,,,,,,,,,,,,,,,,,,,,,,,5a06f0579b760100013a6d8c,6068482302d74db6f9917386,2021-04-03_12h50.11.800,Colour_Similarity_Experiment,2020.2.10,Win32,60,60674ec340277cd6a308bc9f,16.82922456,16.69180595,16.6902401,16.68154522,16.68656975,16.6902401,,,,,,,,,,,,,,,,,,,,PF,strong,3,,,,,,,,7,1.06964,,,,,,,,,,,,,,,,,,,,,,,,,,,,7,strong,37,104,1,0,0,response1disk,9,139,1,10,1,0,0,rectangle,1,10,1,0,0,5,3,0.00328,1,10,1,0,0,0,138,138,155,1,0,,,,,,,,,,,,,,,,,,,,,
,,,,,,,,,,,,,,,,,,,,,,,,,,,,,,,,,,,,,,,,,,5a06f0579b760100013a6d8c,6068482302d74db6f9917386,2021-04-03_12h50.11.800,Colour_Similarity_Experiment,2020.2.10,Win32,60,60674ec340277cd6a308bc9f,16.82922456,16.69180595,16.6902401,16.68154522,16.68656975,16.6902401,,,,,,,,,,,,,,,,,,,,PF,weak,3,,,,,,,,7,1.217985,,,,,,,,,,,,,,,,,,,,,,,,,,,,7,weak,40,82,1,0,0,response1disk,4,140,2,2,1,0,0,rectangle,2,2,1,0,0,5,4,0.003435,2,2,1,0,0,0,139,139,43,1,0,,,,,,,,,,,,,,,,,,,,,
,,,,,,,,,,,,,,,,,,,,,,,,,,,,,,,,,,,,,,,,,,5a06f0579b760100013a6d8c,6068482302d74db6f9917386,2021-04-03_12h50.11.800,Colour_Similarity_Experiment,2020.2.10,Win32,60,60674ec340277cd6a308bc9f,16.82922456,16.69180595,16.6902401,16.68154522,16.68656975,16.6902401,,,,,,,,,,,,,,,,,,,,PF,strong,3,,,,,,,,7,1.355825,,,,,,,,,,,,,,,,,,,,,,,,,,,,4,strong,46,87,1,0,0,response1disk,8,141,4,-2,1,0,0,rectangle,4,-2,1,0,0,5,4,0.000375,4,-2,1,0,0,0,140,140,35,1,0,,,,,,,,,,,,,,,,,,,,,
,,,,,,,,,,,,,,,,,,,,,,,,,,,,,,,,,,,,,,,,,,5a06f0579b760100013a6d8c,6068482302d74db6f9917386,2021-04-03_12h50.11.800,Colour_Similarity_Experiment,2020.2.10,Win32,60,60674ec340277cd6a308bc9f,16.82922456,16.69180595,16.6902401,16.68154522,16.68656975,16.6902401,,,,,,,,,,,,,,,,,,,,PF,strong,3,,,,,,,,7,1.235105,,,,,,,,,,,,,,,,,,,,,,,,,,,,7,strong,54,90,1,0,0,response1disk,3,142,7,3,1,0,0,rectangle,7,3,1,0,0,5,1,0.00952,7,3,1,0,0,0,141,141,73,1,0,,,,,,,,,,,,,,,,,,,,,
,,,,,,,,,,,,,,,,,,,,,,,,,,,,,,,,,,,,,,,,,,5a06f0579b760100013a6d8c,6068482302d74db6f9917386,2021-04-03_12h50.11.800,Colour_Similarity_Experiment,2020.2.10,Win32,60,60674ec340277cd6a308bc9f,16.82922456,16.69180595,16.6902401,16.68154522,16.68656975,16.6902401,,,,,,,,,,,,,,,,,,,,PF,strong,3,,,,,,,,7,0.984345,,,,,,,,,,,,,,,,,,,,,,,,,,,,1,strong,31,96,1,0,0,response1disk,6,143,1,5,1,0,0,rectangle,1,5,1,0,0,5,7,0.005775,1,5,1,0,0,0,142,142,58,1,0,,,,,,,,,,,,,,,,,,,,,
,,,,,,,,,,,,,,,,,,,,,,,,,,,,,,,,,,,,,,,,,,5a06f0579b760100013a6d8c,6068482302d74db6f9917386,2021-04-03_12h50.11.800,Colour_Similarity_Experiment,2020.2.10,Win32,60,60674ec340277cd6a308bc9f,16.82922456,16.69180595,16.6902401,16.68154522,16.68656975,16.6902401,,,,,,,,,,,,,,,,,,,,PF,weak,3,,,,,,,,5,1.166965,,,,,,,,,,,,,,,,,,,,,,,,,,,,3,weak,72,-27,1,0,0,response3disk,6,144,-3,-3,1,0,0,rectangle,-3,-3,1,0,0,5,0,0.00179,-3,-3,1,0,0,0,143,143,47,1,0,,,,,,,,,,,,,,,,,,,,,
,,,,,,,,,,,,,,,,,,,,,,,,,,,,,,,,,,,,,,,,,,5a06f0579b760100013a6d8c,6068482302d74db6f9917386,2021-04-03_12h50.11.800,Colour_Similarity_Experiment,2020.2.10,Win32,60,60674ec340277cd6a308bc9f,16.82922456,16.69180595,16.6902401,16.68154522,16.68656975,16.6902401,,,,,,,,,,,,,,,,,,,,PF,weak,3,,,,,,,,7,1.38661,,,,,,,,,,,,,,,,,,,,,,,,,,,,3,weak,39,101,1,0,0,response1disk,2,145,-6,-8,1,0,0,rectangle,40,-97,1,0,0,4,4,3.004155,2,3,1,0,0,0,144,144,36,1,1,response3disk_3,rectangle,,,,,,,,,,,,,,,,,,,
,,,,,,,,,,,,,,,,,,,,,,,,,,,,,,,,,,,,,,,,,,5a06f0579b760100013a6d8c,6068482302d74db6f9917386,2021-04-03_12h50.11.800,Colour_Similarity_Experiment,2020.2.10,Win32,60,60674ec340277cd6a308bc9f,16.82922456,16.69180595,16.6902401,16.68154522,16.68656975,16.6902401,,,,,,,,,,,,,,,,,,,,PF,weak,3,,,,,,,,7,2.93275,,,,,,,,,,,,,,,,,,,,,,,,,,,,1,weak,46,94,1,0,0,response1disk,5,146,2,4,1,0,0,rectangle,2,4,1,0,0,4,1,0.003965,2,4,1,0,0,0,145,145,28,1,0,,,,,,,,,,,,,,,,,,,,,
,,,,,,,,,,,,,,,,,,,,,,,,,,,,,,,,,,,,,,,,,,5a06f0579b760100013a6d8c,6068482302d74db6f9917386,2021-04-03_12h50.11.800,Colour_Similarity_Experiment,2020.2.10,Win32,60,60674ec340277cd6a308bc9f,16.82922456,16.69180595,16.6902401,16.68154522,16.68656975,16.6902401,,,,,,,,,,,,,,,,,,,,PF,strong,3,,,,,,,,2,1.48472,,,,,,,,,,,,,,,,,,,,,,,,,,,,4,strong,-71,-38,1,0,0,response5disk,5,147,0,4,1,0,0,rectangle,0,4,1,0,0,4,1,0.000295,0,4,1,0,0,0,146,146,116,1,0,,,,,,,,,,,,,,,,,,,,,
,,,,,,,,,,,,,,,,,,,,,,,,,,,,,,,,,,,,,,,,,,5a06f0579b760100013a6d8c,6068482302d74db6f9917386,2021-04-03_12h50.11.800,Colour_Similarity_Experiment,2020.2.10,Win32,60,60674ec340277cd6a308bc9f,16.82922456,16.69180595,16.6902401,16.68154522,16.68656975,16.6902401,,,,,,,,,,,,,,,,,,,,PF,weak,3,,,,,,,,7,0.928325,,,,,,,,,,,,,,,,,,,,,,,,,,,,2,weak,44,85,1,0,0,response1disk,3,148,-2,1,1,0,0,rectangle,-2,1,1,0,0,4,6,0.00177,-2,1,1,0,0,0,147,147,69,1,0,,,,,,,,,,,,,,,,,,,,,
,,,,,,,,,,,,,,,,,,,,,,,,,,,,,,,,,,,,,,,,,,5a06f0579b760100013a6d8c,6068482302d74db6f9917386,2021-04-03_12h50.11.800,Colour_Similarity_Experiment,2020.2.10,Win32,60,60674ec340277cd6a308bc9f,16.82922456,16.69180595,16.6902401,16.68154522,16.68656975,16.6902401,,,,,,,,,,,,,,,,,,,,PF,weak,3,,,,,,,,4,2.313465,,,,,,,,,,,,,,,,,,,,,,,,,,,,2,weak,30,-89,1,0,0,response3disk,9,149,2,1,1,0,0,rectangle,2,1,1,0,0,4,4,0.003295,2,1,1,0,0,0,148,148,39,1,0,,,,,,,,,,,,,,,,,,,,,
,,,,,,,,,,,,,,,,,,,,,,,,,,,,,,,,,,,,,,,,,,5a06f0579b760100013a6d8c,6068482302d74db6f9917386,2021-04-03_12h50.11.800,Colour_Similarity_Experiment,2020.2.10,Win32,60,60674ec340277cd6a308bc9f,16.82922456,16.69180595,16.6902401,16.68154522,16.68656975,16.6902401,,,,,,,,,,,,,,,,,,,,PF,weak,3,,,,,,,,1,1.11844,,,,,,,,,,,,,,,,,,,,,,,,,,,,8,weak,-75,43,1,0,0,response7disk,6,150,1,5,1,0,0,rectangle,37,103,1,0,0,7,7,2.319465,-7,4,1,0,0,0,149,149,161,1,1,response1disk_3,rectangle,,,,,,,,,,,,,,,,,,,
,,,,,,,,,,,,,,,,,,,,,,,,,,,,,,,,,,,,,,,,,,5a06f0579b760100013a6d8c,6068482302d74db6f9917386,2021-04-03_12h50.11.800,Colour_Similarity_Experiment,2020.2.10,Win32,60,60674ec340277cd6a308bc9f,16.82922456,16.69180595,16.6902401,16.68154522,16.68656975,16.6902401,,,,,,,,,,,,,,,,,,,,PF,weak,3,,,,,,,,1,1.854415,,,,,,,,,,,,,,,,,,,,,,,,,,,,5,weak,-83,53,1,0,0,response7disk,3,151,1,-3,1,0,0,rectangle,1,-3,1,0,0,7,1,0.003405,1,-3,1,0,0,0,150,150,109,1,0,,,,,,,,,,,,,,,,,,,,,
,,,,,,,,,,,,,,,,,,,,,,,,,,,,,,,,,,,,,,,,,,5a06f0579b760100013a6d8c,6068482302d74db6f9917386,2021-04-03_12h50.11.800,Colour_Similarity_Experiment,2020.2.10,Win32,60,60674ec340277cd6a308bc9f,16.82922456,16.69180595,16.6902401,16.68154522,16.68656975,16.6902401,,,,,,,,,,,,,,,,,,,,PF,weak,3,,,,,,,,6,1.335665,,,,,,,,,,,,,,,,,,,,,,,,,,,,5,weak,91,44,1,0,0,response1disk,1,152,-2,-6,1,0,0,rectangle,-87,-31,1,0,0,7,2,2.73691,6,5,1,0,0,0,151,151,159,1,1,response5disk_3,rectangle,,,,,,,,,,,,,,,,,,,
,,,,,,,,,,,,,,,,,,,,,,,,,,,,,,,,,,,,,,,,,,5a06f0579b760100013a6d8c,6068482302d74db6f9917386,2021-04-03_12h50.11.800,Colour_Similarity_Experiment,2020.2.10,Win32,60,60674ec340277cd6a308bc9f,16.82922456,16.69180595,16.6902401,16.68154522,16.68656975,16.6902401,,,,,,,,,,,,,,,,,,,,PF,weak,3,,,,,,,,0,1.217765,,,,,,,,,,,,,,,,,,,,,,,,,,,,3,weak,-41,102,1,0,0,response7disk,3,153,-2,3,1,0,0,rectangle,-2,3,1,0,0,7,1,0.00312,-2,3,1,0,0,0,152,152,4,1,0,,,,,,,,,,,,,,,,,,,,,
,,,,,,,,,,,,,,,,,,,,,,,,,,,,,,,,,,,,,,,,,,5a06f0579b760100013a6d8c,6068482302d74db6f9917386,2021-04-03_12h50.11.800,Colour_Similarity_Experiment,2020.2.10,Win32,60,60674ec340277cd6a308bc9f,16.82922456,16.69180595,16.6902401,16.68154522,16.68656975,16.6902401,,,,,,,,,,,,,,,,,,,,PF,strong,3,,,,,,,,4,2.31498,,,,,,,,,,,,,,,,,,,,,,,,,,,,5,strong,38,-79,1,0,0,response3disk,7,154,1,4,1,0,0,rectangle,1,4,1,0,0,7,5,0.00264,1,4,1,0,0,0,153,153,7,1,0,,,,,,,,,,,,,,,,,,,,,
,,,,,,,,,,,,,,,,,,,,,,,,,,,,,,,,,,,,,,,,,,5a06f0579b760100013a6d8c,6068482302d74db6f9917386,2021-04-03_12h50.11.800,Colour_Similarity_Experiment,2020.2.10,Win32,60,60674ec340277cd6a308bc9f,16.82922456,16.69180595,16.6902401,16.68154522,16.68656975,16.6902401,,,,,,,,,,,,,,,,,,,,PF,strong,3,,,,,,,,2,1.6967,,,,,,,,,,,,,,,,,,,,,,,,,,,,8,strong,-79,-39,1,0,0,response5disk,6,155,-5,5,1,0,0,rectangle,-5,5,1,0,0,7,4,0.00243,-5,5,1,0,0,0,154,154,37,1,0,,,,,,,,,,,,,,,,,,,,,
,,,,,,,,,,,,,,,,,,,,,,,,,,,,,,,,,,,,,,,,,,5a06f0579b760100013a6d8c,6068482302d74db6f9917386,2021-04-03_12h50.11.800,Colour_Similarity_Experiment,2020.2.10,Win32,60,60674ec340277cd6a308bc9f,16.82922456,16.69180595,16.6902401,16.68154522,16.68656975,16.6902401,,,,,,,,,,,,,,,,,,,,PF,strong,3,,,,,,,,6,1.705125,,,,,,,,,,,,,,,,,,,,,,,,,,,,8,strong,74,41,1,0,0,response1disk,5,156,-10,3,1,0,0,rectangle,-10,3,1,0,0,7,3,0.00271,-10,3,1,0,0,0,155,155,152,1,0,,,,,,,,,,,,,,,,,,,,,
,,,,,,,,,,,,,,,,,,,,,,,,,,,,,,,,,,,,,,,,,,5a06f0579b760100013a6d8c,6068482302d74db6f9917386,2021-04-03_12h50.11.800,Colour_Similarity_Experiment,2020.2.10,Win32,60,60674ec340277cd6a308bc9f,16.82922456,16.69180595,16.6902401,16.68154522,16.68656975,16.6902401,,,,,,,,,,,,,,,,,,,,PF,weak,3,,,,,,,,7,0.967285,,,,,,,,,,,,,,,,,,,,,,,,,,,,6,weak,37,88,1,0,0,response1disk,9,157,5,-2,1,0,0,rectangle,5,-2,1,0,0,7,6,0.00265,5,-2,1,0,0,0,156,156,45,1,0,,,,,,,,,,,,,,,,,,,,,
,,,,,,,,,,,,,,,,,,,,,,,,,,,,,,,,,,,,,,,,,,5a06f0579b760100013a6d8c,6068482302d74db6f9917386,2021-04-03_12h50.11.800,Colour_Similarity_Experiment,2020.2.10,Win32,60,60674ec340277cd6a308bc9f,16.82922456,16.69180595,16.6902401,16.68154522,16.68656975,16.6902401,,,,,,,,,,,,,,,,,,,,PF,strong,3,,,,,,,,7,1.019025,,,,,,,,,,,,,,,,,,,,,,,,,,,,4,strong,36,103,1,0,0,response1disk,1,158,10,-2,1,0,0,rectangle,10,-2,1,0,0,7,7,0.00391,10,-2,1,0,0,0,157,157,102,1,0,,,,,,,,,,,,,,,,,,,,,
,,,,,,,,,,,,,,,,,,,,,,,,,,,,,,,,,,,,,,,,,,5a06f0579b760100013a6d8c,6068482302d74db6f9917386,2021-04-03_12h50.11.800,Colour_Similarity_Experiment,2020.2.10,Win32,60,60674ec340277cd6a308bc9f,16.82922456,16.69180595,16.6902401,16.68154522,16.68656975,16.6902401,,,,,,,,,,,,,,,,,,,,PF,weak,3,,,,,,,,7,1.23469,,,,,,,,,,,,,,,,,,,,,,,,,,,,4,weak,47,89,1,0,0,response1disk,8,159,2,-2,1,0,0,rectangle,2,-2,1,0,0,7,4,0.00372,2,-2,1,0,0,0,158,158,124,1,0,,,,,,,,,,,,,,,,,,,,,
,,,,,,,,,,,,,,,,,,,,,,,,,,,,,,,,,,,,,,,,,,5a06f0579b760100013a6d8c,6068482302d74db6f9917386,2021-04-03_12h50.11.800,Colour_Similarity_Experiment,2020.2.10,Win32,60,60674ec340277cd6a308bc9f,16.82922456,16.69180595,16.6902401,16.68154522,16.68656975,16.6902401,,,,,,,,,,,,,,,,,,,,PF,weak,3,,,,,,,,7,0.845235,,,,,,,,,,,,,,,,,,,,,,,,,,,,4,weak,46,117,1,0,0,response1disk,6,160,3,0,1,0,0,rectangle,3,0,1,0,0,7,0,0.00105,3,0,1,0,0,0,159,159,120,1,0,,,,,,,,,,,,,,,,,,,,,
,,,,,,,,,,,,,,,,,,,,,,,,,,,,,,,,,,,,,,,,,,5a06f0579b760100013a6d8c,6068482302d74db6f9917386,2021-04-03_12h50.11.800,Colour_Similarity_Experiment,2020.2.10,Win32,60,60674ec340277cd6a308bc9f,16.82922456,16.69180595,16.6902401,16.68154522,16.68656975,16.6902401,,,,,,,,,,,,,,,,,,,,PF,weak,3,,,,,,,,4,8.427085,,,,,,,,,,,,,,,,,,,,,,,,,,,,8,weak,33,-78,1,0,0,response3disk,3,161,1,2,1,0,0,rectangle,1,2,1,0,0,7,7,0.00286,1,2,1,0,0,0,160,160,71,1,0,,,,,,,,,,,,,,,,,,,,,
,,,,,,,,,,,,,,,,,,,,,,,,,,,,,,,,,,,,,,,,,,5a06f0579b760100013a6d8c,6068482302d74db6f9917386,2021-04-03_12h50.11.800,Colour_Similarity_Experiment,2020.2.10,Win32,60,60674ec340277cd6a308bc9f,16.82922456,16.69180595,16.6902401,16.68154522,16.68656975,16.6902401,,,,,,,,,,,,,,,,,,,,PF,strong,3,,,,,,,,7,1.468885,,,,,,,,,,,,,,,,,,,,,,,,,,,,6,strong,39,84,1,0,0,response1disk,6,162,-1,4,1,0,0,rectangle,-1,4,1,0,0,7,5,0.002425,-1,4,1,0,0,0,161,161,91,1,0,,,,,,,,,,,,,,,,,,,,,
,,,,,,,,,,,,,,,,,,,,,,,,,,,,,,,,,,,,,,,,,,5a06f0579b760100013a6d8c,6068482302d74db6f9917386,2021-04-03_12h50.11.800,Colour_Similarity_Experiment,2020.2.10,Win32,60,60674ec340277cd6a308bc9f,16.82922456,16.69180595,16.6902401,16.68154522,16.68656975,16.6902401,,,,,,,,,,,,,,,,,,,,,,,,,,,,,,,,,,,,,,,,,,,,,,,,,,,,,,,,,,,,,,,,,,,,,,,,,,,,,,,,,,,,,,,,,,,,,,,,0,0,0,0,1,,,,,,,,,,,,,,
,,,,,,,,,,,,,,,,,,,,,,,,,,,,,,,,,,,,,,,,,,5a06f0579b760100013a6d8c,6068482302d74db6f9917386,2021-04-03_12h50.11.800,Colour_Similarity_Experiment,2020.2.10,Win32,60,60674ec340277cd6a308bc9f,16.82922456,16.69180595,16.6902401,16.68154522,16.68656975,16.6902401,,,,,,,,,,,,,,,,,,,,PF,strong,3,,,,,,,,4,2.013845,,,,,,,,,,,,,,,,,,,,,,,,,,,,6,strong,57,-76,1,0,0,response3disk,4,163,2,5,1,0,0,rectangle,2,5,1,0,0,7,7,0.00173,2,5,1,0,0,0,0,0,56,1,0,,,,,,,,,,,,,,,,,,,,,
,,,,,,,,,,,,,,,,,,,,,,,,,,,,,,,,,,,,,,,,,,5a06f0579b760100013a6d8c,6068482302d74db6f9917386,2021-04-03_12h50.11.800,Colour_Similarity_Experiment,2020.2.10,Win32,60,60674ec340277cd6a308bc9f,16.82922456,16.69180595,16.6902401,16.68154522,16.68656975,16.6902401,,,,,,,,,,,,,,,,,,,,PF,weak,3,,,,,,,,7,1.250165,,,,,,,,,,,,,,,,,,,,,,,,,,,,1,weak,47,104,1,0,0,response1disk,7,164,4,2,1,0,0,rectangle,4,2,1,0,0,7,3,0.0026,4,2,1,0,0,0,1,1,150,1,0,,,,,,,,,,,,,,,,,,,,,
,,,,,,,,,,,,,,,,,,,,,,,,,,,,,,,,,,,,,,,,,,5a06f0579b760100013a6d8c,6068482302d74db6f9917386,2021-04-03_12h50.11.800,Colour_Similarity_Experiment,2020.2.10,Win32,60,60674ec340277cd6a308bc9f,16.82922456,16.69180595,16.6902401,16.68154522,16.68656975,16.6902401,,,,,,,,,,,,,,,,,,,,PF,weak,3,,,,,,,,2,1.31787,,,,,,,,,,,,,,,,,,,,,,,,,,,,5,weak,-72,-38,1,0,0,response5disk,5,165,0,7,1,0,0,rectangle,0,7,1,0,0,7,5,0.00303,0,7,1,0,0,0,2,2,94,1,0,,,,,,,,,,,,,,,,,,,,,
,,,,,,,,,,,,,,,,,,,,,,,,,,,,,,,,,,,,,,,,,,5a06f0579b760100013a6d8c,6068482302d74db6f9917386,2021-04-03_12h50.11.800,Colour_Similarity_Experiment,2020.2.10,Win32,60,60674ec340277cd6a308bc9f,16.82922456,16.69180595,16.6902401,16.68154522,16.68656975,16.6902401,,,,,,,,,,,,,,,,,,,,PF,strong,3,,,,,,,,7,1.318295,,,,,,,,,,,,,,,,,,,,,,,,,,,,3,strong,42,90,1,0,0,response1disk,6,166,4,3,1,0,0,rectangle,4,3,1,0,0,7,0,0.004175,4,3,1,0,0,0,3,3,95,1,0,,,,,,,,,,,,,,,,,,,,,
,,,,,,,,,,,,,,,,,,,,,,,,,,,,,,,,,,,,,,,,,,5a06f0579b760100013a6d8c,6068482302d74db6f9917386,2021-04-03_12h50.11.800,Colour_Similarity_Experiment,2020.2.10,Win32,60,60674ec340277cd6a308bc9f,16.82922456,16.69180595,16.6902401,16.68154522,16.68656975,16.6902401,,,,,,,,,,,,,,,,,,,,PF,strong,3,,,,,,,,7,1.08488,,,,,,,,,,,,,,,,,,,,,,,,,,,,7,strong,39,87,1,0,0,response1disk,4,167,5,4,1,0,0,rectangle,5,4,1,0,0,7,4,0.00529,5,4,1,0,0,0,4,4,158,1,0,,,,,,,,,,,,,,,,,,,,,
,,,,,,,,,,,,,,,,,,,,,,,,,,,,,,,,,,,,,,,,,,5a06f0579b760100013a6d8c,6068482302d74db6f9917386,2021-04-03_12h50.11.800,Colour_Similarity_Experiment,2020.2.10,Win32,60,60674ec340277cd6a308bc9f,16.82922456,16.69180595,16.6902401,16.68154522,16.68656975,16.6902401,,,,,,,,,,,,,,,,,,,,PF,strong,3,,,,,,,,7,0.89605,,,,,,,,,,,,,,,,,,,,,,,,,,,,6,strong,39,94,1,0,0,response1disk,1,168,0,3,1,0,0,rectangle,0,3,1,0,0,7,4,0.0003,0,3,1,0,0,0,5,5,5,1,0,,,,,,,,,,,,,,,,,,,,,
,,,,,,,,,,,,,,,,,,,,,,,,,,,,,,,,,,,,,,,,,,5a06f0579b760100013a6d8c,6068482302d74db6f9917386,2021-04-03_12h50.11.800,Colour_Similarity_Experiment,2020.2.10,Win32,60,60674ec340277cd6a308bc9f,16.82922456,16.69180595,16.6902401,16.68154522,16.68656975,16.6902401,,,,,,,,,,,,,,,,,,,,PF,strong,3,,,,,,,,0,1.18472,,,,,,,,,,,,,,,,,,,,,,,,,,,,3,strong,-46,89,1,0,0,response7disk,4,169,-3,0,1,0,0,rectangle,-3,0,1,0,0,7,4,0.000445,-3,0,1,0,0,0,6,6,110,1,0,,,,,,,,,,,,,,,,,,,,,
,,,,,,,,,,,,,,,,,,,,,,,,,,,,,,,,,,,,,,,,,,5a06f0579b760100013a6d8c,6068482302d74db6f9917386,2021-04-03_12h50.11.800,Colour_Similarity_Experiment,2020.2.10,Win32,60,60674ec340277cd6a308bc9f,16.82922456,16.69180595,16.6902401,16.68154522,16.68656975,16.6902401,,,,,,,,,,,,,,,,,,,,PF,strong,3,,,,,,,,3,2.103195,,,,,,,,,,,,,,,,,,,,,,,,,,,,5,strong,-35,-86,1,0,0,response5disk,9,170,-10,4,1,0,0,rectangle,-10,4,1,0,0,7,2,0.003875,-10,4,1,0,0,0,7,7,61,1,0,,,,,,,,,,,,,,,,,,,,,
,,,,,,,,,,,,,,,,,,,,,,,,,,,,,,,,,,,,,,,,,,5a06f0579b760100013a6d8c,6068482302d74db6f9917386,2021-04-03_12h50.11.800,Colour_Similarity_Experiment,2020.2.10,Win32,60,60674ec340277cd6a308bc9f,16.82922456,16.69180595,16.6902401,16.68154522,16.68656975,16.6902401,,,,,,,,,,,,,,,,,,,,PF,strong,3,,,,,,,,7,0.970375,,,,,,,,,,,,,,,,,,,,,,,,,,,,9,strong,50,96,1,0,0,response1disk,7,171,5,4,1,0,0,rectangle,5,4,1,0,0,7,2,0.000625,5,4,1,0,0,0,8,8,100,1,0,,,,,,,,,,,,,,,,,,,,,
,,,,,,,,,,,,,,,,,,,,,,,,,,,,,,,,,,,,,,,,,,5a06f0579b760100013a6d8c,6068482302d74db6f9917386,2021-04-03_12h50.11.800,Colour_Similarity_Experiment,2020.2.10,Win32,60,60674ec340277cd6a308bc9f,16.82922456,16.69180595,16.6902401,16.68154522,16.68656975,16.6902401,,,,,,,,,,,,,,,,,,,,PF,strong,3,,,,,,,,1,1.246545,,,,,,,,,,,,,,,,,,,,,,,,,,,,5,strong,-87,47,1,0,0,response7disk,3,172,5,4,1,0,0,rectangle,5,4,1,0,0,7,4,0.003875,5,4,1,0,0,0,9,9,25,1,0,,,,,,,,,,,,,,,,,,,,,
,,,,,,,,,,,,,,,,,,,,,,,,,,,,,,,,,,,,,,,,,,5a06f0579b760100013a6d8c,6068482302d74db6f9917386,2021-04-03_12h50.11.800,Colour_Similarity_Experiment,2020.2.10,Win32,60,60674ec340277cd6a308bc9f,16.82922456,16.69180595,16.6902401,16.68154522,16.68656975,16.6902401,,,,,,,,,,,,,,,,,,,,PF,weak,3,,,,,,,,7,0.869655,,,,,,,,,,,,,,,,,,,,,,,,,,,,8,weak,31,102,1,0,0,response1disk,1,173,5,3,1,0,0,rectangle,5,3,1,0,0,7,0,0.0036,5,3,1,0,0,0,10,10,57,1,0,,,,,,,,,,,,,,,,,,,,,
,,,,,,,,,,,,,,,,,,,,,,,,,,,,,,,,,,,,,,,,,,5a06f0579b760100013a6d8c,6068482302d74db6f9917386,2021-04-03_12h50.11.800,Colour_Similarity_Experiment,2020.2.10,Win32,60,60674ec340277cd6a308bc9f,16.82922456,16.69180595,16.6902401,16.68154522,16.68656975,16.6902401,,,,,,,,,,,,,,,,,,,,PF,strong,3,,,,,,,,3,1.40127,,,,,,,,,,,,,,,,,,,,,,,,,,,,8,strong,-42,-88,1,0,0,response5disk,7,174,-5,5,1,0,0,rectangle,-5,5,1,0,0,7,4,0.004125,-5,5,1,0,0,0,11,11,86,1,0,,,,,,,,,,,,,,,,,,,,,
,,,,,,,,,,,,,,,,,,,,,,,,,,,,,,,,,,,,,,,,,,5a06f0579b760100013a6d8c,6068482302d74db6f9917386,2021-04-03_12h50.11.800,Colour_Similarity_Experiment,2020.2.10,Win32,60,60674ec340277cd6a308bc9f,16.82922456,16.69180595,16.6902401,16.68154522,16.68656975,16.6902401,,,,,,,,,,,,,,,,,,,,PF,weak,3,,,,,,,,7,1.049605,,,,,,,,,,,,,,,,,,,,,,,,,,,,7,weak,58,101,1,0,0,response1disk,1,175,0,5,1,0,0,rectangle,0,5,1,0,0,7,5,0.00315,0,5,1,0,0,0,12,12,53,1,0,,,,,,,,,,,,,,,,,,,,,
,,,,,,,,,,,,,,,,,,,,,,,,,,,,,,,,,,,,,,,,,,5a06f0579b760100013a6d8c,6068482302d74db6f9917386,2021-04-03_12h50.11.800,Colour_Similarity_Experiment,2020.2.10,Win32,60,60674ec340277cd6a308bc9f,16.82922456,16.69180595,16.6902401,16.68154522,16.68656975,16.6902401,,,,,,,,,,,,,,,,,,,,PF,strong,3,,,,,,,,3,1.78708,,,,,,,,,,,,,,,,,,,,,,,,,,,,2,strong,-49,-78,1,0,0,response5disk,5,176,-2,4,1,0,0,rectangle,-2,4,1,0,0,7,1,0.006875,-2,4,1,0,0,0,13,13,80,1,0,,,,,,,,,,,,,,,,,,,,,
,,,,,,,,,,,,,,,,,,,,,,,,,,,,,,,,,,,,,,,,,,5a06f0579b760100013a6d8c,6068482302d74db6f9917386,2021-04-03_12h50.11.800,Colour_Similarity_Experiment,2020.2.10,Win32,60,60674ec340277cd6a308bc9f,16.82922456,16.69180595,16.6902401,16.68154522,16.68656975,16.6902401,,,,,,,,,,,,,,,,,,,,PF,weak,3,,,,,,,,3,1.268555,,,,,,,,,,,,,,,,,,,,,,,,,,,,2,weak,-40,-80,1,0,0,response5disk,1,177,-7,-3,1,0,0,rectangle,-7,-3,1,0,0,7,1,0.000635,-7,-3,1,0,0,0,14,14,9,1,0,,,,,,,,,,,,,,,,,,,,,
,,,,,,,,,,,,,,,,,,,,,,,,,,,,,,,,,,,,,,,,,,5a06f0579b760100013a6d8c,6068482302d74db6f9917386,2021-04-03_12h50.11.800,Colour_Similarity_Experiment,2020.2.10,Win32,60,60674ec340277cd6a308bc9f,16.82922456,16.69180595,16.6902401,16.68154522,16.68656975,16.6902401,,,,,,,,,,,,,,,,,,,,PF,weak,3,,,,,,,,2,1.23048,,,,,,,,,,,,,,,,,,,,,,,,,,,,6,weak,-84,-41,1,0,0,response5disk,7,178,-9,1,1,0,0,rectangle,-9,1,1,0,0,7,1,0.00099,-9,1,1,0,0,0,15,15,50,1,0,,,,,,,,,,,,,,,,,,,,,
,,,,,,,,,,,,,,,,,,,,,,,,,,,,,,,,,,,,,,,,,,5a06f0579b760100013a6d8c,6068482302d74db6f9917386,2021-04-03_12h50.11.800,Colour_Similarity_Experiment,2020.2.10,Win32,60,60674ec340277cd6a308bc9f,16.82922456,16.69180595,16.6902401,16.68154522,16.68656975,16.6902401,,,,,,,,,,,,,,,,,,,,PF,weak,3,,,,,,,,0,1.068465,,,,,,,,,,,,,,,,,,,,,,,,,,,,1,weak,-47,78,1,0,0,response7disk,1,179,-8,2,1,0,0,rectangle,91,39,1,0,0,6,6,2.086485,1,1,1,0,0,0,16,16,76,1,1,response1disk_3,rectangle,,,,,,,,,,,,,,,,,,,
,,,,,,,,,,,,,,,,,,,,,,,,,,,,,,,,,,,,,,,,,,5a06f0579b760100013a6d8c,6068482302d74db6f9917386,2021-04-03_12h50.11.800,Colour_Similarity_Experiment,2020.2.10,Win32,60,60674ec340277cd6a308bc9f,16.82922456,16.69180595,16.6902401,16.68154522,16.68656975,16.6902401,,,,,,,,,,,,,,,,,,,,PF,weak,3,,,,,,,,7,1.036125,,,,,,,,,,,,,,,,,,,,,,,,,,,,9,weak,41,93,1,0,0,response1disk,7,180,1,-1,1,0,0,rectangle,1,-1,1,0,0,6,1,0.002515,1,-1,1,0,0,0,17,17,121,1,0,,,,,,,,,,,,,,,,,,,,,
,,,,,,,,,,,,,,,,,,,,,,,,,,,,,,,,,,,,,,,,,,5a06f0579b760100013a6d8c,6068482302d74db6f9917386,2021-04-03_12h50.11.800,Colour_Similarity_Experiment,2020.2.10,Win32,60,60674ec340277cd6a308bc9f,16.82922456,16.69180595,16.6902401,16.68154522,16.68656975,16.6902401,,,,,,,,,,,,,,,,,,,,PF,weak,3,,,,,,,,0,1.268855,,,,,,,,,,,,,,,,,,,,,,,,,,,,4,weak,-60,96,1,0,0,response7disk,3,181,-1,4,1,0,0,rectangle,-1,4,1,0,0,6,1,0.000595,-1,4,1,0,0,0,18,18,89,1,0,,,,,,,,,,,,,,,,,,,,,
,,,,,,,,,,,,,,,,,,,,,,,,,,,,,,,,,,,,,,,,,,5a06f0579b760100013a6d8c,6068482302d74db6f9917386,2021-04-03_12h50.11.800,Colour_Similarity_Experiment,2020.2.10,Win32,60,60674ec340277cd6a308bc9f,16.82922456,16.69180595,16.6902401,16.68154522,16.68656975,16.6902401,,,,,,,,,,,,,,,,,,,,PF,strong,3,,,,,,,,5,1.409855,,,,,,,,,,,,,,,,,,,,,,,,,,,,5,strong,81,-50,1,0,0,response3disk,6,182,2,2,1,0,0,rectangle,2,2,1,0,0,6,6,0.00374,2,2,1,0,0,0,19,19,12,1,0,,,,,,,,,,,,,,,,,,,,,
,,,,,,,,,,,,,,,,,,,,,,,,,,,,,,,,,,,,,,,,,,5a06f0579b760100013a6d8c,6068482302d74db6f9917386,2021-04-03_12h50.11.800,Colour_Similarity_Experiment,2020.2.10,Win32,60,60674ec340277cd6a308bc9f,16.82922456,16.69180595,16.6902401,16.68154522,16.68656975,16.6902401,,,,,,,,,,,,,,,,,,,,PF,strong,3,,,,,,,,7,1.720275,,,,,,,,,,,,,,,,,,,,,,,,,,,,2,strong,38,103,1,0,0,response1disk,6,183,2,2,1,0,0,rectangle,2,2,1,0,0,6,3,0.00353,2,2,1,0,0,0,20,20,40,1,0,,,,,,,,,,,,,,,,,,,,,
,,,,,,,,,,,,,,,,,,,,,,,,,,,,,,,,,,,,,,,,,,5a06f0579b760100013a6d8c,6068482302d74db6f9917386,2021-04-03_12h50.11.800,Colour_Similarity_Experiment,2020.2.10,Win32,60,60674ec340277cd6a308bc9f,16.82922456,16.69180595,16.6902401,16.68154522,16.68656975,16.6902401,,,,,,,,,,,,,,,,,,,,PF,strong,3,,,,,,,,2,1.61769,,,,,,,,,,,,,,,,,,,,,,,,,,,,9,strong,-85,-40,1,0,0,response5disk,4,184,1,1,1,0,0,rectangle,1,1,1,0,0,6,3,0.000365,1,1,1,0,0,0,21,21,60,1,0,,,,,,,,,,,,,,,,,,,,,
,,,,,,,,,,,,,,,,,,,,,,,,,,,,,,,,,,,,,,,,,,5a06f0579b760100013a6d8c,6068482302d74db6f9917386,2021-04-03_12h50.11.800,Colour_Similarity_Experiment,2020.2.10,Win32,60,60674ec340277cd6a308bc9f,16.82922456,16.69180595,16.6902401,16.68154522,16.68656975,16.6902401,,,,,,,,,,,,,,,,,,,,PF,strong,3,,,,,,,,7,1.17948,,,,,,,,,,,,,,,,,,,,,,,,,,,,6,strong,42,100,1,0,0,response1disk,9,185,3,4,1,0,0,rectangle,-87,42,1,0,0,1,1,1.76689,-13,7,1,0,0,0,22,22,160,1,1,response7disk_3,rectangle,,,,,,,,,,,,,,,,,,,
,,,,,,,,,,,,,,,,,,,,,,,,,,,,,,,,,,,,,,,,,,5a06f0579b760100013a6d8c,6068482302d74db6f9917386,2021-04-03_12h50.11.800,Colour_Similarity_Experiment,2020.2.10,Win32,60,60674ec340277cd6a308bc9f,16.82922456,16.69180595,16.6902401,16.68154522,16.68656975,16.6902401,,,,,,,,,,,,,,,,,,,,PF,strong,3,,,,,,,,7,1.169595,,,,,,,,,,,,,,,,,,,,,,,,,,,,3,strong,27,104,1,0,0,response1disk,9,186,4,7,1,0,0,rectangle,4,7,1,0,0,1,0,0.003195,4,7,1,0,0,0,23,23,143,1,0,,,,,,,,,,,,,,,,,,,,,
,,,,,,,,,,,,,,,,,,,,,,,,,,,,,,,,,,,,,,,,,,5a06f0579b760100013a6d8c,6068482302d74db6f9917386,2021-04-03_12h50.11.800,Colour_Similarity_Experiment,2020.2.10,Win32,60,60674ec340277cd6a308bc9f,16.82922456,16.69180595,16.6902401,16.68154522,16.68656975,16.6902401,,,,,,,,,,,,,,,,,,,,PF,weak,3,,,,,,,,2,1.301665,,,,,,,,,,,,,,,,,,,,,,,,,,,,3,weak,-88,-39,1,0,0,response5disk,5,187,1,1,1,0,0,rectangle,1,1,1,0,0,1,0,0.00059,1,1,1,0,0,0,24,24,66,1,0,,,,,,,,,,,,,,,,,,,,,
,,,,,,,,,,,,,,,,,,,,,,,,,,,,,,,,,,,,,,,,,,5a06f0579b760100013a6d8c,6068482302d74db6f9917386,2021-04-03_12h50.11.800,Colour_Similarity_Experiment,2020.2.10,Win32,60,60674ec340277cd6a308bc9f,16.82922456,16.69180595,16.6902401,16.68154522,16.68656975,16.6902401,,,,,,,,,,,,,,,,,,,,PF,weak,3,,,,,,,,3,1.316285,,,,,,,,,,,,,,,,,,,,,,,,,,,,6,weak,-37,-78,1,0,0,response5disk,5,188,-6,1,1,0,0,rectangle,-6,1,1,0,0,1,5,0.00559,-6,1,1,0,0,0,25,25,59,1,0,,,,,,,,,,,,,,,,,,,,,
,,,,,,,,,,,,,,,,,,,,,,,,,,,,,,,,,,,,,,,,,,5a06f0579b760100013a6d8c,6068482302d74db6f9917386,2021-04-03_12h50.11.800,Colour_Similarity_Experiment,2020.2.10,Win32,60,60674ec340277cd6a308bc9f,16.82922456,16.69180595,16.6902401,16.68154522,16.68656975,16.6902401,,,,,,,,,,,,,,,,,,,,PF,strong,3,,,,,,,,3,1.55452,,,,,,,,,,,,,,,,,,,,,,,,,,,,8,strong,-46,-82,1,0,0,response5disk,9,189,1,6,1,0,0,rectangle,1,6,1,0,0,1,7,0.004565,1,6,1,0,0,0,26,26,105,1,0,,,,,,,,,,,,,,,,,,,,,
,,,,,,,,,,,,,,,,,,,,,,,,,,,,,,,,,,,,,,,,,,5a06f0579b760100013a6d8c,6068482302d74db6f9917386,2021-04-03_12h50.11.800,Colour_Similarity_Experiment,2020.2.10,Win32,60,60674ec340277cd6a308bc9f,16.82922456,16.69180595,16.6902401,16.68154522,16.68656975,16.6902401,,,,,,,,,,,,,,,,,,,,PF,strong,3,,,,,,,,7,1.337585,,,,,,,,,,,,,,,,,,,,,,,,,,,,7,strong,41,83,1,0,0,response1disk,2,190,7,5,1,0,0,rectangle,7,5,1,0,0,1,5,0.00267,7,5,1,0,0,0,27,27,138,1,0,,,,,,,,,,,,,,,,,,,,,
,,,,,,,,,,,,,,,,,,,,,,,,,,,,,,,,,,,,,,,,,,5a06f0579b760100013a6d8c,6068482302d74db6f9917386,2021-04-03_12h50.11.800,Colour_Similarity_Experiment,2020.2.10,Win32,60,60674ec340277cd6a308bc9f,16.82922456,16.69180595,16.6902401,16.68154522,16.68656975,16.6902401,,,,,,,,,,,,,,,,,,,,PF,weak,3,,,,,,,,7,0.9305,,,,,,,,,,,,,,,,,,,,,,,,,,,,7,weak,48,112,1,0,0,response1disk,3,191,6,-2,1,0,0,rectangle,6,-2,1,0,0,1,1,0.003505,6,-2,1,0,0,0,28,28,81,1,0,,,,,,,,,,,,,,,,,,,,,
,,,,,,,,,,,,,,,,,,,,,,,,,,,,,,,,,,,,,,,,,,5a06f0579b760100013a6d8c,6068482302d74db6f9917386,2021-04-03_12h50.11.800,Colour_Similarity_Experiment,2020.2.10,Win32,60,60674ec340277cd6a308bc9f,16.82922456,16.69180595,16.6902401,16.68154522,16.68656975,16.6902401,,,,,,,,,,,,,,,,,,,,PF,weak,3,,,,,,,,0,1.13334,,,,,,,,,,,,,,,,,,,,,,,,,,,,7,weak,-45,90,1,0,0,response7disk,7,192,-1,-1,1,0,0,rectangle,-1,-1,1,0,0,1,1,0.00111,-1,-1,1,0,0,0,29,29,51,1,0,,,,,,,,,,,,,,,,,,,,,
,,,,,,,,,,,,,,,,,,,,,,,,,,,,,,,,,,,,,,,,,,5a06f0579b760100013a6d8c,6068482302d74db6f9917386,2021-04-03_12h50.11.800,Colour_Similarity_Experiment,2020.2.10,Win32,60,60674ec340277cd6a308bc9f,16.82922456,16.69180595,16.6902401,16.68154522,16.68656975,16.6902401,,,,,,,,,,,,,,,,,,,,PF,strong,3,,,,,,,,7,1.36243,,,,,,,,,,,,,,,,,,,,,,,,,,,,8,strong,37,105,1,0,0,response1disk,2,193,2,0,1,0,0,rectangle,2,0,1,0,0,1,6,0.00377,2,0,1,0,0,0,30,30,22,1,0,,,,,,,,,,,,,,,,,,,,,
,,,,,,,,,,,,,,,,,,,,,,,,,,,,,,,,,,,,,,,,,,5a06f0579b760100013a6d8c,6068482302d74db6f9917386,2021-04-03_12h50.11.800,Colour_Similarity_Experiment,2020.2.10,Win32,60,60674ec340277cd6a308bc9f,16.82922456,16.69180595,16.6902401,16.68154522,16.68656975,16.6902401,,,,,,,,,,,,,,,,,,,,PF,weak,3,,,,,,,,7,0.96862,,,,,,,,,,,,,,,,,,,,,,,,,,,,1,weak,52,94,1,0,0,response1disk,3,194,3,4,1,0,0,rectangle,3,4,1,0,0,1,1,0.005045,3,4,1,0,0,0,31,31,1,1,0,,,,,,,,,,,,,,,,,,,,,
,,,,,,,,,,,,,,,,,,,,,,,,,,,,,,,,,,,,,,,,,,5a06f0579b760100013a6d8c,6068482302d74db6f9917386,2021-04-03_12h50.11.800,Colour_Similarity_Experiment,2020.2.10,Win32,60,60674ec340277cd6a308bc9f,16.82922456,16.69180595,16.6902401,16.68154522,16.68656975,16.6902401,,,,,,,,,,,,,,,,,,,,PF,strong,3,,,,,,,,7,0.96949,,,,,,,,,,,,,,,,,,,,,,,,,,,,5,strong,36,97,1,0,0,response1disk,1,195,-2,5,1,0,0,rectangle,-2,5,1,0,0,1,1,0.0003,-2,5,1,0,0,0,32,32,131,1,0,,,,,,,,,,,,,,,,,,,,,
,,,,,,,,,,,,,,,,,,,,,,,,,,,,,,,,,,,,,,,,,,5a06f0579b760100013a6d8c,6068482302d74db6f9917386,2021-04-03_12h50.11.800,Colour_Similarity_Experiment,2020.2.10,Win32,60,60674ec340277cd6a308bc9f,16.82922456,16.69180595,16.6902401,16.68154522,16.68656975,16.6902401,,,,,,,,,,,,,,,,,,,,PF,weak,3,,,,,,,,7,2.4028,,,,,,,,,,,,,,,,,,,,,,,,,,,,9,weak,28,89,1,0,0,response1disk,4,196,7,4,1,0,0,rectangle,7,4,1,0,0,1,6,0.00224,7,4,1,0,0,0,33,33,114,1,0,,,,,,,,,,,,,,,,,,,,,
