key_resp.keys,key_resp.rt,key_resp_16.keys,key_resp_16.rt,key_resp_2.keys,key_resp_2.rt,X Scale,ratio_pxpermm,screen_size_x,screen_size_y,testsize,key_resp_3.keys,key_resp_4.keys,key_resp_4.rt,line_size,key_resp_5.keys,key_resp_5.rt,key_resp_6.keys,key_resp_6.rt,key_resp_8.keys,key_resp_8.rt,key_resp_7.keys,key_resp_7.rt,key_resp_12.keys,key_resp_12.rt,key_resp_11.keys,key_resp_11.rt,key_resp_18.keys,key_resp_18.rt,key_resp_21.keys,key_resp_21.rt,key_resp_13.keys,key_resp_13.rt,key_resp_19.keys,key_resp_19.rt,ballposx,viewer_distance,trials.thisRepN,trials.thisTrialN,trials.thisN,trials.thisIndex,trials.ran,participant,session,date,expName,psychopyVersion,OS,frameRate,study_id,realFrameRate1,realFrameRate2,realFrameRate3,realFrameRate4,realFrameRate5,realFrameRate,viewerdistancecm,DVA_to_distance,radius_F,radius_P,r_F,R_P,key_resp_20.keys,key_resp_20.rt,key_resp_14.keys,key_resp_14.rt,key_resp_15.keys,key_resp_15.rt,key_resp_17.keys,key_resp_17.rt,key_resp_9.keys,key_resp_9.rt,key_resp_10.keys,key_resp_10.rt,Colour_1,Ecc,maskCon,mask_frames,mouse_5.x,mouse_5.y,mouse_5.leftButton,mouse_5.midButton,mouse_5.rightButton,mouse_5.clicked_name,Colour_2,similarity,response_time,mouse_10.x,mouse_10.y,mouse_10.leftButton,mouse_10.midButton,mouse_10.rightButton,mouse_10.clicked_name,mouse_7.x,mouse_7.y,mouse_7.leftButton,mouse_7.midButton,mouse_7.rightButton,mouse_7.clicked_name,catchprac,catchnumberprac,mouse_6.x,mouse_6.y,mouse_6.leftButton,mouse_6.midButton,mouse_6.rightButton,mouse_6.clicked_name,duringprac.thisRepN,duringprac.thisTrialN,duringprac.thisN,duringprac.thisIndex,duringprac.ran,key_resp_22.keys,key_resp_22.rt,Colour1,maskCon1,mouse.x,mouse.y,mouse.leftButton,mouse.midButton,mouse.rightButton,mouse.clicked_name,Colour2,trialnumber,mouse_2.x,mouse_2.y,mouse_2.leftButton,mouse_2.midButton,mouse_2.rightButton,mouse_2.clicked_name,mouse_3.x,mouse_3.y,mouse_3.leftButton,mouse_3.midButton,mouse_3.rightButton,catchresponse,catchnumber,response_time_catch,mouse_11.x,mouse_11.y,mouse_11.leftButton,mouse_11.midButton,mouse_11.rightButton,trials_2.thisRepN,trials_2.thisTrialN,trials_2.thisN,trials_2.thisIndex,trials_2.ran,Catch,mouse_3.clicked_name,mouse_11.clicked_name,trials_3.thisRepN,trials_3.thisTrialN,trials_3.thisN,trials_3.thisIndex,trials_3.ran,answer1,rt1,answer2,rt2,answer3,rt3,answer4,rt4,answer5,rt5,answer6,rt6,answer7,rt7
space,5.616,space,72.96,space,13.612,32.6,3.26,523.6196319,294.4785276,1707,,space,30.75,65.2,space,26.943,space,11.666,space,5.318,space,5.788,space,12.761,space,16.115,space,11.782,space,17.625,space,19.39,return,4.518,-53.7705,941.1159733,0,0,0,0,1,5bfed3755eecf20001fb3681,6068420ec0f0497cc97cfc29,2021-04-03_11h23.23.927,Colour_Similarity_Experiment,2020.2.10,Win32,60,60674ec340277cd6a308bc9f,17.35147392,16.72279496,16.7144385,16.71700163,16.71939954,16.71939954,,,,,,,,,,,,,,,,,,,,,,,,,,,,,,,,,,,,,,,,,,,,,,,,,,,,,,,,,,,,,,,,,,,,,,,,,,,,,,,,,,,,,,,,,,,,,,,,,,,,,,,,,,,,,,,,,,
,,,,,,,,,,,,,,,,,,,,,,,,,,,,,,,,,return,4.453,-43.5285,928.0297721,1,0,1,0,1,5bfed3755eecf20001fb3681,6068420ec0f0497cc97cfc29,2021-04-03_11h23.23.927,Colour_Similarity_Experiment,2020.2.10,Win32,60,60674ec340277cd6a308bc9f,17.35147392,16.72279496,16.7144385,16.71700163,16.71939954,16.71939954,,,,,,,,,,,,,,,,,,,,,,,,,,,,,,,,,,,,,,,,,,,,,,,,,,,,,,,,,,,,,,,,,,,,,,,,,,,,,,,,,,,,,,,,,,,,,,,,,,,,,,,,,,,,,,,,,,
,,,,,,,,,,,,,,,,,,,,,,,,,,,,,,,,,return,4.276,-17.9235,895.3142689,2,0,2,0,1,5bfed3755eecf20001fb3681,6068420ec0f0497cc97cfc29,2021-04-03_11h23.23.927,Colour_Similarity_Experiment,2020.2.10,Win32,60,60674ec340277cd6a308bc9f,17.35147392,16.72279496,16.7144385,16.71700163,16.71939954,16.71939954,,,,,,,,,,,,,,,,,,,,,,,,,,,,,,,,,,,,,,,,,,,,,,,,,,,,,,,,,,,,,,,,,,,,,,,,,,,,,,,,,,,,,,,,,,,,,,,,,,,,,,,,,,,,,,,,,,
,,,,,,,,,,,,,,,,,,,,,,,,,,,,,,,,,return,4.114,7.6815,862.5987658,3,0,3,0,1,5bfed3755eecf20001fb3681,6068420ec0f0497cc97cfc29,2021-04-03_11h23.23.927,Colour_Similarity_Experiment,2020.2.10,Win32,60,60674ec340277cd6a308bc9f,17.35147392,16.72279496,16.7144385,16.71700163,16.71939954,16.71939954,,,,,,,,,,,,,,,,,,,,,,,,,,,,,,,,,,,,,,,,,,,,,,,,,,,,,,,,,,,,,,,,,,,,,,,,,,,,,,,,,,,,,,,,,,,,,,,,,,,,,,,,,,,,,,,,,,
,,,,,,,,,,,,,,,,,,,,,,,,,,,,,,,,,return,4.15,0,872.4134167,4,0,4,0,1,5bfed3755eecf20001fb3681,6068420ec0f0497cc97cfc29,2021-04-03_11h23.23.927,Colour_Similarity_Experiment,2020.2.10,Win32,60,60674ec340277cd6a308bc9f,17.35147392,16.72279496,16.7144385,16.71700163,16.71939954,16.71939954,,,,,,,,,,,,,,,,,,,,,,,,,,,,,,,,,,,,,,,,,,,,,,,,,,,,,,,,,,,,,,,,,,,,,,,,,,,,,,,,,,,,,,,,,,,,,,,,,,,,,,,,,,,,,,,,,,
,,,,,,,,,,,,,,,,,,,,,,,,,,,,,,,,,,,,,,,,,,5bfed3755eecf20001fb3681,6068420ec0f0497cc97cfc29,2021-04-03_11h23.23.927,Colour_Similarity_Experiment,2020.2.10,Win32,60,60674ec340277cd6a308bc9f,17.35147392,16.72279496,16.7144385,16.71700163,16.71939954,16.71939954,90,15.70955282,76.81971328,512.1314218,51.21314218,230.4591398,space,7.935,space,28.746,space,37.164,space,11.519,space,16.863,space,8.921,1,PF,strong,3,69.5,-106,1,0,0,response3disk_5,7,4,14.862,2.5,4,1,0,0,rectangle_8,-114.5,68,1,0,0,response7disk_7,1,1,7.5,1,1,0,0,rectangle_4,0,0,0,2,1,,,,,,,,,,,,,,,,,,,,,,,,,,,,,,,,,,,,,,,,,,,,,,,,,,,,,,,,,,
,,,,,,,,,,,,,,,,,,,,,,,,,,,,,,,,,,,,,,,,,,5bfed3755eecf20001fb3681,6068420ec0f0497cc97cfc29,2021-04-03_11h23.23.927,Colour_Similarity_Experiment,2020.2.10,Win32,60,60674ec340277cd6a308bc9f,17.35147392,16.72279496,16.7144385,16.71700163,16.71939954,16.71939954,,,,,,,,,,,,,,,,,,,1,PF,weak,3,130.5,-25,1,0,0,response3disk_5,8,5,7.173,4.5,3,1,0,0,rectangle_8,4.5,3,1,0,0,,,1,4.5,3,1,0,0,,0,1,1,5,1,,,,,,,,,,,,,,,,,,,,,,,,,,,,,,,,,,,,,,,,,,,,,,,,,,,,,,,,,,
,,,,,,,,,,,,,,,,,,,,,,,,,,,,,,,,,,,,,,,,,,5bfed3755eecf20001fb3681,6068420ec0f0497cc97cfc29,2021-04-03_11h23.23.927,Colour_Similarity_Experiment,2020.2.10,Win32,60,60674ec340277cd6a308bc9f,17.35147392,16.72279496,16.7144385,16.71700163,16.71939954,16.71939954,,,,,,,,,,,,,,,,,,,1,PF,weak,3,118.5,-67,1,0,0,response3disk_5,3,5,2.319,38.5,-1,1,0,0,rectangle_8,-94.5,80,1,0,0,response7disk_7,1,1,-1.5,3,1,0,0,rectangle_4,0,2,2,4,1,,,,,,,,,,,,,,,,,,,,,,,,,,,,,,,,,,,,,,,,,,,,,,,,,,,,,,,,,,
,,,,,,,,,,,,,,,,,,,,,,,,,,,,,,,,,,,,,,,,,,5bfed3755eecf20001fb3681,6068420ec0f0497cc97cfc29,2021-04-03_11h23.23.927,Colour_Similarity_Experiment,2020.2.10,Win32,60,60674ec340277cd6a308bc9f,17.35147392,16.72279496,16.7144385,16.71700163,16.71939954,16.71939954,,,,,,,,,,,,,,,,,,,8,PF,strong,3,-64.5,-95,1,0,0,response5disk_5,2,3,2.919,1.5,-1,1,0,0,rectangle_8,1.5,-1,1,0,0,,,1,1.5,-1,1,0,0,,0,3,3,3,1,,,,,,,,,,,,,,,,,,,,,,,,,,,,,,,,,,,,,,,,,,,,,,,,,,,,,,,,,,
,,,,,,,,,,,,,,,,,,,,,,,,,,,,,,,,,,,,,,,,,,5bfed3755eecf20001fb3681,6068420ec0f0497cc97cfc29,2021-04-03_11h23.23.927,Colour_Similarity_Experiment,2020.2.10,Win32,60,60674ec340277cd6a308bc9f,17.35147392,16.72279496,16.7144385,16.71700163,16.71939954,16.71939954,,,,,,,,,,,,,,,,,,,4,PF,weak,3,112.5,69,1,0,0,response1disk_5,9,6,3.886,1.5,6,1,0,0,rectangle_8,1.5,6,1,0,0,,,1,1.5,6,1,0,0,,0,4,4,6,1,,,,,,,,,,,,,,,,,,,,,,,,,,,,,,,,,,,,,,,,,,,,,,,,,,,,,,,,,,
,,,,,,,,,,,,,,,,,,,,,,,,,,,,,,,,,,,,,,,,,,5bfed3755eecf20001fb3681,6068420ec0f0497cc97cfc29,2021-04-03_11h23.23.927,Colour_Similarity_Experiment,2020.2.10,Win32,60,60674ec340277cd6a308bc9f,17.35147392,16.72279496,16.7144385,16.71700163,16.71939954,16.71939954,,,,,,,,,,,,,,,,,,,6,PF,strong,3,130.5,50,1,0,0,response1disk_5,7,6,3.92,9.5,-6,1,0,0,rectangle_8,9.5,-6,1,0,0,,,1,9.5,-6,1,0,0,,0,5,5,0,1,,,,,,,,,,,,,,,,,,,,,,,,,,,,,,,,,,,,,,,,,,,,,,,,,,,,,,,,,,
,,,,,,,,,,,,,,,,,,,,,,,,,,,,,,,,,,,,,,,,,,5bfed3755eecf20001fb3681,6068420ec0f0497cc97cfc29,2021-04-03_11h23.23.927,Colour_Similarity_Experiment,2020.2.10,Win32,60,60674ec340277cd6a308bc9f,17.35147392,16.72279496,16.7144385,16.71700163,16.71939954,16.71939954,,,,,,,,,,,,,,,,,,,4,PF,weak,3,-93.5,-63,1,0,0,response5disk_5,4,2,2.802,16.5,3,1,0,0,rectangle_8,16.5,3,1,0,0,,,1,16.5,3,1,0,0,,0,6,6,1,1,,,,,,,,,,,,,,,,,,,,,,,,,,,,,,,,,,,,,,,,,,,,,,,,,,,,,,,,,,
,,,,,,,,,,,,,,,,,,,,,,,,,,,,,,,,,,,,,,,,,,5bfed3755eecf20001fb3681,6068420ec0f0497cc97cfc29,2021-04-03_11h23.23.927,Colour_Similarity_Experiment,2020.2.10,Win32,60,60674ec340277cd6a308bc9f,17.35147392,16.72279496,16.7144385,16.71700163,16.71939954,16.71939954,,,,,,,,,,,,,,,,,,,,PF,weak,3,,,,,,,,2,4.804,,,,,,,,,,,,,,,,,,,,,,,,,,space,6.962,2,weak,-89.5,-55,1,0,0,response5disk,3,1,18.5,-1,1,0,0,rectangle,18.5,-1,1,0,0,,5,0.001,18.5,-1,1,0,0,0,0,0,69,1,0,,,,,,,,,,,,,,,,,,,,,
,,,,,,,,,,,,,,,,,,,,,,,,,,,,,,,,,,,,,,,,,,5bfed3755eecf20001fb3681,6068420ec0f0497cc97cfc29,2021-04-03_11h23.23.927,Colour_Similarity_Experiment,2020.2.10,Win32,60,60674ec340277cd6a308bc9f,17.35147392,16.72279496,16.7144385,16.71700163,16.71939954,16.71939954,,,,,,,,,,,,,,,,,,,,PF,strong,3,,,,,,,,2,2.903,,,,,,,,,,,,,,,,,,,,,,,,,,,,3,strong,-72.5,-41,1,0,0,response5disk,4,2,4.5,-10,1,0,0,rectangle,4.5,-10,1,0,0,,2,0,4.5,-10,1,0,0,0,1,1,110,1,0,,,,,,,,,,,,,,,,,,,,,
,,,,,,,,,,,,,,,,,,,,,,,,,,,,,,,,,,,,,,,,,,5bfed3755eecf20001fb3681,6068420ec0f0497cc97cfc29,2021-04-03_11h23.23.927,Colour_Similarity_Experiment,2020.2.10,Win32,60,60674ec340277cd6a308bc9f,17.35147392,16.72279496,16.7144385,16.71700163,16.71939954,16.71939954,,,,,,,,,,,,,,,,,,,,PF,weak,3,,,,,,,,6,2.769,,,,,,,,,,,,,,,,,,,,,,,,,,,,2,weak,119.5,38,1,0,0,response1disk,6,3,13.5,-15,1,0,0,rectangle,13.5,-15,1,0,0,,6,0.001,13.5,-15,1,0,0,0,2,2,113,1,0,,,,,,,,,,,,,,,,,,,,,
,,,,,,,,,,,,,,,,,,,,,,,,,,,,,,,,,,,,,,,,,,5bfed3755eecf20001fb3681,6068420ec0f0497cc97cfc29,2021-04-03_11h23.23.927,Colour_Similarity_Experiment,2020.2.10,Win32,60,60674ec340277cd6a308bc9f,17.35147392,16.72279496,16.7144385,16.71700163,16.71939954,16.71939954,,,,,,,,,,,,,,,,,,,,PF,strong,3,,,,,,,,4,6.706,,,,,,,,,,,,,,,,,,,,,,,,,,,,3,strong,68.5,-115,1,0,0,response3disk,9,4,-10.5,-1,1,0,0,rectangle,-10.5,-1,1,0,0,,4,0.002,-10.5,-1,1,0,0,0,3,3,143,1,0,,,,,,,,,,,,,,,,,,,,,
,,,,,,,,,,,,,,,,,,,,,,,,,,,,,,,,,,,,,,,,,,5bfed3755eecf20001fb3681,6068420ec0f0497cc97cfc29,2021-04-03_11h23.23.927,Colour_Similarity_Experiment,2020.2.10,Win32,60,60674ec340277cd6a308bc9f,17.35147392,16.72279496,16.7144385,16.71700163,16.71939954,16.71939954,,,,,,,,,,,,,,,,,,,,PF,weak,3,,,,,,,,5,3.169,,,,,,,,,,,,,,,,,,,,,,,,,,,,4,weak,131.5,-44,1,0,0,response3disk,1,5,1.5,-3,1,0,0,rectangle,1.5,-3,1,0,0,,7,0.001,1.5,-3,1,0,0,0,4,4,115,1,0,,,,,,,,,,,,,,,,,,,,,
,,,,,,,,,,,,,,,,,,,,,,,,,,,,,,,,,,,,,,,,,,5bfed3755eecf20001fb3681,6068420ec0f0497cc97cfc29,2021-04-03_11h23.23.927,Colour_Similarity_Experiment,2020.2.10,Win32,60,60674ec340277cd6a308bc9f,17.35147392,16.72279496,16.7144385,16.71700163,16.71939954,16.71939954,,,,,,,,,,,,,,,,,,,,PF,weak,3,,,,,,,,2,4.821,,,,,,,,,,,,,,,,,,,,,,,,,,,,2,weak,-90.5,-44,1,0,0,response5disk,4,6,3.5,10,1,0,0,rectangle,3.5,10,1,0,0,,1,0.001,3.5,10,1,0,0,0,5,5,127,1,0,,,,,,,,,,,,,,,,,,,,,
,,,,,,,,,,,,,,,,,,,,,,,,,,,,,,,,,,,,,,,,,,5bfed3755eecf20001fb3681,6068420ec0f0497cc97cfc29,2021-04-03_11h23.23.927,Colour_Similarity_Experiment,2020.2.10,Win32,60,60674ec340277cd6a308bc9f,17.35147392,16.72279496,16.7144385,16.71700163,16.71939954,16.71939954,,,,,,,,,,,,,,,,,,,,PF,strong,3,,,,,,,,2,2.797,,,,,,,,,,,,,,,,,,,,,,,,,,,,9,strong,-82.5,-46,1,0,0,response5disk,8,7,16.5,0,1,0,0,rectangle,16.5,0,1,0,0,,6,0.001,16.5,0,1,0,0,0,6,6,6,1,0,,,,,,,,,,,,,,,,,,,,,
,,,,,,,,,,,,,,,,,,,,,,,,,,,,,,,,,,,,,,,,,,5bfed3755eecf20001fb3681,6068420ec0f0497cc97cfc29,2021-04-03_11h23.23.927,Colour_Similarity_Experiment,2020.2.10,Win32,60,60674ec340277cd6a308bc9f,17.35147392,16.72279496,16.7144385,16.71700163,16.71939954,16.71939954,,,,,,,,,,,,,,,,,,,,PF,strong,3,,,,,,,,4,5.971,,,,,,,,,,,,,,,,,,,,,,,,,,,,3,strong,46.5,-105,1,0,0,response3disk,5,8,4.5,8,1,0,0,rectangle,4.5,8,1,0,0,,4,0.002,4.5,8,1,0,0,0,7,7,101,1,0,,,,,,,,,,,,,,,,,,,,,
,,,,,,,,,,,,,,,,,,,,,,,,,,,,,,,,,,,,,,,,,,5bfed3755eecf20001fb3681,6068420ec0f0497cc97cfc29,2021-04-03_11h23.23.927,Colour_Similarity_Experiment,2020.2.10,Win32,60,60674ec340277cd6a308bc9f,17.35147392,16.72279496,16.7144385,16.71700163,16.71939954,16.71939954,,,,,,,,,,,,,,,,,,,,PF,strong,3,,,,,,,,6,4.454,,,,,,,,,,,,,,,,,,,,,,,,,,,,8,strong,107.5,30,1,0,0,response1disk,3,9,15.5,-5,1,0,0,rectangle,15.5,-5,1,0,0,,0,0.001,15.5,-5,1,0,0,0,8,8,154,1,0,,,,,,,,,,,,,,,,,,,,,
,,,,,,,,,,,,,,,,,,,,,,,,,,,,,,,,,,,,,,,,,,5bfed3755eecf20001fb3681,6068420ec0f0497cc97cfc29,2021-04-03_11h23.23.927,Colour_Similarity_Experiment,2020.2.10,Win32,60,60674ec340277cd6a308bc9f,17.35147392,16.72279496,16.7144385,16.71700163,16.71939954,16.71939954,,,,,,,,,,,,,,,,,,,,PF,strong,3,,,,,,,,6,3.869,,,,,,,,,,,,,,,,,,,,,,,,,,,,1,strong,113.5,47,1,0,0,response1disk,4,10,16.5,-5,1,0,0,rectangle,16.5,-5,1,0,0,,1,0.001,16.5,-5,1,0,0,0,9,9,135,1,0,,,,,,,,,,,,,,,,,,,,,
,,,,,,,,,,,,,,,,,,,,,,,,,,,,,,,,,,,,,,,,,,5bfed3755eecf20001fb3681,6068420ec0f0497cc97cfc29,2021-04-03_11h23.23.927,Colour_Similarity_Experiment,2020.2.10,Win32,60,60674ec340277cd6a308bc9f,17.35147392,16.72279496,16.7144385,16.71700163,16.71939954,16.71939954,,,,,,,,,,,,,,,,,,,,PF,weak,3,,,,,,,,2,3.287,,,,,,,,,,,,,,,,,,,,,,,,,,,,4,weak,-87.5,-55,1,0,0,response5disk,4,11,19.5,-9,1,0,0,rectangle,19.5,-9,1,0,0,,5,0.001,19.5,-9,1,0,0,0,10,10,70,1,0,,,,,,,,,,,,,,,,,,,,,
,,,,,,,,,,,,,,,,,,,,,,,,,,,,,,,,,,,,,,,,,,5bfed3755eecf20001fb3681,6068420ec0f0497cc97cfc29,2021-04-03_11h23.23.927,Colour_Similarity_Experiment,2020.2.10,Win32,60,60674ec340277cd6a308bc9f,17.35147392,16.72279496,16.7144385,16.71700163,16.71939954,16.71939954,,,,,,,,,,,,,,,,,,,,PF,strong,3,,,,,,,,2,1.635,,,,,,,,,,,,,,,,,,,,,,,,,,,,4,strong,-85.5,-54,1,0,0,response5disk,3,12,-12.5,8,1,0,0,rectangle,-12.5,8,1,0,0,,1,0.001,-12.5,8,1,0,0,0,11,11,77,1,0,,,,,,,,,,,,,,,,,,,,,
,,,,,,,,,,,,,,,,,,,,,,,,,,,,,,,,,,,,,,,,,,5bfed3755eecf20001fb3681,6068420ec0f0497cc97cfc29,2021-04-03_11h23.23.927,Colour_Similarity_Experiment,2020.2.10,Win32,60,60674ec340277cd6a308bc9f,17.35147392,16.72279496,16.7144385,16.71700163,16.71939954,16.71939954,,,,,,,,,,,,,,,,,,,,PF,weak,3,,,,,,,,6,2.852,,,,,,,,,,,,,,,,,,,,,,,,,,,,7,weak,99.5,45,1,0,0,response1disk,5,13,0.5,-3,1,0,0,rectangle,0.5,-3,1,0,0,,2,0.001,0.5,-3,1,0,0,0,12,12,92,1,0,,,,,,,,,,,,,,,,,,,,,
,,,,,,,,,,,,,,,,,,,,,,,,,,,,,,,,,,,,,,,,,,5bfed3755eecf20001fb3681,6068420ec0f0497cc97cfc29,2021-04-03_11h23.23.927,Colour_Similarity_Experiment,2020.2.10,Win32,60,60674ec340277cd6a308bc9f,17.35147392,16.72279496,16.7144385,16.71700163,16.71939954,16.71939954,,,,,,,,,,,,,,,,,,,,PF,strong,3,,,,,,,,6,3.219,,,,,,,,,,,,,,,,,,,,,,,,,,,,5,strong,115.5,48,1,0,0,response1disk,8,14,23.5,-3,1,0,0,rectangle,23.5,-3,1,0,0,,1,0.001,23.5,-3,1,0,0,0,13,13,16,1,0,,,,,,,,,,,,,,,,,,,,,
,,,,,,,,,,,,,,,,,,,,,,,,,,,,,,,,,,,,,,,,,,5bfed3755eecf20001fb3681,6068420ec0f0497cc97cfc29,2021-04-03_11h23.23.927,Colour_Similarity_Experiment,2020.2.10,Win32,60,60674ec340277cd6a308bc9f,17.35147392,16.72279496,16.7144385,16.71700163,16.71939954,16.71939954,,,,,,,,,,,,,,,,,,,,PF,strong,3,,,,,,,,6,4.087,,,,,,,,,,,,,,,,,,,,,,,,,,,,6,strong,103.5,33,1,0,0,response1disk,3,15,20.5,3,1,0,0,rectangle,20.5,3,1,0,0,,6,0.001,20.5,3,1,0,0,0,14,14,21,1,0,,,,,,,,,,,,,,,,,,,,,
,,,,,,,,,,,,,,,,,,,,,,,,,,,,,,,,,,,,,,,,,,5bfed3755eecf20001fb3681,6068420ec0f0497cc97cfc29,2021-04-03_11h23.23.927,Colour_Similarity_Experiment,2020.2.10,Win32,60,60674ec340277cd6a308bc9f,17.35147392,16.72279496,16.7144385,16.71700163,16.71939954,16.71939954,,,,,,,,,,,,,,,,,,,,PF,weak,3,,,,,,,,1,2.403,,,,,,,,,,,,,,,,,,,,,,,,,,,,5,weak,-84.5,35,1,0,0,response7disk,5,16,-0.5,-4,1,0,0,rectangle,-0.5,-4,1,0,0,,1,0.001,-0.5,-4,1,0,0,0,15,15,94,1,0,,,,,,,,,,,,,,,,,,,,,
,,,,,,,,,,,,,,,,,,,,,,,,,,,,,,,,,,,,,,,,,,5bfed3755eecf20001fb3681,6068420ec0f0497cc97cfc29,2021-04-03_11h23.23.927,Colour_Similarity_Experiment,2020.2.10,Win32,60,60674ec340277cd6a308bc9f,17.35147392,16.72279496,16.7144385,16.71700163,16.71939954,16.71939954,,,,,,,,,,,,,,,,,,,,PF,strong,3,,,,,,,,6,2.869,,,,,,,,,,,,,,,,,,,,,,,,,,,,7,strong,122.5,46,1,0,0,response1disk,5,17,4.5,-5,1,0,0,rectangle,4.5,-5,1,0,0,,0,0.001,4.5,-5,1,0,0,0,16,16,156,1,0,,,,,,,,,,,,,,,,,,,,,
,,,,,,,,,,,,,,,,,,,,,,,,,,,,,,,,,,,,,,,,,,5bfed3755eecf20001fb3681,6068420ec0f0497cc97cfc29,2021-04-03_11h23.23.927,Colour_Similarity_Experiment,2020.2.10,Win32,60,60674ec340277cd6a308bc9f,17.35147392,16.72279496,16.7144385,16.71700163,16.71939954,16.71939954,,,,,,,,,,,,,,,,,,,,PF,strong,3,,,,,,,,6,2.951,,,,,,,,,,,,,,,,,,,,,,,,,,,,8,strong,101.5,39,1,0,0,response1disk,4,18,19.5,7,1,0,0,rectangle,19.5,7,1,0,0,,3,0,19.5,7,1,0,0,0,17,17,88,1,0,,,,,,,,,,,,,,,,,,,,,
,,,,,,,,,,,,,,,,,,,,,,,,,,,,,,,,,,,,,,,,,,5bfed3755eecf20001fb3681,6068420ec0f0497cc97cfc29,2021-04-03_11h23.23.927,Colour_Similarity_Experiment,2020.2.10,Win32,60,60674ec340277cd6a308bc9f,17.35147392,16.72279496,16.7144385,16.71700163,16.71939954,16.71939954,,,,,,,,,,,,,,,,,,,,PF,strong,3,,,,,,,,6,4.237,,,,,,,,,,,,,,,,,,,,,,,,,,,,3,strong,115.5,39,1,0,0,response1disk,7,19,1.5,9,1,0,0,rectangle,1.5,9,1,0,0,,1,0.002,1.5,9,1,0,0,0,18,18,118,1,0,,,,,,,,,,,,,,,,,,,,,
,,,,,,,,,,,,,,,,,,,,,,,,,,,,,,,,,,,,,,,,,,5bfed3755eecf20001fb3681,6068420ec0f0497cc97cfc29,2021-04-03_11h23.23.927,Colour_Similarity_Experiment,2020.2.10,Win32,60,60674ec340277cd6a308bc9f,17.35147392,16.72279496,16.7144385,16.71700163,16.71939954,16.71939954,,,,,,,,,,,,,,,,,,,,PF,strong,3,,,,,,,,6,4.237,,,,,,,,,,,,,,,,,,,,,,,,,,,,1,strong,106.5,53,1,0,0,response1disk,2,20,20.5,-7,1,0,0,rectangle,20.5,-7,1,0,0,,1,0,20.5,-7,1,0,0,0,19,19,2,1,0,,,,,,,,,,,,,,,,,,,,,
,,,,,,,,,,,,,,,,,,,,,,,,,,,,,,,,,,,,,,,,,,5bfed3755eecf20001fb3681,6068420ec0f0497cc97cfc29,2021-04-03_11h23.23.927,Colour_Similarity_Experiment,2020.2.10,Win32,60,60674ec340277cd6a308bc9f,17.35147392,16.72279496,16.7144385,16.71700163,16.71939954,16.71939954,,,,,,,,,,,,,,,,,,,,PF,weak,3,,,,,,,,4,3.103,,,,,,,,,,,,,,,,,,,,,,,,,,,,9,weak,73.5,-96,1,0,0,response3disk,9,21,-18.5,-3,1,0,0,rectangle,-18.5,-3,1,0,0,,1,0,-18.5,-3,1,0,0,0,20,20,106,1,0,,,,,,,,,,,,,,,,,,,,,
,,,,,,,,,,,,,,,,,,,,,,,,,,,,,,,,,,,,,,,,,,5bfed3755eecf20001fb3681,6068420ec0f0497cc97cfc29,2021-04-03_11h23.23.927,Colour_Similarity_Experiment,2020.2.10,Win32,60,60674ec340277cd6a308bc9f,17.35147392,16.72279496,16.7144385,16.71700163,16.71939954,16.71939954,,,,,,,,,,,,,,,,,,,,PF,strong,3,,,,,,,,4,4.788,,,,,,,,,,,,,,,,,,,,,,,,,,,,1,strong,69.5,-112,1,0,0,response3disk,8,22,3.5,16,1,0,0,rectangle,3.5,16,1,0,0,,0,0.001,3.5,16,1,0,0,0,21,21,27,1,0,,,,,,,,,,,,,,,,,,,,,
,,,,,,,,,,,,,,,,,,,,,,,,,,,,,,,,,,,,,,,,,,5bfed3755eecf20001fb3681,6068420ec0f0497cc97cfc29,2021-04-03_11h23.23.927,Colour_Similarity_Experiment,2020.2.10,Win32,60,60674ec340277cd6a308bc9f,17.35147392,16.72279496,16.7144385,16.71700163,16.71939954,16.71939954,,,,,,,,,,,,,,,,,,,,PF,weak,3,,,,,,,,6,4.82,,,,,,,,,,,,,,,,,,,,,,,,,,,,6,weak,114.5,79,1,0,0,response1disk,1,23,7.5,10,1,0,0,rectangle,7.5,10,1,0,0,,7,0,7.5,10,1,0,0,0,22,22,46,1,0,,,,,,,,,,,,,,,,,,,,,
,,,,,,,,,,,,,,,,,,,,,,,,,,,,,,,,,,,,,,,,,,5bfed3755eecf20001fb3681,6068420ec0f0497cc97cfc29,2021-04-03_11h23.23.927,Colour_Similarity_Experiment,2020.2.10,Win32,60,60674ec340277cd6a308bc9f,17.35147392,16.72279496,16.7144385,16.71700163,16.71939954,16.71939954,,,,,,,,,,,,,,,,,,,,PF,weak,3,,,,,,,,6,3.553,,,,,,,,,,,,,,,,,,,,,,,,,,,,1,weak,107.5,43,1,0,0,response1disk,6,24,4.5,0,1,0,0,rectangle,4.5,0,1,0,0,,6,0.001,4.5,0,1,0,0,0,23,23,144,1,0,,,,,,,,,,,,,,,,,,,,,
,,,,,,,,,,,,,,,,,,,,,,,,,,,,,,,,,,,,,,,,,,5bfed3755eecf20001fb3681,6068420ec0f0497cc97cfc29,2021-04-03_11h23.23.927,Colour_Similarity_Experiment,2020.2.10,Win32,60,60674ec340277cd6a308bc9f,17.35147392,16.72279496,16.7144385,16.71700163,16.71939954,16.71939954,,,,,,,,,,,,,,,,,,,,PF,strong,3,,,,,,,,6,3.804,,,,,,,,,,,,,,,,,,,,,,,,,,,,8,strong,127.5,63,1,0,0,response1disk,1,25,29.5,7,1,0,0,rectangle,29.5,7,1,0,0,,4,0,29.5,7,1,0,0,0,24,24,20,1,0,,,,,,,,,,,,,,,,,,,,,
,,,,,,,,,,,,,,,,,,,,,,,,,,,,,,,,,,,,,,,,,,5bfed3755eecf20001fb3681,6068420ec0f0497cc97cfc29,2021-04-03_11h23.23.927,Colour_Similarity_Experiment,2020.2.10,Win32,60,60674ec340277cd6a308bc9f,17.35147392,16.72279496,16.7144385,16.71700163,16.71939954,16.71939954,,,,,,,,,,,,,,,,,,,,PF,weak,3,,,,,,,,3,3.051,,,,,,,,,,,,,,,,,,,,,,,,,,,,8,weak,-31.5,-71,1,0,0,response5disk,7,26,1.5,4,1,0,0,rectangle,1.5,4,1,0,0,,3,0,1.5,4,1,0,0,0,25,25,23,1,0,,,,,,,,,,,,,,,,,,,,,
,,,,,,,,,,,,,,,,,,,,,,,,,,,,,,,,,,,,,,,,,,5bfed3755eecf20001fb3681,6068420ec0f0497cc97cfc29,2021-04-03_11h23.23.927,Colour_Similarity_Experiment,2020.2.10,Win32,60,60674ec340277cd6a308bc9f,17.35147392,16.72279496,16.7144385,16.71700163,16.71939954,16.71939954,,,,,,,,,,,,,,,,,,,,PF,strong,3,,,,,,,,3,18.399,,,,,,,,,,,,,,,,,,,,,,,,,,,,2,strong,-56.5,-106,1,0,0,response5disk,5,27,-9.5,10,1,0,0,rectangle,-9.5,10,1,0,0,,6,0.001,-9.5,10,1,0,0,0,26,26,80,1,0,,,,,,,,,,,,,,,,,,,,,
,,,,,,,,,,,,,,,,,,,,,,,,,,,,,,,,,,,,,,,,,,5bfed3755eecf20001fb3681,6068420ec0f0497cc97cfc29,2021-04-03_11h23.23.927,Colour_Similarity_Experiment,2020.2.10,Win32,60,60674ec340277cd6a308bc9f,17.35147392,16.72279496,16.7144385,16.71700163,16.71939954,16.71939954,,,,,,,,,,,,,,,,,,,,PF,weak,3,,,,,,,,3,3.202,,,,,,,,,,,,,,,,,,,,,,,,,,,,8,weak,-44.5,-104,1,0,0,response5disk,3,28,-3.5,9,1,0,0,rectangle,-3.5,9,1,0,0,,7,0,-3.5,9,1,0,0,0,27,27,71,1,0,,,,,,,,,,,,,,,,,,,,,
,,,,,,,,,,,,,,,,,,,,,,,,,,,,,,,,,,,,,,,,,,5bfed3755eecf20001fb3681,6068420ec0f0497cc97cfc29,2021-04-03_11h23.23.927,Colour_Similarity_Experiment,2020.2.10,Win32,60,60674ec340277cd6a308bc9f,17.35147392,16.72279496,16.7144385,16.71700163,16.71939954,16.71939954,,,,,,,,,,,,,,,,,,,,PF,weak,3,,,,,,,,4,1.969,,,,,,,,,,,,,,,,,,,,,,,,,,,,8,weak,58.5,-123,1,0,0,response3disk,9,29,13.5,8,1,0,0,rectangle,13.5,8,1,0,0,,4,0.001,13.5,8,1,0,0,0,28,28,42,1,0,,,,,,,,,,,,,,,,,,,,,
,,,,,,,,,,,,,,,,,,,,,,,,,,,,,,,,,,,,,,,,,,5bfed3755eecf20001fb3681,6068420ec0f0497cc97cfc29,2021-04-03_11h23.23.927,Colour_Similarity_Experiment,2020.2.10,Win32,60,60674ec340277cd6a308bc9f,17.35147392,16.72279496,16.7144385,16.71700163,16.71939954,16.71939954,,,,,,,,,,,,,,,,,,,,PF,strong,3,,,,,,,,6,2.369,,,,,,,,,,,,,,,,,,,,,,,,,,,,7,strong,106.5,77,1,0,0,response1disk,4,30,10.5,-5,1,0,0,rectangle,10.5,-5,1,0,0,,3,0,10.5,-5,1,0,0,0,29,29,158,1,0,,,,,,,,,,,,,,,,,,,,,
,,,,,,,,,,,,,,,,,,,,,,,,,,,,,,,,,,,,,,,,,,5bfed3755eecf20001fb3681,6068420ec0f0497cc97cfc29,2021-04-03_11h23.23.927,Colour_Similarity_Experiment,2020.2.10,Win32,60,60674ec340277cd6a308bc9f,17.35147392,16.72279496,16.7144385,16.71700163,16.71939954,16.71939954,,,,,,,,,,,,,,,,,,,,PF,strong,3,,,,,,,,1,1.701,,,,,,,,,,,,,,,,,,,,,,,,,,,,2,strong,-96.5,25,1,0,0,response7disk,3,31,-8.5,-10,1,0,0,rectangle,135.5,-51,1,0,0,5,5,4.336,19.5,2,1,0,0,0,30,30,104,1,1,response3disk_3,rectangle,,,,,,,,,,,,,,,,,,,
,,,,,,,,,,,,,,,,,,,,,,,,,,,,,,,,,,,,,,,,,,5bfed3755eecf20001fb3681,6068420ec0f0497cc97cfc29,2021-04-03_11h23.23.927,Colour_Similarity_Experiment,2020.2.10,Win32,60,60674ec340277cd6a308bc9f,17.35147392,16.72279496,16.7144385,16.71700163,16.71939954,16.71939954,,,,,,,,,,,,,,,,,,,,PF,strong,3,,,,,,,,5,7.339,,,,,,,,,,,,,,,,,,,,,,,,,,,,2,strong,95.5,-56,1,0,0,response3disk,8,32,3.5,9,1,0,0,rectangle,3.5,9,1,0,0,5,1,0.001,3.5,9,1,0,0,0,31,31,62,1,0,,,,,,,,,,,,,,,,,,,,,
,,,,,,,,,,,,,,,,,,,,,,,,,,,,,,,,,,,,,,,,,,5bfed3755eecf20001fb3681,6068420ec0f0497cc97cfc29,2021-04-03_11h23.23.927,Colour_Similarity_Experiment,2020.2.10,Win32,60,60674ec340277cd6a308bc9f,17.35147392,16.72279496,16.7144385,16.71700163,16.71939954,16.71939954,,,,,,,,,,,,,,,,,,,,PF,weak,3,,,,,,,,3,1.384,,,,,,,,,,,,,,,,,,,,,,,,,,,,4,weak,-36.5,-89,1,0,0,response5disk,2,33,8.5,3,1,0,0,rectangle,8.5,3,1,0,0,5,1,0.001,8.5,3,1,0,0,0,32,32,108,1,0,,,,,,,,,,,,,,,,,,,,,
,,,,,,,,,,,,,,,,,,,,,,,,,,,,,,,,,,,,,,,,,,5bfed3755eecf20001fb3681,6068420ec0f0497cc97cfc29,2021-04-03_11h23.23.927,Colour_Similarity_Experiment,2020.2.10,Win32,60,60674ec340277cd6a308bc9f,17.35147392,16.72279496,16.7144385,16.71700163,16.71939954,16.71939954,,,,,,,,,,,,,,,,,,,,PF,strong,3,,,,,,,,3,1.984,,,,,,,,,,,,,,,,,,,,,,,,,,,,2,strong,-46.5,-136,1,0,0,response5disk,2,34,6.5,-2,1,0,0,rectangle,6.5,-2,1,0,0,5,2,0.002,6.5,-2,1,0,0,0,33,33,142,1,0,,,,,,,,,,,,,,,,,,,,,
,,,,,,,,,,,,,,,,,,,,,,,,,,,,,,,,,,,,,,,,,,5bfed3755eecf20001fb3681,6068420ec0f0497cc97cfc29,2021-04-03_11h23.23.927,Colour_Similarity_Experiment,2020.2.10,Win32,60,60674ec340277cd6a308bc9f,17.35147392,16.72279496,16.7144385,16.71700163,16.71939954,16.71939954,,,,,,,,,,,,,,,,,,,,PF,weak,3,,,,,,,,3,2.769,,,,,,,,,,,,,,,,,,,,,,,,,,,,7,weak,-47.5,-133,1,0,0,response5disk,6,35,25.5,6,1,0,0,rectangle,25.5,6,1,0,0,5,2,0,25.5,6,1,0,0,0,34,34,29,1,0,,,,,,,,,,,,,,,,,,,,,
,,,,,,,,,,,,,,,,,,,,,,,,,,,,,,,,,,,,,,,,,,5bfed3755eecf20001fb3681,6068420ec0f0497cc97cfc29,2021-04-03_11h23.23.927,Colour_Similarity_Experiment,2020.2.10,Win32,60,60674ec340277cd6a308bc9f,17.35147392,16.72279496,16.7144385,16.71700163,16.71939954,16.71939954,,,,,,,,,,,,,,,,,,,,PF,weak,3,,,,,,,,6,2.702,,,,,,,,,,,,,,,,,,,,,,,,,,,,7,weak,135.5,40,1,0,0,response1disk,3,36,31.5,1,1,0,0,rectangle,31.5,1,1,0,0,5,4,0.001,31.5,1,1,0,0,0,35,35,81,1,0,,,,,,,,,,,,,,,,,,,,,
,,,,,,,,,,,,,,,,,,,,,,,,,,,,,,,,,,,,,,,,,,5bfed3755eecf20001fb3681,6068420ec0f0497cc97cfc29,2021-04-03_11h23.23.927,Colour_Similarity_Experiment,2020.2.10,Win32,60,60674ec340277cd6a308bc9f,17.35147392,16.72279496,16.7144385,16.71700163,16.71939954,16.71939954,,,,,,,,,,,,,,,,,,,,PF,weak,3,,,,,,,,6,3.853,,,,,,,,,,,,,,,,,,,,,,,,,,,,9,weak,121.5,55,1,0,0,response1disk,1,37,39.5,5,1,0,0,rectangle,39.5,5,1,0,0,5,4,0,39.5,5,1,0,0,0,36,36,74,1,0,,,,,,,,,,,,,,,,,,,,,
,,,,,,,,,,,,,,,,,,,,,,,,,,,,,,,,,,,,,,,,,,5bfed3755eecf20001fb3681,6068420ec0f0497cc97cfc29,2021-04-03_11h23.23.927,Colour_Similarity_Experiment,2020.2.10,Win32,60,60674ec340277cd6a308bc9f,17.35147392,16.72279496,16.7144385,16.71700163,16.71939954,16.71939954,,,,,,,,,,,,,,,,,,,,PF,strong,3,,,,,,,,4,3.937,,,,,,,,,,,,,,,,,,,,,,,,,,,,6,strong,47.5,-111,1,0,0,response3disk,9,38,29.5,5,1,0,0,rectangle,133.5,-55,1,0,0,5,5,2.169,-8.5,10,1,0,0,0,37,37,160,1,1,response3disk_3,rectangle,,,,,,,,,,,,,,,,,,,
,,,,,,,,,,,,,,,,,,,,,,,,,,,,,,,,,,,,,,,,,,5bfed3755eecf20001fb3681,6068420ec0f0497cc97cfc29,2021-04-03_11h23.23.927,Colour_Similarity_Experiment,2020.2.10,Win32,60,60674ec340277cd6a308bc9f,17.35147392,16.72279496,16.7144385,16.71700163,16.71939954,16.71939954,,,,,,,,,,,,,,,,,,,,PF,weak,3,,,,,,,,6,7.24,,,,,,,,,,,,,,,,,,,,,,,,,,,,1,weak,99.5,31,1,0,0,response1disk,5,39,-2.5,2,1,0,0,rectangle,-2.5,2,1,0,0,5,2,0.001,-2.5,2,1,0,0,0,38,38,28,1,0,,,,,,,,,,,,,,,,,,,,,
,,,,,,,,,,,,,,,,,,,,,,,,,,,,,,,,,,,,,,,,,,5bfed3755eecf20001fb3681,6068420ec0f0497cc97cfc29,2021-04-03_11h23.23.927,Colour_Similarity_Experiment,2020.2.10,Win32,60,60674ec340277cd6a308bc9f,17.35147392,16.72279496,16.7144385,16.71700163,16.71939954,16.71939954,,,,,,,,,,,,,,,,,,,,PF,strong,3,,,,,,,,5,10.442,,,,,,,,,,,,,,,,,,,,,,,,,,,,9,strong,97.5,-49,1,0,0,response3disk,9,40,-18.5,5,1,0,0,rectangle,-18.5,5,1,0,0,5,5,0.001,-18.5,5,1,0,0,0,39,39,17,1,0,,,,,,,,,,,,,,,,,,,,,
,,,,,,,,,,,,,,,,,,,,,,,,,,,,,,,,,,,,,,,,,,5bfed3755eecf20001fb3681,6068420ec0f0497cc97cfc29,2021-04-03_11h23.23.927,Colour_Similarity_Experiment,2020.2.10,Win32,60,60674ec340277cd6a308bc9f,17.35147392,16.72279496,16.7144385,16.71700163,16.71939954,16.71939954,,,,,,,,,,,,,,,,,,,,PF,strong,3,,,,,,,,6,3.769,,,,,,,,,,,,,,,,,,,,,,,,,,,,9,strong,115.5,33,1,0,0,response1disk,4,41,27.5,1,1,0,0,rectangle,27.5,1,1,0,0,5,3,0.003,27.5,1,1,0,0,0,40,40,60,1,0,,,,,,,,,,,,,,,,,,,,,
,,,,,,,,,,,,,,,,,,,,,,,,,,,,,,,,,,,,,,,,,,5bfed3755eecf20001fb3681,6068420ec0f0497cc97cfc29,2021-04-03_11h23.23.927,Colour_Similarity_Experiment,2020.2.10,Win32,60,60674ec340277cd6a308bc9f,17.35147392,16.72279496,16.7144385,16.71700163,16.71939954,16.71939954,,,,,,,,,,,,,,,,,,,,PF,strong,3,,,,,,,,2,3.186,,,,,,,,,,,,,,,,,,,,,,,,,,,,4,strong,-103.5,-49,1,0,0,response5disk,2,42,-1.5,7,1,0,0,rectangle,-1.5,7,1,0,0,5,3,0.001,-1.5,7,1,0,0,0,41,41,13,1,0,,,,,,,,,,,,,,,,,,,,,
,,,,,,,,,,,,,,,,,,,,,,,,,,,,,,,,,,,,,,,,,,5bfed3755eecf20001fb3681,6068420ec0f0497cc97cfc29,2021-04-03_11h23.23.927,Colour_Similarity_Experiment,2020.2.10,Win32,60,60674ec340277cd6a308bc9f,17.35147392,16.72279496,16.7144385,16.71700163,16.71939954,16.71939954,,,,,,,,,,,,,,,,,,,,PF,weak,3,,,,,,,,6,1.669,,,,,,,,,,,,,,,,,,,,,,,,,,,,8,weak,102.5,36,1,0,0,response1disk,1,43,7.5,-10,1,0,0,rectangle,7.5,-10,1,0,0,5,4,0.001,7.5,-10,1,0,0,0,42,42,57,1,0,,,,,,,,,,,,,,,,,,,,,
,,,,,,,,,,,,,,,,,,,,,,,,,,,,,,,,,,,,,,,,,,5bfed3755eecf20001fb3681,6068420ec0f0497cc97cfc29,2021-04-03_11h23.23.927,Colour_Similarity_Experiment,2020.2.10,Win32,60,60674ec340277cd6a308bc9f,17.35147392,16.72279496,16.7144385,16.71700163,16.71939954,16.71939954,,,,,,,,,,,,,,,,,,,,PF,strong,3,,,,,,,,6,1.869,,,,,,,,,,,,,,,,,,,,,,,,,,,,7,strong,81.5,35,1,0,0,response1disk,2,44,7.5,-2,1,0,0,rectangle,7.5,-2,1,0,0,5,4,0,7.5,-2,1,0,0,0,43,43,138,1,0,,,,,,,,,,,,,,,,,,,,,
,,,,,,,,,,,,,,,,,,,,,,,,,,,,,,,,,,,,,,,,,,5bfed3755eecf20001fb3681,6068420ec0f0497cc97cfc29,2021-04-03_11h23.23.927,Colour_Similarity_Experiment,2020.2.10,Win32,60,60674ec340277cd6a308bc9f,17.35147392,16.72279496,16.7144385,16.71700163,16.71939954,16.71939954,,,,,,,,,,,,,,,,,,,,PF,strong,3,,,,,,,,6,1.801,,,,,,,,,,,,,,,,,,,,,,,,,,,,1,strong,87.5,36,1,0,0,response1disk,7,45,27.5,6,1,0,0,rectangle,27.5,6,1,0,0,5,1,0.001,27.5,6,1,0,0,0,44,44,137,1,0,,,,,,,,,,,,,,,,,,,,,
,,,,,,,,,,,,,,,,,,,,,,,,,,,,,,,,,,,,,,,,,,5bfed3755eecf20001fb3681,6068420ec0f0497cc97cfc29,2021-04-03_11h23.23.927,Colour_Similarity_Experiment,2020.2.10,Win32,60,60674ec340277cd6a308bc9f,17.35147392,16.72279496,16.7144385,16.71700163,16.71939954,16.71939954,,,,,,,,,,,,,,,,,,,,PF,weak,3,,,,,,,,6,1.335,,,,,,,,,,,,,,,,,,,,,,,,,,,,5,weak,83.5,41,1,0,0,response1disk,8,46,1.5,0,1,0,0,rectangle,1.5,0,1,0,0,5,7,0.001,1.5,0,1,0,0,0,45,45,149,1,0,,,,,,,,,,,,,,,,,,,,,
,,,,,,,,,,,,,,,,,,,,,,,,,,,,,,,,,,,,,,,,,,5bfed3755eecf20001fb3681,6068420ec0f0497cc97cfc29,2021-04-03_11h23.23.927,Colour_Similarity_Experiment,2020.2.10,Win32,60,60674ec340277cd6a308bc9f,17.35147392,16.72279496,16.7144385,16.71700163,16.71939954,16.71939954,,,,,,,,,,,,,,,,,,,,PF,weak,3,,,,,,,,3,2.102,,,,,,,,,,,,,,,,,,,,,,,,,,,,2,weak,-75.5,-112,1,0,0,response5disk,1,47,-10.5,3,1,0,0,rectangle,-10.5,3,1,0,0,5,2,0,-10.5,3,1,0,0,0,46,46,9,1,0,,,,,,,,,,,,,,,,,,,,,
,,,,,,,,,,,,,,,,,,,,,,,,,,,,,,,,,,,,,,,,,,5bfed3755eecf20001fb3681,6068420ec0f0497cc97cfc29,2021-04-03_11h23.23.927,Colour_Similarity_Experiment,2020.2.10,Win32,60,60674ec340277cd6a308bc9f,17.35147392,16.72279496,16.7144385,16.71700163,16.71939954,16.71939954,,,,,,,,,,,,,,,,,,,,PF,strong,3,,,,,,,,6,1.217,,,,,,,,,,,,,,,,,,,,,,,,,,,,6,strong,91.5,39,1,0,0,response1disk,4,48,17.5,-7,1,0,0,rectangle,17.5,-7,1,0,0,5,0,0.001,17.5,-7,1,0,0,0,47,47,56,1,0,,,,,,,,,,,,,,,,,,,,,
,,,,,,,,,,,,,,,,,,,,,,,,,,,,,,,,,,,,,,,,,,5bfed3755eecf20001fb3681,6068420ec0f0497cc97cfc29,2021-04-03_11h23.23.927,Colour_Similarity_Experiment,2020.2.10,Win32,60,60674ec340277cd6a308bc9f,17.35147392,16.72279496,16.7144385,16.71700163,16.71939954,16.71939954,,,,,,,,,,,,,,,,,,,,PF,weak,3,,,,,,,,2,2.102,,,,,,,,,,,,,,,,,,,,,,,,,,,,1,weak,-99.5,-72,1,0,0,response5disk,7,49,17.5,6,1,0,0,rectangle,17.5,6,1,0,0,5,2,0.001,17.5,6,1,0,0,0,48,48,150,1,0,,,,,,,,,,,,,,,,,,,,,
,,,,,,,,,,,,,,,,,,,,,,,,,,,,,,,,,,,,,,,,,,5bfed3755eecf20001fb3681,6068420ec0f0497cc97cfc29,2021-04-03_11h23.23.927,Colour_Similarity_Experiment,2020.2.10,Win32,60,60674ec340277cd6a308bc9f,17.35147392,16.72279496,16.7144385,16.71700163,16.71939954,16.71939954,,,,,,,,,,,,,,,,,,,,PF,weak,3,,,,,,,,1,1.635,,,,,,,,,,,,,,,,,,,,,,,,,,,,9,weak,-104.5,57,1,0,0,response7disk,6,50,11.5,9,1,0,0,rectangle,11.5,9,1,0,0,5,1,0.002,11.5,9,1,0,0,0,49,49,148,1,0,,,,,,,,,,,,,,,,,,,,,
,,,,,,,,,,,,,,,,,,,,,,,,,,,,,,,,,,,,,,,,,,5bfed3755eecf20001fb3681,6068420ec0f0497cc97cfc29,2021-04-03_11h23.23.927,Colour_Similarity_Experiment,2020.2.10,Win32,60,60674ec340277cd6a308bc9f,17.35147392,16.72279496,16.7144385,16.71700163,16.71939954,16.71939954,,,,,,,,,,,,,,,,,,,,PF,weak,3,,,,,,,,3,2.101,,,,,,,,,,,,,,,,,,,,,,,,,,,,2,weak,-79.5,-97,1,0,0,response5disk,2,51,3.5,14,1,0,0,rectangle,3.5,14,1,0,0,5,2,0.001,3.5,14,1,0,0,0,50,50,14,1,0,,,,,,,,,,,,,,,,,,,,,
,,,,,,,,,,,,,,,,,,,,,,,,,,,,,,,,,,,,,,,,,,5bfed3755eecf20001fb3681,6068420ec0f0497cc97cfc29,2021-04-03_11h23.23.927,Colour_Similarity_Experiment,2020.2.10,Win32,60,60674ec340277cd6a308bc9f,17.35147392,16.72279496,16.7144385,16.71700163,16.71939954,16.71939954,,,,,,,,,,,,,,,,,,,,PF,weak,3,,,,,,,,5,2.402,,,,,,,,,,,,,,,,,,,,,,,,,,,,1,weak,110.5,-33,1,0,0,response3disk,8,52,14.5,2,1,0,0,rectangle,14.5,2,1,0,0,5,0,0.001,14.5,2,1,0,0,0,51,51,65,1,0,,,,,,,,,,,,,,,,,,,,,
,,,,,,,,,,,,,,,,,,,,,,,,,,,,,,,,,,,,,,,,,,5bfed3755eecf20001fb3681,6068420ec0f0497cc97cfc29,2021-04-03_11h23.23.927,Colour_Similarity_Experiment,2020.2.10,Win32,60,60674ec340277cd6a308bc9f,17.35147392,16.72279496,16.7144385,16.71700163,16.71939954,16.71939954,,,,,,,,,,,,,,,,,,,,PF,weak,3,,,,,,,,5,3.102,,,,,,,,,,,,,,,,,,,,,,,,,,,,1,weak,106.5,-42,1,0,0,response3disk,3,53,21.5,-9,1,0,0,rectangle,21.5,-9,1,0,0,5,3,0.001,21.5,-9,1,0,0,0,52,52,1,1,0,,,,,,,,,,,,,,,,,,,,,
,,,,,,,,,,,,,,,,,,,,,,,,,,,,,,,,,,,,,,,,,,5bfed3755eecf20001fb3681,6068420ec0f0497cc97cfc29,2021-04-03_11h23.23.927,Colour_Similarity_Experiment,2020.2.10,Win32,60,60674ec340277cd6a308bc9f,17.35147392,16.72279496,16.7144385,16.71700163,16.71939954,16.71939954,,,,,,,,,,,,,,,,,,,,PF,strong,3,,,,,,,,6,2.018,,,,,,,,,,,,,,,,,,,,,,,,,,,,7,strong,111.5,83,1,0,0,response1disk,1,54,-9.5,-1,1,0,0,rectangle,-9.5,-1,1,0,0,5,1,0.001,-9.5,-1,1,0,0,0,53,53,132,1,0,,,,,,,,,,,,,,,,,,,,,
,,,,,,,,,,,,,,,,,,,,,,,,,,,,,,,,,,,,,,,,,,5bfed3755eecf20001fb3681,6068420ec0f0497cc97cfc29,2021-04-03_11h23.23.927,Colour_Similarity_Experiment,2020.2.10,Win32,60,60674ec340277cd6a308bc9f,17.35147392,16.72279496,16.7144385,16.71700163,16.71939954,16.71939954,,,,,,,,,,,,,,,,,,,,PF,weak,3,,,,,,,,6,1.584,,,,,,,,,,,,,,,,,,,,,,,,,,,,9,weak,111.5,56,1,0,0,response1disk,2,55,3.5,1,1,0,0,rectangle,3.5,1,1,0,0,5,6,0,3.5,1,1,0,0,0,54,54,157,1,0,,,,,,,,,,,,,,,,,,,,,
,,,,,,,,,,,,,,,,,,,,,,,,,,,,,,,,,,,,,,,,,,5bfed3755eecf20001fb3681,6068420ec0f0497cc97cfc29,2021-04-03_11h23.23.927,Colour_Similarity_Experiment,2020.2.10,Win32,60,60674ec340277cd6a308bc9f,17.35147392,16.72279496,16.7144385,16.71700163,16.71939954,16.71939954,,,,,,,,,,,,,,,,,,,,PF,weak,3,,,,,,,,6,2.469,,,,,,,,,,,,,,,,,,,,,,,,,,,,7,weak,104.5,48,1,0,0,response1disk,1,56,12.5,4,1,0,0,rectangle,12.5,4,1,0,0,5,4,0.001,12.5,4,1,0,0,0,55,55,53,1,0,,,,,,,,,,,,,,,,,,,,,
,,,,,,,,,,,,,,,,,,,,,,,,,,,,,,,,,,,,,,,,,,5bfed3755eecf20001fb3681,6068420ec0f0497cc97cfc29,2021-04-03_11h23.23.927,Colour_Similarity_Experiment,2020.2.10,Win32,60,60674ec340277cd6a308bc9f,17.35147392,16.72279496,16.7144385,16.71700163,16.71939954,16.71939954,,,,,,,,,,,,,,,,,,,,PF,strong,3,,,,,,,,2,2.786,,,,,,,,,,,,,,,,,,,,,,,,,,,,6,strong,-102.5,-61,1,0,0,response5disk,7,57,-0.5,7,1,0,0,rectangle,-0.5,7,1,0,0,5,6,0.001,-0.5,7,1,0,0,0,56,56,18,1,0,,,,,,,,,,,,,,,,,,,,,
,,,,,,,,,,,,,,,,,,,,,,,,,,,,,,,,,,,,,,,,,,5bfed3755eecf20001fb3681,6068420ec0f0497cc97cfc29,2021-04-03_11h23.23.927,Colour_Similarity_Experiment,2020.2.10,Win32,60,60674ec340277cd6a308bc9f,17.35147392,16.72279496,16.7144385,16.71700163,16.71939954,16.71939954,,,,,,,,,,,,,,,,,,,,PF,weak,3,,,,,,,,2,1.318,,,,,,,,,,,,,,,,,,,,,,,,,,,,1,weak,-97.5,-49,1,0,0,response5disk,1,58,1.5,5,1,0,0,rectangle,-104.5,-45,1,0,0,5,2,2.436,-4.5,-3,1,0,0,0,57,57,76,1,1,response5disk_3,rectangle,,,,,,,,,,,,,,,,,,,
,,,,,,,,,,,,,,,,,,,,,,,,,,,,,,,,,,,,,,,,,,5bfed3755eecf20001fb3681,6068420ec0f0497cc97cfc29,2021-04-03_11h23.23.927,Colour_Similarity_Experiment,2020.2.10,Win32,60,60674ec340277cd6a308bc9f,17.35147392,16.72279496,16.7144385,16.71700163,16.71939954,16.71939954,,,,,,,,,,,,,,,,,,,,PF,strong,3,,,,,,,,6,2.286,,,,,,,,,,,,,,,,,,,,,,,,,,,,9,strong,115.5,52,1,0,0,response1disk,5,59,32.5,2,1,0,0,rectangle,32.5,2,1,0,0,5,3,0.001,32.5,2,1,0,0,0,58,58,128,1,0,,,,,,,,,,,,,,,,,,,,,
,,,,,,,,,,,,,,,,,,,,,,,,,,,,,,,,,,,,,,,,,,5bfed3755eecf20001fb3681,6068420ec0f0497cc97cfc29,2021-04-03_11h23.23.927,Colour_Similarity_Experiment,2020.2.10,Win32,60,60674ec340277cd6a308bc9f,17.35147392,16.72279496,16.7144385,16.71700163,16.71939954,16.71939954,,,,,,,,,,,,,,,,,,,,PF,strong,3,,,,,,,,6,1.234,,,,,,,,,,,,,,,,,,,,,,,,,,,,1,strong,74.5,34,1,0,0,response1disk,5,60,-0.5,-9,1,0,0,rectangle,-0.5,-9,1,0,0,5,6,0.003,-0.5,-9,1,0,0,0,59,59,82,1,0,,,,,,,,,,,,,,,,,,,,,
,,,,,,,,,,,,,,,,,,,,,,,,,,,,,,,,,,,,,,,,,,5bfed3755eecf20001fb3681,6068420ec0f0497cc97cfc29,2021-04-03_11h23.23.927,Colour_Similarity_Experiment,2020.2.10,Win32,60,60674ec340277cd6a308bc9f,17.35147392,16.72279496,16.7144385,16.71700163,16.71939954,16.71939954,,,,,,,,,,,,,,,,,,,,PF,weak,3,,,,,,,,6,1.318,,,,,,,,,,,,,,,,,,,,,,,,,,,,5,weak,85.5,46,1,0,0,response1disk,1,61,26.5,5,1,0,0,rectangle,-59.5,109,1,0,0,0,0,1.984,31.5,7,1,0,0,0,60,60,159,1,1,response7disk_3,rectangle,,,,,,,,,,,,,,,,,,,
,,,,,,,,,,,,,,,,,,,,,,,,,,,,,,,,,,,,,,,,,,5bfed3755eecf20001fb3681,6068420ec0f0497cc97cfc29,2021-04-03_11h23.23.927,Colour_Similarity_Experiment,2020.2.10,Win32,60,60674ec340277cd6a308bc9f,17.35147392,16.72279496,16.7144385,16.71700163,16.71939954,16.71939954,,,,,,,,,,,,,,,,,,,,PF,strong,3,,,,,,,,6,1.035,,,,,,,,,,,,,,,,,,,,,,,,,,,,5,strong,77.5,51,1,0,0,response1disk,2,62,-6.5,15,1,0,0,rectangle,-36.5,-112,1,0,0,3,3,2.252,-2.5,17,1,0,0,0,61,61,55,1,1,response5disk_3,rectangle,,,,,,,,,,,,,,,,,,,
,,,,,,,,,,,,,,,,,,,,,,,,,,,,,,,,,,,,,,,,,,5bfed3755eecf20001fb3681,6068420ec0f0497cc97cfc29,2021-04-03_11h23.23.927,Colour_Similarity_Experiment,2020.2.10,Win32,60,60674ec340277cd6a308bc9f,17.35147392,16.72279496,16.7144385,16.71700163,16.71939954,16.71939954,,,,,,,,,,,,,,,,,,,,PF,weak,3,,,,,,,,1,1.618,,,,,,,,,,,,,,,,,,,,,,,,,,,,7,weak,-94.5,59,1,0,0,response7disk,7,63,-4.5,-2,1,0,0,rectangle,-4.5,-2,1,0,0,3,3,0,-4.5,-2,1,0,0,0,62,62,51,1,0,,,,,,,,,,,,,,,,,,,,,
,,,,,,,,,,,,,,,,,,,,,,,,,,,,,,,,,,,,,,,,,,5bfed3755eecf20001fb3681,6068420ec0f0497cc97cfc29,2021-04-03_11h23.23.927,Colour_Similarity_Experiment,2020.2.10,Win32,60,60674ec340277cd6a308bc9f,17.35147392,16.72279496,16.7144385,16.71700163,16.71939954,16.71939954,,,,,,,,,,,,,,,,,,,,PF,strong,3,,,,,,,,3,2.804,,,,,,,,,,,,,,,,,,,,,,,,,,,,6,strong,-28.5,-117,1,0,0,response5disk,2,64,14.5,7,1,0,0,rectangle,14.5,7,1,0,0,3,3,0,14.5,7,1,0,0,0,63,63,112,1,0,,,,,,,,,,,,,,,,,,,,,
,,,,,,,,,,,,,,,,,,,,,,,,,,,,,,,,,,,,,,,,,,5bfed3755eecf20001fb3681,6068420ec0f0497cc97cfc29,2021-04-03_11h23.23.927,Colour_Similarity_Experiment,2020.2.10,Win32,60,60674ec340277cd6a308bc9f,17.35147392,16.72279496,16.7144385,16.71700163,16.71939954,16.71939954,,,,,,,,,,,,,,,,,,,,PF,weak,3,,,,,,,,3,1.467,,,,,,,,,,,,,,,,,,,,,,,,,,,,8,weak,-36.5,-95,1,0,0,response5disk,2,65,0.5,-3,1,0,0,rectangle,0.5,-3,1,0,0,3,5,0.002,0.5,-3,1,0,0,0,64,64,83,1,0,,,,,,,,,,,,,,,,,,,,,
,,,,,,,,,,,,,,,,,,,,,,,,,,,,,,,,,,,,,,,,,,5bfed3755eecf20001fb3681,6068420ec0f0497cc97cfc29,2021-04-03_11h23.23.927,Colour_Similarity_Experiment,2020.2.10,Win32,60,60674ec340277cd6a308bc9f,17.35147392,16.72279496,16.7144385,16.71700163,16.71939954,16.71939954,,,,,,,,,,,,,,,,,,,,PF,weak,3,,,,,,,,1,2.186,,,,,,,,,,,,,,,,,,,,,,,,,,,,9,weak,-120.5,35,1,0,0,response7disk,5,66,9.5,2,1,0,0,rectangle,9.5,2,1,0,0,3,3,0.001,9.5,2,1,0,0,0,65,65,134,1,0,,,,,,,,,,,,,,,,,,,,,
,,,,,,,,,,,,,,,,,,,,,,,,,,,,,,,,,,,,,,,,,,5bfed3755eecf20001fb3681,6068420ec0f0497cc97cfc29,2021-04-03_11h23.23.927,Colour_Similarity_Experiment,2020.2.10,Win32,60,60674ec340277cd6a308bc9f,17.35147392,16.72279496,16.7144385,16.71700163,16.71939954,16.71939954,,,,,,,,,,,,,,,,,,,,PF,strong,3,,,,,,,,6,3.287,,,,,,,,,,,,,,,,,,,,,,,,,,,,4,strong,121.5,59,1,0,0,response1disk,6,67,17.5,4,1,0,0,rectangle,17.5,4,1,0,0,3,3,0,17.5,4,1,0,0,0,66,66,122,1,0,,,,,,,,,,,,,,,,,,,,,
,,,,,,,,,,,,,,,,,,,,,,,,,,,,,,,,,,,,,,,,,,5bfed3755eecf20001fb3681,6068420ec0f0497cc97cfc29,2021-04-03_11h23.23.927,Colour_Similarity_Experiment,2020.2.10,Win32,60,60674ec340277cd6a308bc9f,17.35147392,16.72279496,16.7144385,16.71700163,16.71939954,16.71939954,,,,,,,,,,,,,,,,,,,,PF,weak,3,,,,,,,,1,1.451,,,,,,,,,,,,,,,,,,,,,,,,,,,,6,weak,-81.5,35,1,0,0,response7disk,6,68,9.5,0,1,0,0,rectangle,9.5,0,1,0,0,3,1,0.001,9.5,0,1,0,0,0,67,67,0,1,0,,,,,,,,,,,,,,,,,,,,,
,,,,,,,,,,,,,,,,,,,,,,,,,,,,,,,,,,,,,,,,,,5bfed3755eecf20001fb3681,6068420ec0f0497cc97cfc29,2021-04-03_11h23.23.927,Colour_Similarity_Experiment,2020.2.10,Win32,60,60674ec340277cd6a308bc9f,17.35147392,16.72279496,16.7144385,16.71700163,16.71939954,16.71939954,,,,,,,,,,,,,,,,,,,,PF,weak,3,,,,,,,,6,3.137,,,,,,,,,,,,,,,,,,,,,,,,,,,,6,weak,123.5,37,1,0,0,response1disk,9,69,-13.5,0,1,0,0,rectangle,-13.5,0,1,0,0,3,6,0.001,-13.5,0,1,0,0,0,68,68,45,1,0,,,,,,,,,,,,,,,,,,,,,
,,,,,,,,,,,,,,,,,,,,,,,,,,,,,,,,,,,,,,,,,,5bfed3755eecf20001fb3681,6068420ec0f0497cc97cfc29,2021-04-03_11h23.23.927,Colour_Similarity_Experiment,2020.2.10,Win32,60,60674ec340277cd6a308bc9f,17.35147392,16.72279496,16.7144385,16.71700163,16.71939954,16.71939954,,,,,,,,,,,,,,,,,,,,PF,strong,3,,,,,,,,6,1.829,,,,,,,,,,,,,,,,,,,,,,,,,,,,9,strong,67.5,31,1,0,0,response1disk,1,70,10.5,2,1,0,0,rectangle,10.5,2,1,0,0,3,5,0.001,10.5,2,1,0,0,0,69,69,111,1,0,,,,,,,,,,,,,,,,,,,,,
,,,,,,,,,,,,,,,,,,,,,,,,,,,,,,,,,,,,,,,,,,5bfed3755eecf20001fb3681,6068420ec0f0497cc97cfc29,2021-04-03_11h23.23.927,Colour_Similarity_Experiment,2020.2.10,Win32,60,60674ec340277cd6a308bc9f,17.35147392,16.72279496,16.7144385,16.71700163,16.71939954,16.71939954,,,,,,,,,,,,,,,,,,,,PF,weak,3,,,,,,,,3,1.669,,,,,,,,,,,,,,,,,,,,,,,,,,,,5,weak,-58.5,-116,1,0,0,response5disk,3,71,14.5,9,1,0,0,rectangle,14.5,9,1,0,0,3,3,0.001,14.5,9,1,0,0,0,70,70,109,1,0,,,,,,,,,,,,,,,,,,,,,
,,,,,,,,,,,,,,,,,,,,,,,,,,,,,,,,,,,,,,,,,,5bfed3755eecf20001fb3681,6068420ec0f0497cc97cfc29,2021-04-03_11h23.23.927,Colour_Similarity_Experiment,2020.2.10,Win32,60,60674ec340277cd6a308bc9f,17.35147392,16.72279496,16.7144385,16.71700163,16.71939954,16.71939954,,,,,,,,,,,,,,,,,,,,PF,strong,3,,,,,,,,1,1.433,,,,,,,,,,,,,,,,,,,,,,,,,,,,3,strong,-113.5,40,1,0,0,response7disk,3,72,23.5,3,1,0,0,rectangle,23.5,3,1,0,0,3,2,0.001,23.5,3,1,0,0,0,71,71,68,1,0,,,,,,,,,,,,,,,,,,,,,
,,,,,,,,,,,,,,,,,,,,,,,,,,,,,,,,,,,,,,,,,,5bfed3755eecf20001fb3681,6068420ec0f0497cc97cfc29,2021-04-03_11h23.23.927,Colour_Similarity_Experiment,2020.2.10,Win32,60,60674ec340277cd6a308bc9f,17.35147392,16.72279496,16.7144385,16.71700163,16.71939954,16.71939954,,,,,,,,,,,,,,,,,,,,PF,weak,3,,,,,,,,6,1.601,,,,,,,,,,,,,,,,,,,,,,,,,,,,7,weak,92.5,43,1,0,0,response1disk,4,73,4.5,-3,1,0,0,rectangle,4.5,-3,1,0,0,3,4,0.001,4.5,-3,1,0,0,0,72,72,43,1,0,,,,,,,,,,,,,,,,,,,,,
,,,,,,,,,,,,,,,,,,,,,,,,,,,,,,,,,,,,,,,,,,5bfed3755eecf20001fb3681,6068420ec0f0497cc97cfc29,2021-04-03_11h23.23.927,Colour_Similarity_Experiment,2020.2.10,Win32,60,60674ec340277cd6a308bc9f,17.35147392,16.72279496,16.7144385,16.71700163,16.71939954,16.71939954,,,,,,,,,,,,,,,,,,,,PF,weak,3,,,,,,,,3,1.935,,,,,,,,,,,,,,,,,,,,,,,,,,,,5,weak,-82.5,-117,1,0,0,response5disk,4,74,3.5,0,1,0,0,rectangle,3.5,0,1,0,0,3,2,0.001,3.5,0,1,0,0,0,73,73,54,1,0,,,,,,,,,,,,,,,,,,,,,
,,,,,,,,,,,,,,,,,,,,,,,,,,,,,,,,,,,,,,,,,,5bfed3755eecf20001fb3681,6068420ec0f0497cc97cfc29,2021-04-03_11h23.23.927,Colour_Similarity_Experiment,2020.2.10,Win32,60,60674ec340277cd6a308bc9f,17.35147392,16.72279496,16.7144385,16.71700163,16.71939954,16.71939954,,,,,,,,,,,,,,,,,,,,PF,strong,3,,,,,,,,6,1.935,,,,,,,,,,,,,,,,,,,,,,,,,,,,2,strong,49.5,25,1,0,0,response1disk,7,75,7.5,-3,1,0,0,rectangle,7.5,-3,1,0,0,3,6,0.001,7.5,-3,1,0,0,0,74,74,63,1,0,,,,,,,,,,,,,,,,,,,,,
,,,,,,,,,,,,,,,,,,,,,,,,,,,,,,,,,,,,,,,,,,5bfed3755eecf20001fb3681,6068420ec0f0497cc97cfc29,2021-04-03_11h23.23.927,Colour_Similarity_Experiment,2020.2.10,Win32,60,60674ec340277cd6a308bc9f,17.35147392,16.72279496,16.7144385,16.71700163,16.71939954,16.71939954,,,,,,,,,,,,,,,,,,,,PF,weak,3,,,,,,,,6,1.395,,,,,,,,,,,,,,,,,,,,,,,,,,,,3,weak,67.5,33,1,0,0,response1disk,8,76,18.5,-1,1,0,0,rectangle,18.5,-1,1,0,0,3,6,0.001,18.5,-1,1,0,0,0,75,75,3,1,0,,,,,,,,,,,,,,,,,,,,,
,,,,,,,,,,,,,,,,,,,,,,,,,,,,,,,,,,,,,,,,,,5bfed3755eecf20001fb3681,6068420ec0f0497cc97cfc29,2021-04-03_11h23.23.927,Colour_Similarity_Experiment,2020.2.10,Win32,60,60674ec340277cd6a308bc9f,17.35147392,16.72279496,16.7144385,16.71700163,16.71939954,16.71939954,,,,,,,,,,,,,,,,,,,,PF,strong,3,,,,,,,,3,2.218,,,,,,,,,,,,,,,,,,,,,,,,,,,,7,strong,-96.5,-115,1,0,0,response5disk,9,77,-19.5,5,1,0,0,rectangle,-19.5,5,1,0,0,3,7,0,-19.5,5,1,0,0,0,76,76,155,1,0,,,,,,,,,,,,,,,,,,,,,
,,,,,,,,,,,,,,,,,,,,,,,,,,,,,,,,,,,,,,,,,,5bfed3755eecf20001fb3681,6068420ec0f0497cc97cfc29,2021-04-03_11h23.23.927,Colour_Similarity_Experiment,2020.2.10,Win32,60,60674ec340277cd6a308bc9f,17.35147392,16.72279496,16.7144385,16.71700163,16.71939954,16.71939954,,,,,,,,,,,,,,,,,,,,PF,strong,3,,,,,,,,6,1.836,,,,,,,,,,,,,,,,,,,,,,,,,,,,5,strong,88.5,50,1,0,0,response1disk,9,78,37.5,1,1,0,0,rectangle,37.5,1,1,0,0,3,4,0,37.5,1,1,0,0,0,77,77,61,1,0,,,,,,,,,,,,,,,,,,,,,
,,,,,,,,,,,,,,,,,,,,,,,,,,,,,,,,,,,,,,,,,,5bfed3755eecf20001fb3681,6068420ec0f0497cc97cfc29,2021-04-03_11h23.23.927,Colour_Similarity_Experiment,2020.2.10,Win32,60,60674ec340277cd6a308bc9f,17.35147392,16.72279496,16.7144385,16.71700163,16.71939954,16.71939954,,,,,,,,,,,,,,,,,,,,PF,strong,3,,,,,,,,4,2.385,,,,,,,,,,,,,,,,,,,,,,,,,,,,8,strong,27.5,-81,1,0,0,response3disk,2,79,27.5,-2,1,0,0,rectangle,27.5,-2,1,0,0,3,6,0,27.5,-2,1,0,0,0,78,78,22,1,0,,,,,,,,,,,,,,,,,,,,,
,,,,,,,,,,,,,,,,,,,,,,,,,,,,,,,,,,,,,,,,,,5bfed3755eecf20001fb3681,6068420ec0f0497cc97cfc29,2021-04-03_11h23.23.927,Colour_Similarity_Experiment,2020.2.10,Win32,60,60674ec340277cd6a308bc9f,17.35147392,16.72279496,16.7144385,16.71700163,16.71939954,16.71939954,,,,,,,,,,,,,,,,,,,,PF,weak,3,,,,,,,,6,1.352,,,,,,,,,,,,,,,,,,,,,,,,,,,,2,weak,51.5,36,1,0,0,response1disk,9,80,15.5,3,1,0,0,rectangle,15.5,3,1,0,0,3,0,0,15.5,3,1,0,0,0,79,79,39,1,0,,,,,,,,,,,,,,,,,,,,,
,,,,,,,,,,,,,,,,,,,,,,,,,,,,,,,,,,,,,,,,,,5bfed3755eecf20001fb3681,6068420ec0f0497cc97cfc29,2021-04-03_11h23.23.927,Colour_Similarity_Experiment,2020.2.10,Win32,60,60674ec340277cd6a308bc9f,17.35147392,16.72279496,16.7144385,16.71700163,16.71939954,16.71939954,,,,,,,,,,,,,,,,,,,,PF,weak,3,,,,,,,,6,2.503,,,,,,,,,,,,,,,,,,,,,,,,,,,,3,weak,140.5,47,1,0,0,response1disk,1,81,10.5,-8,1,0,0,rectangle,10.5,-8,1,0,0,3,4,0,10.5,-8,1,0,0,0,80,80,96,1,0,,,,,,,,,,,,,,,,,,,,,
,,,,,,,,,,,,,,,,,,,,,,,,,,,,,,,,,,,,,,,,,,5bfed3755eecf20001fb3681,6068420ec0f0497cc97cfc29,2021-04-03_11h23.23.927,Colour_Similarity_Experiment,2020.2.10,Win32,60,60674ec340277cd6a308bc9f,17.35147392,16.72279496,16.7144385,16.71700163,16.71939954,16.71939954,,,,,,,,,,,,,,,,,,,,PF,strong,3,,,,,,,,6,1.35,,,,,,,,,,,,,,,,,,,,,,,,,,,,6,strong,90.5,42,1,0,0,response1disk,5,82,6.5,-4,1,0,0,rectangle,6.5,-4,1,0,0,3,5,0.003,6.5,-4,1,0,0,0,81,81,126,1,0,,,,,,,,,,,,,,,,,,,,,
,,,,,,,,,,,,,,,,,,,,,,,,,,,,,,,,,,,,,,,,,,5bfed3755eecf20001fb3681,6068420ec0f0497cc97cfc29,2021-04-03_11h23.23.927,Colour_Similarity_Experiment,2020.2.10,Win32,60,60674ec340277cd6a308bc9f,17.35147392,16.72279496,16.7144385,16.71700163,16.71939954,16.71939954,,,,,,,,,,,,,,,,,,,,PF,weak,3,,,,,,,,6,1.702,,,,,,,,,,,,,,,,,,,,,,,,,,,,5,weak,113.5,59,1,0,0,response1disk,9,83,6.5,1,1,0,0,rectangle,116.5,51,1,0,0,6,6,1.852,8.5,8,1,0,0,0,82,82,136,1,1,response1disk_3,rectangle,,,,,,,,,,,,,,,,,,,
,,,,,,,,,,,,,,,,,,,,,,,,,,,,,,,,,,,,,,,,,,5bfed3755eecf20001fb3681,6068420ec0f0497cc97cfc29,2021-04-03_11h23.23.927,Colour_Similarity_Experiment,2020.2.10,Win32,60,60674ec340277cd6a308bc9f,17.35147392,16.72279496,16.7144385,16.71700163,16.71939954,16.71939954,,,,,,,,,,,,,,,,,,,,PF,weak,3,,,,,,,,2,2.736,,,,,,,,,,,,,,,,,,,,,,,,,,,,4,weak,-104.5,-53,1,0,0,response5disk,5,84,29.5,5,1,0,0,rectangle,29.5,5,1,0,0,6,7,0.001,29.5,5,1,0,0,0,83,83,49,1,0,,,,,,,,,,,,,,,,,,,,,
,,,,,,,,,,,,,,,,,,,,,,,,,,,,,,,,,,,,,,,,,,5bfed3755eecf20001fb3681,6068420ec0f0497cc97cfc29,2021-04-03_11h23.23.927,Colour_Similarity_Experiment,2020.2.10,Win32,60,60674ec340277cd6a308bc9f,17.35147392,16.72279496,16.7144385,16.71700163,16.71939954,16.71939954,,,,,,,,,,,,,,,,,,,,PF,weak,3,,,,,,,,6,1.017,,,,,,,,,,,,,,,,,,,,,,,,,,,,3,weak,99.5,48,1,0,0,response1disk,9,85,8.5,9,1,0,0,rectangle,8.5,9,1,0,0,6,4,0,8.5,9,1,0,0,0,84,84,79,1,0,,,,,,,,,,,,,,,,,,,,,
,,,,,,,,,,,,,,,,,,,,,,,,,,,,,,,,,,,,,,,,,,5bfed3755eecf20001fb3681,6068420ec0f0497cc97cfc29,2021-04-03_11h23.23.927,Colour_Similarity_Experiment,2020.2.10,Win32,60,60674ec340277cd6a308bc9f,17.35147392,16.72279496,16.7144385,16.71700163,16.71939954,16.71939954,,,,,,,,,,,,,,,,,,,,PF,weak,3,,,,,,,,6,1.769,,,,,,,,,,,,,,,,,,,,,,,,,,,,2,weak,95.5,49,1,0,0,response1disk,7,86,27.5,7,1,0,0,rectangle,27.5,7,1,0,0,6,2,0.002,27.5,7,1,0,0,0,85,85,107,1,0,,,,,,,,,,,,,,,,,,,,,
,,,,,,,,,,,,,,,,,,,,,,,,,,,,,,,,,,,,,,,,,,5bfed3755eecf20001fb3681,6068420ec0f0497cc97cfc29,2021-04-03_11h23.23.927,Colour_Similarity_Experiment,2020.2.10,Win32,60,60674ec340277cd6a308bc9f,17.35147392,16.72279496,16.7144385,16.71700163,16.71939954,16.71939954,,,,,,,,,,,,,,,,,,,,PF,weak,3,,,,,,,,2,2.335,,,,,,,,,,,,,,,,,,,,,,,,,,,,4,weak,-112.5,-38,1,0,0,response5disk,8,87,29.5,1,1,0,0,rectangle,29.5,1,1,0,0,6,2,0,29.5,1,1,0,0,0,86,86,124,1,0,,,,,,,,,,,,,,,,,,,,,
,,,,,,,,,,,,,,,,,,,,,,,,,,,,,,,,,,,,,,,,,,5bfed3755eecf20001fb3681,6068420ec0f0497cc97cfc29,2021-04-03_11h23.23.927,Colour_Similarity_Experiment,2020.2.10,Win32,60,60674ec340277cd6a308bc9f,17.35147392,16.72279496,16.7144385,16.71700163,16.71939954,16.71939954,,,,,,,,,,,,,,,,,,,,PF,weak,3,,,,,,,,6,1.485,,,,,,,,,,,,,,,,,,,,,,,,,,,,3,weak,89.5,38,1,0,0,response1disk,2,88,20.5,1,1,0,0,rectangle,113.5,-36,1,0,0,5,5,1.867,-5.5,-2,1,0,0,0,87,87,36,1,1,response3disk_3,rectangle,,,,,,,,,,,,,,,,,,,
,,,,,,,,,,,,,,,,,,,,,,,,,,,,,,,,,,,,,,,,,,5bfed3755eecf20001fb3681,6068420ec0f0497cc97cfc29,2021-04-03_11h23.23.927,Colour_Similarity_Experiment,2020.2.10,Win32,60,60674ec340277cd6a308bc9f,17.35147392,16.72279496,16.7144385,16.71700163,16.71939954,16.71939954,,,,,,,,,,,,,,,,,,,,PF,strong,3,,,,,,,,6,1.185,,,,,,,,,,,,,,,,,,,,,,,,,,,,7,strong,123.5,53,1,0,0,response1disk,3,89,-0.5,-3,1,0,0,rectangle,-0.5,-3,1,0,0,5,0,0.001,-0.5,-3,1,0,0,0,88,88,73,1,0,,,,,,,,,,,,,,,,,,,,,
,,,,,,,,,,,,,,,,,,,,,,,,,,,,,,,,,,,,,,,,,,5bfed3755eecf20001fb3681,6068420ec0f0497cc97cfc29,2021-04-03_11h23.23.927,Colour_Similarity_Experiment,2020.2.10,Win32,60,60674ec340277cd6a308bc9f,17.35147392,16.72279496,16.7144385,16.71700163,16.71939954,16.71939954,,,,,,,,,,,,,,,,,,,,PF,strong,3,,,,,,,,6,1.218,,,,,,,,,,,,,,,,,,,,,,,,,,,,4,strong,83.5,40,1,0,0,response1disk,1,90,-2.5,-5,1,0,0,rectangle,-2.5,-5,1,0,0,5,1,0.001,-2.5,-5,1,0,0,0,89,89,102,1,0,,,,,,,,,,,,,,,,,,,,,
,,,,,,,,,,,,,,,,,,,,,,,,,,,,,,,,,,,,,,,,,,5bfed3755eecf20001fb3681,6068420ec0f0497cc97cfc29,2021-04-03_11h23.23.927,Colour_Similarity_Experiment,2020.2.10,Win32,60,60674ec340277cd6a308bc9f,17.35147392,16.72279496,16.7144385,16.71700163,16.71939954,16.71939954,,,,,,,,,,,,,,,,,,,,PF,weak,3,,,,,,,,6,1.418,,,,,,,,,,,,,,,,,,,,,,,,,,,,4,weak,101.5,47,1,0,0,response1disk,9,91,14.5,-3,1,0,0,rectangle,14.5,-3,1,0,0,5,4,0.001,14.5,-3,1,0,0,0,90,90,75,1,0,,,,,,,,,,,,,,,,,,,,,
,,,,,,,,,,,,,,,,,,,,,,,,,,,,,,,,,,,,,,,,,,5bfed3755eecf20001fb3681,6068420ec0f0497cc97cfc29,2021-04-03_11h23.23.927,Colour_Similarity_Experiment,2020.2.10,Win32,60,60674ec340277cd6a308bc9f,17.35147392,16.72279496,16.7144385,16.71700163,16.71939954,16.71939954,,,,,,,,,,,,,,,,,,,,PF,weak,3,,,,,,,,3,1.502,,,,,,,,,,,,,,,,,,,,,,,,,,,,9,weak,-48.5,-95,1,0,0,response5disk,8,92,16.5,-15,1,0,0,rectangle,16.5,-15,1,0,0,5,7,0,16.5,-15,1,0,0,0,91,91,67,1,0,,,,,,,,,,,,,,,,,,,,,
,,,,,,,,,,,,,,,,,,,,,,,,,,,,,,,,,,,,,,,,,,5bfed3755eecf20001fb3681,6068420ec0f0497cc97cfc29,2021-04-03_11h23.23.927,Colour_Similarity_Experiment,2020.2.10,Win32,60,60674ec340277cd6a308bc9f,17.35147392,16.72279496,16.7144385,16.71700163,16.71939954,16.71939954,,,,,,,,,,,,,,,,,,,,PF,strong,3,,,,,,,,3,1.552,,,,,,,,,,,,,,,,,,,,,,,,,,,,9,strong,-80.5,-117,1,0,0,response5disk,3,93,-4.5,-14,1,0,0,rectangle,-4.5,-14,1,0,0,5,6,0.001,-4.5,-14,1,0,0,0,92,92,141,1,0,,,,,,,,,,,,,,,,,,,,,
,,,,,,,,,,,,,,,,,,,,,,,,,,,,,,,,,,,,,,,,,,5bfed3755eecf20001fb3681,6068420ec0f0497cc97cfc29,2021-04-03_11h23.23.927,Colour_Similarity_Experiment,2020.2.10,Win32,60,60674ec340277cd6a308bc9f,17.35147392,16.72279496,16.7144385,16.71700163,16.71939954,16.71939954,,,,,,,,,,,,,,,,,,,,PF,strong,3,,,,,,,,6,1.434,,,,,,,,,,,,,,,,,,,,,,,,,,,,8,strong,79.5,41,1,0,0,response1disk,9,94,11.5,-7,1,0,0,rectangle,11.5,-7,1,0,0,5,6,0,11.5,-7,1,0,0,0,93,93,105,1,0,,,,,,,,,,,,,,,,,,,,,
,,,,,,,,,,,,,,,,,,,,,,,,,,,,,,,,,,,,,,,,,,5bfed3755eecf20001fb3681,6068420ec0f0497cc97cfc29,2021-04-03_11h23.23.927,Colour_Similarity_Experiment,2020.2.10,Win32,60,60674ec340277cd6a308bc9f,17.35147392,16.72279496,16.7144385,16.71700163,16.71939954,16.71939954,,,,,,,,,,,,,,,,,,,,PF,strong,3,,,,,,,,6,2.418,,,,,,,,,,,,,,,,,,,,,,,,,,,,4,strong,134.5,69,1,0,0,response1disk,7,95,-26.5,-5,1,0,0,rectangle,-26.5,-5,1,0,0,5,3,0.001,-26.5,-5,1,0,0,0,94,94,87,1,0,,,,,,,,,,,,,,,,,,,,,
,,,,,,,,,,,,,,,,,,,,,,,,,,,,,,,,,,,,,,,,,,5bfed3755eecf20001fb3681,6068420ec0f0497cc97cfc29,2021-04-03_11h23.23.927,Colour_Similarity_Experiment,2020.2.10,Win32,60,60674ec340277cd6a308bc9f,17.35147392,16.72279496,16.7144385,16.71700163,16.71939954,16.71939954,,,,,,,,,,,,,,,,,,,,PF,strong,3,,,,,,,,2,2.352,,,,,,,,,,,,,,,,,,,,,,,,,,,,4,strong,-108.5,-45,1,0,0,response5disk,5,96,1.5,-1,1,0,0,rectangle,1.5,-1,1,0,0,5,2,0.003,1.5,-1,1,0,0,0,95,95,116,1,0,,,,,,,,,,,,,,,,,,,,,
,,,,,,,,,,,,,,,,,,,,,,,,,,,,,,,,,,,,,,,,,,5bfed3755eecf20001fb3681,6068420ec0f0497cc97cfc29,2021-04-03_11h23.23.927,Colour_Similarity_Experiment,2020.2.10,Win32,60,60674ec340277cd6a308bc9f,17.35147392,16.72279496,16.7144385,16.71700163,16.71939954,16.71939954,,,,,,,,,,,,,,,,,,,,PF,strong,3,,,,,,,,2,1.102,,,,,,,,,,,,,,,,,,,,,,,,,,,,5,strong,-82.5,-48,1,0,0,response5disk,4,97,-1.5,-7,1,0,0,rectangle,-1.5,-7,1,0,0,5,7,0.001,-1.5,-7,1,0,0,0,96,96,8,1,0,,,,,,,,,,,,,,,,,,,,,
,,,,,,,,,,,,,,,,,,,,,,,,,,,,,,,,,,,,,,,,,,5bfed3755eecf20001fb3681,6068420ec0f0497cc97cfc29,2021-04-03_11h23.23.927,Colour_Similarity_Experiment,2020.2.10,Win32,60,60674ec340277cd6a308bc9f,17.35147392,16.72279496,16.7144385,16.71700163,16.71939954,16.71939954,,,,,,,,,,,,,,,,,,,,PF,weak,3,,,,,,,,3,1.367,,,,,,,,,,,,,,,,,,,,,,,,,,,,9,weak,-41.5,-79,1,0,0,response5disk,7,98,11.5,-5,1,0,0,rectangle,11.5,-5,1,0,0,5,6,0.001,11.5,-5,1,0,0,0,97,97,121,1,0,,,,,,,,,,,,,,,,,,,,,
,,,,,,,,,,,,,,,,,,,,,,,,,,,,,,,,,,,,,,,,,,5bfed3755eecf20001fb3681,6068420ec0f0497cc97cfc29,2021-04-03_11h23.23.927,Colour_Similarity_Experiment,2020.2.10,Win32,60,60674ec340277cd6a308bc9f,17.35147392,16.72279496,16.7144385,16.71700163,16.71939954,16.71939954,,,,,,,,,,,,,,,,,,,,PF,strong,3,,,,,,,,2,1.551,,,,,,,,,,,,,,,,,,,,,,,,,,,,3,strong,-82.5,-47,1,0,0,response5disk,2,99,-6.5,-4,1,0,0,rectangle,-6.5,-4,1,0,0,5,5,0.002,-6.5,-4,1,0,0,0,98,98,93,1,0,,,,,,,,,,,,,,,,,,,,,
,,,,,,,,,,,,,,,,,,,,,,,,,,,,,,,,,,,,,,,,,,5bfed3755eecf20001fb3681,6068420ec0f0497cc97cfc29,2021-04-03_11h23.23.927,Colour_Similarity_Experiment,2020.2.10,Win32,60,60674ec340277cd6a308bc9f,17.35147392,16.72279496,16.7144385,16.71700163,16.71939954,16.71939954,,,,,,,,,,,,,,,,,,,,PF,weak,3,,,,,,,,6,1.234,,,,,,,,,,,,,,,,,,,,,,,,,,,,3,weak,119.5,71,1,0,0,response1disk,6,100,2.5,-3,1,0,0,rectangle,2.5,-3,1,0,0,5,2,0,2.5,-3,1,0,0,0,99,99,47,1,0,,,,,,,,,,,,,,,,,,,,,
,,,,,,,,,,,,,,,,,,,,,,,,,,,,,,,,,,,,,,,,,,5bfed3755eecf20001fb3681,6068420ec0f0497cc97cfc29,2021-04-03_11h23.23.927,Colour_Similarity_Experiment,2020.2.10,Win32,60,60674ec340277cd6a308bc9f,17.35147392,16.72279496,16.7144385,16.71700163,16.71939954,16.71939954,,,,,,,,,,,,,,,,,,,,PF,weak,3,,,,,,,,1,1.4,,,,,,,,,,,,,,,,,,,,,,,,,,,,4,weak,-137.5,40,1,0,0,response7disk,3,101,23.5,1,1,0,0,rectangle,23.5,1,1,0,0,5,6,0.001,23.5,1,1,0,0,0,100,100,89,1,0,,,,,,,,,,,,,,,,,,,,,
,,,,,,,,,,,,,,,,,,,,,,,,,,,,,,,,,,,,,,,,,,5bfed3755eecf20001fb3681,6068420ec0f0497cc97cfc29,2021-04-03_11h23.23.927,Colour_Similarity_Experiment,2020.2.10,Win32,60,60674ec340277cd6a308bc9f,17.35147392,16.72279496,16.7144385,16.71700163,16.71939954,16.71939954,,,,,,,,,,,,,,,,,,,,PF,weak,3,,,,,,,,6,1.017,,,,,,,,,,,,,,,,,,,,,,,,,,,,6,weak,116.5,55,1,0,0,response1disk,3,102,27.5,9,1,0,0,rectangle,27.5,9,1,0,0,5,0,0,27.5,9,1,0,0,0,101,101,26,1,0,,,,,,,,,,,,,,,,,,,,,
,,,,,,,,,,,,,,,,,,,,,,,,,,,,,,,,,,,,,,,,,,5bfed3755eecf20001fb3681,6068420ec0f0497cc97cfc29,2021-04-03_11h23.23.927,Colour_Similarity_Experiment,2020.2.10,Win32,60,60674ec340277cd6a308bc9f,17.35147392,16.72279496,16.7144385,16.71700163,16.71939954,16.71939954,,,,,,,,,,,,,,,,,,,,PF,strong,3,,,,,,,,6,0.967,,,,,,,,,,,,,,,,,,,,,,,,,,,,3,strong,72.5,39,1,0,0,response1disk,1,103,26.5,6,1,0,0,rectangle,26.5,6,1,0,0,5,7,0.001,26.5,6,1,0,0,0,102,102,125,1,0,,,,,,,,,,,,,,,,,,,,,
,,,,,,,,,,,,,,,,,,,,,,,,,,,,,,,,,,,,,,,,,,5bfed3755eecf20001fb3681,6068420ec0f0497cc97cfc29,2021-04-03_11h23.23.927,Colour_Similarity_Experiment,2020.2.10,Win32,60,60674ec340277cd6a308bc9f,17.35147392,16.72279496,16.7144385,16.71700163,16.71939954,16.71939954,,,,,,,,,,,,,,,,,,,,PF,weak,3,,,,,,,,4,2.202,,,,,,,,,,,,,,,,,,,,,,,,,,,,7,weak,44.5,-131,1,0,0,response3disk,9,104,0.5,11,1,0,0,rectangle,0.5,11,1,0,0,5,1,0.002,0.5,11,1,0,0,0,103,103,10,1,0,,,,,,,,,,,,,,,,,,,,,
,,,,,,,,,,,,,,,,,,,,,,,,,,,,,,,,,,,,,,,,,,5bfed3755eecf20001fb3681,6068420ec0f0497cc97cfc29,2021-04-03_11h23.23.927,Colour_Similarity_Experiment,2020.2.10,Win32,60,60674ec340277cd6a308bc9f,17.35147392,16.72279496,16.7144385,16.71700163,16.71939954,16.71939954,,,,,,,,,,,,,,,,,,,,PF,strong,3,,,,,,,,1,1.385,,,,,,,,,,,,,,,,,,,,,,,,,,,,8,strong,-88.5,48,1,0,0,response7disk,7,105,-11.5,5,1,0,0,rectangle,-11.5,5,1,0,0,5,3,0,-11.5,5,1,0,0,0,104,104,86,1,0,,,,,,,,,,,,,,,,,,,,,
,,,,,,,,,,,,,,,,,,,,,,,,,,,,,,,,,,,,,,,,,,5bfed3755eecf20001fb3681,6068420ec0f0497cc97cfc29,2021-04-03_11h23.23.927,Colour_Similarity_Experiment,2020.2.10,Win32,60,60674ec340277cd6a308bc9f,17.35147392,16.72279496,16.7144385,16.71700163,16.71939954,16.71939954,,,,,,,,,,,,,,,,,,,,PF,weak,3,,,,,,,,6,1.085,,,,,,,,,,,,,,,,,,,,,,,,,,,,1,weak,100.5,46,1,0,0,response1disk,4,106,25.5,-3,1,0,0,rectangle,25.5,-3,1,0,0,5,1,0.001,25.5,-3,1,0,0,0,105,105,139,1,0,,,,,,,,,,,,,,,,,,,,,
,,,,,,,,,,,,,,,,,,,,,,,,,,,,,,,,,,,,,,,,,,5bfed3755eecf20001fb3681,6068420ec0f0497cc97cfc29,2021-04-03_11h23.23.927,Colour_Similarity_Experiment,2020.2.10,Win32,60,60674ec340277cd6a308bc9f,17.35147392,16.72279496,16.7144385,16.71700163,16.71939954,16.71939954,,,,,,,,,,,,,,,,,,,,PF,weak,3,,,,,,,,1,1.134,,,,,,,,,,,,,,,,,,,,,,,,,,,,3,weak,-140.5,48,1,0,0,response7disk,4,107,4.5,-1,1,0,0,rectangle,4.5,-1,1,0,0,5,3,0.001,4.5,-1,1,0,0,0,106,106,30,1,0,,,,,,,,,,,,,,,,,,,,,
,,,,,,,,,,,,,,,,,,,,,,,,,,,,,,,,,,,,,,,,,,5bfed3755eecf20001fb3681,6068420ec0f0497cc97cfc29,2021-04-03_11h23.23.927,Colour_Similarity_Experiment,2020.2.10,Win32,60,60674ec340277cd6a308bc9f,17.35147392,16.72279496,16.7144385,16.71700163,16.71939954,16.71939954,,,,,,,,,,,,,,,,,,,,PF,weak,3,,,,,,,,3,1.567,,,,,,,,,,,,,,,,,,,,,,,,,,,,6,weak,-82.5,-124,1,0,0,response5disk,7,108,-3.5,1,1,0,0,rectangle,-3.5,1,1,0,0,5,2,0,-3.5,1,1,0,0,0,107,107,50,1,0,,,,,,,,,,,,,,,,,,,,,
,,,,,,,,,,,,,,,,,,,,,,,,,,,,,,,,,,,,,,,,,,5bfed3755eecf20001fb3681,6068420ec0f0497cc97cfc29,2021-04-03_11h23.23.927,Colour_Similarity_Experiment,2020.2.10,Win32,60,60674ec340277cd6a308bc9f,17.35147392,16.72279496,16.7144385,16.71700163,16.71939954,16.71939954,,,,,,,,,,,,,,,,,,,,PF,strong,3,,,,,,,,1,1.152,,,,,,,,,,,,,,,,,,,,,,,,,,,,7,strong,-98.5,38,1,0,0,response7disk,7,109,-11.5,1,1,0,0,rectangle,-11.5,1,1,0,0,5,1,0.001,-11.5,1,1,0,0,0,108,108,34,1,0,,,,,,,,,,,,,,,,,,,,,
,,,,,,,,,,,,,,,,,,,,,,,,,,,,,,,,,,,,,,,,,,5bfed3755eecf20001fb3681,6068420ec0f0497cc97cfc29,2021-04-03_11h23.23.927,Colour_Similarity_Experiment,2020.2.10,Win32,60,60674ec340277cd6a308bc9f,17.35147392,16.72279496,16.7144385,16.71700163,16.71939954,16.71939954,,,,,,,,,,,,,,,,,,,,PF,strong,3,,,,,,,,6,1.951,,,,,,,,,,,,,,,,,,,,,,,,,,,,4,strong,94.5,37,1,0,0,response1disk,8,110,27.5,-2,1,0,0,rectangle,27.5,-2,1,0,0,5,1,0,27.5,-2,1,0,0,0,109,109,35,1,0,,,,,,,,,,,,,,,,,,,,,
,,,,,,,,,,,,,,,,,,,,,,,,,,,,,,,,,,,,,,,,,,5bfed3755eecf20001fb3681,6068420ec0f0497cc97cfc29,2021-04-03_11h23.23.927,Colour_Similarity_Experiment,2020.2.10,Win32,60,60674ec340277cd6a308bc9f,17.35147392,16.72279496,16.7144385,16.71700163,16.71939954,16.71939954,,,,,,,,,,,,,,,,,,,,PF,weak,3,,,,,,,,1,1.067,,,,,,,,,,,,,,,,,,,,,,,,,,,,5,weak,-81.5,47,1,0,0,response7disk,2,111,0.5,-1,1,0,0,rectangle,0.5,-1,1,0,0,5,7,0.001,0.5,-1,1,0,0,0,110,110,129,1,0,,,,,,,,,,,,,,,,,,,,,
,,,,,,,,,,,,,,,,,,,,,,,,,,,,,,,,,,,,,,,,,,5bfed3755eecf20001fb3681,6068420ec0f0497cc97cfc29,2021-04-03_11h23.23.927,Colour_Similarity_Experiment,2020.2.10,Win32,60,60674ec340277cd6a308bc9f,17.35147392,16.72279496,16.7144385,16.71700163,16.71939954,16.71939954,,,,,,,,,,,,,,,,,,,,PF,weak,3,,,,,,,,3,1.919,,,,,,,,,,,,,,,,,,,,,,,,,,,,8,weak,-72.5,-95,1,0,0,response5disk,6,112,-1.5,-1,1,0,0,rectangle,124.5,-73,1,0,0,5,5,1.534,14.5,-9,1,0,0,0,111,111,161,1,1,response3disk_3,rectangle,,,,,,,,,,,,,,,,,,,
,,,,,,,,,,,,,,,,,,,,,,,,,,,,,,,,,,,,,,,,,,5bfed3755eecf20001fb3681,6068420ec0f0497cc97cfc29,2021-04-03_11h23.23.927,Colour_Similarity_Experiment,2020.2.10,Win32,60,60674ec340277cd6a308bc9f,17.35147392,16.72279496,16.7144385,16.71700163,16.71939954,16.71939954,,,,,,,,,,,,,,,,,,,,PF,strong,3,,,,,,,,1,1.234,,,,,,,,,,,,,,,,,,,,,,,,,,,,2,strong,-128.5,34,1,0,0,response7disk,4,113,16.5,-4,1,0,0,rectangle,16.5,-4,1,0,0,5,5,0,16.5,-4,1,0,0,0,112,112,145,1,0,,,,,,,,,,,,,,,,,,,,,
,,,,,,,,,,,,,,,,,,,,,,,,,,,,,,,,,,,,,,,,,,5bfed3755eecf20001fb3681,6068420ec0f0497cc97cfc29,2021-04-03_11h23.23.927,Colour_Similarity_Experiment,2020.2.10,Win32,60,60674ec340277cd6a308bc9f,17.35147392,16.72279496,16.7144385,16.71700163,16.71939954,16.71939954,,,,,,,,,,,,,,,,,,,,PF,weak,3,,,,,,,,1,1.084,,,,,,,,,,,,,,,,,,,,,,,,,,,,7,weak,-93.5,43,1,0,0,response7disk,8,114,11.5,-7,1,0,0,rectangle,11.5,-7,1,0,0,5,3,0.001,11.5,-7,1,0,0,0,113,113,140,1,0,,,,,,,,,,,,,,,,,,,,,
,,,,,,,,,,,,,,,,,,,,,,,,,,,,,,,,,,,,,,,,,,5bfed3755eecf20001fb3681,6068420ec0f0497cc97cfc29,2021-04-03_11h23.23.927,Colour_Similarity_Experiment,2020.2.10,Win32,60,60674ec340277cd6a308bc9f,17.35147392,16.72279496,16.7144385,16.71700163,16.71939954,16.71939954,,,,,,,,,,,,,,,,,,,,PF,weak,3,,,,,,,,1,0.9,,,,,,,,,,,,,,,,,,,,,,,,,,,,8,weak,-97.5,56,1,0,0,response7disk,8,115,8.5,-7,1,0,0,rectangle,8.5,-7,1,0,0,5,1,0.001,8.5,-7,1,0,0,0,114,114,153,1,0,,,,,,,,,,,,,,,,,,,,,
,,,,,,,,,,,,,,,,,,,,,,,,,,,,,,,,,,,,,,,,,,5bfed3755eecf20001fb3681,6068420ec0f0497cc97cfc29,2021-04-03_11h23.23.927,Colour_Similarity_Experiment,2020.2.10,Win32,60,60674ec340277cd6a308bc9f,17.35147392,16.72279496,16.7144385,16.71700163,16.71939954,16.71939954,,,,,,,,,,,,,,,,,,,,PF,strong,3,,,,,,,,1,1.418,,,,,,,,,,,,,,,,,,,,,,,,,,,,2,strong,-83.5,41,1,0,0,response7disk,9,116,19.5,-5,1,0,0,rectangle,19.5,-5,1,0,0,5,5,0.001,19.5,-5,1,0,0,0,115,115,72,1,0,,,,,,,,,,,,,,,,,,,,,
,,,,,,,,,,,,,,,,,,,,,,,,,,,,,,,,,,,,,,,,,,5bfed3755eecf20001fb3681,6068420ec0f0497cc97cfc29,2021-04-03_11h23.23.927,Colour_Similarity_Experiment,2020.2.10,Win32,60,60674ec340277cd6a308bc9f,17.35147392,16.72279496,16.7144385,16.71700163,16.71939954,16.71939954,,,,,,,,,,,,,,,,,,,,PF,strong,3,,,,,,,,6,1.419,,,,,,,,,,,,,,,,,,,,,,,,,,,,3,strong,78.5,61,1,0,0,response1disk,8,117,36.5,2,1,0,0,rectangle,36.5,2,1,0,0,5,6,0.001,36.5,2,1,0,0,0,116,116,44,1,0,,,,,,,,,,,,,,,,,,,,,
,,,,,,,,,,,,,,,,,,,,,,,,,,,,,,,,,,,,,,,,,,5bfed3755eecf20001fb3681,6068420ec0f0497cc97cfc29,2021-04-03_11h23.23.927,Colour_Similarity_Experiment,2020.2.10,Win32,60,60674ec340277cd6a308bc9f,17.35147392,16.72279496,16.7144385,16.71700163,16.71939954,16.71939954,,,,,,,,,,,,,,,,,,,,PF,weak,3,,,,,,,,6,0.951,,,,,,,,,,,,,,,,,,,,,,,,,,,,4,weak,82.5,37,1,0,0,response1disk,7,118,15.5,-1,1,0,0,rectangle,15.5,-1,1,0,0,5,5,0.001,15.5,-1,1,0,0,0,117,117,38,1,0,,,,,,,,,,,,,,,,,,,,,
,,,,,,,,,,,,,,,,,,,,,,,,,,,,,,,,,,,,,,,,,,5bfed3755eecf20001fb3681,6068420ec0f0497cc97cfc29,2021-04-03_11h23.23.927,Colour_Similarity_Experiment,2020.2.10,Win32,60,60674ec340277cd6a308bc9f,17.35147392,16.72279496,16.7144385,16.71700163,16.71939954,16.71939954,,,,,,,,,,,,,,,,,,,,PF,strong,3,,,,,,,,1,1.001,,,,,,,,,,,,,,,,,,,,,,,,,,,,4,strong,-83.5,45,1,0,0,response7disk,4,119,3.5,-2,1,0,0,rectangle,3.5,-2,1,0,0,5,2,0.001,3.5,-2,1,0,0,0,118,118,84,1,0,,,,,,,,,,,,,,,,,,,,,
,,,,,,,,,,,,,,,,,,,,,,,,,,,,,,,,,,,,,,,,,,5bfed3755eecf20001fb3681,6068420ec0f0497cc97cfc29,2021-04-03_11h23.23.927,Colour_Similarity_Experiment,2020.2.10,Win32,60,60674ec340277cd6a308bc9f,17.35147392,16.72279496,16.7144385,16.71700163,16.71939954,16.71939954,,,,,,,,,,,,,,,,,,,,PF,strong,3,,,,,,,,1,1.102,,,,,,,,,,,,,,,,,,,,,,,,,,,,8,strong,-81.5,44,1,0,0,response7disk,8,120,24.5,-5,1,0,0,rectangle,24.5,-5,1,0,0,5,6,0.001,24.5,-5,1,0,0,0,119,119,48,1,0,,,,,,,,,,,,,,,,,,,,,
,,,,,,,,,,,,,,,,,,,,,,,,,,,,,,,,,,,,,,,,,,5bfed3755eecf20001fb3681,6068420ec0f0497cc97cfc29,2021-04-03_11h23.23.927,Colour_Similarity_Experiment,2020.2.10,Win32,60,60674ec340277cd6a308bc9f,17.35147392,16.72279496,16.7144385,16.71700163,16.71939954,16.71939954,,,,,,,,,,,,,,,,,,,,PF,strong,3,,,,,,,,1,0.95,,,,,,,,,,,,,,,,,,,,,,,,,,,,9,strong,-87.5,50,1,0,0,response7disk,7,121,6.5,-5,1,0,0,rectangle,6.5,-5,1,0,0,5,4,0.001,6.5,-5,1,0,0,0,120,120,100,1,0,,,,,,,,,,,,,,,,,,,,,
,,,,,,,,,,,,,,,,,,,,,,,,,,,,,,,,,,,,,,,,,,5bfed3755eecf20001fb3681,6068420ec0f0497cc97cfc29,2021-04-03_11h23.23.927,Colour_Similarity_Experiment,2020.2.10,Win32,60,60674ec340277cd6a308bc9f,17.35147392,16.72279496,16.7144385,16.71700163,16.71939954,16.71939954,,,,,,,,,,,,,,,,,,,,PF,weak,3,,,,,,,,6,1.018,,,,,,,,,,,,,,,,,,,,,,,,,,,,6,weak,81.5,32,1,0,0,response1disk,4,122,8.5,-3,1,0,0,rectangle,8.5,-3,1,0,0,5,7,0.001,8.5,-3,1,0,0,0,121,121,33,1,0,,,,,,,,,,,,,,,,,,,,,
,,,,,,,,,,,,,,,,,,,,,,,,,,,,,,,,,,,,,,,,,,5bfed3755eecf20001fb3681,6068420ec0f0497cc97cfc29,2021-04-03_11h23.23.927,Colour_Similarity_Experiment,2020.2.10,Win32,60,60674ec340277cd6a308bc9f,17.35147392,16.72279496,16.7144385,16.71700163,16.71939954,16.71939954,,,,,,,,,,,,,,,,,,,,PF,weak,3,,,,,,,,6,0.968,,,,,,,,,,,,,,,,,,,,,,,,,,,,7,weak,86.5,35,1,0,0,response1disk,2,123,22.5,4,1,0,0,rectangle,22.5,4,1,0,0,5,7,0,22.5,4,1,0,0,0,122,122,32,1,0,,,,,,,,,,,,,,,,,,,,,
,,,,,,,,,,,,,,,,,,,,,,,,,,,,,,,,,,,,,,,,,,5bfed3755eecf20001fb3681,6068420ec0f0497cc97cfc29,2021-04-03_11h23.23.927,Colour_Similarity_Experiment,2020.2.10,Win32,60,60674ec340277cd6a308bc9f,17.35147392,16.72279496,16.7144385,16.71700163,16.71939954,16.71939954,,,,,,,,,,,,,,,,,,,,PF,strong,3,,,,,,,,6,1.001,,,,,,,,,,,,,,,,,,,,,,,,,,,,4,strong,100.5,41,1,0,0,response1disk,9,124,19.5,4,1,0,0,rectangle,19.5,4,1,0,0,5,2,0.001,19.5,4,1,0,0,0,123,123,90,1,0,,,,,,,,,,,,,,,,,,,,,
,,,,,,,,,,,,,,,,,,,,,,,,,,,,,,,,,,,,,,,,,,5bfed3755eecf20001fb3681,6068420ec0f0497cc97cfc29,2021-04-03_11h23.23.927,Colour_Similarity_Experiment,2020.2.10,Win32,60,60674ec340277cd6a308bc9f,17.35147392,16.72279496,16.7144385,16.71700163,16.71939954,16.71939954,,,,,,,,,,,,,,,,,,,,PF,strong,3,,,,,,,,6,1.168,,,,,,,,,,,,,,,,,,,,,,,,,,,,1,strong,89.5,37,1,0,0,response1disk,9,125,13.5,1,1,0,0,rectangle,13.5,1,1,0,0,5,7,0.001,13.5,1,1,0,0,0,124,124,123,1,0,,,,,,,,,,,,,,,,,,,,,
,,,,,,,,,,,,,,,,,,,,,,,,,,,,,,,,,,,,,,,,,,5bfed3755eecf20001fb3681,6068420ec0f0497cc97cfc29,2021-04-03_11h23.23.927,Colour_Similarity_Experiment,2020.2.10,Win32,60,60674ec340277cd6a308bc9f,17.35147392,16.72279496,16.7144385,16.71700163,16.71939954,16.71939954,,,,,,,,,,,,,,,,,,,,PF,strong,3,,,,,,,,3,2.553,,,,,,,,,,,,,,,,,,,,,,,,,,,,8,strong,-56.5,-118,1,0,0,response5disk,5,126,20.5,11,1,0,0,rectangle,20.5,11,1,0,0,5,5,0.001,20.5,11,1,0,0,0,125,125,152,1,0,,,,,,,,,,,,,,,,,,,,,
,,,,,,,,,,,,,,,,,,,,,,,,,,,,,,,,,,,,,,,,,,5bfed3755eecf20001fb3681,6068420ec0f0497cc97cfc29,2021-04-03_11h23.23.927,Colour_Similarity_Experiment,2020.2.10,Win32,60,60674ec340277cd6a308bc9f,17.35147392,16.72279496,16.7144385,16.71700163,16.71939954,16.71939954,,,,,,,,,,,,,,,,,,,,PF,strong,3,,,,,,,,3,1.267,,,,,,,,,,,,,,,,,,,,,,,,,,,,7,strong,-46.5,-108,1,0,0,response5disk,6,127,2.5,-7,1,0,0,rectangle,2.5,-7,1,0,0,5,3,0,2.5,-7,1,0,0,0,126,126,31,1,0,,,,,,,,,,,,,,,,,,,,,
,,,,,,,,,,,,,,,,,,,,,,,,,,,,,,,,,,,,,,,,,,5bfed3755eecf20001fb3681,6068420ec0f0497cc97cfc29,2021-04-03_11h23.23.927,Colour_Similarity_Experiment,2020.2.10,Win32,60,60674ec340277cd6a308bc9f,17.35147392,16.72279496,16.7144385,16.71700163,16.71939954,16.71939954,,,,,,,,,,,,,,,,,,,,PF,weak,3,,,,,,,,6,1.267,,,,,,,,,,,,,,,,,,,,,,,,,,,,3,weak,98.5,45,1,0,0,response1disk,7,128,4.5,-12,1,0,0,rectangle,4.5,-12,1,0,0,5,6,0.001,4.5,-12,1,0,0,0,127,127,41,1,0,,,,,,,,,,,,,,,,,,,,,
,,,,,,,,,,,,,,,,,,,,,,,,,,,,,,,,,,,,,,,,,,5bfed3755eecf20001fb3681,6068420ec0f0497cc97cfc29,2021-04-03_11h23.23.927,Colour_Similarity_Experiment,2020.2.10,Win32,60,60674ec340277cd6a308bc9f,17.35147392,16.72279496,16.7144385,16.71700163,16.71939954,16.71939954,,,,,,,,,,,,,,,,,,,,PF,strong,3,,,,,,,,3,1.418,,,,,,,,,,,,,,,,,,,,,,,,,,,,6,strong,-58.5,-102,1,0,0,response5disk,6,129,7.5,2,1,0,0,rectangle,7.5,2,1,0,0,5,0,0.001,7.5,2,1,0,0,0,128,128,91,1,0,,,,,,,,,,,,,,,,,,,,,
,,,,,,,,,,,,,,,,,,,,,,,,,,,,,,,,,,,,,,,,,,5bfed3755eecf20001fb3681,6068420ec0f0497cc97cfc29,2021-04-03_11h23.23.927,Colour_Similarity_Experiment,2020.2.10,Win32,60,60674ec340277cd6a308bc9f,17.35147392,16.72279496,16.7144385,16.71700163,16.71939954,16.71939954,,,,,,,,,,,,,,,,,,,,PF,weak,3,,,,,,,,6,1.017,,,,,,,,,,,,,,,,,,,,,,,,,,,,9,weak,92.5,58,1,0,0,response1disk,3,130,15.5,0,1,0,0,rectangle,15.5,0,1,0,0,5,6,0.001,15.5,0,1,0,0,0,129,129,119,1,0,,,,,,,,,,,,,,,,,,,,,
,,,,,,,,,,,,,,,,,,,,,,,,,,,,,,,,,,,,,,,,,,5bfed3755eecf20001fb3681,6068420ec0f0497cc97cfc29,2021-04-03_11h23.23.927,Colour_Similarity_Experiment,2020.2.10,Win32,60,60674ec340277cd6a308bc9f,17.35147392,16.72279496,16.7144385,16.71700163,16.71939954,16.71939954,,,,,,,,,,,,,,,,,,,,PF,strong,3,,,,,,,,3,1.334,,,,,,,,,,,,,,,,,,,,,,,,,,,,6,strong,-59.5,-92,1,0,0,response5disk,8,131,9.5,2,1,0,0,rectangle,9.5,2,1,0,0,5,4,0.001,9.5,2,1,0,0,0,130,130,133,1,0,,,,,,,,,,,,,,,,,,,,,
,,,,,,,,,,,,,,,,,,,,,,,,,,,,,,,,,,,,,,,,,,5bfed3755eecf20001fb3681,6068420ec0f0497cc97cfc29,2021-04-03_11h23.23.927,Colour_Similarity_Experiment,2020.2.10,Win32,60,60674ec340277cd6a308bc9f,17.35147392,16.72279496,16.7144385,16.71700163,16.71939954,16.71939954,,,,,,,,,,,,,,,,,,,,PF,strong,3,,,,,,,,1,1.935,,,,,,,,,,,,,,,,,,,,,,,,,,,,7,strong,-102.5,44,1,0,0,response7disk,8,132,14.5,-1,1,0,0,rectangle,-55.5,129,1,0,0,0,0,1.934,20.5,3,1,0,0,0,131,131,97,1,1,response7disk_3,rectangle,,,,,,,,,,,,,,,,,,,
,,,,,,,,,,,,,,,,,,,,,,,,,,,,,,,,,,,,,,,,,,5bfed3755eecf20001fb3681,6068420ec0f0497cc97cfc29,2021-04-03_11h23.23.927,Colour_Similarity_Experiment,2020.2.10,Win32,60,60674ec340277cd6a308bc9f,17.35147392,16.72279496,16.7144385,16.71700163,16.71939954,16.71939954,,,,,,,,,,,,,,,,,,,,PF,weak,3,,,,,,,,3,1.167,,,,,,,,,,,,,,,,,,,,,,,,,,,,6,weak,-50.5,-113,1,0,0,response5disk,8,133,19.5,-4,1,0,0,rectangle,19.5,-4,1,0,0,0,7,0.003,19.5,-4,1,0,0,0,132,132,64,1,0,,,,,,,,,,,,,,,,,,,,,
,,,,,,,,,,,,,,,,,,,,,,,,,,,,,,,,,,,,,,,,,,5bfed3755eecf20001fb3681,6068420ec0f0497cc97cfc29,2021-04-03_11h23.23.927,Colour_Similarity_Experiment,2020.2.10,Win32,60,60674ec340277cd6a308bc9f,17.35147392,16.72279496,16.7144385,16.71700163,16.71939954,16.71939954,,,,,,,,,,,,,,,,,,,,PF,strong,3,,,,,,,,3,4.538,,,,,,,,,,,,,,,,,,,,,,,,,,,,5,strong,-52.5,-74,1,0,0,response5disk,6,134,15.5,11,1,0,0,rectangle,15.5,11,1,0,0,0,2,0.001,15.5,11,1,0,0,0,133,133,12,1,0,,,,,,,,,,,,,,,,,,,,,
,,,,,,,,,,,,,,,,,,,,,,,,,,,,,,,,,,,,,,,,,,5bfed3755eecf20001fb3681,6068420ec0f0497cc97cfc29,2021-04-03_11h23.23.927,Colour_Similarity_Experiment,2020.2.10,Win32,60,60674ec340277cd6a308bc9f,17.35147392,16.72279496,16.7144385,16.71700163,16.71939954,16.71939954,,,,,,,,,,,,,,,,,,,,PF,strong,3,,,,,,,,6,0.967,,,,,,,,,,,,,,,,,,,,,,,,,,,,5,strong,97.5,43,1,0,0,response1disk,7,135,20.5,-4,1,0,0,rectangle,20.5,-4,1,0,0,0,5,0.001,20.5,-4,1,0,0,0,134,134,7,1,0,,,,,,,,,,,,,,,,,,,,,
,,,,,,,,,,,,,,,,,,,,,,,,,,,,,,,,,,,,,,,,,,5bfed3755eecf20001fb3681,6068420ec0f0497cc97cfc29,2021-04-03_11h23.23.927,Colour_Similarity_Experiment,2020.2.10,Win32,60,60674ec340277cd6a308bc9f,17.35147392,16.72279496,16.7144385,16.71700163,16.71939954,16.71939954,,,,,,,,,,,,,,,,,,,,PF,strong,3,,,,,,,,6,1.902,,,,,,,,,,,,,,,,,,,,,,,,,,,,9,strong,100.5,42,1,0,0,response1disk,6,136,31.5,-9,1,0,0,rectangle,31.5,-9,1,0,0,0,5,0,31.5,-9,1,0,0,0,135,135,117,1,0,,,,,,,,,,,,,,,,,,,,,
,,,,,,,,,,,,,,,,,,,,,,,,,,,,,,,,,,,,,,,,,,5bfed3755eecf20001fb3681,6068420ec0f0497cc97cfc29,2021-04-03_11h23.23.927,Colour_Similarity_Experiment,2020.2.10,Win32,60,60674ec340277cd6a308bc9f,17.35147392,16.72279496,16.7144385,16.71700163,16.71939954,16.71939954,,,,,,,,,,,,,,,,,,,,PF,weak,3,,,,,,,,6,1.251,,,,,,,,,,,,,,,,,,,,,,,,,,,,2,weak,83.5,35,1,0,0,response1disk,8,137,21.5,-2,1,0,0,rectangle,21.5,-2,1,0,0,0,7,0.001,21.5,-2,1,0,0,0,136,136,52,1,0,,,,,,,,,,,,,,,,,,,,,
,,,,,,,,,,,,,,,,,,,,,,,,,,,,,,,,,,,,,,,,,,5bfed3755eecf20001fb3681,6068420ec0f0497cc97cfc29,2021-04-03_11h23.23.927,Colour_Similarity_Experiment,2020.2.10,Win32,60,60674ec340277cd6a308bc9f,17.35147392,16.72279496,16.7144385,16.71700163,16.71939954,16.71939954,,,,,,,,,,,,,,,,,,,,PF,strong,3,,,,,,,,6,1.668,,,,,,,,,,,,,,,,,,,,,,,,,,,,5,strong,75.5,35,1,0,0,response1disk,1,138,14.5,-4,1,0,0,rectangle,14.5,-4,1,0,0,0,1,0.001,14.5,-4,1,0,0,0,137,137,131,1,0,,,,,,,,,,,,,,,,,,,,,
,,,,,,,,,,,,,,,,,,,,,,,,,,,,,,,,,,,,,,,,,,5bfed3755eecf20001fb3681,6068420ec0f0497cc97cfc29,2021-04-03_11h23.23.927,Colour_Similarity_Experiment,2020.2.10,Win32,60,60674ec340277cd6a308bc9f,17.35147392,16.72279496,16.7144385,16.71700163,16.71939954,16.71939954,,,,,,,,,,,,,,,,,,,,PF,weak,3,,,,,,,,6,0.967,,,,,,,,,,,,,,,,,,,,,,,,,,,,8,weak,91.5,37,1,0,0,response1disk,5,139,20.5,2,1,0,0,rectangle,20.5,2,1,0,0,0,4,0.001,20.5,2,1,0,0,0,138,138,98,1,0,,,,,,,,,,,,,,,,,,,,,
,,,,,,,,,,,,,,,,,,,,,,,,,,,,,,,,,,,,,,,,,,5bfed3755eecf20001fb3681,6068420ec0f0497cc97cfc29,2021-04-03_11h23.23.927,Colour_Similarity_Experiment,2020.2.10,Win32,60,60674ec340277cd6a308bc9f,17.35147392,16.72279496,16.7144385,16.71700163,16.71939954,16.71939954,,,,,,,,,,,,,,,,,,,,PF,weak,3,,,,,,,,3,1.734,,,,,,,,,,,,,,,,,,,,,,,,,,,,8,weak,-46.5,-100,1,0,0,response5disk,4,140,7.5,12,1,0,0,rectangle,7.5,12,1,0,0,0,1,0.003,7.5,12,1,0,0,0,139,139,78,1,0,,,,,,,,,,,,,,,,,,,,,
,,,,,,,,,,,,,,,,,,,,,,,,,,,,,,,,,,,,,,,,,,5bfed3755eecf20001fb3681,6068420ec0f0497cc97cfc29,2021-04-03_11h23.23.927,Colour_Similarity_Experiment,2020.2.10,Win32,60,60674ec340277cd6a308bc9f,17.35147392,16.72279496,16.7144385,16.71700163,16.71939954,16.71939954,,,,,,,,,,,,,,,,,,,,PF,weak,3,,,,,,,,6,0.918,,,,,,,,,,,,,,,,,,,,,,,,,,,,5,weak,61.5,35,1,0,0,response1disk,6,141,0.5,-6,1,0,0,rectangle,0.5,-6,1,0,0,0,0,0.001,0.5,-6,1,0,0,0,140,140,103,1,0,,,,,,,,,,,,,,,,,,,,,
,,,,,,,,,,,,,,,,,,,,,,,,,,,,,,,,,,,,,,,,,,5bfed3755eecf20001fb3681,6068420ec0f0497cc97cfc29,2021-04-03_11h23.23.927,Colour_Similarity_Experiment,2020.2.10,Win32,60,60674ec340277cd6a308bc9f,17.35147392,16.72279496,16.7144385,16.71700163,16.71939954,16.71939954,,,,,,,,,,,,,,,,,,,,PF,strong,3,,,,,,,,6,0.951,,,,,,,,,,,,,,,,,,,,,,,,,,,,2,strong,97.5,39,1,0,0,response1disk,1,142,7.5,-7,1,0,0,rectangle,7.5,-7,1,0,0,0,5,0.001,7.5,-7,1,0,0,0,141,141,85,1,0,,,,,,,,,,,,,,,,,,,,,
,,,,,,,,,,,,,,,,,,,,,,,,,,,,,,,,,,,,,,,,,,5bfed3755eecf20001fb3681,6068420ec0f0497cc97cfc29,2021-04-03_11h23.23.927,Colour_Similarity_Experiment,2020.2.10,Win32,60,60674ec340277cd6a308bc9f,17.35147392,16.72279496,16.7144385,16.71700163,16.71939954,16.71939954,,,,,,,,,,,,,,,,,,,,PF,strong,3,,,,,,,,3,1.068,,,,,,,,,,,,,,,,,,,,,,,,,,,,5,strong,-82.5,-126,1,0,0,response5disk,3,143,8.5,9,1,0,0,rectangle,8.5,9,1,0,0,0,4,0.001,8.5,9,1,0,0,0,142,142,25,1,0,,,,,,,,,,,,,,,,,,,,,
,,,,,,,,,,,,,,,,,,,,,,,,,,,,,,,,,,,,,,,,,,5bfed3755eecf20001fb3681,6068420ec0f0497cc97cfc29,2021-04-03_11h23.23.927,Colour_Similarity_Experiment,2020.2.10,Win32,60,60674ec340277cd6a308bc9f,17.35147392,16.72279496,16.7144385,16.71700163,16.71939954,16.71939954,,,,,,,,,,,,,,,,,,,,PF,weak,3,,,,,,,,3,0.985,,,,,,,,,,,,,,,,,,,,,,,,,,,,2,weak,-47.5,-103,1,0,0,response5disk,5,144,5.5,1,1,0,0,rectangle,5.5,1,1,0,0,0,0,0.001,5.5,1,1,0,0,0,143,143,147,1,0,,,,,,,,,,,,,,,,,,,,,
,,,,,,,,,,,,,,,,,,,,,,,,,,,,,,,,,,,,,,,,,,5bfed3755eecf20001fb3681,6068420ec0f0497cc97cfc29,2021-04-03_11h23.23.927,Colour_Similarity_Experiment,2020.2.10,Win32,60,60674ec340277cd6a308bc9f,17.35147392,16.72279496,16.7144385,16.71700163,16.71939954,16.71939954,,,,,,,,,,,,,,,,,,,,PF,weak,3,,,,,,,,6,1.568,,,,,,,,,,,,,,,,,,,,,,,,,,,,1,weak,102.5,33,1,0,0,response1disk,9,145,35.5,-1,1,0,0,rectangle,35.5,-1,1,0,0,0,2,0,35.5,-1,1,0,0,0,144,144,15,1,0,,,,,,,,,,,,,,,,,,,,,
,,,,,,,,,,,,,,,,,,,,,,,,,,,,,,,,,,,,,,,,,,5bfed3755eecf20001fb3681,6068420ec0f0497cc97cfc29,2021-04-03_11h23.23.927,Colour_Similarity_Experiment,2020.2.10,Win32,60,60674ec340277cd6a308bc9f,17.35147392,16.72279496,16.7144385,16.71700163,16.71939954,16.71939954,,,,,,,,,,,,,,,,,,,,PF,weak,3,,,,,,,,3,1.534,,,,,,,,,,,,,,,,,,,,,,,,,,,,1,weak,-46.5,-137,1,0,0,response5disk,2,146,19.5,16,1,0,0,rectangle,19.5,16,1,0,0,0,6,0.001,19.5,16,1,0,0,0,145,145,24,1,0,,,,,,,,,,,,,,,,,,,,,
,,,,,,,,,,,,,,,,,,,,,,,,,,,,,,,,,,,,,,,,,,5bfed3755eecf20001fb3681,6068420ec0f0497cc97cfc29,2021-04-03_11h23.23.927,Colour_Similarity_Experiment,2020.2.10,Win32,60,60674ec340277cd6a308bc9f,17.35147392,16.72279496,16.7144385,16.71700163,16.71939954,16.71939954,,,,,,,,,,,,,,,,,,,,PF,strong,3,,,,,,,,3,1.435,,,,,,,,,,,,,,,,,,,,,,,,,,,,9,strong,-75.5,-111,1,0,0,response5disk,2,147,0.5,-3,1,0,0,rectangle,67.5,52,1,0,0,6,6,1.335,28.5,2,1,0,0,0,146,146,11,1,1,response1disk_3,rectangle,,,,,,,,,,,,,,,,,,,
,,,,,,,,,,,,,,,,,,,,,,,,,,,,,,,,,,,,,,,,,,5bfed3755eecf20001fb3681,6068420ec0f0497cc97cfc29,2021-04-03_11h23.23.927,Colour_Similarity_Experiment,2020.2.10,Win32,60,60674ec340277cd6a308bc9f,17.35147392,16.72279496,16.7144385,16.71700163,16.71939954,16.71939954,,,,,,,,,,,,,,,,,,,,PF,strong,3,,,,,,,,6,1.201,,,,,,,,,,,,,,,,,,,,,,,,,,,,2,strong,107.5,60,1,0,0,response1disk,6,148,6.5,-1,1,0,0,rectangle,6.5,-1,1,0,0,6,2,0.001,6.5,-1,1,0,0,0,147,147,40,1,0,,,,,,,,,,,,,,,,,,,,,
,,,,,,,,,,,,,,,,,,,,,,,,,,,,,,,,,,,,,,,,,,5bfed3755eecf20001fb3681,6068420ec0f0497cc97cfc29,2021-04-03_11h23.23.927,Colour_Similarity_Experiment,2020.2.10,Win32,60,60674ec340277cd6a308bc9f,17.35147392,16.72279496,16.7144385,16.71700163,16.71939954,16.71939954,,,,,,,,,,,,,,,,,,,,PF,weak,3,,,,,,,,3,1.152,,,,,,,,,,,,,,,,,,,,,,,,,,,,3,weak,-76.5,-99,1,0,0,response5disk,5,149,6.5,13,1,0,0,rectangle,6.5,13,1,0,0,6,3,0.001,6.5,13,1,0,0,0,148,148,66,1,0,,,,,,,,,,,,,,,,,,,,,
,,,,,,,,,,,,,,,,,,,,,,,,,,,,,,,,,,,,,,,,,,5bfed3755eecf20001fb3681,6068420ec0f0497cc97cfc29,2021-04-03_11h23.23.927,Colour_Similarity_Experiment,2020.2.10,Win32,60,60674ec340277cd6a308bc9f,17.35147392,16.72279496,16.7144385,16.71700163,16.71939954,16.71939954,,,,,,,,,,,,,,,,,,,,PF,weak,3,,,,,,,,6,0.901,,,,,,,,,,,,,,,,,,,,,,,,,,,,5,weak,98.5,55,1,0,0,response1disk,7,150,14.5,-6,1,0,0,rectangle,14.5,-6,1,0,0,6,3,0,14.5,-6,1,0,0,0,149,149,146,1,0,,,,,,,,,,,,,,,,,,,,,
,,,,,,,,,,,,,,,,,,,,,,,,,,,,,,,,,,,,,,,,,,5bfed3755eecf20001fb3681,6068420ec0f0497cc97cfc29,2021-04-03_11h23.23.927,Colour_Similarity_Experiment,2020.2.10,Win32,60,60674ec340277cd6a308bc9f,17.35147392,16.72279496,16.7144385,16.71700163,16.71939954,16.71939954,,,,,,,,,,,,,,,,,,,,PF,strong,3,,,,,,,,2,2.193,,,,,,,,,,,,,,,,,,,,,,,,,,,,8,strong,-94.5,-39,1,0,0,response5disk,6,151,-9.5,8,1,0,0,rectangle,-9.5,8,1,0,0,6,7,0.001,-9.5,8,1,0,0,0,150,150,37,1,0,,,,,,,,,,,,,,,,,,,,,
,,,,,,,,,,,,,,,,,,,,,,,,,,,,,,,,,,,,,,,,,,5bfed3755eecf20001fb3681,6068420ec0f0497cc97cfc29,2021-04-03_11h23.23.927,Colour_Similarity_Experiment,2020.2.10,Win32,60,60674ec340277cd6a308bc9f,17.35147392,16.72279496,16.7144385,16.71700163,16.71939954,16.71939954,,,,,,,,,,,,,,,,,,,,PF,weak,3,,,,,,,,6,1.335,,,,,,,,,,,,,,,,,,,,,,,,,,,,9,weak,140.5,53,1,0,0,response1disk,4,152,17.5,-5,1,0,0,rectangle,17.5,-5,1,0,0,6,1,0.001,17.5,-5,1,0,0,0,151,151,114,1,0,,,,,,,,,,,,,,,,,,,,,
,,,,,,,,,,,,,,,,,,,,,,,,,,,,,,,,,,,,,,,,,,5bfed3755eecf20001fb3681,6068420ec0f0497cc97cfc29,2021-04-03_11h23.23.927,Colour_Similarity_Experiment,2020.2.10,Win32,60,60674ec340277cd6a308bc9f,17.35147392,16.72279496,16.7144385,16.71700163,16.71939954,16.71939954,,,,,,,,,,,,,,,,,,,,PF,weak,3,,,,,,,,6,0.917,,,,,,,,,,,,,,,,,,,,,,,,,,,,6,weak,77.5,52,1,0,0,response1disk,5,153,-4.5,1,1,0,0,rectangle,-4.5,1,1,0,0,6,3,0.001,-4.5,1,1,0,0,0,152,152,59,1,0,,,,,,,,,,,,,,,,,,,,,
,,,,,,,,,,,,,,,,,,,,,,,,,,,,,,,,,,,,,,,,,,5bfed3755eecf20001fb3681,6068420ec0f0497cc97cfc29,2021-04-03_11h23.23.927,Colour_Similarity_Experiment,2020.2.10,Win32,60,60674ec340277cd6a308bc9f,17.35147392,16.72279496,16.7144385,16.71700163,16.71939954,16.71939954,,,,,,,,,,,,,,,,,,,,PF,weak,3,,,,,,,,6,1.434,,,,,,,,,,,,,,,,,,,,,,,,,,,,4,weak,104.5,47,1,0,0,response1disk,6,154,16.5,-6,1,0,0,rectangle,16.5,-6,1,0,0,6,1,0,16.5,-6,1,0,0,0,153,153,120,1,0,,,,,,,,,,,,,,,,,,,,,
,,,,,,,,,,,,,,,,,,,,,,,,,,,,,,,,,,,,,,,,,,5bfed3755eecf20001fb3681,6068420ec0f0497cc97cfc29,2021-04-03_11h23.23.927,Colour_Similarity_Experiment,2020.2.10,Win32,60,60674ec340277cd6a308bc9f,17.35147392,16.72279496,16.7144385,16.71700163,16.71939954,16.71939954,,,,,,,,,,,,,,,,,,,,PF,strong,3,,,,,,,,6,0.952,,,,,,,,,,,,,,,,,,,,,,,,,,,,3,strong,104.5,39,1,0,0,response1disk,6,155,21.5,-9,1,0,0,rectangle,21.5,-9,1,0,0,6,4,0.001,21.5,-9,1,0,0,0,154,154,95,1,0,,,,,,,,,,,,,,,,,,,,,
,,,,,,,,,,,,,,,,,,,,,,,,,,,,,,,,,,,,,,,,,,5bfed3755eecf20001fb3681,6068420ec0f0497cc97cfc29,2021-04-03_11h23.23.927,Colour_Similarity_Experiment,2020.2.10,Win32,60,60674ec340277cd6a308bc9f,17.35147392,16.72279496,16.7144385,16.71700163,16.71939954,16.71939954,,,,,,,,,,,,,,,,,,,,PF,strong,3,,,,,,,,1,1.319,,,,,,,,,,,,,,,,,,,,,,,,,,,,5,strong,-94.5,26,1,0,0,response7disk,5,156,-10.5,-1,1,0,0,rectangle,-10.5,-1,1,0,0,6,2,0,-10.5,-1,1,0,0,0,155,155,19,1,0,,,,,,,,,,,,,,,,,,,,,
,,,,,,,,,,,,,,,,,,,,,,,,,,,,,,,,,,,,,,,,,,5bfed3755eecf20001fb3681,6068420ec0f0497cc97cfc29,2021-04-03_11h23.23.927,Colour_Similarity_Experiment,2020.2.10,Win32,60,60674ec340277cd6a308bc9f,17.35147392,16.72279496,16.7144385,16.71700163,16.71939954,16.71939954,,,,,,,,,,,,,,,,,,,,PF,weak,3,,,,,,,,6,0.801,,,,,,,,,,,,,,,,,,,,,,,,,,,,6,weak,129.5,43,1,0,0,response1disk,2,157,21.5,3,1,0,0,rectangle,21.5,3,1,0,0,6,5,0.001,21.5,3,1,0,0,0,156,156,130,1,0,,,,,,,,,,,,,,,,,,,,,
,,,,,,,,,,,,,,,,,,,,,,,,,,,,,,,,,,,,,,,,,,5bfed3755eecf20001fb3681,6068420ec0f0497cc97cfc29,2021-04-03_11h23.23.927,Colour_Similarity_Experiment,2020.2.10,Win32,60,60674ec340277cd6a308bc9f,17.35147392,16.72279496,16.7144385,16.71700163,16.71939954,16.71939954,,,,,,,,,,,,,,,,,,,,PF,strong,3,,,,,,,,6,2.503,,,,,,,,,,,,,,,,,,,,,,,,,,,,6,strong,99.5,34,1,0,0,response1disk,1,158,0.5,-7,1,0,0,rectangle,0.5,-7,1,0,0,6,2,0.001,0.5,-7,1,0,0,0,157,157,5,1,0,,,,,,,,,,,,,,,,,,,,,
,,,,,,,,,,,,,,,,,,,,,,,,,,,,,,,,,,,,,,,,,,5bfed3755eecf20001fb3681,6068420ec0f0497cc97cfc29,2021-04-03_11h23.23.927,Colour_Similarity_Experiment,2020.2.10,Win32,60,60674ec340277cd6a308bc9f,17.35147392,16.72279496,16.7144385,16.71700163,16.71939954,16.71939954,,,,,,,,,,,,,,,,,,,,PF,strong,3,,,,,,,,1,1.101,,,,,,,,,,,,,,,,,,,,,,,,,,,,1,strong,-107.5,45,1,0,0,response7disk,1,159,3.5,2,1,0,0,rectangle,3.5,2,1,0,0,6,3,0,3.5,2,1,0,0,0,158,158,151,1,0,,,,,,,,,,,,,,,,,,,,,
,,,,,,,,,,,,,,,,,,,,,,,,,,,,,,,,,,,,,,,,,,5bfed3755eecf20001fb3681,6068420ec0f0497cc97cfc29,2021-04-03_11h23.23.927,Colour_Similarity_Experiment,2020.2.10,Win32,60,60674ec340277cd6a308bc9f,17.35147392,16.72279496,16.7144385,16.71700163,16.71939954,16.71939954,,,,,,,,,,,,,,,,,,,,PF,strong,3,,,,,,,,6,0.9,,,,,,,,,,,,,,,,,,,,,,,,,,,,1,strong,96.5,41,1,0,0,response1disk,3,160,15.5,-2,1,0,0,rectangle,15.5,-2,1,0,0,6,2,0.001,15.5,-2,1,0,0,0,159,159,99,1,0,,,,,,,,,,,,,,,,,,,,,
,,,,,,,,,,,,,,,,,,,,,,,,,,,,,,,,,,,,,,,,,,5bfed3755eecf20001fb3681,6068420ec0f0497cc97cfc29,2021-04-03_11h23.23.927,Colour_Similarity_Experiment,2020.2.10,Win32,60,60674ec340277cd6a308bc9f,17.35147392,16.72279496,16.7144385,16.71700163,16.71939954,16.71939954,,,,,,,,,,,,,,,,,,,,PF,strong,3,,,,,,,,6,1.284,,,,,,,,,,,,,,,,,,,,,,,,,,,,1,strong,94.5,49,1,0,0,response1disk,6,161,22.5,5,1,0,0,rectangle,22.5,5,1,0,0,6,4,0.001,22.5,5,1,0,0,0,160,160,58,1,0,,,,,,,,,,,,,,,,,,,,,
,,,,,,,,,,,,,,,,,,,,,,,,,,,,,,,,,,,,,,,,,,5bfed3755eecf20001fb3681,6068420ec0f0497cc97cfc29,2021-04-03_11h23.23.927,Colour_Similarity_Experiment,2020.2.10,Win32,60,60674ec340277cd6a308bc9f,17.35147392,16.72279496,16.7144385,16.71700163,16.71939954,16.71939954,,,,,,,,,,,,,,,,,,,,PF,weak,3,,,,,,,,6,1.969,,,,,,,,,,,,,,,,,,,,,,,,,,,,3,weak,75.5,36,1,0,0,response1disk,3,162,8.5,-1,1,0,0,rectangle,8.5,-1,1,0,0,6,2,0.001,8.5,-1,1,0,0,0,161,161,4,1,0,,,,,,,,,,,,,,,,,,,,,
,,,,,,,,,,,,,,,,,,,,,,,,,,,,,,,,,,,,,,,,,,5bfed3755eecf20001fb3681,6068420ec0f0497cc97cfc29,2021-04-03_11h23.23.927,Colour_Similarity_Experiment,2020.2.10,Win32,60,60674ec340277cd6a308bc9f,17.35147392,16.72279496,16.7144385,16.71700163,16.71939954,16.71939954,,,,,,,,,,,,,,,,,,,,,,,,,,,,,,,,,,,,,,,,,,,,,,,,,,,,,,,,,,,,,,,,,,,,,,,,,,,,,,,,,,,,,,,,,,,,,,,,0,0,0,0,1,,,,,,,,,,,,,,
,,,,,,,,,,,,,,,,,,,,,,,,,,,,,,,,,,,,,,,,,,5bfed3755eecf20001fb3681,6068420ec0f0497cc97cfc29,2021-04-03_11h23.23.927,Colour_Similarity_Experiment,2020.2.10,Win32,60,60674ec340277cd6a308bc9f,17.35147392,16.72279496,16.7144385,16.71700163,16.71939954,16.71939954,,,,,,,,,,,,,,,,,,,,PF,weak,3,,,,,,,,2,1.384,,,,,,,,,,,,,,,,,,,,,,,,,,,,2,weak,-98.5,-27,1,0,0,response5disk,3,163,11.5,-3,1,0,0,rectangle,11.5,-3,1,0,0,6,5,0.001,11.5,-3,1,0,0,0,0,0,69,1,0,,,,,,,,,,,,,,,,,,,,,
,,,,,,,,,,,,,,,,,,,,,,,,,,,,,,,,,,,,,,,,,,5bfed3755eecf20001fb3681,6068420ec0f0497cc97cfc29,2021-04-03_11h23.23.927,Colour_Similarity_Experiment,2020.2.10,Win32,60,60674ec340277cd6a308bc9f,17.35147392,16.72279496,16.7144385,16.71700163,16.71939954,16.71939954,,,,,,,,,,,,,,,,,,,,PF,strong,3,,,,,,,,1,1.035,,,,,,,,,,,,,,,,,,,,,,,,,,,,3,strong,-117.5,43,1,0,0,response7disk,4,164,9.5,2,1,0,0,rectangle,9.5,2,1,0,0,6,2,0.001,9.5,2,1,0,0,0,1,1,110,1,0,,,,,,,,,,,,,,,,,,,,,
,,,,,,,,,,,,,,,,,,,,,,,,,,,,,,,,,,,,,,,,,,5bfed3755eecf20001fb3681,6068420ec0f0497cc97cfc29,2021-04-03_11h23.23.927,Colour_Similarity_Experiment,2020.2.10,Win32,60,60674ec340277cd6a308bc9f,17.35147392,16.72279496,16.7144385,16.71700163,16.71939954,16.71939954,,,,,,,,,,,,,,,,,,,,PF,weak,3,,,,,,,,6,0.966,,,,,,,,,,,,,,,,,,,,,,,,,,,,2,weak,117.5,46,1,0,0,response1disk,6,165,21.5,7,1,0,0,rectangle,21.5,7,1,0,0,6,6,0,21.5,7,1,0,0,0,2,2,113,1,0,,,,,,,,,,,,,,,,,,,,,
,,,,,,,,,,,,,,,,,,,,,,,,,,,,,,,,,,,,,,,,,,5bfed3755eecf20001fb3681,6068420ec0f0497cc97cfc29,2021-04-03_11h23.23.927,Colour_Similarity_Experiment,2020.2.10,Win32,60,60674ec340277cd6a308bc9f,17.35147392,16.72279496,16.7144385,16.71700163,16.71939954,16.71939954,,,,,,,,,,,,,,,,,,,,PF,strong,3,,,,,,,,4,2.635,,,,,,,,,,,,,,,,,,,,,,,,,,,,3,strong,52.5,-101,1,0,0,response3disk,9,166,19.5,-15,1,0,0,rectangle,19.5,-15,1,0,0,6,4,0.001,19.5,-15,1,0,0,0,3,3,143,1,0,,,,,,,,,,,,,,,,,,,,,
,,,,,,,,,,,,,,,,,,,,,,,,,,,,,,,,,,,,,,,,,,5bfed3755eecf20001fb3681,6068420ec0f0497cc97cfc29,2021-04-03_11h23.23.927,Colour_Similarity_Experiment,2020.2.10,Win32,60,60674ec340277cd6a308bc9f,17.35147392,16.72279496,16.7144385,16.71700163,16.71939954,16.71939954,,,,,,,,,,,,,,,,,,,,PF,weak,3,,,,,,,,6,1.117,,,,,,,,,,,,,,,,,,,,,,,,,,,,4,weak,101.5,45,1,0,0,response1disk,1,167,12.5,4,1,0,0,rectangle,12.5,4,1,0,0,6,7,0.001,12.5,4,1,0,0,0,4,4,115,1,0,,,,,,,,,,,,,,,,,,,,,
,,,,,,,,,,,,,,,,,,,,,,,,,,,,,,,,,,,,,,,,,,5bfed3755eecf20001fb3681,6068420ec0f0497cc97cfc29,2021-04-03_11h23.23.927,Colour_Similarity_Experiment,2020.2.10,Win32,60,60674ec340277cd6a308bc9f,17.35147392,16.72279496,16.7144385,16.71700163,16.71939954,16.71939954,,,,,,,,,,,,,,,,,,,,PF,weak,3,,,,,,,,6,2.318,,,,,,,,,,,,,,,,,,,,,,,,,,,,2,weak,94.5,46,1,0,0,response1disk,4,168,18.5,7,1,0,0,rectangle,18.5,7,1,0,0,6,1,0,18.5,7,1,0,0,0,5,5,127,1,0,,,,,,,,,,,,,,,,,,,,,
,,,,,,,,,,,,,,,,,,,,,,,,,,,,,,,,,,,,,,,,,,5bfed3755eecf20001fb3681,6068420ec0f0497cc97cfc29,2021-04-03_11h23.23.927,Colour_Similarity_Experiment,2020.2.10,Win32,60,60674ec340277cd6a308bc9f,17.35147392,16.72279496,16.7144385,16.71700163,16.71939954,16.71939954,,,,,,,,,,,,,,,,,,,,PF,strong,3,,,,,,,,3,2.753,,,,,,,,,,,,,,,,,,,,,,,,,,,,9,strong,-63.5,-115,1,0,0,response5disk,8,169,7.5,7,1,0,0,rectangle,7.5,7,1,0,0,6,6,0.001,7.5,7,1,0,0,0,6,6,6,1,0,,,,,,,,,,,,,,,,,,,,,
,,,,,,,,,,,,,,,,,,,,,,,,,,,,,,,,,,,,,,,,,,5bfed3755eecf20001fb3681,6068420ec0f0497cc97cfc29,2021-04-03_11h23.23.927,Colour_Similarity_Experiment,2020.2.10,Win32,60,60674ec340277cd6a308bc9f,17.35147392,16.72279496,16.7144385,16.71700163,16.71939954,16.71939954,,,,,,,,,,,,,,,,,,,,PF,strong,3,,,,,,,,3,1.434,,,,,,,,,,,,,,,,,,,,,,,,,,,,3,strong,-54.5,-102,1,0,0,response5disk,5,170,2.5,-4,1,0,0,rectangle,2.5,-4,1,0,0,6,4,0.001,2.5,-4,1,0,0,0,7,7,101,1,0,,,,,,,,,,,,,,,,,,,,,
,,,,,,,,,,,,,,,,,,,,,,,,,,,,,,,,,,,,,,,,,,5bfed3755eecf20001fb3681,6068420ec0f0497cc97cfc29,2021-04-03_11h23.23.927,Colour_Similarity_Experiment,2020.2.10,Win32,60,60674ec340277cd6a308bc9f,17.35147392,16.72279496,16.7144385,16.71700163,16.71939954,16.71939954,,,,,,,,,,,,,,,,,,,,PF,strong,3,,,,,,,,3,1.618,,,,,,,,,,,,,,,,,,,,,,,,,,,,8,strong,-39.5,-68,1,0,0,response5disk,3,171,6.5,-11,1,0,0,rectangle,6.5,-11,1,0,0,6,0,0,6.5,-11,1,0,0,0,8,8,154,1,0,,,,,,,,,,,,,,,,,,,,,
,,,,,,,,,,,,,,,,,,,,,,,,,,,,,,,,,,,,,,,,,,5bfed3755eecf20001fb3681,6068420ec0f0497cc97cfc29,2021-04-03_11h23.23.927,Colour_Similarity_Experiment,2020.2.10,Win32,60,60674ec340277cd6a308bc9f,17.35147392,16.72279496,16.7144385,16.71700163,16.71939954,16.71939954,,,,,,,,,,,,,,,,,,,,PF,strong,3,,,,,,,,6,1.818,,,,,,,,,,,,,,,,,,,,,,,,,,,,1,strong,111.5,37,1,0,0,response1disk,4,172,3.5,-9,1,0,0,rectangle,3.5,-9,1,0,0,6,1,0,3.5,-9,1,0,0,0,9,9,135,1,0,,,,,,,,,,,,,,,,,,,,,
,,,,,,,,,,,,,,,,,,,,,,,,,,,,,,,,,,,,,,,,,,5bfed3755eecf20001fb3681,6068420ec0f0497cc97cfc29,2021-04-03_11h23.23.927,Colour_Similarity_Experiment,2020.2.10,Win32,60,60674ec340277cd6a308bc9f,17.35147392,16.72279496,16.7144385,16.71700163,16.71939954,16.71939954,,,,,,,,,,,,,,,,,,,,PF,weak,3,,,,,,,,1,1.018,,,,,,,,,,,,,,,,,,,,,,,,,,,,4,weak,-70.5,49,1,0,0,response7disk,4,173,23.5,-6,1,0,0,rectangle,23.5,-6,1,0,0,6,5,0.001,23.5,-6,1,0,0,0,10,10,70,1,0,,,,,,,,,,,,,,,,,,,,,
,,,,,,,,,,,,,,,,,,,,,,,,,,,,,,,,,,,,,,,,,,5bfed3755eecf20001fb3681,6068420ec0f0497cc97cfc29,2021-04-03_11h23.23.927,Colour_Similarity_Experiment,2020.2.10,Win32,60,60674ec340277cd6a308bc9f,17.35147392,16.72279496,16.7144385,16.71700163,16.71939954,16.71939954,,,,,,,,,,,,,,,,,,,,PF,strong,3,,,,,,,,1,0.951,,,,,,,,,,,,,,,,,,,,,,,,,,,,4,strong,-102.5,61,1,0,0,response7disk,3,174,-2.5,-1,1,0,0,rectangle,-2.5,-1,1,0,0,6,1,0.001,-2.5,-1,1,0,0,0,11,11,77,1,0,,,,,,,,,,,,,,,,,,,,,
,,,,,,,,,,,,,,,,,,,,,,,,,,,,,,,,,,,,,,,,,,5bfed3755eecf20001fb3681,6068420ec0f0497cc97cfc29,2021-04-03_11h23.23.927,Colour_Similarity_Experiment,2020.2.10,Win32,60,60674ec340277cd6a308bc9f,17.35147392,16.72279496,16.7144385,16.71700163,16.71939954,16.71939954,,,,,,,,,,,,,,,,,,,,PF,weak,3,,,,,,,,6,0.901,,,,,,,,,,,,,,,,,,,,,,,,,,,,7,weak,107.5,44,1,0,0,response1disk,5,175,19.5,3,1,0,0,rectangle,19.5,3,1,0,0,6,2,0.001,19.5,3,1,0,0,0,12,12,92,1,0,,,,,,,,,,,,,,,,,,,,,
,,,,,,,,,,,,,,,,,,,,,,,,,,,,,,,,,,,,,,,,,,5bfed3755eecf20001fb3681,6068420ec0f0497cc97cfc29,2021-04-03_11h23.23.927,Colour_Similarity_Experiment,2020.2.10,Win32,60,60674ec340277cd6a308bc9f,17.35147392,16.72279496,16.7144385,16.71700163,16.71939954,16.71939954,,,,,,,,,,,,,,,,,,,,PF,strong,3,,,,,,,,6,1.001,,,,,,,,,,,,,,,,,,,,,,,,,,,,5,strong,93.5,48,1,0,0,response1disk,8,176,13.5,-1,1,0,0,rectangle,13.5,-1,1,0,0,6,1,0.001,13.5,-1,1,0,0,0,13,13,16,1,0,,,,,,,,,,,,,,,,,,,,,
,,,,,,,,,,,,,,,,,,,,,,,,,,,,,,,,,,,,,,,,,,5bfed3755eecf20001fb3681,6068420ec0f0497cc97cfc29,2021-04-03_11h23.23.927,Colour_Similarity_Experiment,2020.2.10,Win32,60,60674ec340277cd6a308bc9f,17.35147392,16.72279496,16.7144385,16.71700163,16.71939954,16.71939954,,,,,,,,,,,,,,,,,,,,PF,strong,3,,,,,,,,6,0.901,,,,,,,,,,,,,,,,,,,,,,,,,,,,6,strong,102.5,51,1,0,0,response1disk,3,177,3.5,1,1,0,0,rectangle,3.5,1,1,0,0,6,6,0.001,3.5,1,1,0,0,0,14,14,21,1,0,,,,,,,,,,,,,,,,,,,,,
,,,,,,,,,,,,,,,,,,,,,,,,,,,,,,,,,,,,,,,,,,5bfed3755eecf20001fb3681,6068420ec0f0497cc97cfc29,2021-04-03_11h23.23.927,Colour_Similarity_Experiment,2020.2.10,Win32,60,60674ec340277cd6a308bc9f,17.35147392,16.72279496,16.7144385,16.71700163,16.71939954,16.71939954,,,,,,,,,,,,,,,,,,,,PF,weak,3,,,,,,,,1,0.851,,,,,,,,,,,,,,,,,,,,,,,,,,,,5,weak,-113.5,65,1,0,0,response7disk,5,178,20.5,-1,1,0,0,rectangle,20.5,-1,1,0,0,6,1,0.001,20.5,-1,1,0,0,0,15,15,94,1,0,,,,,,,,,,,,,,,,,,,,,
,,,,,,,,,,,,,,,,,,,,,,,,,,,,,,,,,,,,,,,,,,5bfed3755eecf20001fb3681,6068420ec0f0497cc97cfc29,2021-04-03_11h23.23.927,Colour_Similarity_Experiment,2020.2.10,Win32,60,60674ec340277cd6a308bc9f,17.35147392,16.72279496,16.7144385,16.71700163,16.71939954,16.71939954,,,,,,,,,,,,,,,,,,,,PF,strong,3,,,,,,,,6,0.984,,,,,,,,,,,,,,,,,,,,,,,,,,,,7,strong,98.5,53,1,0,0,response1disk,5,179,-4.5,0,1,0,0,rectangle,-4.5,0,1,0,0,6,0,0.002,-4.5,0,1,0,0,0,16,16,156,1,0,,,,,,,,,,,,,,,,,,,,,
,,,,,,,,,,,,,,,,,,,,,,,,,,,,,,,,,,,,,,,,,,5bfed3755eecf20001fb3681,6068420ec0f0497cc97cfc29,2021-04-03_11h23.23.927,Colour_Similarity_Experiment,2020.2.10,Win32,60,60674ec340277cd6a308bc9f,17.35147392,16.72279496,16.7144385,16.71700163,16.71939954,16.71939954,,,,,,,,,,,,,,,,,,,,PF,strong,3,,,,,,,,6,0.801,,,,,,,,,,,,,,,,,,,,,,,,,,,,8,strong,109.5,65,1,0,0,response1disk,4,180,29.5,15,1,0,0,rectangle,29.5,15,1,0,0,6,3,0.001,29.5,15,1,0,0,0,17,17,88,1,0,,,,,,,,,,,,,,,,,,,,,
,,,,,,,,,,,,,,,,,,,,,,,,,,,,,,,,,,,,,,,,,,5bfed3755eecf20001fb3681,6068420ec0f0497cc97cfc29,2021-04-03_11h23.23.927,Colour_Similarity_Experiment,2020.2.10,Win32,60,60674ec340277cd6a308bc9f,17.35147392,16.72279496,16.7144385,16.71700163,16.71939954,16.71939954,,,,,,,,,,,,,,,,,,,,PF,strong,3,,,,,,,,6,0.834,,,,,,,,,,,,,,,,,,,,,,,,,,,,3,strong,95.5,49,1,0,0,response1disk,7,181,3.5,-3,1,0,0,rectangle,3.5,-3,1,0,0,6,1,0.001,3.5,-3,1,0,0,0,18,18,118,1,0,,,,,,,,,,,,,,,,,,,,,
,,,,,,,,,,,,,,,,,,,,,,,,,,,,,,,,,,,,,,,,,,5bfed3755eecf20001fb3681,6068420ec0f0497cc97cfc29,2021-04-03_11h23.23.927,Colour_Similarity_Experiment,2020.2.10,Win32,60,60674ec340277cd6a308bc9f,17.35147392,16.72279496,16.7144385,16.71700163,16.71939954,16.71939954,,,,,,,,,,,,,,,,,,,,PF,strong,3,,,,,,,,1,0.967,,,,,,,,,,,,,,,,,,,,,,,,,,,,1,strong,-101.5,53,1,0,0,response7disk,2,182,18.5,-5,1,0,0,rectangle,18.5,-5,1,0,0,6,1,0.001,18.5,-5,1,0,0,0,19,19,2,1,0,,,,,,,,,,,,,,,,,,,,,
,,,,,,,,,,,,,,,,,,,,,,,,,,,,,,,,,,,,,,,,,,5bfed3755eecf20001fb3681,6068420ec0f0497cc97cfc29,2021-04-03_11h23.23.927,Colour_Similarity_Experiment,2020.2.10,Win32,60,60674ec340277cd6a308bc9f,17.35147392,16.72279496,16.7144385,16.71700163,16.71939954,16.71939954,,,,,,,,,,,,,,,,,,,,PF,weak,3,,,,,,,,1,0.767,,,,,,,,,,,,,,,,,,,,,,,,,,,,9,weak,-125.5,47,1,0,0,response7disk,9,183,-3.5,3,1,0,0,rectangle,-3.5,3,1,0,0,6,1,0,-3.5,3,1,0,0,0,20,20,106,1,0,,,,,,,,,,,,,,,,,,,,,
,,,,,,,,,,,,,,,,,,,,,,,,,,,,,,,,,,,,,,,,,,5bfed3755eecf20001fb3681,6068420ec0f0497cc97cfc29,2021-04-03_11h23.23.927,Colour_Similarity_Experiment,2020.2.10,Win32,60,60674ec340277cd6a308bc9f,17.35147392,16.72279496,16.7144385,16.71700163,16.71939954,16.71939954,,,,,,,,,,,,,,,,,,,,PF,strong,3,,,,,,,,6,1.435,,,,,,,,,,,,,,,,,,,,,,,,,,,,1,strong,118.5,59,1,0,0,response1disk,8,184,-15.5,-3,1,0,0,rectangle,-15.5,-3,1,0,0,6,0,0.001,-15.5,-3,1,0,0,0,21,21,27,1,0,,,,,,,,,,,,,,,,,,,,,
,,,,,,,,,,,,,,,,,,,,,,,,,,,,,,,,,,,,,,,,,,5bfed3755eecf20001fb3681,6068420ec0f0497cc97cfc29,2021-04-03_11h23.23.927,Colour_Similarity_Experiment,2020.2.10,Win32,60,60674ec340277cd6a308bc9f,17.35147392,16.72279496,16.7144385,16.71700163,16.71939954,16.71939954,,,,,,,,,,,,,,,,,,,,PF,weak,3,,,,,,,,6,0.95,,,,,,,,,,,,,,,,,,,,,,,,,,,,6,weak,129.5,59,1,0,0,response1disk,1,185,0.5,1,1,0,0,rectangle,0.5,1,1,0,0,6,7,0.001,0.5,1,1,0,0,0,22,22,46,1,0,,,,,,,,,,,,,,,,,,,,,
,,,,,,,,,,,,,,,,,,,,,,,,,,,,,,,,,,,,,,,,,,5bfed3755eecf20001fb3681,6068420ec0f0497cc97cfc29,2021-04-03_11h23.23.927,Colour_Similarity_Experiment,2020.2.10,Win32,60,60674ec340277cd6a308bc9f,17.35147392,16.72279496,16.7144385,16.71700163,16.71939954,16.71939954,,,,,,,,,,,,,,,,,,,,PF,weak,3,,,,,,,,6,0.851,,,,,,,,,,,,,,,,,,,,,,,,,,,,1,weak,117.5,48,1,0,0,response1disk,6,186,2.5,-12,1,0,0,rectangle,2.5,-12,1,0,0,6,6,0.001,2.5,-12,1,0,0,0,23,23,144,1,0,,,,,,,,,,,,,,,,,,,,,
,,,,,,,,,,,,,,,,,,,,,,,,,,,,,,,,,,,,,,,,,,5bfed3755eecf20001fb3681,6068420ec0f0497cc97cfc29,2021-04-03_11h23.23.927,Colour_Similarity_Experiment,2020.2.10,Win32,60,60674ec340277cd6a308bc9f,17.35147392,16.72279496,16.7144385,16.71700163,16.71939954,16.71939954,,,,,,,,,,,,,,,,,,,,PF,strong,3,,,,,,,,6,0.818,,,,,,,,,,,,,,,,,,,,,,,,,,,,8,strong,115.5,48,1,0,0,response1disk,1,187,11.5,-1,1,0,0,rectangle,11.5,-1,1,0,0,6,4,0,11.5,-1,1,0,0,0,24,24,20,1,0,,,,,,,,,,,,,,,,,,,,,
,,,,,,,,,,,,,,,,,,,,,,,,,,,,,,,,,,,,,,,,,,5bfed3755eecf20001fb3681,6068420ec0f0497cc97cfc29,2021-04-03_11h23.23.927,Colour_Similarity_Experiment,2020.2.10,Win32,60,60674ec340277cd6a308bc9f,17.35147392,16.72279496,16.7144385,16.71700163,16.71939954,16.71939954,,,,,,,,,,,,,,,,,,,,PF,weak,3,,,,,,,,3,1.518,,,,,,,,,,,,,,,,,,,,,,,,,,,,8,weak,-63.5,-117,1,0,0,response5disk,7,188,-2.5,-7,1,0,0,rectangle,-2.5,-7,1,0,0,6,3,0.001,-2.5,-7,1,0,0,0,25,25,23,1,0,,,,,,,,,,,,,,,,,,,,,
,,,,,,,,,,,,,,,,,,,,,,,,,,,,,,,,,,,,,,,,,,5bfed3755eecf20001fb3681,6068420ec0f0497cc97cfc29,2021-04-03_11h23.23.927,Colour_Similarity_Experiment,2020.2.10,Win32,60,60674ec340277cd6a308bc9f,17.35147392,16.72279496,16.7144385,16.71700163,16.71939954,16.71939954,,,,,,,,,,,,,,,,,,,,PF,strong,3,,,,,,,,3,1.285,,,,,,,,,,,,,,,,,,,,,,,,,,,,2,strong,-52.5,-92,1,0,0,response5disk,5,189,25.5,17,1,0,0,rectangle,25.5,17,1,0,0,6,6,0.001,25.5,17,1,0,0,0,26,26,80,1,0,,,,,,,,,,,,,,,,,,,,,
,,,,,,,,,,,,,,,,,,,,,,,,,,,,,,,,,,,,,,,,,,5bfed3755eecf20001fb3681,6068420ec0f0497cc97cfc29,2021-04-03_11h23.23.927,Colour_Similarity_Experiment,2020.2.10,Win32,60,60674ec340277cd6a308bc9f,17.35147392,16.72279496,16.7144385,16.71700163,16.71939954,16.71939954,,,,,,,,,,,,,,,,,,,,PF,weak,3,,,,,,,,6,1.185,,,,,,,,,,,,,,,,,,,,,,,,,,,,8,weak,70.5,35,1,0,0,response1disk,3,190,11.5,-13,1,0,0,rectangle,11.5,-13,1,0,0,6,7,0.001,11.5,-13,1,0,0,0,27,27,71,1,0,,,,,,,,,,,,,,,,,,,,,
,,,,,,,,,,,,,,,,,,,,,,,,,,,,,,,,,,,,,,,,,,5bfed3755eecf20001fb3681,6068420ec0f0497cc97cfc29,2021-04-03_11h23.23.927,Colour_Similarity_Experiment,2020.2.10,Win32,60,60674ec340277cd6a308bc9f,17.35147392,16.72279496,16.7144385,16.71700163,16.71939954,16.71939954,,,,,,,,,,,,,,,,,,,,PF,weak,3,,,,,,,,4,1.885,,,,,,,,,,,,,,,,,,,,,,,,,,,,8,weak,76.5,-91,1,0,0,response3disk,9,191,4.5,-1,1,0,0,rectangle,4.5,-1,1,0,0,6,4,0,4.5,-1,1,0,0,0,28,28,42,1,0,,,,,,,,,,,,,,,,,,,,,
,,,,,,,,,,,,,,,,,,,,,,,,,,,,,,,,,,,,,,,,,,5bfed3755eecf20001fb3681,6068420ec0f0497cc97cfc29,2021-04-03_11h23.23.927,Colour_Similarity_Experiment,2020.2.10,Win32,60,60674ec340277cd6a308bc9f,17.35147392,16.72279496,16.7144385,16.71700163,16.71939954,16.71939954,,,,,,,,,,,,,,,,,,,,PF,strong,3,,,,,,,,6,0.935,,,,,,,,,,,,,,,,,,,,,,,,,,,,7,strong,122.5,57,1,0,0,response1disk,4,192,-1.5,-7,1,0,0,rectangle,-1.5,-7,1,0,0,6,3,0.001,-1.5,-7,1,0,0,0,29,29,158,1,0,,,,,,,,,,,,,,,,,,,,,
,,,,,,,,,,,,,,,,,,,,,,,,,,,,,,,,,,,,,,,,,,5bfed3755eecf20001fb3681,6068420ec0f0497cc97cfc29,2021-04-03_11h23.23.927,Colour_Similarity_Experiment,2020.2.10,Win32,60,60674ec340277cd6a308bc9f,17.35147392,16.72279496,16.7144385,16.71700163,16.71939954,16.71939954,,,,,,,,,,,,,,,,,,,,PF,strong,3,,,,,,,,1,1.084,,,,,,,,,,,,,,,,,,,,,,,,,,,,2,strong,-59.5,33,1,0,0,response7disk,3,193,32.5,-7,1,0,0,rectangle,80.5,-37,1,0,0,5,5,1.435,10.5,-5,1,0,0,0,30,30,104,1,1,response3disk_3,rectangle,,,,,,,,,,,,,,,,,,,
,,,,,,,,,,,,,,,,,,,,,,,,,,,,,,,,,,,,,,,,,,5bfed3755eecf20001fb3681,6068420ec0f0497cc97cfc29,2021-04-03_11h23.23.927,Colour_Similarity_Experiment,2020.2.10,Win32,60,60674ec340277cd6a308bc9f,17.35147392,16.72279496,16.7144385,16.71700163,16.71939954,16.71939954,,,,,,,,,,,,,,,,,,,,PF,strong,3,,,,,,,,6,1.417,,,,,,,,,,,,,,,,,,,,,,,,,,,,2,strong,118.5,52,1,0,0,response1disk,8,194,16.5,-5,1,0,0,rectangle,16.5,-5,1,0,0,5,1,0.001,16.5,-5,1,0,0,0,31,31,62,1,0,,,,,,,,,,,,,,,,,,,,,
