key_resp.keys,key_resp.rt,key_resp_16.keys,key_resp_16.rt,key_resp_2.keys,key_resp_2.rt,X Scale,ratio_pxpermm,screen_size_x,screen_size_y,testsize,key_resp_3.keys,key_resp_4.keys,key_resp_4.rt,line_size,key_resp_5.keys,key_resp_5.rt,key_resp_6.keys,key_resp_6.rt,key_resp_8.keys,key_resp_8.rt,key_resp_7.keys,key_resp_7.rt,key_resp_12.keys,key_resp_12.rt,key_resp_11.keys,key_resp_11.rt,key_resp_18.keys,key_resp_18.rt,key_resp_21.keys,key_resp_21.rt,key_resp_13.keys,key_resp_13.rt,key_resp_19.keys,key_resp_19.rt,ballposx,viewer_distance,trials.thisRepN,trials.thisTrialN,trials.thisN,trials.thisIndex,trials.ran,participant,session,date,expName,psychopyVersion,OS,frameRate,study_id,realFrameRate1,realFrameRate2,realFrameRate3,realFrameRate4,realFrameRate5,realFrameRate,viewerdistancecm,DVA_to_distance,radius_F,radius_P,r_F,R_P,key_resp_20.keys,key_resp_20.rt,key_resp_14.keys,key_resp_14.rt,key_resp_15.keys,key_resp_15.rt,key_resp_17.keys,key_resp_17.rt,key_resp_9.keys,key_resp_9.rt,key_resp_10.keys,key_resp_10.rt,Colour_1,Ecc,maskCon,mask_frames,mouse_5.x,mouse_5.y,mouse_5.leftButton,mouse_5.midButton,mouse_5.rightButton,mouse_5.clicked_name,Colour_2,similarity,response_time,mouse_10.x,mouse_10.y,mouse_10.leftButton,mouse_10.midButton,mouse_10.rightButton,mouse_10.clicked_name,mouse_7.x,mouse_7.y,mouse_7.leftButton,mouse_7.midButton,mouse_7.rightButton,catchnumberprac,mouse_6.x,mouse_6.y,mouse_6.leftButton,mouse_6.midButton,mouse_6.rightButton,duringprac.thisRepN,duringprac.thisTrialN,duringprac.thisN,duringprac.thisIndex,duringprac.ran,mouse_7.clicked_name,catchprac,mouse_6.clicked_name,key_resp_22.keys,key_resp_22.rt,Colour1,maskCon1,mouse.x,mouse.y,mouse.leftButton,mouse.midButton,mouse.rightButton,mouse.clicked_name,Colour2,trialnumber,mouse_2.x,mouse_2.y,mouse_2.leftButton,mouse_2.midButton,mouse_2.rightButton,mouse_2.clicked_name,mouse_3.x,mouse_3.y,mouse_3.leftButton,mouse_3.midButton,mouse_3.rightButton,catchresponse,catchnumber,response_time_catch,mouse_11.x,mouse_11.y,mouse_11.leftButton,mouse_11.midButton,mouse_11.rightButton,trials_2.thisRepN,trials_2.thisTrialN,trials_2.thisN,trials_2.thisIndex,trials_2.ran,Catch,mouse_3.clicked_name,mouse_11.clicked_name,trials_3.thisRepN,trials_3.thisTrialN,trials_3.thisN,trials_3.thisIndex,trials_3.ran,answer1,rt1,answer2,rt2,answer3,rt3,answer4,rt4,answer5,rt5,answer6,rt6,answer7,rt7
space,8.075365,space,9.03084,space,6.85025,37.8,3.78,507.9365079,285.7142857,1920,,space,21.403185,75.6,space,11.27206,space,1.66738,space,1.358285,space,5.59252,space,8.119805,space,8.545235,space,12.058615,space,2.45027,space,18.669025,return,61.122215,-7542.72,9157.844697,0,0,0,0,1,5c964f54490924001511b867,60684c5b82b3d59c01f84220,2021-04-03_13h14.06.927,Colour_Similarity_Experiment,2020.2.10,Win32,60,60674ec340277cd6a308bc9f,16.82806156,17.00786116,16.69587406,16.67926128,16.66614035,16.69587406,,,,,,,,,,,,,,,,,,,,,,,,,,,,,,,,,,,,,,,,,,,,,,,,,,,,,,,,,,,,,,,,,,,,,,,,,,,,,,,,,,,,,,,,,,,,,,,,,,,,,,,,,,,,,,,,,,
,,,,,,,,,,,,,,,,,,,,,,,,,,,,,,,,,return,3.22744,158.4,671.7374821,1,0,1,0,1,5c964f54490924001511b867,60684c5b82b3d59c01f84220,2021-04-03_13h14.06.927,Colour_Similarity_Experiment,2020.2.10,Win32,60,60674ec340277cd6a308bc9f,16.82806156,17.00786116,16.69587406,16.67926128,16.66614035,16.69587406,,,,,,,,,,,,,,,,,,,,,,,,,,,,,,,,,,,,,,,,,,,,,,,,,,,,,,,,,,,,,,,,,,,,,,,,,,,,,,,,,,,,,,,,,,,,,,,,,,,,,,,,,,,,,,,,,,
,,,,,,,,,,,,,,,,,,,,,,,,,,,,,,,,,return,3.4023,126.72,706.6466741,2,0,2,0,1,5c964f54490924001511b867,60684c5b82b3d59c01f84220,2021-04-03_13h14.06.927,Colour_Similarity_Experiment,2020.2.10,Win32,60,60674ec340277cd6a308bc9f,16.82806156,17.00786116,16.69587406,16.67926128,16.66614035,16.69587406,,,,,,,,,,,,,,,,,,,,,,,,,,,,,,,,,,,,,,,,,,,,,,,,,,,,,,,,,,,,,,,,,,,,,,,,,,,,,,,,,,,,,,,,,,,,,,,,,,,,,,,,,,,,,,,,,,
,,,,,,,,,,,,,,,,,,,,,,,,,,,,,,,,,return,3.482595,112.32,722.5144886,3,0,3,0,1,5c964f54490924001511b867,60684c5b82b3d59c01f84220,2021-04-03_13h14.06.927,Colour_Similarity_Experiment,2020.2.10,Win32,60,60674ec340277cd6a308bc9f,16.82806156,17.00786116,16.69587406,16.67926128,16.66614035,16.69587406,,,,,,,,,,,,,,,,,,,,,,,,,,,,,,,,,,,,,,,,,,,,,,,,,,,,,,,,,,,,,,,,,,,,,,,,,,,,,,,,,,,,,,,,,,,,,,,,,,,,,,,,,,,,,,,,,,
,,,,,,,,,,,,,,,,,,,,,,,,,,,,,,,,,return,3.355175,135.36,697.1259853,4,0,4,0,1,5c964f54490924001511b867,60684c5b82b3d59c01f84220,2021-04-03_13h14.06.927,Colour_Similarity_Experiment,2020.2.10,Win32,60,60674ec340277cd6a308bc9f,16.82806156,17.00786116,16.69587406,16.67926128,16.66614035,16.69587406,,,,,,,,,,,,,,,,,,,,,,,,,,,,,,,,,,,,,,,,,,,,,,,,,,,,,,,,,,,,,,,,,,,,,,,,,,,,,,,,,,,,,,,,,,,,,,,,,,,,,,,,,,,,,,,,,,
,,,,,,,,,,,,,,,,,,,,,,,,,,,,,,,,,,,,,,,,,,5c964f54490924001511b867,60684c5b82b3d59c01f84220,2021-04-03_13h14.06.927,Colour_Similarity_Experiment,2020.2.10,Win32,60,60674ec340277cd6a308bc9f,16.82806156,17.00786116,16.69587406,16.67926128,16.66614035,16.69587406,71,12.39309167,70.26882975,468.458865,46.8458865,210.8064893,space,4.16694,space,14.60555,space,40.234795,space,5.177945,space,2.20063,space,6.00162,8,PF,weak,3,125,53,1,0,0,response1disk_5,9,6,4.849315,0,3,1,0,0,rectangle_8,0,3,1,0,0,6,0,3,1,0,0,0,0,0,6,1,,,,,,,,,,,,,,,,,,,,,,,,,,,,,,,,,,,,,,,,,,,,,,,,,,,,,,,,,,,,,
,,,,,,,,,,,,,,,,,,,,,,,,,,,,,,,,,,,,,,,,,,5c964f54490924001511b867,60684c5b82b3d59c01f84220,2021-04-03_13h14.06.927,Colour_Similarity_Experiment,2020.2.10,Win32,60,60674ec340277cd6a308bc9f,16.82806156,17.00786116,16.69587406,16.67926128,16.66614035,16.69587406,,,,,,,,,,,,,,,,,,,5,PF,weak,3,36,-92,1,0,0,response3disk_5,4,4,4.48359,0,3,1,0,0,rectangle_8,108,44,1,0,0,6,-1,-1,1,0,0,0,1,1,5,1,response1disk_7,6,rectangle_4,,,,,,,,,,,,,,,,,,,,,,,,,,,,,,,,,,,,,,,,,,,,,,,,,,,,,,,,,,
,,,,,,,,,,,,,,,,,,,,,,,,,,,,,,,,,,,,,,,,,,5c964f54490924001511b867,60684c5b82b3d59c01f84220,2021-04-03_13h14.06.927,Colour_Similarity_Experiment,2020.2.10,Win32,60,60674ec340277cd6a308bc9f,16.82806156,17.00786116,16.69587406,16.67926128,16.66614035,16.69587406,,,,,,,,,,,,,,,,,,,5,PF,strong,3,-33,101,1,0,0,response7disk_5,7,0,3.899845,-2,6,1,0,0,rectangle_8,92,45,1,0,0,6,12,2,1,0,0,0,2,2,3,1,response1disk_7,6,rectangle_4,,,,,,,,,,,,,,,,,,,,,,,,,,,,,,,,,,,,,,,,,,,,,,,,,,,,,,,,,,
,,,,,,,,,,,,,,,,,,,,,,,,,,,,,,,,,,,,,,,,,,5c964f54490924001511b867,60684c5b82b3d59c01f84220,2021-04-03_13h14.06.927,Colour_Similarity_Experiment,2020.2.10,Win32,60,60674ec340277cd6a308bc9f,16.82806156,17.00786116,16.69587406,16.67926128,16.66614035,16.69587406,,,,,,,,,,,,,,,,,,,5,PF,weak,3,57,122,1,0,0,response1disk_5,9,7,2.85008,1,2,1,0,0,rectangle_8,1,2,1,0,0,6,1,2,1,0,0,0,3,3,4,1,,,,,,,,,,,,,,,,,,,,,,,,,,,,,,,,,,,,,,,,,,,,,,,,,,,,,,,,,,,,,
,,,,,,,,,,,,,,,,,,,,,,,,,,,,,,,,,,,,,,,,,,5c964f54490924001511b867,60684c5b82b3d59c01f84220,2021-04-03_13h14.06.927,Colour_Similarity_Experiment,2020.2.10,Win32,60,60674ec340277cd6a308bc9f,16.82806156,17.00786116,16.69587406,16.67926128,16.66614035,16.69587406,,,,,,,,,,,,,,,,,,,2,PF,strong,3,50,-99,1,0,0,response3disk_5,4,4,3.267,-2,1,1,0,0,rectangle_8,-2,1,1,0,0,6,-2,1,1,0,0,0,4,4,2,1,,,,,,,,,,,,,,,,,,,,,,,,,,,,,,,,,,,,,,,,,,,,,,,,,,,,,,,,,,,,,
,,,,,,,,,,,,,,,,,,,,,,,,,,,,,,,,,,,,,,,,,,5c964f54490924001511b867,60684c5b82b3d59c01f84220,2021-04-03_13h14.06.927,Colour_Similarity_Experiment,2020.2.10,Win32,60,60674ec340277cd6a308bc9f,16.82806156,17.00786116,16.69587406,16.67926128,16.66614035,16.69587406,,,,,,,,,,,,,,,,,,,1,PF,weak,3,47,106,1,0,0,response1disk_5,4,7,1.799925,-5,-3,1,0,0,rectangle_8,-5,-3,1,0,0,6,-5,-3,1,0,0,0,5,5,1,1,,,,,,,,,,,,,,,,,,,,,,,,,,,,,,,,,,,,,,,,,,,,,,,,,,,,,,,,,,,,,
,,,,,,,,,,,,,,,,,,,,,,,,,,,,,,,,,,,,,,,,,,5c964f54490924001511b867,60684c5b82b3d59c01f84220,2021-04-03_13h14.06.927,Colour_Similarity_Experiment,2020.2.10,Win32,60,60674ec340277cd6a308bc9f,16.82806156,17.00786116,16.69587406,16.67926128,16.66614035,16.69587406,,,,,,,,,,,,,,,,,,,4,PF,strong,3,49,106,1,0,0,response1disk_5,9,7,1.90055,3,-2,1,0,0,rectangle_8,3,-2,1,0,0,6,3,-2,1,0,0,0,6,6,0,1,,,,,,,,,,,,,,,,,,,,,,,,,,,,,,,,,,,,,,,,,,,,,,,,,,,,,,,,,,,,,
,,,,,,,,,,,,,,,,,,,,,,,,,,,,,,,,,,,,,,,,,,5c964f54490924001511b867,60684c5b82b3d59c01f84220,2021-04-03_13h14.06.927,Colour_Similarity_Experiment,2020.2.10,Win32,60,60674ec340277cd6a308bc9f,16.82806156,17.00786116,16.69587406,16.67926128,16.66614035,16.69587406,,,,,,,,,,,,,,,,,,,,PF,strong,3,,,,,,,,2,4.816785,,,,,,,,,,,,,,,,,,,,,,,,,,space,3.56404,5,strong,-94,-57,1,0,0,response5disk,7,1,-6,-13,1,0,0,rectangle,-6,-13,1,0,0,,2,0.00186,-6,-13,1,0,0,0,0,0,7,1,0,,,,,,,,,,,,,,,,,,,,,
,,,,,,,,,,,,,,,,,,,,,,,,,,,,,,,,,,,,,,,,,,5c964f54490924001511b867,60684c5b82b3d59c01f84220,2021-04-03_13h14.06.927,Colour_Similarity_Experiment,2020.2.10,Win32,60,60674ec340277cd6a308bc9f,16.82806156,17.00786116,16.69587406,16.67926128,16.66614035,16.69587406,,,,,,,,,,,,,,,,,,,,PF,weak,3,,,,,,,,7,2.016715,,,,,,,,,,,,,,,,,,,,,,,,,,,,5,weak,55,115,1,0,0,response1disk,2,2,-2,-3,1,0,0,rectangle,-2,-3,1,0,0,,1,0.000905,-2,-3,1,0,0,0,1,1,129,1,0,,,,,,,,,,,,,,,,,,,,,
,,,,,,,,,,,,,,,,,,,,,,,,,,,,,,,,,,,,,,,,,,5c964f54490924001511b867,60684c5b82b3d59c01f84220,2021-04-03_13h14.06.927,Colour_Similarity_Experiment,2020.2.10,Win32,60,60674ec340277cd6a308bc9f,16.82806156,17.00786116,16.69587406,16.67926128,16.66614035,16.69587406,,,,,,,,,,,,,,,,,,,,PF,weak,3,,,,,,,,1,2.049935,,,,,,,,,,,,,,,,,,,,,,,,,,,,3,weak,-92,64,1,0,0,response7disk,4,3,-3,6,1,0,0,rectangle,-3,6,1,0,0,,2,0.00074,-3,6,1,0,0,0,2,2,30,1,0,,,,,,,,,,,,,,,,,,,,,
,,,,,,,,,,,,,,,,,,,,,,,,,,,,,,,,,,,,,,,,,,5c964f54490924001511b867,60684c5b82b3d59c01f84220,2021-04-03_13h14.06.927,Colour_Similarity_Experiment,2020.2.10,Win32,60,60674ec340277cd6a308bc9f,16.82806156,17.00786116,16.69587406,16.67926128,16.66614035,16.69587406,,,,,,,,,,,,,,,,,,,,PF,weak,3,,,,,,,,0,1.316645,,,,,,,,,,,,,,,,,,,,,,,,,,,,9,weak,-43,101,1,0,0,response7disk,9,4,-1,7,1,0,0,rectangle,-1,7,1,0,0,,1,0.0008,-1,7,1,0,0,0,3,3,106,1,0,,,,,,,,,,,,,,,,,,,,,
,,,,,,,,,,,,,,,,,,,,,,,,,,,,,,,,,,,,,,,,,,5c964f54490924001511b867,60684c5b82b3d59c01f84220,2021-04-03_13h14.06.927,Colour_Similarity_Experiment,2020.2.10,Win32,60,60674ec340277cd6a308bc9f,16.82806156,17.00786116,16.69587406,16.67926128,16.66614035,16.69587406,,,,,,,,,,,,,,,,,,,,PF,strong,3,,,,,,,,7,3.466645,,,,,,,,,,,,,,,,,,,,,,,,,,,,3,strong,51,136,1,0,0,response1disk,7,5,0,-8,1,0,0,rectangle,0,-8,1,0,0,,5,0.000955,0,-8,1,0,0,0,4,4,118,1,0,,,,,,,,,,,,,,,,,,,,,
,,,,,,,,,,,,,,,,,,,,,,,,,,,,,,,,,,,,,,,,,,5c964f54490924001511b867,60684c5b82b3d59c01f84220,2021-04-03_13h14.06.927,Colour_Similarity_Experiment,2020.2.10,Win32,60,60674ec340277cd6a308bc9f,16.82806156,17.00786116,16.69587406,16.67926128,16.66614035,16.69587406,,,,,,,,,,,,,,,,,,,,PF,weak,3,,,,,,,,6,2.766725,,,,,,,,,,,,,,,,,,,,,,,,,,,,7,weak,108,62,1,0,0,response1disk,1,6,-6,6,1,0,0,rectangle,-6,6,1,0,0,,3,0.000865,-6,6,1,0,0,0,5,5,53,1,0,,,,,,,,,,,,,,,,,,,,,
,,,,,,,,,,,,,,,,,,,,,,,,,,,,,,,,,,,,,,,,,,5c964f54490924001511b867,60684c5b82b3d59c01f84220,2021-04-03_13h14.06.927,Colour_Similarity_Experiment,2020.2.10,Win32,60,60674ec340277cd6a308bc9f,16.82806156,17.00786116,16.69587406,16.67926128,16.66614035,16.69587406,,,,,,,,,,,,,,,,,,,,PF,strong,3,,,,,,,,1,2.3001,,,,,,,,,,,,,,,,,,,,,,,,,,,,7,strong,-101,31,1,0,0,response7disk,4,7,5,2,1,0,0,rectangle,5,2,1,0,0,,7,0.0008,5,2,1,0,0,0,6,6,158,1,0,,,,,,,,,,,,,,,,,,,,,
,,,,,,,,,,,,,,,,,,,,,,,,,,,,,,,,,,,,,,,,,,5c964f54490924001511b867,60684c5b82b3d59c01f84220,2021-04-03_13h14.06.927,Colour_Similarity_Experiment,2020.2.10,Win32,60,60674ec340277cd6a308bc9f,16.82806156,17.00786116,16.69587406,16.67926128,16.66614035,16.69587406,,,,,,,,,,,,,,,,,,,,PF,weak,3,,,,,,,,7,1.233355,,,,,,,,,,,,,,,,,,,,,,,,,,,,1,weak,51,103,1,0,0,response1disk,7,8,-7,1,1,0,0,rectangle,-7,1,1,0,0,,3,0.00076,-7,1,1,0,0,0,7,7,150,1,0,,,,,,,,,,,,,,,,,,,,,
,,,,,,,,,,,,,,,,,,,,,,,,,,,,,,,,,,,,,,,,,,5c964f54490924001511b867,60684c5b82b3d59c01f84220,2021-04-03_13h14.06.927,Colour_Similarity_Experiment,2020.2.10,Win32,60,60674ec340277cd6a308bc9f,16.82806156,17.00786116,16.69587406,16.67926128,16.66614035,16.69587406,,,,,,,,,,,,,,,,,,,,PF,strong,3,,,,,,,,7,1.716715,,,,,,,,,,,,,,,,,,,,,,,,,,,,2,strong,33,87,1,0,0,response1disk,1,9,-7,-1,1,0,0,rectangle,-7,-1,1,0,0,,5,0.00097,-7,-1,1,0,0,0,8,8,85,1,0,,,,,,,,,,,,,,,,,,,,,
,,,,,,,,,,,,,,,,,,,,,,,,,,,,,,,,,,,,,,,,,,5c964f54490924001511b867,60684c5b82b3d59c01f84220,2021-04-03_13h14.06.927,Colour_Similarity_Experiment,2020.2.10,Win32,60,60674ec340277cd6a308bc9f,16.82806156,17.00786116,16.69587406,16.67926128,16.66614035,16.69587406,,,,,,,,,,,,,,,,,,,,PF,weak,3,,,,,,,,7,2.366695,,,,,,,,,,,,,,,,,,,,,,,,,,,,3,weak,55,107,1,0,0,response1disk,9,10,1,-8,1,0,0,rectangle,1,-8,1,0,0,,7,0.001705,1,-8,1,0,0,0,9,9,79,1,0,,,,,,,,,,,,,,,,,,,,,
,,,,,,,,,,,,,,,,,,,,,,,,,,,,,,,,,,,,,,,,,,5c964f54490924001511b867,60684c5b82b3d59c01f84220,2021-04-03_13h14.06.927,Colour_Similarity_Experiment,2020.2.10,Win32,60,60674ec340277cd6a308bc9f,16.82806156,17.00786116,16.69587406,16.67926128,16.66614035,16.69587406,,,,,,,,,,,,,,,,,,,,PF,strong,3,,,,,,,,3,2.25016,,,,,,,,,,,,,,,,,,,,,,,,,,,,2,strong,-48,-89,1,0,0,response5disk,3,11,-4,-16,1,0,0,rectangle,97,-45,1,0,0,5,5,2.68455,-7,-3,1,0,0,0,10,10,104,1,1,response3disk_3,rectangle,,,,,,,,,,,,,,,,,,,
,,,,,,,,,,,,,,,,,,,,,,,,,,,,,,,,,,,,,,,,,,5c964f54490924001511b867,60684c5b82b3d59c01f84220,2021-04-03_13h14.06.927,Colour_Similarity_Experiment,2020.2.10,Win32,60,60674ec340277cd6a308bc9f,16.82806156,17.00786116,16.69587406,16.67926128,16.66614035,16.69587406,,,,,,,,,,,,,,,,,,,,PF,weak,3,,,,,,,,2,2.01685,,,,,,,,,,,,,,,,,,,,,,,,,,,,2,weak,-86,-31,1,0,0,response5disk,3,12,-7,-6,1,0,0,rectangle,-7,-6,1,0,0,5,7,0.001095,-7,-6,1,0,0,0,11,11,69,1,0,,,,,,,,,,,,,,,,,,,,,
,,,,,,,,,,,,,,,,,,,,,,,,,,,,,,,,,,,,,,,,,,5c964f54490924001511b867,60684c5b82b3d59c01f84220,2021-04-03_13h14.06.927,Colour_Similarity_Experiment,2020.2.10,Win32,60,60674ec340277cd6a308bc9f,16.82806156,17.00786116,16.69587406,16.67926128,16.66614035,16.69587406,,,,,,,,,,,,,,,,,,,,PF,weak,3,,,,,,,,7,1.933365,,,,,,,,,,,,,,,,,,,,,,,,,,,,5,weak,57,88,1,0,0,response1disk,6,13,-2,0,1,0,0,rectangle,-2,0,1,0,0,5,7,0.000155,-2,0,1,0,0,0,12,12,103,1,0,,,,,,,,,,,,,,,,,,,,,
,,,,,,,,,,,,,,,,,,,,,,,,,,,,,,,,,,,,,,,,,,5c964f54490924001511b867,60684c5b82b3d59c01f84220,2021-04-03_13h14.06.927,Colour_Similarity_Experiment,2020.2.10,Win32,60,60674ec340277cd6a308bc9f,16.82806156,17.00786116,16.69587406,16.67926128,16.66614035,16.69587406,,,,,,,,,,,,,,,,,,,,PF,strong,3,,,,,,,,1,1.733345,,,,,,,,,,,,,,,,,,,,,,,,,,,,2,strong,-90,39,1,0,0,response7disk,5,14,-12,2,1,0,0,rectangle,-12,2,1,0,0,5,6,0.00089,-12,2,1,0,0,0,13,13,80,1,0,,,,,,,,,,,,,,,,,,,,,
,,,,,,,,,,,,,,,,,,,,,,,,,,,,,,,,,,,,,,,,,,5c964f54490924001511b867,60684c5b82b3d59c01f84220,2021-04-03_13h14.06.927,Colour_Similarity_Experiment,2020.2.10,Win32,60,60674ec340277cd6a308bc9f,16.82806156,17.00786116,16.69587406,16.67926128,16.66614035,16.69587406,,,,,,,,,,,,,,,,,,,,PF,strong,3,,,,,,,,4,1.933345,,,,,,,,,,,,,,,,,,,,,,,,,,,,1,strong,31,-83,1,0,0,response3disk,8,15,-13,-8,1,0,0,rectangle,-13,-8,1,0,0,5,5,0.000685,-13,-8,1,0,0,0,14,14,27,1,0,,,,,,,,,,,,,,,,,,,,,
,,,,,,,,,,,,,,,,,,,,,,,,,,,,,,,,,,,,,,,,,,5c964f54490924001511b867,60684c5b82b3d59c01f84220,2021-04-03_13h14.06.927,Colour_Similarity_Experiment,2020.2.10,Win32,60,60674ec340277cd6a308bc9f,16.82806156,17.00786116,16.69587406,16.67926128,16.66614035,16.69587406,,,,,,,,,,,,,,,,,,,,PF,weak,3,,,,,,,,7,1.183345,,,,,,,,,,,,,,,,,,,,,,,,,,,,8,weak,33,101,1,0,0,response1disk,4,16,-6,14,1,0,0,rectangle,-6,14,1,0,0,5,5,0.000175,-6,14,1,0,0,0,15,15,78,1,0,,,,,,,,,,,,,,,,,,,,,
,,,,,,,,,,,,,,,,,,,,,,,,,,,,,,,,,,,,,,,,,,5c964f54490924001511b867,60684c5b82b3d59c01f84220,2021-04-03_13h14.06.927,Colour_Similarity_Experiment,2020.2.10,Win32,60,60674ec340277cd6a308bc9f,16.82806156,17.00786116,16.69587406,16.67926128,16.66614035,16.69587406,,,,,,,,,,,,,,,,,,,,PF,weak,3,,,,,,,,6,3.100115,,,,,,,,,,,,,,,,,,,,,,,,,,,,7,weak,77,56,1,0,0,response1disk,5,17,-6,-1,1,0,0,rectangle,-6,-1,1,0,0,5,1,0.001095,-6,-1,1,0,0,0,16,16,92,1,0,,,,,,,,,,,,,,,,,,,,,
,,,,,,,,,,,,,,,,,,,,,,,,,,,,,,,,,,,,,,,,,,5c964f54490924001511b867,60684c5b82b3d59c01f84220,2021-04-03_13h14.06.927,Colour_Similarity_Experiment,2020.2.10,Win32,60,60674ec340277cd6a308bc9f,16.82806156,17.00786116,16.69587406,16.67926128,16.66614035,16.69587406,,,,,,,,,,,,,,,,,,,,PF,weak,3,,,,,,,,1,2.216715,,,,,,,,,,,,,,,,,,,,,,,,,,,,3,weak,-104,48,1,0,0,response7disk,3,18,-5,5,1,0,0,rectangle,-5,5,1,0,0,5,2,0.000915,-5,5,1,0,0,0,17,17,4,1,0,,,,,,,,,,,,,,,,,,,,,
,,,,,,,,,,,,,,,,,,,,,,,,,,,,,,,,,,,,,,,,,,5c964f54490924001511b867,60684c5b82b3d59c01f84220,2021-04-03_13h14.06.927,Colour_Similarity_Experiment,2020.2.10,Win32,60,60674ec340277cd6a308bc9f,16.82806156,17.00786116,16.69587406,16.67926128,16.66614035,16.69587406,,,,,,,,,,,,,,,,,,,,PF,strong,3,,,,,,,,1,1.983365,,,,,,,,,,,,,,,,,,,,,,,,,,,,3,strong,-61,43,1,0,0,response7disk,4,19,0,5,1,0,0,rectangle,0,5,1,0,0,5,2,0.000135,0,5,1,0,0,0,18,18,110,1,0,,,,,,,,,,,,,,,,,,,,,
,,,,,,,,,,,,,,,,,,,,,,,,,,,,,,,,,,,,,,,,,,5c964f54490924001511b867,60684c5b82b3d59c01f84220,2021-04-03_13h14.06.927,Colour_Similarity_Experiment,2020.2.10,Win32,60,60674ec340277cd6a308bc9f,16.82806156,17.00786116,16.69587406,16.67926128,16.66614035,16.69587406,,,,,,,,,,,,,,,,,,,,PF,strong,3,,,,,,,,1,1.016335,,,,,,,,,,,,,,,,,,,,,,,,,,,,1,strong,-105,55,1,0,0,response7disk,4,20,-1,7,1,0,0,rectangle,-1,7,1,0,0,5,2,0.00013,-1,7,1,0,0,0,19,19,135,1,0,,,,,,,,,,,,,,,,,,,,,
,,,,,,,,,,,,,,,,,,,,,,,,,,,,,,,,,,,,,,,,,,5c964f54490924001511b867,60684c5b82b3d59c01f84220,2021-04-03_13h14.06.927,Colour_Similarity_Experiment,2020.2.10,Win32,60,60674ec340277cd6a308bc9f,16.82806156,17.00786116,16.69587406,16.67926128,16.66614035,16.69587406,,,,,,,,,,,,,,,,,,,,PF,strong,3,,,,,,,,4,1.77733,,,,,,,,,,,,,,,,,,,,,,,,,,,,9,strong,55,-99,1,0,0,response3disk,6,21,-1,2,1,0,0,rectangle,-1,2,1,0,0,5,3,0.00071,-1,2,1,0,0,0,20,20,117,1,0,,,,,,,,,,,,,,,,,,,,,
,,,,,,,,,,,,,,,,,,,,,,,,,,,,,,,,,,,,,,,,,,5c964f54490924001511b867,60684c5b82b3d59c01f84220,2021-04-03_13h14.06.927,Colour_Similarity_Experiment,2020.2.10,Win32,60,60674ec340277cd6a308bc9f,16.82806156,17.00786116,16.69587406,16.67926128,16.66614035,16.69587406,,,,,,,,,,,,,,,,,,,,PF,weak,3,,,,,,,,7,1.927385,,,,,,,,,,,,,,,,,,,,,,,,,,,,4,weak,51,123,1,0,0,response1disk,1,22,-5,2,1,0,0,rectangle,-5,2,1,0,0,5,6,0.000715,-5,2,1,0,0,0,21,21,115,1,0,,,,,,,,,,,,,,,,,,,,,
,,,,,,,,,,,,,,,,,,,,,,,,,,,,,,,,,,,,,,,,,,5c964f54490924001511b867,60684c5b82b3d59c01f84220,2021-04-03_13h14.06.927,Colour_Similarity_Experiment,2020.2.10,Win32,60,60674ec340277cd6a308bc9f,16.82806156,17.00786116,16.69587406,16.67926128,16.66614035,16.69587406,,,,,,,,,,,,,,,,,,,,PF,weak,3,,,,,,,,7,1.37714,,,,,,,,,,,,,,,,,,,,,,,,,,,,9,weak,47,124,1,0,0,response1disk,6,23,2,9,1,0,0,rectangle,2,9,1,0,0,5,5,0.000735,2,9,1,0,0,0,22,22,148,1,0,,,,,,,,,,,,,,,,,,,,,
,,,,,,,,,,,,,,,,,,,,,,,,,,,,,,,,,,,,,,,,,,5c964f54490924001511b867,60684c5b82b3d59c01f84220,2021-04-03_13h14.06.927,Colour_Similarity_Experiment,2020.2.10,Win32,60,60674ec340277cd6a308bc9f,16.82806156,17.00786116,16.69587406,16.67926128,16.66614035,16.69587406,,,,,,,,,,,,,,,,,,,,PF,strong,3,,,,,,,,7,5.20008,,,,,,,,,,,,,,,,,,,,,,,,,,,,3,strong,65,146,1,0,0,response1disk,8,24,3,6,1,0,0,rectangle,3,6,1,0,0,5,1,0.000865,3,6,1,0,0,0,23,23,44,1,0,,,,,,,,,,,,,,,,,,,,,
,,,,,,,,,,,,,,,,,,,,,,,,,,,,,,,,,,,,,,,,,,5c964f54490924001511b867,60684c5b82b3d59c01f84220,2021-04-03_13h14.06.927,Colour_Similarity_Experiment,2020.2.10,Win32,60,60674ec340277cd6a308bc9f,16.82806156,17.00786116,16.69587406,16.67926128,16.66614035,16.69587406,,,,,,,,,,,,,,,,,,,,PF,strong,3,,,,,,,,5,2.99997,,,,,,,,,,,,,,,,,,,,,,,,,,,,6,strong,76,-37,1,0,0,response3disk,5,25,14,-9,1,0,0,rectangle,14,-9,1,0,0,5,7,0.00095,14,-9,1,0,0,0,24,24,126,1,0,,,,,,,,,,,,,,,,,,,,,
,,,,,,,,,,,,,,,,,,,,,,,,,,,,,,,,,,,,,,,,,,5c964f54490924001511b867,60684c5b82b3d59c01f84220,2021-04-03_13h14.06.927,Colour_Similarity_Experiment,2020.2.10,Win32,60,60674ec340277cd6a308bc9f,16.82806156,17.00786116,16.69587406,16.67926128,16.66614035,16.69587406,,,,,,,,,,,,,,,,,,,,PF,weak,3,,,,,,,,7,1.983395,,,,,,,,,,,,,,,,,,,,,,,,,,,,6,weak,35,102,1,0,0,response1disk,8,26,-7,5,1,0,0,rectangle,-7,5,1,0,0,5,5,0.00073,-7,5,1,0,0,0,25,25,64,1,0,,,,,,,,,,,,,,,,,,,,,
,,,,,,,,,,,,,,,,,,,,,,,,,,,,,,,,,,,,,,,,,,5c964f54490924001511b867,60684c5b82b3d59c01f84220,2021-04-03_13h14.06.927,Colour_Similarity_Experiment,2020.2.10,Win32,60,60674ec340277cd6a308bc9f,16.82806156,17.00786116,16.69587406,16.67926128,16.66614035,16.69587406,,,,,,,,,,,,,,,,,,,,PF,strong,3,,,,,,,,3,1.799855,,,,,,,,,,,,,,,,,,,,,,,,,,,,2,strong,-32,-84,1,0,0,response5disk,6,27,16,1,1,0,0,rectangle,16,1,1,0,0,5,7,0.000915,16,1,1,0,0,0,26,26,40,1,0,,,,,,,,,,,,,,,,,,,,,
,,,,,,,,,,,,,,,,,,,,,,,,,,,,,,,,,,,,,,,,,,5c964f54490924001511b867,60684c5b82b3d59c01f84220,2021-04-03_13h14.06.927,Colour_Similarity_Experiment,2020.2.10,Win32,60,60674ec340277cd6a308bc9f,16.82806156,17.00786116,16.69587406,16.67926128,16.66614035,16.69587406,,,,,,,,,,,,,,,,,,,,PF,weak,3,,,,,,,,5,3.27716,,,,,,,,,,,,,,,,,,,,,,,,,,,,2,weak,56,-42,1,0,0,response3disk,6,28,-6,4,1,0,0,rectangle,-6,4,1,0,0,5,3,0.00077,-6,4,1,0,0,0,27,27,113,1,0,,,,,,,,,,,,,,,,,,,,,
,,,,,,,,,,,,,,,,,,,,,,,,,,,,,,,,,,,,,,,,,,5c964f54490924001511b867,60684c5b82b3d59c01f84220,2021-04-03_13h14.06.927,Colour_Similarity_Experiment,2020.2.10,Win32,60,60674ec340277cd6a308bc9f,16.82806156,17.00786116,16.69587406,16.67926128,16.66614035,16.69587406,,,,,,,,,,,,,,,,,,,,PF,weak,3,,,,,,,,0,1.360535,,,,,,,,,,,,,,,,,,,,,,,,,,,,8,weak,-43,97,1,0,0,response7disk,8,29,0,2,1,0,0,rectangle,0,2,1,0,0,5,6,0.000815,0,2,1,0,0,0,28,28,153,1,0,,,,,,,,,,,,,,,,,,,,,
,,,,,,,,,,,,,,,,,,,,,,,,,,,,,,,,,,,,,,,,,,5c964f54490924001511b867,60684c5b82b3d59c01f84220,2021-04-03_13h14.06.927,Colour_Similarity_Experiment,2020.2.10,Win32,60,60674ec340277cd6a308bc9f,16.82806156,17.00786116,16.69587406,16.67926128,16.66614035,16.69587406,,,,,,,,,,,,,,,,,,,,PF,strong,3,,,,,,,,4,3.57743,,,,,,,,,,,,,,,,,,,,,,,,,,,,2,strong,42,-67,1,0,0,response3disk,7,30,7,-12,1,0,0,rectangle,7,-12,1,0,0,5,0,0.000785,7,-12,1,0,0,0,29,29,63,1,0,,,,,,,,,,,,,,,,,,,,,
,,,,,,,,,,,,,,,,,,,,,,,,,,,,,,,,,,,,,,,,,,5c964f54490924001511b867,60684c5b82b3d59c01f84220,2021-04-03_13h14.06.927,Colour_Similarity_Experiment,2020.2.10,Win32,60,60674ec340277cd6a308bc9f,16.82806156,17.00786116,16.69587406,16.67926128,16.66614035,16.69587406,,,,,,,,,,,,,,,,,,,,PF,strong,3,,,,,,,,0,2.783445,,,,,,,,,,,,,,,,,,,,,,,,,,,,7,strong,-53,114,1,0,0,response7disk,9,31,5,21,1,0,0,rectangle,5,21,1,0,0,5,5,0.000845,5,21,1,0,0,0,30,30,155,1,0,,,,,,,,,,,,,,,,,,,,,
,,,,,,,,,,,,,,,,,,,,,,,,,,,,,,,,,,,,,,,,,,5c964f54490924001511b867,60684c5b82b3d59c01f84220,2021-04-03_13h14.06.927,Colour_Similarity_Experiment,2020.2.10,Win32,60,60674ec340277cd6a308bc9f,16.82806156,17.00786116,16.69587406,16.67926128,16.66614035,16.69587406,,,,,,,,,,,,,,,,,,,,PF,weak,3,,,,,,,,7,0.96058,,,,,,,,,,,,,,,,,,,,,,,,,,,,2,weak,34,96,1,0,0,response1disk,9,32,-19,11,1,0,0,rectangle,-19,11,1,0,0,5,6,0.00079,-19,11,1,0,0,0,31,31,39,1,0,,,,,,,,,,,,,,,,,,,,,
,,,,,,,,,,,,,,,,,,,,,,,,,,,,,,,,,,,,,,,,,,5c964f54490924001511b867,60684c5b82b3d59c01f84220,2021-04-03_13h14.06.927,Colour_Similarity_Experiment,2020.2.10,Win32,60,60674ec340277cd6a308bc9f,16.82806156,17.00786116,16.69587406,16.67926128,16.66614035,16.69587406,,,,,,,,,,,,,,,,,,,,PF,weak,3,,,,,,,,7,1.19392,,,,,,,,,,,,,,,,,,,,,,,,,,,,9,weak,35,105,1,0,0,response1disk,2,33,-2,-2,1,0,0,rectangle,-2,-2,1,0,0,5,1,0.000855,-2,-2,1,0,0,0,32,32,157,1,0,,,,,,,,,,,,,,,,,,,,,
,,,,,,,,,,,,,,,,,,,,,,,,,,,,,,,,,,,,,,,,,,5c964f54490924001511b867,60684c5b82b3d59c01f84220,2021-04-03_13h14.06.927,Colour_Similarity_Experiment,2020.2.10,Win32,60,60674ec340277cd6a308bc9f,16.82806156,17.00786116,16.69587406,16.67926128,16.66614035,16.69587406,,,,,,,,,,,,,,,,,,,,PF,weak,3,,,,,,,,7,1.010635,,,,,,,,,,,,,,,,,,,,,,,,,,,,2,weak,41,98,1,0,0,response1disk,8,34,-6,2,1,0,0,rectangle,-6,2,1,0,0,5,0,0.000795,-6,2,1,0,0,0,33,33,52,1,0,,,,,,,,,,,,,,,,,,,,,
,,,,,,,,,,,,,,,,,,,,,,,,,,,,,,,,,,,,,,,,,,5c964f54490924001511b867,60684c5b82b3d59c01f84220,2021-04-03_13h14.06.927,Colour_Similarity_Experiment,2020.2.10,Win32,60,60674ec340277cd6a308bc9f,16.82806156,17.00786116,16.69587406,16.67926128,16.66614035,16.69587406,,,,,,,,,,,,,,,,,,,,PF,weak,3,,,,,,,,1,1.727335,,,,,,,,,,,,,,,,,,,,,,,,,,,,6,weak,-79,39,1,0,0,response7disk,6,35,5,6,1,0,0,rectangle,5,6,1,0,0,5,5,0.00068,5,6,1,0,0,0,34,34,0,1,0,,,,,,,,,,,,,,,,,,,,,
,,,,,,,,,,,,,,,,,,,,,,,,,,,,,,,,,,,,,,,,,,5c964f54490924001511b867,60684c5b82b3d59c01f84220,2021-04-03_13h14.06.927,Colour_Similarity_Experiment,2020.2.10,Win32,60,60674ec340277cd6a308bc9f,16.82806156,17.00786116,16.69587406,16.67926128,16.66614035,16.69587406,,,,,,,,,,,,,,,,,,,,PF,strong,3,,,,,,,,1,1.616735,,,,,,,,,,,,,,,,,,,,,,,,,,,,3,strong,-85,40,1,0,0,response7disk,2,36,-6,0,1,0,0,rectangle,-6,0,1,0,0,5,2,0.00071,-6,0,1,0,0,0,35,35,93,1,0,,,,,,,,,,,,,,,,,,,,,
,,,,,,,,,,,,,,,,,,,,,,,,,,,,,,,,,,,,,,,,,,5c964f54490924001511b867,60684c5b82b3d59c01f84220,2021-04-03_13h14.06.927,Colour_Similarity_Experiment,2020.2.10,Win32,60,60674ec340277cd6a308bc9f,16.82806156,17.00786116,16.69587406,16.67926128,16.66614035,16.69587406,,,,,,,,,,,,,,,,,,,,PF,strong,3,,,,,,,,1,2.53344,,,,,,,,,,,,,,,,,,,,,,,,,,,,4,strong,-115,48,1,0,0,response7disk,2,37,-14,9,1,0,0,rectangle,-14,9,1,0,0,5,6,0.00085,-14,9,1,0,0,0,36,36,13,1,0,,,,,,,,,,,,,,,,,,,,,
,,,,,,,,,,,,,,,,,,,,,,,,,,,,,,,,,,,,,,,,,,5c964f54490924001511b867,60684c5b82b3d59c01f84220,2021-04-03_13h14.06.927,Colour_Similarity_Experiment,2020.2.10,Win32,60,60674ec340277cd6a308bc9f,16.82806156,17.00786116,16.69587406,16.67926128,16.66614035,16.69587406,,,,,,,,,,,,,,,,,,,,PF,strong,3,,,,,,,,6,4.650235,,,,,,,,,,,,,,,,,,,,,,,,,,,,1,strong,103,47,1,0,0,response1disk,3,38,1,7,1,0,0,rectangle,1,7,1,0,0,5,6,0.00016,1,7,1,0,0,0,37,37,99,1,0,,,,,,,,,,,,,,,,,,,,,
,,,,,,,,,,,,,,,,,,,,,,,,,,,,,,,,,,,,,,,,,,5c964f54490924001511b867,60684c5b82b3d59c01f84220,2021-04-03_13h14.06.927,Colour_Similarity_Experiment,2020.2.10,Win32,60,60674ec340277cd6a308bc9f,16.82806156,17.00786116,16.69587406,16.67926128,16.66614035,16.69587406,,,,,,,,,,,,,,,,,,,,PF,strong,3,,,,,,,,6,2.383335,,,,,,,,,,,,,,,,,,,,,,,,,,,,8,strong,81,51,1,0,0,response1disk,1,39,-8,16,1,0,0,rectangle,-8,16,1,0,0,5,4,0.00083,-8,16,1,0,0,0,38,38,20,1,0,,,,,,,,,,,,,,,,,,,,,
,,,,,,,,,,,,,,,,,,,,,,,,,,,,,,,,,,,,,,,,,,5c964f54490924001511b867,60684c5b82b3d59c01f84220,2021-04-03_13h14.06.927,Colour_Similarity_Experiment,2020.2.10,Win32,60,60674ec340277cd6a308bc9f,16.82806156,17.00786116,16.69587406,16.67926128,16.66614035,16.69587406,,,,,,,,,,,,,,,,,,,,PF,weak,3,,,,,,,,7,3.466715,,,,,,,,,,,,,,,,,,,,,,,,,,,,7,weak,43,99,1,0,0,response1disk,7,40,-7,20,1,0,0,rectangle,-7,20,1,0,0,5,6,0.000695,-7,20,1,0,0,0,39,39,51,1,0,,,,,,,,,,,,,,,,,,,,,
,,,,,,,,,,,,,,,,,,,,,,,,,,,,,,,,,,,,,,,,,,5c964f54490924001511b867,60684c5b82b3d59c01f84220,2021-04-03_13h14.06.927,Colour_Similarity_Experiment,2020.2.10,Win32,60,60674ec340277cd6a308bc9f,16.82806156,17.00786116,16.69587406,16.67926128,16.66614035,16.69587406,,,,,,,,,,,,,,,,,,,,PF,weak,3,,,,,,,,7,5.23352,,,,,,,,,,,,,,,,,,,,,,,,,,,,6,weak,29,115,1,0,0,response1disk,1,41,-10,12,1,0,0,rectangle,-10,12,1,0,0,5,4,0.000915,-10,12,1,0,0,0,40,40,46,1,0,,,,,,,,,,,,,,,,,,,,,
,,,,,,,,,,,,,,,,,,,,,,,,,,,,,,,,,,,,,,,,,,5c964f54490924001511b867,60684c5b82b3d59c01f84220,2021-04-03_13h14.06.927,Colour_Similarity_Experiment,2020.2.10,Win32,60,60674ec340277cd6a308bc9f,16.82806156,17.00786116,16.69587406,16.67926128,16.66614035,16.69587406,,,,,,,,,,,,,,,,,,,,PF,strong,3,,,,,,,,1,1.800015,,,,,,,,,,,,,,,,,,,,,,,,,,,,8,strong,-127,59,1,0,0,response7disk,9,42,-4,7,1,0,0,rectangle,-4,7,1,0,0,5,4,0.00012,-4,7,1,0,0,0,41,41,105,1,0,,,,,,,,,,,,,,,,,,,,,
,,,,,,,,,,,,,,,,,,,,,,,,,,,,,,,,,,,,,,,,,,5c964f54490924001511b867,60684c5b82b3d59c01f84220,2021-04-03_13h14.06.927,Colour_Similarity_Experiment,2020.2.10,Win32,60,60674ec340277cd6a308bc9f,16.82806156,17.00786116,16.69587406,16.67926128,16.66614035,16.69587406,,,,,,,,,,,,,,,,,,,,PF,weak,3,,,,,,,,2,2.116565,,,,,,,,,,,,,,,,,,,,,,,,,,,,1,weak,-100,-39,1,0,0,response5disk,9,43,-22,11,1,0,0,rectangle,-22,11,1,0,0,5,0,0.000905,-22,11,1,0,0,0,42,42,15,1,0,,,,,,,,,,,,,,,,,,,,,
,,,,,,,,,,,,,,,,,,,,,,,,,,,,,,,,,,,,,,,,,,5c964f54490924001511b867,60684c5b82b3d59c01f84220,2021-04-03_13h14.06.927,Colour_Similarity_Experiment,2020.2.10,Win32,60,60674ec340277cd6a308bc9f,16.82806156,17.00786116,16.69587406,16.67926128,16.66614035,16.69587406,,,,,,,,,,,,,,,,,,,,PF,weak,3,,,,,,,,0,1.417085,,,,,,,,,,,,,,,,,,,,,,,,,,,,5,weak,-65,101,1,0,0,response7disk,5,44,2,3,1,0,0,rectangle,2,3,1,0,0,5,3,0.00064,2,3,1,0,0,0,43,43,94,1,0,,,,,,,,,,,,,,,,,,,,,
,,,,,,,,,,,,,,,,,,,,,,,,,,,,,,,,,,,,,,,,,,5c964f54490924001511b867,60684c5b82b3d59c01f84220,2021-04-03_13h14.06.927,Colour_Similarity_Experiment,2020.2.10,Win32,60,60674ec340277cd6a308bc9f,16.82806156,17.00786116,16.69587406,16.67926128,16.66614035,16.69587406,,,,,,,,,,,,,,,,,,,,PF,weak,3,,,,,,,,7,1.683345,,,,,,,,,,,,,,,,,,,,,,,,,,,,2,weak,41,111,1,0,0,response1disk,5,45,2,14,1,0,0,rectangle,2,14,1,0,0,5,6,0.00106,2,14,1,0,0,0,44,44,147,1,0,,,,,,,,,,,,,,,,,,,,,
,,,,,,,,,,,,,,,,,,,,,,,,,,,,,,,,,,,,,,,,,,5c964f54490924001511b867,60684c5b82b3d59c01f84220,2021-04-03_13h14.06.927,Colour_Similarity_Experiment,2020.2.10,Win32,60,60674ec340277cd6a308bc9f,16.82806156,17.00786116,16.69587406,16.67926128,16.66614035,16.69587406,,,,,,,,,,,,,,,,,,,,PF,strong,3,,,,,,,,1,1.733255,,,,,,,,,,,,,,,,,,,,,,,,,,,,9,strong,-93,53,1,0,0,response7disk,7,46,-4,7,1,0,0,rectangle,-4,7,1,0,0,5,0,0.00076,-4,7,1,0,0,0,45,45,100,1,0,,,,,,,,,,,,,,,,,,,,,
,,,,,,,,,,,,,,,,,,,,,,,,,,,,,,,,,,,,,,,,,,5c964f54490924001511b867,60684c5b82b3d59c01f84220,2021-04-03_13h14.06.927,Colour_Similarity_Experiment,2020.2.10,Win32,60,60674ec340277cd6a308bc9f,16.82806156,17.00786116,16.69587406,16.67926128,16.66614035,16.69587406,,,,,,,,,,,,,,,,,,,,PF,strong,3,,,,,,,,7,7.851655,,,,,,,,,,,,,,,,,,,,,,,,,,,,1,strong,35,90,1,0,0,response1disk,2,47,6,12,1,0,0,rectangle,6,12,1,0,0,5,7,0.00353,6,12,1,0,0,0,46,46,2,1,0,,,,,,,,,,,,,,,,,,,,,
,,,,,,,,,,,,,,,,,,,,,,,,,,,,,,,,,,,,,,,,,,5c964f54490924001511b867,60684c5b82b3d59c01f84220,2021-04-03_13h14.06.927,Colour_Similarity_Experiment,2020.2.10,Win32,60,60674ec340277cd6a308bc9f,16.82806156,17.00786116,16.69587406,16.67926128,16.66614035,16.69587406,,,,,,,,,,,,,,,,,,,,PF,strong,3,,,,,,,,7,1.54996,,,,,,,,,,,,,,,,,,,,,,,,,,,,9,strong,92,95,1,0,0,response1disk,2,48,-2,3,1,0,0,rectangle,-50,101,1,0,0,0,0,1.95051,0,6,1,0,0,0,47,47,11,1,1,response7disk_3,rectangle,,,,,,,,,,,,,,,,,,,
,,,,,,,,,,,,,,,,,,,,,,,,,,,,,,,,,,,,,,,,,,5c964f54490924001511b867,60684c5b82b3d59c01f84220,2021-04-03_13h14.06.927,Colour_Similarity_Experiment,2020.2.10,Win32,60,60674ec340277cd6a308bc9f,16.82806156,17.00786116,16.69587406,16.67926128,16.66614035,16.69587406,,,,,,,,,,,,,,,,,,,,PF,weak,3,,,,,,,,0,4.13352,,,,,,,,,,,,,,,,,,,,,,,,,,,,8,weak,-42,103,0,0,1,response7disk,5,49,-10,14,1,0,0,rectangle,-10,14,1,0,0,0,3,0.000555,-10,14,1,0,0,0,48,48,98,1,0,,,,,,,,,,,,,,,,,,,,,
,,,,,,,,,,,,,,,,,,,,,,,,,,,,,,,,,,,,,,,,,,5c964f54490924001511b867,60684c5b82b3d59c01f84220,2021-04-03_13h14.06.927,Colour_Similarity_Experiment,2020.2.10,Win32,60,60674ec340277cd6a308bc9f,16.82806156,17.00786116,16.69587406,16.67926128,16.66614035,16.69587406,,,,,,,,,,,,,,,,,,,,PF,weak,3,,,,,,,,7,15.244685,,,,,,,,,,,,,,,,,,,,,,,,,,,,7,weak,38,95,1,0,0,response1disk,9,50,-9,-5,1,0,0,rectangle,-9,-5,1,0,0,0,3,0.00018,-9,-5,1,0,0,0,49,49,10,1,0,,,,,,,,,,,,,,,,,,,,,
,,,,,,,,,,,,,,,,,,,,,,,,,,,,,,,,,,,,,,,,,,5c964f54490924001511b867,60684c5b82b3d59c01f84220,2021-04-03_13h14.06.927,Colour_Similarity_Experiment,2020.2.10,Win32,60,60674ec340277cd6a308bc9f,16.82806156,17.00786116,16.69587406,16.67926128,16.66614035,16.69587406,,,,,,,,,,,,,,,,,,,,PF,strong,3,,,,,,,,0,1.516725,,,,,,,,,,,,,,,,,,,,,,,,,,,,5,strong,-57,113,1,0,0,response7disk,2,51,-10,-9,1,0,0,rectangle,-52,-101,1,0,0,3,3,2.45014,11,2,1,0,0,0,50,50,55,1,1,response5disk_3,rectangle,,,,,,,,,,,,,,,,,,,
,,,,,,,,,,,,,,,,,,,,,,,,,,,,,,,,,,,,,,,,,,5c964f54490924001511b867,60684c5b82b3d59c01f84220,2021-04-03_13h14.06.927,Colour_Similarity_Experiment,2020.2.10,Win32,60,60674ec340277cd6a308bc9f,16.82806156,17.00786116,16.69587406,16.67926128,16.66614035,16.69587406,,,,,,,,,,,,,,,,,,,,PF,strong,3,,,,,,,,0,3.96682,,,,,,,,,,,,,,,,,,,,,,,,,,,,6,strong,-25,112,1,0,0,response7disk,8,52,8,12,1,0,0,rectangle,8,12,1,0,0,3,5,0.000765,8,12,1,0,0,0,51,51,133,1,0,,,,,,,,,,,,,,,,,,,,,
,,,,,,,,,,,,,,,,,,,,,,,,,,,,,,,,,,,,,,,,,,5c964f54490924001511b867,60684c5b82b3d59c01f84220,2021-04-03_13h14.06.927,Colour_Similarity_Experiment,2020.2.10,Win32,60,60674ec340277cd6a308bc9f,16.82806156,17.00786116,16.69587406,16.67926128,16.66614035,16.69587406,,,,,,,,,,,,,,,,,,,,PF,weak,3,,,,,,,,7,1.514,,,,,,,,,,,,,,,,,,,,,,,,,,,,5,weak,52,107,1,0,0,response1disk,1,53,6,0,1,0,0,rectangle,-89,44,1,0,0,1,1,1.766495,1,-8,1,0,0,0,52,52,159,1,1,response7disk_3,rectangle,,,,,,,,,,,,,,,,,,,
,,,,,,,,,,,,,,,,,,,,,,,,,,,,,,,,,,,,,,,,,,5c964f54490924001511b867,60684c5b82b3d59c01f84220,2021-04-03_13h14.06.927,Colour_Similarity_Experiment,2020.2.10,Win32,60,60674ec340277cd6a308bc9f,16.82806156,17.00786116,16.69587406,16.67926128,16.66614035,16.69587406,,,,,,,,,,,,,,,,,,,,PF,strong,3,,,,,,,,0,1.7667,,,,,,,,,,,,,,,,,,,,,,,,,,,,8,strong,-48,115,1,0,0,response7disk,4,54,6,3,1,0,0,rectangle,6,3,1,0,0,1,6,0.000915,6,3,1,0,0,0,53,53,88,1,0,,,,,,,,,,,,,,,,,,,,,
,,,,,,,,,,,,,,,,,,,,,,,,,,,,,,,,,,,,,,,,,,5c964f54490924001511b867,60684c5b82b3d59c01f84220,2021-04-03_13h14.06.927,Colour_Similarity_Experiment,2020.2.10,Win32,60,60674ec340277cd6a308bc9f,16.82806156,17.00786116,16.69587406,16.67926128,16.66614035,16.69587406,,,,,,,,,,,,,,,,,,,,PF,strong,3,,,,,,,,7,0.999905,,,,,,,,,,,,,,,,,,,,,,,,,,,,5,strong,47,116,1,0,0,response1disk,1,55,5,7,1,0,0,rectangle,5,7,1,0,0,1,2,0.000745,5,7,1,0,0,0,54,54,131,1,0,,,,,,,,,,,,,,,,,,,,,
,,,,,,,,,,,,,,,,,,,,,,,,,,,,,,,,,,,,,,,,,,5c964f54490924001511b867,60684c5b82b3d59c01f84220,2021-04-03_13h14.06.927,Colour_Similarity_Experiment,2020.2.10,Win32,60,60674ec340277cd6a308bc9f,16.82806156,17.00786116,16.69587406,16.67926128,16.66614035,16.69587406,,,,,,,,,,,,,,,,,,,,PF,weak,3,,,,,,,,2,1.183275,,,,,,,,,,,,,,,,,,,,,,,,,,,,7,weak,-74,-30,1,0,0,response5disk,6,56,-14,-1,1,0,0,rectangle,-14,-1,1,0,0,1,3,0.00064,-14,-1,1,0,0,0,55,55,29,1,0,,,,,,,,,,,,,,,,,,,,,
,,,,,,,,,,,,,,,,,,,,,,,,,,,,,,,,,,,,,,,,,,5c964f54490924001511b867,60684c5b82b3d59c01f84220,2021-04-03_13h14.06.927,Colour_Similarity_Experiment,2020.2.10,Win32,60,60674ec340277cd6a308bc9f,16.82806156,17.00786116,16.69587406,16.67926128,16.66614035,16.69587406,,,,,,,,,,,,,,,,,,,,PF,strong,3,,,,,,,,1,1.183315,,,,,,,,,,,,,,,,,,,,,,,,,,,,3,strong,-127,37,1,0,0,response7disk,5,57,-21,10,1,0,0,rectangle,-21,10,1,0,0,1,6,0.00095,-21,10,1,0,0,0,56,56,101,1,0,,,,,,,,,,,,,,,,,,,,,
,,,,,,,,,,,,,,,,,,,,,,,,,,,,,,,,,,,,,,,,,,5c964f54490924001511b867,60684c5b82b3d59c01f84220,2021-04-03_13h14.06.927,Colour_Similarity_Experiment,2020.2.10,Win32,60,60674ec340277cd6a308bc9f,16.82806156,17.00786116,16.69587406,16.67926128,16.66614035,16.69587406,,,,,,,,,,,,,,,,,,,,PF,strong,3,,,,,,,,1,9.95041,,,,,,,,,,,,,,,,,,,,,,,,,,,,2,strong,-110,59,1,0,0,response7disk,8,58,-25,-3,1,0,0,rectangle,-25,-3,1,0,0,1,0,0.00075,-25,-3,1,0,0,0,57,57,62,1,0,,,,,,,,,,,,,,,,,,,,,
,,,,,,,,,,,,,,,,,,,,,,,,,,,,,,,,,,,,,,,,,,5c964f54490924001511b867,60684c5b82b3d59c01f84220,2021-04-03_13h14.06.927,Colour_Similarity_Experiment,2020.2.10,Win32,60,60674ec340277cd6a308bc9f,16.82806156,17.00786116,16.69587406,16.67926128,16.66614035,16.69587406,,,,,,,,,,,,,,,,,,,,PF,weak,3,,,,,,,,6,1.233335,,,,,,,,,,,,,,,,,,,,,,,,,,,,3,weak,110,64,1,0,0,response1disk,6,59,-10,-4,1,0,0,rectangle,-10,-4,1,0,0,1,4,0.00077,-10,-4,1,0,0,0,58,58,47,1,0,,,,,,,,,,,,,,,,,,,,,
,,,,,,,,,,,,,,,,,,,,,,,,,,,,,,,,,,,,,,,,,,5c964f54490924001511b867,60684c5b82b3d59c01f84220,2021-04-03_13h14.06.927,Colour_Similarity_Experiment,2020.2.10,Win32,60,60674ec340277cd6a308bc9f,16.82806156,17.00786116,16.69587406,16.67926128,16.66614035,16.69587406,,,,,,,,,,,,,,,,,,,,PF,strong,3,,,,,,,,7,6.13339,,,,,,,,,,,,,,,,,,,,,,,,,,,,4,strong,52,111,1,0,0,response1disk,1,60,-8,11,1,0,0,rectangle,-8,11,1,0,0,1,3,0.000765,-8,11,1,0,0,0,59,59,102,1,0,,,,,,,,,,,,,,,,,,,,,
,,,,,,,,,,,,,,,,,,,,,,,,,,,,,,,,,,,,,,,,,,5c964f54490924001511b867,60684c5b82b3d59c01f84220,2021-04-03_13h14.06.927,Colour_Similarity_Experiment,2020.2.10,Win32,60,60674ec340277cd6a308bc9f,16.82806156,17.00786116,16.69587406,16.67926128,16.66614035,16.69587406,,,,,,,,,,,,,,,,,,,,PF,strong,3,,,,,,,,7,8.80032,,,,,,,,,,,,,,,,,,,,,,,,,,,,9,strong,51,87,1,0,0,response1disk,5,61,-8,-1,1,0,0,rectangle,-8,-1,1,0,0,1,3,0.000165,-8,-1,1,0,0,0,60,60,128,1,0,,,,,,,,,,,,,,,,,,,,,
,,,,,,,,,,,,,,,,,,,,,,,,,,,,,,,,,,,,,,,,,,5c964f54490924001511b867,60684c5b82b3d59c01f84220,2021-04-03_13h14.06.927,Colour_Similarity_Experiment,2020.2.10,Win32,60,60674ec340277cd6a308bc9f,16.82806156,17.00786116,16.69587406,16.67926128,16.66614035,16.69587406,,,,,,,,,,,,,,,,,,,,PF,weak,3,,,,,,,,0,1.69995,,,,,,,,,,,,,,,,,,,,,,,,,,,,3,weak,-51,104,1,0,0,response7disk,5,62,1,11,1,0,0,rectangle,1,11,1,0,0,1,5,0.00075,1,11,1,0,0,0,61,61,66,1,0,,,,,,,,,,,,,,,,,,,,,
,,,,,,,,,,,,,,,,,,,,,,,,,,,,,,,,,,,,,,,,,,5c964f54490924001511b867,60684c5b82b3d59c01f84220,2021-04-03_13h14.06.927,Colour_Similarity_Experiment,2020.2.10,Win32,60,60674ec340277cd6a308bc9f,16.82806156,17.00786116,16.69587406,16.67926128,16.66614035,16.69587406,,,,,,,,,,,,,,,,,,,,PF,weak,3,,,,,,,,0,0.783335,,,,,,,,,,,,,,,,,,,,,,,,,,,,4,weak,-52,89,1,0,0,response7disk,4,63,2,-6,1,0,0,rectangle,2,-6,1,0,0,1,3,0.000725,2,-6,1,0,0,0,62,62,70,1,0,,,,,,,,,,,,,,,,,,,,,
,,,,,,,,,,,,,,,,,,,,,,,,,,,,,,,,,,,,,,,,,,5c964f54490924001511b867,60684c5b82b3d59c01f84220,2021-04-03_13h14.06.927,Colour_Similarity_Experiment,2020.2.10,Win32,60,60674ec340277cd6a308bc9f,16.82806156,17.00786116,16.69587406,16.67926128,16.66614035,16.69587406,,,,,,,,,,,,,,,,,,,,PF,weak,3,,,,,,,,6,1.433315,,,,,,,,,,,,,,,,,,,,,,,,,,,,3,weak,91,47,1,0,0,response1disk,8,64,-2,-1,1,0,0,rectangle,-2,-1,1,0,0,1,6,0.00082,-2,-1,1,0,0,0,63,63,3,1,0,,,,,,,,,,,,,,,,,,,,,
,,,,,,,,,,,,,,,,,,,,,,,,,,,,,,,,,,,,,,,,,,5c964f54490924001511b867,60684c5b82b3d59c01f84220,2021-04-03_13h14.06.927,Colour_Similarity_Experiment,2020.2.10,Win32,60,60674ec340277cd6a308bc9f,16.82806156,17.00786116,16.69587406,16.67926128,16.66614035,16.69587406,,,,,,,,,,,,,,,,,,,,PF,strong,3,,,,,,,,6,1.68331,,,,,,,,,,,,,,,,,,,,,,,,,,,,8,strong,83,41,1,0,0,response1disk,2,65,-2,3,1,0,0,rectangle,-2,3,1,0,0,1,1,0.00089,-2,3,1,0,0,0,64,64,22,1,0,,,,,,,,,,,,,,,,,,,,,
,,,,,,,,,,,,,,,,,,,,,,,,,,,,,,,,,,,,,,,,,,5c964f54490924001511b867,60684c5b82b3d59c01f84220,2021-04-03_13h14.06.927,Colour_Similarity_Experiment,2020.2.10,Win32,60,60674ec340277cd6a308bc9f,16.82806156,17.00786116,16.69587406,16.67926128,16.66614035,16.69587406,,,,,,,,,,,,,,,,,,,,PF,weak,3,,,,,,,,5,1.283165,,,,,,,,,,,,,,,,,,,,,,,,,,,,8,weak,112,-40,1,0,0,response3disk,1,66,7,7,1,0,0,rectangle,7,7,1,0,0,1,2,0.00091,7,7,1,0,0,0,65,65,57,1,0,,,,,,,,,,,,,,,,,,,,,
,,,,,,,,,,,,,,,,,,,,,,,,,,,,,,,,,,,,,,,,,,5c964f54490924001511b867,60684c5b82b3d59c01f84220,2021-04-03_13h14.06.927,Colour_Similarity_Experiment,2020.2.10,Win32,60,60674ec340277cd6a308bc9f,16.82806156,17.00786116,16.69587406,16.67926128,16.66614035,16.69587406,,,,,,,,,,,,,,,,,,,,PF,weak,3,,,,,,,,1,1.216695,,,,,,,,,,,,,,,,,,,,,,,,,,,,5,weak,-90,65,1,0,0,response7disk,4,67,6,9,1,0,0,rectangle,6,9,1,0,0,1,6,0.00098,6,9,1,0,0,0,66,66,54,1,0,,,,,,,,,,,,,,,,,,,,,
,,,,,,,,,,,,,,,,,,,,,,,,,,,,,,,,,,,,,,,,,,5c964f54490924001511b867,60684c5b82b3d59c01f84220,2021-04-03_13h14.06.927,Colour_Similarity_Experiment,2020.2.10,Win32,60,60674ec340277cd6a308bc9f,16.82806156,17.00786116,16.69587406,16.67926128,16.66614035,16.69587406,,,,,,,,,,,,,,,,,,,,PF,strong,3,,,,,,,,2,6.56699,,,,,,,,,,,,,,,,,,,,,,,,,,,,6,strong,-95,-41,1,0,0,response5disk,6,68,-12,-2,1,0,0,rectangle,-12,-2,1,0,0,1,6,0.00012,-12,-2,1,0,0,0,67,67,91,1,0,,,,,,,,,,,,,,,,,,,,,
,,,,,,,,,,,,,,,,,,,,,,,,,,,,,,,,,,,,,,,,,,5c964f54490924001511b867,60684c5b82b3d59c01f84220,2021-04-03_13h14.06.927,Colour_Similarity_Experiment,2020.2.10,Win32,60,60674ec340277cd6a308bc9f,16.82806156,17.00786116,16.69587406,16.67926128,16.66614035,16.69587406,,,,,,,,,,,,,,,,,,,,PF,weak,3,,,,,,,,1,2.300065,,,,,,,,,,,,,,,,,,,,,,,,,,,,4,weak,-97,75,1,0,0,response7disk,8,69,6,0,1,0,0,rectangle,6,0,1,0,0,1,4,0.00093,6,0,1,0,0,0,68,68,124,1,0,,,,,,,,,,,,,,,,,,,,,
,,,,,,,,,,,,,,,,,,,,,,,,,,,,,,,,,,,,,,,,,,5c964f54490924001511b867,60684c5b82b3d59c01f84220,2021-04-03_13h14.06.927,Colour_Similarity_Experiment,2020.2.10,Win32,60,60674ec340277cd6a308bc9f,16.82806156,17.00786116,16.69587406,16.67926128,16.66614035,16.69587406,,,,,,,,,,,,,,,,,,,,PF,weak,3,,,,,,,,2,2.034125,,,,,,,,,,,,,,,,,,,,,,,,,,,,6,weak,-106,-38,1,0,0,response5disk,7,70,-5,13,1,0,0,rectangle,-5,13,1,0,0,1,7,0.000775,-5,13,1,0,0,0,69,69,50,1,0,,,,,,,,,,,,,,,,,,,,,
,,,,,,,,,,,,,,,,,,,,,,,,,,,,,,,,,,,,,,,,,,5c964f54490924001511b867,60684c5b82b3d59c01f84220,2021-04-03_13h14.06.927,Colour_Similarity_Experiment,2020.2.10,Win32,60,60674ec340277cd6a308bc9f,16.82806156,17.00786116,16.69587406,16.67926128,16.66614035,16.69587406,,,,,,,,,,,,,,,,,,,,PF,weak,3,,,,,,,,7,3.516635,,,,,,,,,,,,,,,,,,,,,,,,,,,,1,weak,49,127,1,0,0,response1disk,4,71,0,1,1,0,0,rectangle,0,1,1,0,0,1,2,0.000785,0,1,1,0,0,0,70,70,139,1,0,,,,,,,,,,,,,,,,,,,,,
,,,,,,,,,,,,,,,,,,,,,,,,,,,,,,,,,,,,,,,,,,5c964f54490924001511b867,60684c5b82b3d59c01f84220,2021-04-03_13h14.06.927,Colour_Similarity_Experiment,2020.2.10,Win32,60,60674ec340277cd6a308bc9f,16.82806156,17.00786116,16.69587406,16.67926128,16.66614035,16.69587406,,,,,,,,,,,,,,,,,,,,PF,weak,3,,,,,,,,4,10.63352,,,,,,,,,,,,,,,,,,,,,,,,,,,,4,weak,55,-90,1,0,0,response3disk,9,72,2,0,1,0,0,rectangle,2,0,1,0,0,1,6,0.00087,2,0,1,0,0,0,71,71,75,1,0,,,,,,,,,,,,,,,,,,,,,
,,,,,,,,,,,,,,,,,,,,,,,,,,,,,,,,,,,,,,,,,,5c964f54490924001511b867,60684c5b82b3d59c01f84220,2021-04-03_13h14.06.927,Colour_Similarity_Experiment,2020.2.10,Win32,60,60674ec340277cd6a308bc9f,16.82806156,17.00786116,16.69587406,16.67926128,16.66614035,16.69587406,,,,,,,,,,,,,,,,,,,,PF,strong,3,,,,,,,,7,6.833595,,,,,,,,,,,,,,,,,,,,,,,,,,,,6,strong,58,105,1,0,0,response1disk,1,73,12,2,1,0,0,rectangle,12,2,1,0,0,1,2,0.000725,12,2,1,0,0,0,72,72,5,1,0,,,,,,,,,,,,,,,,,,,,,
,,,,,,,,,,,,,,,,,,,,,,,,,,,,,,,,,,,,,,,,,,5c964f54490924001511b867,60684c5b82b3d59c01f84220,2021-04-03_13h14.06.927,Colour_Similarity_Experiment,2020.2.10,Win32,60,60674ec340277cd6a308bc9f,16.82806156,17.00786116,16.69587406,16.67926128,16.66614035,16.69587406,,,,,,,,,,,,,,,,,,,,PF,weak,3,,,,,,,,6,1.10009,,,,,,,,,,,,,,,,,,,,,,,,,,,,7,weak,92,52,1,0,0,response1disk,2,74,15,6,1,0,0,rectangle,15,6,1,0,0,1,1,0.00077,15,6,1,0,0,0,73,73,32,1,0,,,,,,,,,,,,,,,,,,,,,
,,,,,,,,,,,,,,,,,,,,,,,,,,,,,,,,,,,,,,,,,,5c964f54490924001511b867,60684c5b82b3d59c01f84220,2021-04-03_13h14.06.927,Colour_Similarity_Experiment,2020.2.10,Win32,60,60674ec340277cd6a308bc9f,16.82806156,17.00786116,16.69587406,16.67926128,16.66614035,16.69587406,,,,,,,,,,,,,,,,,,,,PF,weak,3,,,,,,,,1,0.90022,,,,,,,,,,,,,,,,,,,,,,,,,,,,4,weak,-85,44,1,0,0,response7disk,3,75,6,-6,1,0,0,rectangle,6,-6,1,0,0,1,1,0.000165,6,-6,1,0,0,0,74,74,89,1,0,,,,,,,,,,,,,,,,,,,,,
,,,,,,,,,,,,,,,,,,,,,,,,,,,,,,,,,,,,,,,,,,5c964f54490924001511b867,60684c5b82b3d59c01f84220,2021-04-03_13h14.06.927,Colour_Similarity_Experiment,2020.2.10,Win32,60,60674ec340277cd6a308bc9f,16.82806156,17.00786116,16.69587406,16.67926128,16.66614035,16.69587406,,,,,,,,,,,,,,,,,,,,PF,weak,3,,,,,,,,6,1.39982,,,,,,,,,,,,,,,,,,,,,,,,,,,,5,weak,103,55,1,0,0,response1disk,8,76,-4,-1,1,0,0,rectangle,-4,-1,1,0,0,1,1,0.00018,-4,-1,1,0,0,0,75,75,149,1,0,,,,,,,,,,,,,,,,,,,,,
,,,,,,,,,,,,,,,,,,,,,,,,,,,,,,,,,,,,,,,,,,5c964f54490924001511b867,60684c5b82b3d59c01f84220,2021-04-03_13h14.06.927,Colour_Similarity_Experiment,2020.2.10,Win32,60,60674ec340277cd6a308bc9f,16.82806156,17.00786116,16.69587406,16.67926128,16.66614035,16.69587406,,,,,,,,,,,,,,,,,,,,PF,weak,3,,,,,,,,6,1.116545,,,,,,,,,,,,,,,,,,,,,,,,,,,,4,weak,70,42,1,0,0,response1disk,6,77,-1,1,1,0,0,rectangle,-1,1,1,0,0,1,4,0.000855,-1,1,1,0,0,0,76,76,120,1,0,,,,,,,,,,,,,,,,,,,,,
,,,,,,,,,,,,,,,,,,,,,,,,,,,,,,,,,,,,,,,,,,5c964f54490924001511b867,60684c5b82b3d59c01f84220,2021-04-03_13h14.06.927,Colour_Similarity_Experiment,2020.2.10,Win32,60,60674ec340277cd6a308bc9f,16.82806156,17.00786116,16.69587406,16.67926128,16.66614035,16.69587406,,,,,,,,,,,,,,,,,,,,PF,strong,3,,,,,,,,2,1.616705,,,,,,,,,,,,,,,,,,,,,,,,,,,,9,strong,-74,-47,1,0,0,response5disk,3,78,10,-3,1,0,0,rectangle,10,-3,1,0,0,1,2,0.00087,10,-3,1,0,0,0,77,77,141,1,0,,,,,,,,,,,,,,,,,,,,,
,,,,,,,,,,,,,,,,,,,,,,,,,,,,,,,,,,,,,,,,,,5c964f54490924001511b867,60684c5b82b3d59c01f84220,2021-04-03_13h14.06.927,Colour_Similarity_Experiment,2020.2.10,Win32,60,60674ec340277cd6a308bc9f,16.82806156,17.00786116,16.69587406,16.67926128,16.66614035,16.69587406,,,,,,,,,,,,,,,,,,,,PF,strong,3,,,,,,,,1,11.10033,,,,,,,,,,,,,,,,,,,,,,,,,,,,7,strong,-92,45,1,0,0,response7disk,6,79,-7,-1,1,0,0,rectangle,-7,-1,1,0,0,1,3,0.0007,-7,-1,1,0,0,0,78,78,31,1,0,,,,,,,,,,,,,,,,,,,,,
,,,,,,,,,,,,,,,,,,,,,,,,,,,,,,,,,,,,,,,,,,5c964f54490924001511b867,60684c5b82b3d59c01f84220,2021-04-03_13h14.06.927,Colour_Similarity_Experiment,2020.2.10,Win32,60,60674ec340277cd6a308bc9f,16.82806156,17.00786116,16.69587406,16.67926128,16.66614035,16.69587406,,,,,,,,,,,,,,,,,,,,PF,strong,3,,,,,,,,1,1.633045,,,,,,,,,,,,,,,,,,,,,,,,,,,,5,strong,-91,46,1,0,0,response7disk,6,80,-2,8,1,0,0,rectangle,-2,8,1,0,0,1,1,0.0009,-2,8,1,0,0,0,79,79,12,1,0,,,,,,,,,,,,,,,,,,,,,
,,,,,,,,,,,,,,,,,,,,,,,,,,,,,,,,,,,,,,,,,,5c964f54490924001511b867,60684c5b82b3d59c01f84220,2021-04-03_13h14.06.927,Colour_Similarity_Experiment,2020.2.10,Win32,60,60674ec340277cd6a308bc9f,16.82806156,17.00786116,16.69587406,16.67926128,16.66614035,16.69587406,,,,,,,,,,,,,,,,,,,,PF,weak,3,,,,,,,,1,8.300345,,,,,,,,,,,,,,,,,,,,,,,,,,,,2,weak,-85,39,1,0,0,response7disk,4,81,-9,13,1,0,0,rectangle,-9,13,1,0,0,1,1,0.00016,-9,13,1,0,0,0,80,80,127,1,0,,,,,,,,,,,,,,,,,,,,,
,,,,,,,,,,,,,,,,,,,,,,,,,,,,,,,,,,,,,,,,,,5c964f54490924001511b867,60684c5b82b3d59c01f84220,2021-04-03_13h14.06.927,Colour_Similarity_Experiment,2020.2.10,Win32,60,60674ec340277cd6a308bc9f,16.82806156,17.00786116,16.69587406,16.67926128,16.66614035,16.69587406,,,,,,,,,,,,,,,,,,,,PF,weak,3,,,,,,,,3,2.116695,,,,,,,,,,,,,,,,,,,,,,,,,,,,9,weak,-35,-111,1,0,0,response5disk,5,82,-2,-7,1,0,0,rectangle,-2,-7,1,0,0,1,6,0.000875,-2,-7,1,0,0,0,81,81,134,1,0,,,,,,,,,,,,,,,,,,,,,
,,,,,,,,,,,,,,,,,,,,,,,,,,,,,,,,,,,,,,,,,,5c964f54490924001511b867,60684c5b82b3d59c01f84220,2021-04-03_13h14.06.927,Colour_Similarity_Experiment,2020.2.10,Win32,60,60674ec340277cd6a308bc9f,16.82806156,17.00786116,16.69587406,16.67926128,16.66614035,16.69587406,,,,,,,,,,,,,,,,,,,,PF,strong,3,,,,,,,,6,2.533625,,,,,,,,,,,,,,,,,,,,,,,,,,,,4,strong,89,66,1,0,0,response1disk,6,83,28,10,1,0,0,rectangle,28,10,1,0,0,1,3,0.00067,28,10,1,0,0,0,82,82,122,1,0,,,,,,,,,,,,,,,,,,,,,
,,,,,,,,,,,,,,,,,,,,,,,,,,,,,,,,,,,,,,,,,,5c964f54490924001511b867,60684c5b82b3d59c01f84220,2021-04-03_13h14.06.927,Colour_Similarity_Experiment,2020.2.10,Win32,60,60674ec340277cd6a308bc9f,16.82806156,17.00786116,16.69587406,16.67926128,16.66614035,16.69587406,,,,,,,,,,,,,,,,,,,,PF,strong,3,,,,,,,,2,1.197665,,,,,,,,,,,,,,,,,,,,,,,,,,,,7,strong,-72,-26,1,0,0,response5disk,3,84,-13,3,1,0,0,rectangle,-13,3,1,0,0,1,1,0.001085,-13,3,1,0,0,0,83,83,73,1,0,,,,,,,,,,,,,,,,,,,,,
,,,,,,,,,,,,,,,,,,,,,,,,,,,,,,,,,,,,,,,,,,5c964f54490924001511b867,60684c5b82b3d59c01f84220,2021-04-03_13h14.06.927,Colour_Similarity_Experiment,2020.2.10,Win32,60,60674ec340277cd6a308bc9f,16.82806156,17.00786116,16.69587406,16.67926128,16.66614035,16.69587406,,,,,,,,,,,,,,,,,,,,PF,weak,3,,,,,,,,0,1.283535,,,,,,,,,,,,,,,,,,,,,,,,,,,,9,weak,-53,98,1,0,0,response7disk,8,85,-5,20,1,0,0,rectangle,-5,20,1,0,0,1,4,0.00084,-5,20,1,0,0,0,84,84,67,1,0,,,,,,,,,,,,,,,,,,,,,
,,,,,,,,,,,,,,,,,,,,,,,,,,,,,,,,,,,,,,,,,,5c964f54490924001511b867,60684c5b82b3d59c01f84220,2021-04-03_13h14.06.927,Colour_Similarity_Experiment,2020.2.10,Win32,60,60674ec340277cd6a308bc9f,16.82806156,17.00786116,16.69587406,16.67926128,16.66614035,16.69587406,,,,,,,,,,,,,,,,,,,,PF,strong,3,,,,,,,,1,1.316615,,,,,,,,,,,,,,,,,,,,,,,,,,,,3,strong,-81,52,1,0,0,response7disk,3,86,1,-3,1,0,0,rectangle,1,-3,1,0,0,1,4,0.00012,1,-3,1,0,0,0,85,85,68,1,0,,,,,,,,,,,,,,,,,,,,,
,,,,,,,,,,,,,,,,,,,,,,,,,,,,,,,,,,,,,,,,,,5c964f54490924001511b867,60684c5b82b3d59c01f84220,2021-04-03_13h14.06.927,Colour_Similarity_Experiment,2020.2.10,Win32,60,60674ec340277cd6a308bc9f,16.82806156,17.00786116,16.69587406,16.67926128,16.66614035,16.69587406,,,,,,,,,,,,,,,,,,,,PF,weak,3,,,,,,,,6,1.01658,,,,,,,,,,,,,,,,,,,,,,,,,,,,8,weak,79,61,1,0,0,response1disk,6,87,11,7,1,0,0,rectangle,-58,118,1,0,0,0,0,1.450585,7,4,1,0,0,0,86,86,161,1,1,response7disk_3,rectangle,,,,,,,,,,,,,,,,,,,
,,,,,,,,,,,,,,,,,,,,,,,,,,,,,,,,,,,,,,,,,,5c964f54490924001511b867,60684c5b82b3d59c01f84220,2021-04-03_13h14.06.927,Colour_Similarity_Experiment,2020.2.10,Win32,60,60674ec340277cd6a308bc9f,16.82806156,17.00786116,16.69587406,16.67926128,16.66614035,16.69587406,,,,,,,,,,,,,,,,,,,,PF,weak,3,,,,,,,,7,1.53328,,,,,,,,,,,,,,,,,,,,,,,,,,,,9,weak,51,134,1,0,0,response1disk,3,88,9,13,1,0,0,rectangle,9,13,1,0,0,0,7,0.000815,9,13,1,0,0,0,87,87,119,1,0,,,,,,,,,,,,,,,,,,,,,
,,,,,,,,,,,,,,,,,,,,,,,,,,,,,,,,,,,,,,,,,,5c964f54490924001511b867,60684c5b82b3d59c01f84220,2021-04-03_13h14.06.927,Colour_Similarity_Experiment,2020.2.10,Win32,60,60674ec340277cd6a308bc9f,16.82806156,17.00786116,16.69587406,16.67926128,16.66614035,16.69587406,,,,,,,,,,,,,,,,,,,,PF,strong,3,,,,,,,,0,1.29995,,,,,,,,,,,,,,,,,,,,,,,,,,,,6,strong,-52,92,1,0,0,response7disk,3,89,0,10,1,0,0,rectangle,0,10,1,0,0,0,1,0.000625,0,10,1,0,0,0,88,88,21,1,0,,,,,,,,,,,,,,,,,,,,,
,,,,,,,,,,,,,,,,,,,,,,,,,,,,,,,,,,,,,,,,,,5c964f54490924001511b867,60684c5b82b3d59c01f84220,2021-04-03_13h14.06.927,Colour_Similarity_Experiment,2020.2.10,Win32,60,60674ec340277cd6a308bc9f,16.82806156,17.00786116,16.69587406,16.67926128,16.66614035,16.69587406,,,,,,,,,,,,,,,,,,,,PF,weak,3,,,,,,,,1,1.316675,,,,,,,,,,,,,,,,,,,,,,,,,,,,5,weak,-74,36,1,0,0,response7disk,3,90,0,-20,1,0,0,rectangle,0,-20,1,0,0,0,3,0.00085,0,-20,1,0,0,0,89,89,109,1,0,,,,,,,,,,,,,,,,,,,,,
,,,,,,,,,,,,,,,,,,,,,,,,,,,,,,,,,,,,,,,,,,5c964f54490924001511b867,60684c5b82b3d59c01f84220,2021-04-03_13h14.06.927,Colour_Similarity_Experiment,2020.2.10,Win32,60,60674ec340277cd6a308bc9f,16.82806156,17.00786116,16.69587406,16.67926128,16.66614035,16.69587406,,,,,,,,,,,,,,,,,,,,PF,weak,3,,,,,,,,7,0.93343,,,,,,,,,,,,,,,,,,,,,,,,,,,,3,weak,37,103,1,0,0,response1disk,7,91,3,-15,1,0,0,rectangle,3,-15,1,0,0,0,4,0.000645,3,-15,1,0,0,0,90,90,41,1,0,,,,,,,,,,,,,,,,,,,,,
,,,,,,,,,,,,,,,,,,,,,,,,,,,,,,,,,,,,,,,,,,5c964f54490924001511b867,60684c5b82b3d59c01f84220,2021-04-03_13h14.06.927,Colour_Similarity_Experiment,2020.2.10,Win32,60,60674ec340277cd6a308bc9f,16.82806156,17.00786116,16.69587406,16.67926128,16.66614035,16.69587406,,,,,,,,,,,,,,,,,,,,PF,weak,3,,,,,,,,2,2.116705,,,,,,,,,,,,,,,,,,,,,,,,,,,,7,weak,-121,-41,1,0,0,response5disk,8,92,-12,6,1,0,0,rectangle,-12,6,1,0,0,0,6,0.000685,-12,6,1,0,0,0,91,91,140,1,0,,,,,,,,,,,,,,,,,,,,,
,,,,,,,,,,,,,,,,,,,,,,,,,,,,,,,,,,,,,,,,,,5c964f54490924001511b867,60684c5b82b3d59c01f84220,2021-04-03_13h14.06.927,Colour_Similarity_Experiment,2020.2.10,Win32,60,60674ec340277cd6a308bc9f,16.82806156,17.00786116,16.69587406,16.67926128,16.66614035,16.69587406,,,,,,,,,,,,,,,,,,,,PF,weak,3,,,,,,,,6,1.650185,,,,,,,,,,,,,,,,,,,,,,,,,,,,9,weak,89,86,1,0,0,response1disk,4,93,5,2,1,0,0,rectangle,5,2,1,0,0,0,3,0.000725,5,2,1,0,0,0,92,92,114,1,0,,,,,,,,,,,,,,,,,,,,,
,,,,,,,,,,,,,,,,,,,,,,,,,,,,,,,,,,,,,,,,,,5c964f54490924001511b867,60684c5b82b3d59c01f84220,2021-04-03_13h14.06.927,Colour_Similarity_Experiment,2020.2.10,Win32,60,60674ec340277cd6a308bc9f,16.82806156,17.00786116,16.69587406,16.67926128,16.66614035,16.69587406,,,,,,,,,,,,,,,,,,,,PF,weak,3,,,,,,,,1,1.33335,,,,,,,,,,,,,,,,,,,,,,,,,,,,8,weak,-78,41,1,0,0,response7disk,9,94,6,8,1,0,0,rectangle,6,8,1,0,0,0,4,0.00091,6,8,1,0,0,0,93,93,42,1,0,,,,,,,,,,,,,,,,,,,,,
,,,,,,,,,,,,,,,,,,,,,,,,,,,,,,,,,,,,,,,,,,5c964f54490924001511b867,60684c5b82b3d59c01f84220,2021-04-03_13h14.06.927,Colour_Similarity_Experiment,2020.2.10,Win32,60,60674ec340277cd6a308bc9f,16.82806156,17.00786116,16.69587406,16.67926128,16.66614035,16.69587406,,,,,,,,,,,,,,,,,,,,PF,strong,3,,,,,,,,6,3.650045,,,,,,,,,,,,,,,,,,,,,,,,,,,,4,strong,105,24,1,0,0,response1disk,5,95,31,-4,1,0,0,rectangle,31,-4,1,0,0,0,7,0.0006,31,-4,1,0,0,0,94,94,116,1,0,,,,,,,,,,,,,,,,,,,,,
,,,,,,,,,,,,,,,,,,,,,,,,,,,,,,,,,,,,,,,,,,5c964f54490924001511b867,60684c5b82b3d59c01f84220,2021-04-03_13h14.06.927,Colour_Similarity_Experiment,2020.2.10,Win32,60,60674ec340277cd6a308bc9f,16.82806156,17.00786116,16.69587406,16.67926128,16.66614035,16.69587406,,,,,,,,,,,,,,,,,,,,PF,strong,3,,,,,,,,5,1.248975,,,,,,,,,,,,,,,,,,,,,,,,,,,,1,strong,70,-42,1,0,0,response3disk,6,96,8,-12,1,0,0,rectangle,8,-12,1,0,0,0,1,0.00092,8,-12,1,0,0,0,95,95,58,1,0,,,,,,,,,,,,,,,,,,,,,
,,,,,,,,,,,,,,,,,,,,,,,,,,,,,,,,,,,,,,,,,,5c964f54490924001511b867,60684c5b82b3d59c01f84220,2021-04-03_13h14.06.927,Colour_Similarity_Experiment,2020.2.10,Win32,60,60674ec340277cd6a308bc9f,16.82806156,17.00786116,16.69587406,16.67926128,16.66614035,16.69587406,,,,,,,,,,,,,,,,,,,,PF,strong,3,,,,,,,,0,2.06674,,,,,,,,,,,,,,,,,,,,,,,,,,,,4,strong,-49,106,1,0,0,response7disk,8,97,-6,2,1,0,0,rectangle,-6,2,1,0,0,0,0,0.0009,-6,2,1,0,0,0,96,96,35,1,0,,,,,,,,,,,,,,,,,,,,,
,,,,,,,,,,,,,,,,,,,,,,,,,,,,,,,,,,,,,,,,,,5c964f54490924001511b867,60684c5b82b3d59c01f84220,2021-04-03_13h14.06.927,Colour_Similarity_Experiment,2020.2.10,Win32,60,60674ec340277cd6a308bc9f,16.82806156,17.00786116,16.69587406,16.67926128,16.66614035,16.69587406,,,,,,,,,,,,,,,,,,,,PF,strong,3,,,,,,,,0,0.96671,,,,,,,,,,,,,,,,,,,,,,,,,,,,9,strong,-31,73,1,0,0,response7disk,8,98,9,9,1,0,0,rectangle,9,9,1,0,0,0,7,0.000905,9,9,1,0,0,0,97,97,6,1,0,,,,,,,,,,,,,,,,,,,,,
,,,,,,,,,,,,,,,,,,,,,,,,,,,,,,,,,,,,,,,,,,5c964f54490924001511b867,60684c5b82b3d59c01f84220,2021-04-03_13h14.06.927,Colour_Similarity_Experiment,2020.2.10,Win32,60,60674ec340277cd6a308bc9f,16.82806156,17.00786116,16.69587406,16.67926128,16.66614035,16.69587406,,,,,,,,,,,,,,,,,,,,PF,weak,3,,,,,,,,7,0.833295,,,,,,,,,,,,,,,,,,,,,,,,,,,,5,weak,40,99,1,0,0,response1disk,7,99,6,13,1,0,0,rectangle,6,13,1,0,0,0,3,0.000785,6,13,1,0,0,0,98,98,146,1,0,,,,,,,,,,,,,,,,,,,,,
,,,,,,,,,,,,,,,,,,,,,,,,,,,,,,,,,,,,,,,,,,5c964f54490924001511b867,60684c5b82b3d59c01f84220,2021-04-03_13h14.06.927,Colour_Similarity_Experiment,2020.2.10,Win32,60,60674ec340277cd6a308bc9f,16.82806156,17.00786116,16.69587406,16.67926128,16.66614035,16.69587406,,,,,,,,,,,,,,,,,,,,PF,strong,3,,,,,,,,0,1.216585,,,,,,,,,,,,,,,,,,,,,,,,,,,,5,strong,-33,69,1,0,0,response7disk,8,100,-1,5,1,0,0,rectangle,-1,5,1,0,0,0,7,0.00083,-1,5,1,0,0,0,99,99,16,1,0,,,,,,,,,,,,,,,,,,,,,
,,,,,,,,,,,,,,,,,,,,,,,,,,,,,,,,,,,,,,,,,,5c964f54490924001511b867,60684c5b82b3d59c01f84220,2021-04-03_13h14.06.927,Colour_Similarity_Experiment,2020.2.10,Win32,60,60674ec340277cd6a308bc9f,16.82806156,17.00786116,16.69587406,16.67926128,16.66614035,16.69587406,,,,,,,,,,,,,,,,,,,,PF,weak,3,,,,,,,,1,1.3331,,,,,,,,,,,,,,,,,,,,,,,,,,,,2,weak,-85,51,1,0,0,response7disk,1,101,-11,4,1,0,0,rectangle,-11,4,1,0,0,0,0,0.000625,-11,4,1,0,0,0,100,100,9,1,0,,,,,,,,,,,,,,,,,,,,,
,,,,,,,,,,,,,,,,,,,,,,,,,,,,,,,,,,,,,,,,,,5c964f54490924001511b867,60684c5b82b3d59c01f84220,2021-04-03_13h14.06.927,Colour_Similarity_Experiment,2020.2.10,Win32,60,60674ec340277cd6a308bc9f,16.82806156,17.00786116,16.69587406,16.67926128,16.66614035,16.69587406,,,,,,,,,,,,,,,,,,,,PF,strong,3,,,,,,,,4,7.550175,,,,,,,,,,,,,,,,,,,,,,,,,,,,6,strong,31,-62,1,0,0,response3disk,4,102,6,-9,1,0,0,rectangle,6,-9,1,0,0,0,7,0.000875,6,-9,1,0,0,0,101,101,56,1,0,,,,,,,,,,,,,,,,,,,,,
,,,,,,,,,,,,,,,,,,,,,,,,,,,,,,,,,,,,,,,,,,5c964f54490924001511b867,60684c5b82b3d59c01f84220,2021-04-03_13h14.06.927,Colour_Similarity_Experiment,2020.2.10,Win32,60,60674ec340277cd6a308bc9f,16.82806156,17.00786116,16.69587406,16.67926128,16.66614035,16.69587406,,,,,,,,,,,,,,,,,,,,PF,strong,3,,,,,,,,3,1.949945,,,,,,,,,,,,,,,,,,,,,,,,,,,,2,strong,-54,-122,1,0,0,response5disk,4,103,12,8,1,0,0,rectangle,12,8,1,0,0,0,1,0.000725,12,8,1,0,0,0,102,102,145,1,0,,,,,,,,,,,,,,,,,,,,,
,,,,,,,,,,,,,,,,,,,,,,,,,,,,,,,,,,,,,,,,,,5c964f54490924001511b867,60684c5b82b3d59c01f84220,2021-04-03_13h14.06.927,Colour_Similarity_Experiment,2020.2.10,Win32,60,60674ec340277cd6a308bc9f,16.82806156,17.00786116,16.69587406,16.67926128,16.66614035,16.69587406,,,,,,,,,,,,,,,,,,,,PF,strong,3,,,,,,,,6,1.78308,,,,,,,,,,,,,,,,,,,,,,,,,,,,8,strong,95,65,1,0,0,response1disk,6,104,15,21,1,0,0,rectangle,15,21,1,0,0,0,6,0.000665,15,21,1,0,0,0,103,103,37,1,0,,,,,,,,,,,,,,,,,,,,,
,,,,,,,,,,,,,,,,,,,,,,,,,,,,,,,,,,,,,,,,,,5c964f54490924001511b867,60684c5b82b3d59c01f84220,2021-04-03_13h14.06.927,Colour_Similarity_Experiment,2020.2.10,Win32,60,60674ec340277cd6a308bc9f,16.82806156,17.00786116,16.69587406,16.67926128,16.66614035,16.69587406,,,,,,,,,,,,,,,,,,,,PF,weak,3,,,,,,,,6,1.633305,,,,,,,,,,,,,,,,,,,,,,,,,,,,9,weak,77,66,1,0,0,response1disk,1,105,7,18,1,0,0,rectangle,7,18,1,0,0,0,3,0.000975,7,18,1,0,0,0,104,104,74,1,0,,,,,,,,,,,,,,,,,,,,,
,,,,,,,,,,,,,,,,,,,,,,,,,,,,,,,,,,,,,,,,,,5c964f54490924001511b867,60684c5b82b3d59c01f84220,2021-04-03_13h14.06.927,Colour_Similarity_Experiment,2020.2.10,Win32,60,60674ec340277cd6a308bc9f,16.82806156,17.00786116,16.69587406,16.67926128,16.66614035,16.69587406,,,,,,,,,,,,,,,,,,,,PF,weak,3,,,,,,,,2,1.16664,,,,,,,,,,,,,,,,,,,,,,,,,,,,1,weak,-123,-25,1,0,0,response5disk,2,106,-25,17,1,0,0,rectangle,-25,17,1,0,0,0,2,0.000955,-25,17,1,0,0,0,105,105,24,1,0,,,,,,,,,,,,,,,,,,,,,
,,,,,,,,,,,,,,,,,,,,,,,,,,,,,,,,,,,,,,,,,,5c964f54490924001511b867,60684c5b82b3d59c01f84220,2021-04-03_13h14.06.927,Colour_Similarity_Experiment,2020.2.10,Win32,60,60674ec340277cd6a308bc9f,16.82806156,17.00786116,16.69587406,16.67926128,16.66614035,16.69587406,,,,,,,,,,,,,,,,,,,,PF,weak,3,,,,,,,,6,1.5167,,,,,,,,,,,,,,,,,,,,,,,,,,,,8,weak,97,38,1,0,0,response1disk,3,107,16,6,1,0,0,rectangle,16,6,1,0,0,0,3,0.00073,16,6,1,0,0,0,106,106,71,1,0,,,,,,,,,,,,,,,,,,,,,
,,,,,,,,,,,,,,,,,,,,,,,,,,,,,,,,,,,,,,,,,,5c964f54490924001511b867,60684c5b82b3d59c01f84220,2021-04-03_13h14.06.927,Colour_Similarity_Experiment,2020.2.10,Win32,60,60674ec340277cd6a308bc9f,16.82806156,17.00786116,16.69587406,16.67926128,16.66614035,16.69587406,,,,,,,,,,,,,,,,,,,,PF,strong,3,,,,,,,,1,1.1832,,,,,,,,,,,,,,,,,,,,,,,,,,,,5,strong,-79,50,1,0,0,response7disk,3,108,2,17,1,0,0,rectangle,2,17,1,0,0,0,7,0.000835,2,17,1,0,0,0,107,107,25,1,0,,,,,,,,,,,,,,,,,,,,,
,,,,,,,,,,,,,,,,,,,,,,,,,,,,,,,,,,,,,,,,,,5c964f54490924001511b867,60684c5b82b3d59c01f84220,2021-04-03_13h14.06.927,Colour_Similarity_Experiment,2020.2.10,Win32,60,60674ec340277cd6a308bc9f,16.82806156,17.00786116,16.69587406,16.67926128,16.66614035,16.69587406,,,,,,,,,,,,,,,,,,,,PF,strong,3,,,,,,,,7,1.60008,,,,,,,,,,,,,,,,,,,,,,,,,,,,9,strong,52,78,1,0,0,response1disk,1,109,9,15,1,0,0,rectangle,9,15,1,0,0,0,6,0.00065,9,15,1,0,0,0,108,108,111,1,0,,,,,,,,,,,,,,,,,,,,,
,,,,,,,,,,,,,,,,,,,,,,,,,,,,,,,,,,,,,,,,,,5c964f54490924001511b867,60684c5b82b3d59c01f84220,2021-04-03_13h14.06.927,Colour_Similarity_Experiment,2020.2.10,Win32,60,60674ec340277cd6a308bc9f,16.82806156,17.00786116,16.69587406,16.67926128,16.66614035,16.69587406,,,,,,,,,,,,,,,,,,,,PF,strong,3,,,,,,,,1,1.13334,,,,,,,,,,,,,,,,,,,,,,,,,,,,9,strong,-80,46,1,0,0,response7disk,9,110,7,11,1,0,0,rectangle,7,11,1,0,0,0,3,0.000675,7,11,1,0,0,0,109,109,17,1,0,,,,,,,,,,,,,,,,,,,,,
,,,,,,,,,,,,,,,,,,,,,,,,,,,,,,,,,,,,,,,,,,5c964f54490924001511b867,60684c5b82b3d59c01f84220,2021-04-03_13h14.06.927,Colour_Similarity_Experiment,2020.2.10,Win32,60,60674ec340277cd6a308bc9f,16.82806156,17.00786116,16.69587406,16.67926128,16.66614035,16.69587406,,,,,,,,,,,,,,,,,,,,PF,strong,3,,,,,,,,3,1.800175,,,,,,,,,,,,,,,,,,,,,,,,,,,,1,strong,-46,-93,1,0,0,response5disk,1,111,12,13,1,0,0,rectangle,12,13,1,0,0,0,7,0.000885,12,13,1,0,0,0,110,110,151,1,0,,,,,,,,,,,,,,,,,,,,,
,,,,,,,,,,,,,,,,,,,,,,,,,,,,,,,,,,,,,,,,,,5c964f54490924001511b867,60684c5b82b3d59c01f84220,2021-04-03_13h14.06.927,Colour_Similarity_Experiment,2020.2.10,Win32,60,60674ec340277cd6a308bc9f,16.82806156,17.00786116,16.69587406,16.67926128,16.66614035,16.69587406,,,,,,,,,,,,,,,,,,,,PF,strong,3,,,,,,,,1,1.03341,,,,,,,,,,,,,,,,,,,,,,,,,,,,2,strong,-57,38,1,0,0,response7disk,2,112,-3,1,1,0,0,rectangle,-3,1,1,0,0,0,4,0.000755,-3,1,1,0,0,0,111,111,142,1,0,,,,,,,,,,,,,,,,,,,,,
,,,,,,,,,,,,,,,,,,,,,,,,,,,,,,,,,,,,,,,,,,5c964f54490924001511b867,60684c5b82b3d59c01f84220,2021-04-03_13h14.06.927,Colour_Similarity_Experiment,2020.2.10,Win32,60,60674ec340277cd6a308bc9f,16.82806156,17.00786116,16.69587406,16.67926128,16.66614035,16.69587406,,,,,,,,,,,,,,,,,,,,PF,strong,3,,,,,,,,1,2.6668,,,,,,,,,,,,,,,,,,,,,,,,,,,,8,strong,-83,39,1,0,0,response7disk,7,113,-12,-4,1,0,0,rectangle,-12,-4,1,0,0,0,5,0.00071,-12,-4,1,0,0,0,112,112,86,1,0,,,,,,,,,,,,,,,,,,,,,
,,,,,,,,,,,,,,,,,,,,,,,,,,,,,,,,,,,,,,,,,,5c964f54490924001511b867,60684c5b82b3d59c01f84220,2021-04-03_13h14.06.927,Colour_Similarity_Experiment,2020.2.10,Win32,60,60674ec340277cd6a308bc9f,16.82806156,17.00786116,16.69587406,16.67926128,16.66614035,16.69587406,,,,,,,,,,,,,,,,,,,,PF,weak,3,,,,,,,,6,1.66583,,,,,,,,,,,,,,,,,,,,,,,,,,,,6,weak,63,46,1,0,0,response1disk,2,114,5,5,1,0,0,rectangle,5,5,1,0,0,0,7,0.000875,5,5,1,0,0,0,113,113,130,1,0,,,,,,,,,,,,,,,,,,,,,
,,,,,,,,,,,,,,,,,,,,,,,,,,,,,,,,,,,,,,,,,,5c964f54490924001511b867,60684c5b82b3d59c01f84220,2021-04-03_13h14.06.927,Colour_Similarity_Experiment,2020.2.10,Win32,60,60674ec340277cd6a308bc9f,16.82806156,17.00786116,16.69587406,16.67926128,16.66614035,16.69587406,,,,,,,,,,,,,,,,,,,,PF,weak,3,,,,,,,,2,1.25003,,,,,,,,,,,,,,,,,,,,,,,,,,,,1,weak,-102,-43,1,0,0,response5disk,8,115,-25,5,1,0,0,rectangle,-25,5,1,0,0,0,0,0.000675,-25,5,1,0,0,0,114,114,65,1,0,,,,,,,,,,,,,,,,,,,,,
,,,,,,,,,,,,,,,,,,,,,,,,,,,,,,,,,,,,,,,,,,5c964f54490924001511b867,60684c5b82b3d59c01f84220,2021-04-03_13h14.06.927,Colour_Similarity_Experiment,2020.2.10,Win32,60,60674ec340277cd6a308bc9f,16.82806156,17.00786116,16.69587406,16.67926128,16.66614035,16.69587406,,,,,,,,,,,,,,,,,,,,PF,strong,3,,,,,,,,3,1.69944,,,,,,,,,,,,,,,,,,,,,,,,,,,,1,strong,-62,-87,1,0,0,response5disk,7,116,-13,-3,1,0,0,rectangle,-13,-3,1,0,0,0,1,0.000685,-13,-3,1,0,0,0,115,115,137,1,0,,,,,,,,,,,,,,,,,,,,,
,,,,,,,,,,,,,,,,,,,,,,,,,,,,,,,,,,,,,,,,,,5c964f54490924001511b867,60684c5b82b3d59c01f84220,2021-04-03_13h14.06.927,Colour_Similarity_Experiment,2020.2.10,Win32,60,60674ec340277cd6a308bc9f,16.82806156,17.00786116,16.69587406,16.67926128,16.66614035,16.69587406,,,,,,,,,,,,,,,,,,,,PF,weak,3,,,,,,,,7,1.749905,,,,,,,,,,,,,,,,,,,,,,,,,,,,4,weak,52,78,1,0,0,response1disk,2,117,19,-8,1,0,0,rectangle,19,-8,1,0,0,0,0,0.00059,19,-8,1,0,0,0,116,116,108,1,0,,,,,,,,,,,,,,,,,,,,,
,,,,,,,,,,,,,,,,,,,,,,,,,,,,,,,,,,,,,,,,,,5c964f54490924001511b867,60684c5b82b3d59c01f84220,2021-04-03_13h14.06.927,Colour_Similarity_Experiment,2020.2.10,Win32,60,60674ec340277cd6a308bc9f,16.82806156,17.00786116,16.69587406,16.67926128,16.66614035,16.69587406,,,,,,,,,,,,,,,,,,,,PF,weak,3,,,,,,,,7,1.33323,,,,,,,,,,,,,,,,,,,,,,,,,,,,4,weak,69,92,1,0,0,response1disk,7,118,12,-1,1,0,0,rectangle,12,-1,1,0,0,0,3,0.00089,12,-1,1,0,0,0,117,117,38,1,0,,,,,,,,,,,,,,,,,,,,,
,,,,,,,,,,,,,,,,,,,,,,,,,,,,,,,,,,,,,,,,,,5c964f54490924001511b867,60684c5b82b3d59c01f84220,2021-04-03_13h14.06.927,Colour_Similarity_Experiment,2020.2.10,Win32,60,60674ec340277cd6a308bc9f,16.82806156,17.00786116,16.69587406,16.67926128,16.66614035,16.69587406,,,,,,,,,,,,,,,,,,,,PF,strong,3,,,,,,,,7,1.59999,,,,,,,,,,,,,,,,,,,,,,,,,,,,3,strong,56,81,1,0,0,response1disk,1,119,10,3,1,0,0,rectangle,10,3,1,0,0,0,4,0.001255,10,3,1,0,0,0,118,118,125,1,0,,,,,,,,,,,,,,,,,,,,,
,,,,,,,,,,,,,,,,,,,,,,,,,,,,,,,,,,,,,,,,,,5c964f54490924001511b867,60684c5b82b3d59c01f84220,2021-04-03_13h14.06.927,Colour_Similarity_Experiment,2020.2.10,Win32,60,60674ec340277cd6a308bc9f,16.82806156,17.00786116,16.69587406,16.67926128,16.66614035,16.69587406,,,,,,,,,,,,,,,,,,,,PF,weak,3,,,,,,,,6,1.267115,,,,,,,,,,,,,,,,,,,,,,,,,,,,1,weak,83,57,1,0,0,response1disk,5,120,8,10,1,0,0,rectangle,8,10,1,0,0,0,6,0.000905,8,10,1,0,0,0,119,119,28,1,0,,,,,,,,,,,,,,,,,,,,,
,,,,,,,,,,,,,,,,,,,,,,,,,,,,,,,,,,,,,,,,,,5c964f54490924001511b867,60684c5b82b3d59c01f84220,2021-04-03_13h14.06.927,Colour_Similarity_Experiment,2020.2.10,Win32,60,60674ec340277cd6a308bc9f,16.82806156,17.00786116,16.69587406,16.67926128,16.66614035,16.69587406,,,,,,,,,,,,,,,,,,,,PF,weak,3,,,,,,,,0,1.116585,,,,,,,,,,,,,,,,,,,,,,,,,,,,4,weak,-43,76,1,0,0,response7disk,5,121,8,2,1,0,0,rectangle,8,2,1,0,0,0,6,0.000115,8,2,1,0,0,0,120,120,49,1,0,,,,,,,,,,,,,,,,,,,,,
,,,,,,,,,,,,,,,,,,,,,,,,,,,,,,,,,,,,,,,,,,5c964f54490924001511b867,60684c5b82b3d59c01f84220,2021-04-03_13h14.06.927,Colour_Similarity_Experiment,2020.2.10,Win32,60,60674ec340277cd6a308bc9f,16.82806156,17.00786116,16.69587406,16.67926128,16.66614035,16.69587406,,,,,,,,,,,,,,,,,,,,PF,strong,3,,,,,,,,0,4.400295,,,,,,,,,,,,,,,,,,,,,,,,,,,,5,strong,-58,105,1,0,0,response7disk,9,122,-2,14,1,0,0,rectangle,-2,14,1,0,0,0,7,0.000665,-2,14,1,0,0,0,121,121,61,1,0,,,,,,,,,,,,,,,,,,,,,
,,,,,,,,,,,,,,,,,,,,,,,,,,,,,,,,,,,,,,,,,,5c964f54490924001511b867,60684c5b82b3d59c01f84220,2021-04-03_13h14.06.927,Colour_Similarity_Experiment,2020.2.10,Win32,60,60674ec340277cd6a308bc9f,16.82806156,17.00786116,16.69587406,16.67926128,16.66614035,16.69587406,,,,,,,,,,,,,,,,,,,,PF,strong,3,,,,,,,,7,2.75006,,,,,,,,,,,,,,,,,,,,,,,,,,,,7,strong,41,73,1,0,0,response1disk,1,123,0,3,1,0,0,rectangle,0,3,1,0,0,0,3,0.00079,0,3,1,0,0,0,122,122,132,1,0,,,,,,,,,,,,,,,,,,,,,
,,,,,,,,,,,,,,,,,,,,,,,,,,,,,,,,,,,,,,,,,,5c964f54490924001511b867,60684c5b82b3d59c01f84220,2021-04-03_13h14.06.927,Colour_Similarity_Experiment,2020.2.10,Win32,60,60674ec340277cd6a308bc9f,16.82806156,17.00786116,16.69587406,16.67926128,16.66614035,16.69587406,,,,,,,,,,,,,,,,,,,,PF,weak,3,,,,,,,,1,1.38341,,,,,,,,,,,,,,,,,,,,,,,,,,,,6,weak,-110,44,1,0,0,response7disk,5,124,12,-7,1,0,0,rectangle,12,-7,1,0,0,0,5,0.00082,12,-7,1,0,0,0,123,123,59,1,0,,,,,,,,,,,,,,,,,,,,,
,,,,,,,,,,,,,,,,,,,,,,,,,,,,,,,,,,,,,,,,,,5c964f54490924001511b867,60684c5b82b3d59c01f84220,2021-04-03_13h14.06.927,Colour_Similarity_Experiment,2020.2.10,Win32,60,60674ec340277cd6a308bc9f,16.82806156,17.00786116,16.69587406,16.67926128,16.66614035,16.69587406,,,,,,,,,,,,,,,,,,,,PF,strong,3,,,,,,,,1,1.683485,,,,,,,,,,,,,,,,,,,,,,,,,,,,6,strong,-92,26,1,0,0,response7disk,9,125,28,-11,1,0,0,rectangle,-42,-105,1,0,0,3,3,2.117055,-9,-8,1,0,0,0,124,124,160,1,1,response5disk_3,rectangle,,,,,,,,,,,,,,,,,,,
,,,,,,,,,,,,,,,,,,,,,,,,,,,,,,,,,,,,,,,,,,5c964f54490924001511b867,60684c5b82b3d59c01f84220,2021-04-03_13h14.06.927,Colour_Similarity_Experiment,2020.2.10,Win32,60,60674ec340277cd6a308bc9f,16.82806156,17.00786116,16.69587406,16.67926128,16.66614035,16.69587406,,,,,,,,,,,,,,,,,,,,PF,strong,3,,,,,,,,3,1.700005,,,,,,,,,,,,,,,,,,,,,,,,,,,,7,strong,-34,-95,1,0,0,response5disk,7,126,4,0,1,0,0,rectangle,4,0,1,0,0,3,2,0.000615,4,0,1,0,0,0,125,125,34,1,0,,,,,,,,,,,,,,,,,,,,,
,,,,,,,,,,,,,,,,,,,,,,,,,,,,,,,,,,,,,,,,,,5c964f54490924001511b867,60684c5b82b3d59c01f84220,2021-04-03_13h14.06.927,Colour_Similarity_Experiment,2020.2.10,Win32,60,60674ec340277cd6a308bc9f,16.82806156,17.00786116,16.69587406,16.67926128,16.66614035,16.69587406,,,,,,,,,,,,,,,,,,,,PF,strong,3,,,,,,,,3,2.18351,,,,,,,,,,,,,,,,,,,,,,,,,,,,5,strong,-53,-101,1,0,0,response5disk,4,127,-13,-6,1,0,0,rectangle,-13,-6,1,0,0,3,3,0.000735,-13,-6,1,0,0,0,126,126,8,1,0,,,,,,,,,,,,,,,,,,,,,
,,,,,,,,,,,,,,,,,,,,,,,,,,,,,,,,,,,,,,,,,,5c964f54490924001511b867,60684c5b82b3d59c01f84220,2021-04-03_13h14.06.927,Colour_Similarity_Experiment,2020.2.10,Win32,60,60674ec340277cd6a308bc9f,16.82806156,17.00786116,16.69587406,16.67926128,16.66614035,16.69587406,,,,,,,,,,,,,,,,,,,,PF,strong,3,,,,,,,,3,1.427095,,,,,,,,,,,,,,,,,,,,,,,,,,,,6,strong,-58,-113,1,0,0,response5disk,2,128,-7,-4,1,0,0,rectangle,-7,-4,1,0,0,3,1,0.0007,-7,-4,1,0,0,0,127,127,112,1,0,,,,,,,,,,,,,,,,,,,,,
,,,,,,,,,,,,,,,,,,,,,,,,,,,,,,,,,,,,,,,,,,5c964f54490924001511b867,60684c5b82b3d59c01f84220,2021-04-03_13h14.06.927,Colour_Similarity_Experiment,2020.2.10,Win32,60,60674ec340277cd6a308bc9f,16.82806156,17.00786116,16.69587406,16.67926128,16.66614035,16.69587406,,,,,,,,,,,,,,,,,,,,PF,strong,3,,,,,,,,1,1.78331,,,,,,,,,,,,,,,,,,,,,,,,,,,,9,strong,-75,25,1,0,0,response7disk,4,129,-9,-17,1,0,0,rectangle,-9,-17,1,0,0,3,3,0.00094,-9,-17,1,0,0,0,128,128,60,1,0,,,,,,,,,,,,,,,,,,,,,
,,,,,,,,,,,,,,,,,,,,,,,,,,,,,,,,,,,,,,,,,,5c964f54490924001511b867,60684c5b82b3d59c01f84220,2021-04-03_13h14.06.927,Colour_Similarity_Experiment,2020.2.10,Win32,60,60674ec340277cd6a308bc9f,16.82806156,17.00786116,16.69587406,16.67926128,16.66614035,16.69587406,,,,,,,,,,,,,,,,,,,,PF,weak,3,,,,,,,,2,1.099875,,,,,,,,,,,,,,,,,,,,,,,,,,,,6,weak,-84,-37,1,0,0,response5disk,9,130,1,5,1,0,0,rectangle,1,5,1,0,0,3,4,0.000945,1,5,1,0,0,0,129,129,45,1,0,,,,,,,,,,,,,,,,,,,,,
,,,,,,,,,,,,,,,,,,,,,,,,,,,,,,,,,,,,,,,,,,5c964f54490924001511b867,60684c5b82b3d59c01f84220,2021-04-03_13h14.06.927,Colour_Similarity_Experiment,2020.2.10,Win32,60,60674ec340277cd6a308bc9f,16.82806156,17.00786116,16.69587406,16.67926128,16.66614035,16.69587406,,,,,,,,,,,,,,,,,,,,PF,weak,3,,,,,,,,0,0.96678,,,,,,,,,,,,,,,,,,,,,,,,,,,,1,weak,-68,113,1,0,0,response7disk,1,131,-33,-1,1,0,0,rectangle,115,44,1,0,0,6,6,1.26658,-16,0,1,0,0,0,130,130,76,1,1,response1disk_3,rectangle,,,,,,,,,,,,,,,,,,,
,,,,,,,,,,,,,,,,,,,,,,,,,,,,,,,,,,,,,,,,,,5c964f54490924001511b867,60684c5b82b3d59c01f84220,2021-04-03_13h14.06.927,Colour_Similarity_Experiment,2020.2.10,Win32,60,60674ec340277cd6a308bc9f,16.82806156,17.00786116,16.69587406,16.67926128,16.66614035,16.69587406,,,,,,,,,,,,,,,,,,,,PF,weak,3,,,,,,,,1,3.03334,,,,,,,,,,,,,,,,,,,,,,,,,,,,1,weak,-85,62,1,0,0,response7disk,3,132,17,-13,1,0,0,rectangle,17,-13,1,0,0,6,3,0.00082,17,-13,1,0,0,0,131,131,1,1,0,,,,,,,,,,,,,,,,,,,,,
,,,,,,,,,,,,,,,,,,,,,,,,,,,,,,,,,,,,,,,,,,5c964f54490924001511b867,60684c5b82b3d59c01f84220,2021-04-03_13h14.06.927,Colour_Similarity_Experiment,2020.2.10,Win32,60,60674ec340277cd6a308bc9f,16.82806156,17.00786116,16.69587406,16.67926128,16.66614035,16.69587406,,,,,,,,,,,,,,,,,,,,PF,strong,3,,,,,,,,0,1.03326,,,,,,,,,,,,,,,,,,,,,,,,,,,,1,strong,-51,80,1,0,0,response7disk,5,133,-6,16,1,0,0,rectangle,-6,16,1,0,0,6,2,0.00074,-6,16,1,0,0,0,132,132,82,1,0,,,,,,,,,,,,,,,,,,,,,
,,,,,,,,,,,,,,,,,,,,,,,,,,,,,,,,,,,,,,,,,,5c964f54490924001511b867,60684c5b82b3d59c01f84220,2021-04-03_13h14.06.927,Colour_Similarity_Experiment,2020.2.10,Win32,60,60674ec340277cd6a308bc9f,16.82806156,17.00786116,16.69587406,16.67926128,16.66614035,16.69587406,,,,,,,,,,,,,,,,,,,,PF,strong,3,,,,,,,,0,0.93341,,,,,,,,,,,,,,,,,,,,,,,,,,,,6,strong,-53,79,1,0,0,response7disk,7,134,6,-2,1,0,0,rectangle,6,-2,1,0,0,6,5,0.00072,6,-2,1,0,0,0,133,133,18,1,0,,,,,,,,,,,,,,,,,,,,,
,,,,,,,,,,,,,,,,,,,,,,,,,,,,,,,,,,,,,,,,,,5c964f54490924001511b867,60684c5b82b3d59c01f84220,2021-04-03_13h14.06.927,Colour_Similarity_Experiment,2020.2.10,Win32,60,60674ec340277cd6a308bc9f,16.82806156,17.00786116,16.69587406,16.67926128,16.66614035,16.69587406,,,,,,,,,,,,,,,,,,,,PF,weak,3,,,,,,,,3,1.16677,,,,,,,,,,,,,,,,,,,,,,,,,,,,7,weak,-48,-117,1,0,0,response5disk,3,135,-1,-3,1,0,0,rectangle,-1,-3,1,0,0,6,5,0.00022,-1,-3,1,0,0,0,134,134,81,1,0,,,,,,,,,,,,,,,,,,,,,
,,,,,,,,,,,,,,,,,,,,,,,,,,,,,,,,,,,,,,,,,,5c964f54490924001511b867,60684c5b82b3d59c01f84220,2021-04-03_13h14.06.927,Colour_Similarity_Experiment,2020.2.10,Win32,60,60674ec340277cd6a308bc9f,16.82806156,17.00786116,16.69587406,16.67926128,16.66614035,16.69587406,,,,,,,,,,,,,,,,,,,,PF,strong,3,,,,,,,,3,1.44989,,,,,,,,,,,,,,,,,,,,,,,,,,,,3,strong,-53,-115,1,0,0,response5disk,6,136,-12,-21,1,0,0,rectangle,-12,-21,1,0,0,6,4,0.000695,-12,-21,1,0,0,0,135,135,95,1,0,,,,,,,,,,,,,,,,,,,,,
,,,,,,,,,,,,,,,,,,,,,,,,,,,,,,,,,,,,,,,,,,5c964f54490924001511b867,60684c5b82b3d59c01f84220,2021-04-03_13h14.06.927,Colour_Similarity_Experiment,2020.2.10,Win32,60,60674ec340277cd6a308bc9f,16.82806156,17.00786116,16.69587406,16.67926128,16.66614035,16.69587406,,,,,,,,,,,,,,,,,,,,PF,weak,3,,,,,,,,3,1.04998,,,,,,,,,,,,,,,,,,,,,,,,,,,,6,weak,-49,-79,1,0,0,response5disk,4,137,6,0,1,0,0,rectangle,6,0,1,0,0,6,1,0.00076,6,0,1,0,0,0,136,136,33,1,0,,,,,,,,,,,,,,,,,,,,,
,,,,,,,,,,,,,,,,,,,,,,,,,,,,,,,,,,,,,,,,,,5c964f54490924001511b867,60684c5b82b3d59c01f84220,2021-04-03_13h14.06.927,Colour_Similarity_Experiment,2020.2.10,Win32,60,60674ec340277cd6a308bc9f,16.82806156,17.00786116,16.69587406,16.67926128,16.66614035,16.69587406,,,,,,,,,,,,,,,,,,,,PF,weak,3,,,,,,,,6,0.916645,,,,,,,,,,,,,,,,,,,,,,,,,,,,1,weak,73,47,1,0,0,response1disk,6,138,-5,4,1,0,0,rectangle,-5,4,1,0,0,6,4,0.000685,-5,4,1,0,0,0,137,137,144,1,0,,,,,,,,,,,,,,,,,,,,,
,,,,,,,,,,,,,,,,,,,,,,,,,,,,,,,,,,,,,,,,,,5c964f54490924001511b867,60684c5b82b3d59c01f84220,2021-04-03_13h14.06.927,Colour_Similarity_Experiment,2020.2.10,Win32,60,60674ec340277cd6a308bc9f,16.82806156,17.00786116,16.69587406,16.67926128,16.66614035,16.69587406,,,,,,,,,,,,,,,,,,,,PF,weak,3,,,,,,,,6,0.81677,,,,,,,,,,,,,,,,,,,,,,,,,,,,7,weak,88,41,1,0,0,response1disk,4,139,-18,5,1,0,0,rectangle,-18,5,1,0,0,6,4,0.00011,-18,5,1,0,0,0,138,138,43,1,0,,,,,,,,,,,,,,,,,,,,,
,,,,,,,,,,,,,,,,,,,,,,,,,,,,,,,,,,,,,,,,,,5c964f54490924001511b867,60684c5b82b3d59c01f84220,2021-04-03_13h14.06.927,Colour_Similarity_Experiment,2020.2.10,Win32,60,60674ec340277cd6a308bc9f,16.82806156,17.00786116,16.69587406,16.67926128,16.66614035,16.69587406,,,,,,,,,,,,,,,,,,,,PF,strong,3,,,,,,,,0,1.26667,,,,,,,,,,,,,,,,,,,,,,,,,,,,2,strong,-72,115,1,0,0,response7disk,9,140,4,2,1,0,0,rectangle,4,2,1,0,0,6,6,0.001015,4,2,1,0,0,0,139,139,72,1,0,,,,,,,,,,,,,,,,,,,,,
,,,,,,,,,,,,,,,,,,,,,,,,,,,,,,,,,,,,,,,,,,5c964f54490924001511b867,60684c5b82b3d59c01f84220,2021-04-03_13h14.06.927,Colour_Similarity_Experiment,2020.2.10,Win32,60,60674ec340277cd6a308bc9f,16.82806156,17.00786116,16.69587406,16.67926128,16.66614035,16.69587406,,,,,,,,,,,,,,,,,,,,PF,strong,3,,,,,,,,5,2.083285,,,,,,,,,,,,,,,,,,,,,,,,,,,,7,strong,98,-41,1,0,0,response3disk,2,141,-21,19,1,0,0,rectangle,-21,19,1,0,0,6,2,0.00067,-21,19,1,0,0,0,140,140,138,1,0,,,,,,,,,,,,,,,,,,,,,
,,,,,,,,,,,,,,,,,,,,,,,,,,,,,,,,,,,,,,,,,,5c964f54490924001511b867,60684c5b82b3d59c01f84220,2021-04-03_13h14.06.927,Colour_Similarity_Experiment,2020.2.10,Win32,60,60674ec340277cd6a308bc9f,16.82806156,17.00786116,16.69587406,16.67926128,16.66614035,16.69587406,,,,,,,,,,,,,,,,,,,,PF,strong,3,,,,,,,,2,2.449965,,,,,,,,,,,,,,,,,,,,,,,,,,,,4,strong,-83,-33,1,0,0,response5disk,4,142,16,0,1,0,0,rectangle,16,0,1,0,0,6,2,0.00013,16,0,1,0,0,0,141,141,84,1,0,,,,,,,,,,,,,,,,,,,,,
,,,,,,,,,,,,,,,,,,,,,,,,,,,,,,,,,,,,,,,,,,5c964f54490924001511b867,60684c5b82b3d59c01f84220,2021-04-03_13h14.06.927,Colour_Similarity_Experiment,2020.2.10,Win32,60,60674ec340277cd6a308bc9f,16.82806156,17.00786116,16.69587406,16.67926128,16.66614035,16.69587406,,,,,,,,,,,,,,,,,,,,PF,strong,3,,,,,,,,5,1.666695,,,,,,,,,,,,,,,,,,,,,,,,,,,,4,strong,65,-65,1,0,0,response3disk,3,143,21,-16,1,0,0,rectangle,21,-16,1,0,0,6,5,0.000765,21,-16,1,0,0,0,142,142,77,1,0,,,,,,,,,,,,,,,,,,,,,
,,,,,,,,,,,,,,,,,,,,,,,,,,,,,,,,,,,,,,,,,,5c964f54490924001511b867,60684c5b82b3d59c01f84220,2021-04-03_13h14.06.927,Colour_Similarity_Experiment,2020.2.10,Win32,60,60674ec340277cd6a308bc9f,16.82806156,17.00786116,16.69587406,16.67926128,16.66614035,16.69587406,,,,,,,,,,,,,,,,,,,,PF,weak,3,,,,,,,,6,2.633385,,,,,,,,,,,,,,,,,,,,,,,,,,,,3,weak,80,32,1,0,0,response1disk,1,144,-1,-3,1,0,0,rectangle,-1,-3,1,0,0,6,4,0.000895,-1,-3,1,0,0,0,143,143,96,1,0,,,,,,,,,,,,,,,,,,,,,
,,,,,,,,,,,,,,,,,,,,,,,,,,,,,,,,,,,,,,,,,,5c964f54490924001511b867,60684c5b82b3d59c01f84220,2021-04-03_13h14.06.927,Colour_Similarity_Experiment,2020.2.10,Win32,60,60674ec340277cd6a308bc9f,16.82806156,17.00786116,16.69587406,16.67926128,16.66614035,16.69587406,,,,,,,,,,,,,,,,,,,,PF,strong,3,,,,,,,,5,1.36665,,,,,,,,,,,,,,,,,,,,,,,,,,,,7,strong,65,-33,1,0,0,response3disk,5,145,-5,2,1,0,0,rectangle,-5,2,1,0,0,6,7,0.000905,-5,2,1,0,0,0,144,144,156,1,0,,,,,,,,,,,,,,,,,,,,,
,,,,,,,,,,,,,,,,,,,,,,,,,,,,,,,,,,,,,,,,,,5c964f54490924001511b867,60684c5b82b3d59c01f84220,2021-04-03_13h14.06.927,Colour_Similarity_Experiment,2020.2.10,Win32,60,60674ec340277cd6a308bc9f,16.82806156,17.00786116,16.69587406,16.67926128,16.66614035,16.69587406,,,,,,,,,,,,,,,,,,,,PF,weak,3,,,,,,,,2,0.983275,,,,,,,,,,,,,,,,,,,,,,,,,,,,2,weak,-88,-29,1,0,0,response5disk,7,146,14,-2,1,0,0,rectangle,14,-2,1,0,0,6,7,0.00019,14,-2,1,0,0,0,145,145,107,1,0,,,,,,,,,,,,,,,,,,,,,
,,,,,,,,,,,,,,,,,,,,,,,,,,,,,,,,,,,,,,,,,,5c964f54490924001511b867,60684c5b82b3d59c01f84220,2021-04-03_13h14.06.927,Colour_Similarity_Experiment,2020.2.10,Win32,60,60674ec340277cd6a308bc9f,16.82806156,17.00786116,16.69587406,16.67926128,16.66614035,16.69587406,,,,,,,,,,,,,,,,,,,,PF,strong,3,,,,,,,,6,1.56684,,,,,,,,,,,,,,,,,,,,,,,,,,,,4,strong,85,41,1,0,0,response1disk,9,147,1,-1,1,0,0,rectangle,1,-1,1,0,0,6,0,0.00072,1,-1,1,0,0,0,146,146,90,1,0,,,,,,,,,,,,,,,,,,,,,
,,,,,,,,,,,,,,,,,,,,,,,,,,,,,,,,,,,,,,,,,,5c964f54490924001511b867,60684c5b82b3d59c01f84220,2021-04-03_13h14.06.927,Colour_Similarity_Experiment,2020.2.10,Win32,60,60674ec340277cd6a308bc9f,16.82806156,17.00786116,16.69587406,16.67926128,16.66614035,16.69587406,,,,,,,,,,,,,,,,,,,,PF,strong,3,,,,,,,,1,1.43331,,,,,,,,,,,,,,,,,,,,,,,,,,,,8,strong,-81,47,1,0,0,response7disk,3,148,19,-6,1,0,0,rectangle,19,-6,1,0,0,6,7,0.000865,19,-6,1,0,0,0,147,147,154,1,0,,,,,,,,,,,,,,,,,,,,,
,,,,,,,,,,,,,,,,,,,,,,,,,,,,,,,,,,,,,,,,,,5c964f54490924001511b867,60684c5b82b3d59c01f84220,2021-04-03_13h14.06.927,Colour_Similarity_Experiment,2020.2.10,Win32,60,60674ec340277cd6a308bc9f,16.82806156,17.00786116,16.69587406,16.67926128,16.66614035,16.69587406,,,,,,,,,,,,,,,,,,,,PF,strong,3,,,,,,,,1,0.86678,,,,,,,,,,,,,,,,,,,,,,,,,,,,3,strong,-88,45,1,0,0,response7disk,9,149,-4,-2,1,0,0,rectangle,-4,-2,1,0,0,6,1,0.000655,-4,-2,1,0,0,0,148,148,143,1,0,,,,,,,,,,,,,,,,,,,,,
,,,,,,,,,,,,,,,,,,,,,,,,,,,,,,,,,,,,,,,,,,5c964f54490924001511b867,60684c5b82b3d59c01f84220,2021-04-03_13h14.06.927,Colour_Similarity_Experiment,2020.2.10,Win32,60,60674ec340277cd6a308bc9f,16.82806156,17.00786116,16.69587406,16.67926128,16.66614035,16.69587406,,,,,,,,,,,,,,,,,,,,PF,weak,3,,,,,,,,7,1.78335,,,,,,,,,,,,,,,,,,,,,,,,,,,,5,weak,41,112,1,0,0,response1disk,9,150,16,0,1,0,0,rectangle,97,50,1,0,0,6,6,1.116365,4,6,1,0,0,0,149,149,136,1,1,response1disk_3,rectangle,,,,,,,,,,,,,,,,,,,
,,,,,,,,,,,,,,,,,,,,,,,,,,,,,,,,,,,,,,,,,,5c964f54490924001511b867,60684c5b82b3d59c01f84220,2021-04-03_13h14.06.927,Colour_Similarity_Experiment,2020.2.10,Win32,60,60674ec340277cd6a308bc9f,16.82806156,17.00786116,16.69587406,16.67926128,16.66614035,16.69587406,,,,,,,,,,,,,,,,,,,,PF,strong,3,,,,,,,,0,0.949905,,,,,,,,,,,,,,,,,,,,,,,,,,,,8,strong,-79,115,1,0,0,response7disk,8,151,6,0,1,0,0,rectangle,6,0,1,0,0,6,7,0.000745,6,0,1,0,0,0,150,150,48,1,0,,,,,,,,,,,,,,,,,,,,,
,,,,,,,,,,,,,,,,,,,,,,,,,,,,,,,,,,,,,,,,,,5c964f54490924001511b867,60684c5b82b3d59c01f84220,2021-04-03_13h14.06.927,Colour_Similarity_Experiment,2020.2.10,Win32,60,60674ec340277cd6a308bc9f,16.82806156,17.00786116,16.69587406,16.67926128,16.66614035,16.69587406,,,,,,,,,,,,,,,,,,,,PF,strong,3,,,,,,,,1,1.38337,,,,,,,,,,,,,,,,,,,,,,,,,,,,8,strong,-102,37,1,0,0,response7disk,5,152,-21,-5,1,0,0,rectangle,-21,-5,1,0,0,6,0,0.00068,-21,-5,1,0,0,0,151,151,152,1,0,,,,,,,,,,,,,,,,,,,,,
,,,,,,,,,,,,,,,,,,,,,,,,,,,,,,,,,,,,,,,,,,5c964f54490924001511b867,60684c5b82b3d59c01f84220,2021-04-03_13h14.06.927,Colour_Similarity_Experiment,2020.2.10,Win32,60,60674ec340277cd6a308bc9f,16.82806156,17.00786116,16.69587406,16.67926128,16.66614035,16.69587406,,,,,,,,,,,,,,,,,,,,PF,weak,3,,,,,,,,3,1.37718,,,,,,,,,,,,,,,,,,,,,,,,,,,,6,weak,-45,-70,1,0,0,response5disk,3,153,0,0,1,0,0,rectangle,0,0,1,0,0,6,7,0.00071,0,0,1,0,0,0,152,152,26,1,0,,,,,,,,,,,,,,,,,,,,,
,,,,,,,,,,,,,,,,,,,,,,,,,,,,,,,,,,,,,,,,,,5c964f54490924001511b867,60684c5b82b3d59c01f84220,2021-04-03_13h14.06.927,Colour_Similarity_Experiment,2020.2.10,Win32,60,60674ec340277cd6a308bc9f,16.82806156,17.00786116,16.69587406,16.67926128,16.66614035,16.69587406,,,,,,,,,,,,,,,,,,,,PF,weak,3,,,,,,,,6,1.310595,,,,,,,,,,,,,,,,,,,,,,,,,,,,8,weak,69,58,1,0,0,response1disk,2,154,9,2,1,0,0,rectangle,9,2,1,0,0,6,2,0.000735,9,2,1,0,0,0,153,153,83,1,0,,,,,,,,,,,,,,,,,,,,,
,,,,,,,,,,,,,,,,,,,,,,,,,,,,,,,,,,,,,,,,,,5c964f54490924001511b867,60684c5b82b3d59c01f84220,2021-04-03_13h14.06.927,Colour_Similarity_Experiment,2020.2.10,Win32,60,60674ec340277cd6a308bc9f,16.82806156,17.00786116,16.69587406,16.67926128,16.66614035,16.69587406,,,,,,,,,,,,,,,,,,,,PF,weak,3,,,,,,,,6,1.299285,,,,,,,,,,,,,,,,,,,,,,,,,,,,9,weak,63,43,1,0,0,response1disk,7,155,-12,-9,1,0,0,rectangle,-12,-9,1,0,0,6,4,0.00093,-12,-9,1,0,0,0,154,154,121,1,0,,,,,,,,,,,,,,,,,,,,,
,,,,,,,,,,,,,,,,,,,,,,,,,,,,,,,,,,,,,,,,,,5c964f54490924001511b867,60684c5b82b3d59c01f84220,2021-04-03_13h14.06.927,Colour_Similarity_Experiment,2020.2.10,Win32,60,60674ec340277cd6a308bc9f,16.82806156,17.00786116,16.69587406,16.67926128,16.66614035,16.69587406,,,,,,,,,,,,,,,,,,,,PF,strong,3,,,,,,,,1,1.59409,,,,,,,,,,,,,,,,,,,,,,,,,,,,1,strong,-86,65,1,0,0,response7disk,9,156,0,-6,1,0,0,rectangle,0,-6,1,0,0,6,4,8E-05,0,-6,1,0,0,0,155,155,123,1,0,,,,,,,,,,,,,,,,,,,,,
,,,,,,,,,,,,,,,,,,,,,,,,,,,,,,,,,,,,,,,,,,5c964f54490924001511b867,60684c5b82b3d59c01f84220,2021-04-03_13h14.06.927,Colour_Similarity_Experiment,2020.2.10,Win32,60,60674ec340277cd6a308bc9f,16.82806156,17.00786116,16.69587406,16.67926128,16.66614035,16.69587406,,,,,,,,,,,,,,,,,,,,PF,weak,3,,,,,,,,2,1.75011,,,,,,,,,,,,,,,,,,,,,,,,,,,,8,weak,-61,-34,1,0,0,response5disk,7,157,13,14,1,0,0,rectangle,13,14,1,0,0,6,3,0.00063,13,14,1,0,0,0,156,156,23,1,0,,,,,,,,,,,,,,,,,,,,,
,,,,,,,,,,,,,,,,,,,,,,,,,,,,,,,,,,,,,,,,,,5c964f54490924001511b867,60684c5b82b3d59c01f84220,2021-04-03_13h14.06.927,Colour_Similarity_Experiment,2020.2.10,Win32,60,60674ec340277cd6a308bc9f,16.82806156,17.00786116,16.69587406,16.67926128,16.66614035,16.69587406,,,,,,,,,,,,,,,,,,,,PF,weak,3,,,,,,,,0,1.16666,,,,,,,,,,,,,,,,,,,,,,,,,,,,2,weak,-68,113,1,0,0,response7disk,2,158,16,-19,1,0,0,rectangle,16,-19,1,0,0,6,2,0.00071,16,-19,1,0,0,0,157,157,14,1,0,,,,,,,,,,,,,,,,,,,,,
,,,,,,,,,,,,,,,,,,,,,,,,,,,,,,,,,,,,,,,,,,5c964f54490924001511b867,60684c5b82b3d59c01f84220,2021-04-03_13h14.06.927,Colour_Similarity_Experiment,2020.2.10,Win32,60,60674ec340277cd6a308bc9f,16.82806156,17.00786116,16.69587406,16.67926128,16.66614035,16.69587406,,,,,,,,,,,,,,,,,,,,PF,strong,3,,,,,,,,6,7.433515,,,,,,,,,,,,,,,,,,,,,,,,,,,,4,strong,67,41,1,0,0,response1disk,7,159,14,7,1,0,0,rectangle,14,7,1,0,0,6,4,0.00055,14,7,1,0,0,0,158,158,87,1,0,,,,,,,,,,,,,,,,,,,,,
,,,,,,,,,,,,,,,,,,,,,,,,,,,,,,,,,,,,,,,,,,5c964f54490924001511b867,60684c5b82b3d59c01f84220,2021-04-03_13h14.06.927,Colour_Similarity_Experiment,2020.2.10,Win32,60,60674ec340277cd6a308bc9f,16.82806156,17.00786116,16.69587406,16.67926128,16.66614035,16.69587406,,,,,,,,,,,,,,,,,,,,PF,strong,3,,,,,,,,0,1.1999,,,,,,,,,,,,,,,,,,,,,,,,,,,,7,strong,-41,68,1,0,0,response7disk,8,160,-7,13,1,0,0,rectangle,-46,-122,1,0,0,3,3,2.249945,0,10,1,0,0,0,159,159,97,1,1,response5disk_3,rectangle,,,,,,,,,,,,,,,,,,,
,,,,,,,,,,,,,,,,,,,,,,,,,,,,,,,,,,,,,,,,,,5c964f54490924001511b867,60684c5b82b3d59c01f84220,2021-04-03_13h14.06.927,Colour_Similarity_Experiment,2020.2.10,Win32,60,60674ec340277cd6a308bc9f,16.82806156,17.00786116,16.69587406,16.67926128,16.66614035,16.69587406,,,,,,,,,,,,,,,,,,,,PF,weak,3,,,,,,,,6,1.34987,,,,,,,,,,,,,,,,,,,,,,,,,,,,3,weak,96,88,1,0,0,response1disk,2,161,9,20,1,0,0,rectangle,-76,-29,1,0,0,3,2,1.28331,-17,-12,1,0,0,0,160,160,36,1,1,response5disk_3,rectangle,,,,,,,,,,,,,,,,,,,
,,,,,,,,,,,,,,,,,,,,,,,,,,,,,,,,,,,,,,,,,,5c964f54490924001511b867,60684c5b82b3d59c01f84220,2021-04-03_13h14.06.927,Colour_Similarity_Experiment,2020.2.10,Win32,60,60674ec340277cd6a308bc9f,16.82806156,17.00786116,16.69587406,16.67926128,16.66614035,16.69587406,,,,,,,,,,,,,,,,,,,,PF,strong,3,,,,,,,,6,2.71671,,,,,,,,,,,,,,,,,,,,,,,,,,,,5,strong,81,52,1,0,0,response1disk,5,162,-9,-9,1,0,0,rectangle,-9,-9,1,0,0,3,4,0.000765,-9,-9,1,0,0,0,161,161,19,1,0,,,,,,,,,,,,,,,,,,,,,
,,,,,,,,,,,,,,,,,,,,,,,,,,,,,,,,,,,,,,,,,,5c964f54490924001511b867,60684c5b82b3d59c01f84220,2021-04-03_13h14.06.927,Colour_Similarity_Experiment,2020.2.10,Win32,60,60674ec340277cd6a308bc9f,16.82806156,17.00786116,16.69587406,16.67926128,16.66614035,16.69587406,,,,,,,,,,,,,,,,,,,,,,,,,,,,,,,,,,,,,,,,,,,,,,,,,,,,,,,,,,,,,,,,,,,,,,,,,,,,,,,,,,,,,,,,,,,,,,,,0,0,0,0,1,,,,,,,,,,,,,,
,,,,,,,,,,,,,,,,,,,,,,,,,,,,,,,,,,,,,,,,,,5c964f54490924001511b867,60684c5b82b3d59c01f84220,2021-04-03_13h14.06.927,Colour_Similarity_Experiment,2020.2.10,Win32,60,60674ec340277cd6a308bc9f,16.82806156,17.00786116,16.69587406,16.67926128,16.66614035,16.69587406,,,,,,,,,,,,,,,,,,,,PF,strong,3,,,,,,,,3,1.466525,,,,,,,,,,,,,,,,,,,,,,,,,,,,5,strong,-28,-78,1,0,0,response5disk,7,163,19,1,1,0,0,rectangle,19,1,1,0,0,3,2,0.00084,19,1,1,0,0,0,0,0,7,1,0,,,,,,,,,,,,,,,,,,,,,
,,,,,,,,,,,,,,,,,,,,,,,,,,,,,,,,,,,,,,,,,,5c964f54490924001511b867,60684c5b82b3d59c01f84220,2021-04-03_13h14.06.927,Colour_Similarity_Experiment,2020.2.10,Win32,60,60674ec340277cd6a308bc9f,16.82806156,17.00786116,16.69587406,16.67926128,16.66614035,16.69587406,,,,,,,,,,,,,,,,,,,,PF,weak,3,,,,,,,,2,1.066915,,,,,,,,,,,,,,,,,,,,,,,,,,,,5,weak,-66,-66,1,0,0,response5disk,2,164,-20,4,1,0,0,rectangle,-20,4,1,0,0,3,1,0.000885,-20,4,1,0,0,0,1,1,129,1,0,,,,,,,,,,,,,,,,,,,,,
,,,,,,,,,,,,,,,,,,,,,,,,,,,,,,,,,,,,,,,,,,5c964f54490924001511b867,60684c5b82b3d59c01f84220,2021-04-03_13h14.06.927,Colour_Similarity_Experiment,2020.2.10,Win32,60,60674ec340277cd6a308bc9f,16.82806156,17.00786116,16.69587406,16.67926128,16.66614035,16.69587406,,,,,,,,,,,,,,,,,,,,PF,weak,3,,,,,,,,1,1.06655,,,,,,,,,,,,,,,,,,,,,,,,,,,,3,weak,-79,47,1,0,0,response7disk,4,165,5,15,1,0,0,rectangle,5,15,1,0,0,3,2,0.000535,5,15,1,0,0,0,2,2,30,1,0,,,,,,,,,,,,,,,,,,,,,
,,,,,,,,,,,,,,,,,,,,,,,,,,,,,,,,,,,,,,,,,,5c964f54490924001511b867,60684c5b82b3d59c01f84220,2021-04-03_13h14.06.927,Colour_Similarity_Experiment,2020.2.10,Win32,60,60674ec340277cd6a308bc9f,16.82806156,17.00786116,16.69587406,16.67926128,16.66614035,16.69587406,,,,,,,,,,,,,,,,,,,,PF,weak,3,,,,,,,,0,0.750215,,,,,,,,,,,,,,,,,,,,,,,,,,,,9,weak,-63,117,1,0,0,response7disk,9,166,-2,6,1,0,0,rectangle,-2,6,1,0,0,3,1,0.00087,-2,6,1,0,0,0,3,3,106,1,0,,,,,,,,,,,,,,,,,,,,,
,,,,,,,,,,,,,,,,,,,,,,,,,,,,,,,,,,,,,,,,,,5c964f54490924001511b867,60684c5b82b3d59c01f84220,2021-04-03_13h14.06.927,Colour_Similarity_Experiment,2020.2.10,Win32,60,60674ec340277cd6a308bc9f,16.82806156,17.00786116,16.69587406,16.67926128,16.66614035,16.69587406,,,,,,,,,,,,,,,,,,,,PF,strong,3,,,,,,,,3,1.550205,,,,,,,,,,,,,,,,,,,,,,,,,,,,3,strong,-48,-78,1,0,0,response5disk,7,167,-5,0,1,0,0,rectangle,-5,0,1,0,0,3,5,0.000825,-5,0,1,0,0,0,4,4,118,1,0,,,,,,,,,,,,,,,,,,,,,
,,,,,,,,,,,,,,,,,,,,,,,,,,,,,,,,,,,,,,,,,,5c964f54490924001511b867,60684c5b82b3d59c01f84220,2021-04-03_13h14.06.927,Colour_Similarity_Experiment,2020.2.10,Win32,60,60674ec340277cd6a308bc9f,16.82806156,17.00786116,16.69587406,16.67926128,16.66614035,16.69587406,,,,,,,,,,,,,,,,,,,,PF,weak,3,,,,,,,,7,1.45011,,,,,,,,,,,,,,,,,,,,,,,,,,,,7,weak,84,91,1,0,0,response1disk,1,168,-4,14,1,0,0,rectangle,-4,14,1,0,0,3,3,0.00066,-4,14,1,0,0,0,5,5,53,1,0,,,,,,,,,,,,,,,,,,,,,
,,,,,,,,,,,,,,,,,,,,,,,,,,,,,,,,,,,,,,,,,,5c964f54490924001511b867,60684c5b82b3d59c01f84220,2021-04-03_13h14.06.927,Colour_Similarity_Experiment,2020.2.10,Win32,60,60674ec340277cd6a308bc9f,16.82806156,17.00786116,16.69587406,16.67926128,16.66614035,16.69587406,,,,,,,,,,,,,,,,,,,,PF,strong,3,,,,,,,,1,3.133325,,,,,,,,,,,,,,,,,,,,,,,,,,,,7,strong,-74,44,1,0,0,response7disk,4,169,14,2,1,0,0,rectangle,14,2,1,0,0,3,7,0.000925,14,2,1,0,0,0,6,6,158,1,0,,,,,,,,,,,,,,,,,,,,,
,,,,,,,,,,,,,,,,,,,,,,,,,,,,,,,,,,,,,,,,,,5c964f54490924001511b867,60684c5b82b3d59c01f84220,2021-04-03_13h14.06.927,Colour_Similarity_Experiment,2020.2.10,Win32,60,60674ec340277cd6a308bc9f,16.82806156,17.00786116,16.69587406,16.67926128,16.66614035,16.69587406,,,,,,,,,,,,,,,,,,,,PF,weak,3,,,,,,,,7,4.433475,,,,,,,,,,,,,,,,,,,,,,,,,,,,1,weak,53,90,1,0,0,response1disk,7,170,-3,-7,1,0,0,rectangle,-3,-7,1,0,0,3,3,0.000645,-3,-7,1,0,0,0,7,7,150,1,0,,,,,,,,,,,,,,,,,,,,,
,,,,,,,,,,,,,,,,,,,,,,,,,,,,,,,,,,,,,,,,,,5c964f54490924001511b867,60684c5b82b3d59c01f84220,2021-04-03_13h14.06.927,Colour_Similarity_Experiment,2020.2.10,Win32,60,60674ec340277cd6a308bc9f,16.82806156,17.00786116,16.69587406,16.67926128,16.66614035,16.69587406,,,,,,,,,,,,,,,,,,,,PF,strong,3,,,,,,,,7,0.96649,,,,,,,,,,,,,,,,,,,,,,,,,,,,2,strong,36,66,1,0,0,response1disk,1,171,16,-14,1,0,0,rectangle,16,-14,1,0,0,3,5,0.000745,16,-14,1,0,0,0,8,8,85,1,0,,,,,,,,,,,,,,,,,,,,,
,,,,,,,,,,,,,,,,,,,,,,,,,,,,,,,,,,,,,,,,,,5c964f54490924001511b867,60684c5b82b3d59c01f84220,2021-04-03_13h14.06.927,Colour_Similarity_Experiment,2020.2.10,Win32,60,60674ec340277cd6a308bc9f,16.82806156,17.00786116,16.69587406,16.67926128,16.66614035,16.69587406,,,,,,,,,,,,,,,,,,,,PF,weak,3,,,,,,,,7,0.88328,,,,,,,,,,,,,,,,,,,,,,,,,,,,3,weak,29,79,1,0,0,response1disk,9,172,0,6,1,0,0,rectangle,0,6,1,0,0,3,7,0.00095,0,6,1,0,0,0,9,9,79,1,0,,,,,,,,,,,,,,,,,,,,,
,,,,,,,,,,,,,,,,,,,,,,,,,,,,,,,,,,,,,,,,,,5c964f54490924001511b867,60684c5b82b3d59c01f84220,2021-04-03_13h14.06.927,Colour_Similarity_Experiment,2020.2.10,Win32,60,60674ec340277cd6a308bc9f,16.82806156,17.00786116,16.69587406,16.67926128,16.66614035,16.69587406,,,,,,,,,,,,,,,,,,,,PF,strong,3,,,,,,,,7,1.050025,,,,,,,,,,,,,,,,,,,,,,,,,,,,2,strong,35,94,1,0,0,response1disk,3,173,-7,-12,1,0,0,rectangle,108,-42,1,0,0,5,5,2.099855,-8,0,1,0,0,0,10,10,104,1,1,response3disk_3,rectangle,,,,,,,,,,,,,,,,,,,
,,,,,,,,,,,,,,,,,,,,,,,,,,,,,,,,,,,,,,,,,,5c964f54490924001511b867,60684c5b82b3d59c01f84220,2021-04-03_13h14.06.927,Colour_Similarity_Experiment,2020.2.10,Win32,60,60674ec340277cd6a308bc9f,16.82806156,17.00786116,16.69587406,16.67926128,16.66614035,16.69587406,,,,,,,,,,,,,,,,,,,,PF,weak,3,,,,,,,,3,1.615075,,,,,,,,,,,,,,,,,,,,,,,,,,,,2,weak,-65,-102,1,0,0,response5disk,3,174,-3,19,1,0,0,rectangle,-3,19,1,0,0,5,7,0.000765,-3,19,1,0,0,0,11,11,69,1,0,,,,,,,,,,,,,,,,,,,,,
,,,,,,,,,,,,,,,,,,,,,,,,,,,,,,,,,,,,,,,,,,5c964f54490924001511b867,60684c5b82b3d59c01f84220,2021-04-03_13h14.06.927,Colour_Similarity_Experiment,2020.2.10,Win32,60,60674ec340277cd6a308bc9f,16.82806156,17.00786116,16.69587406,16.67926128,16.66614035,16.69587406,,,,,,,,,,,,,,,,,,,,PF,weak,3,,,,,,,,3,1.398715,,,,,,,,,,,,,,,,,,,,,,,,,,,,5,weak,-42,-68,1,0,0,response5disk,6,175,-23,0,1,0,0,rectangle,-23,0,1,0,0,5,7,0.000085,-23,0,1,0,0,0,12,12,103,1,0,,,,,,,,,,,,,,,,,,,,,
,,,,,,,,,,,,,,,,,,,,,,,,,,,,,,,,,,,,,,,,,,5c964f54490924001511b867,60684c5b82b3d59c01f84220,2021-04-03_13h14.06.927,Colour_Similarity_Experiment,2020.2.10,Win32,60,60674ec340277cd6a308bc9f,16.82806156,17.00786116,16.69587406,16.67926128,16.66614035,16.69587406,,,,,,,,,,,,,,,,,,,,PF,strong,3,,,,,,,,2,1.48307,,,,,,,,,,,,,,,,,,,,,,,,,,,,2,strong,-83,-51,1,0,0,response5disk,5,176,6,6,1,0,0,rectangle,6,6,1,0,0,5,6,0.0006,6,6,1,0,0,0,13,13,80,1,0,,,,,,,,,,,,,,,,,,,,,
,,,,,,,,,,,,,,,,,,,,,,,,,,,,,,,,,,,,,,,,,,5c964f54490924001511b867,60684c5b82b3d59c01f84220,2021-04-03_13h14.06.927,Colour_Similarity_Experiment,2020.2.10,Win32,60,60674ec340277cd6a308bc9f,16.82806156,17.00786116,16.69587406,16.67926128,16.66614035,16.69587406,,,,,,,,,,,,,,,,,,,,PF,strong,3,,,,,,,,1,1.24393,,,,,,,,,,,,,,,,,,,,,,,,,,,,1,strong,-77,29,1,0,0,response7disk,8,177,10,12,1,0,0,rectangle,10,12,1,0,0,5,5,0.00059,10,12,1,0,0,0,14,14,27,1,0,,,,,,,,,,,,,,,,,,,,,
,,,,,,,,,,,,,,,,,,,,,,,,,,,,,,,,,,,,,,,,,,5c964f54490924001511b867,60684c5b82b3d59c01f84220,2021-04-03_13h14.06.927,Colour_Similarity_Experiment,2020.2.10,Win32,60,60674ec340277cd6a308bc9f,16.82806156,17.00786116,16.69587406,16.67926128,16.66614035,16.69587406,,,,,,,,,,,,,,,,,,,,PF,weak,3,,,,,,,,6,1.277275,,,,,,,,,,,,,,,,,,,,,,,,,,,,8,weak,70,48,1,0,0,response1disk,4,178,-9,-2,1,0,0,rectangle,-9,-2,1,0,0,5,5,9.5E-05,-9,-2,1,0,0,0,15,15,78,1,0,,,,,,,,,,,,,,,,,,,,,
,,,,,,,,,,,,,,,,,,,,,,,,,,,,,,,,,,,,,,,,,,5c964f54490924001511b867,60684c5b82b3d59c01f84220,2021-04-03_13h14.06.927,Colour_Similarity_Experiment,2020.2.10,Win32,60,60674ec340277cd6a308bc9f,16.82806156,17.00786116,16.69587406,16.67926128,16.66614035,16.69587406,,,,,,,,,,,,,,,,,,,,PF,weak,3,,,,,,,,3,2.482775,,,,,,,,,,,,,,,,,,,,,,,,,,,,7,weak,-38,-97,1,0,0,response5disk,5,179,2,11,1,0,0,rectangle,2,11,1,0,0,5,1,0.000765,2,11,1,0,0,0,16,16,92,1,0,,,,,,,,,,,,,,,,,,,,,
,,,,,,,,,,,,,,,,,,,,,,,,,,,,,,,,,,,,,,,,,,5c964f54490924001511b867,60684c5b82b3d59c01f84220,2021-04-03_13h14.06.927,Colour_Similarity_Experiment,2020.2.10,Win32,60,60674ec340277cd6a308bc9f,16.82806156,17.00786116,16.69587406,16.67926128,16.66614035,16.69587406,,,,,,,,,,,,,,,,,,,,PF,weak,3,,,,,,,,0,1.10927,,,,,,,,,,,,,,,,,,,,,,,,,,,,3,weak,-39,86,1,0,0,response7disk,3,180,-3,15,1,0,0,rectangle,-3,15,1,0,0,5,2,0.00086,-3,15,1,0,0,0,17,17,4,1,0,,,,,,,,,,,,,,,,,,,,,
,,,,,,,,,,,,,,,,,,,,,,,,,,,,,,,,,,,,,,,,,,5c964f54490924001511b867,60684c5b82b3d59c01f84220,2021-04-03_13h14.06.927,Colour_Similarity_Experiment,2020.2.10,Win32,60,60674ec340277cd6a308bc9f,16.82806156,17.00786116,16.69587406,16.67926128,16.66614035,16.69587406,,,,,,,,,,,,,,,,,,,,PF,strong,3,,,,,,,,1,16.017255,,,,,,,,,,,,,,,,,,,,,,,,,,,,3,strong,-100,47,1,0,0,response7disk,4,181,-22,1,1,0,0,rectangle,-22,1,1,0,0,5,2,0.000165,-22,1,1,0,0,0,18,18,110,1,0,,,,,,,,,,,,,,,,,,,,,
,,,,,,,,,,,,,,,,,,,,,,,,,,,,,,,,,,,,,,,,,,5c964f54490924001511b867,60684c5b82b3d59c01f84220,2021-04-03_13h14.06.927,Colour_Similarity_Experiment,2020.2.10,Win32,60,60674ec340277cd6a308bc9f,16.82806156,17.00786116,16.69587406,16.67926128,16.66614035,16.69587406,,,,,,,,,,,,,,,,,,,,PF,strong,3,,,,,,,,1,1.2834,,,,,,,,,,,,,,,,,,,,,,,,,,,,1,strong,-63,46,1,0,0,response7disk,4,182,-6,8,1,0,0,rectangle,-6,8,1,0,0,5,2,0.000155,-6,8,1,0,0,0,19,19,135,1,0,,,,,,,,,,,,,,,,,,,,,
,,,,,,,,,,,,,,,,,,,,,,,,,,,,,,,,,,,,,,,,,,5c964f54490924001511b867,60684c5b82b3d59c01f84220,2021-04-03_13h14.06.927,Colour_Similarity_Experiment,2020.2.10,Win32,60,60674ec340277cd6a308bc9f,16.82806156,17.00786116,16.69587406,16.67926128,16.66614035,16.69587406,,,,,,,,,,,,,,,,,,,,PF,strong,3,,,,,,,,2,0.816655,,,,,,,,,,,,,,,,,,,,,,,,,,,,9,strong,-62,-33,1,0,0,response5disk,6,183,-7,-1,1,0,0,rectangle,-7,-1,1,0,0,5,3,0.000755,-7,-1,1,0,0,0,20,20,117,1,0,,,,,,,,,,,,,,,,,,,,,
,,,,,,,,,,,,,,,,,,,,,,,,,,,,,,,,,,,,,,,,,,5c964f54490924001511b867,60684c5b82b3d59c01f84220,2021-04-03_13h14.06.927,Colour_Similarity_Experiment,2020.2.10,Win32,60,60674ec340277cd6a308bc9f,16.82806156,17.00786116,16.69587406,16.67926128,16.66614035,16.69587406,,,,,,,,,,,,,,,,,,,,PF,weak,3,,,,,,,,7,0.949835,,,,,,,,,,,,,,,,,,,,,,,,,,,,4,weak,39,77,1,0,0,response1disk,1,184,12,17,1,0,0,rectangle,12,17,1,0,0,5,6,0.00117,12,17,1,0,0,0,21,21,115,1,0,,,,,,,,,,,,,,,,,,,,,
,,,,,,,,,,,,,,,,,,,,,,,,,,,,,,,,,,,,,,,,,,5c964f54490924001511b867,60684c5b82b3d59c01f84220,2021-04-03_13h14.06.927,Colour_Similarity_Experiment,2020.2.10,Win32,60,60674ec340277cd6a308bc9f,16.82806156,17.00786116,16.69587406,16.67926128,16.66614035,16.69587406,,,,,,,,,,,,,,,,,,,,PF,weak,3,,,,,,,,3,2.09992,,,,,,,,,,,,,,,,,,,,,,,,,,,,9,weak,-48,-101,1,0,0,response5disk,6,185,8,-5,1,0,0,rectangle,8,-5,1,0,0,5,5,0.00086,8,-5,1,0,0,0,22,22,148,1,0,,,,,,,,,,,,,,,,,,,,,
,,,,,,,,,,,,,,,,,,,,,,,,,,,,,,,,,,,,,,,,,,5c964f54490924001511b867,60684c5b82b3d59c01f84220,2021-04-03_13h14.06.927,Colour_Similarity_Experiment,2020.2.10,Win32,60,60674ec340277cd6a308bc9f,16.82806156,17.00786116,16.69587406,16.67926128,16.66614035,16.69587406,,,,,,,,,,,,,,,,,,,,PF,strong,3,,,,,,,,1,1.266635,,,,,,,,,,,,,,,,,,,,,,,,,,,,3,strong,-80,46,1,0,0,response7disk,8,186,-5,2,1,0,0,rectangle,-5,2,1,0,0,5,1,0.00075,-5,2,1,0,0,0,23,23,44,1,0,,,,,,,,,,,,,,,,,,,,,
,,,,,,,,,,,,,,,,,,,,,,,,,,,,,,,,,,,,,,,,,,5c964f54490924001511b867,60684c5b82b3d59c01f84220,2021-04-03_13h14.06.927,Colour_Similarity_Experiment,2020.2.10,Win32,60,60674ec340277cd6a308bc9f,16.82806156,17.00786116,16.69587406,16.67926128,16.66614035,16.69587406,,,,,,,,,,,,,,,,,,,,PF,strong,3,,,,,,,,2,1.550025,,,,,,,,,,,,,,,,,,,,,,,,,,,,6,strong,-66,-22,1,0,0,response5disk,5,187,-11,7,1,0,0,rectangle,-11,7,1,0,0,5,7,0.000775,-11,7,1,0,0,0,24,24,126,1,0,,,,,,,,,,,,,,,,,,,,,
,,,,,,,,,,,,,,,,,,,,,,,,,,,,,,,,,,,,,,,,,,5c964f54490924001511b867,60684c5b82b3d59c01f84220,2021-04-03_13h14.06.927,Colour_Similarity_Experiment,2020.2.10,Win32,60,60674ec340277cd6a308bc9f,16.82806156,17.00786116,16.69587406,16.67926128,16.66614035,16.69587406,,,,,,,,,,,,,,,,,,,,PF,weak,3,,,,,,,,2,9.400385,,,,,,,,,,,,,,,,,,,,,,,,,,,,6,weak,-91,-24,1,0,0,response5disk,8,188,-20,16,1,0,0,rectangle,-20,16,1,0,0,5,5,0.00075,-20,16,1,0,0,0,25,25,64,1,0,,,,,,,,,,,,,,,,,,,,,
,,,,,,,,,,,,,,,,,,,,,,,,,,,,,,,,,,,,,,,,,,5c964f54490924001511b867,60684c5b82b3d59c01f84220,2021-04-03_13h14.06.927,Colour_Similarity_Experiment,2020.2.10,Win32,60,60674ec340277cd6a308bc9f,16.82806156,17.00786116,16.69587406,16.67926128,16.66614035,16.69587406,,,,,,,,,,,,,,,,,,,,PF,strong,3,,,,,,,,6,1.183275,,,,,,,,,,,,,,,,,,,,,,,,,,,,2,strong,77,49,1,0,0,response1disk,6,189,15,14,1,0,0,rectangle,15,14,1,0,0,5,7,0.00068,15,14,1,0,0,0,26,26,40,1,0,,,,,,,,,,,,,,,,,,,,,
,,,,,,,,,,,,,,,,,,,,,,,,,,,,,,,,,,,,,,,,,,5c964f54490924001511b867,60684c5b82b3d59c01f84220,2021-04-03_13h14.06.927,Colour_Similarity_Experiment,2020.2.10,Win32,60,60674ec340277cd6a308bc9f,16.82806156,17.00786116,16.69587406,16.67926128,16.66614035,16.69587406,,,,,,,,,,,,,,,,,,,,PF,weak,3,,,,,,,,6,0.89984,,,,,,,,,,,,,,,,,,,,,,,,,,,,2,weak,73,56,1,0,0,response1disk,6,190,-9,17,1,0,0,rectangle,-9,17,1,0,0,5,3,0.00093,-9,17,1,0,0,0,27,27,113,1,0,,,,,,,,,,,,,,,,,,,,,
,,,,,,,,,,,,,,,,,,,,,,,,,,,,,,,,,,,,,,,,,,5c964f54490924001511b867,60684c5b82b3d59c01f84220,2021-04-03_13h14.06.927,Colour_Similarity_Experiment,2020.2.10,Win32,60,60674ec340277cd6a308bc9f,16.82806156,17.00786116,16.69587406,16.67926128,16.66614035,16.69587406,,,,,,,,,,,,,,,,,,,,PF,weak,3,,,,,,,,0,1.250005,,,,,,,,,,,,,,,,,,,,,,,,,,,,8,weak,-69,125,1,0,0,response7disk,8,191,-2,-7,1,0,0,rectangle,-2,-7,1,0,0,5,6,0.000895,-2,-7,1,0,0,0,28,28,153,1,0,,,,,,,,,,,,,,,,,,,,,
,,,,,,,,,,,,,,,,,,,,,,,,,,,,,,,,,,,,,,,,,,5c964f54490924001511b867,60684c5b82b3d59c01f84220,2021-04-03_13h14.06.927,Colour_Similarity_Experiment,2020.2.10,Win32,60,60674ec340277cd6a308bc9f,16.82806156,17.00786116,16.69587406,16.67926128,16.66614035,16.69587406,,,,,,,,,,,,,,,,,,,,PF,strong,3,,,,,,,,3,2.21668,,,,,,,,,,,,,,,,,,,,,,,,,,,,2,strong,-26,-76,1,0,0,response5disk,7,192,1,12,1,0,0,rectangle,1,12,1,0,0,5,0,0.000735,1,12,1,0,0,0,29,29,63,1,0,,,,,,,,,,,,,,,,,,,,,
,,,,,,,,,,,,,,,,,,,,,,,,,,,,,,,,,,,,,,,,,,5c964f54490924001511b867,60684c5b82b3d59c01f84220,2021-04-03_13h14.06.927,Colour_Similarity_Experiment,2020.2.10,Win32,60,60674ec340277cd6a308bc9f,16.82806156,17.00786116,16.69587406,16.67926128,16.66614035,16.69587406,,,,,,,,,,,,,,,,,,,,PF,strong,3,,,,,,,,0,2.066715,,,,,,,,,,,,,,,,,,,,,,,,,,,,7,strong,-64,118,1,0,0,response7disk,9,193,9,-3,1,0,0,rectangle,9,-3,1,0,0,5,5,0.0007,9,-3,1,0,0,0,30,30,155,1,0,,,,,,,,,,,,,,,,,,,,,
,,,,,,,,,,,,,,,,,,,,,,,,,,,,,,,,,,,,,,,,,,5c964f54490924001511b867,60684c5b82b3d59c01f84220,2021-04-03_13h14.06.927,Colour_Similarity_Experiment,2020.2.10,Win32,60,60674ec340277cd6a308bc9f,16.82806156,17.00786116,16.69587406,16.67926128,16.66614035,16.69587406,,,,,,,,,,,,,,,,,,,,PF,weak,3,,,,,,,,6,1.016645,,,,,,,,,,,,,,,,,,,,,,,,,,,,2,weak,69,55,1,0,0,response1disk,9,194,16,6,1,0,0,rectangle,16,6,1,0,0,5,6,0.00079,16,6,1,0,0,0,31,31,39,1,0,,,,,,,,,,,,,,,,,,,,,
