key_resp.keys,key_resp.rt,key_resp_16.keys,key_resp_16.rt,key_resp_2.keys,key_resp_2.rt,X Scale,ratio_pxpermm,screen_size_x,screen_size_y,testsize,key_resp_3.keys,key_resp_4.keys,key_resp_4.rt,line_size,key_resp_5.keys,key_resp_5.rt,key_resp_6.keys,key_resp_6.rt,key_resp_8.keys,key_resp_8.rt,key_resp_7.keys,key_resp_7.rt,key_resp_12.keys,key_resp_12.rt,key_resp_11.keys,key_resp_11.rt,key_resp_18.keys,key_resp_18.rt,key_resp_21.keys,key_resp_21.rt,key_resp_13.keys,key_resp_13.rt,key_resp_19.keys,key_resp_19.rt,ballposx,viewer_distance,trials.thisRepN,trials.thisTrialN,trials.thisN,trials.thisIndex,trials.ran,participant,session,date,expName,psychopyVersion,OS,frameRate,study_id,realFrameRate1,realFrameRate2,realFrameRate3,realFrameRate4,realFrameRate5,realFrameRate,viewerdistancecm,DVA_to_distance,radius_F,radius_P,r_F,R_P,key_resp_20.keys,key_resp_20.rt,key_resp_14.keys,key_resp_14.rt,key_resp_15.keys,key_resp_15.rt,key_resp_17.keys,key_resp_17.rt,key_resp_9.keys,key_resp_9.rt,key_resp_10.keys,key_resp_10.rt,Colour_1,Ecc,maskCon,mask_frames,mouse_5.x,mouse_5.y,mouse_5.leftButton,mouse_5.midButton,mouse_5.rightButton,mouse_5.clicked_name,Colour_2,similarity,response_time,mouse_10.x,mouse_10.y,mouse_10.leftButton,mouse_10.midButton,mouse_10.rightButton,mouse_10.clicked_name,mouse_7.x,mouse_7.y,mouse_7.leftButton,mouse_7.midButton,mouse_7.rightButton,catchnumberprac,mouse_6.x,mouse_6.y,mouse_6.leftButton,mouse_6.midButton,mouse_6.rightButton,duringprac.thisRepN,duringprac.thisTrialN,duringprac.thisN,duringprac.thisIndex,duringprac.ran,mouse_7.clicked_name,catchprac,mouse_6.clicked_name,key_resp_22.keys,key_resp_22.rt,Colour1,maskCon1,mouse.x,mouse.y,mouse.leftButton,mouse.midButton,mouse.rightButton,mouse.clicked_name,Colour2,trialnumber,mouse_2.x,mouse_2.y,mouse_2.leftButton,mouse_2.midButton,mouse_2.rightButton,mouse_2.clicked_name,mouse_3.x,mouse_3.y,mouse_3.leftButton,mouse_3.midButton,mouse_3.rightButton,catchresponse,catchnumber,response_time_catch,mouse_11.x,mouse_11.y,mouse_11.leftButton,mouse_11.midButton,mouse_11.rightButton,trials_2.thisRepN,trials_2.thisTrialN,trials_2.thisN,trials_2.thisIndex,trials_2.ran,Catch,mouse_3.clicked_name,mouse_11.clicked_name,trials_3.thisRepN,trials_3.thisTrialN,trials_3.thisN,trials_3.thisIndex,trials_3.ran,answer1,rt1,answer2,rt2,answer3,rt3,answer4,rt4,answer5,rt5,answer6,rt6,answer7,rt7
space,15.880285,space,73.80582,space,7.555495,45.9,4.59,297.6034858,167.3202614,1366,,space,31.01811,91.8,space,13.035455,space,5.177625,space,2.929695,space,4.86841,space,6.96702,space,20.245335,space,8.3877,space,39.657825,space,22.28177,return,9.99767,-721.248,1150.356401,0,0,0,0,1,5dc94678880a2965965fc001,606841d91824d1932b9394f5,2021-04-03_11h22.57.685,Colour_Similarity_Experiment,2020.2.10,Win32,60,60674ec340277cd6a308bc9f,16.75731742,16.65054791,16.64227431,16.65179357,16.64241989,16.65054791,,,,,,,,,,,,,,,,,,,,,,,,,,,,,,,,,,,,,,,,,,,,,,,,,,,,,,,,,,,,,,,,,,,,,,,,,,,,,,,,,,,,,,,,,,,,,,,,,,,,,,,,,,,,,,,,,,
,,,,,,,,,,,,,,,,,,,,,,,,,,,,,,,,,return,9.848355,-702.807,1133.621691,1,0,1,0,1,5dc94678880a2965965fc001,606841d91824d1932b9394f5,2021-04-03_11h22.57.685,Colour_Similarity_Experiment,2020.2.10,Win32,60,60674ec340277cd6a308bc9f,16.75731742,16.65054791,16.64227431,16.65179357,16.64241989,16.65054791,,,,,,,,,,,,,,,,,,,,,,,,,,,,,,,,,,,,,,,,,,,,,,,,,,,,,,,,,,,,,,,,,,,,,,,,,,,,,,,,,,,,,,,,,,,,,,,,,,,,,,,,,,,,,,,,,,
,,,,,,,,,,,,,,,,,,,,,,,,,,,,,,,,,return,9.980195,-717.15,1146.637577,2,0,2,0,1,5dc94678880a2965965fc001,606841d91824d1932b9394f5,2021-04-03_11h22.57.685,Colour_Similarity_Experiment,2020.2.10,Win32,60,60674ec340277cd6a308bc9f,16.75731742,16.65054791,16.64227431,16.65179357,16.64241989,16.65054791,,,,,,,,,,,,,,,,,,,,,,,,,,,,,,,,,,,,,,,,,,,,,,,,,,,,,,,,,,,,,,,,,,,,,,,,,,,,,,,,,,,,,,,,,,,,,,,,,,,,,,,,,,,,,,,,,,
,,,,,,,,,,,,,,,,,,,,,,,,,,,,,,,,,return,9.952025,-715.101,1144.778165,3,0,3,0,1,5dc94678880a2965965fc001,606841d91824d1932b9394f5,2021-04-03_11h22.57.685,Colour_Similarity_Experiment,2020.2.10,Win32,60,60674ec340277cd6a308bc9f,16.75731742,16.65054791,16.64227431,16.65179357,16.64241989,16.65054791,,,,,,,,,,,,,,,,,,,,,,,,,,,,,,,,,,,,,,,,,,,,,,,,,,,,,,,,,,,,,,,,,,,,,,,,,,,,,,,,,,,,,,,,,,,,,,,,,,,,,,,,,,,,,,,,,,
,,,,,,,,,,,,,,,,,,,,,,,,,,,,,,,,,return,9.87087,-704.856,1135.481103,4,0,4,0,1,5dc94678880a2965965fc001,606841d91824d1932b9394f5,2021-04-03_11h22.57.685,Colour_Similarity_Experiment,2020.2.10,Win32,60,60674ec340277cd6a308bc9f,16.75731742,16.65054791,16.64227431,16.65179357,16.64241989,16.65054791,,,,,,,,,,,,,,,,,,,,,,,,,,,,,,,,,,,,,,,,,,,,,,,,,,,,,,,,,,,,,,,,,,,,,,,,,,,,,,,,,,,,,,,,,,,,,,,,,,,,,,,,,,,,,,,,,,
,,,,,,,,,,,,,,,,,,,,,,,,,,,,,,,,,,,,,,,,,,5dc94678880a2965965fc001,606841d91824d1932b9394f5,2021-04-03_11h22.57.685,Colour_Similarity_Experiment,2020.2.10,Win32,60,60674ec340277cd6a308bc9f,16.75731742,16.65054791,16.64227431,16.65179357,16.64241989,16.65054791,114,19.8987669,137.0030101,913.3534008,91.33534008,411.0090304,space,4.19245,space,32.53554,space,69.980175,space,13.59976,space,3.84455,space,6.919615,4,PF,weak,3,29,53,1,0,0,response1disk_5,5,7,5.302465,5,-3,1,0,0,rectangle_8,5,-3,1,0,0,6,5,-3,1,0,0,0,0,0,6,1,,,,,,,,,,,,,,,,,,,,,,,,,,,,,,,,,,,,,,,,,,,,,,,,,,,,,,,,,,,,,
,,,,,,,,,,,,,,,,,,,,,,,,,,,,,,,,,,,,,,,,,,5dc94678880a2965965fc001,606841d91824d1932b9394f5,2021-04-03_11h22.57.685,Colour_Similarity_Experiment,2020.2.10,Win32,60,60674ec340277cd6a308bc9f,16.75731742,16.65054791,16.64227431,16.65179357,16.64241989,16.65054791,,,,,,,,,,,,,,,,,,,7,PF,weak,3,-37,108,1,0,0,response7disk_5,4,0,4.461715,8,5,1,0,0,rectangle_8,8,5,1,0,0,6,8,5,1,0,0,0,1,1,4,1,,,,,,,,,,,,,,,,,,,,,,,,,,,,,,,,,,,,,,,,,,,,,,,,,,,,,,,,,,,,,
,,,,,,,,,,,,,,,,,,,,,,,,,,,,,,,,,,,,,,,,,,5dc94678880a2965965fc001,606841d91824d1932b9394f5,2021-04-03_11h22.57.685,Colour_Similarity_Experiment,2020.2.10,Win32,60,60674ec340277cd6a308bc9f,16.75731742,16.65054791,16.64227431,16.65179357,16.64241989,16.65054791,,,,,,,,,,,,,,,,,,,8,PF,weak,3,34,104,1,0,0,response1disk_5,4,7,3.69338,-12,1,1,0,0,rectangle_8,-12,1,1,0,0,6,-12,1,1,0,0,0,2,2,1,1,,,,,,,,,,,,,,,,,,,,,,,,,,,,,,,,,,,,,,,,,,,,,,,,,,,,,,,,,,,,,
,,,,,,,,,,,,,,,,,,,,,,,,,,,,,,,,,,,,,,,,,,5dc94678880a2965965fc001,606841d91824d1932b9394f5,2021-04-03_11h22.57.685,Colour_Similarity_Experiment,2020.2.10,Win32,60,60674ec340277cd6a308bc9f,16.75731742,16.65054791,16.64227431,16.65179357,16.64241989,16.65054791,,,,,,,,,,,,,,,,,,,5,PF,weak,3,37,82,1,0,0,response1disk_5,4,7,1.315535,5,4,1,0,0,rectangle_8,76,25,1,0,0,6,6,5,1,0,0,0,3,3,5,1,response1disk_7,6,rectangle_4,,,,,,,,,,,,,,,,,,,,,,,,,,,,,,,,,,,,,,,,,,,,,,,,,,,,,,,,,,
,,,,,,,,,,,,,,,,,,,,,,,,,,,,,,,,,,,,,,,,,,5dc94678880a2965965fc001,606841d91824d1932b9394f5,2021-04-03_11h22.57.685,Colour_Similarity_Experiment,2020.2.10,Win32,60,60674ec340277cd6a308bc9f,16.75731742,16.65054791,16.64227431,16.65179357,16.64241989,16.65054791,,,,,,,,,,,,,,,,,,,5,PF,strong,3,50,-83,1,0,0,response3disk_5,2,4,4.113,1,-5,1,0,0,rectangle_8,1,-5,1,0,0,6,1,-5,1,0,0,0,4,4,2,1,,,,,,,,,,,,,,,,,,,,,,,,,,,,,,,,,,,,,,,,,,,,,,,,,,,,,,,,,,,,,
,,,,,,,,,,,,,,,,,,,,,,,,,,,,,,,,,,,,,,,,,,5dc94678880a2965965fc001,606841d91824d1932b9394f5,2021-04-03_11h22.57.685,Colour_Similarity_Experiment,2020.2.10,Win32,60,60674ec340277cd6a308bc9f,16.75731742,16.65054791,16.64227431,16.65179357,16.64241989,16.65054791,,,,,,,,,,,,,,,,,,,2,PF,strong,3,32,91,1,0,0,response1disk_5,7,7,2.94682,7,14,1,0,0,rectangle_8,100,44,1,0,0,6,12,-2,1,0,0,0,5,5,0,1,response1disk_7,6,rectangle_4,,,,,,,,,,,,,,,,,,,,,,,,,,,,,,,,,,,,,,,,,,,,,,,,,,,,,,,,,,
,,,,,,,,,,,,,,,,,,,,,,,,,,,,,,,,,,,,,,,,,,5dc94678880a2965965fc001,606841d91824d1932b9394f5,2021-04-03_11h22.57.685,Colour_Similarity_Experiment,2020.2.10,Win32,60,60674ec340277cd6a308bc9f,16.75731742,16.65054791,16.64227431,16.65179357,16.64241989,16.65054791,,,,,,,,,,,,,,,,,,,8,PF,strong,3,-48,85,1,0,0,response7disk_5,8,0,2.04906,3,7,1,0,0,rectangle_8,3,7,1,0,0,6,3,7,1,0,0,0,6,6,3,1,,,,,,,,,,,,,,,,,,,,,,,,,,,,,,,,,,,,,,,,,,,,,,,,,,,,,,,,,,,,,
,,,,,,,,,,,,,,,,,,,,,,,,,,,,,,,,,,,,,,,,,,5dc94678880a2965965fc001,606841d91824d1932b9394f5,2021-04-03_11h22.57.685,Colour_Similarity_Experiment,2020.2.10,Win32,60,60674ec340277cd6a308bc9f,16.75731742,16.65054791,16.64227431,16.65179357,16.64241989,16.65054791,,,,,,,,,,,,,,,,,,,,PF,weak,3,,,,,,,,7,1.50022,,,,,,,,,,,,,,,,,,,,,,,,,,space,3.49418,2,weak,46,73,1,0,0,response1disk,6,1,21,4,1,0,0,rectangle,21,4,1,0,0,,3,0.00419,21,4,1,0,0,0,0,0,113,1,0,,,,,,,,,,,,,,,,,,,,,
,,,,,,,,,,,,,,,,,,,,,,,,,,,,,,,,,,,,,,,,,,5dc94678880a2965965fc001,606841d91824d1932b9394f5,2021-04-03_11h22.57.685,Colour_Similarity_Experiment,2020.2.10,Win32,60,60674ec340277cd6a308bc9f,16.75731742,16.65054791,16.64227431,16.65179357,16.64241989,16.65054791,,,,,,,,,,,,,,,,,,,,PF,strong,3,,,,,,,,6,1.13227,,,,,,,,,,,,,,,,,,,,,,,,,,,,6,strong,73,34,1,0,0,response1disk,5,2,17,-1,1,0,0,rectangle,17,-1,1,0,0,,1,0.00283,17,-1,1,0,0,0,1,1,126,1,0,,,,,,,,,,,,,,,,,,,,,
,,,,,,,,,,,,,,,,,,,,,,,,,,,,,,,,,,,,,,,,,,5dc94678880a2965965fc001,606841d91824d1932b9394f5,2021-04-03_11h22.57.685,Colour_Similarity_Experiment,2020.2.10,Win32,60,60674ec340277cd6a308bc9f,16.75731742,16.65054791,16.64227431,16.65179357,16.64241989,16.65054791,,,,,,,,,,,,,,,,,,,,PF,weak,3,,,,,,,,7,1.66495,,,,,,,,,,,,,,,,,,,,,,,,,,,,1,weak,47,74,1,0,0,response1disk,6,3,9,6,1,0,0,rectangle,9,6,1,0,0,,6,0.00293,9,6,1,0,0,0,2,2,144,1,0,,,,,,,,,,,,,,,,,,,,,
,,,,,,,,,,,,,,,,,,,,,,,,,,,,,,,,,,,,,,,,,,5dc94678880a2965965fc001,606841d91824d1932b9394f5,2021-04-03_11h22.57.685,Colour_Similarity_Experiment,2020.2.10,Win32,60,60674ec340277cd6a308bc9f,16.75731742,16.65054791,16.64227431,16.65179357,16.64241989,16.65054791,,,,,,,,,,,,,,,,,,,,PF,strong,3,,,,,,,,7,1.382415,,,,,,,,,,,,,,,,,,,,,,,,,,,,3,strong,36,67,1,0,0,response1disk,8,4,5,3,1,0,0,rectangle,5,3,1,0,0,,4,0.00244,5,3,1,0,0,0,3,3,44,1,0,,,,,,,,,,,,,,,,,,,,,
,,,,,,,,,,,,,,,,,,,,,,,,,,,,,,,,,,,,,,,,,,5dc94678880a2965965fc001,606841d91824d1932b9394f5,2021-04-03_11h22.57.685,Colour_Similarity_Experiment,2020.2.10,Win32,60,60674ec340277cd6a308bc9f,16.75731742,16.65054791,16.64227431,16.65179357,16.64241989,16.65054791,,,,,,,,,,,,,,,,,,,,PF,strong,3,,,,,,,,7,1.082675,,,,,,,,,,,,,,,,,,,,,,,,,,,,8,strong,38,66,1,0,0,response1disk,2,5,-5,8,1,0,0,rectangle,-5,8,1,0,0,,4,0.000435,-5,8,1,0,0,0,4,4,22,1,0,,,,,,,,,,,,,,,,,,,,,
,,,,,,,,,,,,,,,,,,,,,,,,,,,,,,,,,,,,,,,,,,5dc94678880a2965965fc001,606841d91824d1932b9394f5,2021-04-03_11h22.57.685,Colour_Similarity_Experiment,2020.2.10,Win32,60,60674ec340277cd6a308bc9f,16.75731742,16.65054791,16.64227431,16.65179357,16.64241989,16.65054791,,,,,,,,,,,,,,,,,,,,PF,weak,3,,,,,,,,3,1.91537,,,,,,,,,,,,,,,,,,,,,,,,,,,,7,weak,-27,-95,1,0,0,response5disk,5,6,-15,-1,1,0,0,rectangle,-15,-1,1,0,0,,6,0.00341,-15,-1,1,0,0,0,5,5,92,1,0,,,,,,,,,,,,,,,,,,,,,
,,,,,,,,,,,,,,,,,,,,,,,,,,,,,,,,,,,,,,,,,,5dc94678880a2965965fc001,606841d91824d1932b9394f5,2021-04-03_11h22.57.685,Colour_Similarity_Experiment,2020.2.10,Win32,60,60674ec340277cd6a308bc9f,16.75731742,16.65054791,16.64227431,16.65179357,16.64241989,16.65054791,,,,,,,,,,,,,,,,,,,,PF,weak,3,,,,,,,,6,1.48189,,,,,,,,,,,,,,,,,,,,,,,,,,,,2,weak,54,28,1,0,0,response1disk,1,7,8,-7,1,0,0,rectangle,8,-7,1,0,0,,0,0.00284,8,-7,1,0,0,0,6,6,9,1,0,,,,,,,,,,,,,,,,,,,,,
,,,,,,,,,,,,,,,,,,,,,,,,,,,,,,,,,,,,,,,,,,5dc94678880a2965965fc001,606841d91824d1932b9394f5,2021-04-03_11h22.57.685,Colour_Similarity_Experiment,2020.2.10,Win32,60,60674ec340277cd6a308bc9f,16.75731742,16.65054791,16.64227431,16.65179357,16.64241989,16.65054791,,,,,,,,,,,,,,,,,,,,PF,weak,3,,,,,,,,4,1.69782,,,,,,,,,,,,,,,,,,,,,,,,,,,,5,weak,33,-80,1,0,0,response3disk,4,8,-2,3,1,0,0,rectangle,-2,3,1,0,0,,5,0.003335,-2,3,1,0,0,0,7,7,54,1,0,,,,,,,,,,,,,,,,,,,,,
,,,,,,,,,,,,,,,,,,,,,,,,,,,,,,,,,,,,,,,,,,5dc94678880a2965965fc001,606841d91824d1932b9394f5,2021-04-03_11h22.57.685,Colour_Similarity_Experiment,2020.2.10,Win32,60,60674ec340277cd6a308bc9f,16.75731742,16.65054791,16.64227431,16.65179357,16.64241989,16.65054791,,,,,,,,,,,,,,,,,,,,PF,weak,3,,,,,,,,6,1.615715,,,,,,,,,,,,,,,,,,,,,,,,,,,,1,weak,84,37,1,0,0,response1disk,5,9,19,-9,1,0,0,rectangle,19,-9,1,0,0,,6,0.00272,19,-9,1,0,0,0,8,8,28,1,0,,,,,,,,,,,,,,,,,,,,,
,,,,,,,,,,,,,,,,,,,,,,,,,,,,,,,,,,,,,,,,,,5dc94678880a2965965fc001,606841d91824d1932b9394f5,2021-04-03_11h22.57.685,Colour_Similarity_Experiment,2020.2.10,Win32,60,60674ec340277cd6a308bc9f,16.75731742,16.65054791,16.64227431,16.65179357,16.64241989,16.65054791,,,,,,,,,,,,,,,,,,,,PF,strong,3,,,,,,,,7,1.698345,,,,,,,,,,,,,,,,,,,,,,,,,,,,1,strong,40,86,1,0,0,response1disk,7,10,20,0,1,0,0,rectangle,20,0,1,0,0,,4,0.00339,20,0,1,0,0,0,9,9,137,1,0,,,,,,,,,,,,,,,,,,,,,
,,,,,,,,,,,,,,,,,,,,,,,,,,,,,,,,,,,,,,,,,,5dc94678880a2965965fc001,606841d91824d1932b9394f5,2021-04-03_11h22.57.685,Colour_Similarity_Experiment,2020.2.10,Win32,60,60674ec340277cd6a308bc9f,16.75731742,16.65054791,16.64227431,16.65179357,16.64241989,16.65054791,,,,,,,,,,,,,,,,,,,,PF,strong,3,,,,,,,,2,2.21506,,,,,,,,,,,,,,,,,,,,,,,,,,,,5,strong,-73,-46,1,0,0,response5disk,4,11,0,-4,1,0,0,rectangle,0,-4,1,0,0,,6,0.00377,0,-4,1,0,0,0,10,10,8,1,0,,,,,,,,,,,,,,,,,,,,,
,,,,,,,,,,,,,,,,,,,,,,,,,,,,,,,,,,,,,,,,,,5dc94678880a2965965fc001,606841d91824d1932b9394f5,2021-04-03_11h22.57.685,Colour_Similarity_Experiment,2020.2.10,Win32,60,60674ec340277cd6a308bc9f,16.75731742,16.65054791,16.64227431,16.65179357,16.64241989,16.65054791,,,,,,,,,,,,,,,,,,,,PF,weak,3,,,,,,,,3,1.33179,,,,,,,,,,,,,,,,,,,,,,,,,,,,6,weak,-39,-81,1,0,0,response5disk,9,12,5,-4,1,0,0,rectangle,5,-4,1,0,0,,5,0.00329,5,-4,1,0,0,0,11,11,45,1,0,,,,,,,,,,,,,,,,,,,,,
,,,,,,,,,,,,,,,,,,,,,,,,,,,,,,,,,,,,,,,,,,5dc94678880a2965965fc001,606841d91824d1932b9394f5,2021-04-03_11h22.57.685,Colour_Similarity_Experiment,2020.2.10,Win32,60,60674ec340277cd6a308bc9f,16.75731742,16.65054791,16.64227431,16.65179357,16.64241989,16.65054791,,,,,,,,,,,,,,,,,,,,PF,strong,3,,,,,,,,6,1.246055,,,,,,,,,,,,,,,,,,,,,,,,,,,,1,strong,63,36,1,0,0,response1disk,8,13,12,0,1,0,0,rectangle,12,0,1,0,0,,6,0.0025,12,0,1,0,0,0,12,12,27,1,0,,,,,,,,,,,,,,,,,,,,,
,,,,,,,,,,,,,,,,,,,,,,,,,,,,,,,,,,,,,,,,,,5dc94678880a2965965fc001,606841d91824d1932b9394f5,2021-04-03_11h22.57.685,Colour_Similarity_Experiment,2020.2.10,Win32,60,60674ec340277cd6a308bc9f,16.75731742,16.65054791,16.64227431,16.65179357,16.64241989,16.65054791,,,,,,,,,,,,,,,,,,,,PF,weak,3,,,,,,,,7,1.7646,,,,,,,,,,,,,,,,,,,,,,,,,,,,6,weak,39,74,1,0,0,response1disk,5,14,7,1,1,0,0,rectangle,7,1,1,0,0,,3,0.003385,7,1,1,0,0,0,13,13,59,1,0,,,,,,,,,,,,,,,,,,,,,
,,,,,,,,,,,,,,,,,,,,,,,,,,,,,,,,,,,,,,,,,,5dc94678880a2965965fc001,606841d91824d1932b9394f5,2021-04-03_11h22.57.685,Colour_Similarity_Experiment,2020.2.10,Win32,60,60674ec340277cd6a308bc9f,16.75731742,16.65054791,16.64227431,16.65179357,16.64241989,16.65054791,,,,,,,,,,,,,,,,,,,,PF,weak,3,,,,,,,,4,3.11304,,,,,,,,,,,,,,,,,,,,,,,,,,,,1,weak,45,-80,1,0,0,response3disk,8,15,-9,-2,1,0,0,rectangle,-9,-2,1,0,0,,2,0.00357,-9,-2,1,0,0,0,14,14,65,1,0,,,,,,,,,,,,,,,,,,,,,
,,,,,,,,,,,,,,,,,,,,,,,,,,,,,,,,,,,,,,,,,,5dc94678880a2965965fc001,606841d91824d1932b9394f5,2021-04-03_11h22.57.685,Colour_Similarity_Experiment,2020.2.10,Win32,60,60674ec340277cd6a308bc9f,16.75731742,16.65054791,16.64227431,16.65179357,16.64241989,16.65054791,,,,,,,,,,,,,,,,,,,,PF,weak,3,,,,,,,,2,1.19911,,,,,,,,,,,,,,,,,,,,,,,,,,,,8,weak,-76,-36,1,0,0,response5disk,8,16,15,7,1,0,0,rectangle,15,7,1,0,0,,4,0.003125,15,7,1,0,0,0,15,15,153,1,0,,,,,,,,,,,,,,,,,,,,,
,,,,,,,,,,,,,,,,,,,,,,,,,,,,,,,,,,,,,,,,,,5dc94678880a2965965fc001,606841d91824d1932b9394f5,2021-04-03_11h22.57.685,Colour_Similarity_Experiment,2020.2.10,Win32,60,60674ec340277cd6a308bc9f,16.75731742,16.65054791,16.64227431,16.65179357,16.64241989,16.65054791,,,,,,,,,,,,,,,,,,,,PF,weak,3,,,,,,,,3,1.615485,,,,,,,,,,,,,,,,,,,,,,,,,,,,7,weak,-41,-89,1,0,0,response5disk,4,17,4,-3,1,0,0,rectangle,4,-3,1,0,0,,4,0.00027,4,-3,1,0,0,0,16,16,43,1,0,,,,,,,,,,,,,,,,,,,,,
,,,,,,,,,,,,,,,,,,,,,,,,,,,,,,,,,,,,,,,,,,5dc94678880a2965965fc001,606841d91824d1932b9394f5,2021-04-03_11h22.57.685,Colour_Similarity_Experiment,2020.2.10,Win32,60,60674ec340277cd6a308bc9f,16.75731742,16.65054791,16.64227431,16.65179357,16.64241989,16.65054791,,,,,,,,,,,,,,,,,,,,PF,weak,3,,,,,,,,3,0.84866,,,,,,,,,,,,,,,,,,,,,,,,,,,,9,weak,-42,-79,1,0,0,response5disk,9,18,-4,-4,1,0,0,rectangle,-4,-4,1,0,0,,2,0.002225,-4,-4,1,0,0,0,17,17,106,1,0,,,,,,,,,,,,,,,,,,,,,
,,,,,,,,,,,,,,,,,,,,,,,,,,,,,,,,,,,,,,,,,,5dc94678880a2965965fc001,606841d91824d1932b9394f5,2021-04-03_11h22.57.685,Colour_Similarity_Experiment,2020.2.10,Win32,60,60674ec340277cd6a308bc9f,16.75731742,16.65054791,16.64227431,16.65179357,16.64241989,16.65054791,,,,,,,,,,,,,,,,,,,,PF,strong,3,,,,,,,,6,0.949375,,,,,,,,,,,,,,,,,,,,,,,,,,,,7,strong,65,37,1,0,0,response1disk,4,19,18,-8,1,0,0,rectangle,18,-8,1,0,0,,1,0.004075,18,-8,1,0,0,0,18,18,158,1,0,,,,,,,,,,,,,,,,,,,,,
,,,,,,,,,,,,,,,,,,,,,,,,,,,,,,,,,,,,,,,,,,5dc94678880a2965965fc001,606841d91824d1932b9394f5,2021-04-03_11h22.57.685,Colour_Similarity_Experiment,2020.2.10,Win32,60,60674ec340277cd6a308bc9f,16.75731742,16.65054791,16.64227431,16.65179357,16.64241989,16.65054791,,,,,,,,,,,,,,,,,,,,PF,weak,3,,,,,,,,4,0.865805,,,,,,,,,,,,,,,,,,,,,,,,,,,,7,weak,50,-91,1,0,0,response3disk,3,20,-10,4,1,0,0,rectangle,-10,4,1,0,0,,0,0.00404,-10,4,1,0,0,0,19,19,81,1,0,,,,,,,,,,,,,,,,,,,,,
,,,,,,,,,,,,,,,,,,,,,,,,,,,,,,,,,,,,,,,,,,5dc94678880a2965965fc001,606841d91824d1932b9394f5,2021-04-03_11h22.57.685,Colour_Similarity_Experiment,2020.2.10,Win32,60,60674ec340277cd6a308bc9f,16.75731742,16.65054791,16.64227431,16.65179357,16.64241989,16.65054791,,,,,,,,,,,,,,,,,,,,PF,strong,3,,,,,,,,7,1.39895,,,,,,,,,,,,,,,,,,,,,,,,,,,,3,strong,36,59,1,0,0,response1disk,2,21,-3,5,1,0,0,rectangle,-3,5,1,0,0,,5,0.0021,-3,5,1,0,0,0,20,20,93,1,0,,,,,,,,,,,,,,,,,,,,,
,,,,,,,,,,,,,,,,,,,,,,,,,,,,,,,,,,,,,,,,,,5dc94678880a2965965fc001,606841d91824d1932b9394f5,2021-04-03_11h22.57.685,Colour_Similarity_Experiment,2020.2.10,Win32,60,60674ec340277cd6a308bc9f,16.75731742,16.65054791,16.64227431,16.65179357,16.64241989,16.65054791,,,,,,,,,,,,,,,,,,,,PF,strong,3,,,,,,,,6,1.212965,,,,,,,,,,,,,,,,,,,,,,,,,,,,2,strong,92,33,1,0,0,response1disk,8,22,16,-5,1,0,0,rectangle,16,-5,1,0,0,,1,0.001885,16,-5,1,0,0,0,21,21,62,1,0,,,,,,,,,,,,,,,,,,,,,
,,,,,,,,,,,,,,,,,,,,,,,,,,,,,,,,,,,,,,,,,,5dc94678880a2965965fc001,606841d91824d1932b9394f5,2021-04-03_11h22.57.685,Colour_Similarity_Experiment,2020.2.10,Win32,60,60674ec340277cd6a308bc9f,16.75731742,16.65054791,16.64227431,16.65179357,16.64241989,16.65054791,,,,,,,,,,,,,,,,,,,,PF,strong,3,,,,,,,,4,0.64951,,,,,,,,,,,,,,,,,,,,,,,,,,,,2,strong,28,-53,1,0,0,response3disk,9,23,0,-6,1,0,0,rectangle,0,-6,1,0,0,,3,0.00338,0,-6,1,0,0,0,22,22,72,1,0,,,,,,,,,,,,,,,,,,,,,
,,,,,,,,,,,,,,,,,,,,,,,,,,,,,,,,,,,,,,,,,,5dc94678880a2965965fc001,606841d91824d1932b9394f5,2021-04-03_11h22.57.685,Colour_Similarity_Experiment,2020.2.10,Win32,60,60674ec340277cd6a308bc9f,16.75731742,16.65054791,16.64227431,16.65179357,16.64241989,16.65054791,,,,,,,,,,,,,,,,,,,,PF,weak,3,,,,,,,,3,0.532505,,,,,,,,,,,,,,,,,,,,,,,,,,,,4,weak,-29,-49,1,0,0,response5disk,9,24,-12,3,1,0,0,rectangle,-12,3,1,0,0,,6,0.00376,-12,3,1,0,0,0,23,23,75,1,0,,,,,,,,,,,,,,,,,,,,,
,,,,,,,,,,,,,,,,,,,,,,,,,,,,,,,,,,,,,,,,,,5dc94678880a2965965fc001,606841d91824d1932b9394f5,2021-04-03_11h22.57.685,Colour_Similarity_Experiment,2020.2.10,Win32,60,60674ec340277cd6a308bc9f,16.75731742,16.65054791,16.64227431,16.65179357,16.64241989,16.65054791,,,,,,,,,,,,,,,,,,,,PF,strong,3,,,,,,,,1,0.66672,,,,,,,,,,,,,,,,,,,,,,,,,,,,8,strong,-53,27,1,0,0,response7disk,6,25,-3,5,1,0,0,rectangle,-3,5,1,0,0,,0,0.0032,-3,5,1,0,0,0,24,24,37,1,0,,,,,,,,,,,,,,,,,,,,,
,,,,,,,,,,,,,,,,,,,,,,,,,,,,,,,,,,,,,,,,,,5dc94678880a2965965fc001,606841d91824d1932b9394f5,2021-04-03_11h22.57.685,Colour_Similarity_Experiment,2020.2.10,Win32,60,60674ec340277cd6a308bc9f,16.75731742,16.65054791,16.64227431,16.65179357,16.64241989,16.65054791,,,,,,,,,,,,,,,,,,,,PF,weak,3,,,,,,,,6,0.699685,,,,,,,,,,,,,,,,,,,,,,,,,,,,1,weak,67,26,1,0,0,response1disk,1,26,1,4,1,0,0,rectangle,47,96,1,0,0,7,7,1.664045,-1,1,1,0,0,0,25,25,76,1,1,response1disk_3,rectangle,,,,,,,,,,,,,,,,,,,
,,,,,,,,,,,,,,,,,,,,,,,,,,,,,,,,,,,,,,,,,,5dc94678880a2965965fc001,606841d91824d1932b9394f5,2021-04-03_11h22.57.685,Colour_Similarity_Experiment,2020.2.10,Win32,60,60674ec340277cd6a308bc9f,16.75731742,16.65054791,16.64227431,16.65179357,16.64241989,16.65054791,,,,,,,,,,,,,,,,,,,,PF,strong,3,,,,,,,,4,0.89887,,,,,,,,,,,,,,,,,,,,,,,,,,,,3,strong,42,-72,1,0,0,response3disk,4,27,-6,-6,1,0,0,rectangle,-6,-6,1,0,0,7,3,0.00323,-6,-6,1,0,0,0,26,26,110,1,0,,,,,,,,,,,,,,,,,,,,,
,,,,,,,,,,,,,,,,,,,,,,,,,,,,,,,,,,,,,,,,,,5dc94678880a2965965fc001,606841d91824d1932b9394f5,2021-04-03_11h22.57.685,Colour_Similarity_Experiment,2020.2.10,Win32,60,60674ec340277cd6a308bc9f,16.75731742,16.65054791,16.64227431,16.65179357,16.64241989,16.65054791,,,,,,,,,,,,,,,,,,,,PF,weak,3,,,,,,,,3,0.632875,,,,,,,,,,,,,,,,,,,,,,,,,,,,5,weak,-35,-63,1,0,0,response5disk,3,28,3,4,1,0,0,rectangle,3,4,1,0,0,7,3,0.000305,3,4,1,0,0,0,27,27,109,1,0,,,,,,,,,,,,,,,,,,,,,
,,,,,,,,,,,,,,,,,,,,,,,,,,,,,,,,,,,,,,,,,,5dc94678880a2965965fc001,606841d91824d1932b9394f5,2021-04-03_11h22.57.685,Colour_Similarity_Experiment,2020.2.10,Win32,60,60674ec340277cd6a308bc9f,16.75731742,16.65054791,16.64227431,16.65179357,16.64241989,16.65054791,,,,,,,,,,,,,,,,,,,,PF,weak,3,,,,,,,,5,0.667475,,,,,,,,,,,,,,,,,,,,,,,,,,,,2,weak,101,-53,1,0,0,response3disk,3,29,3,10,1,0,0,rectangle,3,10,1,0,0,7,1,0.00209,3,10,1,0,0,0,28,28,69,1,0,,,,,,,,,,,,,,,,,,,,,
,,,,,,,,,,,,,,,,,,,,,,,,,,,,,,,,,,,,,,,,,,5dc94678880a2965965fc001,606841d91824d1932b9394f5,2021-04-03_11h22.57.685,Colour_Similarity_Experiment,2020.2.10,Win32,60,60674ec340277cd6a308bc9f,16.75731742,16.65054791,16.64227431,16.65179357,16.64241989,16.65054791,,,,,,,,,,,,,,,,,,,,PF,strong,3,,,,,,,,1,0.85169,,,,,,,,,,,,,,,,,,,,,,,,,,,,4,strong,-74,31,1,0,0,response7disk,8,30,5,5,1,0,0,rectangle,5,5,1,0,0,7,1,0.000285,5,5,1,0,0,0,29,29,35,1,0,,,,,,,,,,,,,,,,,,,,,
,,,,,,,,,,,,,,,,,,,,,,,,,,,,,,,,,,,,,,,,,,5dc94678880a2965965fc001,606841d91824d1932b9394f5,2021-04-03_11h22.57.685,Colour_Similarity_Experiment,2020.2.10,Win32,60,60674ec340277cd6a308bc9f,16.75731742,16.65054791,16.64227431,16.65179357,16.64241989,16.65054791,,,,,,,,,,,,,,,,,,,,PF,strong,3,,,,,,,,3,0.716525,,,,,,,,,,,,,,,,,,,,,,,,,,,,7,strong,-40,-90,1,0,0,response5disk,3,31,-10,-2,1,0,0,rectangle,-10,-2,1,0,0,7,5,0.0011,-10,-2,1,0,0,0,30,30,73,1,0,,,,,,,,,,,,,,,,,,,,,
,,,,,,,,,,,,,,,,,,,,,,,,,,,,,,,,,,,,,,,,,,5dc94678880a2965965fc001,606841d91824d1932b9394f5,2021-04-03_11h22.57.685,Colour_Similarity_Experiment,2020.2.10,Win32,60,60674ec340277cd6a308bc9f,16.75731742,16.65054791,16.64227431,16.65179357,16.64241989,16.65054791,,,,,,,,,,,,,,,,,,,,PF,strong,3,,,,,,,,6,1.44866,,,,,,,,,,,,,,,,,,,,,,,,,,,,8,strong,58,33,1,0,0,response1disk,1,32,-9,1,1,0,0,rectangle,-9,1,1,0,0,7,1,0.00194,-9,1,1,0,0,0,31,31,20,1,0,,,,,,,,,,,,,,,,,,,,,
,,,,,,,,,,,,,,,,,,,,,,,,,,,,,,,,,,,,,,,,,,5dc94678880a2965965fc001,606841d91824d1932b9394f5,2021-04-03_11h22.57.685,Colour_Similarity_Experiment,2020.2.10,Win32,60,60674ec340277cd6a308bc9f,16.75731742,16.65054791,16.64227431,16.65179357,16.64241989,16.65054791,,,,,,,,,,,,,,,,,,,,PF,strong,3,,,,,,,,3,0.71629,,,,,,,,,,,,,,,,,,,,,,,,,,,,9,strong,-31,-64,1,0,0,response5disk,5,33,16,-3,1,0,0,rectangle,16,-3,1,0,0,7,6,0.0034,16,-3,1,0,0,0,32,32,128,1,0,,,,,,,,,,,,,,,,,,,,,
,,,,,,,,,,,,,,,,,,,,,,,,,,,,,,,,,,,,,,,,,,5dc94678880a2965965fc001,606841d91824d1932b9394f5,2021-04-03_11h22.57.685,Colour_Similarity_Experiment,2020.2.10,Win32,60,60674ec340277cd6a308bc9f,16.75731742,16.65054791,16.64227431,16.65179357,16.64241989,16.65054791,,,,,,,,,,,,,,,,,,,,PF,strong,3,,,,,,,,4,0.850085,,,,,,,,,,,,,,,,,,,,,,,,,,,,4,strong,39,-65,1,0,0,response3disk,2,34,3,0,1,0,0,rectangle,3,0,1,0,0,7,4,0.002105,3,0,1,0,0,0,33,33,13,1,0,,,,,,,,,,,,,,,,,,,,,
,,,,,,,,,,,,,,,,,,,,,,,,,,,,,,,,,,,,,,,,,,5dc94678880a2965965fc001,606841d91824d1932b9394f5,2021-04-03_11h22.57.685,Colour_Similarity_Experiment,2020.2.10,Win32,60,60674ec340277cd6a308bc9f,16.75731742,16.65054791,16.64227431,16.65179357,16.64241989,16.65054791,,,,,,,,,,,,,,,,,,,,PF,strong,3,,,,,,,,5,1.26559,,,,,,,,,,,,,,,,,,,,,,,,,,,,6,strong,97,-32,1,0,0,response3disk,2,35,11,-13,1,0,0,rectangle,11,-13,1,0,0,7,5,0.002865,11,-13,1,0,0,0,34,34,112,1,0,,,,,,,,,,,,,,,,,,,,,
,,,,,,,,,,,,,,,,,,,,,,,,,,,,,,,,,,,,,,,,,,5dc94678880a2965965fc001,606841d91824d1932b9394f5,2021-04-03_11h22.57.685,Colour_Similarity_Experiment,2020.2.10,Win32,60,60674ec340277cd6a308bc9f,16.75731742,16.65054791,16.64227431,16.65179357,16.64241989,16.65054791,,,,,,,,,,,,,,,,,,,,PF,weak,3,,,,,,,,6,1.249155,,,,,,,,,,,,,,,,,,,,,,,,,,,,4,weak,81,29,1,0,0,response1disk,2,36,9,1,1,0,0,rectangle,9,1,1,0,0,7,7,0.002305,9,1,1,0,0,0,35,35,108,1,0,,,,,,,,,,,,,,,,,,,,,
,,,,,,,,,,,,,,,,,,,,,,,,,,,,,,,,,,,,,,,,,,5dc94678880a2965965fc001,606841d91824d1932b9394f5,2021-04-03_11h22.57.685,Colour_Similarity_Experiment,2020.2.10,Win32,60,60674ec340277cd6a308bc9f,16.75731742,16.65054791,16.64227431,16.65179357,16.64241989,16.65054791,,,,,,,,,,,,,,,,,,,,PF,weak,3,,,,,,,,7,1.298985,,,,,,,,,,,,,,,,,,,,,,,,,,,,4,weak,29,104,1,0,0,response1disk,5,37,20,-7,1,0,0,rectangle,20,-7,1,0,0,7,7,0.00065,20,-7,1,0,0,0,36,36,49,1,0,,,,,,,,,,,,,,,,,,,,,
,,,,,,,,,,,,,,,,,,,,,,,,,,,,,,,,,,,,,,,,,,5dc94678880a2965965fc001,606841d91824d1932b9394f5,2021-04-03_11h22.57.685,Colour_Similarity_Experiment,2020.2.10,Win32,60,60674ec340277cd6a308bc9f,16.75731742,16.65054791,16.64227431,16.65179357,16.64241989,16.65054791,,,,,,,,,,,,,,,,,,,,PF,strong,3,,,,,,,,3,1.032885,,,,,,,,,,,,,,,,,,,,,,,,,,,,4,strong,-33,-67,1,0,0,response5disk,3,38,-5,1,1,0,0,rectangle,-5,1,1,0,0,7,4,0.003215,-5,1,1,0,0,0,37,37,77,1,0,,,,,,,,,,,,,,,,,,,,,
,,,,,,,,,,,,,,,,,,,,,,,,,,,,,,,,,,,,,,,,,,5dc94678880a2965965fc001,606841d91824d1932b9394f5,2021-04-03_11h22.57.685,Colour_Similarity_Experiment,2020.2.10,Win32,60,60674ec340277cd6a308bc9f,16.75731742,16.65054791,16.64227431,16.65179357,16.64241989,16.65054791,,,,,,,,,,,,,,,,,,,,PF,weak,3,,,,,,,,7,0.89866,,,,,,,,,,,,,,,,,,,,,,,,,,,,1,weak,42,74,1,0,0,response1disk,2,39,-6,-6,1,0,0,rectangle,-6,-6,1,0,0,7,3,0.00378,-6,-6,1,0,0,0,38,38,24,1,0,,,,,,,,,,,,,,,,,,,,,
,,,,,,,,,,,,,,,,,,,,,,,,,,,,,,,,,,,,,,,,,,5dc94678880a2965965fc001,606841d91824d1932b9394f5,2021-04-03_11h22.57.685,Colour_Similarity_Experiment,2020.2.10,Win32,60,60674ec340277cd6a308bc9f,16.75731742,16.65054791,16.64227431,16.65179357,16.64241989,16.65054791,,,,,,,,,,,,,,,,,,,,PF,strong,3,,,,,,,,0,0.699515,,,,,,,,,,,,,,,,,,,,,,,,,,,,6,strong,-42,71,1,0,0,response7disk,7,40,2,5,1,0,0,rectangle,2,5,1,0,0,7,0,0.0011,2,5,1,0,0,0,39,39,18,1,0,,,,,,,,,,,,,,,,,,,,,
,,,,,,,,,,,,,,,,,,,,,,,,,,,,,,,,,,,,,,,,,,5dc94678880a2965965fc001,606841d91824d1932b9394f5,2021-04-03_11h22.57.685,Colour_Similarity_Experiment,2020.2.10,Win32,60,60674ec340277cd6a308bc9f,16.75731742,16.65054791,16.64227431,16.65179357,16.64241989,16.65054791,,,,,,,,,,,,,,,,,,,,PF,weak,3,,,,,,,,1,1.015495,,,,,,,,,,,,,,,,,,,,,,,,,,,,3,weak,-91,16,1,0,0,response7disk,6,41,-9,8,1,0,0,rectangle,-9,8,1,0,0,7,5,0.003775,-9,8,1,0,0,0,40,40,47,1,0,,,,,,,,,,,,,,,,,,,,,
,,,,,,,,,,,,,,,,,,,,,,,,,,,,,,,,,,,,,,,,,,5dc94678880a2965965fc001,606841d91824d1932b9394f5,2021-04-03_11h22.57.685,Colour_Similarity_Experiment,2020.2.10,Win32,60,60674ec340277cd6a308bc9f,16.75731742,16.65054791,16.64227431,16.65179357,16.64241989,16.65054791,,,,,,,,,,,,,,,,,,,,PF,weak,3,,,,,,,,5,0.530985,,,,,,,,,,,,,,,,,,,,,,,,,,,,7,weak,92,-38,1,0,0,response3disk,8,42,23,3,1,0,0,rectangle,23,3,1,0,0,7,3,0.00103,23,3,1,0,0,0,41,41,140,1,0,,,,,,,,,,,,,,,,,,,,,
,,,,,,,,,,,,,,,,,,,,,,,,,,,,,,,,,,,,,,,,,,5dc94678880a2965965fc001,606841d91824d1932b9394f5,2021-04-03_11h22.57.685,Colour_Similarity_Experiment,2020.2.10,Win32,60,60674ec340277cd6a308bc9f,16.75731742,16.65054791,16.64227431,16.65179357,16.64241989,16.65054791,,,,,,,,,,,,,,,,,,,,PF,strong,3,,,,,,,,4,0.84957,,,,,,,,,,,,,,,,,,,,,,,,,,,,7,strong,39,-65,1,0,0,response3disk,8,43,-3,0,1,0,0,rectangle,-33,-68,1,0,0,3,1,1.1653,-10,-2,1,0,0,0,42,42,97,1,1,response5disk_3,rectangle,,,,,,,,,,,,,,,,,,,
,,,,,,,,,,,,,,,,,,,,,,,,,,,,,,,,,,,,,,,,,,5dc94678880a2965965fc001,606841d91824d1932b9394f5,2021-04-03_11h22.57.685,Colour_Similarity_Experiment,2020.2.10,Win32,60,60674ec340277cd6a308bc9f,16.75731742,16.65054791,16.64227431,16.65179357,16.64241989,16.65054791,,,,,,,,,,,,,,,,,,,,PF,weak,3,,,,,,,,2,2.096395,,,,,,,,,,,,,,,,,,,,,,,,,,,,3,weak,-82,-50,1,0,0,response5disk,1,44,7,2,1,0,0,rectangle,7,2,1,0,0,3,7,0.00173,7,2,1,0,0,0,43,43,96,1,0,,,,,,,,,,,,,,,,,,,,,
,,,,,,,,,,,,,,,,,,,,,,,,,,,,,,,,,,,,,,,,,,5dc94678880a2965965fc001,606841d91824d1932b9394f5,2021-04-03_11h22.57.685,Colour_Similarity_Experiment,2020.2.10,Win32,60,60674ec340277cd6a308bc9f,16.75731742,16.65054791,16.64227431,16.65179357,16.64241989,16.65054791,,,,,,,,,,,,,,,,,,,,PF,weak,3,,,,,,,,3,1.030305,,,,,,,,,,,,,,,,,,,,,,,,,,,,5,weak,-27,-73,1,0,0,response5disk,1,45,1,5,1,0,0,rectangle,47,-94,1,0,0,4,4,1.917475,-11,0,1,0,0,0,44,44,159,1,1,response3disk_3,rectangle,,,,,,,,,,,,,,,,,,,
,,,,,,,,,,,,,,,,,,,,,,,,,,,,,,,,,,,,,,,,,,5dc94678880a2965965fc001,606841d91824d1932b9394f5,2021-04-03_11h22.57.685,Colour_Similarity_Experiment,2020.2.10,Win32,60,60674ec340277cd6a308bc9f,16.75731742,16.65054791,16.64227431,16.65179357,16.64241989,16.65054791,,,,,,,,,,,,,,,,,,,,PF,weak,3,,,,,,,,6,0.765885,,,,,,,,,,,,,,,,,,,,,,,,,,,,9,weak,59,28,1,0,0,response1disk,6,46,9,2,1,0,0,rectangle,9,2,1,0,0,4,5,0.002345,9,2,1,0,0,0,45,45,148,1,0,,,,,,,,,,,,,,,,,,,,,
,,,,,,,,,,,,,,,,,,,,,,,,,,,,,,,,,,,,,,,,,,5dc94678880a2965965fc001,606841d91824d1932b9394f5,2021-04-03_11h22.57.685,Colour_Similarity_Experiment,2020.2.10,Win32,60,60674ec340277cd6a308bc9f,16.75731742,16.65054791,16.64227431,16.65179357,16.64241989,16.65054791,,,,,,,,,,,,,,,,,,,,PF,strong,3,,,,,,,,0,0.64979,,,,,,,,,,,,,,,,,,,,,,,,,,,,6,strong,-36,44,1,0,0,response7disk,1,47,-3,0,1,0,0,rectangle,-3,0,1,0,0,4,7,0.00283,-3,0,1,0,0,0,46,46,5,1,0,,,,,,,,,,,,,,,,,,,,,
,,,,,,,,,,,,,,,,,,,,,,,,,,,,,,,,,,,,,,,,,,5dc94678880a2965965fc001,606841d91824d1932b9394f5,2021-04-03_11h22.57.685,Colour_Similarity_Experiment,2020.2.10,Win32,60,60674ec340277cd6a308bc9f,16.75731742,16.65054791,16.64227431,16.65179357,16.64241989,16.65054791,,,,,,,,,,,,,,,,,,,,PF,strong,3,,,,,,,,7,0.563985,,,,,,,,,,,,,,,,,,,,,,,,,,,,1,strong,30,50,1,0,0,response1disk,5,48,8,-4,1,0,0,rectangle,8,-4,1,0,0,4,1,0.00219,8,-4,1,0,0,0,47,47,82,1,0,,,,,,,,,,,,,,,,,,,,,
,,,,,,,,,,,,,,,,,,,,,,,,,,,,,,,,,,,,,,,,,,5dc94678880a2965965fc001,606841d91824d1932b9394f5,2021-04-03_11h22.57.685,Colour_Similarity_Experiment,2020.2.10,Win32,60,60674ec340277cd6a308bc9f,16.75731742,16.65054791,16.64227431,16.65179357,16.64241989,16.65054791,,,,,,,,,,,,,,,,,,,,PF,strong,3,,,,,,,,3,0.64993,,,,,,,,,,,,,,,,,,,,,,,,,,,,8,strong,-31,-82,1,0,0,response5disk,5,49,7,11,1,0,0,rectangle,7,11,1,0,0,4,1,0.0004,7,11,1,0,0,0,48,48,152,1,0,,,,,,,,,,,,,,,,,,,,,
,,,,,,,,,,,,,,,,,,,,,,,,,,,,,,,,,,,,,,,,,,5dc94678880a2965965fc001,606841d91824d1932b9394f5,2021-04-03_11h22.57.685,Colour_Similarity_Experiment,2020.2.10,Win32,60,60674ec340277cd6a308bc9f,16.75731742,16.65054791,16.64227431,16.65179357,16.64241989,16.65054791,,,,,,,,,,,,,,,,,,,,PF,strong,3,,,,,,,,4,0.849625,,,,,,,,,,,,,,,,,,,,,,,,,,,,1,strong,40,-76,1,0,0,response3disk,4,50,-16,6,1,0,0,rectangle,-16,6,1,0,0,4,5,0.003495,-16,6,1,0,0,0,49,49,135,1,0,,,,,,,,,,,,,,,,,,,,,
,,,,,,,,,,,,,,,,,,,,,,,,,,,,,,,,,,,,,,,,,,5dc94678880a2965965fc001,606841d91824d1932b9394f5,2021-04-03_11h22.57.685,Colour_Similarity_Experiment,2020.2.10,Win32,60,60674ec340277cd6a308bc9f,16.75731742,16.65054791,16.64227431,16.65179357,16.64241989,16.65054791,,,,,,,,,,,,,,,,,,,,PF,strong,3,,,,,,,,5,0.932825,,,,,,,,,,,,,,,,,,,,,,,,,,,,6,strong,67,-32,1,0,0,response3disk,8,51,15,0,1,0,0,rectangle,15,0,1,0,0,4,0,0.00382,15,0,1,0,0,0,50,50,133,1,0,,,,,,,,,,,,,,,,,,,,,
,,,,,,,,,,,,,,,,,,,,,,,,,,,,,,,,,,,,,,,,,,5dc94678880a2965965fc001,606841d91824d1932b9394f5,2021-04-03_11h22.57.685,Colour_Similarity_Experiment,2020.2.10,Win32,60,60674ec340277cd6a308bc9f,16.75731742,16.65054791,16.64227431,16.65179357,16.64241989,16.65054791,,,,,,,,,,,,,,,,,,,,PF,strong,3,,,,,,,,6,1.11541,,,,,,,,,,,,,,,,,,,,,,,,,,,,4,strong,53,28,1,0,0,response1disk,4,52,16,-1,1,0,0,rectangle,16,-1,1,0,0,4,0,0.00017,16,-1,1,0,0,0,51,51,84,1,0,,,,,,,,,,,,,,,,,,,,,
,,,,,,,,,,,,,,,,,,,,,,,,,,,,,,,,,,,,,,,,,,5dc94678880a2965965fc001,606841d91824d1932b9394f5,2021-04-03_11h22.57.685,Colour_Similarity_Experiment,2020.2.10,Win32,60,60674ec340277cd6a308bc9f,16.75731742,16.65054791,16.64227431,16.65179357,16.64241989,16.65054791,,,,,,,,,,,,,,,,,,,,PF,strong,3,,,,,,,,0,0.96619,,,,,,,,,,,,,,,,,,,,,,,,,,,,2,strong,-24,55,1,0,0,response7disk,6,53,1,-14,1,0,0,rectangle,1,-14,1,0,0,4,6,0.003475,1,-14,1,0,0,0,52,52,40,1,0,,,,,,,,,,,,,,,,,,,,,
,,,,,,,,,,,,,,,,,,,,,,,,,,,,,,,,,,,,,,,,,,5dc94678880a2965965fc001,606841d91824d1932b9394f5,2021-04-03_11h22.57.685,Colour_Similarity_Experiment,2020.2.10,Win32,60,60674ec340277cd6a308bc9f,16.75731742,16.65054791,16.64227431,16.65179357,16.64241989,16.65054791,,,,,,,,,,,,,,,,,,,,PF,strong,3,,,,,,,,7,0.632345,,,,,,,,,,,,,,,,,,,,,,,,,,,,9,strong,21,45,1,0,0,response1disk,7,54,5,2,1,0,0,rectangle,5,2,1,0,0,4,1,0.003115,5,2,1,0,0,0,53,53,100,1,0,,,,,,,,,,,,,,,,,,,,,
,,,,,,,,,,,,,,,,,,,,,,,,,,,,,,,,,,,,,,,,,,5dc94678880a2965965fc001,606841d91824d1932b9394f5,2021-04-03_11h22.57.685,Colour_Similarity_Experiment,2020.2.10,Win32,60,60674ec340277cd6a308bc9f,16.75731742,16.65054791,16.64227431,16.65179357,16.64241989,16.65054791,,,,,,,,,,,,,,,,,,,,PF,strong,3,,,,,,,,6,1.349105,,,,,,,,,,,,,,,,,,,,,,,,,,,,5,strong,58,34,1,0,0,response1disk,6,55,13,7,1,0,0,rectangle,13,7,1,0,0,4,7,0.00358,13,7,1,0,0,0,54,54,12,1,0,,,,,,,,,,,,,,,,,,,,,
,,,,,,,,,,,,,,,,,,,,,,,,,,,,,,,,,,,,,,,,,,5dc94678880a2965965fc001,606841d91824d1932b9394f5,2021-04-03_11h22.57.685,Colour_Similarity_Experiment,2020.2.10,Win32,60,60674ec340277cd6a308bc9f,16.75731742,16.65054791,16.64227431,16.65179357,16.64241989,16.65054791,,,,,,,,,,,,,,,,,,,,PF,weak,3,,,,,,,,3,0.685605,,,,,,,,,,,,,,,,,,,,,,,,,,,,8,weak,-42,-71,1,0,0,response5disk,6,56,1,-6,1,0,0,rectangle,88,-43,1,0,0,5,5,1.76507,22,0,1,0,0,0,55,55,161,1,1,response3disk_3,rectangle,,,,,,,,,,,,,,,,,,,
,,,,,,,,,,,,,,,,,,,,,,,,,,,,,,,,,,,,,,,,,,5dc94678880a2965965fc001,606841d91824d1932b9394f5,2021-04-03_11h22.57.685,Colour_Similarity_Experiment,2020.2.10,Win32,60,60674ec340277cd6a308bc9f,16.75731742,16.65054791,16.64227431,16.65179357,16.64241989,16.65054791,,,,,,,,,,,,,,,,,,,,PF,strong,3,,,,,,,,6,0.74978,,,,,,,,,,,,,,,,,,,,,,,,,,,,2,strong,63,37,1,0,0,response1disk,1,57,28,10,1,0,0,rectangle,28,10,1,0,0,5,0,0.00356,28,10,1,0,0,0,56,56,85,1,0,,,,,,,,,,,,,,,,,,,,,
,,,,,,,,,,,,,,,,,,,,,,,,,,,,,,,,,,,,,,,,,,5dc94678880a2965965fc001,606841d91824d1932b9394f5,2021-04-03_11h22.57.685,Colour_Similarity_Experiment,2020.2.10,Win32,60,60674ec340277cd6a308bc9f,16.75731742,16.65054791,16.64227431,16.65179357,16.64241989,16.65054791,,,,,,,,,,,,,,,,,,,,PF,weak,3,,,,,,,,3,0.516105,,,,,,,,,,,,,,,,,,,,,,,,,,,,2,weak,-31,-59,1,0,0,response5disk,5,58,9,-1,1,0,0,rectangle,9,-1,1,0,0,5,1,0.00355,9,-1,1,0,0,0,57,57,147,1,0,,,,,,,,,,,,,,,,,,,,,
,,,,,,,,,,,,,,,,,,,,,,,,,,,,,,,,,,,,,,,,,,5dc94678880a2965965fc001,606841d91824d1932b9394f5,2021-04-03_11h22.57.685,Colour_Similarity_Experiment,2020.2.10,Win32,60,60674ec340277cd6a308bc9f,16.75731742,16.65054791,16.64227431,16.65179357,16.64241989,16.65054791,,,,,,,,,,,,,,,,,,,,PF,strong,3,,,,,,,,2,0.366445,,,,,,,,,,,,,,,,,,,,,,,,,,,,9,strong,-69,-39,1,0,0,response5disk,1,59,-8,-5,1,0,0,rectangle,-8,-5,1,0,0,5,3,0.002865,-8,-5,1,0,0,0,58,58,111,1,0,,,,,,,,,,,,,,,,,,,,,
,,,,,,,,,,,,,,,,,,,,,,,,,,,,,,,,,,,,,,,,,,5dc94678880a2965965fc001,606841d91824d1932b9394f5,2021-04-03_11h22.57.685,Colour_Similarity_Experiment,2020.2.10,Win32,60,60674ec340277cd6a308bc9f,16.75731742,16.65054791,16.64227431,16.65179357,16.64241989,16.65054791,,,,,,,,,,,,,,,,,,,,PF,strong,3,,,,,,,,1,1.483085,,,,,,,,,,,,,,,,,,,,,,,,,,,,8,strong,-70,26,1,0,0,response7disk,9,60,2,-3,1,0,0,rectangle,2,-3,1,0,0,5,7,0.000855,2,-3,1,0,0,0,59,59,105,1,0,,,,,,,,,,,,,,,,,,,,,
,,,,,,,,,,,,,,,,,,,,,,,,,,,,,,,,,,,,,,,,,,5dc94678880a2965965fc001,606841d91824d1932b9394f5,2021-04-03_11h22.57.685,Colour_Similarity_Experiment,2020.2.10,Win32,60,60674ec340277cd6a308bc9f,16.75731742,16.65054791,16.64227431,16.65179357,16.64241989,16.65054791,,,,,,,,,,,,,,,,,,,,PF,weak,3,,,,,,,,4,1.032615,,,,,,,,,,,,,,,,,,,,,,,,,,,,8,weak,40,-67,1,0,0,response3disk,5,61,9,-8,1,0,0,rectangle,9,-8,1,0,0,5,5,0.00332,9,-8,1,0,0,0,60,60,98,1,0,,,,,,,,,,,,,,,,,,,,,
,,,,,,,,,,,,,,,,,,,,,,,,,,,,,,,,,,,,,,,,,,5dc94678880a2965965fc001,606841d91824d1932b9394f5,2021-04-03_11h22.57.685,Colour_Similarity_Experiment,2020.2.10,Win32,60,60674ec340277cd6a308bc9f,16.75731742,16.65054791,16.64227431,16.65179357,16.64241989,16.65054791,,,,,,,,,,,,,,,,,,,,PF,weak,3,,,,,,,,6,1.29833,,,,,,,,,,,,,,,,,,,,,,,,,,,,6,weak,58,33,1,0,0,response1disk,6,62,9,-10,1,0,0,rectangle,9,-10,1,0,0,5,5,0.00013,9,-10,1,0,0,0,61,61,0,1,0,,,,,,,,,,,,,,,,,,,,,
,,,,,,,,,,,,,,,,,,,,,,,,,,,,,,,,,,,,,,,,,,5dc94678880a2965965fc001,606841d91824d1932b9394f5,2021-04-03_11h22.57.685,Colour_Similarity_Experiment,2020.2.10,Win32,60,60674ec340277cd6a308bc9f,16.75731742,16.65054791,16.64227431,16.65179357,16.64241989,16.65054791,,,,,,,,,,,,,,,,,,,,PF,weak,3,,,,,,,,7,0.666005,,,,,,,,,,,,,,,,,,,,,,,,,,,,2,weak,33,48,1,0,0,response1disk,8,63,16,-5,1,0,0,rectangle,16,-5,1,0,0,5,2,0.00266,16,-5,1,0,0,0,62,62,52,1,0,,,,,,,,,,,,,,,,,,,,,
,,,,,,,,,,,,,,,,,,,,,,,,,,,,,,,,,,,,,,,,,,5dc94678880a2965965fc001,606841d91824d1932b9394f5,2021-04-03_11h22.57.685,Colour_Similarity_Experiment,2020.2.10,Win32,60,60674ec340277cd6a308bc9f,16.75731742,16.65054791,16.64227431,16.65179357,16.64241989,16.65054791,,,,,,,,,,,,,,,,,,,,PF,strong,3,,,,,,,,0,0.73268,,,,,,,,,,,,,,,,,,,,,,,,,,,,5,strong,-37,66,1,0,0,response7disk,5,64,3,-2,1,0,0,rectangle,3,-2,1,0,0,5,6,0.002385,3,-2,1,0,0,0,63,63,19,1,0,,,,,,,,,,,,,,,,,,,,,
,,,,,,,,,,,,,,,,,,,,,,,,,,,,,,,,,,,,,,,,,,5dc94678880a2965965fc001,606841d91824d1932b9394f5,2021-04-03_11h22.57.685,Colour_Similarity_Experiment,2020.2.10,Win32,60,60674ec340277cd6a308bc9f,16.75731742,16.65054791,16.64227431,16.65179357,16.64241989,16.65054791,,,,,,,,,,,,,,,,,,,,PF,strong,3,,,,,,,,3,1.51496,,,,,,,,,,,,,,,,,,,,,,,,,,,,7,strong,-34,-58,1,0,0,response5disk,6,65,-13,-8,1,0,0,rectangle,-13,-8,1,0,0,5,3,0.002655,-13,-8,1,0,0,0,64,64,31,1,0,,,,,,,,,,,,,,,,,,,,,
,,,,,,,,,,,,,,,,,,,,,,,,,,,,,,,,,,,,,,,,,,5dc94678880a2965965fc001,606841d91824d1932b9394f5,2021-04-03_11h22.57.685,Colour_Similarity_Experiment,2020.2.10,Win32,60,60674ec340277cd6a308bc9f,16.75731742,16.65054791,16.64227431,16.65179357,16.64241989,16.65054791,,,,,,,,,,,,,,,,,,,,PF,weak,3,,,,,,,,4,1.116085,,,,,,,,,,,,,,,,,,,,,,,,,,,,3,weak,39,-70,1,0,0,response3disk,5,66,9,-12,1,0,0,rectangle,9,-12,1,0,0,5,2,0.002995,9,-12,1,0,0,0,65,65,66,1,0,,,,,,,,,,,,,,,,,,,,,
,,,,,,,,,,,,,,,,,,,,,,,,,,,,,,,,,,,,,,,,,,5dc94678880a2965965fc001,606841d91824d1932b9394f5,2021-04-03_11h22.57.685,Colour_Similarity_Experiment,2020.2.10,Win32,60,60674ec340277cd6a308bc9f,16.75731742,16.65054791,16.64227431,16.65179357,16.64241989,16.65054791,,,,,,,,,,,,,,,,,,,,PF,weak,3,,,,,,,,2,1.346465,,,,,,,,,,,,,,,,,,,,,,,,,,,,6,weak,-71,-32,1,0,0,response5disk,7,67,-13,-1,1,0,0,rectangle,-13,-1,1,0,0,5,4,0.00182,-13,-1,1,0,0,0,66,66,50,1,0,,,,,,,,,,,,,,,,,,,,,
,,,,,,,,,,,,,,,,,,,,,,,,,,,,,,,,,,,,,,,,,,5dc94678880a2965965fc001,606841d91824d1932b9394f5,2021-04-03_11h22.57.685,Colour_Similarity_Experiment,2020.2.10,Win32,60,60674ec340277cd6a308bc9f,16.75731742,16.65054791,16.64227431,16.65179357,16.64241989,16.65054791,,,,,,,,,,,,,,,,,,,,PF,strong,3,,,,,,,,6,1.298405,,,,,,,,,,,,,,,,,,,,,,,,,,,,2,strong,68,31,1,0,0,response1disk,5,68,5,-8,1,0,0,rectangle,5,-8,1,0,0,5,0,0.00299,5,-8,1,0,0,0,67,67,80,1,0,,,,,,,,,,,,,,,,,,,,,
,,,,,,,,,,,,,,,,,,,,,,,,,,,,,,,,,,,,,,,,,,5dc94678880a2965965fc001,606841d91824d1932b9394f5,2021-04-03_11h22.57.685,Colour_Similarity_Experiment,2020.2.10,Win32,60,60674ec340277cd6a308bc9f,16.75731742,16.65054791,16.64227431,16.65179357,16.64241989,16.65054791,,,,,,,,,,,,,,,,,,,,PF,weak,3,,,,,,,,5,1.08274,,,,,,,,,,,,,,,,,,,,,,,,,,,,8,weak,69,-42,1,0,0,response3disk,7,69,9,-4,1,0,0,rectangle,9,-4,1,0,0,5,0,0.00012,9,-4,1,0,0,0,68,68,23,1,0,,,,,,,,,,,,,,,,,,,,,
,,,,,,,,,,,,,,,,,,,,,,,,,,,,,,,,,,,,,,,,,,5dc94678880a2965965fc001,606841d91824d1932b9394f5,2021-04-03_11h22.57.685,Colour_Similarity_Experiment,2020.2.10,Win32,60,60674ec340277cd6a308bc9f,16.75731742,16.65054791,16.64227431,16.65179357,16.64241989,16.65054791,,,,,,,,,,,,,,,,,,,,PF,weak,3,,,,,,,,4,0.700505,,,,,,,,,,,,,,,,,,,,,,,,,,,,5,weak,41,-64,1,0,0,response3disk,6,70,4,-8,1,0,0,rectangle,4,-8,1,0,0,5,5,0.002325,4,-8,1,0,0,0,69,69,103,1,0,,,,,,,,,,,,,,,,,,,,,
,,,,,,,,,,,,,,,,,,,,,,,,,,,,,,,,,,,,,,,,,,5dc94678880a2965965fc001,606841d91824d1932b9394f5,2021-04-03_11h22.57.685,Colour_Similarity_Experiment,2020.2.10,Win32,60,60674ec340277cd6a308bc9f,16.75731742,16.65054791,16.64227431,16.65179357,16.64241989,16.65054791,,,,,,,,,,,,,,,,,,,,PF,strong,3,,,,,,,,1,1.299455,,,,,,,,,,,,,,,,,,,,,,,,,,,,5,strong,-47,32,1,0,0,response7disk,9,71,6,-8,1,0,0,rectangle,6,-8,1,0,0,5,4,0.003085,6,-8,1,0,0,0,70,70,61,1,0,,,,,,,,,,,,,,,,,,,,,
,,,,,,,,,,,,,,,,,,,,,,,,,,,,,,,,,,,,,,,,,,5dc94678880a2965965fc001,606841d91824d1932b9394f5,2021-04-03_11h22.57.685,Colour_Similarity_Experiment,2020.2.10,Win32,60,60674ec340277cd6a308bc9f,16.75731742,16.65054791,16.64227431,16.65179357,16.64241989,16.65054791,,,,,,,,,,,,,,,,,,,,PF,strong,3,,,,,,,,3,1.44952,,,,,,,,,,,,,,,,,,,,,,,,,,,,9,strong,-26,-75,1,0,0,response5disk,4,72,19,-1,1,0,0,rectangle,19,-1,1,0,0,5,0,0.002365,19,-1,1,0,0,0,71,71,60,1,0,,,,,,,,,,,,,,,,,,,,,
,,,,,,,,,,,,,,,,,,,,,,,,,,,,,,,,,,,,,,,,,,5dc94678880a2965965fc001,606841d91824d1932b9394f5,2021-04-03_11h22.57.685,Colour_Similarity_Experiment,2020.2.10,Win32,60,60674ec340277cd6a308bc9f,16.75731742,16.65054791,16.64227431,16.65179357,16.64241989,16.65054791,,,,,,,,,,,,,,,,,,,,PF,weak,3,,,,,,,,5,0.9326,,,,,,,,,,,,,,,,,,,,,,,,,,,,5,weak,61,-33,1,0,0,response3disk,5,73,2,-7,1,0,0,rectangle,2,-7,1,0,0,5,1,0.002515,2,-7,1,0,0,0,72,72,94,1,0,,,,,,,,,,,,,,,,,,,,,
,,,,,,,,,,,,,,,,,,,,,,,,,,,,,,,,,,,,,,,,,,5dc94678880a2965965fc001,606841d91824d1932b9394f5,2021-04-03_11h22.57.685,Colour_Similarity_Experiment,2020.2.10,Win32,60,60674ec340277cd6a308bc9f,16.75731742,16.65054791,16.64227431,16.65179357,16.64241989,16.65054791,,,,,,,,,,,,,,,,,,,,PF,strong,3,,,,,,,,2,1.163505,,,,,,,,,,,,,,,,,,,,,,,,,,,,8,strong,-68,-43,1,0,0,response5disk,8,74,-10,-11,1,0,0,rectangle,-10,-11,1,0,0,5,0,0.001235,-10,-11,1,0,0,0,73,73,48,1,0,,,,,,,,,,,,,,,,,,,,,
,,,,,,,,,,,,,,,,,,,,,,,,,,,,,,,,,,,,,,,,,,5dc94678880a2965965fc001,606841d91824d1932b9394f5,2021-04-03_11h22.57.685,Colour_Similarity_Experiment,2020.2.10,Win32,60,60674ec340277cd6a308bc9f,16.75731742,16.65054791,16.64227431,16.65179357,16.64241989,16.65054791,,,,,,,,,,,,,,,,,,,,PF,weak,3,,,,,,,,7,0.66567,,,,,,,,,,,,,,,,,,,,,,,,,,,,6,weak,48,73,1,0,0,response1disk,1,75,14,-9,1,0,0,rectangle,14,-9,1,0,0,5,2,0.00333,14,-9,1,0,0,0,74,74,46,1,0,,,,,,,,,,,,,,,,,,,,,
,,,,,,,,,,,,,,,,,,,,,,,,,,,,,,,,,,,,,,,,,,5dc94678880a2965965fc001,606841d91824d1932b9394f5,2021-04-03_11h22.57.685,Colour_Similarity_Experiment,2020.2.10,Win32,60,60674ec340277cd6a308bc9f,16.75731742,16.65054791,16.64227431,16.65179357,16.64241989,16.65054791,,,,,,,,,,,,,,,,,,,,PF,weak,3,,,,,,,,5,1.08211,,,,,,,,,,,,,,,,,,,,,,,,,,,,2,weak,77,-48,1,0,0,response3disk,9,76,0,-1,1,0,0,rectangle,0,-1,1,0,0,5,1,0.002205,0,-1,1,0,0,0,75,75,39,1,0,,,,,,,,,,,,,,,,,,,,,
,,,,,,,,,,,,,,,,,,,,,,,,,,,,,,,,,,,,,,,,,,5dc94678880a2965965fc001,606841d91824d1932b9394f5,2021-04-03_11h22.57.685,Colour_Similarity_Experiment,2020.2.10,Win32,60,60674ec340277cd6a308bc9f,16.75731742,16.65054791,16.64227431,16.65179357,16.64241989,16.65054791,,,,,,,,,,,,,,,,,,,,PF,strong,3,,,,,,,,4,1.068015,,,,,,,,,,,,,,,,,,,,,,,,,,,,6,strong,56,-71,1,0,0,response3disk,6,77,-2,-6,1,0,0,rectangle,-2,-6,1,0,0,5,6,0.00124,-2,-6,1,0,0,0,76,76,91,1,0,,,,,,,,,,,,,,,,,,,,,
,,,,,,,,,,,,,,,,,,,,,,,,,,,,,,,,,,,,,,,,,,5dc94678880a2965965fc001,606841d91824d1932b9394f5,2021-04-03_11h22.57.685,Colour_Similarity_Experiment,2020.2.10,Win32,60,60674ec340277cd6a308bc9f,16.75731742,16.65054791,16.64227431,16.65179357,16.64241989,16.65054791,,,,,,,,,,,,,,,,,,,,PF,weak,3,,,,,,,,2,0.582755,,,,,,,,,,,,,,,,,,,,,,,,,,,,8,weak,-50,-29,1,0,0,response5disk,1,78,-3,-7,1,0,0,rectangle,-3,-7,1,0,0,5,4,0.00333,-3,-7,1,0,0,0,77,77,57,1,0,,,,,,,,,,,,,,,,,,,,,
,,,,,,,,,,,,,,,,,,,,,,,,,,,,,,,,,,,,,,,,,,5dc94678880a2965965fc001,606841d91824d1932b9394f5,2021-04-03_11h22.57.685,Colour_Similarity_Experiment,2020.2.10,Win32,60,60674ec340277cd6a308bc9f,16.75731742,16.65054791,16.64227431,16.65179357,16.64241989,16.65054791,,,,,,,,,,,,,,,,,,,,PF,weak,3,,,,,,,,6,0.91592,,,,,,,,,,,,,,,,,,,,,,,,,,,,2,weak,51,23,1,0,0,response1disk,7,79,12,6,1,0,0,rectangle,12,6,1,0,0,5,0,0.003385,12,6,1,0,0,0,78,78,107,1,0,,,,,,,,,,,,,,,,,,,,,
,,,,,,,,,,,,,,,,,,,,,,,,,,,,,,,,,,,,,,,,,,5dc94678880a2965965fc001,606841d91824d1932b9394f5,2021-04-03_11h22.57.685,Colour_Similarity_Experiment,2020.2.10,Win32,60,60674ec340277cd6a308bc9f,16.75731742,16.65054791,16.64227431,16.65179357,16.64241989,16.65054791,,,,,,,,,,,,,,,,,,,,PF,strong,3,,,,,,,,4,0.783315,,,,,,,,,,,,,,,,,,,,,,,,,,,,1,strong,38,-67,1,0,0,response3disk,1,80,2,-5,1,0,0,rectangle,2,-5,1,0,0,5,4,0.00238,2,-5,1,0,0,0,79,79,151,1,0,,,,,,,,,,,,,,,,,,,,,
,,,,,,,,,,,,,,,,,,,,,,,,,,,,,,,,,,,,,,,,,,5dc94678880a2965965fc001,606841d91824d1932b9394f5,2021-04-03_11h22.57.685,Colour_Similarity_Experiment,2020.2.10,Win32,60,60674ec340277cd6a308bc9f,16.75731742,16.65054791,16.64227431,16.65179357,16.64241989,16.65054791,,,,,,,,,,,,,,,,,,,,PF,weak,3,,,,,,,,3,0.932865,,,,,,,,,,,,,,,,,,,,,,,,,,,,8,weak,-29,-74,1,0,0,response5disk,9,81,-2,-6,1,0,0,rectangle,-2,-6,1,0,0,5,7,0.00231,-2,-6,1,0,0,0,80,80,42,1,0,,,,,,,,,,,,,,,,,,,,,
,,,,,,,,,,,,,,,,,,,,,,,,,,,,,,,,,,,,,,,,,,5dc94678880a2965965fc001,606841d91824d1932b9394f5,2021-04-03_11h22.57.685,Colour_Similarity_Experiment,2020.2.10,Win32,60,60674ec340277cd6a308bc9f,16.75731742,16.65054791,16.64227431,16.65179357,16.64241989,16.65054791,,,,,,,,,,,,,,,,,,,,PF,weak,3,,,,,,,,0,0.88274,,,,,,,,,,,,,,,,,,,,,,,,,,,,4,weak,-36,65,1,0,0,response7disk,8,82,14,6,1,0,0,rectangle,14,6,1,0,0,5,2,0.003045,14,6,1,0,0,0,81,81,124,1,0,,,,,,,,,,,,,,,,,,,,,
,,,,,,,,,,,,,,,,,,,,,,,,,,,,,,,,,,,,,,,,,,5dc94678880a2965965fc001,606841d91824d1932b9394f5,2021-04-03_11h22.57.685,Colour_Similarity_Experiment,2020.2.10,Win32,60,60674ec340277cd6a308bc9f,16.75731742,16.65054791,16.64227431,16.65179357,16.64241989,16.65054791,,,,,,,,,,,,,,,,,,,,PF,strong,3,,,,,,,,6,1.166115,,,,,,,,,,,,,,,,,,,,,,,,,,,,3,strong,39,24,1,0,0,response1disk,6,83,4,-3,1,0,0,rectangle,4,-3,1,0,0,5,2,0.0005,4,-3,1,0,0,0,82,82,95,1,0,,,,,,,,,,,,,,,,,,,,,
,,,,,,,,,,,,,,,,,,,,,,,,,,,,,,,,,,,,,,,,,,5dc94678880a2965965fc001,606841d91824d1932b9394f5,2021-04-03_11h22.57.685,Colour_Similarity_Experiment,2020.2.10,Win32,60,60674ec340277cd6a308bc9f,16.75731742,16.65054791,16.64227431,16.65179357,16.64241989,16.65054791,,,,,,,,,,,,,,,,,,,,PF,weak,3,,,,,,,,2,1.13352,,,,,,,,,,,,,,,,,,,,,,,,,,,,9,weak,-61,-32,1,0,0,response5disk,4,84,10,5,1,0,0,rectangle,10,5,1,0,0,5,0,0.00356,10,5,1,0,0,0,83,83,114,1,0,,,,,,,,,,,,,,,,,,,,,
,,,,,,,,,,,,,,,,,,,,,,,,,,,,,,,,,,,,,,,,,,5dc94678880a2965965fc001,606841d91824d1932b9394f5,2021-04-03_11h22.57.685,Colour_Similarity_Experiment,2020.2.10,Win32,60,60674ec340277cd6a308bc9f,16.75731742,16.65054791,16.64227431,16.65179357,16.64241989,16.65054791,,,,,,,,,,,,,,,,,,,,PF,weak,3,,,,,,,,3,1.366105,,,,,,,,,,,,,,,,,,,,,,,,,,,,3,weak,-42,-63,1,0,0,response5disk,7,85,4,-5,1,0,0,rectangle,4,-5,1,0,0,5,2,0.00379,4,-5,1,0,0,0,84,84,41,1,0,,,,,,,,,,,,,,,,,,,,,
,,,,,,,,,,,,,,,,,,,,,,,,,,,,,,,,,,,,,,,,,,5dc94678880a2965965fc001,606841d91824d1932b9394f5,2021-04-03_11h22.57.685,Colour_Similarity_Experiment,2020.2.10,Win32,60,60674ec340277cd6a308bc9f,16.75731742,16.65054791,16.64227431,16.65179357,16.64241989,16.65054791,,,,,,,,,,,,,,,,,,,,PF,strong,3,,,,,,,,5,1.56983,,,,,,,,,,,,,,,,,,,,,,,,,,,,9,strong,62,-47,1,0,0,response3disk,6,86,14,-2,1,0,0,rectangle,14,-2,1,0,0,5,0,0.00269,14,-2,1,0,0,0,85,85,117,1,0,,,,,,,,,,,,,,,,,,,,,
,,,,,,,,,,,,,,,,,,,,,,,,,,,,,,,,,,,,,,,,,,5dc94678880a2965965fc001,606841d91824d1932b9394f5,2021-04-03_11h22.57.685,Colour_Similarity_Experiment,2020.2.10,Win32,60,60674ec340277cd6a308bc9f,16.75731742,16.65054791,16.64227431,16.65179357,16.64241989,16.65054791,,,,,,,,,,,,,,,,,,,,PF,weak,3,,,,,,,,7,1.14947,,,,,,,,,,,,,,,,,,,,,,,,,,,,3,weak,24,46,1,0,0,response1disk,4,87,1,-7,1,0,0,rectangle,1,-7,1,0,0,5,2,0.002665,1,-7,1,0,0,0,86,86,30,1,0,,,,,,,,,,,,,,,,,,,,,
,,,,,,,,,,,,,,,,,,,,,,,,,,,,,,,,,,,,,,,,,,5dc94678880a2965965fc001,606841d91824d1932b9394f5,2021-04-03_11h22.57.685,Colour_Similarity_Experiment,2020.2.10,Win32,60,60674ec340277cd6a308bc9f,16.75731742,16.65054791,16.64227431,16.65179357,16.64241989,16.65054791,,,,,,,,,,,,,,,,,,,,PF,weak,3,,,,,,,,7,1.016365,,,,,,,,,,,,,,,,,,,,,,,,,,,,4,weak,37,62,1,0,0,response1disk,4,88,8,4,1,0,0,rectangle,8,4,1,0,0,5,2,0.0002,8,4,1,0,0,0,87,87,70,1,0,,,,,,,,,,,,,,,,,,,,,
,,,,,,,,,,,,,,,,,,,,,,,,,,,,,,,,,,,,,,,,,,5dc94678880a2965965fc001,606841d91824d1932b9394f5,2021-04-03_11h22.57.685,Colour_Similarity_Experiment,2020.2.10,Win32,60,60674ec340277cd6a308bc9f,16.75731742,16.65054791,16.64227431,16.65179357,16.64241989,16.65054791,,,,,,,,,,,,,,,,,,,,PF,weak,3,,,,,,,,3,1.548395,,,,,,,,,,,,,,,,,,,,,,,,,,,,5,weak,-36,-70,1,0,0,response5disk,9,89,20,10,1,0,0,rectangle,-46,78,1,0,0,0,0,1.69918,-8,2,1,0,0,0,88,88,136,1,1,response7disk_3,rectangle,,,,,,,,,,,,,,,,,,,
,,,,,,,,,,,,,,,,,,,,,,,,,,,,,,,,,,,,,,,,,,5dc94678880a2965965fc001,606841d91824d1932b9394f5,2021-04-03_11h22.57.685,Colour_Similarity_Experiment,2020.2.10,Win32,60,60674ec340277cd6a308bc9f,16.75731742,16.65054791,16.64227431,16.65179357,16.64241989,16.65054791,,,,,,,,,,,,,,,,,,,,PF,weak,3,,,,,,,,4,0.983315,,,,,,,,,,,,,,,,,,,,,,,,,,,,4,weak,54,-78,1,0,0,response3disk,7,90,8,0,1,0,0,rectangle,8,0,1,0,0,0,6,0.00234,8,0,1,0,0,0,89,89,38,1,0,,,,,,,,,,,,,,,,,,,,,
,,,,,,,,,,,,,,,,,,,,,,,,,,,,,,,,,,,,,,,,,,5dc94678880a2965965fc001,606841d91824d1932b9394f5,2021-04-03_11h22.57.685,Colour_Similarity_Experiment,2020.2.10,Win32,60,60674ec340277cd6a308bc9f,16.75731742,16.65054791,16.64227431,16.65179357,16.64241989,16.65054791,,,,,,,,,,,,,,,,,,,,PF,weak,3,,,,,,,,6,0.331255,,,,,,,,,,,,,,,,,,,,,,,,,,,,7,weak,54,33,1,0,0,response1disk,6,91,15,10,1,0,0,rectangle,15,10,1,0,0,0,0,0.00107,15,10,1,0,0,0,90,90,29,1,0,,,,,,,,,,,,,,,,,,,,,
,,,,,,,,,,,,,,,,,,,,,,,,,,,,,,,,,,,,,,,,,,5dc94678880a2965965fc001,606841d91824d1932b9394f5,2021-04-03_11h22.57.685,Colour_Similarity_Experiment,2020.2.10,Win32,60,60674ec340277cd6a308bc9f,16.75731742,16.65054791,16.64227431,16.65179357,16.64241989,16.65054791,,,,,,,,,,,,,,,,,,,,PF,strong,3,,,,,,,,2,0.683265,,,,,,,,,,,,,,,,,,,,,,,,,,,,6,strong,-61,-44,1,0,0,response5disk,9,92,-8,-2,1,0,0,rectangle,-33,-90,1,0,0,3,3,2.06415,12,-2,1,0,0,0,91,91,160,1,1,response5disk_3,rectangle,,,,,,,,,,,,,,,,,,,
,,,,,,,,,,,,,,,,,,,,,,,,,,,,,,,,,,,,,,,,,,5dc94678880a2965965fc001,606841d91824d1932b9394f5,2021-04-03_11h22.57.685,Colour_Similarity_Experiment,2020.2.10,Win32,60,60674ec340277cd6a308bc9f,16.75731742,16.65054791,16.64227431,16.65179357,16.64241989,16.65054791,,,,,,,,,,,,,,,,,,,,PF,strong,3,,,,,,,,5,0.46583,,,,,,,,,,,,,,,,,,,,,,,,,,,,1,strong,72,-34,1,0,0,response3disk,2,93,6,5,1,0,0,rectangle,6,5,1,0,0,3,2,0.002135,6,5,1,0,0,0,92,92,2,1,0,,,,,,,,,,,,,,,,,,,,,
,,,,,,,,,,,,,,,,,,,,,,,,,,,,,,,,,,,,,,,,,,5dc94678880a2965965fc001,606841d91824d1932b9394f5,2021-04-03_11h22.57.685,Colour_Similarity_Experiment,2020.2.10,Win32,60,60674ec340277cd6a308bc9f,16.75731742,16.65054791,16.64227431,16.65179357,16.64241989,16.65054791,,,,,,,,,,,,,,,,,,,,PF,weak,3,,,,,,,,7,0.447865,,,,,,,,,,,,,,,,,,,,,,,,,,,,3,weak,32,64,1,0,0,response1disk,8,94,5,5,1,0,0,rectangle,5,5,1,0,0,3,7,0.00156,5,5,1,0,0,0,93,93,3,1,0,,,,,,,,,,,,,,,,,,,,,
,,,,,,,,,,,,,,,,,,,,,,,,,,,,,,,,,,,,,,,,,,5dc94678880a2965965fc001,606841d91824d1932b9394f5,2021-04-03_11h22.57.685,Colour_Similarity_Experiment,2020.2.10,Win32,60,60674ec340277cd6a308bc9f,16.75731742,16.65054791,16.64227431,16.65179357,16.64241989,16.65054791,,,,,,,,,,,,,,,,,,,,PF,strong,3,,,,,,,,2,0.64974,,,,,,,,,,,,,,,,,,,,,,,,,,,,8,strong,-49,-35,1,0,0,response5disk,3,95,-11,-8,1,0,0,rectangle,-11,-8,1,0,0,3,5,0.00172,-11,-8,1,0,0,0,94,94,154,1,0,,,,,,,,,,,,,,,,,,,,,
,,,,,,,,,,,,,,,,,,,,,,,,,,,,,,,,,,,,,,,,,,5dc94678880a2965965fc001,606841d91824d1932b9394f5,2021-04-03_11h22.57.685,Colour_Similarity_Experiment,2020.2.10,Win32,60,60674ec340277cd6a308bc9f,16.75731742,16.65054791,16.64227431,16.65179357,16.64241989,16.65054791,,,,,,,,,,,,,,,,,,,,PF,weak,3,,,,,,,,3,0.649845,,,,,,,,,,,,,,,,,,,,,,,,,,,,1,weak,-34,-56,1,0,0,response5disk,9,96,11,6,1,0,0,rectangle,11,6,1,0,0,3,5,0.00014,11,6,1,0,0,0,95,95,15,1,0,,,,,,,,,,,,,,,,,,,,,
,,,,,,,,,,,,,,,,,,,,,,,,,,,,,,,,,,,,,,,,,,5dc94678880a2965965fc001,606841d91824d1932b9394f5,2021-04-03_11h22.57.685,Colour_Similarity_Experiment,2020.2.10,Win32,60,60674ec340277cd6a308bc9f,16.75731742,16.65054791,16.64227431,16.65179357,16.64241989,16.65054791,,,,,,,,,,,,,,,,,,,,PF,weak,3,,,,,,,,6,0.500145,,,,,,,,,,,,,,,,,,,,,,,,,,,,6,weak,66,20,1,0,0,response1disk,8,97,31,3,1,0,0,rectangle,31,3,1,0,0,3,2,0.002295,31,3,1,0,0,0,96,96,64,1,0,,,,,,,,,,,,,,,,,,,,,
,,,,,,,,,,,,,,,,,,,,,,,,,,,,,,,,,,,,,,,,,,5dc94678880a2965965fc001,606841d91824d1932b9394f5,2021-04-03_11h22.57.685,Colour_Similarity_Experiment,2020.2.10,Win32,60,60674ec340277cd6a308bc9f,16.75731742,16.65054791,16.64227431,16.65179357,16.64241989,16.65054791,,,,,,,,,,,,,,,,,,,,PF,weak,3,,,,,,,,5,0.566495,,,,,,,,,,,,,,,,,,,,,,,,,,,,5,weak,59,-46,1,0,0,response3disk,8,98,-14,1,1,0,0,rectangle,-14,1,1,0,0,3,3,0.003145,-14,1,1,0,0,0,97,97,149,1,0,,,,,,,,,,,,,,,,,,,,,
,,,,,,,,,,,,,,,,,,,,,,,,,,,,,,,,,,,,,,,,,,5dc94678880a2965965fc001,606841d91824d1932b9394f5,2021-04-03_11h22.57.685,Colour_Similarity_Experiment,2020.2.10,Win32,60,60674ec340277cd6a308bc9f,16.75731742,16.65054791,16.64227431,16.65179357,16.64241989,16.65054791,,,,,,,,,,,,,,,,,,,,PF,weak,3,,,,,,,,4,0.462295,,,,,,,,,,,,,,,,,,,,,,,,,,,,8,weak,28,-63,1,0,0,response3disk,3,99,-8,-4,1,0,0,rectangle,-8,-4,1,0,0,3,1,0.0011,-8,-4,1,0,0,0,98,98,71,1,0,,,,,,,,,,,,,,,,,,,,,
,,,,,,,,,,,,,,,,,,,,,,,,,,,,,,,,,,,,,,,,,,5dc94678880a2965965fc001,606841d91824d1932b9394f5,2021-04-03_11h22.57.685,Colour_Similarity_Experiment,2020.2.10,Win32,60,60674ec340277cd6a308bc9f,16.75731742,16.65054791,16.64227431,16.65179357,16.64241989,16.65054791,,,,,,,,,,,,,,,,,,,,PF,weak,3,,,,,,,,0,0.666755,,,,,,,,,,,,,,,,,,,,,,,,,,,,9,weak,-25,55,1,0,0,response7disk,2,100,6,0,1,0,0,rectangle,6,0,1,0,0,3,3,0.00255,6,0,1,0,0,0,99,99,157,1,0,,,,,,,,,,,,,,,,,,,,,
,,,,,,,,,,,,,,,,,,,,,,,,,,,,,,,,,,,,,,,,,,5dc94678880a2965965fc001,606841d91824d1932b9394f5,2021-04-03_11h22.57.685,Colour_Similarity_Experiment,2020.2.10,Win32,60,60674ec340277cd6a308bc9f,16.75731742,16.65054791,16.64227431,16.65179357,16.64241989,16.65054791,,,,,,,,,,,,,,,,,,,,PF,strong,3,,,,,,,,4,0.848975,,,,,,,,,,,,,,,,,,,,,,,,,,,,3,strong,44,-56,1,0,0,response3disk,1,101,1,-1,1,0,0,rectangle,1,-1,1,0,0,3,5,0.0034,1,-1,1,0,0,0,100,100,125,1,0,,,,,,,,,,,,,,,,,,,,,
,,,,,,,,,,,,,,,,,,,,,,,,,,,,,,,,,,,,,,,,,,5dc94678880a2965965fc001,606841d91824d1932b9394f5,2021-04-03_11h22.57.685,Colour_Similarity_Experiment,2020.2.10,Win32,60,60674ec340277cd6a308bc9f,16.75731742,16.65054791,16.64227431,16.65179357,16.64241989,16.65054791,,,,,,,,,,,,,,,,,,,,PF,strong,3,,,,,,,,6,0.549365,,,,,,,,,,,,,,,,,,,,,,,,,,,,7,strong,47,27,1,0,0,response1disk,7,102,18,6,1,0,0,rectangle,18,6,1,0,0,3,4,0.000875,18,6,1,0,0,0,101,101,34,1,0,,,,,,,,,,,,,,,,,,,,,
,,,,,,,,,,,,,,,,,,,,,,,,,,,,,,,,,,,,,,,,,,5dc94678880a2965965fc001,606841d91824d1932b9394f5,2021-04-03_11h22.57.685,Colour_Similarity_Experiment,2020.2.10,Win32,60,60674ec340277cd6a308bc9f,16.75731742,16.65054791,16.64227431,16.65179357,16.64241989,16.65054791,,,,,,,,,,,,,,,,,,,,PF,weak,3,,,,,,,,3,0.516175,,,,,,,,,,,,,,,,,,,,,,,,,,,,7,weak,-31,-47,1,0,0,response5disk,1,103,-6,-2,1,0,0,rectangle,-6,-2,1,0,0,3,3,0.003415,-6,-2,1,0,0,0,102,102,53,1,0,,,,,,,,,,,,,,,,,,,,,
,,,,,,,,,,,,,,,,,,,,,,,,,,,,,,,,,,,,,,,,,,5dc94678880a2965965fc001,606841d91824d1932b9394f5,2021-04-03_11h22.57.685,Colour_Similarity_Experiment,2020.2.10,Win32,60,60674ec340277cd6a308bc9f,16.75731742,16.65054791,16.64227431,16.65179357,16.64241989,16.65054791,,,,,,,,,,,,,,,,,,,,PF,strong,3,,,,,,,,2,0.916185,,,,,,,,,,,,,,,,,,,,,,,,,,,,8,strong,-55,-31,1,0,0,response5disk,7,104,-15,-10,1,0,0,rectangle,-15,-10,1,0,0,3,1,0.00293,-15,-10,1,0,0,0,103,103,86,1,0,,,,,,,,,,,,,,,,,,,,,
,,,,,,,,,,,,,,,,,,,,,,,,,,,,,,,,,,,,,,,,,,5dc94678880a2965965fc001,606841d91824d1932b9394f5,2021-04-03_11h22.57.685,Colour_Similarity_Experiment,2020.2.10,Win32,60,60674ec340277cd6a308bc9f,16.75731742,16.65054791,16.64227431,16.65179357,16.64241989,16.65054791,,,,,,,,,,,,,,,,,,,,PF,weak,3,,,,,,,,6,0.899085,,,,,,,,,,,,,,,,,,,,,,,,,,,,9,weak,49,18,1,0,0,response1disk,1,105,5,-5,1,0,0,rectangle,5,-5,1,0,0,3,1,0.00041,5,-5,1,0,0,0,104,104,74,1,0,,,,,,,,,,,,,,,,,,,,,
,,,,,,,,,,,,,,,,,,,,,,,,,,,,,,,,,,,,,,,,,,5dc94678880a2965965fc001,606841d91824d1932b9394f5,2021-04-03_11h22.57.685,Colour_Similarity_Experiment,2020.2.10,Win32,60,60674ec340277cd6a308bc9f,16.75731742,16.65054791,16.64227431,16.65179357,16.64241989,16.65054791,,,,,,,,,,,,,,,,,,,,PF,weak,3,,,,,,,,4,0.549865,,,,,,,,,,,,,,,,,,,,,,,,,,,,9,weak,48,-81,1,0,0,response3disk,8,106,-4,3,1,0,0,rectangle,-4,3,1,0,0,3,2,0.002195,-4,3,1,0,0,0,105,105,67,1,0,,,,,,,,,,,,,,,,,,,,,
,,,,,,,,,,,,,,,,,,,,,,,,,,,,,,,,,,,,,,,,,,5dc94678880a2965965fc001,606841d91824d1932b9394f5,2021-04-03_11h22.57.685,Colour_Similarity_Experiment,2020.2.10,Win32,60,60674ec340277cd6a308bc9f,16.75731742,16.65054791,16.64227431,16.65179357,16.64241989,16.65054791,,,,,,,,,,,,,,,,,,,,PF,strong,3,,,,,,,,5,0.666055,,,,,,,,,,,,,,,,,,,,,,,,,,,,2,strong,54,-32,1,0,0,response3disk,7,107,-1,-3,1,0,0,rectangle,-1,-3,1,0,0,3,6,0.00312,-1,-3,1,0,0,0,106,106,63,1,0,,,,,,,,,,,,,,,,,,,,,
,,,,,,,,,,,,,,,,,,,,,,,,,,,,,,,,,,,,,,,,,,5dc94678880a2965965fc001,606841d91824d1932b9394f5,2021-04-03_11h22.57.685,Colour_Similarity_Experiment,2020.2.10,Win32,60,60674ec340277cd6a308bc9f,16.75731742,16.65054791,16.64227431,16.65179357,16.64241989,16.65054791,,,,,,,,,,,,,,,,,,,,PF,strong,3,,,,,,,,0,0.633575,,,,,,,,,,,,,,,,,,,,,,,,,,,,2,strong,-31,51,1,0,0,response7disk,3,108,-18,8,1,0,0,rectangle,70,-37,1,0,0,5,5,1.632185,12,-3,1,0,0,0,107,107,104,1,1,response3disk_3,rectangle,,,,,,,,,,,,,,,,,,,
,,,,,,,,,,,,,,,,,,,,,,,,,,,,,,,,,,,,,,,,,,5dc94678880a2965965fc001,606841d91824d1932b9394f5,2021-04-03_11h22.57.685,Colour_Similarity_Experiment,2020.2.10,Win32,60,60674ec340277cd6a308bc9f,16.75731742,16.65054791,16.64227431,16.65179357,16.64241989,16.65054791,,,,,,,,,,,,,,,,,,,,PF,weak,3,,,,,,,,6,0.7827,,,,,,,,,,,,,,,,,,,,,,,,,,,,5,weak,61,33,1,0,0,response1disk,7,109,-3,-1,1,0,0,rectangle,-3,-1,1,0,0,5,2,0.004295,-3,-1,1,0,0,0,108,108,146,1,0,,,,,,,,,,,,,,,,,,,,,
,,,,,,,,,,,,,,,,,,,,,,,,,,,,,,,,,,,,,,,,,,5dc94678880a2965965fc001,606841d91824d1932b9394f5,2021-04-03_11h22.57.685,Colour_Similarity_Experiment,2020.2.10,Win32,60,60674ec340277cd6a308bc9f,16.75731742,16.65054791,16.64227431,16.65179357,16.64241989,16.65054791,,,,,,,,,,,,,,,,,,,,PF,strong,3,,,,,,,,4,0.515315,,,,,,,,,,,,,,,,,,,,,,,,,,,,1,strong,33,-57,1,0,0,response3disk,6,110,18,-6,1,0,0,rectangle,18,-6,1,0,0,5,3,0.0027,18,-6,1,0,0,0,109,109,58,1,0,,,,,,,,,,,,,,,,,,,,,
,,,,,,,,,,,,,,,,,,,,,,,,,,,,,,,,,,,,,,,,,,5dc94678880a2965965fc001,606841d91824d1932b9394f5,2021-04-03_11h22.57.685,Colour_Similarity_Experiment,2020.2.10,Win32,60,60674ec340277cd6a308bc9f,16.75731742,16.65054791,16.64227431,16.65179357,16.64241989,16.65054791,,,,,,,,,,,,,,,,,,,,PF,strong,3,,,,,,,,3,0.28283,,,,,,,,,,,,,,,,,,,,,,,,,,,,5,strong,-35,-65,1,0,0,response5disk,8,111,-8,3,1,0,0,rectangle,-8,3,1,0,0,5,0,0.00213,-8,3,1,0,0,0,110,110,16,1,0,,,,,,,,,,,,,,,,,,,,,
,,,,,,,,,,,,,,,,,,,,,,,,,,,,,,,,,,,,,,,,,,5dc94678880a2965965fc001,606841d91824d1932b9394f5,2021-04-03_11h22.57.685,Colour_Similarity_Experiment,2020.2.10,Win32,60,60674ec340277cd6a308bc9f,16.75731742,16.65054791,16.64227431,16.65179357,16.64241989,16.65054791,,,,,,,,,,,,,,,,,,,,PF,strong,3,,,,,,,,0,0.616485,,,,,,,,,,,,,,,,,,,,,,,,,,,,3,strong,-30,48,1,0,0,response7disk,5,112,-2,-2,1,0,0,rectangle,-2,-2,1,0,0,5,7,0.002005,-2,-2,1,0,0,0,111,111,101,1,0,,,,,,,,,,,,,,,,,,,,,
,,,,,,,,,,,,,,,,,,,,,,,,,,,,,,,,,,,,,,,,,,5dc94678880a2965965fc001,606841d91824d1932b9394f5,2021-04-03_11h22.57.685,Colour_Similarity_Experiment,2020.2.10,Win32,60,60674ec340277cd6a308bc9f,16.75731742,16.65054791,16.64227431,16.65179357,16.64241989,16.65054791,,,,,,,,,,,,,,,,,,,,PF,strong,3,,,,,,,,6,0.34905,,,,,,,,,,,,,,,,,,,,,,,,,,,,3,strong,48,27,1,0,0,response1disk,9,113,6,1,1,0,0,rectangle,6,1,1,0,0,5,7,0.00033,6,1,1,0,0,0,112,112,143,1,0,,,,,,,,,,,,,,,,,,,,,
,,,,,,,,,,,,,,,,,,,,,,,,,,,,,,,,,,,,,,,,,,5dc94678880a2965965fc001,606841d91824d1932b9394f5,2021-04-03_11h22.57.685,Colour_Similarity_Experiment,2020.2.10,Win32,60,60674ec340277cd6a308bc9f,16.75731742,16.65054791,16.64227431,16.65179357,16.64241989,16.65054791,,,,,,,,,,,,,,,,,,,,PF,strong,3,,,,,,,,2,0.44936,,,,,,,,,,,,,,,,,,,,,,,,,,,,4,strong,-55,-34,1,0,0,response5disk,6,114,-5,1,1,0,0,rectangle,-5,1,1,0,0,5,3,0.003035,-5,1,1,0,0,0,113,113,122,1,0,,,,,,,,,,,,,,,,,,,,,
,,,,,,,,,,,,,,,,,,,,,,,,,,,,,,,,,,,,,,,,,,5dc94678880a2965965fc001,606841d91824d1932b9394f5,2021-04-03_11h22.57.685,Colour_Similarity_Experiment,2020.2.10,Win32,60,60674ec340277cd6a308bc9f,16.75731742,16.65054791,16.64227431,16.65179357,16.64241989,16.65054791,,,,,,,,,,,,,,,,,,,,PF,strong,3,,,,,,,,1,0.999325,,,,,,,,,,,,,,,,,,,,,,,,,,,,5,strong,-43,30,1,0,0,response7disk,1,115,2,1,1,0,0,rectangle,2,1,1,0,0,5,3,0.00062,2,1,1,0,0,0,114,114,131,1,0,,,,,,,,,,,,,,,,,,,,,
,,,,,,,,,,,,,,,,,,,,,,,,,,,,,,,,,,,,,,,,,,5dc94678880a2965965fc001,606841d91824d1932b9394f5,2021-04-03_11h22.57.685,Colour_Similarity_Experiment,2020.2.10,Win32,60,60674ec340277cd6a308bc9f,16.75731742,16.65054791,16.64227431,16.65179357,16.64241989,16.65054791,,,,,,,,,,,,,,,,,,,,PF,strong,3,,,,,,,,6,0.767725,,,,,,,,,,,,,,,,,,,,,,,,,,,,9,strong,40,28,1,0,0,response1disk,2,116,7,1,1,0,0,rectangle,33,-67,1,0,0,4,4,2.0678,-3,-6,1,0,0,0,115,115,11,1,1,response3disk_3,rectangle,,,,,,,,,,,,,,,,,,,
,,,,,,,,,,,,,,,,,,,,,,,,,,,,,,,,,,,,,,,,,,5dc94678880a2965965fc001,606841d91824d1932b9394f5,2021-04-03_11h22.57.685,Colour_Similarity_Experiment,2020.2.10,Win32,60,60674ec340277cd6a308bc9f,16.75731742,16.65054791,16.64227431,16.65179357,16.64241989,16.65054791,,,,,,,,,,,,,,,,,,,,PF,strong,3,,,,,,,,5,0.535135,,,,,,,,,,,,,,,,,,,,,,,,,,,,4,strong,72,-44,1,0,0,response3disk,7,117,20,1,1,0,0,rectangle,20,1,1,0,0,4,0,0.001495,20,1,1,0,0,0,116,116,87,1,0,,,,,,,,,,,,,,,,,,,,,
,,,,,,,,,,,,,,,,,,,,,,,,,,,,,,,,,,,,,,,,,,5dc94678880a2965965fc001,606841d91824d1932b9394f5,2021-04-03_11h22.57.685,Colour_Similarity_Experiment,2020.2.10,Win32,60,60674ec340277cd6a308bc9f,16.75731742,16.65054791,16.64227431,16.65179357,16.64241989,16.65054791,,,,,,,,,,,,,,,,,,,,PF,weak,3,,,,,,,,6,0.383385,,,,,,,,,,,,,,,,,,,,,,,,,,,,5,weak,61,37,1,0,0,response1disk,2,118,13,5,1,0,0,rectangle,13,5,1,0,0,4,3,0.003485,13,5,1,0,0,0,117,117,129,1,0,,,,,,,,,,,,,,,,,,,,,
,,,,,,,,,,,,,,,,,,,,,,,,,,,,,,,,,,,,,,,,,,5dc94678880a2965965fc001,606841d91824d1932b9394f5,2021-04-03_11h22.57.685,Colour_Similarity_Experiment,2020.2.10,Win32,60,60674ec340277cd6a308bc9f,16.75731742,16.65054791,16.64227431,16.65179357,16.64241989,16.65054791,,,,,,,,,,,,,,,,,,,,PF,weak,3,,,,,,,,7,0.36593,,,,,,,,,,,,,,,,,,,,,,,,,,,,1,weak,42,57,1,0,0,response1disk,7,119,7,7,1,0,0,rectangle,7,7,1,0,0,4,1,0.002325,7,7,1,0,0,0,118,118,150,1,0,,,,,,,,,,,,,,,,,,,,,
,,,,,,,,,,,,,,,,,,,,,,,,,,,,,,,,,,,,,,,,,,5dc94678880a2965965fc001,606841d91824d1932b9394f5,2021-04-03_11h22.57.685,Colour_Similarity_Experiment,2020.2.10,Win32,60,60674ec340277cd6a308bc9f,16.75731742,16.65054791,16.64227431,16.65179357,16.64241989,16.65054791,,,,,,,,,,,,,,,,,,,,PF,weak,3,,,,,,,,1,0.30001,,,,,,,,,,,,,,,,,,,,,,,,,,,,1,weak,-62,27,1,0,0,response7disk,4,120,8,-8,1,0,0,rectangle,8,-8,1,0,0,4,2,0.00326,8,-8,1,0,0,0,119,119,139,1,0,,,,,,,,,,,,,,,,,,,,,
,,,,,,,,,,,,,,,,,,,,,,,,,,,,,,,,,,,,,,,,,,5dc94678880a2965965fc001,606841d91824d1932b9394f5,2021-04-03_11h22.57.685,Colour_Similarity_Experiment,2020.2.10,Win32,60,60674ec340277cd6a308bc9f,16.75731742,16.65054791,16.64227431,16.65179357,16.64241989,16.65054791,,,,,,,,,,,,,,,,,,,,PF,weak,3,,,,,,,,3,0.33367,,,,,,,,,,,,,,,,,,,,,,,,,,,,2,weak,-31,-60,1,0,0,response5disk,4,121,13,6,1,0,0,rectangle,13,6,1,0,0,4,5,0.002205,13,6,1,0,0,0,120,120,127,1,0,,,,,,,,,,,,,,,,,,,,,
,,,,,,,,,,,,,,,,,,,,,,,,,,,,,,,,,,,,,,,,,,5dc94678880a2965965fc001,606841d91824d1932b9394f5,2021-04-03_11h22.57.685,Colour_Similarity_Experiment,2020.2.10,Win32,60,60674ec340277cd6a308bc9f,16.75731742,16.65054791,16.64227431,16.65179357,16.64241989,16.65054791,,,,,,,,,,,,,,,,,,,,PF,strong,3,,,,,,,,6,0.58328,,,,,,,,,,,,,,,,,,,,,,,,,,,,9,strong,63,31,1,0,0,response1disk,3,122,4,-13,1,0,0,rectangle,4,-13,1,0,0,4,2,0.002315,4,-13,1,0,0,0,121,121,141,1,0,,,,,,,,,,,,,,,,,,,,,
,,,,,,,,,,,,,,,,,,,,,,,,,,,,,,,,,,,,,,,,,,5dc94678880a2965965fc001,606841d91824d1932b9394f5,2021-04-03_11h22.57.685,Colour_Similarity_Experiment,2020.2.10,Win32,60,60674ec340277cd6a308bc9f,16.75731742,16.65054791,16.64227431,16.65179357,16.64241989,16.65054791,,,,,,,,,,,,,,,,,,,,PF,weak,3,,,,,,,,2,0.39994,,,,,,,,,,,,,,,,,,,,,,,,,,,,9,weak,-49,-36,1,0,0,response5disk,3,123,-15,-11,1,0,0,rectangle,-15,-11,1,0,0,4,1,0.002615,-15,-11,1,0,0,0,122,122,119,1,0,,,,,,,,,,,,,,,,,,,,,
,,,,,,,,,,,,,,,,,,,,,,,,,,,,,,,,,,,,,,,,,,5dc94678880a2965965fc001,606841d91824d1932b9394f5,2021-04-03_11h22.57.685,Colour_Similarity_Experiment,2020.2.10,Win32,60,60674ec340277cd6a308bc9f,16.75731742,16.65054791,16.64227431,16.65179357,16.64241989,16.65054791,,,,,,,,,,,,,,,,,,,,PF,strong,3,,,,,,,,7,0.800975,,,,,,,,,,,,,,,,,,,,,,,,,,,,5,strong,39,57,1,0,0,response1disk,7,124,9,10,1,0,0,rectangle,9,10,1,0,0,4,0,0.00235,9,10,1,0,0,0,123,123,7,1,0,,,,,,,,,,,,,,,,,,,,,
,,,,,,,,,,,,,,,,,,,,,,,,,,,,,,,,,,,,,,,,,,5dc94678880a2965965fc001,606841d91824d1932b9394f5,2021-04-03_11h22.57.685,Colour_Similarity_Experiment,2020.2.10,Win32,60,60674ec340277cd6a308bc9f,16.75731742,16.65054791,16.64227431,16.65179357,16.64241989,16.65054791,,,,,,,,,,,,,,,,,,,,PF,strong,3,,,,,,,,5,0.48283,,,,,,,,,,,,,,,,,,,,,,,,,,,,1,strong,52,-27,1,0,0,response3disk,3,125,6,3,1,0,0,rectangle,6,3,1,0,0,4,2,0.00358,6,3,1,0,0,0,124,124,99,1,0,,,,,,,,,,,,,,,,,,,,,
,,,,,,,,,,,,,,,,,,,,,,,,,,,,,,,,,,,,,,,,,,5dc94678880a2965965fc001,606841d91824d1932b9394f5,2021-04-03_11h22.57.685,Colour_Similarity_Experiment,2020.2.10,Win32,60,60674ec340277cd6a308bc9f,16.75731742,16.65054791,16.64227431,16.65179357,16.64241989,16.65054791,,,,,,,,,,,,,,,,,,,,PF,strong,3,,,,,,,,6,1.03037,,,,,,,,,,,,,,,,,,,,,,,,,,,,7,strong,48,36,1,0,0,response1disk,1,126,14,0,1,0,0,rectangle,14,0,1,0,0,4,6,0.002085,14,0,1,0,0,0,125,125,132,1,0,,,,,,,,,,,,,,,,,,,,,
,,,,,,,,,,,,,,,,,,,,,,,,,,,,,,,,,,,,,,,,,,5dc94678880a2965965fc001,606841d91824d1932b9394f5,2021-04-03_11h22.57.685,Colour_Similarity_Experiment,2020.2.10,Win32,60,60674ec340277cd6a308bc9f,16.75731742,16.65054791,16.64227431,16.65179357,16.64241989,16.65054791,,,,,,,,,,,,,,,,,,,,PF,strong,3,,,,,,,,3,0.55009,,,,,,,,,,,,,,,,,,,,,,,,,,,,9,strong,-24,-53,1,0,0,response5disk,8,127,1,0,1,0,0,rectangle,1,0,1,0,0,4,4,0.003055,1,0,1,0,0,0,126,126,6,1,0,,,,,,,,,,,,,,,,,,,,,
,,,,,,,,,,,,,,,,,,,,,,,,,,,,,,,,,,,,,,,,,,5dc94678880a2965965fc001,606841d91824d1932b9394f5,2021-04-03_11h22.57.685,Colour_Similarity_Experiment,2020.2.10,Win32,60,60674ec340277cd6a308bc9f,16.75731742,16.65054791,16.64227431,16.65179357,16.64241989,16.65054791,,,,,,,,,,,,,,,,,,,,PF,strong,3,,,,,,,,5,0.53283,,,,,,,,,,,,,,,,,,,,,,,,,,,,4,strong,48,-29,1,0,0,response3disk,1,128,-10,1,1,0,0,rectangle,-10,1,1,0,0,4,5,0.00247,-10,1,1,0,0,0,127,127,102,1,0,,,,,,,,,,,,,,,,,,,,,
,,,,,,,,,,,,,,,,,,,,,,,,,,,,,,,,,,,,,,,,,,5dc94678880a2965965fc001,606841d91824d1932b9394f5,2021-04-03_11h22.57.685,Colour_Similarity_Experiment,2020.2.10,Win32,60,60674ec340277cd6a308bc9f,16.75731742,16.65054791,16.64227431,16.65179357,16.64241989,16.65054791,,,,,,,,,,,,,,,,,,,,PF,strong,3,,,,,,,,0,0.865955,,,,,,,,,,,,,,,,,,,,,,,,,,,,9,strong,-31,51,1,0,0,response7disk,9,129,1,-13,1,0,0,rectangle,1,-13,1,0,0,4,5,0.000175,1,-13,1,0,0,0,128,128,17,1,0,,,,,,,,,,,,,,,,,,,,,
,,,,,,,,,,,,,,,,,,,,,,,,,,,,,,,,,,,,,,,,,,5dc94678880a2965965fc001,606841d91824d1932b9394f5,2021-04-03_11h22.57.685,Colour_Similarity_Experiment,2020.2.10,Win32,60,60674ec340277cd6a308bc9f,16.75731742,16.65054791,16.64227431,16.65179357,16.64241989,16.65054791,,,,,,,,,,,,,,,,,,,,PF,weak,3,,,,,,,,4,0.366255,,,,,,,,,,,,,,,,,,,,,,,,,,,,3,weak,38,-74,1,0,0,response3disk,2,130,-5,-5,1,0,0,rectangle,79,-44,1,0,0,5,5,1.532395,16,-2,1,0,0,0,129,129,36,1,1,response3disk_3,rectangle,,,,,,,,,,,,,,,,,,,
,,,,,,,,,,,,,,,,,,,,,,,,,,,,,,,,,,,,,,,,,,5dc94678880a2965965fc001,606841d91824d1932b9394f5,2021-04-03_11h22.57.685,Colour_Similarity_Experiment,2020.2.10,Win32,60,60674ec340277cd6a308bc9f,16.75731742,16.65054791,16.64227431,16.65179357,16.64241989,16.65054791,,,,,,,,,,,,,,,,,,,,PF,weak,3,,,,,,,,6,0.51684,,,,,,,,,,,,,,,,,,,,,,,,,,,,2,weak,51,39,1,0,0,response1disk,2,131,11,7,1,0,0,rectangle,11,7,1,0,0,5,2,0.003635,11,7,1,0,0,0,130,130,14,1,0,,,,,,,,,,,,,,,,,,,,,
,,,,,,,,,,,,,,,,,,,,,,,,,,,,,,,,,,,,,,,,,,5dc94678880a2965965fc001,606841d91824d1932b9394f5,2021-04-03_11h22.57.685,Colour_Similarity_Experiment,2020.2.10,Win32,60,60674ec340277cd6a308bc9f,16.75731742,16.65054791,16.64227431,16.65179357,16.64241989,16.65054791,,,,,,,,,,,,,,,,,,,,PF,strong,3,,,,,,,,0,0.483375,,,,,,,,,,,,,,,,,,,,,,,,,,,,3,strong,-28,36,1,0,0,response7disk,7,132,-7,7,1,0,0,rectangle,-7,7,1,0,0,5,7,0.002065,-7,7,1,0,0,0,131,131,118,1,0,,,,,,,,,,,,,,,,,,,,,
,,,,,,,,,,,,,,,,,,,,,,,,,,,,,,,,,,,,,,,,,,5dc94678880a2965965fc001,606841d91824d1932b9394f5,2021-04-03_11h22.57.685,Colour_Similarity_Experiment,2020.2.10,Win32,60,60674ec340277cd6a308bc9f,16.75731742,16.65054791,16.64227431,16.65179357,16.64241989,16.65054791,,,,,,,,,,,,,,,,,,,,PF,strong,3,,,,,,,,7,0.342355,,,,,,,,,,,,,,,,,,,,,,,,,,,,8,strong,39,46,1,0,0,response1disk,4,133,-2,6,1,0,0,rectangle,-2,6,1,0,0,5,0,0.00216,-2,6,1,0,0,0,132,132,88,1,0,,,,,,,,,,,,,,,,,,,,,
,,,,,,,,,,,,,,,,,,,,,,,,,,,,,,,,,,,,,,,,,,5dc94678880a2965965fc001,606841d91824d1932b9394f5,2021-04-03_11h22.57.685,Colour_Similarity_Experiment,2020.2.10,Win32,60,60674ec340277cd6a308bc9f,16.75731742,16.65054791,16.64227431,16.65179357,16.64241989,16.65054791,,,,,,,,,,,,,,,,,,,,PF,weak,3,,,,,,,,5,1.181905,,,,,,,,,,,,,,,,,,,,,,,,,,,,4,weak,74,-34,1,0,0,response3disk,1,134,-10,6,1,0,0,rectangle,-10,6,1,0,0,5,0,0.000185,-10,6,1,0,0,0,133,133,115,1,0,,,,,,,,,,,,,,,,,,,,,
,,,,,,,,,,,,,,,,,,,,,,,,,,,,,,,,,,,,,,,,,,5dc94678880a2965965fc001,606841d91824d1932b9394f5,2021-04-03_11h22.57.685,Colour_Similarity_Experiment,2020.2.10,Win32,60,60674ec340277cd6a308bc9f,16.75731742,16.65054791,16.64227431,16.65179357,16.64241989,16.65054791,,,,,,,,,,,,,,,,,,,,PF,weak,3,,,,,,,,4,0.815965,,,,,,,,,,,,,,,,,,,,,,,,,,,,7,weak,34,-61,1,0,0,response3disk,9,135,-2,-10,1,0,0,rectangle,-2,-10,1,0,0,5,4,0.00396,-2,-10,1,0,0,0,134,134,10,1,0,,,,,,,,,,,,,,,,,,,,,
,,,,,,,,,,,,,,,,,,,,,,,,,,,,,,,,,,,,,,,,,,5dc94678880a2965965fc001,606841d91824d1932b9394f5,2021-04-03_11h22.57.685,Colour_Similarity_Experiment,2020.2.10,Win32,60,60674ec340277cd6a308bc9f,16.75731742,16.65054791,16.64227431,16.65179357,16.64241989,16.65054791,,,,,,,,,,,,,,,,,,,,PF,strong,3,,,,,,,,2,0.88332,,,,,,,,,,,,,,,,,,,,,,,,,,,,2,strong,-67,-35,1,0,0,response5disk,2,136,-7,-2,1,0,0,rectangle,-7,-2,1,0,0,5,6,0.00231,-7,-2,1,0,0,0,135,135,142,1,0,,,,,,,,,,,,,,,,,,,,,
,,,,,,,,,,,,,,,,,,,,,,,,,,,,,,,,,,,,,,,,,,5dc94678880a2965965fc001,606841d91824d1932b9394f5,2021-04-03_11h22.57.685,Colour_Similarity_Experiment,2020.2.10,Win32,60,60674ec340277cd6a308bc9f,16.75731742,16.65054791,16.64227431,16.65179357,16.64241989,16.65054791,,,,,,,,,,,,,,,,,,,,PF,weak,3,,,,,,,,6,0.749115,,,,,,,,,,,,,,,,,,,,,,,,,,,,9,weak,49,18,1,0,0,response1disk,5,137,-1,9,1,0,0,rectangle,-1,9,1,0,0,5,4,0.00247,-1,9,1,0,0,0,136,136,134,1,0,,,,,,,,,,,,,,,,,,,,,
,,,,,,,,,,,,,,,,,,,,,,,,,,,,,,,,,,,,,,,,,,5dc94678880a2965965fc001,606841d91824d1932b9394f5,2021-04-03_11h22.57.685,Colour_Similarity_Experiment,2020.2.10,Win32,60,60674ec340277cd6a308bc9f,16.75731742,16.65054791,16.64227431,16.65179357,16.64241989,16.65054791,,,,,,,,,,,,,,,,,,,,PF,strong,3,,,,,,,,1,0.93036,,,,,,,,,,,,,,,,,,,,,,,,,,,,4,strong,-53,25,1,0,0,response7disk,9,138,-5,1,1,0,0,rectangle,-5,1,1,0,0,5,2,0.001885,-5,1,1,0,0,0,137,137,90,1,0,,,,,,,,,,,,,,,,,,,,,
,,,,,,,,,,,,,,,,,,,,,,,,,,,,,,,,,,,,,,,,,,5dc94678880a2965965fc001,606841d91824d1932b9394f5,2021-04-03_11h22.57.685,Colour_Similarity_Experiment,2020.2.10,Win32,60,60674ec340277cd6a308bc9f,16.75731742,16.65054791,16.64227431,16.65179357,16.64241989,16.65054791,,,,,,,,,,,,,,,,,,,,PF,weak,3,,,,,,,,7,0.649835,,,,,,,,,,,,,,,,,,,,,,,,,,,,8,weak,20,37,1,0,0,response1disk,2,139,5,0,1,0,0,rectangle,5,0,1,0,0,5,6,0.00285,5,0,1,0,0,0,138,138,83,1,0,,,,,,,,,,,,,,,,,,,,,
,,,,,,,,,,,,,,,,,,,,,,,,,,,,,,,,,,,,,,,,,,5dc94678880a2965965fc001,606841d91824d1932b9394f5,2021-04-03_11h22.57.685,Colour_Similarity_Experiment,2020.2.10,Win32,60,60674ec340277cd6a308bc9f,16.75731742,16.65054791,16.64227431,16.65179357,16.64241989,16.65054791,,,,,,,,,,,,,,,,,,,,PF,strong,3,,,,,,,,4,0.73356,,,,,,,,,,,,,,,,,,,,,,,,,,,,6,strong,37,-61,1,0,0,response3disk,3,140,3,0,1,0,0,rectangle,3,0,1,0,0,5,2,0.001765,3,0,1,0,0,0,139,139,21,1,0,,,,,,,,,,,,,,,,,,,,,
,,,,,,,,,,,,,,,,,,,,,,,,,,,,,,,,,,,,,,,,,,5dc94678880a2965965fc001,606841d91824d1932b9394f5,2021-04-03_11h22.57.685,Colour_Similarity_Experiment,2020.2.10,Win32,60,60674ec340277cd6a308bc9f,16.75731742,16.65054791,16.64227431,16.65179357,16.64241989,16.65054791,,,,,,,,,,,,,,,,,,,,PF,strong,3,,,,,,,,3,0.64927,,,,,,,,,,,,,,,,,,,,,,,,,,,,2,strong,-36,-54,1,0,0,response5disk,4,141,-14,-10,1,0,0,rectangle,-14,-10,1,0,0,5,4,0.002575,-14,-10,1,0,0,0,140,140,145,1,0,,,,,,,,,,,,,,,,,,,,,
,,,,,,,,,,,,,,,,,,,,,,,,,,,,,,,,,,,,,,,,,,5dc94678880a2965965fc001,606841d91824d1932b9394f5,2021-04-03_11h22.57.685,Colour_Similarity_Experiment,2020.2.10,Win32,60,60674ec340277cd6a308bc9f,16.75731742,16.65054791,16.64227431,16.65179357,16.64241989,16.65054791,,,,,,,,,,,,,,,,,,,,PF,weak,3,,,,,,,,2,0.51633,,,,,,,,,,,,,,,,,,,,,,,,,,,,3,weak,-39,-22,1,0,0,response5disk,3,142,-14,-2,1,0,0,rectangle,-14,-2,1,0,0,5,0,0.001935,-14,-2,1,0,0,0,141,141,4,1,0,,,,,,,,,,,,,,,,,,,,,
,,,,,,,,,,,,,,,,,,,,,,,,,,,,,,,,,,,,,,,,,,5dc94678880a2965965fc001,606841d91824d1932b9394f5,2021-04-03_11h22.57.685,Colour_Similarity_Experiment,2020.2.10,Win32,60,60674ec340277cd6a308bc9f,16.75731742,16.65054791,16.64227431,16.65179357,16.64241989,16.65054791,,,,,,,,,,,,,,,,,,,,PF,weak,3,,,,,,,,6,0.58298,,,,,,,,,,,,,,,,,,,,,,,,,,,,9,weak,35,29,1,0,0,response1disk,7,143,11,0,1,0,0,rectangle,11,0,1,0,0,5,2,0.00364,11,0,1,0,0,0,142,142,121,1,0,,,,,,,,,,,,,,,,,,,,,
,,,,,,,,,,,,,,,,,,,,,,,,,,,,,,,,,,,,,,,,,,5dc94678880a2965965fc001,606841d91824d1932b9394f5,2021-04-03_11h22.57.685,Colour_Similarity_Experiment,2020.2.10,Win32,60,60674ec340277cd6a308bc9f,16.75731742,16.65054791,16.64227431,16.65179357,16.64241989,16.65054791,,,,,,,,,,,,,,,,,,,,PF,weak,3,,,,,,,,5,0.71578,,,,,,,,,,,,,,,,,,,,,,,,,,,,6,weak,36,-27,1,0,0,response3disk,4,144,-3,-7,1,0,0,rectangle,-3,-7,1,0,0,5,0,0.002445,-3,-7,1,0,0,0,143,143,33,1,0,,,,,,,,,,,,,,,,,,,,,
,,,,,,,,,,,,,,,,,,,,,,,,,,,,,,,,,,,,,,,,,,5dc94678880a2965965fc001,606841d91824d1932b9394f5,2021-04-03_11h22.57.685,Colour_Similarity_Experiment,2020.2.10,Win32,60,60674ec340277cd6a308bc9f,16.75731742,16.65054791,16.64227431,16.65179357,16.64241989,16.65054791,,,,,,,,,,,,,,,,,,,,PF,weak,3,,,,,,,,0,0.69703,,,,,,,,,,,,,,,,,,,,,,,,,,,,4,weak,-21,37,1,0,0,response7disk,6,145,-8,-3,1,0,0,rectangle,-8,-3,1,0,0,5,2,0.000925,-8,-3,1,0,0,0,144,144,120,1,0,,,,,,,,,,,,,,,,,,,,,
,,,,,,,,,,,,,,,,,,,,,,,,,,,,,,,,,,,,,,,,,,5dc94678880a2965965fc001,606841d91824d1932b9394f5,2021-04-03_11h22.57.685,Colour_Similarity_Experiment,2020.2.10,Win32,60,60674ec340277cd6a308bc9f,16.75731742,16.65054791,16.64227431,16.65179357,16.64241989,16.65054791,,,,,,,,,,,,,,,,,,,,PF,weak,3,,,,,,,,4,0.899285,,,,,,,,,,,,,,,,,,,,,,,,,,,,6,weak,45,-54,1,0,0,response3disk,2,146,1,-1,1,0,0,rectangle,1,-1,1,0,0,5,3,0.00261,1,-1,1,0,0,0,145,145,130,1,0,,,,,,,,,,,,,,,,,,,,,
,,,,,,,,,,,,,,,,,,,,,,,,,,,,,,,,,,,,,,,,,,5dc94678880a2965965fc001,606841d91824d1932b9394f5,2021-04-03_11h22.57.685,Colour_Similarity_Experiment,2020.2.10,Win32,60,60674ec340277cd6a308bc9f,16.75731742,16.65054791,16.64227431,16.65179357,16.64241989,16.65054791,,,,,,,,,,,,,,,,,,,,PF,strong,3,,,,,,,,7,0.81574,,,,,,,,,,,,,,,,,,,,,,,,,,,,5,strong,20,39,1,0,0,response1disk,3,147,1,-1,1,0,0,rectangle,1,-1,1,0,0,5,7,0.001675,1,-1,1,0,0,0,146,146,25,1,0,,,,,,,,,,,,,,,,,,,,,
,,,,,,,,,,,,,,,,,,,,,,,,,,,,,,,,,,,,,,,,,,5dc94678880a2965965fc001,606841d91824d1932b9394f5,2021-04-03_11h22.57.685,Colour_Similarity_Experiment,2020.2.10,Win32,60,60674ec340277cd6a308bc9f,16.75731742,16.65054791,16.64227431,16.65179357,16.64241989,16.65054791,,,,,,,,,,,,,,,,,,,,PF,weak,3,,,,,,,,6,1.36543,,,,,,,,,,,,,,,,,,,,,,,,,,,,7,weak,46,28,1,0,0,response1disk,7,148,4,-1,1,0,0,rectangle,4,-1,1,0,0,5,6,0.00193,4,-1,1,0,0,0,147,147,51,1,0,,,,,,,,,,,,,,,,,,,,,
,,,,,,,,,,,,,,,,,,,,,,,,,,,,,,,,,,,,,,,,,,5dc94678880a2965965fc001,606841d91824d1932b9394f5,2021-04-03_11h22.57.685,Colour_Similarity_Experiment,2020.2.10,Win32,60,60674ec340277cd6a308bc9f,16.75731742,16.65054791,16.64227431,16.65179357,16.64241989,16.65054791,,,,,,,,,,,,,,,,,,,,PF,weak,3,,,,,,,,4,0.613745,,,,,,,,,,,,,,,,,,,,,,,,,,,,6,weak,34,-54,1,0,0,response3disk,3,149,6,-2,1,0,0,rectangle,6,-2,1,0,0,5,6,0.000205,6,-2,1,0,0,0,148,148,26,1,0,,,,,,,,,,,,,,,,,,,,,
,,,,,,,,,,,,,,,,,,,,,,,,,,,,,,,,,,,,,,,,,,5dc94678880a2965965fc001,606841d91824d1932b9394f5,2021-04-03_11h22.57.685,Colour_Similarity_Experiment,2020.2.10,Win32,60,60674ec340277cd6a308bc9f,16.75731742,16.65054791,16.64227431,16.65179357,16.64241989,16.65054791,,,,,,,,,,,,,,,,,,,,PF,weak,3,,,,,,,,7,1.48226,,,,,,,,,,,,,,,,,,,,,,,,,,,,4,weak,34,46,1,0,0,response1disk,3,150,2,-3,1,0,0,rectangle,2,-3,1,0,0,5,3,0.00215,2,-3,1,0,0,0,149,149,89,1,0,,,,,,,,,,,,,,,,,,,,,
,,,,,,,,,,,,,,,,,,,,,,,,,,,,,,,,,,,,,,,,,,5dc94678880a2965965fc001,606841d91824d1932b9394f5,2021-04-03_11h22.57.685,Colour_Similarity_Experiment,2020.2.10,Win32,60,60674ec340277cd6a308bc9f,16.75731742,16.65054791,16.64227431,16.65179357,16.64241989,16.65054791,,,,,,,,,,,,,,,,,,,,PF,strong,3,,,,,,,,5,1.348585,,,,,,,,,,,,,,,,,,,,,,,,,,,,1,strong,63,-32,1,0,0,response3disk,9,151,3,-6,1,0,0,rectangle,3,-6,1,0,0,5,5,0.00327,3,-6,1,0,0,0,150,150,123,1,0,,,,,,,,,,,,,,,,,,,,,
,,,,,,,,,,,,,,,,,,,,,,,,,,,,,,,,,,,,,,,,,,5dc94678880a2965965fc001,606841d91824d1932b9394f5,2021-04-03_11h22.57.685,Colour_Similarity_Experiment,2020.2.10,Win32,60,60674ec340277cd6a308bc9f,16.75731742,16.65054791,16.64227431,16.65179357,16.64241989,16.65054791,,,,,,,,,,,,,,,,,,,,PF,weak,3,,,,,,,,3,0.633305,,,,,,,,,,,,,,,,,,,,,,,,,,,,8,weak,-39,-56,1,0,0,response5disk,4,152,-6,-4,1,0,0,rectangle,-6,-4,1,0,0,5,5,0.00036,-6,-4,1,0,0,0,151,151,78,1,0,,,,,,,,,,,,,,,,,,,,,
,,,,,,,,,,,,,,,,,,,,,,,,,,,,,,,,,,,,,,,,,,5dc94678880a2965965fc001,606841d91824d1932b9394f5,2021-04-03_11h22.57.685,Colour_Similarity_Experiment,2020.2.10,Win32,60,60674ec340277cd6a308bc9f,16.75731742,16.65054791,16.64227431,16.65179357,16.64241989,16.65054791,,,,,,,,,,,,,,,,,,,,PF,strong,3,,,,,,,,2,0.697295,,,,,,,,,,,,,,,,,,,,,,,,,,,,5,strong,-40,-27,1,0,0,response5disk,2,153,-9,-4,1,0,0,rectangle,-73,30,1,0,0,1,1,1.518065,-16,5,1,0,0,0,152,152,55,1,1,response7disk_3,rectangle,,,,,,,,,,,,,,,,,,,
,,,,,,,,,,,,,,,,,,,,,,,,,,,,,,,,,,,,,,,,,,5dc94678880a2965965fc001,606841d91824d1932b9394f5,2021-04-03_11h22.57.685,Colour_Similarity_Experiment,2020.2.10,Win32,60,60674ec340277cd6a308bc9f,16.75731742,16.65054791,16.64227431,16.65179357,16.64241989,16.65054791,,,,,,,,,,,,,,,,,,,,PF,strong,3,,,,,,,,1,0.81536,,,,,,,,,,,,,,,,,,,,,,,,,,,,4,strong,-67,26,1,0,0,response7disk,5,154,-15,1,1,0,0,rectangle,-15,1,1,0,0,1,3,0.00233,-15,1,1,0,0,0,153,153,116,1,0,,,,,,,,,,,,,,,,,,,,,
,,,,,,,,,,,,,,,,,,,,,,,,,,,,,,,,,,,,,,,,,,5dc94678880a2965965fc001,606841d91824d1932b9394f5,2021-04-03_11h22.57.685,Colour_Similarity_Experiment,2020.2.10,Win32,60,60674ec340277cd6a308bc9f,16.75731742,16.65054791,16.64227431,16.65179357,16.64241989,16.65054791,,,,,,,,,,,,,,,,,,,,PF,strong,3,,,,,,,,0,0.94964,,,,,,,,,,,,,,,,,,,,,,,,,,,,6,strong,-23,49,1,0,0,response7disk,4,155,8,5,1,0,0,rectangle,8,5,1,0,0,1,6,0.002275,8,5,1,0,0,0,154,154,56,1,0,,,,,,,,,,,,,,,,,,,,,
,,,,,,,,,,,,,,,,,,,,,,,,,,,,,,,,,,,,,,,,,,5dc94678880a2965965fc001,606841d91824d1932b9394f5,2021-04-03_11h22.57.685,Colour_Similarity_Experiment,2020.2.10,Win32,60,60674ec340277cd6a308bc9f,16.75731742,16.65054791,16.64227431,16.65179357,16.64241989,16.65054791,,,,,,,,,,,,,,,,,,,,PF,strong,3,,,,,,,,3,0.649825,,,,,,,,,,,,,,,,,,,,,,,,,,,,3,strong,-24,-67,1,0,0,response5disk,3,156,-1,-5,1,0,0,rectangle,-1,-5,1,0,0,1,6,0.000485,-1,-5,1,0,0,0,155,155,68,1,0,,,,,,,,,,,,,,,,,,,,,
,,,,,,,,,,,,,,,,,,,,,,,,,,,,,,,,,,,,,,,,,,5dc94678880a2965965fc001,606841d91824d1932b9394f5,2021-04-03_11h22.57.685,Colour_Similarity_Experiment,2020.2.10,Win32,60,60674ec340277cd6a308bc9f,16.75731742,16.65054791,16.64227431,16.65179357,16.64241989,16.65054791,,,,,,,,,,,,,,,,,,,,PF,weak,3,,,,,,,,5,0.417235,,,,,,,,,,,,,,,,,,,,,,,,,,,,3,weak,65,-29,1,0,0,response3disk,9,157,5,-4,1,0,0,rectangle,5,-4,1,0,0,1,2,0.00232,5,-4,1,0,0,0,156,156,79,1,0,,,,,,,,,,,,,,,,,,,,,
,,,,,,,,,,,,,,,,,,,,,,,,,,,,,,,,,,,,,,,,,,5dc94678880a2965965fc001,606841d91824d1932b9394f5,2021-04-03_11h22.57.685,Colour_Similarity_Experiment,2020.2.10,Win32,60,60674ec340277cd6a308bc9f,16.75731742,16.65054791,16.64227431,16.65179357,16.64241989,16.65054791,,,,,,,,,,,,,,,,,,,,PF,weak,3,,,,,,,,4,0.331015,,,,,,,,,,,,,,,,,,,,,,,,,,,,7,weak,31,-68,1,0,0,response3disk,2,158,-5,-4,1,0,0,rectangle,-5,-4,1,0,0,1,4,0.00281,-5,-4,1,0,0,0,157,157,32,1,0,,,,,,,,,,,,,,,,,,,,,
,,,,,,,,,,,,,,,,,,,,,,,,,,,,,,,,,,,,,,,,,,5dc94678880a2965965fc001,606841d91824d1932b9394f5,2021-04-03_11h22.57.685,Colour_Similarity_Experiment,2020.2.10,Win32,60,60674ec340277cd6a308bc9f,16.75731742,16.65054791,16.64227431,16.65179357,16.64241989,16.65054791,,,,,,,,,,,,,,,,,,,,PF,weak,3,,,,,,,,1,0.51573,,,,,,,,,,,,,,,,,,,,,,,,,,,,1,weak,-83,24,1,0,0,response7disk,3,159,-4,4,1,0,0,rectangle,-4,4,1,0,0,1,0,0.00199,-4,4,1,0,0,0,158,158,1,1,0,,,,,,,,,,,,,,,,,,,,,
,,,,,,,,,,,,,,,,,,,,,,,,,,,,,,,,,,,,,,,,,,5dc94678880a2965965fc001,606841d91824d1932b9394f5,2021-04-03_11h22.57.685,Colour_Similarity_Experiment,2020.2.10,Win32,60,60674ec340277cd6a308bc9f,16.75731742,16.65054791,16.64227431,16.65179357,16.64241989,16.65054791,,,,,,,,,,,,,,,,,,,,PF,strong,3,,,,,,,,6,0.399245,,,,,,,,,,,,,,,,,,,,,,,,,,,,7,strong,51,40,1,0,0,response1disk,9,160,17,4,1,0,0,rectangle,17,4,1,0,0,1,0,0.000255,17,4,1,0,0,0,159,159,155,1,0,,,,,,,,,,,,,,,,,,,,,
,,,,,,,,,,,,,,,,,,,,,,,,,,,,,,,,,,,,,,,,,,5dc94678880a2965965fc001,606841d91824d1932b9394f5,2021-04-03_11h22.57.685,Colour_Similarity_Experiment,2020.2.10,Win32,60,60674ec340277cd6a308bc9f,16.75731742,16.65054791,16.64227431,16.65179357,16.64241989,16.65054791,,,,,,,,,,,,,,,,,,,,PF,strong,3,,,,,,,,5,0.618225,,,,,,,,,,,,,,,,,,,,,,,,,,,,7,strong,58,-25,1,0,0,response3disk,5,161,-6,7,1,0,0,rectangle,-6,7,1,0,0,1,5,0.00112,-6,7,1,0,0,0,160,160,156,1,0,,,,,,,,,,,,,,,,,,,,,
,,,,,,,,,,,,,,,,,,,,,,,,,,,,,,,,,,,,,,,,,,5dc94678880a2965965fc001,606841d91824d1932b9394f5,2021-04-03_11h22.57.685,Colour_Similarity_Experiment,2020.2.10,Win32,60,60674ec340277cd6a308bc9f,16.75731742,16.65054791,16.64227431,16.65179357,16.64241989,16.65054791,,,,,,,,,,,,,,,,,,,,PF,strong,3,,,,,,,,7,0.59978,,,,,,,,,,,,,,,,,,,,,,,,,,,,7,strong,29,48,1,0,0,response1disk,2,162,8,7,1,0,0,rectangle,8,7,1,0,0,1,6,0.00338,8,7,1,0,0,0,161,161,138,1,0,,,,,,,,,,,,,,,,,,,,,
,,,,,,,,,,,,,,,,,,,,,,,,,,,,,,,,,,,,,,,,,,5dc94678880a2965965fc001,606841d91824d1932b9394f5,2021-04-03_11h22.57.685,Colour_Similarity_Experiment,2020.2.10,Win32,60,60674ec340277cd6a308bc9f,16.75731742,16.65054791,16.64227431,16.65179357,16.64241989,16.65054791,,,,,,,,,,,,,,,,,,,,,,,,,,,,,,,,,,,,,,,,,,,,,,,,,,,,,,,,,,,,,,,,,,,,,,,,,,,,,,,,,,,,,,,,,,,,,,,,0,0,0,0,1,,,,,,,,,,,,,,
,,,,,,,,,,,,,,,,,,,,,,,,,,,,,,,,,,,,,,,,,,5dc94678880a2965965fc001,606841d91824d1932b9394f5,2021-04-03_11h22.57.685,Colour_Similarity_Experiment,2020.2.10,Win32,60,60674ec340277cd6a308bc9f,16.75731742,16.65054791,16.64227431,16.65179357,16.64241989,16.65054791,,,,,,,,,,,,,,,,,,,,PF,weak,3,,,,,,,,0,0.36626,,,,,,,,,,,,,,,,,,,,,,,,,,,,2,weak,-37,48,1,0,0,response7disk,6,163,-11,6,1,0,0,rectangle,-11,6,1,0,0,1,3,0.00228,-11,6,1,0,0,0,0,0,113,1,0,,,,,,,,,,,,,,,,,,,,,
,,,,,,,,,,,,,,,,,,,,,,,,,,,,,,,,,,,,,,,,,,5dc94678880a2965965fc001,606841d91824d1932b9394f5,2021-04-03_11h22.57.685,Colour_Similarity_Experiment,2020.2.10,Win32,60,60674ec340277cd6a308bc9f,16.75731742,16.65054791,16.64227431,16.65179357,16.64241989,16.65054791,,,,,,,,,,,,,,,,,,,,PF,strong,3,,,,,,,,3,0.41603,,,,,,,,,,,,,,,,,,,,,,,,,,,,6,strong,-38,-48,1,0,0,response5disk,5,164,-4,-2,1,0,0,rectangle,-4,-2,1,0,0,1,1,0.00369,-4,-2,1,0,0,0,1,1,126,1,0,,,,,,,,,,,,,,,,,,,,,
,,,,,,,,,,,,,,,,,,,,,,,,,,,,,,,,,,,,,,,,,,5dc94678880a2965965fc001,606841d91824d1932b9394f5,2021-04-03_11h22.57.685,Colour_Similarity_Experiment,2020.2.10,Win32,60,60674ec340277cd6a308bc9f,16.75731742,16.65054791,16.64227431,16.65179357,16.64241989,16.65054791,,,,,,,,,,,,,,,,,,,,PF,weak,3,,,,,,,,5,0.38306,,,,,,,,,,,,,,,,,,,,,,,,,,,,1,weak,46,-27,1,0,0,response3disk,6,165,-2,7,1,0,0,rectangle,-2,7,1,0,0,1,6,0.003155,-2,7,1,0,0,0,2,2,144,1,0,,,,,,,,,,,,,,,,,,,,,
,,,,,,,,,,,,,,,,,,,,,,,,,,,,,,,,,,,,,,,,,,5dc94678880a2965965fc001,606841d91824d1932b9394f5,2021-04-03_11h22.57.685,Colour_Similarity_Experiment,2020.2.10,Win32,60,60674ec340277cd6a308bc9f,16.75731742,16.65054791,16.64227431,16.65179357,16.64241989,16.65054791,,,,,,,,,,,,,,,,,,,,PF,strong,3,,,,,,,,4,0.58335,,,,,,,,,,,,,,,,,,,,,,,,,,,,3,strong,33,-47,1,0,0,response3disk,8,166,7,0,1,0,0,rectangle,7,0,1,0,0,1,4,0.002305,7,0,1,0,0,0,3,3,44,1,0,,,,,,,,,,,,,,,,,,,,,
,,,,,,,,,,,,,,,,,,,,,,,,,,,,,,,,,,,,,,,,,,5dc94678880a2965965fc001,606841d91824d1932b9394f5,2021-04-03_11h22.57.685,Colour_Similarity_Experiment,2020.2.10,Win32,60,60674ec340277cd6a308bc9f,16.75731742,16.65054791,16.64227431,16.65179357,16.64241989,16.65054791,,,,,,,,,,,,,,,,,,,,PF,strong,3,,,,,,,,3,1.26728,,,,,,,,,,,,,,,,,,,,,,,,,,,,8,strong,-20,-53,1,0,0,response5disk,2,167,3,0,1,0,0,rectangle,3,0,1,0,0,1,4,0.00034,3,0,1,0,0,0,4,4,22,1,0,,,,,,,,,,,,,,,,,,,,,
,,,,,,,,,,,,,,,,,,,,,,,,,,,,,,,,,,,,,,,,,,5dc94678880a2965965fc001,606841d91824d1932b9394f5,2021-04-03_11h22.57.685,Colour_Similarity_Experiment,2020.2.10,Win32,60,60674ec340277cd6a308bc9f,16.75731742,16.65054791,16.64227431,16.65179357,16.64241989,16.65054791,,,,,,,,,,,,,,,,,,,,PF,weak,3,,,,,,,,6,0.43781,,,,,,,,,,,,,,,,,,,,,,,,,,,,7,weak,48,31,1,0,0,response1disk,5,168,2,-5,1,0,0,rectangle,2,-5,1,0,0,1,6,0.00094,2,-5,1,0,0,0,5,5,92,1,0,,,,,,,,,,,,,,,,,,,,,
,,,,,,,,,,,,,,,,,,,,,,,,,,,,,,,,,,,,,,,,,,5dc94678880a2965965fc001,606841d91824d1932b9394f5,2021-04-03_11h22.57.685,Colour_Similarity_Experiment,2020.2.10,Win32,60,60674ec340277cd6a308bc9f,16.75731742,16.65054791,16.64227431,16.65179357,16.64241989,16.65054791,,,,,,,,,,,,,,,,,,,,PF,weak,3,,,,,,,,2,0.550055,,,,,,,,,,,,,,,,,,,,,,,,,,,,2,weak,-65,-30,1,0,0,response5disk,1,169,-9,-6,1,0,0,rectangle,-9,-6,1,0,0,1,0,0.002155,-9,-6,1,0,0,0,6,6,9,1,0,,,,,,,,,,,,,,,,,,,,,
,,,,,,,,,,,,,,,,,,,,,,,,,,,,,,,,,,,,,,,,,,5dc94678880a2965965fc001,606841d91824d1932b9394f5,2021-04-03_11h22.57.685,Colour_Similarity_Experiment,2020.2.10,Win32,60,60674ec340277cd6a308bc9f,16.75731742,16.65054791,16.64227431,16.65179357,16.64241989,16.65054791,,,,,,,,,,,,,,,,,,,,PF,weak,3,,,,,,,,5,0.49896,,,,,,,,,,,,,,,,,,,,,,,,,,,,5,weak,51,-25,1,0,0,response3disk,4,170,0,-3,1,0,0,rectangle,0,-3,1,0,0,1,5,0.003505,0,-3,1,0,0,0,7,7,54,1,0,,,,,,,,,,,,,,,,,,,,,
,,,,,,,,,,,,,,,,,,,,,,,,,,,,,,,,,,,,,,,,,,5dc94678880a2965965fc001,606841d91824d1932b9394f5,2021-04-03_11h22.57.685,Colour_Similarity_Experiment,2020.2.10,Win32,60,60674ec340277cd6a308bc9f,16.75731742,16.65054791,16.64227431,16.65179357,16.64241989,16.65054791,,,,,,,,,,,,,,,,,,,,PF,weak,3,,,,,,,,7,0.40007,,,,,,,,,,,,,,,,,,,,,,,,,,,,1,weak,21,56,1,0,0,response1disk,5,171,1,-2,1,0,0,rectangle,1,-2,1,0,0,1,6,0.00252,1,-2,1,0,0,0,8,8,28,1,0,,,,,,,,,,,,,,,,,,,,,
,,,,,,,,,,,,,,,,,,,,,,,,,,,,,,,,,,,,,,,,,,5dc94678880a2965965fc001,606841d91824d1932b9394f5,2021-04-03_11h22.57.685,Colour_Similarity_Experiment,2020.2.10,Win32,60,60674ec340277cd6a308bc9f,16.75731742,16.65054791,16.64227431,16.65179357,16.64241989,16.65054791,,,,,,,,,,,,,,,,,,,,PF,strong,3,,,,,,,,0,0.649915,,,,,,,,,,,,,,,,,,,,,,,,,,,,1,strong,-27,66,1,0,0,response7disk,7,172,-8,9,1,0,0,rectangle,-8,9,1,0,0,1,4,0.003305,-8,9,1,0,0,0,9,9,137,1,0,,,,,,,,,,,,,,,,,,,,,
,,,,,,,,,,,,,,,,,,,,,,,,,,,,,,,,,,,,,,,,,,5dc94678880a2965965fc001,606841d91824d1932b9394f5,2021-04-03_11h22.57.685,Colour_Similarity_Experiment,2020.2.10,Win32,60,60674ec340277cd6a308bc9f,16.75731742,16.65054791,16.64227431,16.65179357,16.64241989,16.65054791,,,,,,,,,,,,,,,,,,,,PF,strong,3,,,,,,,,1,0.632595,,,,,,,,,,,,,,,,,,,,,,,,,,,,5,strong,-48,25,1,0,0,response7disk,4,173,-5,7,1,0,0,rectangle,-5,7,1,0,0,1,6,0.00229,-5,7,1,0,0,0,10,10,8,1,0,,,,,,,,,,,,,,,,,,,,,
,,,,,,,,,,,,,,,,,,,,,,,,,,,,,,,,,,,,,,,,,,5dc94678880a2965965fc001,606841d91824d1932b9394f5,2021-04-03_11h22.57.685,Colour_Similarity_Experiment,2020.2.10,Win32,60,60674ec340277cd6a308bc9f,16.75731742,16.65054791,16.64227431,16.65179357,16.64241989,16.65054791,,,,,,,,,,,,,,,,,,,,PF,weak,3,,,,,,,,6,0.452875,,,,,,,,,,,,,,,,,,,,,,,,,,,,6,weak,60,47,1,0,0,response1disk,9,174,4,2,1,0,0,rectangle,4,2,1,0,0,1,5,0.00213,4,2,1,0,0,0,11,11,45,1,0,,,,,,,,,,,,,,,,,,,,,
,,,,,,,,,,,,,,,,,,,,,,,,,,,,,,,,,,,,,,,,,,5dc94678880a2965965fc001,606841d91824d1932b9394f5,2021-04-03_11h22.57.685,Colour_Similarity_Experiment,2020.2.10,Win32,60,60674ec340277cd6a308bc9f,16.75731742,16.65054791,16.64227431,16.65179357,16.64241989,16.65054791,,,,,,,,,,,,,,,,,,,,PF,strong,3,,,,,,,,5,1.251065,,,,,,,,,,,,,,,,,,,,,,,,,,,,1,strong,58,-30,1,0,0,response3disk,8,175,4,-2,1,0,0,rectangle,4,-2,1,0,0,1,6,0.00331,4,-2,1,0,0,0,12,12,27,1,0,,,,,,,,,,,,,,,,,,,,,
,,,,,,,,,,,,,,,,,,,,,,,,,,,,,,,,,,,,,,,,,,5dc94678880a2965965fc001,606841d91824d1932b9394f5,2021-04-03_11h22.57.685,Colour_Similarity_Experiment,2020.2.10,Win32,60,60674ec340277cd6a308bc9f,16.75731742,16.65054791,16.64227431,16.65179357,16.64241989,16.65054791,,,,,,,,,,,,,,,,,,,,PF,weak,3,,,,,,,,3,1.281755,,,,,,,,,,,,,,,,,,,,,,,,,,,,6,weak,-28,-48,1,0,0,response5disk,5,176,-5,-4,1,0,0,rectangle,-5,-4,1,0,0,1,3,0.003025,-5,-4,1,0,0,0,13,13,59,1,0,,,,,,,,,,,,,,,,,,,,,
,,,,,,,,,,,,,,,,,,,,,,,,,,,,,,,,,,,,,,,,,,5dc94678880a2965965fc001,606841d91824d1932b9394f5,2021-04-03_11h22.57.685,Colour_Similarity_Experiment,2020.2.10,Win32,60,60674ec340277cd6a308bc9f,16.75731742,16.65054791,16.64227431,16.65179357,16.64241989,16.65054791,,,,,,,,,,,,,,,,,,,,PF,weak,3,,,,,,,,4,0.747055,,,,,,,,,,,,,,,,,,,,,,,,,,,,1,weak,27,-56,1,0,0,response3disk,8,177,-13,2,1,0,0,rectangle,-13,2,1,0,0,1,2,0.000955,-13,2,1,0,0,0,14,14,65,1,0,,,,,,,,,,,,,,,,,,,,,
,,,,,,,,,,,,,,,,,,,,,,,,,,,,,,,,,,,,,,,,,,5dc94678880a2965965fc001,606841d91824d1932b9394f5,2021-04-03_11h22.57.685,Colour_Similarity_Experiment,2020.2.10,Win32,60,60674ec340277cd6a308bc9f,16.75731742,16.65054791,16.64227431,16.65179357,16.64241989,16.65054791,,,,,,,,,,,,,,,,,,,,PF,weak,3,,,,,,,,1,0.765995,,,,,,,,,,,,,,,,,,,,,,,,,,,,8,weak,-63,23,1,0,0,response7disk,8,178,1,0,1,0,0,rectangle,1,0,1,0,0,1,4,0.001335,1,0,1,0,0,0,15,15,153,1,0,,,,,,,,,,,,,,,,,,,,,
,,,,,,,,,,,,,,,,,,,,,,,,,,,,,,,,,,,,,,,,,,5dc94678880a2965965fc001,606841d91824d1932b9394f5,2021-04-03_11h22.57.685,Colour_Similarity_Experiment,2020.2.10,Win32,60,60674ec340277cd6a308bc9f,16.75731742,16.65054791,16.64227431,16.65179357,16.64241989,16.65054791,,,,,,,,,,,,,,,,,,,,PF,weak,3,,,,,,,,7,0.747665,,,,,,,,,,,,,,,,,,,,,,,,,,,,7,weak,23,46,1,0,0,response1disk,4,179,10,-3,1,0,0,rectangle,10,-3,1,0,0,1,4,0.000135,10,-3,1,0,0,0,16,16,43,1,0,,,,,,,,,,,,,,,,,,,,,
,,,,,,,,,,,,,,,,,,,,,,,,,,,,,,,,,,,,,,,,,,5dc94678880a2965965fc001,606841d91824d1932b9394f5,2021-04-03_11h22.57.685,Colour_Similarity_Experiment,2020.2.10,Win32,60,60674ec340277cd6a308bc9f,16.75731742,16.65054791,16.64227431,16.65179357,16.64241989,16.65054791,,,,,,,,,,,,,,,,,,,,PF,weak,3,,,,,,,,6,0.533175,,,,,,,,,,,,,,,,,,,,,,,,,,,,9,weak,69,32,1,0,0,response1disk,9,180,24,3,1,0,0,rectangle,24,3,1,0,0,1,2,0.00367,24,3,1,0,0,0,17,17,106,1,0,,,,,,,,,,,,,,,,,,,,,
,,,,,,,,,,,,,,,,,,,,,,,,,,,,,,,,,,,,,,,,,,5dc94678880a2965965fc001,606841d91824d1932b9394f5,2021-04-03_11h22.57.685,Colour_Similarity_Experiment,2020.2.10,Win32,60,60674ec340277cd6a308bc9f,16.75731742,16.65054791,16.64227431,16.65179357,16.64241989,16.65054791,,,,,,,,,,,,,,,,,,,,PF,strong,3,,,,,,,,5,0.36678,,,,,,,,,,,,,,,,,,,,,,,,,,,,7,strong,53,-28,1,0,0,response3disk,4,181,12,-4,1,0,0,rectangle,12,-4,1,0,0,1,1,0.00116,12,-4,1,0,0,0,18,18,158,1,0,,,,,,,,,,,,,,,,,,,,,
,,,,,,,,,,,,,,,,,,,,,,,,,,,,,,,,,,,,,,,,,,5dc94678880a2965965fc001,606841d91824d1932b9394f5,2021-04-03_11h22.57.685,Colour_Similarity_Experiment,2020.2.10,Win32,60,60674ec340277cd6a308bc9f,16.75731742,16.65054791,16.64227431,16.65179357,16.64241989,16.65054791,,,,,,,,,,,,,,,,,,,,PF,weak,3,,,,,,,,4,0.49944,,,,,,,,,,,,,,,,,,,,,,,,,,,,7,weak,33,-58,1,0,0,response3disk,3,182,-8,1,1,0,0,rectangle,-8,1,1,0,0,1,0,0.00317,-8,1,1,0,0,0,19,19,81,1,0,,,,,,,,,,,,,,,,,,,,,
,,,,,,,,,,,,,,,,,,,,,,,,,,,,,,,,,,,,,,,,,,5dc94678880a2965965fc001,606841d91824d1932b9394f5,2021-04-03_11h22.57.685,Colour_Similarity_Experiment,2020.2.10,Win32,60,60674ec340277cd6a308bc9f,16.75731742,16.65054791,16.64227431,16.65179357,16.64241989,16.65054791,,,,,,,,,,,,,,,,,,,,PF,strong,3,,,,,,,,3,0.69944,,,,,,,,,,,,,,,,,,,,,,,,,,,,3,strong,-33,-55,1,0,0,response5disk,2,183,-3,-5,1,0,0,rectangle,-3,-5,1,0,0,1,5,0.002245,-3,-5,1,0,0,0,20,20,93,1,0,,,,,,,,,,,,,,,,,,,,,
,,,,,,,,,,,,,,,,,,,,,,,,,,,,,,,,,,,,,,,,,,5dc94678880a2965965fc001,606841d91824d1932b9394f5,2021-04-03_11h22.57.685,Colour_Similarity_Experiment,2020.2.10,Win32,60,60674ec340277cd6a308bc9f,16.75731742,16.65054791,16.64227431,16.65179357,16.64241989,16.65054791,,,,,,,,,,,,,,,,,,,,PF,strong,3,,,,,,,,2,0.549465,,,,,,,,,,,,,,,,,,,,,,,,,,,,2,strong,-39,-22,1,0,0,response5disk,8,184,-2,-5,1,0,0,rectangle,-2,-5,1,0,0,1,1,0.002645,-2,-5,1,0,0,0,21,21,62,1,0,,,,,,,,,,,,,,,,,,,,,
,,,,,,,,,,,,,,,,,,,,,,,,,,,,,,,,,,,,,,,,,,5dc94678880a2965965fc001,606841d91824d1932b9394f5,2021-04-03_11h22.57.685,Colour_Similarity_Experiment,2020.2.10,Win32,60,60674ec340277cd6a308bc9f,16.75731742,16.65054791,16.64227431,16.65179357,16.64241989,16.65054791,,,,,,,,,,,,,,,,,,,,PF,strong,3,,,,,,,,1,0.615705,,,,,,,,,,,,,,,,,,,,,,,,,,,,2,strong,-56,22,1,0,0,response7disk,9,185,-6,4,1,0,0,rectangle,-6,4,1,0,0,1,3,0.003525,-6,4,1,0,0,0,22,22,72,1,0,,,,,,,,,,,,,,,,,,,,,
,,,,,,,,,,,,,,,,,,,,,,,,,,,,,,,,,,,,,,,,,,5dc94678880a2965965fc001,606841d91824d1932b9394f5,2021-04-03_11h22.57.685,Colour_Similarity_Experiment,2020.2.10,Win32,60,60674ec340277cd6a308bc9f,16.75731742,16.65054791,16.64227431,16.65179357,16.64241989,16.65054791,,,,,,,,,,,,,,,,,,,,PF,weak,3,,,,,,,,6,0.63257,,,,,,,,,,,,,,,,,,,,,,,,,,,,4,weak,74,25,1,0,0,response1disk,9,186,10,1,1,0,0,rectangle,10,1,1,0,0,1,6,0.00322,10,1,1,0,0,0,23,23,75,1,0,,,,,,,,,,,,,,,,,,,,,
,,,,,,,,,,,,,,,,,,,,,,,,,,,,,,,,,,,,,,,,,,5dc94678880a2965965fc001,606841d91824d1932b9394f5,2021-04-03_11h22.57.685,Colour_Similarity_Experiment,2020.2.10,Win32,60,60674ec340277cd6a308bc9f,16.75731742,16.65054791,16.64227431,16.65179357,16.64241989,16.65054791,,,,,,,,,,,,,,,,,,,,PF,strong,3,,,,,,,,5,0.6831,,,,,,,,,,,,,,,,,,,,,,,,,,,,8,strong,60,-29,1,0,0,response3disk,6,187,8,-7,1,0,0,rectangle,8,-7,1,0,0,1,0,0.003765,8,-7,1,0,0,0,24,24,37,1,0,,,,,,,,,,,,,,,,,,,,,
,,,,,,,,,,,,,,,,,,,,,,,,,,,,,,,,,,,,,,,,,,5dc94678880a2965965fc001,606841d91824d1932b9394f5,2021-04-03_11h22.57.685,Colour_Similarity_Experiment,2020.2.10,Win32,60,60674ec340277cd6a308bc9f,16.75731742,16.65054791,16.64227431,16.65179357,16.64241989,16.65054791,,,,,,,,,,,,,,,,,,,,PF,weak,3,,,,,,,,4,0.434695,,,,,,,,,,,,,,,,,,,,,,,,,,,,1,weak,25,-47,1,0,0,response3disk,1,188,-12,2,1,0,0,rectangle,33,89,1,0,0,7,7,2.147625,9,8,1,0,0,0,25,25,76,1,1,response1disk_3,rectangle,,,,,,,,,,,,,,,,,,,
,,,,,,,,,,,,,,,,,,,,,,,,,,,,,,,,,,,,,,,,,,5dc94678880a2965965fc001,606841d91824d1932b9394f5,2021-04-03_11h22.57.685,Colour_Similarity_Experiment,2020.2.10,Win32,60,60674ec340277cd6a308bc9f,16.75731742,16.65054791,16.64227431,16.65179357,16.64241989,16.65054791,,,,,,,,,,,,,,,,,,,,PF,strong,3,,,,,,,,0,0.6997,,,,,,,,,,,,,,,,,,,,,,,,,,,,3,strong,-32,60,1,0,0,response7disk,4,189,-2,4,1,0,0,rectangle,-2,4,1,0,0,7,3,0.00092,-2,4,1,0,0,0,26,26,110,1,0,,,,,,,,,,,,,,,,,,,,,
,,,,,,,,,,,,,,,,,,,,,,,,,,,,,,,,,,,,,,,,,,5dc94678880a2965965fc001,606841d91824d1932b9394f5,2021-04-03_11h22.57.685,Colour_Similarity_Experiment,2020.2.10,Win32,60,60674ec340277cd6a308bc9f,16.75731742,16.65054791,16.64227431,16.65179357,16.64241989,16.65054791,,,,,,,,,,,,,,,,,,,,PF,weak,3,,,,,,,,6,0.3686,,,,,,,,,,,,,,,,,,,,,,,,,,,,5,weak,47,34,1,0,0,response1disk,3,190,16,-6,1,0,0,rectangle,16,-6,1,0,0,7,3,0.000585,16,-6,1,0,0,0,27,27,109,1,0,,,,,,,,,,,,,,,,,,,,,
,,,,,,,,,,,,,,,,,,,,,,,,,,,,,,,,,,,,,,,,,,5dc94678880a2965965fc001,606841d91824d1932b9394f5,2021-04-03_11h22.57.685,Colour_Similarity_Experiment,2020.2.10,Win32,60,60674ec340277cd6a308bc9f,16.75731742,16.65054791,16.64227431,16.65179357,16.64241989,16.65054791,,,,,,,,,,,,,,,,,,,,PF,weak,3,,,,,,,,5,0.48333,,,,,,,,,,,,,,,,,,,,,,,,,,,,2,weak,58,-30,1,0,0,response3disk,3,191,10,-4,1,0,0,rectangle,10,-4,1,0,0,7,1,0.00428,10,-4,1,0,0,0,28,28,69,1,0,,,,,,,,,,,,,,,,,,,,,
,,,,,,,,,,,,,,,,,,,,,,,,,,,,,,,,,,,,,,,,,,5dc94678880a2965965fc001,606841d91824d1932b9394f5,2021-04-03_11h22.57.685,Colour_Similarity_Experiment,2020.2.10,Win32,60,60674ec340277cd6a308bc9f,16.75731742,16.65054791,16.64227431,16.65179357,16.64241989,16.65054791,,,,,,,,,,,,,,,,,,,,PF,strong,3,,,,,,,,3,0.632955,,,,,,,,,,,,,,,,,,,,,,,,,,,,4,strong,-39,-59,1,0,0,response5disk,8,192,-14,-4,1,0,0,rectangle,-14,-4,1,0,0,7,1,0.000515,-14,-4,1,0,0,0,29,29,35,1,0,,,,,,,,,,,,,,,,,,,,,
,,,,,,,,,,,,,,,,,,,,,,,,,,,,,,,,,,,,,,,,,,5dc94678880a2965965fc001,606841d91824d1932b9394f5,2021-04-03_11h22.57.685,Colour_Similarity_Experiment,2020.2.10,Win32,60,60674ec340277cd6a308bc9f,16.75731742,16.65054791,16.64227431,16.65179357,16.64241989,16.65054791,,,,,,,,,,,,,,,,,,,,PF,strong,3,,,,,,,,4,0.68212,,,,,,,,,,,,,,,,,,,,,,,,,,,,7,strong,44,-66,1,0,0,response3disk,3,193,4,-5,1,0,0,rectangle,4,-5,1,0,0,7,5,0.001885,4,-5,1,0,0,0,30,30,73,1,0,,,,,,,,,,,,,,,,,,,,,
,,,,,,,,,,,,,,,,,,,,,,,,,,,,,,,,,,,,,,,,,,5dc94678880a2965965fc001,606841d91824d1932b9394f5,2021-04-03_11h22.57.685,Colour_Similarity_Experiment,2020.2.10,Win32,60,60674ec340277cd6a308bc9f,16.75731742,16.65054791,16.64227431,16.65179357,16.64241989,16.65054791,,,,,,,,,,,,,,,,,,,,PF,strong,3,,,,,,,,1,0.683695,,,,,,,,,,,,,,,,,,,,,,,,,,,,8,strong,-62,33,1,0,0,response7disk,1,194,2,-7,1,0,0,rectangle,2,-7,1,0,0,7,1,0.00082,2,-7,1,0,0,0,31,31,20,1,0,,,,,,,,,,,,,,,,,,,,,
