key_resp.keys,key_resp.rt,key_resp_16.keys,key_resp_16.rt,key_resp_2.keys,key_resp_2.rt,X Scale,ratio_pxpermm,screen_size_x,screen_size_y,testsize,key_resp_3.keys,key_resp_4.keys,key_resp_4.rt,line_size,key_resp_5.keys,key_resp_5.rt,key_resp_6.keys,key_resp_6.rt,key_resp_8.keys,key_resp_8.rt,key_resp_7.keys,key_resp_7.rt,key_resp_12.keys,key_resp_12.rt,key_resp_11.keys,key_resp_11.rt,key_resp_18.keys,key_resp_18.rt,key_resp_21.keys,key_resp_21.rt,key_resp_13.keys,key_resp_13.rt,key_resp_19.keys,key_resp_19.rt,ballposx,viewer_distance,trials.thisRepN,trials.thisTrialN,trials.thisN,trials.thisIndex,trials.ran,participant,session,date,expName,psychopyVersion,OS,frameRate,study_id,realFrameRate1,realFrameRate2,realFrameRate3,realFrameRate4,realFrameRate5,realFrameRate,viewerdistancecm,DVA_to_distance,radius_F,radius_P,r_F,R_P,key_resp_20.keys,key_resp_20.rt,key_resp_14.keys,key_resp_14.rt,key_resp_15.keys,key_resp_15.rt,key_resp_17.keys,key_resp_17.rt,key_resp_9.keys,key_resp_9.rt,key_resp_10.keys,key_resp_10.rt,Colour_1,Ecc,maskCon,mask_frames,mouse_5.x,mouse_5.y,mouse_5.leftButton,mouse_5.midButton,mouse_5.rightButton,mouse_5.clicked_name,Colour_2,similarity,response_time,mouse_10.x,mouse_10.y,mouse_10.leftButton,mouse_10.midButton,mouse_10.rightButton,mouse_10.clicked_name,mouse_7.x,mouse_7.y,mouse_7.leftButton,mouse_7.midButton,mouse_7.rightButton,catchnumberprac,mouse_6.x,mouse_6.y,mouse_6.leftButton,mouse_6.midButton,mouse_6.rightButton,duringprac.thisRepN,duringprac.thisTrialN,duringprac.thisN,duringprac.thisIndex,duringprac.ran,mouse_7.clicked_name,catchprac,mouse_6.clicked_name,key_resp_22.keys,key_resp_22.rt,Colour1,maskCon1,mouse.x,mouse.y,mouse.leftButton,mouse.midButton,mouse.rightButton,mouse.clicked_name,Colour2,trialnumber,mouse_2.x,mouse_2.y,mouse_2.leftButton,mouse_2.midButton,mouse_2.rightButton,mouse_2.clicked_name,mouse_3.x,mouse_3.y,mouse_3.leftButton,mouse_3.midButton,mouse_3.rightButton,catchresponse,catchnumber,response_time_catch,mouse_11.x,mouse_11.y,mouse_11.leftButton,mouse_11.midButton,mouse_11.rightButton,trials_2.thisRepN,trials_2.thisTrialN,trials_2.thisN,trials_2.thisIndex,trials_2.ran,Catch,mouse_3.clicked_name,mouse_11.clicked_name,trials_3.thisRepN,trials_3.thisTrialN,trials_3.thisN,trials_3.thisIndex,trials_3.ran,answer1,rt1,answer2,rt2,answer3,rt3,answer4,rt4,answer5,rt5,answer6,rt6,answer7,rt7
space,23.428,space,13.64,space,8.492,60.3,6.03,318.4079602,179.1044776,1920,,space,4.946,120.6,space,13.889,space,9.923,space,2.046,space,4.085,space,5.87,space,11.743,space,11.952,space,14.527,space,12.577,return,30.885,241.92,363.3966362,0,0,0,0,1,5dde2885fef7c2d901c6d35a,60684b4e7d14374480f2153f,2021-04-03_12h03.36.541,Colour_Similarity_Experiment,2020.2.10,Win32,60,60674ec340277cd6a308bc9f,227.4608696,234.1016949,221.3877551,226.3913044,204.2625,226.3913044,,,,,,,,,,,,,,,,,,,,,,,,,,,,,,,,,,,,,,,,,,,,,,,,,,,,,,,,,,,,,,,,,,,,,,,,,,,,,,,,,,,,,,,,,,,,,,,,,,,,,,,,,,,,,,,,,,
,,,,,,,,,,,,,,,,,,,,,,,,,,,,,,,,,return,35.697,224.64,375.3330221,1,0,1,0,1,5dde2885fef7c2d901c6d35a,60684b4e7d14374480f2153f,2021-04-03_12h03.36.541,Colour_Similarity_Experiment,2020.2.10,Win32,60,60674ec340277cd6a308bc9f,227.4608696,234.1016949,221.3877551,226.3913044,204.2625,226.3913044,,,,,,,,,,,,,,,,,,,,,,,,,,,,,,,,,,,,,,,,,,,,,,,,,,,,,,,,,,,,,,,,,,,,,,,,,,,,,,,,,,,,,,,,,,,,,,,,,,,,,,,,,,,,,,,,,,
,,,,,,,,,,,,,,,,,,,,,,,,,,,,,,,,,return,40.913,181.44,405.1739867,2,0,2,0,1,5dde2885fef7c2d901c6d35a,60684b4e7d14374480f2153f,2021-04-03_12h03.36.541,Colour_Similarity_Experiment,2020.2.10,Win32,60,60674ec340277cd6a308bc9f,227.4608696,234.1016949,221.3877551,226.3913044,204.2625,226.3913044,,,,,,,,,,,,,,,,,,,,,,,,,,,,,,,,,,,,,,,,,,,,,,,,,,,,,,,,,,,,,,,,,,,,,,,,,,,,,,,,,,,,,,,,,,,,,,,,,,,,,,,,,,,,,,,,,,
,,,,,,,,,,,,,,,,,,,,,,,,,,,,,,,,,return,32.514,201.6,391.2482032,3,0,3,0,1,5dde2885fef7c2d901c6d35a,60684b4e7d14374480f2153f,2021-04-03_12h03.36.541,Colour_Similarity_Experiment,2020.2.10,Win32,60,60674ec340277cd6a308bc9f,227.4608696,234.1016949,221.3877551,226.3913044,204.2625,226.3913044,,,,,,,,,,,,,,,,,,,,,,,,,,,,,,,,,,,,,,,,,,,,,,,,,,,,,,,,,,,,,,,,,,,,,,,,,,,,,,,,,,,,,,,,,,,,,,,,,,,,,,,,,,,,,,,,,,
,,,,,,,,,,,,,,,,,,,,,,,,,,,,,,,,,return,31.338,198.72,393.2376009,4,0,4,0,1,5dde2885fef7c2d901c6d35a,60684b4e7d14374480f2153f,2021-04-03_12h03.36.541,Colour_Similarity_Experiment,2020.2.10,Win32,60,60674ec340277cd6a308bc9f,227.4608696,234.1016949,221.3877551,226.3913044,204.2625,226.3913044,,,,,,,,,,,,,,,,,,,,,,,,,,,,,,,,,,,,,,,,,,,,,,,,,,,,,,,,,,,,,,,,,,,,,,,,,,,,,,,,,,,,,,,,,,,,,,,,,,,,,,,,,,,,,,,,,,
,,,,,,,,,,,,,,,,,,,,,,,,,,,,,,,,,,,,,,,,,,5dde2885fef7c2d901c6d35a,60684b4e7d14374480f2153f,2021-04-03_12h03.36.541,Colour_Similarity_Experiment,2020.2.10,Win32,60,60674ec340277cd6a308bc9f,227.4608696,234.1016949,221.3877551,226.3913044,204.2625,226.3913044,39,6.807472887,61.57359227,410.4906151,41.04906151,184.7207768,space,4.782,space,20.087,space,31.3,space,5.379,space,3.997,space,5.484,3,PF,weak,0,-45,146,1,0,0,response7disk_5,8,0,13.543,7,4,1,0,0,rectangle_8,7,4,1,0,0,6,7,4,1,0,0,0,0,0,4,1,,,,,,,,,,,,,,,,,,,,,,,,,,,,,,,,,,,,,,,,,,,,,,,,,,,,,,,,,,,,,
,,,,,,,,,,,,,,,,,,,,,,,,,,,,,,,,,,,,,,,,,,5dde2885fef7c2d901c6d35a,60684b4e7d14374480f2153f,2021-04-03_12h03.36.541,Colour_Similarity_Experiment,2020.2.10,Win32,60,60674ec340277cd6a308bc9f,227.4608696,234.1016949,221.3877551,226.3913044,204.2625,226.3913044,,,,,,,,,,,,,,,,,,,3,PF,strong,0,-49,-94,1,0,0,response5disk_5,8,3,5.59,10,4,1,0,0,rectangle_8,107,45,1,0,0,6,-5,-7,1,0,0,0,1,1,3,1,response1disk_7,6,rectangle_4,,,,,,,,,,,,,,,,,,,,,,,,,,,,,,,,,,,,,,,,,,,,,,,,,,,,,,,,,,
,,,,,,,,,,,,,,,,,,,,,,,,,,,,,,,,,,,,,,,,,,5dde2885fef7c2d901c6d35a,60684b4e7d14374480f2153f,2021-04-03_12h03.36.541,Colour_Similarity_Experiment,2020.2.10,Win32,60,60674ec340277cd6a308bc9f,227.4608696,234.1016949,221.3877551,226.3913044,204.2625,226.3913044,,,,,,,,,,,,,,,,,,,1,PF,strong,0,36,-82,1,0,0,response3disk_5,1,4,4.818,-4,-8,1,0,0,rectangle_8,-4,-8,1,0,0,6,-4,-8,1,0,0,0,2,2,2,1,,,,,,,,,,,,,,,,,,,,,,,,,,,,,,,,,,,,,,,,,,,,,,,,,,,,,,,,,,,,,
,,,,,,,,,,,,,,,,,,,,,,,,,,,,,,,,,,,,,,,,,,5dde2885fef7c2d901c6d35a,60684b4e7d14374480f2153f,2021-04-03_12h03.36.541,Colour_Similarity_Experiment,2020.2.10,Win32,60,60674ec340277cd6a308bc9f,227.4608696,234.1016949,221.3877551,226.3913044,204.2625,226.3913044,,,,,,,,,,,,,,,,,,,1,PF,strong,0,63,114,1,0,0,response1disk_5,5,7,4.607,-5,10,1,0,0,rectangle_8,111,41,1,0,0,6,-14,-3,1,0,0,0,3,3,0,1,response1disk_7,6,rectangle_4,,,,,,,,,,,,,,,,,,,,,,,,,,,,,,,,,,,,,,,,,,,,,,,,,,,,,,,,,,
,,,,,,,,,,,,,,,,,,,,,,,,,,,,,,,,,,,,,,,,,,5dde2885fef7c2d901c6d35a,60684b4e7d14374480f2153f,2021-04-03_12h03.36.541,Colour_Similarity_Experiment,2020.2.10,Win32,60,60674ec340277cd6a308bc9f,227.4608696,234.1016949,221.3877551,226.3913044,204.2625,226.3913044,,,,,,,,,,,,,,,,,,,4,PF,weak,0,-113,-29,1,0,0,response5disk_5,5,2,4.364,-1,-5,1,0,0,rectangle_8,-1,-5,1,0,0,6,-1,-5,1,0,0,0,4,4,1,1,,,,,,,,,,,,,,,,,,,,,,,,,,,,,,,,,,,,,,,,,,,,,,,,,,,,,,,,,,,,,
,,,,,,,,,,,,,,,,,,,,,,,,,,,,,,,,,,,,,,,,,,5dde2885fef7c2d901c6d35a,60684b4e7d14374480f2153f,2021-04-03_12h03.36.541,Colour_Similarity_Experiment,2020.2.10,Win32,60,60674ec340277cd6a308bc9f,227.4608696,234.1016949,221.3877551,226.3913044,204.2625,226.3913044,,,,,,,,,,,,,,,,,,,7,PF,weak,0,35,109,1,0,0,response1disk_5,2,7,3.223,2,5,1,0,0,rectangle_8,2,5,1,0,0,6,2,5,1,0,0,0,5,5,5,1,,,,,,,,,,,,,,,,,,,,,,,,,,,,,,,,,,,,,,,,,,,,,,,,,,,,,,,,,,,,,
,,,,,,,,,,,,,,,,,,,,,,,,,,,,,,,,,,,,,,,,,,5dde2885fef7c2d901c6d35a,60684b4e7d14374480f2153f,2021-04-03_12h03.36.541,Colour_Similarity_Experiment,2020.2.10,Win32,60,60674ec340277cd6a308bc9f,227.4608696,234.1016949,221.3877551,226.3913044,204.2625,226.3913044,,,,,,,,,,,,,,,,,,,6,PF,weak,0,-45,-67,1,0,0,response5disk_5,9,3,2.182,15,2,1,0,0,rectangle_8,15,2,1,0,0,6,15,2,1,0,0,0,6,6,6,1,,,,,,,,,,,,,,,,,,,,,,,,,,,,,,,,,,,,,,,,,,,,,,,,,,,,,,,,,,,,,
,,,,,,,,,,,,,,,,,,,,,,,,,,,,,,,,,,,,,,,,,,5dde2885fef7c2d901c6d35a,60684b4e7d14374480f2153f,2021-04-03_12h03.36.541,Colour_Similarity_Experiment,2020.2.10,Win32,60,60674ec340277cd6a308bc9f,227.4608696,234.1016949,221.3877551,226.3913044,204.2625,226.3913044,,,,,,,,,,,,,,,,,,,,PF,strong,0,,,,,,,,3,3.621,,,,,,,,,,,,,,,,,,,,,,,,,,space,7.051,4,strong,-56,-71,1,0,0,response5disk,2,1,5,-6,1,0,0,rectangle,5,-6,1,0,0,,1,0.003,5,-6,1,0,0,0,0,0,13,1,0,,,,,,,,,,,,,,,,,,,,,
,,,,,,,,,,,,,,,,,,,,,,,,,,,,,,,,,,,,,,,,,,5dde2885fef7c2d901c6d35a,60684b4e7d14374480f2153f,2021-04-03_12h03.36.541,Colour_Similarity_Experiment,2020.2.10,Win32,60,60674ec340277cd6a308bc9f,227.4608696,234.1016949,221.3877551,226.3913044,204.2625,226.3913044,,,,,,,,,,,,,,,,,,,,PF,weak,0,,,,,,,,5,2.548,,,,,,,,,,,,,,,,,,,,,,,,,,,,8,weak,91,-72,1,0,0,response3disk,4,2,-1,10,1,0,0,rectangle,-1,10,1,0,0,,1,0.001,-1,10,1,0,0,0,1,1,78,1,0,,,,,,,,,,,,,,,,,,,,,
,,,,,,,,,,,,,,,,,,,,,,,,,,,,,,,,,,,,,,,,,,5dde2885fef7c2d901c6d35a,60684b4e7d14374480f2153f,2021-04-03_12h03.36.541,Colour_Similarity_Experiment,2020.2.10,Win32,60,60674ec340277cd6a308bc9f,227.4608696,234.1016949,221.3877551,226.3913044,204.2625,226.3913044,,,,,,,,,,,,,,,,,,,,PF,weak,0,,,,,,,,4,2.448,,,,,,,,,,,,,,,,,,,,,,,,,,,,8,weak,53,-69,1,0,0,response3disk,6,3,7,10,1,0,0,rectangle,-56,107,1,0,0,0,0,3.968,-16,7,1,0,0,0,2,2,161,1,1,response7disk_3,rectangle,,,,,,,,,,,,,,,,,,,
,,,,,,,,,,,,,,,,,,,,,,,,,,,,,,,,,,,,,,,,,,5dde2885fef7c2d901c6d35a,60684b4e7d14374480f2153f,2021-04-03_12h03.36.541,Colour_Similarity_Experiment,2020.2.10,Win32,60,60674ec340277cd6a308bc9f,227.4608696,234.1016949,221.3877551,226.3913044,204.2625,226.3913044,,,,,,,,,,,,,,,,,,,,PF,strong,0,,,,,,,,4,2.7,,,,,,,,,,,,,,,,,,,,,,,,,,,,7,strong,51,-90,1,0,0,response3disk,1,4,1,3,1,0,0,rectangle,1,3,1,0,0,0,5,0.002,1,3,1,0,0,0,3,3,132,1,0,,,,,,,,,,,,,,,,,,,,,
,,,,,,,,,,,,,,,,,,,,,,,,,,,,,,,,,,,,,,,,,,5dde2885fef7c2d901c6d35a,60684b4e7d14374480f2153f,2021-04-03_12h03.36.541,Colour_Similarity_Experiment,2020.2.10,Win32,60,60674ec340277cd6a308bc9f,227.4608696,234.1016949,221.3877551,226.3913044,204.2625,226.3913044,,,,,,,,,,,,,,,,,,,,PF,strong,0,,,,,,,,7,2.038,,,,,,,,,,,,,,,,,,,,,,,,,,,,1,strong,50,103,1,0,0,response1disk,9,5,0,5,1,0,0,rectangle,0,5,1,0,0,0,5,0.001,0,5,1,0,0,0,4,4,123,1,0,,,,,,,,,,,,,,,,,,,,,
,,,,,,,,,,,,,,,,,,,,,,,,,,,,,,,,,,,,,,,,,,5dde2885fef7c2d901c6d35a,60684b4e7d14374480f2153f,2021-04-03_12h03.36.541,Colour_Similarity_Experiment,2020.2.10,Win32,60,60674ec340277cd6a308bc9f,227.4608696,234.1016949,221.3877551,226.3913044,204.2625,226.3913044,,,,,,,,,,,,,,,,,,,,PF,weak,0,,,,,,,,6,6.906,,,,,,,,,,,,,,,,,,,,,,,,,,,,7,weak,96,41,1,0,0,response1disk,2,6,-12,-5,1,0,0,rectangle,-12,-5,1,0,0,0,3,0.005,-12,-5,1,0,0,0,5,5,32,1,0,,,,,,,,,,,,,,,,,,,,,
,,,,,,,,,,,,,,,,,,,,,,,,,,,,,,,,,,,,,,,,,,5dde2885fef7c2d901c6d35a,60684b4e7d14374480f2153f,2021-04-03_12h03.36.541,Colour_Similarity_Experiment,2020.2.10,Win32,60,60674ec340277cd6a308bc9f,227.4608696,234.1016949,221.3877551,226.3913044,204.2625,226.3913044,,,,,,,,,,,,,,,,,,,,PF,strong,0,,,,,,,,6,10.094,,,,,,,,,,,,,,,,,,,,,,,,,,,,6,strong,81,45,1,0,0,response1disk,3,7,11,9,1,0,0,rectangle,11,9,1,0,0,0,5,0.002,11,9,1,0,0,0,6,6,21,1,0,,,,,,,,,,,,,,,,,,,,,
,,,,,,,,,,,,,,,,,,,,,,,,,,,,,,,,,,,,,,,,,,5dde2885fef7c2d901c6d35a,60684b4e7d14374480f2153f,2021-04-03_12h03.36.541,Colour_Similarity_Experiment,2020.2.10,Win32,60,60674ec340277cd6a308bc9f,227.4608696,234.1016949,221.3877551,226.3913044,204.2625,226.3913044,,,,,,,,,,,,,,,,,,,,PF,strong,0,,,,,,,,7,7.992,,,,,,,,,,,,,,,,,,,,,,,,,,,,7,strong,49,85,1,0,0,response1disk,8,8,-15,13,1,0,0,rectangle,109,-69,1,0,0,5,5,1.931,1,1,1,0,0,0,7,7,97,1,1,response3disk_3,rectangle,,,,,,,,,,,,,,,,,,,
,,,,,,,,,,,,,,,,,,,,,,,,,,,,,,,,,,,,,,,,,,5dde2885fef7c2d901c6d35a,60684b4e7d14374480f2153f,2021-04-03_12h03.36.541,Colour_Similarity_Experiment,2020.2.10,Win32,60,60674ec340277cd6a308bc9f,227.4608696,234.1016949,221.3877551,226.3913044,204.2625,226.3913044,,,,,,,,,,,,,,,,,,,,PF,weak,0,,,,,,,,7,3.089,,,,,,,,,,,,,,,,,,,,,,,,,,,,6,weak,57,90,1,0,0,response1disk,2,9,9,8,1,0,0,rectangle,9,8,1,0,0,5,5,0.003,9,8,1,0,0,0,8,8,130,1,0,,,,,,,,,,,,,,,,,,,,,
,,,,,,,,,,,,,,,,,,,,,,,,,,,,,,,,,,,,,,,,,,5dde2885fef7c2d901c6d35a,60684b4e7d14374480f2153f,2021-04-03_12h03.36.541,Colour_Similarity_Experiment,2020.2.10,Win32,60,60674ec340277cd6a308bc9f,227.4608696,234.1016949,221.3877551,226.3913044,204.2625,226.3913044,,,,,,,,,,,,,,,,,,,,PF,strong,0,,,,,,,,6,3.844,,,,,,,,,,,,,,,,,,,,,,,,,,,,7,strong,82,64,1,0,0,response1disk,9,10,-14,-6,1,0,0,rectangle,-14,-6,1,0,0,5,1,0.002,-14,-6,1,0,0,0,9,9,155,1,0,,,,,,,,,,,,,,,,,,,,,
,,,,,,,,,,,,,,,,,,,,,,,,,,,,,,,,,,,,,,,,,,5dde2885fef7c2d901c6d35a,60684b4e7d14374480f2153f,2021-04-03_12h03.36.541,Colour_Similarity_Experiment,2020.2.10,Win32,60,60674ec340277cd6a308bc9f,227.4608696,234.1016949,221.3877551,226.3913044,204.2625,226.3913044,,,,,,,,,,,,,,,,,,,,PF,weak,0,,,,,,,,5,3.022,,,,,,,,,,,,,,,,,,,,,,,,,,,,2,weak,93,-53,1,0,0,response3disk,3,11,-8,13,1,0,0,rectangle,-8,13,1,0,0,5,1,0,-8,13,1,0,0,0,10,10,69,1,0,,,,,,,,,,,,,,,,,,,,,
,,,,,,,,,,,,,,,,,,,,,,,,,,,,,,,,,,,,,,,,,,5dde2885fef7c2d901c6d35a,60684b4e7d14374480f2153f,2021-04-03_12h03.36.541,Colour_Similarity_Experiment,2020.2.10,Win32,60,60674ec340277cd6a308bc9f,227.4608696,234.1016949,221.3877551,226.3913044,204.2625,226.3913044,,,,,,,,,,,,,,,,,,,,PF,strong,0,,,,,,,,6,2.543,,,,,,,,,,,,,,,,,,,,,,,,,,,,1,strong,99,48,1,0,0,response1disk,3,12,8,6,1,0,0,rectangle,8,6,1,0,0,5,3,0.003,8,6,1,0,0,0,11,11,99,1,0,,,,,,,,,,,,,,,,,,,,,
,,,,,,,,,,,,,,,,,,,,,,,,,,,,,,,,,,,,,,,,,,5dde2885fef7c2d901c6d35a,60684b4e7d14374480f2153f,2021-04-03_12h03.36.541,Colour_Similarity_Experiment,2020.2.10,Win32,60,60674ec340277cd6a308bc9f,227.4608696,234.1016949,221.3877551,226.3913044,204.2625,226.3913044,,,,,,,,,,,,,,,,,,,,PF,weak,0,,,,,,,,6,2.473,,,,,,,,,,,,,,,,,,,,,,,,,,,,4,weak,90,31,1,0,0,response1disk,9,13,-10,-4,1,0,0,rectangle,-10,-4,1,0,0,5,6,0.002,-10,-4,1,0,0,0,12,12,75,1,0,,,,,,,,,,,,,,,,,,,,,
,,,,,,,,,,,,,,,,,,,,,,,,,,,,,,,,,,,,,,,,,,5dde2885fef7c2d901c6d35a,60684b4e7d14374480f2153f,2021-04-03_12h03.36.541,Colour_Similarity_Experiment,2020.2.10,Win32,60,60674ec340277cd6a308bc9f,227.4608696,234.1016949,221.3877551,226.3913044,204.2625,226.3913044,,,,,,,,,,,,,,,,,,,,PF,strong,0,,,,,,,,6,7.382,,,,,,,,,,,,,,,,,,,,,,,,,,,,7,strong,113,38,1,0,0,response1disk,3,14,9,6,1,0,0,rectangle,9,6,1,0,0,5,0,0.002,9,6,1,0,0,0,13,13,73,1,0,,,,,,,,,,,,,,,,,,,,,
,,,,,,,,,,,,,,,,,,,,,,,,,,,,,,,,,,,,,,,,,,5dde2885fef7c2d901c6d35a,60684b4e7d14374480f2153f,2021-04-03_12h03.36.541,Colour_Similarity_Experiment,2020.2.10,Win32,60,60674ec340277cd6a308bc9f,227.4608696,234.1016949,221.3877551,226.3913044,204.2625,226.3913044,,,,,,,,,,,,,,,,,,,,PF,strong,0,,,,,,,,6,3.061,,,,,,,,,,,,,,,,,,,,,,,,,,,,9,strong,136,41,1,0,0,response1disk,8,15,-6,8,1,0,0,rectangle,-6,8,1,0,0,5,4,0.003,-6,8,1,0,0,0,14,14,6,1,0,,,,,,,,,,,,,,,,,,,,,
,,,,,,,,,,,,,,,,,,,,,,,,,,,,,,,,,,,,,,,,,,5dde2885fef7c2d901c6d35a,60684b4e7d14374480f2153f,2021-04-03_12h03.36.541,Colour_Similarity_Experiment,2020.2.10,Win32,60,60674ec340277cd6a308bc9f,227.4608696,234.1016949,221.3877551,226.3913044,204.2625,226.3913044,,,,,,,,,,,,,,,,,,,,PF,weak,0,,,,,,,,6,2.029,,,,,,,,,,,,,,,,,,,,,,,,,,,,6,weak,105,36,1,0,0,response1disk,8,16,0,5,1,0,0,rectangle,0,5,1,0,0,5,4,0,0,5,1,0,0,0,15,15,64,1,0,,,,,,,,,,,,,,,,,,,,,
,,,,,,,,,,,,,,,,,,,,,,,,,,,,,,,,,,,,,,,,,,5dde2885fef7c2d901c6d35a,60684b4e7d14374480f2153f,2021-04-03_12h03.36.541,Colour_Similarity_Experiment,2020.2.10,Win32,60,60674ec340277cd6a308bc9f,227.4608696,234.1016949,221.3877551,226.3913044,204.2625,226.3913044,,,,,,,,,,,,,,,,,,,,PF,strong,0,,,,,,,,4,11.06,,,,,,,,,,,,,,,,,,,,,,,,,,,,3,strong,45,-80,1,0,0,response3disk,7,17,-7,9,1,0,0,rectangle,-7,9,1,0,0,5,6,0.001,-7,9,1,0,0,0,16,16,118,1,0,,,,,,,,,,,,,,,,,,,,,
,,,,,,,,,,,,,,,,,,,,,,,,,,,,,,,,,,,,,,,,,,5dde2885fef7c2d901c6d35a,60684b4e7d14374480f2153f,2021-04-03_12h03.36.541,Colour_Similarity_Experiment,2020.2.10,Win32,60,60674ec340277cd6a308bc9f,227.4608696,234.1016949,221.3877551,226.3913044,204.2625,226.3913044,,,,,,,,,,,,,,,,,,,,PF,weak,0,,,,,,,,7,4.503,,,,,,,,,,,,,,,,,,,,,,,,,,,,8,weak,48,103,1,0,0,response1disk,5,18,-4,-5,1,0,0,rectangle,-4,-5,1,0,0,5,5,0.001,-4,-5,1,0,0,0,17,17,98,1,0,,,,,,,,,,,,,,,,,,,,,
,,,,,,,,,,,,,,,,,,,,,,,,,,,,,,,,,,,,,,,,,,5dde2885fef7c2d901c6d35a,60684b4e7d14374480f2153f,2021-04-03_12h03.36.541,Colour_Similarity_Experiment,2020.2.10,Win32,60,60674ec340277cd6a308bc9f,227.4608696,234.1016949,221.3877551,226.3913044,204.2625,226.3913044,,,,,,,,,,,,,,,,,,,,PF,strong,0,,,,,,,,7,2.681,,,,,,,,,,,,,,,,,,,,,,,,,,,,4,strong,43,85,1,0,0,response1disk,7,19,-7,10,1,0,0,rectangle,-7,10,1,0,0,5,5,0,-7,10,1,0,0,0,18,18,87,1,0,,,,,,,,,,,,,,,,,,,,,
,,,,,,,,,,,,,,,,,,,,,,,,,,,,,,,,,,,,,,,,,,5dde2885fef7c2d901c6d35a,60684b4e7d14374480f2153f,2021-04-03_12h03.36.541,Colour_Similarity_Experiment,2020.2.10,Win32,60,60674ec340277cd6a308bc9f,227.4608696,234.1016949,221.3877551,226.3913044,204.2625,226.3913044,,,,,,,,,,,,,,,,,,,,PF,strong,0,,,,,,,,7,2.538,,,,,,,,,,,,,,,,,,,,,,,,,,,,5,strong,45,62,1,0,0,response1disk,7,20,8,8,1,0,0,rectangle,8,8,1,0,0,5,3,0.002,8,8,1,0,0,0,19,19,7,1,0,,,,,,,,,,,,,,,,,,,,,
,,,,,,,,,,,,,,,,,,,,,,,,,,,,,,,,,,,,,,,,,,5dde2885fef7c2d901c6d35a,60684b4e7d14374480f2153f,2021-04-03_12h03.36.541,Colour_Similarity_Experiment,2020.2.10,Win32,60,60674ec340277cd6a308bc9f,227.4608696,234.1016949,221.3877551,226.3913044,204.2625,226.3913044,,,,,,,,,,,,,,,,,,,,PF,strong,0,,,,,,,,2,10.848,,,,,,,,,,,,,,,,,,,,,,,,,,,,6,strong,-103,-61,1,0,0,response5disk,7,21,-8,-4,1,0,0,rectangle,-8,-4,1,0,0,5,1,0.002,-8,-4,1,0,0,0,20,20,18,1,0,,,,,,,,,,,,,,,,,,,,,
,,,,,,,,,,,,,,,,,,,,,,,,,,,,,,,,,,,,,,,,,,5dde2885fef7c2d901c6d35a,60684b4e7d14374480f2153f,2021-04-03_12h03.36.541,Colour_Similarity_Experiment,2020.2.10,Win32,60,60674ec340277cd6a308bc9f,227.4608696,234.1016949,221.3877551,226.3913044,204.2625,226.3913044,,,,,,,,,,,,,,,,,,,,PF,weak,0,,,,,,,,7,8.106,,,,,,,,,,,,,,,,,,,,,,,,,,,,5,weak,51,101,1,0,0,response1disk,4,22,-1,11,1,0,0,rectangle,-1,11,1,0,0,5,5,0.006,-1,11,1,0,0,0,21,21,54,1,0,,,,,,,,,,,,,,,,,,,,,
,,,,,,,,,,,,,,,,,,,,,,,,,,,,,,,,,,,,,,,,,,5dde2885fef7c2d901c6d35a,60684b4e7d14374480f2153f,2021-04-03_12h03.36.541,Colour_Similarity_Experiment,2020.2.10,Win32,60,60674ec340277cd6a308bc9f,227.4608696,234.1016949,221.3877551,226.3913044,204.2625,226.3913044,,,,,,,,,,,,,,,,,,,,PF,strong,0,,,,,,,,6,8.114,,,,,,,,,,,,,,,,,,,,,,,,,,,,9,strong,113,56,1,0,0,response1disk,7,23,5,-1,1,0,0,rectangle,5,-1,1,0,0,5,4,0.002,5,-1,1,0,0,0,22,22,100,1,0,,,,,,,,,,,,,,,,,,,,,
,,,,,,,,,,,,,,,,,,,,,,,,,,,,,,,,,,,,,,,,,,5dde2885fef7c2d901c6d35a,60684b4e7d14374480f2153f,2021-04-03_12h03.36.541,Colour_Similarity_Experiment,2020.2.10,Win32,60,60674ec340277cd6a308bc9f,227.4608696,234.1016949,221.3877551,226.3913044,204.2625,226.3913044,,,,,,,,,,,,,,,,,,,,PF,strong,0,,,,,,,,6,1.652,,,,,,,,,,,,,,,,,,,,,,,,,,,,1,strong,110,34,1,0,0,response1disk,7,24,-27,-2,1,0,0,rectangle,-27,-2,1,0,0,5,1,0.002,-27,-2,1,0,0,0,23,23,137,1,0,,,,,,,,,,,,,,,,,,,,,
,,,,,,,,,,,,,,,,,,,,,,,,,,,,,,,,,,,,,,,,,,5dde2885fef7c2d901c6d35a,60684b4e7d14374480f2153f,2021-04-03_12h03.36.541,Colour_Similarity_Experiment,2020.2.10,Win32,60,60674ec340277cd6a308bc9f,227.4608696,234.1016949,221.3877551,226.3913044,204.2625,226.3913044,,,,,,,,,,,,,,,,,,,,PF,strong,0,,,,,,,,7,2.66,,,,,,,,,,,,,,,,,,,,,,,,,,,,9,strong,53,93,1,0,0,response1disk,4,25,-10,13,1,0,0,rectangle,-10,13,1,0,0,5,6,0.003,-10,13,1,0,0,0,24,24,60,1,0,,,,,,,,,,,,,,,,,,,,,
,,,,,,,,,,,,,,,,,,,,,,,,,,,,,,,,,,,,,,,,,,5dde2885fef7c2d901c6d35a,60684b4e7d14374480f2153f,2021-04-03_12h03.36.541,Colour_Similarity_Experiment,2020.2.10,Win32,60,60674ec340277cd6a308bc9f,227.4608696,234.1016949,221.3877551,226.3913044,204.2625,226.3913044,,,,,,,,,,,,,,,,,,,,PF,weak,0,,,,,,,,7,2.271,,,,,,,,,,,,,,,,,,,,,,,,,,,,6,weak,62,112,1,0,0,response1disk,3,26,-1,11,1,0,0,rectangle,-1,11,1,0,0,5,2,0.002,-1,11,1,0,0,0,25,25,26,1,0,,,,,,,,,,,,,,,,,,,,,
,,,,,,,,,,,,,,,,,,,,,,,,,,,,,,,,,,,,,,,,,,5dde2885fef7c2d901c6d35a,60684b4e7d14374480f2153f,2021-04-03_12h03.36.541,Colour_Similarity_Experiment,2020.2.10,Win32,60,60674ec340277cd6a308bc9f,227.4608696,234.1016949,221.3877551,226.3913044,204.2625,226.3913044,,,,,,,,,,,,,,,,,,,,PF,weak,0,,,,,,,,1,3.963,,,,,,,,,,,,,,,,,,,,,,,,,,,,2,weak,-111,60,1,0,0,response7disk,5,27,2,5,1,0,0,rectangle,2,5,1,0,0,5,5,0.003,2,5,1,0,0,0,26,26,147,1,0,,,,,,,,,,,,,,,,,,,,,
,,,,,,,,,,,,,,,,,,,,,,,,,,,,,,,,,,,,,,,,,,5dde2885fef7c2d901c6d35a,60684b4e7d14374480f2153f,2021-04-03_12h03.36.541,Colour_Similarity_Experiment,2020.2.10,Win32,60,60674ec340277cd6a308bc9f,227.4608696,234.1016949,221.3877551,226.3913044,204.2625,226.3913044,,,,,,,,,,,,,,,,,,,,PF,weak,0,,,,,,,,7,2.588,,,,,,,,,,,,,,,,,,,,,,,,,,,,3,weak,67,108,1,0,0,response1disk,1,28,-5,-4,1,0,0,rectangle,-5,-4,1,0,0,5,5,0,-5,-4,1,0,0,0,27,27,96,1,0,,,,,,,,,,,,,,,,,,,,,
,,,,,,,,,,,,,,,,,,,,,,,,,,,,,,,,,,,,,,,,,,5dde2885fef7c2d901c6d35a,60684b4e7d14374480f2153f,2021-04-03_12h03.36.541,Colour_Similarity_Experiment,2020.2.10,Win32,60,60674ec340277cd6a308bc9f,227.4608696,234.1016949,221.3877551,226.3913044,204.2625,226.3913044,,,,,,,,,,,,,,,,,,,,PF,strong,0,,,,,,,,1,3.106,,,,,,,,,,,,,,,,,,,,,,,,,,,,5,strong,-125,52,1,0,0,response7disk,9,29,-14,2,1,0,0,rectangle,-14,2,1,0,0,5,6,0.002,-14,2,1,0,0,0,28,28,61,1,0,,,,,,,,,,,,,,,,,,,,,
,,,,,,,,,,,,,,,,,,,,,,,,,,,,,,,,,,,,,,,,,,5dde2885fef7c2d901c6d35a,60684b4e7d14374480f2153f,2021-04-03_12h03.36.541,Colour_Similarity_Experiment,2020.2.10,Win32,60,60674ec340277cd6a308bc9f,227.4608696,234.1016949,221.3877551,226.3913044,204.2625,226.3913044,,,,,,,,,,,,,,,,,,,,PF,weak,0,,,,,,,,1,2.233,,,,,,,,,,,,,,,,,,,,,,,,,,,,3,weak,-118,47,1,0,0,response7disk,8,30,-5,12,1,0,0,rectangle,-5,12,1,0,0,5,1,0.004,-5,12,1,0,0,0,29,29,3,1,0,,,,,,,,,,,,,,,,,,,,,
,,,,,,,,,,,,,,,,,,,,,,,,,,,,,,,,,,,,,,,,,,5dde2885fef7c2d901c6d35a,60684b4e7d14374480f2153f,2021-04-03_12h03.36.541,Colour_Similarity_Experiment,2020.2.10,Win32,60,60674ec340277cd6a308bc9f,227.4608696,234.1016949,221.3877551,226.3913044,204.2625,226.3913044,,,,,,,,,,,,,,,,,,,,PF,strong,0,,,,,,,,6,4.934,,,,,,,,,,,,,,,,,,,,,,,,,,,,4,strong,109,53,1,0,0,response1disk,6,31,3,10,1,0,0,rectangle,3,10,1,0,0,5,3,0.002,3,10,1,0,0,0,30,30,122,1,0,,,,,,,,,,,,,,,,,,,,,
,,,,,,,,,,,,,,,,,,,,,,,,,,,,,,,,,,,,,,,,,,5dde2885fef7c2d901c6d35a,60684b4e7d14374480f2153f,2021-04-03_12h03.36.541,Colour_Similarity_Experiment,2020.2.10,Win32,60,60674ec340277cd6a308bc9f,227.4608696,234.1016949,221.3877551,226.3913044,204.2625,226.3913044,,,,,,,,,,,,,,,,,,,,PF,weak,0,,,,,,,,4,2.978,,,,,,,,,,,,,,,,,,,,,,,,,,,,4,weak,45,-83,1,0,0,response3disk,7,32,-8,7,1,0,0,rectangle,-8,7,1,0,0,5,0,0.003,-8,7,1,0,0,0,31,31,38,1,0,,,,,,,,,,,,,,,,,,,,,
,,,,,,,,,,,,,,,,,,,,,,,,,,,,,,,,,,,,,,,,,,5dde2885fef7c2d901c6d35a,60684b4e7d14374480f2153f,2021-04-03_12h03.36.541,Colour_Similarity_Experiment,2020.2.10,Win32,60,60674ec340277cd6a308bc9f,227.4608696,234.1016949,221.3877551,226.3913044,204.2625,226.3913044,,,,,,,,,,,,,,,,,,,,PF,strong,0,,,,,,,,7,3.41,,,,,,,,,,,,,,,,,,,,,,,,,,,,1,strong,72,105,1,0,0,response1disk,4,33,-2,-6,1,0,0,rectangle,-2,-6,1,0,0,5,4,0.001,-2,-6,1,0,0,0,32,32,135,1,0,,,,,,,,,,,,,,,,,,,,,
,,,,,,,,,,,,,,,,,,,,,,,,,,,,,,,,,,,,,,,,,,5dde2885fef7c2d901c6d35a,60684b4e7d14374480f2153f,2021-04-03_12h03.36.541,Colour_Similarity_Experiment,2020.2.10,Win32,60,60674ec340277cd6a308bc9f,227.4608696,234.1016949,221.3877551,226.3913044,204.2625,226.3913044,,,,,,,,,,,,,,,,,,,,PF,strong,0,,,,,,,,4,2.673,,,,,,,,,,,,,,,,,,,,,,,,,,,,1,strong,54,-97,1,0,0,response3disk,6,34,6,4,1,0,0,rectangle,6,4,1,0,0,5,5,0.002,6,4,1,0,0,0,33,33,58,1,0,,,,,,,,,,,,,,,,,,,,,
,,,,,,,,,,,,,,,,,,,,,,,,,,,,,,,,,,,,,,,,,,5dde2885fef7c2d901c6d35a,60684b4e7d14374480f2153f,2021-04-03_12h03.36.541,Colour_Similarity_Experiment,2020.2.10,Win32,60,60674ec340277cd6a308bc9f,227.4608696,234.1016949,221.3877551,226.3913044,204.2625,226.3913044,,,,,,,,,,,,,,,,,,,,PF,weak,0,,,,,,,,4,2.066,,,,,,,,,,,,,,,,,,,,,,,,,,,,5,weak,62,-81,1,0,0,response3disk,5,35,19,-8,1,0,0,rectangle,19,-8,1,0,0,5,4,0.002,19,-8,1,0,0,0,34,34,94,1,0,,,,,,,,,,,,,,,,,,,,,
,,,,,,,,,,,,,,,,,,,,,,,,,,,,,,,,,,,,,,,,,,5dde2885fef7c2d901c6d35a,60684b4e7d14374480f2153f,2021-04-03_12h03.36.541,Colour_Similarity_Experiment,2020.2.10,Win32,60,60674ec340277cd6a308bc9f,227.4608696,234.1016949,221.3877551,226.3913044,204.2625,226.3913044,,,,,,,,,,,,,,,,,,,,PF,strong,0,,,,,,,,7,2.512,,,,,,,,,,,,,,,,,,,,,,,,,,,,6,strong,53,93,1,0,0,response1disk,9,36,-2,5,1,0,0,rectangle,55,-146,1,0,0,4,4,2.241,-3,-4,1,0,0,0,35,35,160,1,1,response3disk_3,rectangle,,,,,,,,,,,,,,,,,,,
,,,,,,,,,,,,,,,,,,,,,,,,,,,,,,,,,,,,,,,,,,5dde2885fef7c2d901c6d35a,60684b4e7d14374480f2153f,2021-04-03_12h03.36.541,Colour_Similarity_Experiment,2020.2.10,Win32,60,60674ec340277cd6a308bc9f,227.4608696,234.1016949,221.3877551,226.3913044,204.2625,226.3913044,,,,,,,,,,,,,,,,,,,,PF,weak,0,,,,,,,,4,2.82,,,,,,,,,,,,,,,,,,,,,,,,,,,,4,weak,53,-80,1,0,0,response3disk,8,37,-5,5,1,0,0,rectangle,-5,5,1,0,0,4,6,0.003,-5,5,1,0,0,0,36,36,124,1,0,,,,,,,,,,,,,,,,,,,,,
,,,,,,,,,,,,,,,,,,,,,,,,,,,,,,,,,,,,,,,,,,5dde2885fef7c2d901c6d35a,60684b4e7d14374480f2153f,2021-04-03_12h03.36.541,Colour_Similarity_Experiment,2020.2.10,Win32,60,60674ec340277cd6a308bc9f,227.4608696,234.1016949,221.3877551,226.3913044,204.2625,226.3913044,,,,,,,,,,,,,,,,,,,,PF,strong,0,,,,,,,,4,1.857,,,,,,,,,,,,,,,,,,,,,,,,,,,,5,strong,66,-109,1,0,0,response3disk,4,38,-4,11,1,0,0,rectangle,-4,11,1,0,0,4,5,0.001,-4,11,1,0,0,0,37,37,8,1,0,,,,,,,,,,,,,,,,,,,,,
,,,,,,,,,,,,,,,,,,,,,,,,,,,,,,,,,,,,,,,,,,5dde2885fef7c2d901c6d35a,60684b4e7d14374480f2153f,2021-04-03_12h03.36.541,Colour_Similarity_Experiment,2020.2.10,Win32,60,60674ec340277cd6a308bc9f,227.4608696,234.1016949,221.3877551,226.3913044,204.2625,226.3913044,,,,,,,,,,,,,,,,,,,,PF,strong,0,,,,,,,,6,3.798,,,,,,,,,,,,,,,,,,,,,,,,,,,,9,strong,109,37,1,0,0,response1disk,5,39,7,-9,1,0,0,rectangle,7,-9,1,0,0,4,6,0.003,7,-9,1,0,0,0,38,38,128,1,0,,,,,,,,,,,,,,,,,,,,,
,,,,,,,,,,,,,,,,,,,,,,,,,,,,,,,,,,,,,,,,,,5dde2885fef7c2d901c6d35a,60684b4e7d14374480f2153f,2021-04-03_12h03.36.541,Colour_Similarity_Experiment,2020.2.10,Win32,60,60674ec340277cd6a308bc9f,227.4608696,234.1016949,221.3877551,226.3913044,204.2625,226.3913044,,,,,,,,,,,,,,,,,,,,PF,weak,0,,,,,,,,7,2.54,,,,,,,,,,,,,,,,,,,,,,,,,,,,9,weak,45,108,1,0,0,response1disk,2,40,-8,-1,1,0,0,rectangle,-8,-1,1,0,0,4,2,0.002,-8,-1,1,0,0,0,39,39,157,1,0,,,,,,,,,,,,,,,,,,,,,
,,,,,,,,,,,,,,,,,,,,,,,,,,,,,,,,,,,,,,,,,,5dde2885fef7c2d901c6d35a,60684b4e7d14374480f2153f,2021-04-03_12h03.36.541,Colour_Similarity_Experiment,2020.2.10,Win32,60,60674ec340277cd6a308bc9f,227.4608696,234.1016949,221.3877551,226.3913044,204.2625,226.3913044,,,,,,,,,,,,,,,,,,,,PF,weak,0,,,,,,,,0,2.53,,,,,,,,,,,,,,,,,,,,,,,,,,,,2,weak,-49,80,1,0,0,response7disk,2,41,-18,8,1,0,0,rectangle,-18,8,1,0,0,4,7,0.002,-18,8,1,0,0,0,40,40,14,1,0,,,,,,,,,,,,,,,,,,,,,
,,,,,,,,,,,,,,,,,,,,,,,,,,,,,,,,,,,,,,,,,,5dde2885fef7c2d901c6d35a,60684b4e7d14374480f2153f,2021-04-03_12h03.36.541,Colour_Similarity_Experiment,2020.2.10,Win32,60,60674ec340277cd6a308bc9f,227.4608696,234.1016949,221.3877551,226.3913044,204.2625,226.3913044,,,,,,,,,,,,,,,,,,,,PF,strong,0,,,,,,,,7,5.506,,,,,,,,,,,,,,,,,,,,,,,,,,,,2,strong,67,96,1,0,0,response1disk,5,42,4,10,1,0,0,rectangle,4,10,1,0,0,4,3,0.003,4,10,1,0,0,0,41,41,80,1,0,,,,,,,,,,,,,,,,,,,,,
,,,,,,,,,,,,,,,,,,,,,,,,,,,,,,,,,,,,,,,,,,5dde2885fef7c2d901c6d35a,60684b4e7d14374480f2153f,2021-04-03_12h03.36.541,Colour_Similarity_Experiment,2020.2.10,Win32,60,60674ec340277cd6a308bc9f,227.4608696,234.1016949,221.3877551,226.3913044,204.2625,226.3913044,,,,,,,,,,,,,,,,,,,,PF,strong,0,,,,,,,,7,10.747,,,,,,,,,,,,,,,,,,,,,,,,,,,,7,strong,65,137,1,0,0,response1disk,6,43,-8,0,1,0,0,rectangle,-8,0,1,0,0,4,5,0.002,-8,0,1,0,0,0,42,42,31,1,0,,,,,,,,,,,,,,,,,,,,,
,,,,,,,,,,,,,,,,,,,,,,,,,,,,,,,,,,,,,,,,,,5dde2885fef7c2d901c6d35a,60684b4e7d14374480f2153f,2021-04-03_12h03.36.541,Colour_Similarity_Experiment,2020.2.10,Win32,60,60674ec340277cd6a308bc9f,227.4608696,234.1016949,221.3877551,226.3913044,204.2625,226.3913044,,,,,,,,,,,,,,,,,,,,PF,strong,0,,,,,,,,1,2.118,,,,,,,,,,,,,,,,,,,,,,,,,,,,9,strong,-128,69,1,0,0,response7disk,6,44,-5,8,1,0,0,rectangle,-5,8,1,0,0,4,3,0.001,-5,8,1,0,0,0,43,43,117,1,0,,,,,,,,,,,,,,,,,,,,,
,,,,,,,,,,,,,,,,,,,,,,,,,,,,,,,,,,,,,,,,,,5dde2885fef7c2d901c6d35a,60684b4e7d14374480f2153f,2021-04-03_12h03.36.541,Colour_Similarity_Experiment,2020.2.10,Win32,60,60674ec340277cd6a308bc9f,227.4608696,234.1016949,221.3877551,226.3913044,204.2625,226.3913044,,,,,,,,,,,,,,,,,,,,PF,strong,0,,,,,,,,7,2.302,,,,,,,,,,,,,,,,,,,,,,,,,,,,3,strong,78,100,1,0,0,response1disk,4,45,7,2,1,0,0,rectangle,7,2,1,0,0,4,5,0.007,7,2,1,0,0,0,44,44,110,1,0,,,,,,,,,,,,,,,,,,,,,
,,,,,,,,,,,,,,,,,,,,,,,,,,,,,,,,,,,,,,,,,,5dde2885fef7c2d901c6d35a,60684b4e7d14374480f2153f,2021-04-03_12h03.36.541,Colour_Similarity_Experiment,2020.2.10,Win32,60,60674ec340277cd6a308bc9f,227.4608696,234.1016949,221.3877551,226.3913044,204.2625,226.3913044,,,,,,,,,,,,,,,,,,,,PF,weak,0,,,,,,,,7,2.543,,,,,,,,,,,,,,,,,,,,,,,,,,,,9,weak,63,96,1,0,0,response1disk,9,46,8,10,1,0,0,rectangle,8,10,1,0,0,4,0,0.002,8,10,1,0,0,0,45,45,106,1,0,,,,,,,,,,,,,,,,,,,,,
,,,,,,,,,,,,,,,,,,,,,,,,,,,,,,,,,,,,,,,,,,5dde2885fef7c2d901c6d35a,60684b4e7d14374480f2153f,2021-04-03_12h03.36.541,Colour_Similarity_Experiment,2020.2.10,Win32,60,60674ec340277cd6a308bc9f,227.4608696,234.1016949,221.3877551,226.3913044,204.2625,226.3913044,,,,,,,,,,,,,,,,,,,,PF,weak,0,,,,,,,,5,4.903,,,,,,,,,,,,,,,,,,,,,,,,,,,,7,weak,104,-38,1,0,0,response3disk,5,47,11,7,1,0,0,rectangle,11,7,1,0,0,4,0,0.001,11,7,1,0,0,0,46,46,92,1,0,,,,,,,,,,,,,,,,,,,,,
,,,,,,,,,,,,,,,,,,,,,,,,,,,,,,,,,,,,,,,,,,5dde2885fef7c2d901c6d35a,60684b4e7d14374480f2153f,2021-04-03_12h03.36.541,Colour_Similarity_Experiment,2020.2.10,Win32,60,60674ec340277cd6a308bc9f,227.4608696,234.1016949,221.3877551,226.3913044,204.2625,226.3913044,,,,,,,,,,,,,,,,,,,,PF,strong,0,,,,,,,,3,2.547,,,,,,,,,,,,,,,,,,,,,,,,,,,,8,strong,-57,-83,1,0,0,response5disk,6,48,-15,9,1,0,0,rectangle,-15,9,1,0,0,4,7,0.002,-15,9,1,0,0,0,47,47,37,1,0,,,,,,,,,,,,,,,,,,,,,
,,,,,,,,,,,,,,,,,,,,,,,,,,,,,,,,,,,,,,,,,,5dde2885fef7c2d901c6d35a,60684b4e7d14374480f2153f,2021-04-03_12h03.36.541,Colour_Similarity_Experiment,2020.2.10,Win32,60,60674ec340277cd6a308bc9f,227.4608696,234.1016949,221.3877551,226.3913044,204.2625,226.3913044,,,,,,,,,,,,,,,,,,,,PF,strong,0,,,,,,,,7,2.601,,,,,,,,,,,,,,,,,,,,,,,,,,,,3,strong,49,94,1,0,0,response1disk,9,49,12,11,1,0,0,rectangle,12,11,1,0,0,4,0,0.003,12,11,1,0,0,0,48,48,143,1,0,,,,,,,,,,,,,,,,,,,,,
,,,,,,,,,,,,,,,,,,,,,,,,,,,,,,,,,,,,,,,,,,5dde2885fef7c2d901c6d35a,60684b4e7d14374480f2153f,2021-04-03_12h03.36.541,Colour_Similarity_Experiment,2020.2.10,Win32,60,60674ec340277cd6a308bc9f,227.4608696,234.1016949,221.3877551,226.3913044,204.2625,226.3913044,,,,,,,,,,,,,,,,,,,,PF,strong,0,,,,,,,,4,3.414,,,,,,,,,,,,,,,,,,,,,,,,,,,,2,strong,48,-87,1,0,0,response3disk,1,50,-4,0,1,0,0,rectangle,-4,0,1,0,0,4,2,0.002,-4,0,1,0,0,0,49,49,85,1,0,,,,,,,,,,,,,,,,,,,,,
,,,,,,,,,,,,,,,,,,,,,,,,,,,,,,,,,,,,,,,,,,5dde2885fef7c2d901c6d35a,60684b4e7d14374480f2153f,2021-04-03_12h03.36.541,Colour_Similarity_Experiment,2020.2.10,Win32,60,60674ec340277cd6a308bc9f,227.4608696,234.1016949,221.3877551,226.3913044,204.2625,226.3913044,,,,,,,,,,,,,,,,,,,,PF,weak,0,,,,,,,,7,1.983,,,,,,,,,,,,,,,,,,,,,,,,,,,,5,weak,63,103,1,0,0,response1disk,6,51,6,7,1,0,0,rectangle,6,7,1,0,0,4,7,0.003,6,7,1,0,0,0,50,50,103,1,0,,,,,,,,,,,,,,,,,,,,,
,,,,,,,,,,,,,,,,,,,,,,,,,,,,,,,,,,,,,,,,,,5dde2885fef7c2d901c6d35a,60684b4e7d14374480f2153f,2021-04-03_12h03.36.541,Colour_Similarity_Experiment,2020.2.10,Win32,60,60674ec340277cd6a308bc9f,227.4608696,234.1016949,221.3877551,226.3913044,204.2625,226.3913044,,,,,,,,,,,,,,,,,,,,PF,strong,0,,,,,,,,2,4.371,,,,,,,,,,,,,,,,,,,,,,,,,,,,2,strong,-99,-49,1,0,0,response5disk,8,52,2,1,1,0,0,rectangle,2,1,1,0,0,4,5,0.006,2,1,1,0,0,0,51,51,62,1,0,,,,,,,,,,,,,,,,,,,,,
,,,,,,,,,,,,,,,,,,,,,,,,,,,,,,,,,,,,,,,,,,5dde2885fef7c2d901c6d35a,60684b4e7d14374480f2153f,2021-04-03_12h03.36.541,Colour_Similarity_Experiment,2020.2.10,Win32,60,60674ec340277cd6a308bc9f,227.4608696,234.1016949,221.3877551,226.3913044,204.2625,226.3913044,,,,,,,,,,,,,,,,,,,,PF,strong,0,,,,,,,,7,1.854,,,,,,,,,,,,,,,,,,,,,,,,,,,,6,strong,56,90,1,0,0,response1disk,4,53,-20,10,1,0,0,rectangle,-20,10,1,0,0,4,3,0.002,-20,10,1,0,0,0,52,52,56,1,0,,,,,,,,,,,,,,,,,,,,,
,,,,,,,,,,,,,,,,,,,,,,,,,,,,,,,,,,,,,,,,,,5dde2885fef7c2d901c6d35a,60684b4e7d14374480f2153f,2021-04-03_12h03.36.541,Colour_Similarity_Experiment,2020.2.10,Win32,60,60674ec340277cd6a308bc9f,227.4608696,234.1016949,221.3877551,226.3913044,204.2625,226.3913044,,,,,,,,,,,,,,,,,,,,PF,strong,0,,,,,,,,4,2.64,,,,,,,,,,,,,,,,,,,,,,,,,,,,5,strong,65,-84,1,0,0,response3disk,6,54,-1,5,1,0,0,rectangle,-1,5,1,0,0,4,4,0.003,-1,5,1,0,0,0,53,53,12,1,0,,,,,,,,,,,,,,,,,,,,,
,,,,,,,,,,,,,,,,,,,,,,,,,,,,,,,,,,,,,,,,,,5dde2885fef7c2d901c6d35a,60684b4e7d14374480f2153f,2021-04-03_12h03.36.541,Colour_Similarity_Experiment,2020.2.10,Win32,60,60674ec340277cd6a308bc9f,227.4608696,234.1016949,221.3877551,226.3913044,204.2625,226.3913044,,,,,,,,,,,,,,,,,,,,PF,weak,0,,,,,,,,4,3.086,,,,,,,,,,,,,,,,,,,,,,,,,,,,8,weak,47,-77,1,0,0,response3disk,7,55,-5,11,1,0,0,rectangle,-5,11,1,0,0,4,1,0.002,-5,11,1,0,0,0,54,54,23,1,0,,,,,,,,,,,,,,,,,,,,,
,,,,,,,,,,,,,,,,,,,,,,,,,,,,,,,,,,,,,,,,,,5dde2885fef7c2d901c6d35a,60684b4e7d14374480f2153f,2021-04-03_12h03.36.541,Colour_Similarity_Experiment,2020.2.10,Win32,60,60674ec340277cd6a308bc9f,227.4608696,234.1016949,221.3877551,226.3913044,204.2625,226.3913044,,,,,,,,,,,,,,,,,,,,PF,weak,0,,,,,,,,1,2.056,,,,,,,,,,,,,,,,,,,,,,,,,,,,1,weak,-90,47,1,0,0,response7disk,7,56,-23,5,1,0,0,rectangle,-23,5,1,0,0,4,4,0.005,-23,5,1,0,0,0,55,55,150,1,0,,,,,,,,,,,,,,,,,,,,,
,,,,,,,,,,,,,,,,,,,,,,,,,,,,,,,,,,,,,,,,,,5dde2885fef7c2d901c6d35a,60684b4e7d14374480f2153f,2021-04-03_12h03.36.541,Colour_Similarity_Experiment,2020.2.10,Win32,60,60674ec340277cd6a308bc9f,227.4608696,234.1016949,221.3877551,226.3913044,204.2625,226.3913044,,,,,,,,,,,,,,,,,,,,PF,strong,0,,,,,,,,7,1.963,,,,,,,,,,,,,,,,,,,,,,,,,,,,4,strong,37,76,1,0,0,response1disk,3,57,3,5,1,0,0,rectangle,3,5,1,0,0,4,4,0,3,5,1,0,0,0,56,56,77,1,0,,,,,,,,,,,,,,,,,,,,,
,,,,,,,,,,,,,,,,,,,,,,,,,,,,,,,,,,,,,,,,,,5dde2885fef7c2d901c6d35a,60684b4e7d14374480f2153f,2021-04-03_12h03.36.541,Colour_Similarity_Experiment,2020.2.10,Win32,60,60674ec340277cd6a308bc9f,227.4608696,234.1016949,221.3877551,226.3913044,204.2625,226.3913044,,,,,,,,,,,,,,,,,,,,PF,strong,0,,,,,,,,4,9.12,,,,,,,,,,,,,,,,,,,,,,,,,,,,8,strong,59,-78,1,0,0,response3disk,2,58,-12,-1,1,0,0,rectangle,-12,-1,1,0,0,4,3,0.002,-12,-1,1,0,0,0,57,57,22,1,0,,,,,,,,,,,,,,,,,,,,,
,,,,,,,,,,,,,,,,,,,,,,,,,,,,,,,,,,,,,,,,,,5dde2885fef7c2d901c6d35a,60684b4e7d14374480f2153f,2021-04-03_12h03.36.541,Colour_Similarity_Experiment,2020.2.10,Win32,60,60674ec340277cd6a308bc9f,227.4608696,234.1016949,221.3877551,226.3913044,204.2625,226.3913044,,,,,,,,,,,,,,,,,,,,PF,strong,0,,,,,,,,1,2.017,,,,,,,,,,,,,,,,,,,,,,,,,,,,9,strong,-96,45,1,0,0,response7disk,2,59,-8,-9,1,0,0,rectangle,-61,96,1,0,0,0,0,2.236,17,5,1,0,0,0,58,58,11,1,1,response7disk_3,rectangle,,,,,,,,,,,,,,,,,,,
,,,,,,,,,,,,,,,,,,,,,,,,,,,,,,,,,,,,,,,,,,5dde2885fef7c2d901c6d35a,60684b4e7d14374480f2153f,2021-04-03_12h03.36.541,Colour_Similarity_Experiment,2020.2.10,Win32,60,60674ec340277cd6a308bc9f,227.4608696,234.1016949,221.3877551,226.3913044,204.2625,226.3913044,,,,,,,,,,,,,,,,,,,,PF,weak,0,,,,,,,,3,2.359,,,,,,,,,,,,,,,,,,,,,,,,,,,,5,weak,-41,-65,1,0,0,response5disk,8,60,0,12,1,0,0,rectangle,0,12,1,0,0,0,3,0.002,0,12,1,0,0,0,59,59,149,1,0,,,,,,,,,,,,,,,,,,,,,
,,,,,,,,,,,,,,,,,,,,,,,,,,,,,,,,,,,,,,,,,,5dde2885fef7c2d901c6d35a,60684b4e7d14374480f2153f,2021-04-03_12h03.36.541,Colour_Similarity_Experiment,2020.2.10,Win32,60,60674ec340277cd6a308bc9f,227.4608696,234.1016949,221.3877551,226.3913044,204.2625,226.3913044,,,,,,,,,,,,,,,,,,,,PF,weak,0,,,,,,,,7,1.786,,,,,,,,,,,,,,,,,,,,,,,,,,,,3,weak,45,107,1,0,0,response1disk,4,61,-1,4,1,0,0,rectangle,-1,4,1,0,0,0,6,0.002,-1,4,1,0,0,0,60,60,30,1,0,,,,,,,,,,,,,,,,,,,,,
,,,,,,,,,,,,,,,,,,,,,,,,,,,,,,,,,,,,,,,,,,5dde2885fef7c2d901c6d35a,60684b4e7d14374480f2153f,2021-04-03_12h03.36.541,Colour_Similarity_Experiment,2020.2.10,Win32,60,60674ec340277cd6a308bc9f,227.4608696,234.1016949,221.3877551,226.3913044,204.2625,226.3913044,,,,,,,,,,,,,,,,,,,,PF,weak,0,,,,,,,,7,5.67,,,,,,,,,,,,,,,,,,,,,,,,,,,,4,weak,67,104,1,0,0,response1disk,1,62,12,-1,1,0,0,rectangle,12,-1,1,0,0,0,5,0.003,12,-1,1,0,0,0,61,61,115,1,0,,,,,,,,,,,,,,,,,,,,,
,,,,,,,,,,,,,,,,,,,,,,,,,,,,,,,,,,,,,,,,,,5dde2885fef7c2d901c6d35a,60684b4e7d14374480f2153f,2021-04-03_12h03.36.541,Colour_Similarity_Experiment,2020.2.10,Win32,60,60674ec340277cd6a308bc9f,227.4608696,234.1016949,221.3877551,226.3913044,204.2625,226.3913044,,,,,,,,,,,,,,,,,,,,PF,weak,0,,,,,,,,0,1.939,,,,,,,,,,,,,,,,,,,,,,,,,,,,5,weak,-43,88,1,0,0,response7disk,1,63,11,10,1,0,0,rectangle,108,-56,1,0,0,5,5,2.059,7,1,1,0,0,0,62,62,159,1,1,response3disk_3,rectangle,,,,,,,,,,,,,,,,,,,
,,,,,,,,,,,,,,,,,,,,,,,,,,,,,,,,,,,,,,,,,,5dde2885fef7c2d901c6d35a,60684b4e7d14374480f2153f,2021-04-03_12h03.36.541,Colour_Similarity_Experiment,2020.2.10,Win32,60,60674ec340277cd6a308bc9f,227.4608696,234.1016949,221.3877551,226.3913044,204.2625,226.3913044,,,,,,,,,,,,,,,,,,,,PF,strong,0,,,,,,,,1,1.904,,,,,,,,,,,,,,,,,,,,,,,,,,,,1,strong,-95,48,1,0,0,response7disk,8,64,-13,0,1,0,0,rectangle,-13,0,1,0,0,5,1,0.003,-13,0,1,0,0,0,63,63,27,1,0,,,,,,,,,,,,,,,,,,,,,
,,,,,,,,,,,,,,,,,,,,,,,,,,,,,,,,,,,,,,,,,,5dde2885fef7c2d901c6d35a,60684b4e7d14374480f2153f,2021-04-03_12h03.36.541,Colour_Similarity_Experiment,2020.2.10,Win32,60,60674ec340277cd6a308bc9f,227.4608696,234.1016949,221.3877551,226.3913044,204.2625,226.3913044,,,,,,,,,,,,,,,,,,,,PF,strong,0,,,,,,,,5,7.162,,,,,,,,,,,,,,,,,,,,,,,,,,,,6,strong,121,-39,1,0,0,response3disk,5,65,-8,-2,1,0,0,rectangle,-8,-2,1,0,0,5,7,0.002,-8,-2,1,0,0,0,64,64,126,1,0,,,,,,,,,,,,,,,,,,,,,
,,,,,,,,,,,,,,,,,,,,,,,,,,,,,,,,,,,,,,,,,,5dde2885fef7c2d901c6d35a,60684b4e7d14374480f2153f,2021-04-03_12h03.36.541,Colour_Similarity_Experiment,2020.2.10,Win32,60,60674ec340277cd6a308bc9f,227.4608696,234.1016949,221.3877551,226.3913044,204.2625,226.3913044,,,,,,,,,,,,,,,,,,,,PF,strong,0,,,,,,,,6,6.565,,,,,,,,,,,,,,,,,,,,,,,,,,,,9,strong,136,55,1,0,0,response1disk,1,66,16,6,1,0,0,rectangle,16,6,1,0,0,5,1,0.003,16,6,1,0,0,0,65,65,111,1,0,,,,,,,,,,,,,,,,,,,,,
,,,,,,,,,,,,,,,,,,,,,,,,,,,,,,,,,,,,,,,,,,5dde2885fef7c2d901c6d35a,60684b4e7d14374480f2153f,2021-04-03_12h03.36.541,Colour_Similarity_Experiment,2020.2.10,Win32,60,60674ec340277cd6a308bc9f,227.4608696,234.1016949,221.3877551,226.3913044,204.2625,226.3913044,,,,,,,,,,,,,,,,,,,,PF,weak,0,,,,,,,,4,2.106,,,,,,,,,,,,,,,,,,,,,,,,,,,,7,weak,55,-72,1,0,0,response3disk,8,67,-27,13,1,0,0,rectangle,-27,13,1,0,0,5,3,0.002,-27,13,1,0,0,0,66,66,140,1,0,,,,,,,,,,,,,,,,,,,,,
,,,,,,,,,,,,,,,,,,,,,,,,,,,,,,,,,,,,,,,,,,5dde2885fef7c2d901c6d35a,60684b4e7d14374480f2153f,2021-04-03_12h03.36.541,Colour_Similarity_Experiment,2020.2.10,Win32,60,60674ec340277cd6a308bc9f,227.4608696,234.1016949,221.3877551,226.3913044,204.2625,226.3913044,,,,,,,,,,,,,,,,,,,,PF,weak,0,,,,,,,,7,1.875,,,,,,,,,,,,,,,,,,,,,,,,,,,,4,weak,60,91,1,0,0,response1disk,4,68,9,6,1,0,0,rectangle,9,6,1,0,0,5,1,0.002,9,6,1,0,0,0,67,67,70,1,0,,,,,,,,,,,,,,,,,,,,,
,,,,,,,,,,,,,,,,,,,,,,,,,,,,,,,,,,,,,,,,,,5dde2885fef7c2d901c6d35a,60684b4e7d14374480f2153f,2021-04-03_12h03.36.541,Colour_Similarity_Experiment,2020.2.10,Win32,60,60674ec340277cd6a308bc9f,227.4608696,234.1016949,221.3877551,226.3913044,204.2625,226.3913044,,,,,,,,,,,,,,,,,,,,PF,strong,0,,,,,,,,0,2.418,,,,,,,,,,,,,,,,,,,,,,,,,,,,7,strong,-39,110,1,0,0,response7disk,5,69,8,3,1,0,0,rectangle,8,3,1,0,0,5,3,0.002,8,3,1,0,0,0,68,68,156,1,0,,,,,,,,,,,,,,,,,,,,,
,,,,,,,,,,,,,,,,,,,,,,,,,,,,,,,,,,,,,,,,,,5dde2885fef7c2d901c6d35a,60684b4e7d14374480f2153f,2021-04-03_12h03.36.541,Colour_Similarity_Experiment,2020.2.10,Win32,60,60674ec340277cd6a308bc9f,227.4608696,234.1016949,221.3877551,226.3913044,204.2625,226.3913044,,,,,,,,,,,,,,,,,,,,PF,weak,0,,,,,,,,6,3.419,,,,,,,,,,,,,,,,,,,,,,,,,,,,1,weak,145,57,1,0,0,response1disk,6,70,1,8,1,0,0,rectangle,1,8,1,0,0,5,1,0.002,1,8,1,0,0,0,69,69,144,1,0,,,,,,,,,,,,,,,,,,,,,
,,,,,,,,,,,,,,,,,,,,,,,,,,,,,,,,,,,,,,,,,,5dde2885fef7c2d901c6d35a,60684b4e7d14374480f2153f,2021-04-03_12h03.36.541,Colour_Similarity_Experiment,2020.2.10,Win32,60,60674ec340277cd6a308bc9f,227.4608696,234.1016949,221.3877551,226.3913044,204.2625,226.3913044,,,,,,,,,,,,,,,,,,,,PF,weak,0,,,,,,,,2,3.154,,,,,,,,,,,,,,,,,,,,,,,,,,,,7,weak,-113,-41,1,0,0,response5disk,6,71,15,-4,1,0,0,rectangle,15,-4,1,0,0,5,6,0.002,15,-4,1,0,0,0,70,70,29,1,0,,,,,,,,,,,,,,,,,,,,,
,,,,,,,,,,,,,,,,,,,,,,,,,,,,,,,,,,,,,,,,,,5dde2885fef7c2d901c6d35a,60684b4e7d14374480f2153f,2021-04-03_12h03.36.541,Colour_Similarity_Experiment,2020.2.10,Win32,60,60674ec340277cd6a308bc9f,227.4608696,234.1016949,221.3877551,226.3913044,204.2625,226.3913044,,,,,,,,,,,,,,,,,,,,PF,strong,0,,,,,,,,7,1.64,,,,,,,,,,,,,,,,,,,,,,,,,,,,8,strong,47,91,1,0,0,response1disk,1,72,-11,19,1,0,0,rectangle,-11,19,1,0,0,5,7,0.001,-11,19,1,0,0,0,71,71,20,1,0,,,,,,,,,,,,,,,,,,,,,
,,,,,,,,,,,,,,,,,,,,,,,,,,,,,,,,,,,,,,,,,,5dde2885fef7c2d901c6d35a,60684b4e7d14374480f2153f,2021-04-03_12h03.36.541,Colour_Similarity_Experiment,2020.2.10,Win32,60,60674ec340277cd6a308bc9f,227.4608696,234.1016949,221.3877551,226.3913044,204.2625,226.3913044,,,,,,,,,,,,,,,,,,,,PF,strong,0,,,,,,,,0,2.034,,,,,,,,,,,,,,,,,,,,,,,,,,,,1,strong,-57,88,1,0,0,response7disk,1,73,-14,8,1,0,0,rectangle,-14,8,1,0,0,5,5,0.004,-14,8,1,0,0,0,72,72,151,1,0,,,,,,,,,,,,,,,,,,,,,
,,,,,,,,,,,,,,,,,,,,,,,,,,,,,,,,,,,,,,,,,,5dde2885fef7c2d901c6d35a,60684b4e7d14374480f2153f,2021-04-03_12h03.36.541,Colour_Similarity_Experiment,2020.2.10,Win32,60,60674ec340277cd6a308bc9f,227.4608696,234.1016949,221.3877551,226.3913044,204.2625,226.3913044,,,,,,,,,,,,,,,,,,,,PF,weak,0,,,,,,,,0,8.699,,,,,,,,,,,,,,,,,,,,,,,,,,,,6,weak,-69,117,1,0,0,response7disk,1,74,-25,-3,1,0,0,rectangle,-25,-3,1,0,0,5,2,0.002,-25,-3,1,0,0,0,73,73,46,1,0,,,,,,,,,,,,,,,,,,,,,
,,,,,,,,,,,,,,,,,,,,,,,,,,,,,,,,,,,,,,,,,,5dde2885fef7c2d901c6d35a,60684b4e7d14374480f2153f,2021-04-03_12h03.36.541,Colour_Similarity_Experiment,2020.2.10,Win32,60,60674ec340277cd6a308bc9f,227.4608696,234.1016949,221.3877551,226.3913044,204.2625,226.3913044,,,,,,,,,,,,,,,,,,,,PF,strong,0,,,,,,,,1,3.333,,,,,,,,,,,,,,,,,,,,,,,,,,,,9,strong,-126,52,1,0,0,response7disk,9,75,8,10,1,0,0,rectangle,8,10,1,0,0,5,4,0.003,8,10,1,0,0,0,74,74,17,1,0,,,,,,,,,,,,,,,,,,,,,
,,,,,,,,,,,,,,,,,,,,,,,,,,,,,,,,,,,,,,,,,,5dde2885fef7c2d901c6d35a,60684b4e7d14374480f2153f,2021-04-03_12h03.36.541,Colour_Similarity_Experiment,2020.2.10,Win32,60,60674ec340277cd6a308bc9f,227.4608696,234.1016949,221.3877551,226.3913044,204.2625,226.3913044,,,,,,,,,,,,,,,,,,,,PF,weak,0,,,,,,,,0,1.736,,,,,,,,,,,,,,,,,,,,,,,,,,,,8,weak,-56,92,1,0,0,response7disk,9,76,-18,5,1,0,0,rectangle,-18,5,1,0,0,5,0,0.001,-18,5,1,0,0,0,75,75,42,1,0,,,,,,,,,,,,,,,,,,,,,
,,,,,,,,,,,,,,,,,,,,,,,,,,,,,,,,,,,,,,,,,,5dde2885fef7c2d901c6d35a,60684b4e7d14374480f2153f,2021-04-03_12h03.36.541,Colour_Similarity_Experiment,2020.2.10,Win32,60,60674ec340277cd6a308bc9f,227.4608696,234.1016949,221.3877551,226.3913044,204.2625,226.3913044,,,,,,,,,,,,,,,,,,,,PF,weak,0,,,,,,,,5,3.122,,,,,,,,,,,,,,,,,,,,,,,,,,,,6,weak,113,-70,1,0,0,response3disk,6,77,10,-4,1,0,0,rectangle,10,-4,1,0,0,5,5,0.002,10,-4,1,0,0,0,76,76,0,1,0,,,,,,,,,,,,,,,,,,,,,
,,,,,,,,,,,,,,,,,,,,,,,,,,,,,,,,,,,,,,,,,,5dde2885fef7c2d901c6d35a,60684b4e7d14374480f2153f,2021-04-03_12h03.36.541,Colour_Similarity_Experiment,2020.2.10,Win32,60,60674ec340277cd6a308bc9f,227.4608696,234.1016949,221.3877551,226.3913044,204.2625,226.3913044,,,,,,,,,,,,,,,,,,,,PF,weak,0,,,,,,,,0,1.889,,,,,,,,,,,,,,,,,,,,,,,,,,,,6,weak,-71,108,1,0,0,response7disk,7,78,-8,16,1,0,0,rectangle,-8,16,1,0,0,5,5,0.001,-8,16,1,0,0,0,77,77,50,1,0,,,,,,,,,,,,,,,,,,,,,
,,,,,,,,,,,,,,,,,,,,,,,,,,,,,,,,,,,,,,,,,,5dde2885fef7c2d901c6d35a,60684b4e7d14374480f2153f,2021-04-03_12h03.36.541,Colour_Similarity_Experiment,2020.2.10,Win32,60,60674ec340277cd6a308bc9f,227.4608696,234.1016949,221.3877551,226.3913044,204.2625,226.3913044,,,,,,,,,,,,,,,,,,,,PF,weak,0,,,,,,,,7,1.771,,,,,,,,,,,,,,,,,,,,,,,,,,,,8,weak,46,115,1,0,0,response1disk,3,79,-4,13,1,0,0,rectangle,-4,13,1,0,0,5,3,0.002,-4,13,1,0,0,0,78,78,71,1,0,,,,,,,,,,,,,,,,,,,,,
,,,,,,,,,,,,,,,,,,,,,,,,,,,,,,,,,,,,,,,,,,5dde2885fef7c2d901c6d35a,60684b4e7d14374480f2153f,2021-04-03_12h03.36.541,Colour_Similarity_Experiment,2020.2.10,Win32,60,60674ec340277cd6a308bc9f,227.4608696,234.1016949,221.3877551,226.3913044,204.2625,226.3913044,,,,,,,,,,,,,,,,,,,,PF,weak,0,,,,,,,,7,4.583,,,,,,,,,,,,,,,,,,,,,,,,,,,,5,weak,42,134,1,0,0,response1disk,9,80,-4,16,1,0,0,rectangle,43,119,1,0,0,7,7,2.12,-27,16,1,0,0,0,79,79,136,1,1,response1disk_3,rectangle,,,,,,,,,,,,,,,,,,,
,,,,,,,,,,,,,,,,,,,,,,,,,,,,,,,,,,,,,,,,,,5dde2885fef7c2d901c6d35a,60684b4e7d14374480f2153f,2021-04-03_12h03.36.541,Colour_Similarity_Experiment,2020.2.10,Win32,60,60674ec340277cd6a308bc9f,227.4608696,234.1016949,221.3877551,226.3913044,204.2625,226.3913044,,,,,,,,,,,,,,,,,,,,PF,strong,0,,,,,,,,0,1.678,,,,,,,,,,,,,,,,,,,,,,,,,,,,7,strong,-49,109,1,0,0,response7disk,4,81,-2,14,1,0,0,rectangle,-2,14,1,0,0,7,6,0.002,-2,14,1,0,0,0,80,80,158,1,0,,,,,,,,,,,,,,,,,,,,,
,,,,,,,,,,,,,,,,,,,,,,,,,,,,,,,,,,,,,,,,,,5dde2885fef7c2d901c6d35a,60684b4e7d14374480f2153f,2021-04-03_12h03.36.541,Colour_Similarity_Experiment,2020.2.10,Win32,60,60674ec340277cd6a308bc9f,227.4608696,234.1016949,221.3877551,226.3913044,204.2625,226.3913044,,,,,,,,,,,,,,,,,,,,PF,weak,0,,,,,,,,0,1.704,,,,,,,,,,,,,,,,,,,,,,,,,,,,9,weak,-49,101,1,0,0,response7disk,4,82,17,14,1,0,0,rectangle,17,14,1,0,0,7,6,0,17,14,1,0,0,0,81,81,114,1,0,,,,,,,,,,,,,,,,,,,,,
,,,,,,,,,,,,,,,,,,,,,,,,,,,,,,,,,,,,,,,,,,5dde2885fef7c2d901c6d35a,60684b4e7d14374480f2153f,2021-04-03_12h03.36.541,Colour_Similarity_Experiment,2020.2.10,Win32,60,60674ec340277cd6a308bc9f,227.4608696,234.1016949,221.3877551,226.3913044,204.2625,226.3913044,,,,,,,,,,,,,,,,,,,,PF,weak,0,,,,,,,,7,2.158,,,,,,,,,,,,,,,,,,,,,,,,,,,,5,weak,67,126,1,0,0,response1disk,7,83,30,9,1,0,0,rectangle,30,9,1,0,0,7,2,0.005,30,9,1,0,0,0,82,82,146,1,0,,,,,,,,,,,,,,,,,,,,,
,,,,,,,,,,,,,,,,,,,,,,,,,,,,,,,,,,,,,,,,,,5dde2885fef7c2d901c6d35a,60684b4e7d14374480f2153f,2021-04-03_12h03.36.541,Colour_Similarity_Experiment,2020.2.10,Win32,60,60674ec340277cd6a308bc9f,227.4608696,234.1016949,221.3877551,226.3913044,204.2625,226.3913044,,,,,,,,,,,,,,,,,,,,PF,weak,0,,,,,,,,2,2.454,,,,,,,,,,,,,,,,,,,,,,,,,,,,7,weak,-81,-45,1,0,0,response5disk,3,84,-8,-3,1,0,0,rectangle,-8,-3,1,0,0,7,6,0.002,-8,-3,1,0,0,0,83,83,81,1,0,,,,,,,,,,,,,,,,,,,,,
,,,,,,,,,,,,,,,,,,,,,,,,,,,,,,,,,,,,,,,,,,5dde2885fef7c2d901c6d35a,60684b4e7d14374480f2153f,2021-04-03_12h03.36.541,Colour_Similarity_Experiment,2020.2.10,Win32,60,60674ec340277cd6a308bc9f,227.4608696,234.1016949,221.3877551,226.3913044,204.2625,226.3913044,,,,,,,,,,,,,,,,,,,,PF,strong,0,,,,,,,,7,3.561,,,,,,,,,,,,,,,,,,,,,,,,,,,,3,strong,54,130,1,0,0,response1disk,8,85,5,-8,1,0,0,rectangle,5,-8,1,0,0,7,5,0.002,5,-8,1,0,0,0,84,84,44,1,0,,,,,,,,,,,,,,,,,,,,,
,,,,,,,,,,,,,,,,,,,,,,,,,,,,,,,,,,,,,,,,,,5dde2885fef7c2d901c6d35a,60684b4e7d14374480f2153f,2021-04-03_12h03.36.541,Colour_Similarity_Experiment,2020.2.10,Win32,60,60674ec340277cd6a308bc9f,227.4608696,234.1016949,221.3877551,226.3913044,204.2625,226.3913044,,,,,,,,,,,,,,,,,,,,PF,strong,0,,,,,,,,7,1.844,,,,,,,,,,,,,,,,,,,,,,,,,,,,2,strong,45,104,1,0,0,response1disk,2,86,-9,2,1,0,0,rectangle,-9,2,1,0,0,7,2,0.001,-9,2,1,0,0,0,85,85,142,1,0,,,,,,,,,,,,,,,,,,,,,
,,,,,,,,,,,,,,,,,,,,,,,,,,,,,,,,,,,,,,,,,,5dde2885fef7c2d901c6d35a,60684b4e7d14374480f2153f,2021-04-03_12h03.36.541,Colour_Similarity_Experiment,2020.2.10,Win32,60,60674ec340277cd6a308bc9f,227.4608696,234.1016949,221.3877551,226.3913044,204.2625,226.3913044,,,,,,,,,,,,,,,,,,,,PF,weak,0,,,,,,,,7,2.7,,,,,,,,,,,,,,,,,,,,,,,,,,,,1,weak,41,92,1,0,0,response1disk,1,87,7,7,1,0,0,rectangle,-66,111,1,0,0,0,0,2.069,-19,9,1,0,0,0,86,86,76,1,1,response7disk_3,rectangle,,,,,,,,,,,,,,,,,,,
,,,,,,,,,,,,,,,,,,,,,,,,,,,,,,,,,,,,,,,,,,5dde2885fef7c2d901c6d35a,60684b4e7d14374480f2153f,2021-04-03_12h03.36.541,Colour_Similarity_Experiment,2020.2.10,Win32,60,60674ec340277cd6a308bc9f,227.4608696,234.1016949,221.3877551,226.3913044,204.2625,226.3913044,,,,,,,,,,,,,,,,,,,,PF,strong,0,,,,,,,,7,2.05,,,,,,,,,,,,,,,,,,,,,,,,,,,,7,strong,51,87,1,0,0,response1disk,2,88,19,9,1,0,0,rectangle,19,9,1,0,0,0,6,0.002,19,9,1,0,0,0,87,87,138,1,0,,,,,,,,,,,,,,,,,,,,,
,,,,,,,,,,,,,,,,,,,,,,,,,,,,,,,,,,,,,,,,,,5dde2885fef7c2d901c6d35a,60684b4e7d14374480f2153f,2021-04-03_12h03.36.541,Colour_Similarity_Experiment,2020.2.10,Win32,60,60674ec340277cd6a308bc9f,227.4608696,234.1016949,221.3877551,226.3913044,204.2625,226.3913044,,,,,,,,,,,,,,,,,,,,PF,weak,0,,,,,,,,7,1.683,,,,,,,,,,,,,,,,,,,,,,,,,,,,2,weak,60,98,1,0,0,response1disk,8,89,6,9,1,0,0,rectangle,6,9,1,0,0,0,2,0.002,6,9,1,0,0,0,88,88,52,1,0,,,,,,,,,,,,,,,,,,,,,
,,,,,,,,,,,,,,,,,,,,,,,,,,,,,,,,,,,,,,,,,,5dde2885fef7c2d901c6d35a,60684b4e7d14374480f2153f,2021-04-03_12h03.36.541,Colour_Similarity_Experiment,2020.2.10,Win32,60,60674ec340277cd6a308bc9f,227.4608696,234.1016949,221.3877551,226.3913044,204.2625,226.3913044,,,,,,,,,,,,,,,,,,,,PF,weak,0,,,,,,,,3,2.555,,,,,,,,,,,,,,,,,,,,,,,,,,,,7,weak,-48,-79,1,0,0,response5disk,7,90,15,1,1,0,0,rectangle,15,1,1,0,0,0,3,0.003,15,1,1,0,0,0,89,89,51,1,0,,,,,,,,,,,,,,,,,,,,,
,,,,,,,,,,,,,,,,,,,,,,,,,,,,,,,,,,,,,,,,,,5dde2885fef7c2d901c6d35a,60684b4e7d14374480f2153f,2021-04-03_12h03.36.541,Colour_Similarity_Experiment,2020.2.10,Win32,60,60674ec340277cd6a308bc9f,227.4608696,234.1016949,221.3877551,226.3913044,204.2625,226.3913044,,,,,,,,,,,,,,,,,,,,PF,weak,0,,,,,,,,3,1.982,,,,,,,,,,,,,,,,,,,,,,,,,,,,6,weak,-46,-82,1,0,0,response5disk,9,91,2,11,1,0,0,rectangle,2,11,1,0,0,0,4,0.001,2,11,1,0,0,0,90,90,45,1,0,,,,,,,,,,,,,,,,,,,,,
,,,,,,,,,,,,,,,,,,,,,,,,,,,,,,,,,,,,,,,,,,5dde2885fef7c2d901c6d35a,60684b4e7d14374480f2153f,2021-04-03_12h03.36.541,Colour_Similarity_Experiment,2020.2.10,Win32,60,60674ec340277cd6a308bc9f,227.4608696,234.1016949,221.3877551,226.3913044,204.2625,226.3913044,,,,,,,,,,,,,,,,,,,,PF,strong,0,,,,,,,,6,4.816,,,,,,,,,,,,,,,,,,,,,,,,,,,,4,strong,91,26,1,0,0,response1disk,1,92,-9,-11,1,0,0,rectangle,-9,-11,1,0,0,0,6,0.001,-9,-11,1,0,0,0,91,91,102,1,0,,,,,,,,,,,,,,,,,,,,,
,,,,,,,,,,,,,,,,,,,,,,,,,,,,,,,,,,,,,,,,,,5dde2885fef7c2d901c6d35a,60684b4e7d14374480f2153f,2021-04-03_12h03.36.541,Colour_Similarity_Experiment,2020.2.10,Win32,60,60674ec340277cd6a308bc9f,227.4608696,234.1016949,221.3877551,226.3913044,204.2625,226.3913044,,,,,,,,,,,,,,,,,,,,PF,strong,0,,,,,,,,7,3.081,,,,,,,,,,,,,,,,,,,,,,,,,,,,2,strong,54,98,1,0,0,response1disk,3,93,8,16,1,0,0,rectangle,100,58,1,0,0,6,6,1.871,29,3,1,0,0,0,92,92,104,1,1,response1disk_3,rectangle,,,,,,,,,,,,,,,,,,,
,,,,,,,,,,,,,,,,,,,,,,,,,,,,,,,,,,,,,,,,,,5dde2885fef7c2d901c6d35a,60684b4e7d14374480f2153f,2021-04-03_12h03.36.541,Colour_Similarity_Experiment,2020.2.10,Win32,60,60674ec340277cd6a308bc9f,227.4608696,234.1016949,221.3877551,226.3913044,204.2625,226.3913044,,,,,,,,,,,,,,,,,,,,PF,strong,0,,,,,,,,0,2.097,,,,,,,,,,,,,,,,,,,,,,,,,,,,3,strong,-48,99,1,0,0,response7disk,3,94,-1,18,1,0,0,rectangle,-1,18,1,0,0,6,2,0.002,-1,18,1,0,0,0,93,93,68,1,0,,,,,,,,,,,,,,,,,,,,,
,,,,,,,,,,,,,,,,,,,,,,,,,,,,,,,,,,,,,,,,,,5dde2885fef7c2d901c6d35a,60684b4e7d14374480f2153f,2021-04-03_12h03.36.541,Colour_Similarity_Experiment,2020.2.10,Win32,60,60674ec340277cd6a308bc9f,227.4608696,234.1016949,221.3877551,226.3913044,204.2625,226.3913044,,,,,,,,,,,,,,,,,,,,PF,strong,0,,,,,,,,7,1.729,,,,,,,,,,,,,,,,,,,,,,,,,,,,6,strong,46,87,1,0,0,response1disk,2,95,14,13,1,0,0,rectangle,14,13,1,0,0,6,4,0.002,14,13,1,0,0,0,94,94,112,1,0,,,,,,,,,,,,,,,,,,,,,
,,,,,,,,,,,,,,,,,,,,,,,,,,,,,,,,,,,,,,,,,,5dde2885fef7c2d901c6d35a,60684b4e7d14374480f2153f,2021-04-03_12h03.36.541,Colour_Similarity_Experiment,2020.2.10,Win32,60,60674ec340277cd6a308bc9f,227.4608696,234.1016949,221.3877551,226.3913044,204.2625,226.3913044,,,,,,,,,,,,,,,,,,,,PF,strong,0,,,,,,,,0,1.617,,,,,,,,,,,,,,,,,,,,,,,,,,,,3,strong,-53,100,1,0,0,response7disk,2,96,-2,15,1,0,0,rectangle,-2,15,1,0,0,6,6,0.001,-2,15,1,0,0,0,95,95,93,1,0,,,,,,,,,,,,,,,,,,,,,
,,,,,,,,,,,,,,,,,,,,,,,,,,,,,,,,,,,,,,,,,,5dde2885fef7c2d901c6d35a,60684b4e7d14374480f2153f,2021-04-03_12h03.36.541,Colour_Similarity_Experiment,2020.2.10,Win32,60,60674ec340277cd6a308bc9f,227.4608696,234.1016949,221.3877551,226.3913044,204.2625,226.3913044,,,,,,,,,,,,,,,,,,,,PF,weak,0,,,,,,,,7,4.311,,,,,,,,,,,,,,,,,,,,,,,,,,,,3,weak,66,129,1,0,0,response1disk,7,97,10,-5,1,0,0,rectangle,10,-5,1,0,0,6,3,0.003,10,-5,1,0,0,0,96,96,41,1,0,,,,,,,,,,,,,,,,,,,,,
,,,,,,,,,,,,,,,,,,,,,,,,,,,,,,,,,,,,,,,,,,5dde2885fef7c2d901c6d35a,60684b4e7d14374480f2153f,2021-04-03_12h03.36.541,Colour_Similarity_Experiment,2020.2.10,Win32,60,60674ec340277cd6a308bc9f,227.4608696,234.1016949,221.3877551,226.3913044,204.2625,226.3913044,,,,,,,,,,,,,,,,,,,,PF,strong,0,,,,,,,,7,3.287,,,,,,,,,,,,,,,,,,,,,,,,,,,,7,strong,67,97,1,0,0,response1disk,7,98,15,9,1,0,0,rectangle,15,9,1,0,0,6,7,0.002,15,9,1,0,0,0,97,97,34,1,0,,,,,,,,,,,,,,,,,,,,,
,,,,,,,,,,,,,,,,,,,,,,,,,,,,,,,,,,,,,,,,,,5dde2885fef7c2d901c6d35a,60684b4e7d14374480f2153f,2021-04-03_12h03.36.541,Colour_Similarity_Experiment,2020.2.10,Win32,60,60674ec340277cd6a308bc9f,227.4608696,234.1016949,221.3877551,226.3913044,204.2625,226.3913044,,,,,,,,,,,,,,,,,,,,PF,weak,0,,,,,,,,7,4.507,,,,,,,,,,,,,,,,,,,,,,,,,,,,9,weak,32,99,1,0,0,response1disk,1,99,6,19,1,0,0,rectangle,6,19,1,0,0,6,2,0.002,6,19,1,0,0,0,98,98,74,1,0,,,,,,,,,,,,,,,,,,,,,
,,,,,,,,,,,,,,,,,,,,,,,,,,,,,,,,,,,,,,,,,,5dde2885fef7c2d901c6d35a,60684b4e7d14374480f2153f,2021-04-03_12h03.36.541,Colour_Similarity_Experiment,2020.2.10,Win32,60,60674ec340277cd6a308bc9f,227.4608696,234.1016949,221.3877551,226.3913044,204.2625,226.3913044,,,,,,,,,,,,,,,,,,,,PF,weak,0,,,,,,,,7,1.873,,,,,,,,,,,,,,,,,,,,,,,,,,,,4,weak,59,94,1,0,0,response1disk,6,100,12,14,1,0,0,rectangle,12,14,1,0,0,6,0,0.002,12,14,1,0,0,0,99,99,120,1,0,,,,,,,,,,,,,,,,,,,,,
,,,,,,,,,,,,,,,,,,,,,,,,,,,,,,,,,,,,,,,,,,5dde2885fef7c2d901c6d35a,60684b4e7d14374480f2153f,2021-04-03_12h03.36.541,Colour_Similarity_Experiment,2020.2.10,Win32,60,60674ec340277cd6a308bc9f,227.4608696,234.1016949,221.3877551,226.3913044,204.2625,226.3913044,,,,,,,,,,,,,,,,,,,,PF,strong,0,,,,,,,,0,1.514,,,,,,,,,,,,,,,,,,,,,,,,,,,,2,strong,-42,101,1,0,0,response7disk,6,101,-16,17,1,0,0,rectangle,-16,17,1,0,0,6,1,0.002,-16,17,1,0,0,0,100,100,40,1,0,,,,,,,,,,,,,,,,,,,,,
,,,,,,,,,,,,,,,,,,,,,,,,,,,,,,,,,,,,,,,,,,5dde2885fef7c2d901c6d35a,60684b4e7d14374480f2153f,2021-04-03_12h03.36.541,Colour_Similarity_Experiment,2020.2.10,Win32,60,60674ec340277cd6a308bc9f,227.4608696,234.1016949,221.3877551,226.3913044,204.2625,226.3913044,,,,,,,,,,,,,,,,,,,,PF,weak,0,,,,,,,,0,1.596,,,,,,,,,,,,,,,,,,,,,,,,,,,,9,weak,-55,106,1,0,0,response7disk,7,102,8,9,1,0,0,rectangle,8,9,1,0,0,6,6,0.003,8,9,1,0,0,0,101,101,121,1,0,,,,,,,,,,,,,,,,,,,,,
,,,,,,,,,,,,,,,,,,,,,,,,,,,,,,,,,,,,,,,,,,5dde2885fef7c2d901c6d35a,60684b4e7d14374480f2153f,2021-04-03_12h03.36.541,Colour_Similarity_Experiment,2020.2.10,Win32,60,60674ec340277cd6a308bc9f,227.4608696,234.1016949,221.3877551,226.3913044,204.2625,226.3913044,,,,,,,,,,,,,,,,,,,,PF,weak,0,,,,,,,,7,8.301,,,,,,,,,,,,,,,,,,,,,,,,,,,,1,weak,37,108,1,0,0,response1disk,2,103,18,8,1,0,0,rectangle,18,8,1,0,0,6,0,0.002,18,8,1,0,0,0,102,102,24,1,0,,,,,,,,,,,,,,,,,,,,,
,,,,,,,,,,,,,,,,,,,,,,,,,,,,,,,,,,,,,,,,,,5dde2885fef7c2d901c6d35a,60684b4e7d14374480f2153f,2021-04-03_12h03.36.541,Colour_Similarity_Experiment,2020.2.10,Win32,60,60674ec340277cd6a308bc9f,227.4608696,234.1016949,221.3877551,226.3913044,204.2625,226.3913044,,,,,,,,,,,,,,,,,,,,PF,weak,0,,,,,,,,7,2.203,,,,,,,,,,,,,,,,,,,,,,,,,,,,4,weak,79,124,1,0,0,response1disk,5,104,6,11,1,0,0,rectangle,6,11,1,0,0,6,3,0.002,6,11,1,0,0,0,103,103,49,1,0,,,,,,,,,,,,,,,,,,,,,
,,,,,,,,,,,,,,,,,,,,,,,,,,,,,,,,,,,,,,,,,,5dde2885fef7c2d901c6d35a,60684b4e7d14374480f2153f,2021-04-03_12h03.36.541,Colour_Similarity_Experiment,2020.2.10,Win32,60,60674ec340277cd6a308bc9f,227.4608696,234.1016949,221.3877551,226.3913044,204.2625,226.3913044,,,,,,,,,,,,,,,,,,,,PF,weak,0,,,,,,,,0,1.777,,,,,,,,,,,,,,,,,,,,,,,,,,,,4,weak,-41,85,1,0,0,response7disk,3,105,11,11,1,0,0,rectangle,11,11,1,0,0,6,3,0.001,11,11,1,0,0,0,104,104,89,1,0,,,,,,,,,,,,,,,,,,,,,
,,,,,,,,,,,,,,,,,,,,,,,,,,,,,,,,,,,,,,,,,,5dde2885fef7c2d901c6d35a,60684b4e7d14374480f2153f,2021-04-03_12h03.36.541,Colour_Similarity_Experiment,2020.2.10,Win32,60,60674ec340277cd6a308bc9f,227.4608696,234.1016949,221.3877551,226.3913044,204.2625,226.3913044,,,,,,,,,,,,,,,,,,,,PF,weak,0,,,,,,,,0,1.216,,,,,,,,,,,,,,,,,,,,,,,,,,,,3,weak,-45,89,1,0,0,response7disk,5,106,22,9,1,0,0,rectangle,22,9,1,0,0,6,6,0.003,22,9,1,0,0,0,105,105,66,1,0,,,,,,,,,,,,,,,,,,,,,
,,,,,,,,,,,,,,,,,,,,,,,,,,,,,,,,,,,,,,,,,,5dde2885fef7c2d901c6d35a,60684b4e7d14374480f2153f,2021-04-03_12h03.36.541,Colour_Similarity_Experiment,2020.2.10,Win32,60,60674ec340277cd6a308bc9f,227.4608696,234.1016949,221.3877551,226.3913044,204.2625,226.3913044,,,,,,,,,,,,,,,,,,,,PF,weak,0,,,,,,,,7,1.482,,,,,,,,,,,,,,,,,,,,,,,,,,,,9,weak,49,67,1,0,0,response1disk,8,107,17,13,1,0,0,rectangle,17,13,1,0,0,6,0,0.002,17,13,1,0,0,0,106,106,67,1,0,,,,,,,,,,,,,,,,,,,,,
,,,,,,,,,,,,,,,,,,,,,,,,,,,,,,,,,,,,,,,,,,5dde2885fef7c2d901c6d35a,60684b4e7d14374480f2153f,2021-04-03_12h03.36.541,Colour_Similarity_Experiment,2020.2.10,Win32,60,60674ec340277cd6a308bc9f,227.4608696,234.1016949,221.3877551,226.3913044,204.2625,226.3913044,,,,,,,,,,,,,,,,,,,,PF,weak,0,,,,,,,,7,2.134,,,,,,,,,,,,,,,,,,,,,,,,,,,,8,weak,28,58,1,0,0,response1disk,2,108,-3,8,1,0,0,rectangle,-3,8,1,0,0,6,3,0.003,-3,8,1,0,0,0,107,107,83,1,0,,,,,,,,,,,,,,,,,,,,,
,,,,,,,,,,,,,,,,,,,,,,,,,,,,,,,,,,,,,,,,,,5dde2885fef7c2d901c6d35a,60684b4e7d14374480f2153f,2021-04-03_12h03.36.541,Colour_Similarity_Experiment,2020.2.10,Win32,60,60674ec340277cd6a308bc9f,227.4608696,234.1016949,221.3877551,226.3913044,204.2625,226.3913044,,,,,,,,,,,,,,,,,,,,PF,strong,0,,,,,,,,7,1.778,,,,,,,,,,,,,,,,,,,,,,,,,,,,9,strong,42,58,1,0,0,response1disk,3,109,5,5,1,0,0,rectangle,5,5,1,0,0,6,0,0.005,5,5,1,0,0,0,108,108,141,1,0,,,,,,,,,,,,,,,,,,,,,
,,,,,,,,,,,,,,,,,,,,,,,,,,,,,,,,,,,,,,,,,,5dde2885fef7c2d901c6d35a,60684b4e7d14374480f2153f,2021-04-03_12h03.36.541,Colour_Similarity_Experiment,2020.2.10,Win32,60,60674ec340277cd6a308bc9f,227.4608696,234.1016949,221.3877551,226.3913044,204.2625,226.3913044,,,,,,,,,,,,,,,,,,,,PF,weak,0,,,,,,,,0,1.504,,,,,,,,,,,,,,,,,,,,,,,,,,,,7,weak,-50,91,1,0,0,response7disk,4,110,5,7,1,0,0,rectangle,5,7,1,0,0,6,5,0.001,5,7,1,0,0,0,109,109,43,1,0,,,,,,,,,,,,,,,,,,,,,
,,,,,,,,,,,,,,,,,,,,,,,,,,,,,,,,,,,,,,,,,,5dde2885fef7c2d901c6d35a,60684b4e7d14374480f2153f,2021-04-03_12h03.36.541,Colour_Similarity_Experiment,2020.2.10,Win32,60,60674ec340277cd6a308bc9f,227.4608696,234.1016949,221.3877551,226.3913044,204.2625,226.3913044,,,,,,,,,,,,,,,,,,,,PF,strong,0,,,,,,,,7,2.025,,,,,,,,,,,,,,,,,,,,,,,,,,,,3,strong,44,97,1,0,0,response1disk,1,111,-3,10,1,0,0,rectangle,-3,10,1,0,0,6,0,0.003,-3,10,1,0,0,0,110,110,125,1,0,,,,,,,,,,,,,,,,,,,,,
,,,,,,,,,,,,,,,,,,,,,,,,,,,,,,,,,,,,,,,,,,5dde2885fef7c2d901c6d35a,60684b4e7d14374480f2153f,2021-04-03_12h03.36.541,Colour_Similarity_Experiment,2020.2.10,Win32,60,60674ec340277cd6a308bc9f,227.4608696,234.1016949,221.3877551,226.3913044,204.2625,226.3913044,,,,,,,,,,,,,,,,,,,,PF,weak,0,,,,,,,,7,1.834,,,,,,,,,,,,,,,,,,,,,,,,,,,,1,weak,55,94,1,0,0,response1disk,5,112,10,7,1,0,0,rectangle,10,7,1,0,0,6,1,0.002,10,7,1,0,0,0,111,111,28,1,0,,,,,,,,,,,,,,,,,,,,,
,,,,,,,,,,,,,,,,,,,,,,,,,,,,,,,,,,,,,,,,,,5dde2885fef7c2d901c6d35a,60684b4e7d14374480f2153f,2021-04-03_12h03.36.541,Colour_Similarity_Experiment,2020.2.10,Win32,60,60674ec340277cd6a308bc9f,227.4608696,234.1016949,221.3877551,226.3913044,204.2625,226.3913044,,,,,,,,,,,,,,,,,,,,PF,weak,0,,,,,,,,0,1.621,,,,,,,,,,,,,,,,,,,,,,,,,,,,6,weak,-42,93,1,0,0,response7disk,4,113,11,11,1,0,0,rectangle,11,11,1,0,0,6,2,0.004,11,11,1,0,0,0,112,112,33,1,0,,,,,,,,,,,,,,,,,,,,,
,,,,,,,,,,,,,,,,,,,,,,,,,,,,,,,,,,,,,,,,,,5dde2885fef7c2d901c6d35a,60684b4e7d14374480f2153f,2021-04-03_12h03.36.541,Colour_Similarity_Experiment,2020.2.10,Win32,60,60674ec340277cd6a308bc9f,227.4608696,234.1016949,221.3877551,226.3913044,204.2625,226.3913044,,,,,,,,,,,,,,,,,,,,PF,weak,0,,,,,,,,0,1.541,,,,,,,,,,,,,,,,,,,,,,,,,,,,2,weak,-47,91,1,0,0,response7disk,4,114,17,-1,1,0,0,rectangle,17,-1,1,0,0,6,4,0.002,17,-1,1,0,0,0,113,113,127,1,0,,,,,,,,,,,,,,,,,,,,,
,,,,,,,,,,,,,,,,,,,,,,,,,,,,,,,,,,,,,,,,,,5dde2885fef7c2d901c6d35a,60684b4e7d14374480f2153f,2021-04-03_12h03.36.541,Colour_Similarity_Experiment,2020.2.10,Win32,60,60674ec340277cd6a308bc9f,227.4608696,234.1016949,221.3877551,226.3913044,204.2625,226.3913044,,,,,,,,,,,,,,,,,,,,PF,strong,0,,,,,,,,0,1.313,,,,,,,,,,,,,,,,,,,,,,,,,,,,8,strong,-48,101,1,0,0,response7disk,4,115,11,9,1,0,0,rectangle,11,9,1,0,0,6,1,0.002,11,9,1,0,0,0,114,114,88,1,0,,,,,,,,,,,,,,,,,,,,,
,,,,,,,,,,,,,,,,,,,,,,,,,,,,,,,,,,,,,,,,,,5dde2885fef7c2d901c6d35a,60684b4e7d14374480f2153f,2021-04-03_12h03.36.541,Colour_Similarity_Experiment,2020.2.10,Win32,60,60674ec340277cd6a308bc9f,227.4608696,234.1016949,221.3877551,226.3913044,204.2625,226.3913044,,,,,,,,,,,,,,,,,,,,PF,strong,0,,,,,,,,7,1.872,,,,,,,,,,,,,,,,,,,,,,,,,,,,5,strong,44,64,1,0,0,response1disk,2,116,15,13,1,0,0,rectangle,74,-113,1,0,0,4,4,2.208,7,11,1,0,0,0,115,115,55,1,1,response3disk_3,rectangle,,,,,,,,,,,,,,,,,,,
,,,,,,,,,,,,,,,,,,,,,,,,,,,,,,,,,,,,,,,,,,5dde2885fef7c2d901c6d35a,60684b4e7d14374480f2153f,2021-04-03_12h03.36.541,Colour_Similarity_Experiment,2020.2.10,Win32,60,60674ec340277cd6a308bc9f,227.4608696,234.1016949,221.3877551,226.3913044,204.2625,226.3913044,,,,,,,,,,,,,,,,,,,,PF,strong,0,,,,,,,,7,1.711,,,,,,,,,,,,,,,,,,,,,,,,,,,,6,strong,53,70,1,0,0,response1disk,1,117,21,10,1,0,0,rectangle,21,10,1,0,0,4,5,0.002,21,10,1,0,0,0,116,116,5,1,0,,,,,,,,,,,,,,,,,,,,,
,,,,,,,,,,,,,,,,,,,,,,,,,,,,,,,,,,,,,,,,,,5dde2885fef7c2d901c6d35a,60684b4e7d14374480f2153f,2021-04-03_12h03.36.541,Colour_Similarity_Experiment,2020.2.10,Win32,60,60674ec340277cd6a308bc9f,227.4608696,234.1016949,221.3877551,226.3913044,204.2625,226.3913044,,,,,,,,,,,,,,,,,,,,PF,strong,0,,,,,,,,7,1.525,,,,,,,,,,,,,,,,,,,,,,,,,,,,3,strong,45,71,1,0,0,response1disk,5,118,13,-8,1,0,0,rectangle,13,-8,1,0,0,4,1,0.004,13,-8,1,0,0,0,117,117,101,1,0,,,,,,,,,,,,,,,,,,,,,
,,,,,,,,,,,,,,,,,,,,,,,,,,,,,,,,,,,,,,,,,,5dde2885fef7c2d901c6d35a,60684b4e7d14374480f2153f,2021-04-03_12h03.36.541,Colour_Similarity_Experiment,2020.2.10,Win32,60,60674ec340277cd6a308bc9f,227.4608696,234.1016949,221.3877551,226.3913044,204.2625,226.3913044,,,,,,,,,,,,,,,,,,,,PF,strong,0,,,,,,,,0,1.529,,,,,,,,,,,,,,,,,,,,,,,,,,,,4,strong,-30,88,1,0,0,response7disk,5,119,-7,-4,1,0,0,rectangle,-7,-4,1,0,0,4,4,0.004,-7,-4,1,0,0,0,118,118,116,1,0,,,,,,,,,,,,,,,,,,,,,
,,,,,,,,,,,,,,,,,,,,,,,,,,,,,,,,,,,,,,,,,,5dde2885fef7c2d901c6d35a,60684b4e7d14374480f2153f,2021-04-03_12h03.36.541,Colour_Similarity_Experiment,2020.2.10,Win32,60,60674ec340277cd6a308bc9f,227.4608696,234.1016949,221.3877551,226.3913044,204.2625,226.3913044,,,,,,,,,,,,,,,,,,,,PF,strong,0,,,,,,,,7,1.578,,,,,,,,,,,,,,,,,,,,,,,,,,,,6,strong,55,81,1,0,0,response1disk,6,120,21,7,1,0,0,rectangle,21,7,1,0,0,4,5,0.002,21,7,1,0,0,0,119,119,91,1,0,,,,,,,,,,,,,,,,,,,,,
,,,,,,,,,,,,,,,,,,,,,,,,,,,,,,,,,,,,,,,,,,5dde2885fef7c2d901c6d35a,60684b4e7d14374480f2153f,2021-04-03_12h03.36.541,Colour_Similarity_Experiment,2020.2.10,Win32,60,60674ec340277cd6a308bc9f,227.4608696,234.1016949,221.3877551,226.3913044,204.2625,226.3913044,,,,,,,,,,,,,,,,,,,,PF,weak,0,,,,,,,,7,1.507,,,,,,,,,,,,,,,,,,,,,,,,,,,,3,weak,56,71,1,0,0,response1disk,3,121,17,8,1,0,0,rectangle,17,8,1,0,0,4,2,0.002,17,8,1,0,0,0,120,120,4,1,0,,,,,,,,,,,,,,,,,,,,,
,,,,,,,,,,,,,,,,,,,,,,,,,,,,,,,,,,,,,,,,,,5dde2885fef7c2d901c6d35a,60684b4e7d14374480f2153f,2021-04-03_12h03.36.541,Colour_Similarity_Experiment,2020.2.10,Win32,60,60674ec340277cd6a308bc9f,227.4608696,234.1016949,221.3877551,226.3913044,204.2625,226.3913044,,,,,,,,,,,,,,,,,,,,PF,strong,0,,,,,,,,7,1.523,,,,,,,,,,,,,,,,,,,,,,,,,,,,8,strong,47,82,1,0,0,response1disk,9,122,15,12,1,0,0,rectangle,15,12,1,0,0,4,7,0.002,15,12,1,0,0,0,121,121,105,1,0,,,,,,,,,,,,,,,,,,,,,
,,,,,,,,,,,,,,,,,,,,,,,,,,,,,,,,,,,,,,,,,,5dde2885fef7c2d901c6d35a,60684b4e7d14374480f2153f,2021-04-03_12h03.36.541,Colour_Similarity_Experiment,2020.2.10,Win32,60,60674ec340277cd6a308bc9f,227.4608696,234.1016949,221.3877551,226.3913044,204.2625,226.3913044,,,,,,,,,,,,,,,,,,,,PF,weak,0,,,,,,,,7,1.46,,,,,,,,,,,,,,,,,,,,,,,,,,,,3,weak,56,86,1,0,0,response1disk,6,123,27,2,1,0,0,rectangle,27,2,1,0,0,4,3,0.001,27,2,1,0,0,0,122,122,47,1,0,,,,,,,,,,,,,,,,,,,,,
,,,,,,,,,,,,,,,,,,,,,,,,,,,,,,,,,,,,,,,,,,5dde2885fef7c2d901c6d35a,60684b4e7d14374480f2153f,2021-04-03_12h03.36.541,Colour_Similarity_Experiment,2020.2.10,Win32,60,60674ec340277cd6a308bc9f,227.4608696,234.1016949,221.3877551,226.3913044,204.2625,226.3913044,,,,,,,,,,,,,,,,,,,,PF,weak,0,,,,,,,,7,1.284,,,,,,,,,,,,,,,,,,,,,,,,,,,,8,weak,45,68,1,0,0,response1disk,1,124,1,7,1,0,0,rectangle,1,7,1,0,0,4,1,0.002,1,7,1,0,0,0,123,123,57,1,0,,,,,,,,,,,,,,,,,,,,,
,,,,,,,,,,,,,,,,,,,,,,,,,,,,,,,,,,,,,,,,,,5dde2885fef7c2d901c6d35a,60684b4e7d14374480f2153f,2021-04-03_12h03.36.541,Colour_Similarity_Experiment,2020.2.10,Win32,60,60674ec340277cd6a308bc9f,227.4608696,234.1016949,221.3877551,226.3913044,204.2625,226.3913044,,,,,,,,,,,,,,,,,,,,PF,weak,0,,,,,,,,7,1.847,,,,,,,,,,,,,,,,,,,,,,,,,,,,9,weak,68,116,1,0,0,response1disk,3,125,-5,-5,1,0,0,rectangle,-5,-5,1,0,0,4,5,0.002,-5,-5,1,0,0,0,124,124,119,1,0,,,,,,,,,,,,,,,,,,,,,
,,,,,,,,,,,,,,,,,,,,,,,,,,,,,,,,,,,,,,,,,,5dde2885fef7c2d901c6d35a,60684b4e7d14374480f2153f,2021-04-03_12h03.36.541,Colour_Similarity_Experiment,2020.2.10,Win32,60,60674ec340277cd6a308bc9f,227.4608696,234.1016949,221.3877551,226.3913044,204.2625,226.3913044,,,,,,,,,,,,,,,,,,,,PF,weak,0,,,,,,,,7,1.304,,,,,,,,,,,,,,,,,,,,,,,,,,,,2,weak,44,83,1,0,0,response1disk,7,126,3,11,1,0,0,rectangle,3,11,1,0,0,4,0,0.003,3,11,1,0,0,0,125,125,107,1,0,,,,,,,,,,,,,,,,,,,,,
,,,,,,,,,,,,,,,,,,,,,,,,,,,,,,,,,,,,,,,,,,5dde2885fef7c2d901c6d35a,60684b4e7d14374480f2153f,2021-04-03_12h03.36.541,Colour_Similarity_Experiment,2020.2.10,Win32,60,60674ec340277cd6a308bc9f,227.4608696,234.1016949,221.3877551,226.3913044,204.2625,226.3913044,,,,,,,,,,,,,,,,,,,,PF,strong,0,,,,,,,,0,1.636,,,,,,,,,,,,,,,,,,,,,,,,,,,,3,strong,-39,85,1,0,0,response7disk,6,127,13,12,1,0,0,rectangle,13,12,1,0,0,4,1,0.001,13,12,1,0,0,0,126,126,95,1,0,,,,,,,,,,,,,,,,,,,,,
,,,,,,,,,,,,,,,,,,,,,,,,,,,,,,,,,,,,,,,,,,5dde2885fef7c2d901c6d35a,60684b4e7d14374480f2153f,2021-04-03_12h03.36.541,Colour_Similarity_Experiment,2020.2.10,Win32,60,60674ec340277cd6a308bc9f,227.4608696,234.1016949,221.3877551,226.3913044,204.2625,226.3913044,,,,,,,,,,,,,,,,,,,,PF,strong,0,,,,,,,,3,2.077,,,,,,,,,,,,,,,,,,,,,,,,,,,,8,strong,-32,-61,1,0,0,response5disk,8,128,3,-3,1,0,0,rectangle,3,-3,1,0,0,4,2,0.003,3,-3,1,0,0,0,127,127,48,1,0,,,,,,,,,,,,,,,,,,,,,
,,,,,,,,,,,,,,,,,,,,,,,,,,,,,,,,,,,,,,,,,,5dde2885fef7c2d901c6d35a,60684b4e7d14374480f2153f,2021-04-03_12h03.36.541,Colour_Similarity_Experiment,2020.2.10,Win32,60,60674ec340277cd6a308bc9f,227.4608696,234.1016949,221.3877551,226.3913044,204.2625,226.3913044,,,,,,,,,,,,,,,,,,,,PF,weak,0,,,,,,,,7,2.377,,,,,,,,,,,,,,,,,,,,,,,,,,,,2,weak,51,89,1,0,0,response1disk,1,129,22,3,1,0,0,rectangle,22,3,1,0,0,4,0,0.002,22,3,1,0,0,0,128,128,9,1,0,,,,,,,,,,,,,,,,,,,,,
,,,,,,,,,,,,,,,,,,,,,,,,,,,,,,,,,,,,,,,,,,5dde2885fef7c2d901c6d35a,60684b4e7d14374480f2153f,2021-04-03_12h03.36.541,Colour_Similarity_Experiment,2020.2.10,Win32,60,60674ec340277cd6a308bc9f,227.4608696,234.1016949,221.3877551,226.3913044,204.2625,226.3913044,,,,,,,,,,,,,,,,,,,,PF,strong,0,,,,,,,,7,3.538,,,,,,,,,,,,,,,,,,,,,,,,,,,,5,strong,57,91,1,0,0,response1disk,3,130,11,11,1,0,0,rectangle,11,11,1,0,0,4,5,0.002,11,11,1,0,0,0,129,129,25,1,0,,,,,,,,,,,,,,,,,,,,,
,,,,,,,,,,,,,,,,,,,,,,,,,,,,,,,,,,,,,,,,,,5dde2885fef7c2d901c6d35a,60684b4e7d14374480f2153f,2021-04-03_12h03.36.541,Colour_Similarity_Experiment,2020.2.10,Win32,60,60674ec340277cd6a308bc9f,227.4608696,234.1016949,221.3877551,226.3913044,204.2625,226.3913044,,,,,,,,,,,,,,,,,,,,PF,weak,0,,,,,,,,1,3.393,,,,,,,,,,,,,,,,,,,,,,,,,,,,1,weak,-122,49,1,0,0,response7disk,8,131,-10,2,1,0,0,rectangle,-10,2,1,0,0,4,2,0.002,-10,2,1,0,0,0,130,130,65,1,0,,,,,,,,,,,,,,,,,,,,,
,,,,,,,,,,,,,,,,,,,,,,,,,,,,,,,,,,,,,,,,,,5dde2885fef7c2d901c6d35a,60684b4e7d14374480f2153f,2021-04-03_12h03.36.541,Colour_Similarity_Experiment,2020.2.10,Win32,60,60674ec340277cd6a308bc9f,227.4608696,234.1016949,221.3877551,226.3913044,204.2625,226.3913044,,,,,,,,,,,,,,,,,,,,PF,strong,0,,,,,,,,7,1.719,,,,,,,,,,,,,,,,,,,,,,,,,,,,1,strong,43,83,1,0,0,response1disk,5,132,19,6,1,0,0,rectangle,19,6,1,0,0,4,0,0.004,19,6,1,0,0,0,131,131,82,1,0,,,,,,,,,,,,,,,,,,,,,
,,,,,,,,,,,,,,,,,,,,,,,,,,,,,,,,,,,,,,,,,,5dde2885fef7c2d901c6d35a,60684b4e7d14374480f2153f,2021-04-03_12h03.36.541,Colour_Similarity_Experiment,2020.2.10,Win32,60,60674ec340277cd6a308bc9f,227.4608696,234.1016949,221.3877551,226.3913044,204.2625,226.3913044,,,,,,,,,,,,,,,,,,,,PF,weak,0,,,,,,,,7,1.452,,,,,,,,,,,,,,,,,,,,,,,,,,,,4,weak,28,69,1,0,0,response1disk,2,133,12,0,1,0,0,rectangle,12,0,1,0,0,4,2,0.002,12,0,1,0,0,0,132,132,108,1,0,,,,,,,,,,,,,,,,,,,,,
,,,,,,,,,,,,,,,,,,,,,,,,,,,,,,,,,,,,,,,,,,5dde2885fef7c2d901c6d35a,60684b4e7d14374480f2153f,2021-04-03_12h03.36.541,Colour_Similarity_Experiment,2020.2.10,Win32,60,60674ec340277cd6a308bc9f,227.4608696,234.1016949,221.3877551,226.3913044,204.2625,226.3913044,,,,,,,,,,,,,,,,,,,,PF,weak,0,,,,,,,,7,2.063,,,,,,,,,,,,,,,,,,,,,,,,,,,,7,weak,69,96,1,0,0,response1disk,9,134,15,-6,1,0,0,rectangle,15,-6,1,0,0,4,3,0.001,15,-6,1,0,0,0,133,133,10,1,0,,,,,,,,,,,,,,,,,,,,,
,,,,,,,,,,,,,,,,,,,,,,,,,,,,,,,,,,,,,,,,,,5dde2885fef7c2d901c6d35a,60684b4e7d14374480f2153f,2021-04-03_12h03.36.541,Colour_Similarity_Experiment,2020.2.10,Win32,60,60674ec340277cd6a308bc9f,227.4608696,234.1016949,221.3877551,226.3913044,204.2625,226.3913044,,,,,,,,,,,,,,,,,,,,PF,strong,0,,,,,,,,0,1.619,,,,,,,,,,,,,,,,,,,,,,,,,,,,4,strong,-44,75,1,0,0,response7disk,9,135,-21,13,1,0,0,rectangle,-21,13,1,0,0,4,1,0.001,-21,13,1,0,0,0,134,134,90,1,0,,,,,,,,,,,,,,,,,,,,,
,,,,,,,,,,,,,,,,,,,,,,,,,,,,,,,,,,,,,,,,,,5dde2885fef7c2d901c6d35a,60684b4e7d14374480f2153f,2021-04-03_12h03.36.541,Colour_Similarity_Experiment,2020.2.10,Win32,60,60674ec340277cd6a308bc9f,227.4608696,234.1016949,221.3877551,226.3913044,204.2625,226.3913044,,,,,,,,,,,,,,,,,,,,PF,strong,0,,,,,,,,0,1.77,,,,,,,,,,,,,,,,,,,,,,,,,,,,2,strong,-41,64,1,0,0,response7disk,9,136,-3,13,1,0,0,rectangle,-3,13,1,0,0,4,4,0.002,-3,13,1,0,0,0,135,135,72,1,0,,,,,,,,,,,,,,,,,,,,,
,,,,,,,,,,,,,,,,,,,,,,,,,,,,,,,,,,,,,,,,,,5dde2885fef7c2d901c6d35a,60684b4e7d14374480f2153f,2021-04-03_12h03.36.541,Colour_Similarity_Experiment,2020.2.10,Win32,60,60674ec340277cd6a308bc9f,227.4608696,234.1016949,221.3877551,226.3913044,204.2625,226.3913044,,,,,,,,,,,,,,,,,,,,PF,weak,0,,,,,,,,7,1.897,,,,,,,,,,,,,,,,,,,,,,,,,,,,5,weak,34,83,1,0,0,response1disk,3,137,28,4,1,0,0,rectangle,28,4,1,0,0,4,3,0.002,28,4,1,0,0,0,136,136,109,1,0,,,,,,,,,,,,,,,,,,,,,
,,,,,,,,,,,,,,,,,,,,,,,,,,,,,,,,,,,,,,,,,,5dde2885fef7c2d901c6d35a,60684b4e7d14374480f2153f,2021-04-03_12h03.36.541,Colour_Similarity_Experiment,2020.2.10,Win32,60,60674ec340277cd6a308bc9f,227.4608696,234.1016949,221.3877551,226.3913044,204.2625,226.3913044,,,,,,,,,,,,,,,,,,,,PF,weak,0,,,,,,,,7,3.772,,,,,,,,,,,,,,,,,,,,,,,,,,,,1,weak,37,80,1,0,0,response1disk,3,138,30,4,1,0,0,rectangle,30,4,1,0,0,4,5,0.002,30,4,1,0,0,0,137,137,1,1,0,,,,,,,,,,,,,,,,,,,,,
,,,,,,,,,,,,,,,,,,,,,,,,,,,,,,,,,,,,,,,,,,5dde2885fef7c2d901c6d35a,60684b4e7d14374480f2153f,2021-04-03_12h03.36.541,Colour_Similarity_Experiment,2020.2.10,Win32,60,60674ec340277cd6a308bc9f,227.4608696,234.1016949,221.3877551,226.3913044,204.2625,226.3913044,,,,,,,,,,,,,,,,,,,,PF,strong,0,,,,,,,,1,2.525,,,,,,,,,,,,,,,,,,,,,,,,,,,,5,strong,-94,47,1,0,0,response7disk,5,139,-4,8,1,0,0,rectangle,-4,8,1,0,0,4,1,0.002,-4,8,1,0,0,0,138,138,19,1,0,,,,,,,,,,,,,,,,,,,,,
,,,,,,,,,,,,,,,,,,,,,,,,,,,,,,,,,,,,,,,,,,5dde2885fef7c2d901c6d35a,60684b4e7d14374480f2153f,2021-04-03_12h03.36.541,Colour_Similarity_Experiment,2020.2.10,Win32,60,60674ec340277cd6a308bc9f,227.4608696,234.1016949,221.3877551,226.3913044,204.2625,226.3913044,,,,,,,,,,,,,,,,,,,,PF,weak,0,,,,,,,,7,1.723,,,,,,,,,,,,,,,,,,,,,,,,,,,,5,weak,33,72,1,0,0,response1disk,2,140,14,4,1,0,0,rectangle,14,4,1,0,0,4,1,0.002,14,4,1,0,0,0,139,139,129,1,0,,,,,,,,,,,,,,,,,,,,,
,,,,,,,,,,,,,,,,,,,,,,,,,,,,,,,,,,,,,,,,,,5dde2885fef7c2d901c6d35a,60684b4e7d14374480f2153f,2021-04-03_12h03.36.541,Colour_Similarity_Experiment,2020.2.10,Win32,60,60674ec340277cd6a308bc9f,227.4608696,234.1016949,221.3877551,226.3913044,204.2625,226.3913044,,,,,,,,,,,,,,,,,,,,PF,weak,0,,,,,,,,7,1.86,,,,,,,,,,,,,,,,,,,,,,,,,,,,2,weak,51,102,1,0,0,response1disk,9,141,11,3,1,0,0,rectangle,11,3,1,0,0,4,1,0.001,11,3,1,0,0,0,140,140,39,1,0,,,,,,,,,,,,,,,,,,,,,
,,,,,,,,,,,,,,,,,,,,,,,,,,,,,,,,,,,,,,,,,,5dde2885fef7c2d901c6d35a,60684b4e7d14374480f2153f,2021-04-03_12h03.36.541,Colour_Similarity_Experiment,2020.2.10,Win32,60,60674ec340277cd6a308bc9f,227.4608696,234.1016949,221.3877551,226.3913044,204.2625,226.3913044,,,,,,,,,,,,,,,,,,,,PF,weak,0,,,,,,,,7,3.65,,,,,,,,,,,,,,,,,,,,,,,,,,,,8,weak,65,89,1,0,0,response1disk,8,142,15,12,1,0,0,rectangle,15,12,1,0,0,4,0,0.001,15,12,1,0,0,0,141,141,153,1,0,,,,,,,,,,,,,,,,,,,,,
,,,,,,,,,,,,,,,,,,,,,,,,,,,,,,,,,,,,,,,,,,5dde2885fef7c2d901c6d35a,60684b4e7d14374480f2153f,2021-04-03_12h03.36.541,Colour_Similarity_Experiment,2020.2.10,Win32,60,60674ec340277cd6a308bc9f,227.4608696,234.1016949,221.3877551,226.3913044,204.2625,226.3913044,,,,,,,,,,,,,,,,,,,,PF,weak,0,,,,,,,,7,2.682,,,,,,,,,,,,,,,,,,,,,,,,,,,,9,weak,47,87,1,0,0,response1disk,6,143,-7,6,1,0,0,rectangle,-7,6,1,0,0,4,3,0.004,-7,6,1,0,0,0,142,142,148,1,0,,,,,,,,,,,,,,,,,,,,,
,,,,,,,,,,,,,,,,,,,,,,,,,,,,,,,,,,,,,,,,,,5dde2885fef7c2d901c6d35a,60684b4e7d14374480f2153f,2021-04-03_12h03.36.541,Colour_Similarity_Experiment,2020.2.10,Win32,60,60674ec340277cd6a308bc9f,227.4608696,234.1016949,221.3877551,226.3913044,204.2625,226.3913044,,,,,,,,,,,,,,,,,,,,PF,weak,0,,,,,,,,7,1.754,,,,,,,,,,,,,,,,,,,,,,,,,,,,6,weak,30,96,1,0,0,response1disk,5,144,-3,7,1,0,0,rectangle,-3,7,1,0,0,4,7,0.002,-3,7,1,0,0,0,143,143,59,1,0,,,,,,,,,,,,,,,,,,,,,
,,,,,,,,,,,,,,,,,,,,,,,,,,,,,,,,,,,,,,,,,,5dde2885fef7c2d901c6d35a,60684b4e7d14374480f2153f,2021-04-03_12h03.36.541,Colour_Similarity_Experiment,2020.2.10,Win32,60,60674ec340277cd6a308bc9f,227.4608696,234.1016949,221.3877551,226.3913044,204.2625,226.3913044,,,,,,,,,,,,,,,,,,,,PF,strong,0,,,,,,,,7,1.436,,,,,,,,,,,,,,,,,,,,,,,,,,,,2,strong,34,89,1,0,0,response1disk,7,145,1,10,1,0,0,rectangle,1,10,1,0,0,4,6,0.002,1,10,1,0,0,0,144,144,63,1,0,,,,,,,,,,,,,,,,,,,,,
,,,,,,,,,,,,,,,,,,,,,,,,,,,,,,,,,,,,,,,,,,5dde2885fef7c2d901c6d35a,60684b4e7d14374480f2153f,2021-04-03_12h03.36.541,Colour_Similarity_Experiment,2020.2.10,Win32,60,60674ec340277cd6a308bc9f,227.4608696,234.1016949,221.3877551,226.3913044,204.2625,226.3913044,,,,,,,,,,,,,,,,,,,,PF,strong,0,,,,,,,,7,1.453,,,,,,,,,,,,,,,,,,,,,,,,,,,,5,strong,45,77,1,0,0,response1disk,1,146,19,20,1,0,0,rectangle,19,20,1,0,0,4,0,0.001,19,20,1,0,0,0,145,145,131,1,0,,,,,,,,,,,,,,,,,,,,,
,,,,,,,,,,,,,,,,,,,,,,,,,,,,,,,,,,,,,,,,,,5dde2885fef7c2d901c6d35a,60684b4e7d14374480f2153f,2021-04-03_12h03.36.541,Colour_Similarity_Experiment,2020.2.10,Win32,60,60674ec340277cd6a308bc9f,227.4608696,234.1016949,221.3877551,226.3913044,204.2625,226.3913044,,,,,,,,,,,,,,,,,,,,PF,strong,0,,,,,,,,7,2.773,,,,,,,,,,,,,,,,,,,,,,,,,,,,8,strong,38,85,1,0,0,response1disk,3,147,6,15,1,0,0,rectangle,6,15,1,0,0,4,5,0.002,6,15,1,0,0,0,146,146,154,1,0,,,,,,,,,,,,,,,,,,,,,
,,,,,,,,,,,,,,,,,,,,,,,,,,,,,,,,,,,,,,,,,,5dde2885fef7c2d901c6d35a,60684b4e7d14374480f2153f,2021-04-03_12h03.36.541,Colour_Similarity_Experiment,2020.2.10,Win32,60,60674ec340277cd6a308bc9f,227.4608696,234.1016949,221.3877551,226.3913044,204.2625,226.3913044,,,,,,,,,,,,,,,,,,,,PF,weak,0,,,,,,,,7,1.484,,,,,,,,,,,,,,,,,,,,,,,,,,,,2,weak,34,119,1,0,0,response1disk,6,148,6,14,1,0,0,rectangle,6,14,1,0,0,4,4,0.002,6,14,1,0,0,0,147,147,113,1,0,,,,,,,,,,,,,,,,,,,,,
,,,,,,,,,,,,,,,,,,,,,,,,,,,,,,,,,,,,,,,,,,5dde2885fef7c2d901c6d35a,60684b4e7d14374480f2153f,2021-04-03_12h03.36.541,Colour_Similarity_Experiment,2020.2.10,Win32,60,60674ec340277cd6a308bc9f,227.4608696,234.1016949,221.3877551,226.3913044,204.2625,226.3913044,,,,,,,,,,,,,,,,,,,,PF,strong,0,,,,,,,,0,1.805,,,,,,,,,,,,,,,,,,,,,,,,,,,,8,strong,-47,93,1,0,0,response7disk,7,149,-5,14,1,0,0,rectangle,-5,14,1,0,0,4,5,0.003,-5,14,1,0,0,0,148,148,86,1,0,,,,,,,,,,,,,,,,,,,,,
,,,,,,,,,,,,,,,,,,,,,,,,,,,,,,,,,,,,,,,,,,5dde2885fef7c2d901c6d35a,60684b4e7d14374480f2153f,2021-04-03_12h03.36.541,Colour_Similarity_Experiment,2020.2.10,Win32,60,60674ec340277cd6a308bc9f,227.4608696,234.1016949,221.3877551,226.3913044,204.2625,226.3913044,,,,,,,,,,,,,,,,,,,,PF,weak,0,,,,,,,,7,2.015,,,,,,,,,,,,,,,,,,,,,,,,,,,,9,weak,59,93,1,0,0,response1disk,5,150,2,10,1,0,0,rectangle,2,10,1,0,0,4,1,0.001,2,10,1,0,0,0,149,149,134,1,0,,,,,,,,,,,,,,,,,,,,,
,,,,,,,,,,,,,,,,,,,,,,,,,,,,,,,,,,,,,,,,,,5dde2885fef7c2d901c6d35a,60684b4e7d14374480f2153f,2021-04-03_12h03.36.541,Colour_Similarity_Experiment,2020.2.10,Win32,60,60674ec340277cd6a308bc9f,227.4608696,234.1016949,221.3877551,226.3913044,204.2625,226.3913044,,,,,,,,,,,,,,,,,,,,PF,weak,0,,,,,,,,7,2.716,,,,,,,,,,,,,,,,,,,,,,,,,,,,3,weak,56,99,1,0,0,response1disk,9,151,22,14,1,0,0,rectangle,22,14,1,0,0,4,2,0.001,22,14,1,0,0,0,150,150,79,1,0,,,,,,,,,,,,,,,,,,,,,
,,,,,,,,,,,,,,,,,,,,,,,,,,,,,,,,,,,,,,,,,,5dde2885fef7c2d901c6d35a,60684b4e7d14374480f2153f,2021-04-03_12h03.36.541,Colour_Similarity_Experiment,2020.2.10,Win32,60,60674ec340277cd6a308bc9f,227.4608696,234.1016949,221.3877551,226.3913044,204.2625,226.3913044,,,,,,,,,,,,,,,,,,,,PF,strong,0,,,,,,,,0,2.006,,,,,,,,,,,,,,,,,,,,,,,,,,,,5,strong,-36,84,1,0,0,response7disk,8,152,-10,5,1,0,0,rectangle,-10,5,1,0,0,4,0,0.002,-10,5,1,0,0,0,151,151,16,1,0,,,,,,,,,,,,,,,,,,,,,
,,,,,,,,,,,,,,,,,,,,,,,,,,,,,,,,,,,,,,,,,,5dde2885fef7c2d901c6d35a,60684b4e7d14374480f2153f,2021-04-03_12h03.36.541,Colour_Similarity_Experiment,2020.2.10,Win32,60,60674ec340277cd6a308bc9f,227.4608696,234.1016949,221.3877551,226.3913044,204.2625,226.3913044,,,,,,,,,,,,,,,,,,,,PF,strong,0,,,,,,,,0,2.673,,,,,,,,,,,,,,,,,,,,,,,,,,,,4,strong,-38,88,1,0,0,response7disk,8,153,5,4,1,0,0,rectangle,5,4,1,0,0,4,3,0.007,5,4,1,0,0,0,152,152,35,1,0,,,,,,,,,,,,,,,,,,,,,
,,,,,,,,,,,,,,,,,,,,,,,,,,,,,,,,,,,,,,,,,,5dde2885fef7c2d901c6d35a,60684b4e7d14374480f2153f,2021-04-03_12h03.36.541,Colour_Similarity_Experiment,2020.2.10,Win32,60,60674ec340277cd6a308bc9f,227.4608696,234.1016949,221.3877551,226.3913044,204.2625,226.3913044,,,,,,,,,,,,,,,,,,,,PF,weak,0,,,,,,,,7,1.911,,,,,,,,,,,,,,,,,,,,,,,,,,,,1,weak,56,78,1,0,0,response1disk,4,154,13,1,1,0,0,rectangle,13,1,1,0,0,4,3,0.001,13,1,1,0,0,0,153,153,139,1,0,,,,,,,,,,,,,,,,,,,,,
,,,,,,,,,,,,,,,,,,,,,,,,,,,,,,,,,,,,,,,,,,5dde2885fef7c2d901c6d35a,60684b4e7d14374480f2153f,2021-04-03_12h03.36.541,Colour_Similarity_Experiment,2020.2.10,Win32,60,60674ec340277cd6a308bc9f,227.4608696,234.1016949,221.3877551,226.3913044,204.2625,226.3913044,,,,,,,,,,,,,,,,,,,,PF,weak,0,,,,,,,,7,1.849,,,,,,,,,,,,,,,,,,,,,,,,,,,,3,weak,92,119,1,0,0,response1disk,2,155,-8,1,1,0,0,rectangle,76,-96,1,0,0,4,4,2.185,5,15,1,0,0,0,154,154,36,1,1,response3disk_3,rectangle,,,,,,,,,,,,,,,,,,,
,,,,,,,,,,,,,,,,,,,,,,,,,,,,,,,,,,,,,,,,,,5dde2885fef7c2d901c6d35a,60684b4e7d14374480f2153f,2021-04-03_12h03.36.541,Colour_Similarity_Experiment,2020.2.10,Win32,60,60674ec340277cd6a308bc9f,227.4608696,234.1016949,221.3877551,226.3913044,204.2625,226.3913044,,,,,,,,,,,,,,,,,,,,PF,weak,0,,,,,,,,7,1.845,,,,,,,,,,,,,,,,,,,,,,,,,,,,1,weak,71,98,1,0,0,response1disk,9,156,30,13,1,0,0,rectangle,30,13,1,0,0,4,1,0.002,30,13,1,0,0,0,155,155,15,1,0,,,,,,,,,,,,,,,,,,,,,
,,,,,,,,,,,,,,,,,,,,,,,,,,,,,,,,,,,,,,,,,,5dde2885fef7c2d901c6d35a,60684b4e7d14374480f2153f,2021-04-03_12h03.36.541,Colour_Similarity_Experiment,2020.2.10,Win32,60,60674ec340277cd6a308bc9f,227.4608696,234.1016949,221.3877551,226.3913044,204.2625,226.3913044,,,,,,,,,,,,,,,,,,,,PF,strong,0,,,,,,,,7,1.921,,,,,,,,,,,,,,,,,,,,,,,,,,,,4,strong,40,107,1,0,0,response1disk,4,157,13,11,1,0,0,rectangle,13,11,1,0,0,4,5,0.003,13,11,1,0,0,0,156,156,84,1,0,,,,,,,,,,,,,,,,,,,,,
,,,,,,,,,,,,,,,,,,,,,,,,,,,,,,,,,,,,,,,,,,5dde2885fef7c2d901c6d35a,60684b4e7d14374480f2153f,2021-04-03_12h03.36.541,Colour_Similarity_Experiment,2020.2.10,Win32,60,60674ec340277cd6a308bc9f,227.4608696,234.1016949,221.3877551,226.3913044,204.2625,226.3913044,,,,,,,,,,,,,,,,,,,,PF,strong,0,,,,,,,,7,1.871,,,,,,,,,,,,,,,,,,,,,,,,,,,,1,strong,59,89,1,0,0,response1disk,2,158,23,13,1,0,0,rectangle,23,13,1,0,0,4,7,0.002,23,13,1,0,0,0,157,157,2,1,0,,,,,,,,,,,,,,,,,,,,,
,,,,,,,,,,,,,,,,,,,,,,,,,,,,,,,,,,,,,,,,,,5dde2885fef7c2d901c6d35a,60684b4e7d14374480f2153f,2021-04-03_12h03.36.541,Colour_Similarity_Experiment,2020.2.10,Win32,60,60674ec340277cd6a308bc9f,227.4608696,234.1016949,221.3877551,226.3913044,204.2625,226.3913044,,,,,,,,,,,,,,,,,,,,PF,strong,0,,,,,,,,0,1.602,,,,,,,,,,,,,,,,,,,,,,,,,,,,6,strong,-41,87,1,0,0,response7disk,8,159,-10,2,1,0,0,rectangle,-10,2,1,0,0,4,0,0.003,-10,2,1,0,0,0,158,158,133,1,0,,,,,,,,,,,,,,,,,,,,,
,,,,,,,,,,,,,,,,,,,,,,,,,,,,,,,,,,,,,,,,,,5dde2885fef7c2d901c6d35a,60684b4e7d14374480f2153f,2021-04-03_12h03.36.541,Colour_Similarity_Experiment,2020.2.10,Win32,60,60674ec340277cd6a308bc9f,227.4608696,234.1016949,221.3877551,226.3913044,204.2625,226.3913044,,,,,,,,,,,,,,,,,,,,PF,strong,0,,,,,,,,7,1.645,,,,,,,,,,,,,,,,,,,,,,,,,,,,8,strong,43,69,1,0,0,response1disk,5,160,9,18,1,0,0,rectangle,9,18,1,0,0,4,4,0.002,9,18,1,0,0,0,159,159,152,1,0,,,,,,,,,,,,,,,,,,,,,
,,,,,,,,,,,,,,,,,,,,,,,,,,,,,,,,,,,,,,,,,,5dde2885fef7c2d901c6d35a,60684b4e7d14374480f2153f,2021-04-03_12h03.36.541,Colour_Similarity_Experiment,2020.2.10,Win32,60,60674ec340277cd6a308bc9f,227.4608696,234.1016949,221.3877551,226.3913044,204.2625,226.3913044,,,,,,,,,,,,,,,,,,,,PF,strong,0,,,,,,,,7,4.572,,,,,,,,,,,,,,,,,,,,,,,,,,,,2,strong,38,99,1,0,0,response1disk,4,161,5,7,1,0,0,rectangle,5,7,1,0,0,4,1,0.001,5,7,1,0,0,0,160,160,145,1,0,,,,,,,,,,,,,,,,,,,,,
,,,,,,,,,,,,,,,,,,,,,,,,,,,,,,,,,,,,,,,,,,5dde2885fef7c2d901c6d35a,60684b4e7d14374480f2153f,2021-04-03_12h03.36.541,Colour_Similarity_Experiment,2020.2.10,Win32,60,60674ec340277cd6a308bc9f,227.4608696,234.1016949,221.3877551,226.3913044,204.2625,226.3913044,,,,,,,,,,,,,,,,,,,,PF,weak,0,,,,,,,,7,1.858,,,,,,,,,,,,,,,,,,,,,,,,,,,,7,weak,32,99,1,0,0,response1disk,1,162,-16,18,1,0,0,rectangle,-16,18,1,0,0,4,4,0.002,-16,18,1,0,0,0,161,161,53,1,0,,,,,,,,,,,,,,,,,,,,,
,,,,,,,,,,,,,,,,,,,,,,,,,,,,,,,,,,,,,,,,,,5dde2885fef7c2d901c6d35a,60684b4e7d14374480f2153f,2021-04-03_12h03.36.541,Colour_Similarity_Experiment,2020.2.10,Win32,60,60674ec340277cd6a308bc9f,227.4608696,234.1016949,221.3877551,226.3913044,204.2625,226.3913044,,,,,,,,,,,,,,,,,,,,,,,,,,,,,,,,,,,,,,,,,,,,,,,,,,,,,,,,,,,,,,,,,,,,,,,,,,,,,,,,,,,,,,,,,,,,,,,,0,0,0,0,1,,,,,,,,,,,,,,
,,,,,,,,,,,,,,,,,,,,,,,,,,,,,,,,,,,,,,,,,,5dde2885fef7c2d901c6d35a,60684b4e7d14374480f2153f,2021-04-03_12h03.36.541,Colour_Similarity_Experiment,2020.2.10,Win32,60,60674ec340277cd6a308bc9f,227.4608696,234.1016949,221.3877551,226.3913044,204.2625,226.3913044,,,,,,,,,,,,,,,,,,,,PF,strong,0,,,,,,,,7,1.522,,,,,,,,,,,,,,,,,,,,,,,,,,,,4,strong,33,99,1,0,0,response1disk,2,163,0,12,1,0,0,rectangle,0,12,1,0,0,4,1,0.002,0,12,1,0,0,0,0,0,13,1,0,,,,,,,,,,,,,,,,,,,,,
,,,,,,,,,,,,,,,,,,,,,,,,,,,,,,,,,,,,,,,,,,5dde2885fef7c2d901c6d35a,60684b4e7d14374480f2153f,2021-04-03_12h03.36.541,Colour_Similarity_Experiment,2020.2.10,Win32,60,60674ec340277cd6a308bc9f,227.4608696,234.1016949,221.3877551,226.3913044,204.2625,226.3913044,,,,,,,,,,,,,,,,,,,,PF,weak,0,,,,,,,,7,4.091,,,,,,,,,,,,,,,,,,,,,,,,,,,,8,weak,31,97,1,0,0,response1disk,4,164,-12,15,1,0,0,rectangle,-12,15,1,0,0,4,1,0,-12,15,1,0,0,0,1,1,78,1,0,,,,,,,,,,,,,,,,,,,,,
,,,,,,,,,,,,,,,,,,,,,,,,,,,,,,,,,,,,,,,,,,5dde2885fef7c2d901c6d35a,60684b4e7d14374480f2153f,2021-04-03_12h03.36.541,Colour_Similarity_Experiment,2020.2.10,Win32,60,60674ec340277cd6a308bc9f,227.4608696,234.1016949,221.3877551,226.3913044,204.2625,226.3913044,,,,,,,,,,,,,,,,,,,,PF,weak,0,,,,,,,,7,1.578,,,,,,,,,,,,,,,,,,,,,,,,,,,,8,weak,67,123,1,0,0,response1disk,6,165,21,20,1,0,0,rectangle,-56,89,1,0,0,0,0,2.003,-5,10,1,0,0,0,2,2,161,1,1,response7disk_3,rectangle,,,,,,,,,,,,,,,,,,,
,,,,,,,,,,,,,,,,,,,,,,,,,,,,,,,,,,,,,,,,,,5dde2885fef7c2d901c6d35a,60684b4e7d14374480f2153f,2021-04-03_12h03.36.541,Colour_Similarity_Experiment,2020.2.10,Win32,60,60674ec340277cd6a308bc9f,227.4608696,234.1016949,221.3877551,226.3913044,204.2625,226.3913044,,,,,,,,,,,,,,,,,,,,PF,strong,0,,,,,,,,7,1.709,,,,,,,,,,,,,,,,,,,,,,,,,,,,7,strong,33,86,1,0,0,response1disk,1,166,16,11,1,0,0,rectangle,16,11,1,0,0,0,5,0.002,16,11,1,0,0,0,3,3,132,1,0,,,,,,,,,,,,,,,,,,,,,
,,,,,,,,,,,,,,,,,,,,,,,,,,,,,,,,,,,,,,,,,,5dde2885fef7c2d901c6d35a,60684b4e7d14374480f2153f,2021-04-03_12h03.36.541,Colour_Similarity_Experiment,2020.2.10,Win32,60,60674ec340277cd6a308bc9f,227.4608696,234.1016949,221.3877551,226.3913044,204.2625,226.3913044,,,,,,,,,,,,,,,,,,,,PF,strong,0,,,,,,,,4,3.242,,,,,,,,,,,,,,,,,,,,,,,,,,,,1,strong,54,-65,1,0,0,response3disk,9,167,-5,6,1,0,0,rectangle,-5,6,1,0,0,0,5,0.001,-5,6,1,0,0,0,4,4,123,1,0,,,,,,,,,,,,,,,,,,,,,
,,,,,,,,,,,,,,,,,,,,,,,,,,,,,,,,,,,,,,,,,,5dde2885fef7c2d901c6d35a,60684b4e7d14374480f2153f,2021-04-03_12h03.36.541,Colour_Similarity_Experiment,2020.2.10,Win32,60,60674ec340277cd6a308bc9f,227.4608696,234.1016949,221.3877551,226.3913044,204.2625,226.3913044,,,,,,,,,,,,,,,,,,,,PF,weak,0,,,,,,,,0,1.983,,,,,,,,,,,,,,,,,,,,,,,,,,,,7,weak,-44,78,1,0,0,response7disk,2,168,-15,10,1,0,0,rectangle,-15,10,1,0,0,0,3,0.003,-15,10,1,0,0,0,5,5,32,1,0,,,,,,,,,,,,,,,,,,,,,
,,,,,,,,,,,,,,,,,,,,,,,,,,,,,,,,,,,,,,,,,,5dde2885fef7c2d901c6d35a,60684b4e7d14374480f2153f,2021-04-03_12h03.36.541,Colour_Similarity_Experiment,2020.2.10,Win32,60,60674ec340277cd6a308bc9f,227.4608696,234.1016949,221.3877551,226.3913044,204.2625,226.3913044,,,,,,,,,,,,,,,,,,,,PF,strong,0,,,,,,,,6,2.615,,,,,,,,,,,,,,,,,,,,,,,,,,,,6,strong,95,53,1,0,0,response1disk,3,169,4,9,1,0,0,rectangle,4,9,1,0,0,0,5,0.002,4,9,1,0,0,0,6,6,21,1,0,,,,,,,,,,,,,,,,,,,,,
,,,,,,,,,,,,,,,,,,,,,,,,,,,,,,,,,,,,,,,,,,5dde2885fef7c2d901c6d35a,60684b4e7d14374480f2153f,2021-04-03_12h03.36.541,Colour_Similarity_Experiment,2020.2.10,Win32,60,60674ec340277cd6a308bc9f,227.4608696,234.1016949,221.3877551,226.3913044,204.2625,226.3913044,,,,,,,,,,,,,,,,,,,,PF,strong,0,,,,,,,,6,2.106,,,,,,,,,,,,,,,,,,,,,,,,,,,,7,strong,72,30,1,0,0,response1disk,8,170,4,-1,1,0,0,rectangle,131,-73,1,0,0,5,5,1.651,10,0,1,0,0,0,7,7,97,1,1,response3disk_3,rectangle,,,,,,,,,,,,,,,,,,,
,,,,,,,,,,,,,,,,,,,,,,,,,,,,,,,,,,,,,,,,,,5dde2885fef7c2d901c6d35a,60684b4e7d14374480f2153f,2021-04-03_12h03.36.541,Colour_Similarity_Experiment,2020.2.10,Win32,60,60674ec340277cd6a308bc9f,227.4608696,234.1016949,221.3877551,226.3913044,204.2625,226.3913044,,,,,,,,,,,,,,,,,,,,PF,weak,0,,,,,,,,7,2.885,,,,,,,,,,,,,,,,,,,,,,,,,,,,6,weak,41,85,1,0,0,response1disk,2,171,36,2,1,0,0,rectangle,36,2,1,0,0,5,5,0,36,2,1,0,0,0,8,8,130,1,0,,,,,,,,,,,,,,,,,,,,,
,,,,,,,,,,,,,,,,,,,,,,,,,,,,,,,,,,,,,,,,,,5dde2885fef7c2d901c6d35a,60684b4e7d14374480f2153f,2021-04-03_12h03.36.541,Colour_Similarity_Experiment,2020.2.10,Win32,60,60674ec340277cd6a308bc9f,227.4608696,234.1016949,221.3877551,226.3913044,204.2625,226.3913044,,,,,,,,,,,,,,,,,,,,PF,strong,0,,,,,,,,4,5.201,,,,,,,,,,,,,,,,,,,,,,,,,,,,7,strong,68,-83,1,0,0,response3disk,9,172,8,6,1,0,0,rectangle,8,6,1,0,0,5,1,0.002,8,6,1,0,0,0,9,9,155,1,0,,,,,,,,,,,,,,,,,,,,,
,,,,,,,,,,,,,,,,,,,,,,,,,,,,,,,,,,,,,,,,,,5dde2885fef7c2d901c6d35a,60684b4e7d14374480f2153f,2021-04-03_12h03.36.541,Colour_Similarity_Experiment,2020.2.10,Win32,60,60674ec340277cd6a308bc9f,227.4608696,234.1016949,221.3877551,226.3913044,204.2625,226.3913044,,,,,,,,,,,,,,,,,,,,PF,weak,0,,,,,,,,7,5.93,,,,,,,,,,,,,,,,,,,,,,,,,,,,2,weak,71,123,1,0,0,response1disk,3,173,22,-8,1,0,0,rectangle,22,-8,1,0,0,5,1,0,22,-8,1,0,0,0,10,10,69,1,0,,,,,,,,,,,,,,,,,,,,,
,,,,,,,,,,,,,,,,,,,,,,,,,,,,,,,,,,,,,,,,,,5dde2885fef7c2d901c6d35a,60684b4e7d14374480f2153f,2021-04-03_12h03.36.541,Colour_Similarity_Experiment,2020.2.10,Win32,60,60674ec340277cd6a308bc9f,227.4608696,234.1016949,221.3877551,226.3913044,204.2625,226.3913044,,,,,,,,,,,,,,,,,,,,PF,strong,0,,,,,,,,3,2.773,,,,,,,,,,,,,,,,,,,,,,,,,,,,1,strong,-60,-115,1,0,0,response5disk,3,174,6,-3,1,0,0,rectangle,6,-3,1,0,0,5,3,0.003,6,-3,1,0,0,0,11,11,99,1,0,,,,,,,,,,,,,,,,,,,,,
,,,,,,,,,,,,,,,,,,,,,,,,,,,,,,,,,,,,,,,,,,5dde2885fef7c2d901c6d35a,60684b4e7d14374480f2153f,2021-04-03_12h03.36.541,Colour_Similarity_Experiment,2020.2.10,Win32,60,60674ec340277cd6a308bc9f,227.4608696,234.1016949,221.3877551,226.3913044,204.2625,226.3913044,,,,,,,,,,,,,,,,,,,,PF,weak,0,,,,,,,,7,1.701,,,,,,,,,,,,,,,,,,,,,,,,,,,,4,weak,47,81,1,0,0,response1disk,9,175,4,0,1,0,0,rectangle,4,0,1,0,0,5,6,0.002,4,0,1,0,0,0,12,12,75,1,0,,,,,,,,,,,,,,,,,,,,,
,,,,,,,,,,,,,,,,,,,,,,,,,,,,,,,,,,,,,,,,,,5dde2885fef7c2d901c6d35a,60684b4e7d14374480f2153f,2021-04-03_12h03.36.541,Colour_Similarity_Experiment,2020.2.10,Win32,60,60674ec340277cd6a308bc9f,227.4608696,234.1016949,221.3877551,226.3913044,204.2625,226.3913044,,,,,,,,,,,,,,,,,,,,PF,strong,0,,,,,,,,7,1.572,,,,,,,,,,,,,,,,,,,,,,,,,,,,7,strong,43,64,1,0,0,response1disk,3,176,-5,3,1,0,0,rectangle,-5,3,1,0,0,5,0,0.002,-5,3,1,0,0,0,13,13,73,1,0,,,,,,,,,,,,,,,,,,,,,
,,,,,,,,,,,,,,,,,,,,,,,,,,,,,,,,,,,,,,,,,,5dde2885fef7c2d901c6d35a,60684b4e7d14374480f2153f,2021-04-03_12h03.36.541,Colour_Similarity_Experiment,2020.2.10,Win32,60,60674ec340277cd6a308bc9f,227.4608696,234.1016949,221.3877551,226.3913044,204.2625,226.3913044,,,,,,,,,,,,,,,,,,,,PF,strong,0,,,,,,,,7,2.819,,,,,,,,,,,,,,,,,,,,,,,,,,,,9,strong,51,83,1,0,0,response1disk,8,177,-10,-18,1,0,0,rectangle,-10,-18,1,0,0,5,4,0.003,-10,-18,1,0,0,0,14,14,6,1,0,,,,,,,,,,,,,,,,,,,,,
,,,,,,,,,,,,,,,,,,,,,,,,,,,,,,,,,,,,,,,,,,5dde2885fef7c2d901c6d35a,60684b4e7d14374480f2153f,2021-04-03_12h03.36.541,Colour_Similarity_Experiment,2020.2.10,Win32,60,60674ec340277cd6a308bc9f,227.4608696,234.1016949,221.3877551,226.3913044,204.2625,226.3913044,,,,,,,,,,,,,,,,,,,,PF,weak,0,,,,,,,,0,1.485,,,,,,,,,,,,,,,,,,,,,,,,,,,,6,weak,-43,74,1,0,0,response7disk,8,178,-19,11,1,0,0,rectangle,-19,11,1,0,0,5,4,0,-19,11,1,0,0,0,15,15,64,1,0,,,,,,,,,,,,,,,,,,,,,
,,,,,,,,,,,,,,,,,,,,,,,,,,,,,,,,,,,,,,,,,,5dde2885fef7c2d901c6d35a,60684b4e7d14374480f2153f,2021-04-03_12h03.36.541,Colour_Similarity_Experiment,2020.2.10,Win32,60,60674ec340277cd6a308bc9f,227.4608696,234.1016949,221.3877551,226.3913044,204.2625,226.3913044,,,,,,,,,,,,,,,,,,,,PF,strong,0,,,,,,,,5,2.462,,,,,,,,,,,,,,,,,,,,,,,,,,,,3,strong,92,-71,1,0,0,response3disk,7,179,0,8,1,0,0,rectangle,0,8,1,0,0,5,6,0.002,0,8,1,0,0,0,16,16,118,1,0,,,,,,,,,,,,,,,,,,,,,
,,,,,,,,,,,,,,,,,,,,,,,,,,,,,,,,,,,,,,,,,,5dde2885fef7c2d901c6d35a,60684b4e7d14374480f2153f,2021-04-03_12h03.36.541,Colour_Similarity_Experiment,2020.2.10,Win32,60,60674ec340277cd6a308bc9f,227.4608696,234.1016949,221.3877551,226.3913044,204.2625,226.3913044,,,,,,,,,,,,,,,,,,,,PF,weak,0,,,,,,,,7,2.824,,,,,,,,,,,,,,,,,,,,,,,,,,,,8,weak,36,70,1,0,0,response1disk,5,180,20,9,1,0,0,rectangle,20,9,1,0,0,5,5,0.002,20,9,1,0,0,0,17,17,98,1,0,,,,,,,,,,,,,,,,,,,,,
,,,,,,,,,,,,,,,,,,,,,,,,,,,,,,,,,,,,,,,,,,5dde2885fef7c2d901c6d35a,60684b4e7d14374480f2153f,2021-04-03_12h03.36.541,Colour_Similarity_Experiment,2020.2.10,Win32,60,60674ec340277cd6a308bc9f,227.4608696,234.1016949,221.3877551,226.3913044,204.2625,226.3913044,,,,,,,,,,,,,,,,,,,,PF,strong,0,,,,,,,,7,1.739,,,,,,,,,,,,,,,,,,,,,,,,,,,,4,strong,30,69,1,0,0,response1disk,7,181,27,13,1,0,0,rectangle,27,13,1,0,0,5,5,0,27,13,1,0,0,0,18,18,87,1,0,,,,,,,,,,,,,,,,,,,,,
,,,,,,,,,,,,,,,,,,,,,,,,,,,,,,,,,,,,,,,,,,5dde2885fef7c2d901c6d35a,60684b4e7d14374480f2153f,2021-04-03_12h03.36.541,Colour_Similarity_Experiment,2020.2.10,Win32,60,60674ec340277cd6a308bc9f,227.4608696,234.1016949,221.3877551,226.3913044,204.2625,226.3913044,,,,,,,,,,,,,,,,,,,,PF,strong,0,,,,,,,,7,3.039,,,,,,,,,,,,,,,,,,,,,,,,,,,,5,strong,26,81,1,0,0,response1disk,7,182,27,6,1,0,0,rectangle,27,6,1,0,0,5,3,0.003,27,6,1,0,0,0,19,19,7,1,0,,,,,,,,,,,,,,,,,,,,,
,,,,,,,,,,,,,,,,,,,,,,,,,,,,,,,,,,,,,,,,,,5dde2885fef7c2d901c6d35a,60684b4e7d14374480f2153f,2021-04-03_12h03.36.541,Colour_Similarity_Experiment,2020.2.10,Win32,60,60674ec340277cd6a308bc9f,227.4608696,234.1016949,221.3877551,226.3913044,204.2625,226.3913044,,,,,,,,,,,,,,,,,,,,PF,strong,0,,,,,,,,0,2.021,,,,,,,,,,,,,,,,,,,,,,,,,,,,6,strong,-40,78,1,0,0,response7disk,7,183,-6,13,1,0,0,rectangle,-6,13,1,0,0,5,1,0.002,-6,13,1,0,0,0,20,20,18,1,0,,,,,,,,,,,,,,,,,,,,,
,,,,,,,,,,,,,,,,,,,,,,,,,,,,,,,,,,,,,,,,,,5dde2885fef7c2d901c6d35a,60684b4e7d14374480f2153f,2021-04-03_12h03.36.541,Colour_Similarity_Experiment,2020.2.10,Win32,60,60674ec340277cd6a308bc9f,227.4608696,234.1016949,221.3877551,226.3913044,204.2625,226.3913044,,,,,,,,,,,,,,,,,,,,PF,weak,0,,,,,,,,7,1.544,,,,,,,,,,,,,,,,,,,,,,,,,,,,5,weak,37,95,1,0,0,response1disk,4,184,11,15,1,0,0,rectangle,11,15,1,0,0,5,5,0.003,11,15,1,0,0,0,21,21,54,1,0,,,,,,,,,,,,,,,,,,,,,
,,,,,,,,,,,,,,,,,,,,,,,,,,,,,,,,,,,,,,,,,,5dde2885fef7c2d901c6d35a,60684b4e7d14374480f2153f,2021-04-03_12h03.36.541,Colour_Similarity_Experiment,2020.2.10,Win32,60,60674ec340277cd6a308bc9f,227.4608696,234.1016949,221.3877551,226.3913044,204.2625,226.3913044,,,,,,,,,,,,,,,,,,,,PF,strong,0,,,,,,,,0,1.91,,,,,,,,,,,,,,,,,,,,,,,,,,,,9,strong,-44,77,1,0,0,response7disk,7,185,-21,9,1,0,0,rectangle,-21,9,1,0,0,5,4,0.002,-21,9,1,0,0,0,22,22,100,1,0,,,,,,,,,,,,,,,,,,,,,
,,,,,,,,,,,,,,,,,,,,,,,,,,,,,,,,,,,,,,,,,,5dde2885fef7c2d901c6d35a,60684b4e7d14374480f2153f,2021-04-03_12h03.36.541,Colour_Similarity_Experiment,2020.2.10,Win32,60,60674ec340277cd6a308bc9f,227.4608696,234.1016949,221.3877551,226.3913044,204.2625,226.3913044,,,,,,,,,,,,,,,,,,,,PF,strong,0,,,,,,,,0,1.39,,,,,,,,,,,,,,,,,,,,,,,,,,,,1,strong,-48,71,1,0,0,response7disk,7,186,-16,10,1,0,0,rectangle,-16,10,1,0,0,5,1,0.004,-16,10,1,0,0,0,23,23,137,1,0,,,,,,,,,,,,,,,,,,,,,
,,,,,,,,,,,,,,,,,,,,,,,,,,,,,,,,,,,,,,,,,,5dde2885fef7c2d901c6d35a,60684b4e7d14374480f2153f,2021-04-03_12h03.36.541,Colour_Similarity_Experiment,2020.2.10,Win32,60,60674ec340277cd6a308bc9f,227.4608696,234.1016949,221.3877551,226.3913044,204.2625,226.3913044,,,,,,,,,,,,,,,,,,,,PF,strong,0,,,,,,,,7,1.189,,,,,,,,,,,,,,,,,,,,,,,,,,,,9,strong,44,96,1,0,0,response1disk,4,187,7,9,1,0,0,rectangle,7,9,1,0,0,5,6,0.002,7,9,1,0,0,0,24,24,60,1,0,,,,,,,,,,,,,,,,,,,,,
,,,,,,,,,,,,,,,,,,,,,,,,,,,,,,,,,,,,,,,,,,5dde2885fef7c2d901c6d35a,60684b4e7d14374480f2153f,2021-04-03_12h03.36.541,Colour_Similarity_Experiment,2020.2.10,Win32,60,60674ec340277cd6a308bc9f,227.4608696,234.1016949,221.3877551,226.3913044,204.2625,226.3913044,,,,,,,,,,,,,,,,,,,,PF,weak,0,,,,,,,,2,3.376,,,,,,,,,,,,,,,,,,,,,,,,,,,,6,weak,-79,-52,1,0,0,response5disk,3,188,11,-3,1,0,0,rectangle,11,-3,1,0,0,5,2,0.002,11,-3,1,0,0,0,25,25,26,1,0,,,,,,,,,,,,,,,,,,,,,
,,,,,,,,,,,,,,,,,,,,,,,,,,,,,,,,,,,,,,,,,,5dde2885fef7c2d901c6d35a,60684b4e7d14374480f2153f,2021-04-03_12h03.36.541,Colour_Similarity_Experiment,2020.2.10,Win32,60,60674ec340277cd6a308bc9f,227.4608696,234.1016949,221.3877551,226.3913044,204.2625,226.3913044,,,,,,,,,,,,,,,,,,,,PF,weak,0,,,,,,,,1,1.666,,,,,,,,,,,,,,,,,,,,,,,,,,,,2,weak,-81,42,1,0,0,response7disk,5,189,-13,7,1,0,0,rectangle,-13,7,1,0,0,5,5,0.002,-13,7,1,0,0,0,26,26,147,1,0,,,,,,,,,,,,,,,,,,,,,
,,,,,,,,,,,,,,,,,,,,,,,,,,,,,,,,,,,,,,,,,,5dde2885fef7c2d901c6d35a,60684b4e7d14374480f2153f,2021-04-03_12h03.36.541,Colour_Similarity_Experiment,2020.2.10,Win32,60,60674ec340277cd6a308bc9f,227.4608696,234.1016949,221.3877551,226.3913044,204.2625,226.3913044,,,,,,,,,,,,,,,,,,,,PF,weak,0,,,,,,,,7,1.449,,,,,,,,,,,,,,,,,,,,,,,,,,,,3,weak,40,80,1,0,0,response1disk,1,190,2,2,1,0,0,rectangle,2,2,1,0,0,5,5,0,2,2,1,0,0,0,27,27,96,1,0,,,,,,,,,,,,,,,,,,,,,
,,,,,,,,,,,,,,,,,,,,,,,,,,,,,,,,,,,,,,,,,,5dde2885fef7c2d901c6d35a,60684b4e7d14374480f2153f,2021-04-03_12h03.36.541,Colour_Similarity_Experiment,2020.2.10,Win32,60,60674ec340277cd6a308bc9f,227.4608696,234.1016949,221.3877551,226.3913044,204.2625,226.3913044,,,,,,,,,,,,,,,,,,,,PF,strong,0,,,,,,,,7,2.736,,,,,,,,,,,,,,,,,,,,,,,,,,,,5,strong,40,69,1,0,0,response1disk,9,191,25,8,1,0,0,rectangle,25,8,1,0,0,5,6,0.003,25,8,1,0,0,0,28,28,61,1,0,,,,,,,,,,,,,,,,,,,,,
,,,,,,,,,,,,,,,,,,,,,,,,,,,,,,,,,,,,,,,,,,5dde2885fef7c2d901c6d35a,60684b4e7d14374480f2153f,2021-04-03_12h03.36.541,Colour_Similarity_Experiment,2020.2.10,Win32,60,60674ec340277cd6a308bc9f,227.4608696,234.1016949,221.3877551,226.3913044,204.2625,226.3913044,,,,,,,,,,,,,,,,,,,,PF,weak,0,,,,,,,,1,3.332,,,,,,,,,,,,,,,,,,,,,,,,,,,,3,weak,-126,44,1,0,0,response7disk,8,192,-23,1,1,0,0,rectangle,-23,1,1,0,0,5,1,0.003,-23,1,1,0,0,0,29,29,3,1,0,,,,,,,,,,,,,,,,,,,,,
,,,,,,,,,,,,,,,,,,,,,,,,,,,,,,,,,,,,,,,,,,5dde2885fef7c2d901c6d35a,60684b4e7d14374480f2153f,2021-04-03_12h03.36.541,Colour_Similarity_Experiment,2020.2.10,Win32,60,60674ec340277cd6a308bc9f,227.4608696,234.1016949,221.3877551,226.3913044,204.2625,226.3913044,,,,,,,,,,,,,,,,,,,,PF,strong,0,,,,,,,,7,3.17,,,,,,,,,,,,,,,,,,,,,,,,,,,,4,strong,64,73,1,0,0,response1disk,6,193,11,15,1,0,0,rectangle,11,15,1,0,0,5,3,0.002,11,15,1,0,0,0,30,30,122,1,0,,,,,,,,,,,,,,,,,,,,,
,,,,,,,,,,,,,,,,,,,,,,,,,,,,,,,,,,,,,,,,,,5dde2885fef7c2d901c6d35a,60684b4e7d14374480f2153f,2021-04-03_12h03.36.541,Colour_Similarity_Experiment,2020.2.10,Win32,60,60674ec340277cd6a308bc9f,227.4608696,234.1016949,221.3877551,226.3913044,204.2625,226.3913044,,,,,,,,,,,,,,,,,,,,PF,weak,0,,,,,,,,0,1.684,,,,,,,,,,,,,,,,,,,,,,,,,,,,4,weak,-56,70,1,0,0,response7disk,7,194,16,13,1,0,0,rectangle,16,13,1,0,0,5,0,0.001,16,13,1,0,0,0,31,31,38,1,0,,,,,,,,,,,,,,,,,,,,,
,,,,,,,,,,,,,,,,,,,,,,,,,,,,,,,,,,,,,,,,,,5dde2885fef7c2d901c6d35a,60684b4e7d14374480f2153f,2021-04-03_12h03.36.541,Colour_Similarity_Experiment,2020.2.10,Win32,60,60674ec340277cd6a308bc9f,227.4608696,234.1016949,221.3877551,226.3913044,204.2625,226.3913044,,,,,,,,,,,,,,,,,,,,PF,strong,0,,,,,,,,7,1.522,,,,,,,,,,,,,,,,,,,,,,,,,,,,1,strong,75,125,1,0,0,response1disk,4,195,19,4,1,0,0,rectangle,19,4,1,0,0,5,4,0.002,19,4,1,0,0,0,32,32,135,1,0,,,,,,,,,,,,,,,,,,,,,
,,,,,,,,,,,,,,,,,,,,,,,,,,,,,,,,,,,,,,,,,,5dde2885fef7c2d901c6d35a,60684b4e7d14374480f2153f,2021-04-03_12h03.36.541,Colour_Similarity_Experiment,2020.2.10,Win32,60,60674ec340277cd6a308bc9f,227.4608696,234.1016949,221.3877551,226.3913044,204.2625,226.3913044,,,,,,,,,,,,,,,,,,,,PF,strong,0,,,,,,,,7,1.675,,,,,,,,,,,,,,,,,,,,,,,,,,,,1,strong,65,107,1,0,0,response1disk,6,196,-7,3,1,0,0,rectangle,-7,3,1,0,0,5,5,0.001,-7,3,1,0,0,0,33,33,58,1,0,,,,,,,,,,,,,,,,,,,,,
,,,,,,,,,,,,,,,,,,,,,,,,,,,,,,,,,,,,,,,,,,5dde2885fef7c2d901c6d35a,60684b4e7d14374480f2153f,2021-04-03_12h03.36.541,Colour_Similarity_Experiment,2020.2.10,Win32,60,60674ec340277cd6a308bc9f,227.4608696,234.1016949,221.3877551,226.3913044,204.2625,226.3913044,,,,,,,,,,,,,,,,,,,,PF,weak,0,,,,,,,,0,3.024,,,,,,,,,,,,,,,,,,,,,,,,,,,,5,weak,-72,80,1,0,0,response7disk,5,197,-5,7,1,0,0,rectangle,-5,7,1,0,0,5,4,0.002,-5,7,1,0,0,0,34,34,94,1,0,,,,,,,,,,,,,,,,,,,,,
,,,,,,,,,,,,,,,,,,,,,,,,,,,,,,,,,,,,,,,,,,5dde2885fef7c2d901c6d35a,60684b4e7d14374480f2153f,2021-04-03_12h03.36.541,Colour_Similarity_Experiment,2020.2.10,Win32,60,60674ec340277cd6a308bc9f,227.4608696,234.1016949,221.3877551,226.3913044,204.2625,226.3913044,,,,,,,,,,,,,,,,,,,,PF,strong,0,,,,,,,,7,2.156,,,,,,,,,,,,,,,,,,,,,,,,,,,,6,strong,43,84,1,0,0,response1disk,9,198,25,9,1,0,0,rectangle,29,-80,1,0,0,4,4,2.115,-2,5,1,0,0,0,35,35,160,1,1,response3disk_3,rectangle,,,,,,,,,,,,,,,,,,,
