key_resp.keys,key_resp.rt,key_resp_16.keys,key_resp_16.rt,key_resp_2.keys,key_resp_2.rt,X Scale,ratio_pxpermm,screen_size_x,screen_size_y,testsize,key_resp_3.keys,key_resp_4.keys,key_resp_4.rt,line_size,key_resp_5.keys,key_resp_5.rt,key_resp_6.keys,key_resp_6.rt,key_resp_8.keys,key_resp_8.rt,key_resp_7.keys,key_resp_7.rt,key_resp_12.keys,key_resp_12.rt,key_resp_11.keys,key_resp_11.rt,key_resp_18.keys,key_resp_18.rt,key_resp_21.keys,key_resp_21.rt,key_resp_13.keys,key_resp_13.rt,key_resp_19.keys,key_resp_19.rt,ballposx,viewer_distance,trials.thisRepN,trials.thisTrialN,trials.thisN,trials.thisIndex,trials.ran,participant,session,date,expName,psychopyVersion,OS,frameRate,study_id,realFrameRate1,realFrameRate2,realFrameRate3,realFrameRate4,realFrameRate5,realFrameRate,viewerdistancecm,DVA_to_distance,radius_F,radius_P,r_F,R_P,key_resp_20.keys,key_resp_20.rt,key_resp_14.keys,key_resp_14.rt,key_resp_15.keys,key_resp_15.rt,key_resp_17.keys,key_resp_17.rt,key_resp_9.keys,key_resp_9.rt,key_resp_10.keys,key_resp_10.rt,Colour_1,Ecc,maskCon,mask_frames,mouse_5.x,mouse_5.y,mouse_5.leftButton,mouse_5.midButton,mouse_5.rightButton,mouse_5.clicked_name,Colour_2,similarity,response_time,mouse_10.x,mouse_10.y,mouse_10.leftButton,mouse_10.midButton,mouse_10.rightButton,mouse_10.clicked_name,mouse_7.x,mouse_7.y,mouse_7.leftButton,mouse_7.midButton,mouse_7.rightButton,mouse_7.clicked_name,catchprac,catchnumberprac,mouse_6.x,mouse_6.y,mouse_6.leftButton,mouse_6.midButton,mouse_6.rightButton,mouse_6.clicked_name,duringprac.thisRepN,duringprac.thisTrialN,duringprac.thisN,duringprac.thisIndex,duringprac.ran,key_resp_22.keys,key_resp_22.rt,Colour1,maskCon1,mouse.x,mouse.y,mouse.leftButton,mouse.midButton,mouse.rightButton,mouse.clicked_name,Colour2,trialnumber,mouse_2.x,mouse_2.y,mouse_2.leftButton,mouse_2.midButton,mouse_2.rightButton,mouse_2.clicked_name,mouse_3.x,mouse_3.y,mouse_3.leftButton,mouse_3.midButton,mouse_3.rightButton,catchresponse,catchnumber,response_time_catch,mouse_11.x,mouse_11.y,mouse_11.leftButton,mouse_11.midButton,mouse_11.rightButton,trials_2.thisRepN,trials_2.thisTrialN,trials_2.thisN,trials_2.thisIndex,trials_2.ran,Catch,mouse_3.clicked_name,mouse_11.clicked_name,trials_3.thisRepN,trials_3.thisTrialN,trials_3.thisN,trials_3.thisIndex,trials_3.ran,answer1,rt1,answer2,rt2,answer3,rt3,answer4,rt4,answer5,rt5,answer6,rt6,answer7,rt7
space,10.192705,space,12.009725,space,8.63448,28.7,2.87,535.1916376,301.0452962,1536,,space,14.013515,57.4,space,17.43162,space,7.623515,space,5.90984,space,11.73693,space,17.109655,space,12.901395,space,14.171065,space,18.98779,space,15.518465,return,9.93336,-799.488,2052.010295,0,0,0,0,1,5e9b3754687af2039ea9f06c,606841c2af6938803ce011a6,2021-04-03_12h23.17.588,Colour_Similarity_Experiment,2020.2.10,Win32,60,60674ec340277cd6a308bc9f,16.77665522,16.70380194,16.68039969,16.68054038,16.68109683,16.68109683,,,,,,,,,,,,,,,,,,,,,,,,,,,,,,,,,,,,,,,,,,,,,,,,,,,,,,,,,,,,,,,,,,,,,,,,,,,,,,,,,,,,,,,,,,,,,,,,,,,,,,,,,,,,,,,,,,
,,,,,,,,,,,,,,,,,,,,,,,,,,,,,,,,,return,9.909885,-794.88,2045.322592,1,0,1,0,1,5e9b3754687af2039ea9f06c,606841c2af6938803ce011a6,2021-04-03_12h23.17.588,Colour_Similarity_Experiment,2020.2.10,Win32,60,60674ec340277cd6a308bc9f,16.77665522,16.70380194,16.68039969,16.68054038,16.68109683,16.68109683,,,,,,,,,,,,,,,,,,,,,,,,,,,,,,,,,,,,,,,,,,,,,,,,,,,,,,,,,,,,,,,,,,,,,,,,,,,,,,,,,,,,,,,,,,,,,,,,,,,,,,,,,,,,,,,,,,
,,,,,,,,,,,,,,,,,,,,,,,,,,,,,,,,,return,9.848355,-785.664,2031.947185,2,0,2,0,1,5e9b3754687af2039ea9f06c,606841c2af6938803ce011a6,2021-04-03_12h23.17.588,Colour_Similarity_Experiment,2020.2.10,Win32,60,60674ec340277cd6a308bc9f,16.77665522,16.70380194,16.68039969,16.68054038,16.68109683,16.68109683,,,,,,,,,,,,,,,,,,,,,,,,,,,,,,,,,,,,,,,,,,,,,,,,,,,,,,,,,,,,,,,,,,,,,,,,,,,,,,,,,,,,,,,,,,,,,,,,,,,,,,,,,,,,,,,,,,
,,,,,,,,,,,,,,,,,,,,,,,,,,,,,,,,,return,9.85601,-787.968,2035.291037,3,0,3,0,1,5e9b3754687af2039ea9f06c,606841c2af6938803ce011a6,2021-04-03_12h23.17.588,Colour_Similarity_Experiment,2020.2.10,Win32,60,60674ec340277cd6a308bc9f,16.77665522,16.70380194,16.68039969,16.68054038,16.68109683,16.68109683,,,,,,,,,,,,,,,,,,,,,,,,,,,,,,,,,,,,,,,,,,,,,,,,,,,,,,,,,,,,,,,,,,,,,,,,,,,,,,,,,,,,,,,,,,,,,,,,,,,,,,,,,,,,,,,,,,
,,,,,,,,,,,,,,,,,,,,,,,,,,,,,,,,,return,9.96903,-801.792,2055.354147,4,0,4,0,1,5e9b3754687af2039ea9f06c,606841c2af6938803ce011a6,2021-04-03_12h23.17.588,Colour_Similarity_Experiment,2020.2.10,Win32,60,60674ec340277cd6a308bc9f,16.77665522,16.70380194,16.68039969,16.68054038,16.68109683,16.68109683,,,,,,,,,,,,,,,,,,,,,,,,,,,,,,,,,,,,,,,,,,,,,,,,,,,,,,,,,,,,,,,,,,,,,,,,,,,,,,,,,,,,,,,,,,,,,,,,,,,,,,,,,,,,,,,,,,
,,,,,,,,,,,,,,,,,,,,,,,,,,,,,,,,,,,,,,,,,,5e9b3754687af2039ea9f06c,606841c2af6938803ce011a6,2021-04-03_12h23.17.588,Colour_Similarity_Experiment,2020.2.10,Win32,60,60674ec340277cd6a308bc9f,16.77665522,16.70380194,16.68039969,16.68054038,16.68109683,16.68109683,205,35.78287031,154.0452567,1026.968378,102.6968378,462.13577,space,7.20585,space,27.45269,space,48.53189,space,7.12256,space,11.172355,space,5.86557,2,PF,strong,3,-30.39994018,79.19997033,1,0,0,response7disk_5,2,0,24.157745,0.800011456,-5.600006521,1,0,0,rectangle_8,36.80001199,-69.60000747,1,0,0,response3disk_7,4,4,-11.19998872,8.799993694,1,0,0,rectangle_4,0,0,0,2,1,,,,,,,,,,,,,,,,,,,,,,,,,,,,,,,,,,,,,,,,,,,,,,,,,,,,,,,,,,
,,,,,,,,,,,,,,,,,,,,,,,,,,,,,,,,,,,,,,,,,,5e9b3754687af2039ea9f06c,606841c2af6938803ce011a6,2021-04-03_12h23.17.588,Colour_Similarity_Experiment,2020.2.10,Win32,60,60674ec340277cd6a308bc9f,16.77665522,16.70380194,16.68039969,16.68054038,16.68109683,16.68109683,,,,,,,,,,,,,,,,,,,4,PF,weak,3,89.60001278,-30.40000689,1,0,0,response3disk_5,6,5,7.70778,-22.39994006,3.999993622,1,0,0,rectangle_8,-22.39994006,3.999993622,1,0,0,,,4,-22.39994006,3.999993622,1,0,0,,0,1,1,5,1,,,,,,,,,,,,,,,,,,,,,,,,,,,,,,,,,,,,,,,,,,,,,,,,,,,,,,,,,,
,,,,,,,,,,,,,,,,,,,,,,,,,,,,,,,,,,,,,,,,,,5e9b3754687af2039ea9f06c,606841c2af6938803ce011a6,2021-04-03_12h23.17.588,Colour_Similarity_Experiment,2020.2.10,Win32,60,60674ec340277cd6a308bc9f,16.77665522,16.70380194,16.68039969,16.68054038,16.68109683,16.68109683,,,,,,,,,,,,,,,,,,,6,PF,weak,3,-24.79998893,-41.60000706,1,0,0,response5disk_5,7,3,4.12059,4.800011516,-4.800006509,1,0,0,rectangle_8,4.800011516,-4.800006509,1,0,0,,,4,4.800011516,-4.800006509,1,0,0,,0,2,2,4,1,,,,,,,,,,,,,,,,,,,,,,,,,,,,,,,,,,,,,,,,,,,,,,,,,,,,,,,,,,
,,,,,,,,,,,,,,,,,,,,,,,,,,,,,,,,,,,,,,,,,,5e9b3754687af2039ea9f06c,606841c2af6938803ce011a6,2021-04-03_12h23.17.588,Colour_Similarity_Experiment,2020.2.10,Win32,60,60674ec340277cd6a308bc9f,16.77665522,16.70380194,16.68039969,16.68054038,16.68109683,16.68109683,,,,,,,,,,,,,,,,,,,6,PF,weak,3,68.00001246,-41.60000706,1,0,0,response3disk_5,5,5,2.90318,28.00001186,-9.60000658,1,0,0,rectangle_8,28.00001186,-9.60000658,1,0,0,,,4,28.00001186,-9.60000658,1,0,0,,0,3,3,1,1,,,,,,,,,,,,,,,,,,,,,,,,,,,,,,,,,,,,,,,,,,,,,,,,,,,,,,,,,,
,,,,,,,,,,,,,,,,,,,,,,,,,,,,,,,,,,,,,,,,,,5e9b3754687af2039ea9f06c,606841c2af6938803ce011a6,2021-04-03_12h23.17.588,Colour_Similarity_Experiment,2020.2.10,Win32,60,60674ec340277cd6a308bc9f,16.77665522,16.70380194,16.68039969,16.68054038,16.68109683,16.68109683,,,,,,,,,,,,,,,,,,,5,PF,strong,3,38.40001202,71.99999464,1,0,0,response1disk_5,1,7,5.08858,14.40001166,-11.2000066,1,0,0,rectangle_8,14.40001166,-11.2000066,1,0,0,,,4,14.40001166,-11.2000066,1,0,0,,0,4,4,3,1,,,,,,,,,,,,,,,,,,,,,,,,,,,,,,,,,,,,,,,,,,,,,,,,,,,,,,,,,,
,,,,,,,,,,,,,,,,,,,,,,,,,,,,,,,,,,,,,,,,,,5e9b3754687af2039ea9f06c,606841c2af6938803ce011a6,2021-04-03_12h23.17.588,Colour_Similarity_Experiment,2020.2.10,Win32,60,60674ec340277cd6a308bc9f,16.77665522,16.70380194,16.68039969,16.68054038,16.68109683,16.68109683,,,,,,,,,,,,,,,,,,,6,PF,weak,3,24.80001181,-101.6000568,1,0,0,response3disk_5,8,4,8.60855,3.200011492,-6.400006533,1,0,0,rectangle_8,3.200011492,-6.400006533,1,0,0,,,4,3.200011492,-6.400006533,1,0,0,,0,5,5,6,1,,,,,,,,,,,,,,,,,,,,,,,,,,,,,,,,,,,,,,,,,,,,,,,,,,,,,,,,,,
,,,,,,,,,,,,,,,,,,,,,,,,,,,,,,,,,,,,,,,,,,5e9b3754687af2039ea9f06c,606841c2af6938803ce011a6,2021-04-03_12h23.17.588,Colour_Similarity_Experiment,2020.2.10,Win32,60,60674ec340277cd6a308bc9f,16.77665522,16.70380194,16.68039969,16.68054038,16.68109683,16.68109683,,,,,,,,,,,,,,,,,,,8,PF,strong,3,30.4000119,96.79999501,0,0,1,response1disk_5,5,7,2.68289,4.800011516,7.999993682,1,0,0,rectangle_8,4.800011516,7.999993682,1,0,0,,,4,4.800011516,7.999993682,1,0,0,,0,6,6,0,1,,,,,,,,,,,,,,,,,,,,,,,,,,,,,,,,,,,,,,,,,,,,,,,,,,,,,,,,,,
,,,,,,,,,,,,,,,,,,,,,,,,,,,,,,,,,,,,,,,,,,5e9b3754687af2039ea9f06c,606841c2af6938803ce011a6,2021-04-03_12h23.17.588,Colour_Similarity_Experiment,2020.2.10,Win32,60,60674ec340277cd6a308bc9f,16.77665522,16.70380194,16.68039969,16.68054038,16.68109683,16.68109683,,,,,,,,,,,,,,,,,,,,PF,strong,3,,,,,,,,3,4.287855,,,,,,,,,,,,,,,,,,,,,,,,,,space,7.19104,4,strong,-40.79998916,-41.60000706,1,0,0,response5disk,6,1,5.600060356,-2.400006473,1,0,0,rectangle,5.600060356,-2.400006473,1,0,0,,5,0.00162,5.600060356,-2.400006473,1,0,0,0,0,0,122,1,0,,,,,,,,,,,,,,,,,,,,,
,,,,,,,,,,,,,,,,,,,,,,,,,,,,,,,,,,,,,,,,,,5e9b3754687af2039ea9f06c,606841c2af6938803ce011a6,2021-04-03_12h23.17.588,Colour_Similarity_Experiment,2020.2.10,Win32,60,60674ec340277cd6a308bc9f,16.77665522,16.70380194,16.68039969,16.68054038,16.68109683,16.68109683,,,,,,,,,,,,,,,,,,,,PF,weak,3,,,,,,,,5,2.852695,,,,,,,,,,,,,,,,,,,,,,,,,,,,7,weak,54.40001225,-28.80000687,1,0,0,response3disk,6,2,4.800011516,-4.800006509,1,0,0,rectangle,4.800011516,-4.800006509,1,0,0,,5,0.000195,4.800011516,-4.800006509,1,0,0,0,1,1,29,1,0,,,,,,,,,,,,,,,,,,,,,
,,,,,,,,,,,,,,,,,,,,,,,,,,,,,,,,,,,,,,,,,,5e9b3754687af2039ea9f06c,606841c2af6938803ce011a6,2021-04-03_12h23.17.588,Colour_Similarity_Experiment,2020.2.10,Win32,60,60674ec340277cd6a308bc9f,16.77665522,16.70380194,16.68039969,16.68054038,16.68109683,16.68109683,,,,,,,,,,,,,,,,,,,,PF,strong,3,,,,,,,,7,5.272145,,,,,,,,,,,,,,,,,,,,,,,,,,,,8,strong,19.20001173,53.59999436,1,0,0,response1disk,4,3,0.800011456,2.399993598,1,0,0,rectangle,0.800011456,2.399993598,1,0,0,,2,0.00136,0.800011456,2.399993598,1,0,0,0,2,2,88,1,0,,,,,,,,,,,,,,,,,,,,,
,,,,,,,,,,,,,,,,,,,,,,,,,,,,,,,,,,,,,,,,,,5e9b3754687af2039ea9f06c,606841c2af6938803ce011a6,2021-04-03_12h23.17.588,Colour_Similarity_Experiment,2020.2.10,Win32,60,60674ec340277cd6a308bc9f,16.77665522,16.70380194,16.68039969,16.68054038,16.68109683,16.68109683,,,,,,,,,,,,,,,,,,,,PF,strong,3,,,,,,,,6,2.21871,,,,,,,,,,,,,,,,,,,,,,,,,,,,9,strong,37.60006083,24.79999393,1,0,0,response1disk,4,4,5.600060356,5.599993646,1,0,0,rectangle,5.600060356,5.599993646,1,0,0,,5,0.00151,5.600060356,5.599993646,1,0,0,0,3,3,60,1,0,,,,,,,,,,,,,,,,,,,,,
,,,,,,,,,,,,,,,,,,,,,,,,,,,,,,,,,,,,,,,,,,5e9b3754687af2039ea9f06c,606841c2af6938803ce011a6,2021-04-03_12h23.17.588,Colour_Similarity_Experiment,2020.2.10,Win32,60,60674ec340277cd6a308bc9f,16.77665522,16.70380194,16.68039969,16.68054038,16.68109683,16.68109683,,,,,,,,,,,,,,,,,,,,PF,strong,3,,,,,,,,5,3.97071,,,,,,,,,,,,,,,,,,,,,,,,,,,,8,strong,39.20001203,-20.80000675,1,0,0,response3disk,1,5,14.40001166,-2.400006473,1,0,0,rectangle,14.40001166,-2.400006473,1,0,0,,0,0.00103,14.40001166,-2.400006473,1,0,0,0,4,4,20,1,0,,,,,,,,,,,,,,,,,,,,,
,,,,,,,,,,,,,,,,,,,,,,,,,,,,,,,,,,,,,,,,,,5e9b3754687af2039ea9f06c,606841c2af6938803ce011a6,2021-04-03_12h23.17.588,Colour_Similarity_Experiment,2020.2.10,Win32,60,60674ec340277cd6a308bc9f,16.77665522,16.70380194,16.68039969,16.68054038,16.68109683,16.68109683,,,,,,,,,,,,,,,,,,,,PF,strong,3,,,,,,,,6,3.28649,,,,,,,,,,,,,,,,,,,,,,,,,,,,5,strong,61.60001236,21.59999388,1,0,0,response1disk,3,6,2.40001148,3.19999361,1,0,0,rectangle,2.40001148,3.19999361,1,0,0,,1,0.001435,2.40001148,3.19999361,1,0,0,0,5,5,25,1,0,,,,,,,,,,,,,,,,,,,,,
,,,,,,,,,,,,,,,,,,,,,,,,,,,,,,,,,,,,,,,,,,5e9b3754687af2039ea9f06c,606841c2af6938803ce011a6,2021-04-03_12h23.17.588,Colour_Similarity_Experiment,2020.2.10,Win32,60,60674ec340277cd6a308bc9f,16.77665522,16.70380194,16.68039969,16.68054038,16.68109683,16.68109683,,,,,,,,,,,,,,,,,,,,PF,strong,3,,,,,,,,6,3.319745,,,,,,,,,,,,,,,,,,,,,,,,,,,,9,strong,52.00001222,24.79999393,1,0,0,response1disk,8,7,12.80001163,4.799993634,1,0,0,rectangle,12.80001163,4.799993634,1,0,0,,6,0.001405,12.80001163,4.799993634,1,0,0,0,6,6,6,1,0,,,,,,,,,,,,,,,,,,,,,
,,,,,,,,,,,,,,,,,,,,,,,,,,,,,,,,,,,,,,,,,,5e9b3754687af2039ea9f06c,606841c2af6938803ce011a6,2021-04-03_12h23.17.588,Colour_Similarity_Experiment,2020.2.10,Win32,60,60674ec340277cd6a308bc9f,16.77665522,16.70380194,16.68039969,16.68054038,16.68109683,16.68109683,,,,,,,,,,,,,,,,,,,,PF,weak,3,,,,,,,,6,1.36795,,,,,,,,,,,,,,,,,,,,,,,,,,,,3,weak,56.00001228,24.79999393,1,0,0,response1disk,8,8,2.40001148,-5.600006521,1,0,0,rectangle,2.40001148,-5.600006521,1,0,0,,5,0.001415,2.40001148,-5.600006521,1,0,0,0,7,7,3,1,0,,,,,,,,,,,,,,,,,,,,,
,,,,,,,,,,,,,,,,,,,,,,,,,,,,,,,,,,,,,,,,,,5e9b3754687af2039ea9f06c,606841c2af6938803ce011a6,2021-04-03_12h23.17.588,Colour_Similarity_Experiment,2020.2.10,Win32,60,60674ec340277cd6a308bc9f,16.77665522,16.70380194,16.68039969,16.68054038,16.68109683,16.68109683,,,,,,,,,,,,,,,,,,,,PF,strong,3,,,,,,,,2,3.65377,,,,,,,,,,,,,,,,,,,,,,,,,,,,1,strong,-43.99998921,-33.60000694,1,0,0,response5disk,3,9,9.600060415,5.599993646,1,0,0,rectangle,9.600060415,5.599993646,1,0,0,,4,0.00125,9.600060415,5.599993646,1,0,0,0,8,8,99,1,0,,,,,,,,,,,,,,,,,,,,,
,,,,,,,,,,,,,,,,,,,,,,,,,,,,,,,,,,,,,,,,,,5e9b3754687af2039ea9f06c,606841c2af6938803ce011a6,2021-04-03_12h23.17.588,Colour_Similarity_Experiment,2020.2.10,Win32,60,60674ec340277cd6a308bc9f,16.77665522,16.70380194,16.68039969,16.68054038,16.68109683,16.68109683,,,,,,,,,,,,,,,,,,,,PF,weak,3,,,,,,,,4,3.58677,,,,,,,,,,,,,,,,,,,,,,,,,,,,9,weak,48.00001216,-96.80000788,1,0,0,response3disk,1,10,7.200011551,-5.600006521,1,0,0,rectangle,7.200011551,-5.600006521,1,0,0,,2,0.001385,7.200011551,-5.600006521,1,0,0,0,9,9,74,1,0,,,,,,,,,,,,,,,,,,,,,
,,,,,,,,,,,,,,,,,,,,,,,,,,,,,,,,,,,,,,,,,,5e9b3754687af2039ea9f06c,606841c2af6938803ce011a6,2021-04-03_12h23.17.588,Colour_Similarity_Experiment,2020.2.10,Win32,60,60674ec340277cd6a308bc9f,16.77665522,16.70380194,16.68039969,16.68054038,16.68109683,16.68109683,,,,,,,,,,,,,,,,,,,,PF,weak,3,,,,,,,,5,3.836555,,,,,,,,,,,,,,,,,,,,,,,,,,,,4,weak,54.40001225,-44.8000071,1,0,0,response3disk,2,11,3.200011492,-10.40000659,1,0,0,rectangle,3.200011492,-10.40000659,1,0,0,,4,0.00121,3.200011492,-10.40000659,1,0,0,0,10,10,108,1,0,,,,,,,,,,,,,,,,,,,,,
,,,,,,,,,,,,,,,,,,,,,,,,,,,,,,,,,,,,,,,,,,5e9b3754687af2039ea9f06c,606841c2af6938803ce011a6,2021-04-03_12h23.17.588,Colour_Similarity_Experiment,2020.2.10,Win32,60,60674ec340277cd6a308bc9f,16.77665522,16.70380194,16.68039969,16.68054038,16.68109683,16.68109683,,,,,,,,,,,,,,,,,,,,PF,strong,3,,,,,,,,2,5.58882,,,,,,,,,,,,,,,,,,,,,,,,,,,,2,strong,-39.19998914,-29.60000688,1,0,0,response5disk,8,12,3.200011492,-7.200006545,1,0,0,rectangle,3.200011492,-7.200006545,1,0,0,,4,0.00014,3.200011492,-7.200006545,1,0,0,0,11,11,62,1,0,,,,,,,,,,,,,,,,,,,,,
,,,,,,,,,,,,,,,,,,,,,,,,,,,,,,,,,,,,,,,,,,5e9b3754687af2039ea9f06c,606841c2af6938803ce011a6,2021-04-03_12h23.17.588,Colour_Similarity_Experiment,2020.2.10,Win32,60,60674ec340277cd6a308bc9f,16.77665522,16.70380194,16.68039969,16.68054038,16.68109683,16.68109683,,,,,,,,,,,,,,,,,,,,PF,strong,3,,,,,,,,2,3.87031,,,,,,,,,,,,,,,,,,,,,,,,,,,,5,strong,-39.99998915,-29.60000688,1,0,0,response5disk,5,13,7.200011551,-5.600006521,1,0,0,rectangle,7.200011551,-5.600006521,1,0,0,,1,0.002015,7.200011551,-5.600006521,1,0,0,0,12,12,19,1,0,,,,,,,,,,,,,,,,,,,,,
,,,,,,,,,,,,,,,,,,,,,,,,,,,,,,,,,,,,,,,,,,5e9b3754687af2039ea9f06c,606841c2af6938803ce011a6,2021-04-03_12h23.17.588,Colour_Similarity_Experiment,2020.2.10,Win32,60,60674ec340277cd6a308bc9f,16.77665522,16.70380194,16.68039969,16.68054038,16.68109683,16.68109683,,,,,,,,,,,,,,,,,,,,PF,weak,3,,,,,,,,3,2.351965,,,,,,,,,,,,,,,,,,,,,,,,,,,,3,weak,-27.19998896,-69.60000747,1,0,0,response5disk,5,14,10.4000116,-11.2000066,1,0,0,rectangle,10.4000116,-11.2000066,1,0,0,,4,0.00124,10.4000116,-11.2000066,1,0,0,0,13,13,66,1,0,,,,,,,,,,,,,,,,,,,,,
,,,,,,,,,,,,,,,,,,,,,,,,,,,,,,,,,,,,,,,,,,5e9b3754687af2039ea9f06c,606841c2af6938803ce011a6,2021-04-03_12h23.17.588,Colour_Similarity_Experiment,2020.2.10,Win32,60,60674ec340277cd6a308bc9f,16.77665522,16.70380194,16.68039969,16.68054038,16.68109683,16.68109683,,,,,,,,,,,,,,,,,,,,PF,weak,3,,,,,,,,3,2.33561,,,,,,,,,,,,,,,,,,,,,,,,,,,,1,weak,-23.1999889,-64.00000739,1,0,0,response5disk,2,15,12.00001162,-9.60000658,1,0,0,rectangle,12.00001162,-9.60000658,1,0,0,,3,0.00153,12.00001162,-9.60000658,1,0,0,0,14,14,24,1,0,,,,,,,,,,,,,,,,,,,,,
,,,,,,,,,,,,,,,,,,,,,,,,,,,,,,,,,,,,,,,,,,5e9b3754687af2039ea9f06c,606841c2af6938803ce011a6,2021-04-03_12h23.17.588,Colour_Similarity_Experiment,2020.2.10,Win32,60,60674ec340277cd6a308bc9f,16.77665522,16.70380194,16.68039969,16.68054038,16.68109683,16.68109683,,,,,,,,,,,,,,,,,,,,PF,weak,3,,,,,,,,5,2.83591,,,,,,,,,,,,,,,,,,,,,,,,,,,,2,weak,35.20001197,-31.2000069,1,0,0,response3disk,9,16,-0.799988568,-7.200006545,1,0,0,rectangle,-0.799988568,-7.200006545,1,0,0,,4,0.001555,-0.799988568,-7.200006545,1,0,0,0,15,15,39,1,0,,,,,,,,,,,,,,,,,,,,,
,,,,,,,,,,,,,,,,,,,,,,,,,,,,,,,,,,,,,,,,,,5e9b3754687af2039ea9f06c,606841c2af6938803ce011a6,2021-04-03_12h23.17.588,Colour_Similarity_Experiment,2020.2.10,Win32,60,60674ec340277cd6a308bc9f,16.77665522,16.70380194,16.68039969,16.68054038,16.68109683,16.68109683,,,,,,,,,,,,,,,,,,,,PF,strong,3,,,,,,,,5,3.036145,,,,,,,,,,,,,,,,,,,,,,,,,,,,7,strong,56.00001228,-36.00000697,1,0,0,response3disk,7,17,8.800011575,-14.40000665,1,0,0,rectangle,8.800011575,-14.40000665,1,0,0,,7,0.001245,8.800011575,-14.40000665,1,0,0,0,16,16,34,1,0,,,,,,,,,,,,,,,,,,,,,
,,,,,,,,,,,,,,,,,,,,,,,,,,,,,,,,,,,,,,,,,,5e9b3754687af2039ea9f06c,606841c2af6938803ce011a6,2021-04-03_12h23.17.588,Colour_Similarity_Experiment,2020.2.10,Win32,60,60674ec340277cd6a308bc9f,16.77665522,16.70380194,16.68039969,16.68054038,16.68109683,16.68109683,,,,,,,,,,,,,,,,,,,,PF,weak,3,,,,,,,,6,1.451345,,,,,,,,,,,,,,,,,,,,,,,,,,,,9,weak,59.20001233,33.59999406,1,0,0,response1disk,3,18,7.200011551,-1.600006461,1,0,0,rectangle,7.200011551,-1.600006461,1,0,0,,5,0.001385,7.200011551,-1.600006461,1,0,0,0,17,17,119,1,0,,,,,,,,,,,,,,,,,,,,,
,,,,,,,,,,,,,,,,,,,,,,,,,,,,,,,,,,,,,,,,,,5e9b3754687af2039ea9f06c,606841c2af6938803ce011a6,2021-04-03_12h23.17.588,Colour_Similarity_Experiment,2020.2.10,Win32,60,60674ec340277cd6a308bc9f,16.77665522,16.70380194,16.68039969,16.68054038,16.68109683,16.68109683,,,,,,,,,,,,,,,,,,,,PF,weak,3,,,,,,,,6,3.203195,,,,,,,,,,,,,,,,,,,,,,,,,,,,2,weak,72.00001252,23.99999392,0,0,1,response1disk,4,19,9.600060415,7.999993682,1,0,0,rectangle,9.600060415,7.999993682,1,0,0,,6,0.00081,9.600060415,7.999993682,1,0,0,0,18,18,127,1,0,,,,,,,,,,,,,,,,,,,,,
,,,,,,,,,,,,,,,,,,,,,,,,,,,,,,,,,,,,,,,,,,5e9b3754687af2039ea9f06c,606841c2af6938803ce011a6,2021-04-03_12h23.17.588,Colour_Similarity_Experiment,2020.2.10,Win32,60,60674ec340277cd6a308bc9f,16.77665522,16.70380194,16.68039969,16.68054038,16.68109683,16.68109683,,,,,,,,,,,,,,,,,,,,PF,weak,3,,,,,,,,3,2.450075,,,,,,,,,,,,,,,,,,,,,,,,,,,,1,weak,-32.79998904,-54.40000725,1,0,0,response5disk,9,20,-4.799988627,-9.60000658,1,0,0,rectangle,-4.799988627,-9.60000658,1,0,0,,4,0.00076,-4.799988627,-9.60000658,1,0,0,0,19,19,15,1,0,,,,,,,,,,,,,,,,,,,,,
,,,,,,,,,,,,,,,,,,,,,,,,,,,,,,,,,,,,,,,,,,5e9b3754687af2039ea9f06c,606841c2af6938803ce011a6,2021-04-03_12h23.17.588,Colour_Similarity_Experiment,2020.2.10,Win32,60,60674ec340277cd6a308bc9f,16.77665522,16.70380194,16.68039969,16.68054038,16.68109683,16.68109683,,,,,,,,,,,,,,,,,,,,PF,weak,3,,,,,,,,7,1.699815,,,,,,,,,,,,,,,,,,,,,,,,,,,,9,weak,42.40001208,60.79999447,1,0,0,response1disk,4,21,4.800011516,-6.4373E-06,1,0,0,rectangle,4.800011516,-6.4373E-06,1,0,0,,3,0.000925,4.800011516,-6.4373E-06,1,0,0,0,20,20,114,1,0,,,,,,,,,,,,,,,,,,,,,
,,,,,,,,,,,,,,,,,,,,,,,,,,,,,,,,,,,,,,,,,,5e9b3754687af2039ea9f06c,606841c2af6938803ce011a6,2021-04-03_12h23.17.588,Colour_Similarity_Experiment,2020.2.10,Win32,60,60674ec340277cd6a308bc9f,16.77665522,16.70380194,16.68039969,16.68054038,16.68109683,16.68109683,,,,,,,,,,,,,,,,,,,,PF,weak,3,,,,,,,,2,2.16653,,,,,,,,,,,,,,,,,,,,,,,,,,,,5,weak,-62.39994066,-34.40000695,1,0,0,response5disk,5,22,-8.799988687,-4.000006497,1,0,0,rectangle,-8.799988687,-4.000006497,1,0,0,,3,0.000305,-8.799988687,-4.000006497,1,0,0,0,21,21,94,1,0,,,,,,,,,,,,,,,,,,,,,
,,,,,,,,,,,,,,,,,,,,,,,,,,,,,,,,,,,,,,,,,,5e9b3754687af2039ea9f06c,606841c2af6938803ce011a6,2021-04-03_12h23.17.588,Colour_Similarity_Experiment,2020.2.10,Win32,60,60674ec340277cd6a308bc9f,16.77665522,16.70380194,16.68039969,16.68054038,16.68109683,16.68109683,,,,,,,,,,,,,,,,,,,,PF,strong,3,,,,,,,,6,3.13382,,,,,,,,,,,,,,,,,,,,,,,,,,,,2,strong,61.60001236,35.19996967,1,0,0,response1disk,3,23,0.800011456,7.999993682,1,0,0,rectangle,-63.1999895,33.59999406,1,0,0,1,1,4.304635,-3.199988604,-6.4373E-06,1,0,0,0,22,22,104,1,1,response7disk_3,rectangle,,,,,,,,,,,,,,,,,,,
,,,,,,,,,,,,,,,,,,,,,,,,,,,,,,,,,,,,,,,,,,5e9b3754687af2039ea9f06c,606841c2af6938803ce011a6,2021-04-03_12h23.17.588,Colour_Similarity_Experiment,2020.2.10,Win32,60,60674ec340277cd6a308bc9f,16.77665522,16.70380194,16.68039969,16.68054038,16.68109683,16.68109683,,,,,,,,,,,,,,,,,,,,PF,strong,3,,,,,,,,4,4.85282,,,,,,,,,,,,,,,,,,,,,,,,,,,,1,strong,29.60006071,-40.00000703,1,0,0,response3disk,6,24,6.400011539,-3.200006485,1,0,0,rectangle,6.400011539,-3.200006485,1,0,0,1,0,0.000755,6.400011539,-3.200006485,1,0,0,0,23,23,58,1,0,,,,,,,,,,,,,,,,,,,,,
,,,,,,,,,,,,,,,,,,,,,,,,,,,,,,,,,,,,,,,,,,5e9b3754687af2039ea9f06c,606841c2af6938803ce011a6,2021-04-03_12h23.17.588,Colour_Similarity_Experiment,2020.2.10,Win32,60,60674ec340277cd6a308bc9f,16.77665522,16.70380194,16.68039969,16.68054038,16.68109683,16.68109683,,,,,,,,,,,,,,,,,,,,PF,strong,3,,,,,,,,4,2.568825,,,,,,,,,,,,,,,,,,,,,,,,,,,,6,strong,41.60006089,-52.00000721,1,0,0,response3disk,8,25,1.14441E-05,-3.200006485,0,0,1,rectangle,1.14441E-05,-3.200006485,0,0,1,1,0,0.000135,1.14441E-05,-3.200006485,0,0,1,0,24,24,133,1,0,,,,,,,,,,,,,,,,,,,,,
,,,,,,,,,,,,,,,,,,,,,,,,,,,,,,,,,,,,,,,,,,5e9b3754687af2039ea9f06c,606841c2af6938803ce011a6,2021-04-03_12h23.17.588,Colour_Similarity_Experiment,2020.2.10,Win32,60,60674ec340277cd6a308bc9f,16.77665522,16.70380194,16.68039969,16.68054038,16.68109683,16.68109683,,,,,,,,,,,,,,,,,,,,PF,strong,3,,,,,,,,2,3.10017,,,,,,,,,,,,,,,,,,,,,,,,,,,,9,strong,-74.39994084,-37.600007,1,0,0,response5disk,3,26,4.000011504,10.39999372,1,0,0,rectangle,4.000011504,10.39999372,1,0,0,1,6,0.000825,4.000011504,10.39999372,1,0,0,0,25,25,141,1,0,,,,,,,,,,,,,,,,,,,,,
,,,,,,,,,,,,,,,,,,,,,,,,,,,,,,,,,,,,,,,,,,5e9b3754687af2039ea9f06c,606841c2af6938803ce011a6,2021-04-03_12h23.17.588,Colour_Similarity_Experiment,2020.2.10,Win32,60,60674ec340277cd6a308bc9f,16.77665522,16.70380194,16.68039969,16.68054038,16.68109683,16.68109683,,,,,,,,,,,,,,,,,,,,PF,weak,3,,,,,,,,7,2.36919,,,,,,,,,,,,,,,,,,,,,,,,,,,,9,weak,33.60006077,91.99999493,1,0,0,response1disk,2,27,-1.59998858,0.799993575,1,0,0,rectangle,-1.59998858,0.799993575,1,0,0,1,6,0.000255,-1.59998858,0.799993575,1,0,0,0,26,26,157,1,0,,,,,,,,,,,,,,,,,,,,,
,,,,,,,,,,,,,,,,,,,,,,,,,,,,,,,,,,,,,,,,,,5e9b3754687af2039ea9f06c,606841c2af6938803ce011a6,2021-04-03_12h23.17.588,Colour_Similarity_Experiment,2020.2.10,Win32,60,60674ec340277cd6a308bc9f,16.77665522,16.70380194,16.68039969,16.68054038,16.68109683,16.68109683,,,,,,,,,,,,,,,,,,,,PF,weak,3,,,,,,,,6,1.48195,,,,,,,,,,,,,,,,,,,,,,,,,,,,3,weak,54.40001225,19.99999386,1,0,0,response1disk,7,28,9.600060415,-6.4373E-06,1,0,0,rectangle,9.600060415,-6.4373E-06,1,0,0,1,3,0.00085,9.600060415,-6.4373E-06,1,0,0,0,27,27,41,1,0,,,,,,,,,,,,,,,,,,,,,
,,,,,,,,,,,,,,,,,,,,,,,,,,,,,,,,,,,,,,,,,,5e9b3754687af2039ea9f06c,606841c2af6938803ce011a6,2021-04-03_12h23.17.588,Colour_Similarity_Experiment,2020.2.10,Win32,60,60674ec340277cd6a308bc9f,16.77665522,16.70380194,16.68039969,16.68054038,16.68109683,16.68109683,,,,,,,,,,,,,,,,,,,,PF,strong,3,,,,,,,,6,1.682805,,,,,,,,,,,,,,,,,,,,,,,,,,,,8,strong,61.60001236,34.39999408,1,0,0,response1disk,6,29,22.40001178,0.799993575,1,0,0,rectangle,22.40001178,0.799993575,1,0,0,1,2,0.00216,22.40001178,0.799993575,1,0,0,0,28,28,37,1,0,,,,,,,,,,,,,,,,,,,,,
,,,,,,,,,,,,,,,,,,,,,,,,,,,,,,,,,,,,,,,,,,5e9b3754687af2039ea9f06c,606841c2af6938803ce011a6,2021-04-03_12h23.17.588,Colour_Similarity_Experiment,2020.2.10,Win32,60,60674ec340277cd6a308bc9f,16.77665522,16.70380194,16.68039969,16.68054038,16.68109683,16.68109683,,,,,,,,,,,,,,,,,,,,PF,weak,3,,,,,,,,7,1.01516,,,,,,,,,,,,,,,,,,,,,,,,,,,,8,weak,34.40001196,58.39999443,1,0,0,response1disk,3,30,6.400011539,1.599993587,1,0,0,rectangle,6.400011539,1.599993587,1,0,0,1,0,0.00084,6.400011539,1.599993587,1,0,0,0,29,29,71,1,0,,,,,,,,,,,,,,,,,,,,,
,,,,,,,,,,,,,,,,,,,,,,,,,,,,,,,,,,,,,,,,,,5e9b3754687af2039ea9f06c,606841c2af6938803ce011a6,2021-04-03_12h23.17.588,Colour_Similarity_Experiment,2020.2.10,Win32,60,60674ec340277cd6a308bc9f,16.77665522,16.70380194,16.68039969,16.68054038,16.68109683,16.68109683,,,,,,,,,,,,,,,,,,,,PF,strong,3,,,,,,,,4,3.117685,,,,,,,,,,,,,,,,,,,,,,,,,,,,4,strong,26.40001184,-78.40000761,1,0,0,response3disk,3,31,-6.399939823,2.399993598,1,0,0,rectangle,-6.399939823,2.399993598,1,0,0,1,7,0.000655,-6.399939823,2.399993598,1,0,0,0,30,30,77,1,0,,,,,,,,,,,,,,,,,,,,,
,,,,,,,,,,,,,,,,,,,,,,,,,,,,,,,,,,,,,,,,,,5e9b3754687af2039ea9f06c,606841c2af6938803ce011a6,2021-04-03_12h23.17.588,Colour_Similarity_Experiment,2020.2.10,Win32,60,60674ec340277cd6a308bc9f,16.77665522,16.70380194,16.68039969,16.68054038,16.68109683,16.68109683,,,,,,,,,,,,,,,,,,,,PF,strong,3,,,,,,,,6,1.5315,,,,,,,,,,,,,,,,,,,,,,,,,,,,5,strong,49.60006101,35.9999941,1,0,0,response1disk,8,32,-11.99998873,-4.800006509,1,0,0,rectangle,-11.99998873,-4.800006509,1,0,0,1,6,0.000935,-11.99998873,-4.800006509,1,0,0,0,31,31,16,1,0,,,,,,,,,,,,,,,,,,,,,
,,,,,,,,,,,,,,,,,,,,,,,,,,,,,,,,,,,,,,,,,,5e9b3754687af2039ea9f06c,606841c2af6938803ce011a6,2021-04-03_12h23.17.588,Colour_Similarity_Experiment,2020.2.10,Win32,60,60674ec340277cd6a308bc9f,16.77665522,16.70380194,16.68039969,16.68054038,16.68109683,16.68109683,,,,,,,,,,,,,,,,,,,,PF,strong,3,,,,,,,,5,3.504365,,,,,,,,,,,,,,,,,,,,,,,,,,,,1,strong,52.00001222,-23.20000678,1,0,0,response3disk,2,33,9.600060415,-6.4373E-06,1,0,0,rectangle,9.600060415,-6.4373E-06,1,0,0,1,2,0.00075,9.600060415,-6.4373E-06,1,0,0,0,32,32,2,1,0,,,,,,,,,,,,,,,,,,,,,
,,,,,,,,,,,,,,,,,,,,,,,,,,,,,,,,,,,,,,,,,,5e9b3754687af2039ea9f06c,606841c2af6938803ce011a6,2021-04-03_12h23.17.588,Colour_Similarity_Experiment,2020.2.10,Win32,60,60674ec340277cd6a308bc9f,16.77665522,16.70380194,16.68039969,16.68054038,16.68109683,16.68109683,,,,,,,,,,,,,,,,,,,,PF,weak,3,,,,,,,,7,1.716845,,,,,,,,,,,,,,,,,,,,,,,,,,,,8,weak,49.60006101,87.99999487,1,0,0,response1disk,4,34,5.600060356,5.599993646,1,0,0,rectangle,5.600060356,5.599993646,1,0,0,1,3,0.00104,5.600060356,5.599993646,1,0,0,0,33,33,78,1,0,,,,,,,,,,,,,,,,,,,,,
,,,,,,,,,,,,,,,,,,,,,,,,,,,,,,,,,,,,,,,,,,5e9b3754687af2039ea9f06c,606841c2af6938803ce011a6,2021-04-03_12h23.17.588,Colour_Similarity_Experiment,2020.2.10,Win32,60,60674ec340277cd6a308bc9f,16.77665522,16.70380194,16.68039969,16.68054038,16.68109683,16.68109683,,,,,,,,,,,,,,,,,,,,PF,strong,3,,,,,,,,4,3.51748,,,,,,,,,,,,,,,,,,,,,,,,,,,,5,strong,30.4000119,-63.20000738,1,0,0,response3disk,7,35,-4.799988627,3.999993622,1,0,0,rectangle,-4.799988627,3.999993622,1,0,0,1,1,0.00087,-4.799988627,3.999993622,1,0,0,0,34,34,7,1,0,,,,,,,,,,,,,,,,,,,,,
,,,,,,,,,,,,,,,,,,,,,,,,,,,,,,,,,,,,,,,,,,5e9b3754687af2039ea9f06c,606841c2af6938803ce011a6,2021-04-03_12h23.17.588,Colour_Similarity_Experiment,2020.2.10,Win32,60,60674ec340277cd6a308bc9f,16.77665522,16.70380194,16.68039969,16.68054038,16.68109683,16.68109683,,,,,,,,,,,,,,,,,,,,PF,strong,3,,,,,,,,3,1.531455,,,,,,,,,,,,,,,,,,,,,,,,,,,,3,strong,-38.3999403,-61.60000736,1,0,0,response5disk,5,36,-6.399939823,-8.000006557,1,0,0,rectangle,-6.399939823,-8.000006557,1,0,0,1,1,0.000155,-6.399939823,-8.000006557,1,0,0,0,35,35,101,1,0,,,,,,,,,,,,,,,,,,,,,
,,,,,,,,,,,,,,,,,,,,,,,,,,,,,,,,,,,,,,,,,,5e9b3754687af2039ea9f06c,606841c2af6938803ce011a6,2021-04-03_12h23.17.588,Colour_Similarity_Experiment,2020.2.10,Win32,60,60674ec340277cd6a308bc9f,16.77665522,16.70380194,16.68039969,16.68054038,16.68109683,16.68109683,,,,,,,,,,,,,,,,,,,,PF,weak,3,,,,,,,,2,1.215595,,,,,,,,,,,,,,,,,,,,,,,,,,,,5,weak,-51.19998932,-34.40000695,1,0,0,response5disk,4,37,9.600060415,-6.4373E-06,1,0,0,rectangle,9.600060415,-6.4373E-06,1,0,0,1,2,0.000895,9.600060415,-6.4373E-06,1,0,0,0,36,36,54,1,0,,,,,,,,,,,,,,,,,,,,,
,,,,,,,,,,,,,,,,,,,,,,,,,,,,,,,,,,,,,,,,,,5e9b3754687af2039ea9f06c,606841c2af6938803ce011a6,2021-04-03_12h23.17.588,Colour_Similarity_Experiment,2020.2.10,Win32,60,60674ec340277cd6a308bc9f,16.77665522,16.70380194,16.68039969,16.68054038,16.68109683,16.68109683,,,,,,,,,,,,,,,,,,,,PF,weak,3,,,,,,,,6,2.316445,,,,,,,,,,,,,,,,,,,,,,,,,,,,7,weak,55.20001227,30.39999402,1,0,0,response1disk,5,38,2.40001148,-3.200006485,1,0,0,rectangle,2.40001148,-3.200006485,1,0,0,1,5,0.000865,2.40001148,-3.200006485,1,0,0,0,37,37,92,1,0,,,,,,,,,,,,,,,,,,,,,
,,,,,,,,,,,,,,,,,,,,,,,,,,,,,,,,,,,,,,,,,,5e9b3754687af2039ea9f06c,606841c2af6938803ce011a6,2021-04-03_12h23.17.588,Colour_Similarity_Experiment,2020.2.10,Win32,60,60674ec340277cd6a308bc9f,16.77665522,16.70380194,16.68039969,16.68054038,16.68109683,16.68109683,,,,,,,,,,,,,,,,,,,,PF,strong,3,,,,,,,,6,1.63232,,,,,,,,,,,,,,,,,,,,,,,,,,,,8,strong,53.60001224,27.99999398,1,0,0,response1disk,2,39,3.200011492,-4.800006509,1,0,0,rectangle,3.200011492,-4.800006509,1,0,0,1,0,0.00082,3.200011492,-4.800006509,1,0,0,0,38,38,22,1,0,,,,,,,,,,,,,,,,,,,,,
,,,,,,,,,,,,,,,,,,,,,,,,,,,,,,,,,,,,,,,,,,5e9b3754687af2039ea9f06c,606841c2af6938803ce011a6,2021-04-03_12h23.17.588,Colour_Similarity_Experiment,2020.2.10,Win32,60,60674ec340277cd6a308bc9f,16.77665522,16.70380194,16.68039969,16.68054038,16.68109683,16.68109683,,,,,,,,,,,,,,,,,,,,PF,weak,3,,,,,,,,0,1.63245,,,,,,,,,,,,,,,,,,,,,,,,,,,,2,weak,-34.39994024,70.39999461,1,0,0,response7disk,2,40,-2.399939764,-4.000006497,1,0,0,rectangle,-2.399939764,-4.000006497,1,0,0,1,2,0.00098,-2.399939764,-4.000006497,1,0,0,0,39,39,14,1,0,,,,,,,,,,,,,,,,,,,,,
,,,,,,,,,,,,,,,,,,,,,,,,,,,,,,,,,,,,,,,,,,5e9b3754687af2039ea9f06c,606841c2af6938803ce011a6,2021-04-03_12h23.17.588,Colour_Similarity_Experiment,2020.2.10,Win32,60,60674ec340277cd6a308bc9f,16.77665522,16.70380194,16.68039969,16.68054038,16.68109683,16.68109683,,,,,,,,,,,,,,,,,,,,PF,strong,3,,,,,,,,1,2.553355,,,,,,,,,,,,,,,,,,,,,,,,,,,,9,strong,-56.7999894,33.59999406,1,0,0,response7disk,9,41,3.200011492,2.399993598,1,0,0,rectangle,3.200011492,2.399993598,1,0,0,1,0,0.000965,3.200011492,2.399993598,1,0,0,0,40,40,17,1,0,,,,,,,,,,,,,,,,,,,,,
,,,,,,,,,,,,,,,,,,,,,,,,,,,,,,,,,,,,,,,,,,5e9b3754687af2039ea9f06c,606841c2af6938803ce011a6,2021-04-03_12h23.17.588,Colour_Similarity_Experiment,2020.2.10,Win32,60,60674ec340277cd6a308bc9f,16.77665522,16.70380194,16.68039969,16.68054038,16.68109683,16.68109683,,,,,,,,,,,,,,,,,,,,PF,weak,3,,,,,,,,1,1.64921,,,,,,,,,,,,,,,,,,,,,,,,,,,,7,weak,-89.59998989,81.59999478,1,0,0,response7disk,7,42,-3.199988604,3.19999361,1,0,0,rectangle,-3.199988604,3.19999361,1,0,0,1,4,0.000855,-3.199988604,3.19999361,1,0,0,0,41,41,51,1,0,,,,,,,,,,,,,,,,,,,,,
,,,,,,,,,,,,,,,,,,,,,,,,,,,,,,,,,,,,,,,,,,5e9b3754687af2039ea9f06c,606841c2af6938803ce011a6,2021-04-03_12h23.17.588,Colour_Similarity_Experiment,2020.2.10,Win32,60,60674ec340277cd6a308bc9f,16.77665522,16.70380194,16.68039969,16.68054038,16.68109683,16.68109683,,,,,,,,,,,,,,,,,,,,PF,strong,3,,,,,,,,3,3.10058,,,,,,,,,,,,,,,,,,,,,,,,,,,,8,strong,-32.79998904,-84.8000077,1,0,0,response5disk,5,43,-3.999988616,-3.200006485,1,0,0,rectangle,-3.999988616,-3.200006485,1,0,0,1,1,0.00083,-3.999988616,-3.200006485,1,0,0,0,42,42,152,1,0,,,,,,,,,,,,,,,,,,,,,
,,,,,,,,,,,,,,,,,,,,,,,,,,,,,,,,,,,,,,,,,,5e9b3754687af2039ea9f06c,606841c2af6938803ce011a6,2021-04-03_12h23.17.588,Colour_Similarity_Experiment,2020.2.10,Win32,60,60674ec340277cd6a308bc9f,16.77665522,16.70380194,16.68039969,16.68054038,16.68109683,16.68109683,,,,,,,,,,,,,,,,,,,,PF,weak,3,,,,,,,,7,1.63265,,,,,,,,,,,,,,,,,,,,,,,,,,,,4,weak,44.80001211,84.79999483,1,0,0,response1disk,9,44,8.000011563,7.19999367,1,0,0,rectangle,8.000011563,7.19999367,1,0,0,1,0,0.00106,8.000011563,7.19999367,1,0,0,0,43,43,75,1,0,,,,,,,,,,,,,,,,,,,,,
,,,,,,,,,,,,,,,,,,,,,,,,,,,,,,,,,,,,,,,,,,5e9b3754687af2039ea9f06c,606841c2af6938803ce011a6,2021-04-03_12h23.17.588,Colour_Similarity_Experiment,2020.2.10,Win32,60,60674ec340277cd6a308bc9f,16.77665522,16.70380194,16.68039969,16.68054038,16.68109683,16.68109683,,,,,,,,,,,,,,,,,,,,PF,weak,3,,,,,,,,6,1.735775,,,,,,,,,,,,,,,,,,,,,,,,,,,,6,weak,79.20001262,45.59999424,1,0,0,response1disk,4,45,7.200011551,6.399993658,1,0,0,rectangle,7.200011551,6.399993658,1,0,0,1,1,0.001055,7.200011551,6.399993658,1,0,0,0,44,44,33,1,0,,,,,,,,,,,,,,,,,,,,,
,,,,,,,,,,,,,,,,,,,,,,,,,,,,,,,,,,,,,,,,,,5e9b3754687af2039ea9f06c,606841c2af6938803ce011a6,2021-04-03_12h23.17.588,Colour_Similarity_Experiment,2020.2.10,Win32,60,60674ec340277cd6a308bc9f,16.77665522,16.70380194,16.68039969,16.68054038,16.68109683,16.68109683,,,,,,,,,,,,,,,,,,,,PF,strong,3,,,,,,,,6,2.26659,,,,,,,,,,,,,,,,,,,,,,,,,,,,1,strong,72.00001252,46.39999425,1,0,0,response1disk,1,46,4.000011504,3.19999361,1,0,0,rectangle,4.000011504,3.19999361,1,0,0,1,0,0.00078,4.000011504,3.19999361,1,0,0,0,45,45,151,1,0,,,,,,,,,,,,,,,,,,,,,
,,,,,,,,,,,,,,,,,,,,,,,,,,,,,,,,,,,,,,,,,,5e9b3754687af2039ea9f06c,606841c2af6938803ce011a6,2021-04-03_12h23.17.588,Colour_Similarity_Experiment,2020.2.10,Win32,60,60674ec340277cd6a308bc9f,16.77665522,16.70380194,16.68039969,16.68054038,16.68109683,16.68109683,,,,,,,,,,,,,,,,,,,,PF,weak,3,,,,,,,,7,1.64824,,,,,,,,,,,,,,,,,,,,,,,,,,,,6,weak,48.80001217,61.59999448,1,0,0,response1disk,2,47,15.20001167,-1.600006461,1,0,0,rectangle,15.20001167,-1.600006461,1,0,0,1,5,0.0008,15.20001167,-1.600006461,1,0,0,0,46,46,130,1,0,,,,,,,,,,,,,,,,,,,,,
,,,,,,,,,,,,,,,,,,,,,,,,,,,,,,,,,,,,,,,,,,5e9b3754687af2039ea9f06c,606841c2af6938803ce011a6,2021-04-03_12h23.17.588,Colour_Similarity_Experiment,2020.2.10,Win32,60,60674ec340277cd6a308bc9f,16.77665522,16.70380194,16.68039969,16.68054038,16.68109683,16.68109683,,,,,,,,,,,,,,,,,,,,PF,weak,3,,,,,,,,7,1.29756,,,,,,,,,,,,,,,,,,,,,,,,,,,,9,weak,44.0000121,67.99999458,1,0,0,response1disk,5,48,14.40001166,3.19999361,1,0,0,rectangle,14.40001166,3.19999361,1,0,0,1,5,7.5E-05,14.40001166,3.19999361,1,0,0,0,47,47,134,1,0,,,,,,,,,,,,,,,,,,,,,
,,,,,,,,,,,,,,,,,,,,,,,,,,,,,,,,,,,,,,,,,,5e9b3754687af2039ea9f06c,606841c2af6938803ce011a6,2021-04-03_12h23.17.588,Colour_Similarity_Experiment,2020.2.10,Win32,60,60674ec340277cd6a308bc9f,16.77665522,16.70380194,16.68039969,16.68054038,16.68109683,16.68109683,,,,,,,,,,,,,,,,,,,,PF,strong,3,,,,,,,,6,1.79934,,,,,,,,,,,,,,,,,,,,,,,,,,,,1,strong,50.4000122,30.39999402,1,0,0,response1disk,7,49,5.600060356,-5.600006521,1,0,0,rectangle,5.600060356,-5.600006521,1,0,0,1,3,0.000835,5.600060356,-5.600006521,1,0,0,0,48,48,137,1,0,,,,,,,,,,,,,,,,,,,,,
,,,,,,,,,,,,,,,,,,,,,,,,,,,,,,,,,,,,,,,,,,5e9b3754687af2039ea9f06c,606841c2af6938803ce011a6,2021-04-03_12h23.17.588,Colour_Similarity_Experiment,2020.2.10,Win32,60,60674ec340277cd6a308bc9f,16.77665522,16.70380194,16.68039969,16.68054038,16.68109683,16.68109683,,,,,,,,,,,,,,,,,,,,PF,strong,3,,,,,,,,4,2.369135,,,,,,,,,,,,,,,,,,,,,,,,,,,,7,strong,51.20001221,-65.60000741,1,0,0,response3disk,6,50,12.80001163,-4.000006497,1,0,0,rectangle,12.80001163,-4.000006497,1,0,0,1,4,0.000955,12.80001163,-4.000006497,1,0,0,0,49,49,31,1,0,,,,,,,,,,,,,,,,,,,,,
,,,,,,,,,,,,,,,,,,,,,,,,,,,,,,,,,,,,,,,,,,5e9b3754687af2039ea9f06c,606841c2af6938803ce011a6,2021-04-03_12h23.17.588,Colour_Similarity_Experiment,2020.2.10,Win32,60,60674ec340277cd6a308bc9f,16.77665522,16.70380194,16.68039969,16.68054038,16.68109683,16.68109683,,,,,,,,,,,,,,,,,,,,PF,weak,3,,,,,,,,7,1.448665,,,,,,,,,,,,,,,,,,,,,,,,,,,,4,weak,44.80001211,63.19997009,1,0,0,response1disk,7,51,16.80001169,-0.800006449,1,0,0,rectangle,16.80001169,-0.800006449,1,0,0,1,3,0.000765,16.80001169,-0.800006449,1,0,0,0,50,50,38,1,0,,,,,,,,,,,,,,,,,,,,,
,,,,,,,,,,,,,,,,,,,,,,,,,,,,,,,,,,,,,,,,,,5e9b3754687af2039ea9f06c,606841c2af6938803ce011a6,2021-04-03_12h23.17.588,Colour_Similarity_Experiment,2020.2.10,Win32,60,60674ec340277cd6a308bc9f,16.77665522,16.70380194,16.68039969,16.68054038,16.68109683,16.68109683,,,,,,,,,,,,,,,,,,,,PF,strong,3,,,,,,,,2,1.69906,,,,,,,,,,,,,,,,,,,,,,,,,,,,3,strong,-55.19998938,-48.00000715,1,0,0,response5disk,3,52,6.400011539,-8.800006568,1,0,0,rectangle,6.400011539,-8.800006568,1,0,0,1,6,0.000825,6.400011539,-8.800006568,1,0,0,0,51,51,68,1,0,,,,,,,,,,,,,,,,,,,,,
,,,,,,,,,,,,,,,,,,,,,,,,,,,,,,,,,,,,,,,,,,5e9b3754687af2039ea9f06c,606841c2af6938803ce011a6,2021-04-03_12h23.17.588,Colour_Similarity_Experiment,2020.2.10,Win32,60,60674ec340277cd6a308bc9f,16.77665522,16.70380194,16.68039969,16.68054038,16.68109683,16.68109683,,,,,,,,,,,,,,,,,,,,PF,strong,3,,,,,,,,6,1.865985,,,,,,,,,,,,,,,,,,,,,,,,,,,,7,strong,72.80001253,35.19996967,1,0,0,response1disk,2,53,-1.59998858,-3.200006485,1,0,0,rectangle,-1.59998858,-3.200006485,1,0,0,1,0,0.00074,-1.59998858,-3.200006485,1,0,0,0,52,52,138,1,0,,,,,,,,,,,,,,,,,,,,,
,,,,,,,,,,,,,,,,,,,,,,,,,,,,,,,,,,,,,,,,,,5e9b3754687af2039ea9f06c,606841c2af6938803ce011a6,2021-04-03_12h23.17.588,Colour_Similarity_Experiment,2020.2.10,Win32,60,60674ec340277cd6a308bc9f,16.77665522,16.70380194,16.68039969,16.68054038,16.68109683,16.68109683,,,,,,,,,,,,,,,,,,,,PF,weak,3,,,,,,,,6,1.332285,,,,,,,,,,,,,,,,,,,,,,,,,,,,5,weak,84.80001271,31.19996961,1,0,0,response1disk,1,54,10.4000116,2.399993598,1,0,0,rectangle,-65.59998953,35.9999941,1,0,0,1,1,2.269355,0.800011456,-6.4373E-06,1,0,0,0,53,53,159,1,1,response7disk_3,rectangle,,,,,,,,,,,,,,,,,,,
,,,,,,,,,,,,,,,,,,,,,,,,,,,,,,,,,,,,,,,,,,5e9b3754687af2039ea9f06c,606841c2af6938803ce011a6,2021-04-03_12h23.17.588,Colour_Similarity_Experiment,2020.2.10,Win32,60,60674ec340277cd6a308bc9f,16.77665522,16.70380194,16.68039969,16.68054038,16.68109683,16.68109683,,,,,,,,,,,,,,,,,,,,PF,weak,3,,,,,,,,6,1.969015,,,,,,,,,,,,,,,,,,,,,,,,,,,,7,weak,72.00001252,29.599994,1,0,0,response1disk,3,55,-3.999988616,-0.800006449,1,0,0,rectangle,-3.999988616,-0.800006449,1,0,0,1,7,0.00087,-3.999988616,-0.800006449,1,0,0,0,54,54,81,1,0,,,,,,,,,,,,,,,,,,,,,
,,,,,,,,,,,,,,,,,,,,,,,,,,,,,,,,,,,,,,,,,,5e9b3754687af2039ea9f06c,606841c2af6938803ce011a6,2021-04-03_12h23.17.588,Colour_Similarity_Experiment,2020.2.10,Win32,60,60674ec340277cd6a308bc9f,16.77665522,16.70380194,16.68039969,16.68054038,16.68109683,16.68109683,,,,,,,,,,,,,,,,,,,,PF,strong,3,,,,,,,,5,2.51726,,,,,,,,,,,,,,,,,,,,,,,,,,,,2,strong,56.80001229,-40.00000703,1,0,0,response3disk,7,56,12.00001162,-6.400006533,1,0,0,rectangle,12.00001162,-6.400006533,1,0,0,1,1,0.000805,12.00001162,-6.400006533,1,0,0,0,55,55,63,1,0,,,,,,,,,,,,,,,,,,,,,
,,,,,,,,,,,,,,,,,,,,,,,,,,,,,,,,,,,,,,,,,,5e9b3754687af2039ea9f06c,606841c2af6938803ce011a6,2021-04-03_12h23.17.588,Colour_Similarity_Experiment,2020.2.10,Win32,60,60674ec340277cd6a308bc9f,16.77665522,16.70380194,16.68039969,16.68054038,16.68109683,16.68109683,,,,,,,,,,,,,,,,,,,,PF,weak,3,,,,,,,,7,1.13133,,,,,,,,,,,,,,,,,,,,,,,,,,,,8,weak,24.80001181,56.79999441,1,0,0,response1disk,5,57,16.00001168,-11.2000066,1,0,0,rectangle,16.00001168,-11.2000066,1,0,0,1,1,0.00029,16.00001168,-11.2000066,1,0,0,0,56,56,98,1,0,,,,,,,,,,,,,,,,,,,,,
,,,,,,,,,,,,,,,,,,,,,,,,,,,,,,,,,,,,,,,,,,5e9b3754687af2039ea9f06c,606841c2af6938803ce011a6,2021-04-03_12h23.17.588,Colour_Similarity_Experiment,2020.2.10,Win32,60,60674ec340277cd6a308bc9f,16.77665522,16.70380194,16.68039969,16.68054038,16.68109683,16.68109683,,,,,,,,,,,,,,,,,,,,PF,strong,3,,,,,,,,1,1.898885,,,,,,,,,,,,,,,,,,,,,,,,,,,,7,strong,-86.39994102,58.39999443,1,0,0,response7disk,8,58,5.600060356,-1.600006461,1,0,0,rectangle,62.40001237,34.39999408,1,0,0,6,6,2.7356,4.000011504,3.999993622,1,0,0,0,57,57,97,1,1,response1disk_3,rectangle,,,,,,,,,,,,,,,,,,,
,,,,,,,,,,,,,,,,,,,,,,,,,,,,,,,,,,,,,,,,,,5e9b3754687af2039ea9f06c,606841c2af6938803ce011a6,2021-04-03_12h23.17.588,Colour_Similarity_Experiment,2020.2.10,Win32,60,60674ec340277cd6a308bc9f,16.77665522,16.70380194,16.68039969,16.68054038,16.68109683,16.68109683,,,,,,,,,,,,,,,,,,,,PF,weak,3,,,,,,,,0,1.432045,,,,,,,,,,,,,,,,,,,,,,,,,,,,3,weak,-27.99998897,63.99999452,1,0,0,response7disk,3,59,0.800011456,1.599993587,1,0,0,rectangle,0.800011456,1.599993587,1,0,0,6,2,0.00078,0.800011456,1.599993587,1,0,0,0,58,58,4,1,0,,,,,,,,,,,,,,,,,,,,,
,,,,,,,,,,,,,,,,,,,,,,,,,,,,,,,,,,,,,,,,,,5e9b3754687af2039ea9f06c,606841c2af6938803ce011a6,2021-04-03_12h23.17.588,Colour_Similarity_Experiment,2020.2.10,Win32,60,60674ec340277cd6a308bc9f,16.77665522,16.70380194,16.68039969,16.68054038,16.68109683,16.68109683,,,,,,,,,,,,,,,,,,,,PF,strong,3,,,,,,,,1,1.715545,,,,,,,,,,,,,,,,,,,,,,,,,,,,6,strong,-59.19998944,31.19996961,1,0,0,response7disk,5,60,1.14441E-05,-4.000006497,1,0,0,rectangle,1.14441E-05,-4.000006497,1,0,0,6,2,0.00108,1.14441E-05,-4.000006497,1,0,0,0,59,59,126,1,0,,,,,,,,,,,,,,,,,,,,,
,,,,,,,,,,,,,,,,,,,,,,,,,,,,,,,,,,,,,,,,,,5e9b3754687af2039ea9f06c,606841c2af6938803ce011a6,2021-04-03_12h23.17.588,Colour_Similarity_Experiment,2020.2.10,Win32,60,60674ec340277cd6a308bc9f,16.77665522,16.70380194,16.68039969,16.68054038,16.68109683,16.68109683,,,,,,,,,,,,,,,,,,,,PF,strong,3,,,,,,,,5,1.96549,,,,,,,,,,,,,,,,,,,,,,,,,,,,7,strong,65.60001242,-44.8000071,1,0,0,response3disk,5,61,6.400011539,-4.800006509,1,0,0,rectangle,6.400011539,-4.800006509,1,0,0,6,2,0.00019,6.400011539,-4.800006509,1,0,0,0,60,60,156,1,0,,,,,,,,,,,,,,,,,,,,,
,,,,,,,,,,,,,,,,,,,,,,,,,,,,,,,,,,,,,,,,,,5e9b3754687af2039ea9f06c,606841c2af6938803ce011a6,2021-04-03_12h23.17.588,Colour_Similarity_Experiment,2020.2.10,Win32,60,60674ec340277cd6a308bc9f,16.77665522,16.70380194,16.68039969,16.68054038,16.68109683,16.68109683,,,,,,,,,,,,,,,,,,,,PF,strong,3,,,,,,,,6,1.94934,,,,,,,,,,,,,,,,,,,,,,,,,,,,4,strong,69.60001248,19.99999386,1,0,0,response1disk,4,62,3.200011492,-4.800006509,1,0,0,rectangle,3.200011492,-4.800006509,1,0,0,6,7,0.00091,3.200011492,-4.800006509,1,0,0,0,61,61,84,1,0,,,,,,,,,,,,,,,,,,,,,
,,,,,,,,,,,,,,,,,,,,,,,,,,,,,,,,,,,,,,,,,,5e9b3754687af2039ea9f06c,606841c2af6938803ce011a6,2021-04-03_12h23.17.588,Colour_Similarity_Experiment,2020.2.10,Win32,60,60674ec340277cd6a308bc9f,16.77665522,16.70380194,16.68039969,16.68054038,16.68109683,16.68109683,,,,,,,,,,,,,,,,,,,,PF,strong,3,,,,,,,,4,3.98845,,,,,,,,,,,,,,,,,,,,,,,,,,,,5,strong,50.4000122,-61.60000736,1,0,0,response3disk,6,63,11.20001161,-12.80000663,1,0,0,rectangle,11.20001161,-12.80000663,1,0,0,6,5,0.00117,11.20001161,-12.80000663,1,0,0,0,62,62,12,1,0,,,,,,,,,,,,,,,,,,,,,
,,,,,,,,,,,,,,,,,,,,,,,,,,,,,,,,,,,,,,,,,,5e9b3754687af2039ea9f06c,606841c2af6938803ce011a6,2021-04-03_12h23.17.588,Colour_Similarity_Experiment,2020.2.10,Win32,60,60674ec340277cd6a308bc9f,16.77665522,16.70380194,16.68039969,16.68054038,16.68109683,16.68109683,,,,,,,,,,,,,,,,,,,,PF,strong,3,,,,,,,,6,2.082895,,,,,,,,,,,,,,,,,,,,,,,,,,,,8,strong,68.80001247,19.99999386,1,0,0,response1disk,3,64,-11.19998872,-3.200006485,1,0,0,rectangle,-11.19998872,-3.200006485,1,0,0,6,5,0.000255,-11.19998872,-3.200006485,1,0,0,0,63,63,154,1,0,,,,,,,,,,,,,,,,,,,,,
,,,,,,,,,,,,,,,,,,,,,,,,,,,,,,,,,,,,,,,,,,5e9b3754687af2039ea9f06c,606841c2af6938803ce011a6,2021-04-03_12h23.17.588,Colour_Similarity_Experiment,2020.2.10,Win32,60,60674ec340277cd6a308bc9f,16.77665522,16.70380194,16.68039969,16.68054038,16.68109683,16.68109683,,,,,,,,,,,,,,,,,,,,PF,weak,3,,,,,,,,7,1.23233,,,,,,,,,,,,,,,,,,,,,,,,,,,,4,weak,27.20001185,68.79999459,1,0,0,response1disk,1,65,7.200011551,1.599993587,1,0,0,rectangle,7.200011551,1.599993587,1,0,0,6,3,0.000835,7.200011551,1.599993587,1,0,0,0,64,64,115,1,0,,,,,,,,,,,,,,,,,,,,,
,,,,,,,,,,,,,,,,,,,,,,,,,,,,,,,,,,,,,,,,,,5e9b3754687af2039ea9f06c,606841c2af6938803ce011a6,2021-04-03_12h23.17.588,Colour_Similarity_Experiment,2020.2.10,Win32,60,60674ec340277cd6a308bc9f,16.77665522,16.70380194,16.68039969,16.68054038,16.68109683,16.68109683,,,,,,,,,,,,,,,,,,,,PF,strong,3,,,,,,,,6,1.701705,,,,,,,,,,,,,,,,,,,,,,,,,,,,4,strong,74.40001255,33.59999406,1,0,0,response1disk,2,66,14.40001166,7.999993682,1,0,0,rectangle,14.40001166,7.999993682,1,0,0,6,7,0.00102,14.40001166,7.999993682,1,0,0,0,65,65,13,1,0,,,,,,,,,,,,,,,,,,,,,
,,,,,,,,,,,,,,,,,,,,,,,,,,,,,,,,,,,,,,,,,,5e9b3754687af2039ea9f06c,606841c2af6938803ce011a6,2021-04-03_12h23.17.588,Colour_Similarity_Experiment,2020.2.10,Win32,60,60674ec340277cd6a308bc9f,16.77665522,16.70380194,16.68039969,16.68054038,16.68109683,16.68109683,,,,,,,,,,,,,,,,,,,,PF,weak,3,,,,,,,,3,2.017035,,,,,,,,,,,,,,,,,,,,,,,,,,,,4,weak,-24.79998893,-65.60000741,1,0,0,response5disk,5,67,8.800011575,0.799993575,1,0,0,rectangle,8.800011575,0.799993575,1,0,0,6,4,0.000805,8.800011575,0.799993575,1,0,0,0,66,66,49,1,0,,,,,,,,,,,,,,,,,,,,,
,,,,,,,,,,,,,,,,,,,,,,,,,,,,,,,,,,,,,,,,,,5e9b3754687af2039ea9f06c,606841c2af6938803ce011a6,2021-04-03_12h23.17.588,Colour_Similarity_Experiment,2020.2.10,Win32,60,60674ec340277cd6a308bc9f,16.77665522,16.70380194,16.68039969,16.68054038,16.68109683,16.68109683,,,,,,,,,,,,,,,,,,,,PF,weak,3,,,,,,,,7,1.164975,,,,,,,,,,,,,,,,,,,,,,,,,,,,8,weak,44.80001211,71.19997021,1,0,0,response1disk,6,68,0.800011456,-0.800006449,1,0,0,rectangle,78.40001261,31.19996961,1,0,0,6,6,1.81834,9.600060415,2.399993598,1,0,0,0,67,67,161,1,1,response1disk_3,rectangle,,,,,,,,,,,,,,,,,,,
,,,,,,,,,,,,,,,,,,,,,,,,,,,,,,,,,,,,,,,,,,5e9b3754687af2039ea9f06c,606841c2af6938803ce011a6,2021-04-03_12h23.17.588,Colour_Similarity_Experiment,2020.2.10,Win32,60,60674ec340277cd6a308bc9f,16.77665522,16.70380194,16.68039969,16.68054038,16.68109683,16.68109683,,,,,,,,,,,,,,,,,,,,PF,strong,3,,,,,,,,5,2.650825,,,,,,,,,,,,,,,,,,,,,,,,,,,,4,strong,74.40001255,-24.80000681,1,0,0,response3disk,9,69,10.4000116,-0.800006449,1,0,0,rectangle,10.4000116,-0.800006449,1,0,0,6,3,0.000735,10.4000116,-0.800006449,1,0,0,0,68,68,90,1,0,,,,,,,,,,,,,,,,,,,,,
,,,,,,,,,,,,,,,,,,,,,,,,,,,,,,,,,,,,,,,,,,5e9b3754687af2039ea9f06c,606841c2af6938803ce011a6,2021-04-03_12h23.17.588,Colour_Similarity_Experiment,2020.2.10,Win32,60,60674ec340277cd6a308bc9f,16.77665522,16.70380194,16.68039969,16.68054038,16.68109683,16.68109683,,,,,,,,,,,,,,,,,,,,PF,strong,3,,,,,,,,6,1.765995,,,,,,,,,,,,,,,,,,,,,,,,,,,,7,strong,88.80001277,33.59999406,1,0,0,response1disk,3,70,7.200011551,-3.200006485,1,0,0,rectangle,7.200011551,-3.200006485,1,0,0,6,3,7.99999E-05,7.200011551,-3.200006485,1,0,0,0,69,69,73,1,0,,,,,,,,,,,,,,,,,,,,,
,,,,,,,,,,,,,,,,,,,,,,,,,,,,,,,,,,,,,,,,,,5e9b3754687af2039ea9f06c,606841c2af6938803ce011a6,2021-04-03_12h23.17.588,Colour_Similarity_Experiment,2020.2.10,Win32,60,60674ec340277cd6a308bc9f,16.77665522,16.70380194,16.68039969,16.68054038,16.68109683,16.68109683,,,,,,,,,,,,,,,,,,,,PF,strong,3,,,,,,,,5,3.667775,,,,,,,,,,,,,,,,,,,,,,,,,,,,9,strong,63.20001239,-43.20000708,1,0,0,response3disk,6,71,20.00001174,-9.60000658,1,0,0,rectangle,20.00001174,-9.60000658,1,0,0,6,5,0.001245,20.00001174,-9.60000658,1,0,0,0,70,70,117,1,0,,,,,,,,,,,,,,,,,,,,,
,,,,,,,,,,,,,,,,,,,,,,,,,,,,,,,,,,,,,,,,,,5e9b3754687af2039ea9f06c,606841c2af6938803ce011a6,2021-04-03_12h23.17.588,Colour_Similarity_Experiment,2020.2.10,Win32,60,60674ec340277cd6a308bc9f,16.77665522,16.70380194,16.68039969,16.68054038,16.68109683,16.68109683,,,,,,,,,,,,,,,,,,,,PF,weak,3,,,,,,,,7,1.201175,,,,,,,,,,,,,,,,,,,,,,,,,,,,2,weak,45.60006095,60.79999447,1,0,0,response1disk,7,72,6.400011539,-4.000006497,1,0,0,rectangle,6.400011539,-4.000006497,1,0,0,6,6,0.000825,6.400011539,-4.000006497,1,0,0,0,71,71,107,1,0,,,,,,,,,,,,,,,,,,,,,
,,,,,,,,,,,,,,,,,,,,,,,,,,,,,,,,,,,,,,,,,,5e9b3754687af2039ea9f06c,606841c2af6938803ce011a6,2021-04-03_12h23.17.588,Colour_Similarity_Experiment,2020.2.10,Win32,60,60674ec340277cd6a308bc9f,16.77665522,16.70380194,16.68039969,16.68054038,16.68109683,16.68109683,,,,,,,,,,,,,,,,,,,,PF,weak,3,,,,,,,,4,2.66665,,,,,,,,,,,,,,,,,,,,,,,,,,,,5,weak,42.40001208,-84.8000077,1,0,0,response3disk,3,73,1.600060296,-11.2000066,1,0,0,rectangle,1.600060296,-11.2000066,1,0,0,6,6,0.000195,1.600060296,-11.2000066,1,0,0,0,72,72,109,1,0,,,,,,,,,,,,,,,,,,,,,
,,,,,,,,,,,,,,,,,,,,,,,,,,,,,,,,,,,,,,,,,,5e9b3754687af2039ea9f06c,606841c2af6938803ce011a6,2021-04-03_12h23.17.588,Colour_Similarity_Experiment,2020.2.10,Win32,60,60674ec340277cd6a308bc9f,16.77665522,16.70380194,16.68039969,16.68054038,16.68109683,16.68109683,,,,,,,,,,,,,,,,,,,,PF,weak,3,,,,,,,,6,2.33342,,,,,,,,,,,,,,,,,,,,,,,,,,,,6,weak,81.60001266,31.99999404,1,0,0,response1disk,8,74,10.4000116,3.19999361,1,0,0,rectangle,10.4000116,3.19999361,1,0,0,6,3,0.00097,10.4000116,3.19999361,1,0,0,0,73,73,64,1,0,,,,,,,,,,,,,,,,,,,,,
,,,,,,,,,,,,,,,,,,,,,,,,,,,,,,,,,,,,,,,,,,5e9b3754687af2039ea9f06c,606841c2af6938803ce011a6,2021-04-03_12h23.17.588,Colour_Similarity_Experiment,2020.2.10,Win32,60,60674ec340277cd6a308bc9f,16.77665522,16.70380194,16.68039969,16.68054038,16.68109683,16.68109683,,,,,,,,,,,,,,,,,,,,PF,weak,3,,,,,,,,7,4.06748,,,,,,,,,,,,,,,,,,,,,,,,,,,,5,weak,36.80001199,66.39999455,1,0,0,response1disk,2,75,5.600060356,-8.000006557,1,0,0,rectangle,5.600060356,-8.000006557,1,0,0,6,6,0.00079,5.600060356,-8.000006557,1,0,0,0,74,74,129,1,0,,,,,,,,,,,,,,,,,,,,,
,,,,,,,,,,,,,,,,,,,,,,,,,,,,,,,,,,,,,,,,,,5e9b3754687af2039ea9f06c,606841c2af6938803ce011a6,2021-04-03_12h23.17.588,Colour_Similarity_Experiment,2020.2.10,Win32,60,60674ec340277cd6a308bc9f,16.77665522,16.70380194,16.68039969,16.68054038,16.68109683,16.68109683,,,,,,,,,,,,,,,,,,,,PF,weak,3,,,,,,,,7,1.832645,,,,,,,,,,,,,,,,,,,,,,,,,,,,1,weak,44.0000121,71.19997021,1,0,0,response1disk,3,76,3.200011492,-1.600006461,1,0,0,rectangle,3.200011492,-1.600006461,1,0,0,6,7,0.001055,3.200011492,-1.600006461,1,0,0,0,75,75,1,1,0,,,,,,,,,,,,,,,,,,,,,
,,,,,,,,,,,,,,,,,,,,,,,,,,,,,,,,,,,,,,,,,,5e9b3754687af2039ea9f06c,606841c2af6938803ce011a6,2021-04-03_12h23.17.588,Colour_Similarity_Experiment,2020.2.10,Win32,60,60674ec340277cd6a308bc9f,16.77665522,16.70380194,16.68039969,16.68054038,16.68109683,16.68109683,,,,,,,,,,,,,,,,,,,,PF,strong,3,,,,,,,,5,2.833405,,,,,,,,,,,,,,,,,,,,,,,,,,,,3,strong,72.00001252,-20.80000675,1,0,0,response3disk,9,77,0.800011456,-2.400006473,1,0,0,rectangle,0.800011456,-2.400006473,1,0,0,6,0,0.000895,0.800011456,-2.400006473,1,0,0,0,76,76,143,1,0,,,,,,,,,,,,,,,,,,,,,
,,,,,,,,,,,,,,,,,,,,,,,,,,,,,,,,,,,,,,,,,,5e9b3754687af2039ea9f06c,606841c2af6938803ce011a6,2021-04-03_12h23.17.588,Colour_Similarity_Experiment,2020.2.10,Win32,60,60674ec340277cd6a308bc9f,16.77665522,16.70380194,16.68039969,16.68054038,16.68109683,16.68109683,,,,,,,,,,,,,,,,,,,,PF,strong,3,,,,,,,,4,2.64974,,,,,,,,,,,,,,,,,,,,,,,,,,,,8,strong,33.60006077,-61.60000736,1,0,0,response3disk,9,78,8.000011563,-10.40000659,1,0,0,rectangle,8.000011563,-10.40000659,1,0,0,6,5,0.000725,8.000011563,-10.40000659,1,0,0,0,77,77,105,1,0,,,,,,,,,,,,,,,,,,,,,
,,,,,,,,,,,,,,,,,,,,,,,,,,,,,,,,,,,,,,,,,,5e9b3754687af2039ea9f06c,606841c2af6938803ce011a6,2021-04-03_12h23.17.588,Colour_Similarity_Experiment,2020.2.10,Win32,60,60674ec340277cd6a308bc9f,16.77665522,16.70380194,16.68039969,16.68054038,16.68109683,16.68109683,,,,,,,,,,,,,,,,,,,,PF,weak,3,,,,,,,,5,2.16895,,,,,,,,,,,,,,,,,,,,,,,,,,,,8,weak,81.60001266,-24.00000679,1,0,0,response3disk,7,79,8.800011575,-1.600006461,1,0,0,rectangle,8.800011575,-1.600006461,1,0,0,6,3,0.00089,8.800011575,-1.600006461,1,0,0,0,78,78,23,1,0,,,,,,,,,,,,,,,,,,,,,
,,,,,,,,,,,,,,,,,,,,,,,,,,,,,,,,,,,,,,,,,,5e9b3754687af2039ea9f06c,606841c2af6938803ce011a6,2021-04-03_12h23.17.588,Colour_Similarity_Experiment,2020.2.10,Win32,60,60674ec340277cd6a308bc9f,16.77665522,16.70380194,16.68039969,16.68054038,16.68109683,16.68109683,,,,,,,,,,,,,,,,,,,,PF,strong,3,,,,,,,,4,5.25236,,,,,,,,,,,,,,,,,,,,,,,,,,,,8,strong,31.20001191,-70.40000749,1,0,0,response3disk,8,80,4.800011516,-13.60000664,1,0,0,rectangle,4.800011516,-13.60000664,1,0,0,6,4,0.000825,4.800011516,-13.60000664,1,0,0,0,79,79,48,1,0,,,,,,,,,,,,,,,,,,,,,
,,,,,,,,,,,,,,,,,,,,,,,,,,,,,,,,,,,,,,,,,,5e9b3754687af2039ea9f06c,606841c2af6938803ce011a6,2021-04-03_12h23.17.588,Colour_Similarity_Experiment,2020.2.10,Win32,60,60674ec340277cd6a308bc9f,16.77665522,16.70380194,16.68039969,16.68054038,16.68109683,16.68109683,,,,,,,,,,,,,,,,,,,,PF,strong,3,,,,,,,,0,2.71673,,,,,,,,,,,,,,,,,,,,,,,,,,,,4,strong,-25.59998894,67.19997015,1,0,0,response7disk,8,81,4.800011516,-1.600006461,1,0,0,rectangle,4.800011516,-1.600006461,1,0,0,6,6,0.000765,4.800011516,-1.600006461,1,0,0,0,80,80,35,1,0,,,,,,,,,,,,,,,,,,,,,
,,,,,,,,,,,,,,,,,,,,,,,,,,,,,,,,,,,,,,,,,,5e9b3754687af2039ea9f06c,606841c2af6938803ce011a6,2021-04-03_12h23.17.588,Colour_Similarity_Experiment,2020.2.10,Win32,60,60674ec340277cd6a308bc9f,16.77665522,16.70380194,16.68039969,16.68054038,16.68109683,16.68109683,,,,,,,,,,,,,,,,,,,,PF,strong,3,,,,,,,,1,1.699,,,,,,,,,,,,,,,,,,,,,,,,,,,,9,strong,-95.99998999,51.19996991,0,0,1,response7disk,5,82,4.000011504,4.799993634,1,0,0,rectangle,4.000011504,4.799993634,1,0,0,6,2,0.001025,4.000011504,4.799993634,1,0,0,0,81,81,128,1,0,,,,,,,,,,,,,,,,,,,,,
,,,,,,,,,,,,,,,,,,,,,,,,,,,,,,,,,,,,,,,,,,5e9b3754687af2039ea9f06c,606841c2af6938803ce011a6,2021-04-03_12h23.17.588,Colour_Similarity_Experiment,2020.2.10,Win32,60,60674ec340277cd6a308bc9f,16.77665522,16.70380194,16.68039969,16.68054038,16.68109683,16.68109683,,,,,,,,,,,,,,,,,,,,PF,strong,3,,,,,,,,2,2.73326,,,,,,,,,,,,,,,,,,,,,,,,,,,,1,strong,-60.79998946,-28.00000685,1,0,0,response5disk,9,83,-3.999988616,2.399993598,1,0,0,rectangle,-3.999988616,2.399993598,1,0,0,6,5,0.000675,-3.999988616,2.399993598,1,0,0,0,82,82,123,1,0,,,,,,,,,,,,,,,,,,,,,
,,,,,,,,,,,,,,,,,,,,,,,,,,,,,,,,,,,,,,,,,,5e9b3754687af2039ea9f06c,606841c2af6938803ce011a6,2021-04-03_12h23.17.588,Colour_Similarity_Experiment,2020.2.10,Win32,60,60674ec340277cd6a308bc9f,16.77665522,16.70380194,16.68039969,16.68054038,16.68109683,16.68109683,,,,,,,,,,,,,,,,,,,,PF,strong,3,,,,,,,,3,2.38276,,,,,,,,,,,,,,,,,,,,,,,,,,,,2,strong,-45.59998924,-85.60005654,1,0,0,response5disk,4,84,6.400011539,5.599993646,1,0,0,rectangle,6.400011539,5.599993646,1,0,0,6,2,0.00081,6.400011539,5.599993646,1,0,0,0,83,83,145,1,0,,,,,,,,,,,,,,,,,,,,,
,,,,,,,,,,,,,,,,,,,,,,,,,,,,,,,,,,,,,,,,,,5e9b3754687af2039ea9f06c,606841c2af6938803ce011a6,2021-04-03_12h23.17.588,Colour_Similarity_Experiment,2020.2.10,Win32,60,60674ec340277cd6a308bc9f,16.77665522,16.70380194,16.68039969,16.68054038,16.68109683,16.68109683,,,,,,,,,,,,,,,,,,,,PF,strong,3,,,,,,,,5,6.79062,,,,,,,,,,,,,,,,,,,,,,,,,,,,7,strong,93.60001284,-48.80000716,1,0,0,response3disk,1,85,0.800011456,3.999993622,1,0,0,rectangle,0.800011456,3.999993622,1,0,0,6,2,0.000315,0.800011456,3.999993622,1,0,0,0,84,84,132,1,0,,,,,,,,,,,,,,,,,,,,,
,,,,,,,,,,,,,,,,,,,,,,,,,,,,,,,,,,,,,,,,,,5e9b3754687af2039ea9f06c,606841c2af6938803ce011a6,2021-04-03_12h23.17.588,Colour_Similarity_Experiment,2020.2.10,Win32,60,60674ec340277cd6a308bc9f,16.77665522,16.70380194,16.68039969,16.68054038,16.68109683,16.68109683,,,,,,,,,,,,,,,,,,,,PF,weak,3,,,,,,,,6,1.265275,,,,,,,,,,,,,,,,,,,,,,,,,,,,2,weak,61.60001236,23.99999392,1,0,0,response1disk,6,86,-0.799988568,3.19999361,1,0,0,rectangle,-0.799988568,3.19999361,1,0,0,6,4,0.000865,-0.799988568,3.19999361,1,0,0,0,85,85,113,1,0,,,,,,,,,,,,,,,,,,,,,
,,,,,,,,,,,,,,,,,,,,,,,,,,,,,,,,,,,,,,,,,,5e9b3754687af2039ea9f06c,606841c2af6938803ce011a6,2021-04-03_12h23.17.588,Colour_Similarity_Experiment,2020.2.10,Win32,60,60674ec340277cd6a308bc9f,16.77665522,16.70380194,16.68039969,16.68054038,16.68109683,16.68109683,,,,,,,,,,,,,,,,,,,,PF,strong,3,,,,,,,,5,3.68493,,,,,,,,,,,,,,,,,,,,,,,,,,,,2,strong,72.80001253,-28.00000685,1,0,0,response3disk,1,87,5.600060356,-3.200006485,1,0,0,rectangle,5.600060356,-3.200006485,1,0,0,6,1,0.000885,5.600060356,-3.200006485,1,0,0,0,86,86,85,1,0,,,,,,,,,,,,,,,,,,,,,
,,,,,,,,,,,,,,,,,,,,,,,,,,,,,,,,,,,,,,,,,,5e9b3754687af2039ea9f06c,606841c2af6938803ce011a6,2021-04-03_12h23.17.588,Colour_Similarity_Experiment,2020.2.10,Win32,60,60674ec340277cd6a308bc9f,16.77665522,16.70380194,16.68039969,16.68054038,16.68109683,16.68109683,,,,,,,,,,,,,,,,,,,,PF,strong,3,,,,,,,,4,1.83256,,,,,,,,,,,,,,,,,,,,,,,,,,,,2,strong,39.20001203,-56.80000728,1,0,0,response3disk,9,88,8.000011563,-1.600006461,1,0,0,rectangle,8.000011563,-1.600006461,1,0,0,6,4,0.000905,8.000011563,-1.600006461,1,0,0,0,87,87,72,1,0,,,,,,,,,,,,,,,,,,,,,
,,,,,,,,,,,,,,,,,,,,,,,,,,,,,,,,,,,,,,,,,,5e9b3754687af2039ea9f06c,606841c2af6938803ce011a6,2021-04-03_12h23.17.588,Colour_Similarity_Experiment,2020.2.10,Win32,60,60674ec340277cd6a308bc9f,16.77665522,16.70380194,16.68039969,16.68054038,16.68109683,16.68109683,,,,,,,,,,,,,,,,,,,,PF,strong,3,,,,,,,,6,2.03267,,,,,,,,,,,,,,,,,,,,,,,,,,,,3,strong,71.20001251,35.19996967,1,0,0,response1disk,1,89,7.200011551,5.599993646,1,0,0,rectangle,7.200011551,5.599993646,1,0,0,6,3,0.00083,7.200011551,5.599993646,1,0,0,0,88,88,125,1,0,,,,,,,,,,,,,,,,,,,,,
,,,,,,,,,,,,,,,,,,,,,,,,,,,,,,,,,,,,,,,,,,5e9b3754687af2039ea9f06c,606841c2af6938803ce011a6,2021-04-03_12h23.17.588,Colour_Similarity_Experiment,2020.2.10,Win32,60,60674ec340277cd6a308bc9f,16.77665522,16.70380194,16.68039969,16.68054038,16.68109683,16.68109683,,,,,,,,,,,,,,,,,,,,PF,weak,3,,,,,,,,7,1.181965,,,,,,,,,,,,,,,,,,,,,,,,,,,,3,weak,40.80001205,63.99999452,1,0,0,response1disk,9,90,8.000011563,6.399993658,1,0,0,rectangle,8.000011563,6.399993658,1,0,0,6,7,0.000925,8.000011563,6.399993658,1,0,0,0,89,89,79,1,0,,,,,,,,,,,,,,,,,,,,,
,,,,,,,,,,,,,,,,,,,,,,,,,,,,,,,,,,,,,,,,,,5e9b3754687af2039ea9f06c,606841c2af6938803ce011a6,2021-04-03_12h23.17.588,Colour_Similarity_Experiment,2020.2.10,Win32,60,60674ec340277cd6a308bc9f,16.77665522,16.70380194,16.68039969,16.68054038,16.68109683,16.68109683,,,,,,,,,,,,,,,,,,,,PF,strong,3,,,,,,,,4,2.44942,,,,,,,,,,,,,,,,,,,,,,,,,,,,9,strong,34.40001196,-60.00000733,1,0,0,response3disk,2,91,-6.399939823,0.799993575,1,0,0,rectangle,104.800013,-40.80000705,1,0,0,5,5,1.568915,3.200011492,-8.000006557,1,0,0,0,90,90,11,1,1,response3disk_3,rectangle,,,,,,,,,,,,,,,,,,,
,,,,,,,,,,,,,,,,,,,,,,,,,,,,,,,,,,,,,,,,,,5e9b3754687af2039ea9f06c,606841c2af6938803ce011a6,2021-04-03_12h23.17.588,Colour_Similarity_Experiment,2020.2.10,Win32,60,60674ec340277cd6a308bc9f,16.77665522,16.70380194,16.68039969,16.68054038,16.68109683,16.68109683,,,,,,,,,,,,,,,,,,,,PF,weak,3,,,,,,,,1,1.69891,,,,,,,,,,,,,,,,,,,,,,,,,,,,6,weak,-71.99998963,32.79999405,1,0,0,response7disk,6,92,11.20001161,-2.400006473,1,0,0,rectangle,11.20001161,-2.400006473,1,0,0,5,0,0.00084,11.20001161,-2.400006473,1,0,0,0,91,91,0,1,0,,,,,,,,,,,,,,,,,,,,,
,,,,,,,,,,,,,,,,,,,,,,,,,,,,,,,,,,,,,,,,,,5e9b3754687af2039ea9f06c,606841c2af6938803ce011a6,2021-04-03_12h23.17.588,Colour_Similarity_Experiment,2020.2.10,Win32,60,60674ec340277cd6a308bc9f,16.77665522,16.70380194,16.68039969,16.68054038,16.68109683,16.68109683,,,,,,,,,,,,,,,,,,,,PF,strong,3,,,,,,,,2,2.18181,,,,,,,,,,,,,,,,,,,,,,,,,,,,1,strong,-49.5999893,-28.80000687,1,0,0,response5disk,5,93,9.600060415,-7.200006545,1,0,0,rectangle,9.600060415,-7.200006545,1,0,0,5,5,0.00076,9.600060415,-7.200006545,1,0,0,0,92,92,82,1,0,,,,,,,,,,,,,,,,,,,,,
,,,,,,,,,,,,,,,,,,,,,,,,,,,,,,,,,,,,,,,,,,5e9b3754687af2039ea9f06c,606841c2af6938803ce011a6,2021-04-03_12h23.17.588,Colour_Similarity_Experiment,2020.2.10,Win32,60,60674ec340277cd6a308bc9f,16.77665522,16.70380194,16.68039969,16.68054038,16.68109683,16.68109683,,,,,,,,,,,,,,,,,,,,PF,strong,3,,,,,,,,3,1.598585,,,,,,,,,,,,,,,,,,,,,,,,,,,,9,strong,-30.39994018,-60.80000734,1,0,0,response5disk,1,94,-1.59998858,7.19999367,1,0,0,rectangle,-1.59998858,7.19999367,1,0,0,5,3,0.000975,-1.59998858,7.19999367,1,0,0,0,93,93,111,1,0,,,,,,,,,,,,,,,,,,,,,
,,,,,,,,,,,,,,,,,,,,,,,,,,,,,,,,,,,,,,,,,,5e9b3754687af2039ea9f06c,606841c2af6938803ce011a6,2021-04-03_12h23.17.588,Colour_Similarity_Experiment,2020.2.10,Win32,60,60674ec340277cd6a308bc9f,16.77665522,16.70380194,16.68039969,16.68054038,16.68109683,16.68109683,,,,,,,,,,,,,,,,,,,,PF,weak,3,,,,,,,,4,1.81634,,,,,,,,,,,,,,,,,,,,,,,,,,,,6,weak,33.60006077,-45.60000712,1,0,0,response3disk,3,95,-0.799988568,2.399993598,1,0,0,rectangle,-0.799988568,2.399993598,1,0,0,5,4,0.0021,-0.799988568,2.399993598,1,0,0,0,94,94,26,1,0,,,,,,,,,,,,,,,,,,,,,
,,,,,,,,,,,,,,,,,,,,,,,,,,,,,,,,,,,,,,,,,,5e9b3754687af2039ea9f06c,606841c2af6938803ce011a6,2021-04-03_12h23.17.588,Colour_Similarity_Experiment,2020.2.10,Win32,60,60674ec340277cd6a308bc9f,16.77665522,16.70380194,16.68039969,16.68054038,16.68109683,16.68109683,,,,,,,,,,,,,,,,,,,,PF,weak,3,,,,,,,,6,1.182095,,,,,,,,,,,,,,,,,,,,,,,,,,,,3,weak,50.4000122,32.79999405,1,0,0,response1disk,2,96,4.800011516,0.799993575,1,0,0,rectangle,49.60006101,-89.6000566,1,0,0,4,4,2.255085,-3.199988604,-5.600006521,1,0,0,0,95,95,36,1,1,response3disk_3,rectangle,,,,,,,,,,,,,,,,,,,
,,,,,,,,,,,,,,,,,,,,,,,,,,,,,,,,,,,,,,,,,,5e9b3754687af2039ea9f06c,606841c2af6938803ce011a6,2021-04-03_12h23.17.588,Colour_Similarity_Experiment,2020.2.10,Win32,60,60674ec340277cd6a308bc9f,16.77665522,16.70380194,16.68039969,16.68054038,16.68109683,16.68109683,,,,,,,,,,,,,,,,,,,,PF,weak,3,,,,,,,,5,7.288955,,,,,,,,,,,,,,,,,,,,,,,,,,,,6,weak,68.00001246,-24.80000681,1,0,0,response3disk,1,97,4.800011516,-4.000006497,1,0,0,rectangle,4.800011516,-4.000006497,1,0,0,4,7,0.000955,4.800011516,-4.000006497,1,0,0,0,96,96,46,1,0,,,,,,,,,,,,,,,,,,,,,
,,,,,,,,,,,,,,,,,,,,,,,,,,,,,,,,,,,,,,,,,,5e9b3754687af2039ea9f06c,606841c2af6938803ce011a6,2021-04-03_12h23.17.588,Colour_Similarity_Experiment,2020.2.10,Win32,60,60674ec340277cd6a308bc9f,16.77665522,16.70380194,16.68039969,16.68054038,16.68109683,16.68109683,,,,,,,,,,,,,,,,,,,,PF,weak,3,,,,,,,,3,2.436225,,,,,,,,,,,,,,,,,,,,,,,,,,,,6,weak,-22.39994006,-52.80000722,1,0,0,response5disk,7,98,11.20001161,7.19999367,1,0,0,rectangle,11.20001161,7.19999367,1,0,0,4,2,0.00079,11.20001161,7.19999367,1,0,0,0,97,97,50,1,0,,,,,,,,,,,,,,,,,,,,,
,,,,,,,,,,,,,,,,,,,,,,,,,,,,,,,,,,,,,,,,,,5e9b3754687af2039ea9f06c,606841c2af6938803ce011a6,2021-04-03_12h23.17.588,Colour_Similarity_Experiment,2020.2.10,Win32,60,60674ec340277cd6a308bc9f,16.77665522,16.70380194,16.68039969,16.68054038,16.68109683,16.68109683,,,,,,,,,,,,,,,,,,,,PF,weak,3,,,,,,,,6,1.749095,,,,,,,,,,,,,,,,,,,,,,,,,,,,7,weak,77.6000126,23.19996949,1,0,0,response1disk,4,99,-3.999988616,-8.000006557,1,0,0,rectangle,-3.999988616,-8.000006557,1,0,0,4,0,0.001035,-3.999988616,-8.000006557,1,0,0,0,98,98,43,1,0,,,,,,,,,,,,,,,,,,,,,
,,,,,,,,,,,,,,,,,,,,,,,,,,,,,,,,,,,,,,,,,,5e9b3754687af2039ea9f06c,606841c2af6938803ce011a6,2021-04-03_12h23.17.588,Colour_Similarity_Experiment,2020.2.10,Win32,60,60674ec340277cd6a308bc9f,16.77665522,16.70380194,16.68039969,16.68054038,16.68109683,16.68109683,,,,,,,,,,,,,,,,,,,,PF,strong,3,,,,,,,,6,1.21507,,,,,,,,,,,,,,,,,,,,,,,,,,,,4,strong,52.80001223,24.79999393,1,0,0,response1disk,1,100,9.600060415,-4.000006497,1,0,0,rectangle,9.600060415,-4.000006497,1,0,0,4,0,9.49999E-05,9.600060415,-4.000006497,1,0,0,0,99,99,102,1,0,,,,,,,,,,,,,,,,,,,,,
,,,,,,,,,,,,,,,,,,,,,,,,,,,,,,,,,,,,,,,,,,5e9b3754687af2039ea9f06c,606841c2af6938803ce011a6,2021-04-03_12h23.17.588,Colour_Similarity_Experiment,2020.2.10,Win32,60,60674ec340277cd6a308bc9f,16.77665522,16.70380194,16.68039969,16.68054038,16.68109683,16.68109683,,,,,,,,,,,,,,,,,,,,PF,strong,3,,,,,,,,6,1.851985,,,,,,,,,,,,,,,,,,,,,,,,,,,,6,strong,71.20001251,27.19996955,1,0,0,response1disk,1,101,10.4000116,-10.40000659,1,0,0,rectangle,10.4000116,-10.40000659,1,0,0,4,1,0.00091,10.4000116,-10.40000659,1,0,0,0,100,100,5,1,0,,,,,,,,,,,,,,,,,,,,,
,,,,,,,,,,,,,,,,,,,,,,,,,,,,,,,,,,,,,,,,,,5e9b3754687af2039ea9f06c,606841c2af6938803ce011a6,2021-04-03_12h23.17.588,Colour_Similarity_Experiment,2020.2.10,Win32,60,60674ec340277cd6a308bc9f,16.77665522,16.70380194,16.68039969,16.68054038,16.68109683,16.68109683,,,,,,,,,,,,,,,,,,,,PF,strong,3,,,,,,,,2,1.75195,,,,,,,,,,,,,,,,,,,,,,,,,,,,6,strong,-59.99998945,-42.40000707,1,0,0,response5disk,3,102,18.40001172,-3.200006485,1,0,0,rectangle,18.40001172,-3.200006485,1,0,0,4,3,0.000625,18.40001172,-3.200006485,1,0,0,0,101,101,21,1,0,,,,,,,,,,,,,,,,,,,,,
,,,,,,,,,,,,,,,,,,,,,,,,,,,,,,,,,,,,,,,,,,5e9b3754687af2039ea9f06c,606841c2af6938803ce011a6,2021-04-03_12h23.17.588,Colour_Similarity_Experiment,2020.2.10,Win32,60,60674ec340277cd6a308bc9f,16.77665522,16.70380194,16.68039969,16.68054038,16.68109683,16.68109683,,,,,,,,,,,,,,,,,,,,PF,strong,3,,,,,,,,3,2.032905,,,,,,,,,,,,,,,,,,,,,,,,,,,,5,strong,-47.19998926,-74.40000755,1,0,0,response5disk,4,103,4.800011516,7.999993682,1,0,0,rectangle,4.800011516,7.999993682,1,0,0,4,4,0.00088,4.800011516,7.999993682,1,0,0,0,102,102,8,1,0,,,,,,,,,,,,,,,,,,,,,
,,,,,,,,,,,,,,,,,,,,,,,,,,,,,,,,,,,,,,,,,,5e9b3754687af2039ea9f06c,606841c2af6938803ce011a6,2021-04-03_12h23.17.588,Colour_Similarity_Experiment,2020.2.10,Win32,60,60674ec340277cd6a308bc9f,16.77665522,16.70380194,16.68039969,16.68054038,16.68109683,16.68109683,,,,,,,,,,,,,,,,,,,,PF,weak,3,,,,,,,,6,2.26629,,,,,,,,,,,,,,,,,,,,,,,,,,,,1,weak,56.00001228,28.79999399,1,0,0,response1disk,4,104,8.800011575,-1.600006461,1,0,0,rectangle,8.800011575,-1.600006461,1,0,0,4,7,0.000855,8.800011575,-1.600006461,1,0,0,0,103,103,139,1,0,,,,,,,,,,,,,,,,,,,,,
,,,,,,,,,,,,,,,,,,,,,,,,,,,,,,,,,,,,,,,,,,5e9b3754687af2039ea9f06c,606841c2af6938803ce011a6,2021-04-03_12h23.17.588,Colour_Similarity_Experiment,2020.2.10,Win32,60,60674ec340277cd6a308bc9f,16.77665522,16.70380194,16.68039969,16.68054038,16.68109683,16.68109683,,,,,,,,,,,,,,,,,,,,PF,weak,3,,,,,,,,5,2.10259,,,,,,,,,,,,,,,,,,,,,,,,,,,,9,weak,55.20001227,-18.40000671,1,0,0,response3disk,6,105,4.800011516,-6.4373E-06,1,0,0,rectangle,4.800011516,-6.4373E-06,1,0,0,4,7,0.000215,4.800011516,-6.4373E-06,1,0,0,0,104,104,148,1,0,,,,,,,,,,,,,,,,,,,,,
,,,,,,,,,,,,,,,,,,,,,,,,,,,,,,,,,,,,,,,,,,5e9b3754687af2039ea9f06c,606841c2af6938803ce011a6,2021-04-03_12h23.17.588,Colour_Similarity_Experiment,2020.2.10,Win32,60,60674ec340277cd6a308bc9f,16.77665522,16.70380194,16.68039969,16.68054038,16.68109683,16.68109683,,,,,,,,,,,,,,,,,,,,PF,strong,3,,,,,,,,1,2.49961,,,,,,,,,,,,,,,,,,,,,,,,,,,,5,strong,-66.39994072,32.79999405,1,0,0,response7disk,9,106,13.60006047,-4.800006509,1,0,0,rectangle,13.60006047,-4.800006509,1,0,0,4,5,0.0007,13.60006047,-4.800006509,1,0,0,0,105,105,61,1,0,,,,,,,,,,,,,,,,,,,,,
,,,,,,,,,,,,,,,,,,,,,,,,,,,,,,,,,,,,,,,,,,5e9b3754687af2039ea9f06c,606841c2af6938803ce011a6,2021-04-03_12h23.17.588,Colour_Similarity_Experiment,2020.2.10,Win32,60,60674ec340277cd6a308bc9f,16.77665522,16.70380194,16.68039969,16.68054038,16.68109683,16.68109683,,,,,,,,,,,,,,,,,,,,PF,strong,3,,,,,,,,0,4.1184,,,,,,,,,,,,,,,,,,,,,,,,,,,,4,strong,-61.59998947,80.79999477,1,0,0,response7disk,7,107,4.800011516,-6.4373E-06,1,0,0,rectangle,4.800011516,-6.4373E-06,1,0,0,4,4,0.00105,4.800011516,-6.4373E-06,1,0,0,0,106,106,87,1,0,,,,,,,,,,,,,,,,,,,,,
,,,,,,,,,,,,,,,,,,,,,,,,,,,,,,,,,,,,,,,,,,5e9b3754687af2039ea9f06c,606841c2af6938803ce011a6,2021-04-03_12h23.17.588,Colour_Similarity_Experiment,2020.2.10,Win32,60,60674ec340277cd6a308bc9f,16.77665522,16.70380194,16.68039969,16.68054038,16.68109683,16.68109683,,,,,,,,,,,,,,,,,,,,PF,strong,3,,,,,,,,3,2.469475,,,,,,,,,,,,,,,,,,,,,,,,,,,,6,strong,-35.99998909,-72.00000751,1,0,0,response5disk,2,108,8.800011575,-13.60000664,1,0,0,rectangle,8.800011575,-13.60000664,1,0,0,4,5,0.0009,8.800011575,-13.60000664,1,0,0,0,107,107,112,1,0,,,,,,,,,,,,,,,,,,,,,
,,,,,,,,,,,,,,,,,,,,,,,,,,,,,,,,,,,,,,,,,,5e9b3754687af2039ea9f06c,606841c2af6938803ce011a6,2021-04-03_12h23.17.588,Colour_Similarity_Experiment,2020.2.10,Win32,60,60674ec340277cd6a308bc9f,16.77665522,16.70380194,16.68039969,16.68054038,16.68109683,16.68109683,,,,,,,,,,,,,,,,,,,,PF,strong,3,,,,,,,,4,1.46888,,,,,,,,,,,,,,,,,,,,,,,,,,,,3,strong,32.80001193,-53.60000724,1,0,0,response3disk,8,109,3.200011492,-6.400006533,1,0,0,rectangle,3.200011492,-6.400006533,1,0,0,4,7,0.000905,3.200011492,-6.400006533,1,0,0,0,108,108,44,1,0,,,,,,,,,,,,,,,,,,,,,
,,,,,,,,,,,,,,,,,,,,,,,,,,,,,,,,,,,,,,,,,,5e9b3754687af2039ea9f06c,606841c2af6938803ce011a6,2021-04-03_12h23.17.588,Colour_Similarity_Experiment,2020.2.10,Win32,60,60674ec340277cd6a308bc9f,16.77665522,16.70380194,16.68039969,16.68054038,16.68109683,16.68109683,,,,,,,,,,,,,,,,,,,,PF,weak,3,,,,,,,,6,1.03127,,,,,,,,,,,,,,,,,,,,,,,,,,,,1,weak,69.60001248,31.19996961,1,0,0,response1disk,7,110,15.20001167,-4.800006509,1,0,0,rectangle,15.20001167,-4.800006509,1,0,0,4,2,0.000715,15.20001167,-4.800006509,1,0,0,0,109,109,150,1,0,,,,,,,,,,,,,,,,,,,,,
,,,,,,,,,,,,,,,,,,,,,,,,,,,,,,,,,,,,,,,,,,5e9b3754687af2039ea9f06c,606841c2af6938803ce011a6,2021-04-03_12h23.17.588,Colour_Similarity_Experiment,2020.2.10,Win32,60,60674ec340277cd6a308bc9f,16.77665522,16.70380194,16.68039969,16.68054038,16.68109683,16.68109683,,,,,,,,,,,,,,,,,,,,PF,weak,3,,,,,,,,7,1.23165,,,,,,,,,,,,,,,,,,,,,,,,,,,,5,weak,31.20001191,69.5999946,1,0,0,response1disk,7,111,8.000011563,-6.4373E-06,1,0,0,rectangle,8.000011563,-6.4373E-06,1,0,0,4,5,0.000845,8.000011563,-6.4373E-06,1,0,0,0,110,110,146,1,0,,,,,,,,,,,,,,,,,,,,,
,,,,,,,,,,,,,,,,,,,,,,,,,,,,,,,,,,,,,,,,,,5e9b3754687af2039ea9f06c,606841c2af6938803ce011a6,2021-04-03_12h23.17.588,Colour_Similarity_Experiment,2020.2.10,Win32,60,60674ec340277cd6a308bc9f,16.77665522,16.70380194,16.68039969,16.68054038,16.68109683,16.68109683,,,,,,,,,,,,,,,,,,,,PF,strong,3,,,,,,,,5,2.286325,,,,,,,,,,,,,,,,,,,,,,,,,,,,2,strong,57.6000123,-23.20000678,1,0,0,response3disk,5,112,14.40001166,-3.200006485,1,0,0,rectangle,14.40001166,-3.200006485,1,0,0,4,3,0.00084,14.40001166,-3.200006485,1,0,0,0,111,111,80,1,0,,,,,,,,,,,,,,,,,,,,,
,,,,,,,,,,,,,,,,,,,,,,,,,,,,,,,,,,,,,,,,,,5e9b3754687af2039ea9f06c,606841c2af6938803ce011a6,2021-04-03_12h23.17.588,Colour_Similarity_Experiment,2020.2.10,Win32,60,60674ec340277cd6a308bc9f,16.77665522,16.70380194,16.68039969,16.68054038,16.68109683,16.68109683,,,,,,,,,,,,,,,,,,,,PF,weak,3,,,,,,,,6,1.11815,,,,,,,,,,,,,,,,,,,,,,,,,,,,1,weak,67.20001245,39.99999416,1,0,0,response1disk,6,113,6.400011539,1.599993587,1,0,0,rectangle,6.400011539,1.599993587,1,0,0,4,4,0.00074,6.400011539,1.599993587,1,0,0,0,112,112,144,1,0,,,,,,,,,,,,,,,,,,,,,
,,,,,,,,,,,,,,,,,,,,,,,,,,,,,,,,,,,,,,,,,,5e9b3754687af2039ea9f06c,606841c2af6938803ce011a6,2021-04-03_12h23.17.588,Colour_Similarity_Experiment,2020.2.10,Win32,60,60674ec340277cd6a308bc9f,16.77665522,16.70380194,16.68039969,16.68054038,16.68109683,16.68109683,,,,,,,,,,,,,,,,,,,,PF,strong,3,,,,,,,,6,1.32608,,,,,,,,,,,,,,,,,,,,,,,,,,,,9,strong,60.00001234,26.39999396,1,0,0,response1disk,7,114,12.80001163,3.19999361,1,0,0,rectangle,12.80001163,3.19999361,1,0,0,4,3,0.00088,12.80001163,3.19999361,1,0,0,0,113,113,100,1,0,,,,,,,,,,,,,,,,,,,,,
,,,,,,,,,,,,,,,,,,,,,,,,,,,,,,,,,,,,,,,,,,5e9b3754687af2039ea9f06c,606841c2af6938803ce011a6,2021-04-03_12h23.17.588,Colour_Similarity_Experiment,2020.2.10,Win32,60,60674ec340277cd6a308bc9f,16.77665522,16.70380194,16.68039969,16.68054038,16.68109683,16.68109683,,,,,,,,,,,,,,,,,,,,PF,weak,3,,,,,,,,0,1.415425,,,,,,,,,,,,,,,,,,,,,,,,,,,,8,weak,-24.79998893,66.39999455,1,0,0,response7disk,8,115,0.800011456,-6.400006533,1,0,0,rectangle,0.800011456,-6.400006533,1,0,0,4,2,0.00114,0.800011456,-6.400006533,1,0,0,0,114,114,153,1,0,,,,,,,,,,,,,,,,,,,,,
,,,,,,,,,,,,,,,,,,,,,,,,,,,,,,,,,,,,,,,,,,5e9b3754687af2039ea9f06c,606841c2af6938803ce011a6,2021-04-03_12h23.17.588,Colour_Similarity_Experiment,2020.2.10,Win32,60,60674ec340277cd6a308bc9f,16.77665522,16.70380194,16.68039969,16.68054038,16.68109683,16.68109683,,,,,,,,,,,,,,,,,,,,PF,weak,3,,,,,,,,5,2.74991,,,,,,,,,,,,,,,,,,,,,,,,,,,,2,weak,73.60001254,-26.40000683,1,0,0,response3disk,3,116,-3.199988604,11.19999373,1,0,0,rectangle,-3.199988604,11.19999373,1,0,0,4,6,0.00073,-3.199988604,11.19999373,1,0,0,0,115,115,69,1,0,,,,,,,,,,,,,,,,,,,,,
,,,,,,,,,,,,,,,,,,,,,,,,,,,,,,,,,,,,,,,,,,5e9b3754687af2039ea9f06c,606841c2af6938803ce011a6,2021-04-03_12h23.17.588,Colour_Similarity_Experiment,2020.2.10,Win32,60,60674ec340277cd6a308bc9f,16.77665522,16.70380194,16.68039969,16.68054038,16.68109683,16.68109683,,,,,,,,,,,,,,,,,,,,PF,strong,3,,,,,,,,4,2.199475,,,,,,,,,,,,,,,,,,,,,,,,,,,,5,strong,35.20001197,-63.20000738,1,0,0,response3disk,2,117,4.000011504,3.19999361,1,0,0,rectangle,33.60006077,75.19997027,1,0,0,7,7,2.31848,3.200011492,-8.800006568,1,0,0,0,116,116,55,1,1,response1disk_3,rectangle,,,,,,,,,,,,,,,,,,,
,,,,,,,,,,,,,,,,,,,,,,,,,,,,,,,,,,,,,,,,,,5e9b3754687af2039ea9f06c,606841c2af6938803ce011a6,2021-04-03_12h23.17.588,Colour_Similarity_Experiment,2020.2.10,Win32,60,60674ec340277cd6a308bc9f,16.77665522,16.70380194,16.68039969,16.68054038,16.68109683,16.68109683,,,,,,,,,,,,,,,,,,,,PF,weak,3,,,,,,,,4,4.52156,,,,,,,,,,,,,,,,,,,,,,,,,,,,5,weak,45.60006095,-70.40000749,1,0,0,response3disk,8,118,16.80001169,-8.800006568,1,0,0,rectangle,16.80001169,-8.800006568,1,0,0,7,7,0.00026,16.80001169,-8.800006568,1,0,0,0,117,117,149,1,0,,,,,,,,,,,,,,,,,,,,,
,,,,,,,,,,,,,,,,,,,,,,,,,,,,,,,,,,,,,,,,,,5e9b3754687af2039ea9f06c,606841c2af6938803ce011a6,2021-04-03_12h23.17.588,Colour_Similarity_Experiment,2020.2.10,Win32,60,60674ec340277cd6a308bc9f,16.77665522,16.70380194,16.68039969,16.68054038,16.68109683,16.68109683,,,,,,,,,,,,,,,,,,,,PF,weak,3,,,,,,,,3,2.218435,,,,,,,,,,,,,,,,,,,,,,,,,,,,2,weak,-40.79998916,-56.00000727,1,0,0,response5disk,1,119,-10.39993988,4.799993634,1,0,0,rectangle,-10.39993988,4.799993634,1,0,0,7,2,0.00151,-10.39993988,4.799993634,1,0,0,0,118,118,9,1,0,,,,,,,,,,,,,,,,,,,,,
,,,,,,,,,,,,,,,,,,,,,,,,,,,,,,,,,,,,,,,,,,5e9b3754687af2039ea9f06c,606841c2af6938803ce011a6,2021-04-03_12h23.17.588,Colour_Similarity_Experiment,2020.2.10,Win32,60,60674ec340277cd6a308bc9f,16.77665522,16.70380194,16.68039969,16.68054038,16.68109683,16.68109683,,,,,,,,,,,,,,,,,,,,PF,strong,3,,,,,,,,4,2.55005,,,,,,,,,,,,,,,,,,,,,,,,,,,,2,strong,34.40001196,-60.80000734,1,0,0,response3disk,6,120,4.800011516,3.999993622,1,0,0,rectangle,4.800011516,3.999993622,1,0,0,7,2,0.000355,4.800011516,3.999993622,1,0,0,0,119,119,40,1,0,,,,,,,,,,,,,,,,,,,,,
,,,,,,,,,,,,,,,,,,,,,,,,,,,,,,,,,,,,,,,,,,5e9b3754687af2039ea9f06c,606841c2af6938803ce011a6,2021-04-03_12h23.17.588,Colour_Similarity_Experiment,2020.2.10,Win32,60,60674ec340277cd6a308bc9f,16.77665522,16.70380194,16.68039969,16.68054038,16.68109683,16.68109683,,,,,,,,,,,,,,,,,,,,PF,strong,3,,,,,,,,5,2.983695,,,,,,,,,,,,,,,,,,,,,,,,,,,,2,strong,50.4000122,-29.60000688,1,0,0,response3disk,2,121,14.40001166,7.19999367,1,0,0,rectangle,14.40001166,7.19999367,1,0,0,7,6,0.000885,14.40001166,7.19999367,1,0,0,0,120,120,142,1,0,,,,,,,,,,,,,,,,,,,,,
,,,,,,,,,,,,,,,,,,,,,,,,,,,,,,,,,,,,,,,,,,5e9b3754687af2039ea9f06c,606841c2af6938803ce011a6,2021-04-03_12h23.17.588,Colour_Similarity_Experiment,2020.2.10,Win32,60,60674ec340277cd6a308bc9f,16.77665522,16.70380194,16.68039969,16.68054038,16.68109683,16.68109683,,,,,,,,,,,,,,,,,,,,PF,weak,3,,,,,,,,1,2.466065,,,,,,,,,,,,,,,,,,,,,,,,,,,,4,weak,-62.39994066,39.19996973,1,0,0,response7disk,4,122,7.200011551,-6.4373E-06,1,0,0,rectangle,7.200011551,-6.4373E-06,1,0,0,7,1,0.00084,7.200011551,-6.4373E-06,1,0,0,0,121,121,70,1,0,,,,,,,,,,,,,,,,,,,,,
,,,,,,,,,,,,,,,,,,,,,,,,,,,,,,,,,,,,,,,,,,5e9b3754687af2039ea9f06c,606841c2af6938803ce011a6,2021-04-03_12h23.17.588,Colour_Similarity_Experiment,2020.2.10,Win32,60,60674ec340277cd6a308bc9f,16.77665522,16.70380194,16.68039969,16.68054038,16.68109683,16.68109683,,,,,,,,,,,,,,,,,,,,PF,strong,3,,,,,,,,2,2.048825,,,,,,,,,,,,,,,,,,,,,,,,,,,,1,strong,-54.39994054,-37.600007,1,0,0,response5disk,8,123,4.000011504,-2.400006473,1,0,0,rectangle,4.000011504,-2.400006473,1,0,0,7,4,0.00061,4.000011504,-2.400006473,1,0,0,0,122,122,27,1,0,,,,,,,,,,,,,,,,,,,,,
,,,,,,,,,,,,,,,,,,,,,,,,,,,,,,,,,,,,,,,,,,5e9b3754687af2039ea9f06c,606841c2af6938803ce011a6,2021-04-03_12h23.17.588,Colour_Similarity_Experiment,2020.2.10,Win32,60,60674ec340277cd6a308bc9f,16.77665522,16.70380194,16.68039969,16.68054038,16.68109683,16.68109683,,,,,,,,,,,,,,,,,,,,PF,weak,3,,,,,,,,1,1.71543,,,,,,,,,,,,,,,,,,,,,,,,,,,,9,weak,-60.79998946,39.99999416,1,0,0,response7disk,9,124,1.14441E-05,-6.4373E-06,1,0,0,rectangle,1.14441E-05,-6.4373E-06,1,0,0,7,1,0.00073,1.14441E-05,-6.4373E-06,1,0,0,0,123,123,106,1,0,,,,,,,,,,,,,,,,,,,,,
,,,,,,,,,,,,,,,,,,,,,,,,,,,,,,,,,,,,,,,,,,5e9b3754687af2039ea9f06c,606841c2af6938803ce011a6,2021-04-03_12h23.17.588,Colour_Similarity_Experiment,2020.2.10,Win32,60,60674ec340277cd6a308bc9f,16.77665522,16.70380194,16.68039969,16.68054038,16.68109683,16.68109683,,,,,,,,,,,,,,,,,,,,PF,weak,3,,,,,,,,0,1.11552,,,,,,,,,,,,,,,,,,,,,,,,,,,,7,weak,-37.59998912,57.59999442,1,0,0,response7disk,8,125,-2.399939764,-8.000006557,1,0,0,rectangle,-2.399939764,-8.000006557,1,0,0,7,2,0.00068,-2.399939764,-8.000006557,1,0,0,0,124,124,140,1,0,,,,,,,,,,,,,,,,,,,,,
,,,,,,,,,,,,,,,,,,,,,,,,,,,,,,,,,,,,,,,,,,5e9b3754687af2039ea9f06c,606841c2af6938803ce011a6,2021-04-03_12h23.17.588,Colour_Similarity_Experiment,2020.2.10,Win32,60,60674ec340277cd6a308bc9f,16.77665522,16.70380194,16.68039969,16.68054038,16.68109683,16.68109683,,,,,,,,,,,,,,,,,,,,PF,strong,3,,,,,,,,2,1.532185,,,,,,,,,,,,,,,,,,,,,,,,,,,,7,strong,-56.7999894,-28.00000685,1,0,0,response5disk,4,126,4.800011516,3.19999361,1,0,0,rectangle,4.800011516,3.19999361,1,0,0,7,1,0.000885,4.800011516,3.19999361,1,0,0,0,125,125,158,1,0,,,,,,,,,,,,,,,,,,,,,
,,,,,,,,,,,,,,,,,,,,,,,,,,,,,,,,,,,,,,,,,,5e9b3754687af2039ea9f06c,606841c2af6938803ce011a6,2021-04-03_12h23.17.588,Colour_Similarity_Experiment,2020.2.10,Win32,60,60674ec340277cd6a308bc9f,16.77665522,16.70380194,16.68039969,16.68054038,16.68109683,16.68109683,,,,,,,,,,,,,,,,,,,,PF,weak,3,,,,,,,,6,1.34877,,,,,,,,,,,,,,,,,,,,,,,,,,,,7,weak,74.40001255,23.99999392,1,0,0,response1disk,2,127,6.400011539,-3.200006485,1,0,0,rectangle,6.400011539,-3.200006485,1,0,0,7,2,0.000895,6.400011539,-3.200006485,1,0,0,0,126,126,32,1,0,,,,,,,,,,,,,,,,,,,,,
,,,,,,,,,,,,,,,,,,,,,,,,,,,,,,,,,,,,,,,,,,5e9b3754687af2039ea9f06c,606841c2af6938803ce011a6,2021-04-03_12h23.17.588,Colour_Similarity_Experiment,2020.2.10,Win32,60,60674ec340277cd6a308bc9f,16.77665522,16.70380194,16.68039969,16.68054038,16.68109683,16.68109683,,,,,,,,,,,,,,,,,,,,PF,weak,3,,,,,,,,5,1.915635,,,,,,,,,,,,,,,,,,,,,,,,,,,,9,weak,56.00001228,-33.60000694,1,0,0,response3disk,7,128,9.600060415,-4.800006509,1,0,0,rectangle,9.600060415,-4.800006509,1,0,0,7,4,0.000875,9.600060415,-4.800006509,1,0,0,0,127,127,121,1,0,,,,,,,,,,,,,,,,,,,,,
,,,,,,,,,,,,,,,,,,,,,,,,,,,,,,,,,,,,,,,,,,5e9b3754687af2039ea9f06c,606841c2af6938803ce011a6,2021-04-03_12h23.17.588,Colour_Similarity_Experiment,2020.2.10,Win32,60,60674ec340277cd6a308bc9f,16.77665522,16.70380194,16.68039969,16.68054038,16.68109683,16.68109683,,,,,,,,,,,,,,,,,,,,PF,strong,3,,,,,,,,4,3.52939,,,,,,,,,,,,,,,,,,,,,,,,,,,,6,strong,54.40001225,-84.00000769,1,0,0,response3disk,9,129,8.000011563,-8.800006568,1,0,0,rectangle,78.40001261,-54.40000725,1,0,0,5,5,1.353555,-5.599988639,-11.2000066,1,0,0,0,128,128,160,1,1,response3disk_3,rectangle,,,,,,,,,,,,,,,,,,,
,,,,,,,,,,,,,,,,,,,,,,,,,,,,,,,,,,,,,,,,,,5e9b3754687af2039ea9f06c,606841c2af6938803ce011a6,2021-04-03_12h23.17.588,Colour_Similarity_Experiment,2020.2.10,Win32,60,60674ec340277cd6a308bc9f,16.77665522,16.70380194,16.68039969,16.68054038,16.68109683,16.68109683,,,,,,,,,,,,,,,,,,,,PF,weak,3,,,,,,,,5,1.43216,,,,,,,,,,,,,,,,,,,,,,,,,,,,6,weak,54.40001225,-36.80000699,1,0,0,response3disk,9,130,4.000011504,-7.200006545,1,0,0,rectangle,4.000011504,-7.200006545,1,0,0,5,2,0.000665,4.000011504,-7.200006545,1,0,0,0,129,129,45,1,0,,,,,,,,,,,,,,,,,,,,,
,,,,,,,,,,,,,,,,,,,,,,,,,,,,,,,,,,,,,,,,,,5e9b3754687af2039ea9f06c,606841c2af6938803ce011a6,2021-04-03_12h23.17.588,Colour_Similarity_Experiment,2020.2.10,Win32,60,60674ec340277cd6a308bc9f,16.77665522,16.70380194,16.68039969,16.68054038,16.68109683,16.68109683,,,,,,,,,,,,,,,,,,,,PF,weak,3,,,,,,,,7,1.06484,,,,,,,,,,,,,,,,,,,,,,,,,,,,3,weak,30.4000119,72.79999465,1,0,0,response1disk,6,131,11.20001161,1.599993587,1,0,0,rectangle,11.20001161,1.599993587,1,0,0,5,3,0.00106,11.20001161,1.599993587,1,0,0,0,130,130,47,1,0,,,,,,,,,,,,,,,,,,,,,
,,,,,,,,,,,,,,,,,,,,,,,,,,,,,,,,,,,,,,,,,,5e9b3754687af2039ea9f06c,606841c2af6938803ce011a6,2021-04-03_12h23.17.588,Colour_Similarity_Experiment,2020.2.10,Win32,60,60674ec340277cd6a308bc9f,16.77665522,16.70380194,16.68039969,16.68054038,16.68109683,16.68109683,,,,,,,,,,,,,,,,,,,,PF,weak,3,,,,,,,,0,1.548725,,,,,,,,,,,,,,,,,,,,,,,,,,,,8,weak,-45.59998924,69.5999946,1,0,0,response7disk,9,132,3.200011492,1.599993587,1,0,0,rectangle,3.200011492,1.599993587,1,0,0,5,4,0.000715,3.200011492,1.599993587,1,0,0,0,131,131,42,1,0,,,,,,,,,,,,,,,,,,,,,
,,,,,,,,,,,,,,,,,,,,,,,,,,,,,,,,,,,,,,,,,,5e9b3754687af2039ea9f06c,606841c2af6938803ce011a6,2021-04-03_12h23.17.588,Colour_Similarity_Experiment,2020.2.10,Win32,60,60674ec340277cd6a308bc9f,16.77665522,16.70380194,16.68039969,16.68054038,16.68109683,16.68109683,,,,,,,,,,,,,,,,,,,,PF,weak,3,,,,,,,,0,0.914645,,,,,,,,,,,,,,,,,,,,,,,,,,,,1,weak,-45.59998924,64.79999453,1,0,0,response7disk,1,133,-0.799988568,-13.60000664,1,0,0,rectangle,68.00001246,27.19996955,1,0,0,6,6,1.768215,6.400011539,7.999993682,1,0,0,0,132,132,76,1,1,response1disk_3,rectangle,,,,,,,,,,,,,,,,,,,
,,,,,,,,,,,,,,,,,,,,,,,,,,,,,,,,,,,,,,,,,,5e9b3754687af2039ea9f06c,606841c2af6938803ce011a6,2021-04-03_12h23.17.588,Colour_Similarity_Experiment,2020.2.10,Win32,60,60674ec340277cd6a308bc9f,16.77665522,16.70380194,16.68039969,16.68054038,16.68109683,16.68109683,,,,,,,,,,,,,,,,,,,,PF,weak,3,,,,,,,,5,2.215445,,,,,,,,,,,,,,,,,,,,,,,,,,,,7,weak,44.80001211,-20.80000675,1,0,0,response3disk,1,134,12.80001163,-3.200006485,1,0,0,rectangle,12.80001163,-3.200006485,1,0,0,6,0,0.00072,12.80001163,-3.200006485,1,0,0,0,133,133,53,1,0,,,,,,,,,,,,,,,,,,,,,
,,,,,,,,,,,,,,,,,,,,,,,,,,,,,,,,,,,,,,,,,,5e9b3754687af2039ea9f06c,606841c2af6938803ce011a6,2021-04-03_12h23.17.588,Colour_Similarity_Experiment,2020.2.10,Win32,60,60674ec340277cd6a308bc9f,16.77665522,16.70380194,16.68039969,16.68054038,16.68109683,16.68109683,,,,,,,,,,,,,,,,,,,,PF,strong,3,,,,,,,,2,1.83485,,,,,,,,,,,,,,,,,,,,,,,,,,,,6,strong,-76.7999897,-22.40000677,1,0,0,response5disk,6,135,8.800011575,3.19999361,1,0,0,rectangle,8.800011575,3.19999361,1,0,0,6,6,0.000845,8.800011575,3.19999361,1,0,0,0,134,134,91,1,0,,,,,,,,,,,,,,,,,,,,,
,,,,,,,,,,,,,,,,,,,,,,,,,,,,,,,,,,,,,,,,,,5e9b3754687af2039ea9f06c,606841c2af6938803ce011a6,2021-04-03_12h23.17.588,Colour_Similarity_Experiment,2020.2.10,Win32,60,60674ec340277cd6a308bc9f,16.77665522,16.70380194,16.68039969,16.68054038,16.68109683,16.68109683,,,,,,,,,,,,,,,,,,,,PF,weak,3,,,,,,,,6,1.732505,,,,,,,,,,,,,,,,,,,,,,,,,,,,8,weak,80.00001264,27.99999398,1,0,0,response1disk,2,136,5.600060356,-6.4373E-06,1,0,0,rectangle,5.600060356,-6.4373E-06,1,0,0,6,7,0.00074,5.600060356,-6.4373E-06,1,0,0,0,135,135,83,1,0,,,,,,,,,,,,,,,,,,,,,
,,,,,,,,,,,,,,,,,,,,,,,,,,,,,,,,,,,,,,,,,,5e9b3754687af2039ea9f06c,606841c2af6938803ce011a6,2021-04-03_12h23.17.588,Colour_Similarity_Experiment,2020.2.10,Win32,60,60674ec340277cd6a308bc9f,16.77665522,16.70380194,16.68039969,16.68054038,16.68109683,16.68109683,,,,,,,,,,,,,,,,,,,,PF,weak,3,,,,,,,,7,2.01608,,,,,,,,,,,,,,,,,,,,,,,,,,,,8,weak,40.00001204,71.99999464,1,0,0,response1disk,1,137,6.400011539,3.999993622,1,0,0,rectangle,6.400011539,3.999993622,1,0,0,6,2,0.00081,6.400011539,3.999993622,1,0,0,0,136,136,57,1,0,,,,,,,,,,,,,,,,,,,,,
,,,,,,,,,,,,,,,,,,,,,,,,,,,,,,,,,,,,,,,,,,5e9b3754687af2039ea9f06c,606841c2af6938803ce011a6,2021-04-03_12h23.17.588,Colour_Similarity_Experiment,2020.2.10,Win32,60,60674ec340277cd6a308bc9f,16.77665522,16.70380194,16.68039969,16.68054038,16.68109683,16.68109683,,,,,,,,,,,,,,,,,,,,PF,weak,3,,,,,,,,6,2.33332,,,,,,,,,,,,,,,,,,,,,,,,,,,,5,weak,91.2000128,23.19996949,1,0,0,response1disk,6,138,-4.799988627,-3.200006485,1,0,0,rectangle,-4.799988627,-3.200006485,1,0,0,6,2,0.000255,-4.799988627,-3.200006485,1,0,0,0,137,137,103,1,0,,,,,,,,,,,,,,,,,,,,,
,,,,,,,,,,,,,,,,,,,,,,,,,,,,,,,,,,,,,,,,,,5e9b3754687af2039ea9f06c,606841c2af6938803ce011a6,2021-04-03_12h23.17.588,Colour_Similarity_Experiment,2020.2.10,Win32,60,60674ec340277cd6a308bc9f,16.77665522,16.70380194,16.68039969,16.68054038,16.68109683,16.68109683,,,,,,,,,,,,,,,,,,,,PF,weak,3,,,,,,,,2,2.466925,,,,,,,,,,,,,,,,,,,,,,,,,,,,9,weak,-87.99998987,-25.60000682,1,0,0,response5disk,8,139,-18.39994,-1.600006461,1,0,0,rectangle,-18.39994,-1.600006461,1,0,0,6,7,0.000755,-18.39994,-1.600006461,1,0,0,0,138,138,67,1,0,,,,,,,,,,,,,,,,,,,,,
,,,,,,,,,,,,,,,,,,,,,,,,,,,,,,,,,,,,,,,,,,5e9b3754687af2039ea9f06c,606841c2af6938803ce011a6,2021-04-03_12h23.17.588,Colour_Similarity_Experiment,2020.2.10,Win32,60,60674ec340277cd6a308bc9f,16.77665522,16.70380194,16.68039969,16.68054038,16.68109683,16.68109683,,,,,,,,,,,,,,,,,,,,PF,strong,3,,,,,,,,4,2.28488,,,,,,,,,,,,,,,,,,,,,,,,,,,,3,strong,33.60006077,-48.00000715,1,0,0,response3disk,6,140,13.60006047,7.999993682,1,0,0,rectangle,13.60006047,7.999993682,1,0,0,6,4,0.000765,13.60006047,7.999993682,1,0,0,0,139,139,95,1,0,,,,,,,,,,,,,,,,,,,,,
,,,,,,,,,,,,,,,,,,,,,,,,,,,,,,,,,,,,,,,,,,5e9b3754687af2039ea9f06c,606841c2af6938803ce011a6,2021-04-03_12h23.17.588,Colour_Similarity_Experiment,2020.2.10,Win32,60,60674ec340277cd6a308bc9f,16.77665522,16.70380194,16.68039969,16.68054038,16.68109683,16.68109683,,,,,,,,,,,,,,,,,,,,PF,weak,3,,,,,,,,6,1.55147,,,,,,,,,,,,,,,,,,,,,,,,,,,,6,weak,72.80001253,23.99999392,1,0,0,response1disk,5,141,1.14441E-05,-4.000006497,1,0,0,rectangle,1.14441E-05,-4.000006497,1,0,0,6,2,0.00061,1.14441E-05,-4.000006497,1,0,0,0,140,140,59,1,0,,,,,,,,,,,,,,,,,,,,,
,,,,,,,,,,,,,,,,,,,,,,,,,,,,,,,,,,,,,,,,,,5e9b3754687af2039ea9f06c,606841c2af6938803ce011a6,2021-04-03_12h23.17.588,Colour_Similarity_Experiment,2020.2.10,Win32,60,60674ec340277cd6a308bc9f,16.77665522,16.70380194,16.68039969,16.68054038,16.68109683,16.68109683,,,,,,,,,,,,,,,,,,,,PF,strong,3,,,,,,,,5,1.53226,,,,,,,,,,,,,,,,,,,,,,,,,,,,5,strong,68.80001247,-31.2000069,1,0,0,response3disk,1,142,-3.199988604,-7.200006545,1,0,0,rectangle,-3.199988604,-7.200006545,1,0,0,6,6,0.0006,-3.199988604,-7.200006545,1,0,0,0,141,141,131,1,0,,,,,,,,,,,,,,,,,,,,,
,,,,,,,,,,,,,,,,,,,,,,,,,,,,,,,,,,,,,,,,,,5e9b3754687af2039ea9f06c,606841c2af6938803ce011a6,2021-04-03_12h23.17.588,Colour_Similarity_Experiment,2020.2.10,Win32,60,60674ec340277cd6a308bc9f,16.77665522,16.70380194,16.68039969,16.68054038,16.68109683,16.68109683,,,,,,,,,,,,,,,,,,,,PF,weak,3,,,,,,,,2,1.932735,,,,,,,,,,,,,,,,,,,,,,,,,,,,4,weak,-65.59998953,-47.20000714,1,0,0,response5disk,3,143,3.200011492,5.599993646,1,0,0,rectangle,3.200011492,5.599993646,1,0,0,6,0,0.00075,3.200011492,5.599993646,1,0,0,0,142,142,89,1,0,,,,,,,,,,,,,,,,,,,,,
,,,,,,,,,,,,,,,,,,,,,,,,,,,,,,,,,,,,,,,,,,5e9b3754687af2039ea9f06c,606841c2af6938803ce011a6,2021-04-03_12h23.17.588,Colour_Similarity_Experiment,2020.2.10,Win32,60,60674ec340277cd6a308bc9f,16.77665522,16.70380194,16.68039969,16.68054038,16.68109683,16.68109683,,,,,,,,,,,,,,,,,,,,PF,weak,3,,,,,,,,7,1.61506,,,,,,,,,,,,,,,,,,,,,,,,,,,,2,weak,31.20001191,78.39999473,1,0,0,response1disk,8,144,5.600060356,4.799993634,1,0,0,rectangle,5.600060356,4.799993634,1,0,0,6,3,0.001085,5.600060356,4.799993634,1,0,0,0,143,143,52,1,0,,,,,,,,,,,,,,,,,,,,,
,,,,,,,,,,,,,,,,,,,,,,,,,,,,,,,,,,,,,,,,,,5e9b3754687af2039ea9f06c,606841c2af6938803ce011a6,2021-04-03_12h23.17.588,Colour_Similarity_Experiment,2020.2.10,Win32,60,60674ec340277cd6a308bc9f,16.77665522,16.70380194,16.68039969,16.68054038,16.68109683,16.68109683,,,,,,,,,,,,,,,,,,,,PF,strong,3,,,,,,,,3,2.250245,,,,,,,,,,,,,,,,,,,,,,,,,,,,4,strong,-39.99998915,-68.80000746,1,0,0,response5disk,5,145,-3.199988604,-8.800006568,1,0,0,rectangle,-3.199988604,-8.800006568,1,0,0,6,3,0.0001,-3.199988604,-8.800006568,1,0,0,0,144,144,116,1,0,,,,,,,,,,,,,,,,,,,,,
,,,,,,,,,,,,,,,,,,,,,,,,,,,,,,,,,,,,,,,,,,5e9b3754687af2039ea9f06c,606841c2af6938803ce011a6,2021-04-03_12h23.17.588,Colour_Similarity_Experiment,2020.2.10,Win32,60,60674ec340277cd6a308bc9f,16.77665522,16.70380194,16.68039969,16.68054038,16.68109683,16.68109683,,,,,,,,,,,,,,,,,,,,PF,strong,3,,,,,,,,4,3.1528,,,,,,,,,,,,,,,,,,,,,,,,,,,,6,strong,52.00001222,-64.00000739,1,0,0,response3disk,4,146,7.200011551,-3.200006485,1,0,0,rectangle,7.200011551,-3.200006485,1,0,0,6,7,0.00111,7.200011551,-3.200006485,1,0,0,0,145,145,56,1,0,,,,,,,,,,,,,,,,,,,,,
,,,,,,,,,,,,,,,,,,,,,,,,,,,,,,,,,,,,,,,,,,5e9b3754687af2039ea9f06c,606841c2af6938803ce011a6,2021-04-03_12h23.17.588,Colour_Similarity_Experiment,2020.2.10,Win32,60,60674ec340277cd6a308bc9f,16.77665522,16.70380194,16.68039969,16.68054038,16.68109683,16.68109683,,,,,,,,,,,,,,,,,,,,PF,strong,3,,,,,,,,5,2.952675,,,,,,,,,,,,,,,,,,,,,,,,,,,,8,strong,71.20001251,-27.20000684,1,0,0,response3disk,7,147,5.600060356,5.599993646,1,0,0,rectangle,5.600060356,5.599993646,1,0,0,6,1,0.000845,5.600060356,5.599993646,1,0,0,0,146,146,86,1,0,,,,,,,,,,,,,,,,,,,,,
,,,,,,,,,,,,,,,,,,,,,,,,,,,,,,,,,,,,,,,,,,5e9b3754687af2039ea9f06c,606841c2af6938803ce011a6,2021-04-03_12h23.17.588,Colour_Similarity_Experiment,2020.2.10,Win32,60,60674ec340277cd6a308bc9f,16.77665522,16.70380194,16.68039969,16.68054038,16.68109683,16.68109683,,,,,,,,,,,,,,,,,,,,PF,weak,3,,,,,,,,7,1.999065,,,,,,,,,,,,,,,,,,,,,,,,,,,,5,weak,33.60006077,55.19996997,1,0,0,response1disk,9,148,9.600060415,-4.000006497,1,0,0,rectangle,-45.59998924,34.39999408,1,0,0,1,1,1.471,9.600060415,-4.800006509,1,0,0,0,147,147,136,1,1,response7disk_3,rectangle,,,,,,,,,,,,,,,,,,,
,,,,,,,,,,,,,,,,,,,,,,,,,,,,,,,,,,,,,,,,,,5e9b3754687af2039ea9f06c,606841c2af6938803ce011a6,2021-04-03_12h23.17.588,Colour_Similarity_Experiment,2020.2.10,Win32,60,60674ec340277cd6a308bc9f,16.77665522,16.70380194,16.68039969,16.68054038,16.68109683,16.68109683,,,,,,,,,,,,,,,,,,,,PF,weak,3,,,,,,,,6,3.837805,,,,,,,,,,,,,,,,,,,,,,,,,,,,7,weak,88.80001277,33.59999406,1,0,0,response1disk,9,149,-0.799988568,2.399993598,1,0,0,rectangle,-0.799988568,2.399993598,1,0,0,1,1,0.00015,-0.799988568,2.399993598,1,0,0,0,148,148,10,1,0,,,,,,,,,,,,,,,,,,,,,
,,,,,,,,,,,,,,,,,,,,,,,,,,,,,,,,,,,,,,,,,,5e9b3754687af2039ea9f06c,606841c2af6938803ce011a6,2021-04-03_12h23.17.588,Colour_Similarity_Experiment,2020.2.10,Win32,60,60674ec340277cd6a308bc9f,16.77665522,16.70380194,16.68039969,16.68054038,16.68109683,16.68109683,,,,,,,,,,,,,,,,,,,,PF,weak,3,,,,,,,,7,1.082215,,,,,,,,,,,,,,,,,,,,,,,,,,,,2,weak,57.6000123,67.99999458,1,0,0,response1disk,5,150,18.40001172,12.79999375,1,0,0,rectangle,18.40001172,12.79999375,1,0,0,1,2,0.000925,18.40001172,12.79999375,1,0,0,0,149,149,147,1,0,,,,,,,,,,,,,,,,,,,,,
,,,,,,,,,,,,,,,,,,,,,,,,,,,,,,,,,,,,,,,,,,5e9b3754687af2039ea9f06c,606841c2af6938803ce011a6,2021-04-03_12h23.17.588,Colour_Similarity_Experiment,2020.2.10,Win32,60,60674ec340277cd6a308bc9f,16.77665522,16.70380194,16.68039969,16.68054038,16.68109683,16.68109683,,,,,,,,,,,,,,,,,,,,PF,strong,3,,,,,,,,6,2.23321,,,,,,,,,,,,,,,,,,,,,,,,,,,,3,strong,60.00001234,26.39999396,1,0,0,response1disk,2,151,8.000011563,7.19999367,1,0,0,rectangle,8.000011563,7.19999367,1,0,0,1,6,0.00084,8.000011563,7.19999367,1,0,0,0,150,150,93,1,0,,,,,,,,,,,,,,,,,,,,,
,,,,,,,,,,,,,,,,,,,,,,,,,,,,,,,,,,,,,,,,,,5e9b3754687af2039ea9f06c,606841c2af6938803ce011a6,2021-04-03_12h23.17.588,Colour_Similarity_Experiment,2020.2.10,Win32,60,60674ec340277cd6a308bc9f,16.77665522,16.70380194,16.68039969,16.68054038,16.68109683,16.68109683,,,,,,,,,,,,,,,,,,,,PF,weak,3,,,,,,,,5,1.56565,,,,,,,,,,,,,,,,,,,,,,,,,,,,1,weak,51.20001221,-32.80000693,1,0,0,response3disk,8,152,-3.199988604,0.799993575,1,0,0,rectangle,-3.199988604,0.799993575,1,0,0,1,3,0.00093,-3.199988604,0.799993575,1,0,0,0,151,151,65,1,0,,,,,,,,,,,,,,,,,,,,,
,,,,,,,,,,,,,,,,,,,,,,,,,,,,,,,,,,,,,,,,,,5e9b3754687af2039ea9f06c,606841c2af6938803ce011a6,2021-04-03_12h23.17.588,Colour_Similarity_Experiment,2020.2.10,Win32,60,60674ec340277cd6a308bc9f,16.77665522,16.70380194,16.68039969,16.68054038,16.68109683,16.68109683,,,,,,,,,,,,,,,,,,,,PF,strong,3,,,,,,,,5,1.76726,,,,,,,,,,,,,,,,,,,,,,,,,,,,3,strong,88.00001276,-24.00000679,1,0,0,response3disk,7,153,8.000011563,-6.4373E-06,1,0,0,rectangle,8.000011563,-6.4373E-06,1,0,0,1,5,0.000925,8.000011563,-6.4373E-06,1,0,0,0,152,152,118,1,0,,,,,,,,,,,,,,,,,,,,,
,,,,,,,,,,,,,,,,,,,,,,,,,,,,,,,,,,,,,,,,,,5e9b3754687af2039ea9f06c,606841c2af6938803ce011a6,2021-04-03_12h23.17.588,Colour_Similarity_Experiment,2020.2.10,Win32,60,60674ec340277cd6a308bc9f,16.77665522,16.70380194,16.68039969,16.68054038,16.68109683,16.68109683,,,,,,,,,,,,,,,,,,,,PF,strong,3,,,,,,,,5,1.49836,,,,,,,,,,,,,,,,,,,,,,,,,,,,6,strong,73.60001254,-42.40000707,1,0,0,response3disk,7,154,-13.59998876,-6.400006533,1,0,0,rectangle,-13.59998876,-6.400006533,1,0,0,1,3,0.000865,-13.59998876,-6.400006533,1,0,0,0,153,153,18,1,0,,,,,,,,,,,,,,,,,,,,,
,,,,,,,,,,,,,,,,,,,,,,,,,,,,,,,,,,,,,,,,,,5e9b3754687af2039ea9f06c,606841c2af6938803ce011a6,2021-04-03_12h23.17.588,Colour_Similarity_Experiment,2020.2.10,Win32,60,60674ec340277cd6a308bc9f,16.77665522,16.70380194,16.68039969,16.68054038,16.68109683,16.68109683,,,,,,,,,,,,,,,,,,,,PF,weak,3,,,,,,,,5,1.398115,,,,,,,,,,,,,,,,,,,,,,,,,,,,4,weak,67.20001245,-31.2000069,1,0,0,response3disk,8,155,-2.399939764,-2.400006473,1,0,0,rectangle,-2.399939764,-2.400006473,1,0,0,1,1,0.000945,-2.399939764,-2.400006473,1,0,0,0,154,154,124,1,0,,,,,,,,,,,,,,,,,,,,,
,,,,,,,,,,,,,,,,,,,,,,,,,,,,,,,,,,,,,,,,,,5e9b3754687af2039ea9f06c,606841c2af6938803ce011a6,2021-04-03_12h23.17.588,Colour_Similarity_Experiment,2020.2.10,Win32,60,60674ec340277cd6a308bc9f,16.77665522,16.70380194,16.68039969,16.68054038,16.68109683,16.68109683,,,,,,,,,,,,,,,,,,,,PF,weak,3,,,,,,,,6,0.982015,,,,,,,,,,,,,,,,,,,,,,,,,,,,4,weak,78.40001261,29.599994,1,0,0,response1disk,6,156,-5.599988639,-4.800006509,1,0,0,rectangle,-5.599988639,-4.800006509,1,0,0,1,0,0.000885,-5.599988639,-4.800006509,1,0,0,0,155,155,120,1,0,,,,,,,,,,,,,,,,,,,,,
,,,,,,,,,,,,,,,,,,,,,,,,,,,,,,,,,,,,,,,,,,5e9b3754687af2039ea9f06c,606841c2af6938803ce011a6,2021-04-03_12h23.17.588,Colour_Similarity_Experiment,2020.2.10,Win32,60,60674ec340277cd6a308bc9f,16.77665522,16.70380194,16.68039969,16.68054038,16.68109683,16.68109683,,,,,,,,,,,,,,,,,,,,PF,strong,3,,,,,,,,2,1.766685,,,,,,,,,,,,,,,,,,,,,,,,,,,,7,strong,-83.99998981,-32.80000693,1,0,0,response5disk,9,157,-20.79998887,-1.600006461,1,0,0,rectangle,-20.79998887,-1.600006461,1,0,0,1,0,0.000205,-20.79998887,-1.600006461,1,0,0,0,156,156,155,1,0,,,,,,,,,,,,,,,,,,,,,
,,,,,,,,,,,,,,,,,,,,,,,,,,,,,,,,,,,,,,,,,,5e9b3754687af2039ea9f06c,606841c2af6938803ce011a6,2021-04-03_12h23.17.588,Colour_Similarity_Experiment,2020.2.10,Win32,60,60674ec340277cd6a308bc9f,16.77665522,16.70380194,16.68039969,16.68054038,16.68109683,16.68109683,,,,,,,,,,,,,,,,,,,,PF,weak,3,,,,,,,,5,1.24796,,,,,,,,,,,,,,,,,,,,,,,,,,,,1,weak,85.60001272,-33.60000694,1,0,0,response3disk,5,158,8.800011575,-1.600006461,1,0,0,rectangle,8.800011575,-1.600006461,1,0,0,1,5,0.001785,8.800011575,-1.600006461,1,0,0,0,157,157,28,1,0,,,,,,,,,,,,,,,,,,,,,
,,,,,,,,,,,,,,,,,,,,,,,,,,,,,,,,,,,,,,,,,,5e9b3754687af2039ea9f06c,606841c2af6938803ce011a6,2021-04-03_12h23.17.588,Colour_Similarity_Experiment,2020.2.10,Win32,60,60674ec340277cd6a308bc9f,16.77665522,16.70380194,16.68039969,16.68054038,16.68109683,16.68109683,,,,,,,,,,,,,,,,,,,,PF,strong,3,,,,,,,,5,2.08572,,,,,,,,,,,,,,,,,,,,,,,,,,,,1,strong,68.80001247,-34.40000695,1,0,0,response3disk,4,159,11.20001161,-6.4373E-06,1,0,0,rectangle,11.20001161,-6.4373E-06,1,0,0,1,0,0.000815,11.20001161,-6.4373E-06,1,0,0,0,158,158,135,1,0,,,,,,,,,,,,,,,,,,,,,
,,,,,,,,,,,,,,,,,,,,,,,,,,,,,,,,,,,,,,,,,,5e9b3754687af2039ea9f06c,606841c2af6938803ce011a6,2021-04-03_12h23.17.588,Colour_Similarity_Experiment,2020.2.10,Win32,60,60674ec340277cd6a308bc9f,16.77665522,16.70380194,16.68039969,16.68054038,16.68109683,16.68109683,,,,,,,,,,,,,,,,,,,,PF,strong,3,,,,,,,,6,1.29887,,,,,,,,,,,,,,,,,,,,,,,,,,,,3,strong,45.60006095,37.59999412,1,0,0,response1disk,4,160,-3.999988616,0.799993575,1,0,0,rectangle,-3.999988616,0.799993575,1,0,0,1,4,0.00069,-3.999988616,0.799993575,1,0,0,0,159,159,110,1,0,,,,,,,,,,,,,,,,,,,,,
,,,,,,,,,,,,,,,,,,,,,,,,,,,,,,,,,,,,,,,,,,5e9b3754687af2039ea9f06c,606841c2af6938803ce011a6,2021-04-03_12h23.17.588,Colour_Similarity_Experiment,2020.2.10,Win32,60,60674ec340277cd6a308bc9f,16.77665522,16.70380194,16.68039969,16.68054038,16.68109683,16.68109683,,,,,,,,,,,,,,,,,,,,PF,weak,3,,,,,,,,7,1.383195,,,,,,,,,,,,,,,,,,,,,,,,,,,,3,weak,28.00001186,109.5999952,1,0,0,response1disk,1,161,7.200011551,15.9999938,1,0,0,rectangle,7.200011551,15.9999938,1,0,0,1,5,0.000665,7.200011551,15.9999938,1,0,0,0,160,160,96,1,0,,,,,,,,,,,,,,,,,,,,,
,,,,,,,,,,,,,,,,,,,,,,,,,,,,,,,,,,,,,,,,,,5e9b3754687af2039ea9f06c,606841c2af6938803ce011a6,2021-04-03_12h23.17.588,Colour_Similarity_Experiment,2020.2.10,Win32,60,60674ec340277cd6a308bc9f,16.77665522,16.70380194,16.68039969,16.68054038,16.68109683,16.68109683,,,,,,,,,,,,,,,,,,,,PF,weak,3,,,,,,,,2,2.883405,,,,,,,,,,,,,,,,,,,,,,,,,,,,3,weak,-79.99998975,-32.00000691,1,0,0,response5disk,4,162,2.40001148,0.799993575,1,0,0,rectangle,2.40001148,0.799993575,1,0,0,1,2,0.00082,2.40001148,0.799993575,1,0,0,0,161,161,30,1,0,,,,,,,,,,,,,,,,,,,,,
,,,,,,,,,,,,,,,,,,,,,,,,,,,,,,,,,,,,,,,,,,5e9b3754687af2039ea9f06c,606841c2af6938803ce011a6,2021-04-03_12h23.17.588,Colour_Similarity_Experiment,2020.2.10,Win32,60,60674ec340277cd6a308bc9f,16.77665522,16.70380194,16.68039969,16.68054038,16.68109683,16.68109683,,,,,,,,,,,,,,,,,,,,,,,,,,,,,,,,,,,,,,,,,,,,,,,,,,,,,,,,,,,,,,,,,,,,,,,,,,,,,,,,,,,,,,,,,,,,,,,,0,0,0,0,1,,,,,,,,,,,,,,
,,,,,,,,,,,,,,,,,,,,,,,,,,,,,,,,,,,,,,,,,,5e9b3754687af2039ea9f06c,606841c2af6938803ce011a6,2021-04-03_12h23.17.588,Colour_Similarity_Experiment,2020.2.10,Win32,60,60674ec340277cd6a308bc9f,16.77665522,16.70380194,16.68039969,16.68054038,16.68109683,16.68109683,,,,,,,,,,,,,,,,,,,,PF,strong,3,,,,,,,,3,1.46851,,,,,,,,,,,,,,,,,,,,,,,,,,,,4,strong,-35.99998909,-61.60000736,1,0,0,response5disk,6,163,-0.799988568,0.799993575,1,0,0,rectangle,-0.799988568,0.799993575,1,0,0,1,5,0.000925,-0.799988568,0.799993575,1,0,0,0,0,0,122,1,0,,,,,,,,,,,,,,,,,,,,,
,,,,,,,,,,,,,,,,,,,,,,,,,,,,,,,,,,,,,,,,,,5e9b3754687af2039ea9f06c,606841c2af6938803ce011a6,2021-04-03_12h23.17.588,Colour_Similarity_Experiment,2020.2.10,Win32,60,60674ec340277cd6a308bc9f,16.77665522,16.70380194,16.68039969,16.68054038,16.68109683,16.68109683,,,,,,,,,,,,,,,,,,,,PF,weak,3,,,,,,,,3,1.335155,,,,,,,,,,,,,,,,,,,,,,,,,,,,7,weak,-26.39994012,-80.00000763,1,0,0,response5disk,6,164,-7.199988663,-4.000006497,1,0,0,rectangle,-7.199988663,-4.000006497,1,0,0,1,5,0.000595,-7.199988663,-4.000006497,1,0,0,0,1,1,29,1,0,,,,,,,,,,,,,,,,,,,,,
,,,,,,,,,,,,,,,,,,,,,,,,,,,,,,,,,,,,,,,,,,5e9b3754687af2039ea9f06c,606841c2af6938803ce011a6,2021-04-03_12h23.17.588,Colour_Similarity_Experiment,2020.2.10,Win32,60,60674ec340277cd6a308bc9f,16.77665522,16.70380194,16.68039969,16.68054038,16.68109683,16.68109683,,,,,,,,,,,,,,,,,,,,PF,strong,3,,,,,,,,4,1.39898,,,,,,,,,,,,,,,,,,,,,,,,,,,,8,strong,28.00001186,-40.80000705,1,0,0,response3disk,4,165,-1.59998858,5.599993646,1,0,0,rectangle,-1.59998858,5.599993646,1,0,0,1,2,0.000915,-1.59998858,5.599993646,1,0,0,0,2,2,88,1,0,,,,,,,,,,,,,,,,,,,,,
,,,,,,,,,,,,,,,,,,,,,,,,,,,,,,,,,,,,,,,,,,5e9b3754687af2039ea9f06c,606841c2af6938803ce011a6,2021-04-03_12h23.17.588,Colour_Similarity_Experiment,2020.2.10,Win32,60,60674ec340277cd6a308bc9f,16.77665522,16.70380194,16.68039969,16.68054038,16.68109683,16.68109683,,,,,,,,,,,,,,,,,,,,PF,strong,3,,,,,,,,6,1.565825,,,,,,,,,,,,,,,,,,,,,,,,,,,,9,strong,35.20001197,19.19999385,1,0,0,response1disk,4,166,3.200011492,-4.000006497,1,0,0,rectangle,3.200011492,-4.000006497,1,0,0,1,5,0.00165,3.200011492,-4.000006497,1,0,0,0,3,3,60,1,0,,,,,,,,,,,,,,,,,,,,,
