key_resp.keys,key_resp.rt,key_resp_16.keys,key_resp_16.rt,key_resp_2.keys,key_resp_2.rt,X Scale,ratio_pxpermm,screen_size_x,screen_size_y,testsize,key_resp_3.keys,key_resp_4.keys,key_resp_4.rt,line_size,key_resp_5.keys,key_resp_5.rt,key_resp_6.keys,key_resp_6.rt,key_resp_8.keys,key_resp_8.rt,key_resp_7.keys,key_resp_7.rt,key_resp_12.keys,key_resp_12.rt,key_resp_11.keys,key_resp_11.rt,key_resp_18.keys,key_resp_18.rt,key_resp_21.keys,key_resp_21.rt,key_resp_13.keys,key_resp_13.rt,key_resp_19.keys,key_resp_19.rt,ballposx,viewer_distance,trials.thisRepN,trials.thisTrialN,trials.thisN,trials.thisIndex,trials.ran,participant,session,date,expName,psychopyVersion,OS,frameRate,study_id,realFrameRate1,realFrameRate2,realFrameRate3,realFrameRate4,realFrameRate5,realFrameRate,viewerdistancecm,DVA_to_distance,radius_F,radius_P,r_F,R_P,key_resp_20.keys,key_resp_20.rt,key_resp_14.keys,key_resp_14.rt,key_resp_15.keys,key_resp_15.rt,key_resp_17.keys,key_resp_17.rt,key_resp_9.keys,key_resp_9.rt,key_resp_10.keys,key_resp_10.rt,Colour_1,Ecc,maskCon,mask_frames,mouse_5.x,mouse_5.y,mouse_5.leftButton,mouse_5.midButton,mouse_5.rightButton,mouse_5.clicked_name,Colour_2,similarity,response_time,mouse_10.x,mouse_10.y,mouse_10.leftButton,mouse_10.midButton,mouse_10.rightButton,mouse_10.clicked_name,mouse_7.x,mouse_7.y,mouse_7.leftButton,mouse_7.midButton,mouse_7.rightButton,catchnumberprac,mouse_6.x,mouse_6.y,mouse_6.leftButton,mouse_6.midButton,mouse_6.rightButton,duringprac.thisRepN,duringprac.thisTrialN,duringprac.thisN,duringprac.thisIndex,duringprac.ran,mouse_7.clicked_name,catchprac,mouse_6.clicked_name,key_resp_22.keys,key_resp_22.rt,Colour1,maskCon1,mouse.x,mouse.y,mouse.leftButton,mouse.midButton,mouse.rightButton,mouse.clicked_name,Colour2,trialnumber,mouse_2.x,mouse_2.y,mouse_2.leftButton,mouse_2.midButton,mouse_2.rightButton,mouse_2.clicked_name,mouse_3.x,mouse_3.y,mouse_3.leftButton,mouse_3.midButton,mouse_3.rightButton,catchresponse,catchnumber,response_time_catch,mouse_11.x,mouse_11.y,mouse_11.leftButton,mouse_11.midButton,mouse_11.rightButton,trials_2.thisRepN,trials_2.thisTrialN,trials_2.thisN,trials_2.thisIndex,trials_2.ran,Catch,mouse_3.clicked_name,mouse_11.clicked_name,trials_3.thisRepN,trials_3.thisTrialN,trials_3.thisN,trials_3.thisIndex,trials_3.ran,answer1,rt1,answer2,rt2,answer3,rt3,answer4,rt4,answer5,rt5,answer6,rt6,answer7,rt7
space,19.153,space,19.235,space,23.335,33.1,3.31,464.0483384,261.0271903,1536,,space,15.185,66.2,space,13.55,space,5.084,space,2.802,space,5.7,space,21.184,space,11.151,space,19.933,space,14.5,space,18.7,return,4.85,-94.464,892.0338828,0,0,0,0,1,5ea5ce7be9fb245c8d7deded,60684717b4eecc8bab9f6c86,2021-04-03_12h56.45.170,Colour_Similarity_Experiment,2020.2.10,Win32,60,60674ec340277cd6a308bc9f,16.91373802,16.6978355,16.67763158,16.76677668,16.6631016,16.6978355,,,,,,,,,,,,,,,,,,,,,,,,,,,,,,,,,,,,,,,,,,,,,,,,,,,,,,,,,,,,,,,,,,,,,,,,,,,,,,,,,,,,,,,,,,,,,,,,,,,,,,,,,,,,,,,,,,
,,,,,,,,,,,,,,,,,,,,,,,,,,,,,,,,,return,4.766,-85.248,880.4364759,1,0,1,0,1,5ea5ce7be9fb245c8d7deded,60684717b4eecc8bab9f6c86,2021-04-03_12h56.45.170,Colour_Similarity_Experiment,2020.2.10,Win32,60,60674ec340277cd6a308bc9f,16.91373802,16.6978355,16.67763158,16.76677668,16.6631016,16.6978355,,,,,,,,,,,,,,,,,,,,,,,,,,,,,,,,,,,,,,,,,,,,,,,,,,,,,,,,,,,,,,,,,,,,,,,,,,,,,,,,,,,,,,,,,,,,,,,,,,,,,,,,,,,,,,,,,,
,,,,,,,,,,,,,,,,,,,,,,,,,,,,,,,,,return,4.635,-66.816,857.241662,2,0,2,0,1,5ea5ce7be9fb245c8d7deded,60684717b4eecc8bab9f6c86,2021-04-03_12h56.45.170,Colour_Similarity_Experiment,2020.2.10,Win32,60,60674ec340277cd6a308bc9f,16.91373802,16.6978355,16.67763158,16.76677668,16.6631016,16.6978355,,,,,,,,,,,,,,,,,,,,,,,,,,,,,,,,,,,,,,,,,,,,,,,,,,,,,,,,,,,,,,,,,,,,,,,,,,,,,,,,,,,,,,,,,,,,,,,,,,,,,,,,,,,,,,,,,,
,,,,,,,,,,,,,,,,,,,,,,,,,,,,,,,,,return,4.485,-46.08,831.1474964,3,0,3,0,1,5ea5ce7be9fb245c8d7deded,60684717b4eecc8bab9f6c86,2021-04-03_12h56.45.170,Colour_Similarity_Experiment,2020.2.10,Win32,60,60674ec340277cd6a308bc9f,16.91373802,16.6978355,16.67763158,16.76677668,16.6631016,16.6978355,,,,,,,,,,,,,,,,,,,,,,,,,,,,,,,,,,,,,,,,,,,,,,,,,,,,,,,,,,,,,,,,,,,,,,,,,,,,,,,,,,,,,,,,,,,,,,,,,,,,,,,,,,,,,,,,,,
,,,,,,,,,,,,,,,,,,,,,,,,,,,,,,,,,return,4.618,-64.512,854.3423103,4,0,4,0,1,5ea5ce7be9fb245c8d7deded,60684717b4eecc8bab9f6c86,2021-04-03_12h56.45.170,Colour_Similarity_Experiment,2020.2.10,Win32,60,60674ec340277cd6a308bc9f,16.91373802,16.6978355,16.67763158,16.76677668,16.6631016,16.6978355,,,,,,,,,,,,,,,,,,,,,,,,,,,,,,,,,,,,,,,,,,,,,,,,,,,,,,,,,,,,,,,,,,,,,,,,,,,,,,,,,,,,,,,,,,,,,,,,,,,,,,,,,,,,,,,,,,
,,,,,,,,,,,,,,,,,,,,,,,,,,,,,,,,,,,,,,,,,,5ea5ce7be9fb245c8d7deded,60684717b4eecc8bab9f6c86,2021-04-03_12h56.45.170,Colour_Similarity_Experiment,2020.2.10,Win32,60,60674ec340277cd6a308bc9f,16.91373802,16.6978355,16.67763158,16.76677668,16.6631016,16.6978355,86,15.01135047,74.53135508,496.8757005,49.68757005,223.5940652,space,5.515,space,15.98,space,35.431,space,33.961,space,5.834,space,8.531,4,PF,weak,3,-90.39994107,-38.40000701,1,0,0,response5disk_5,4,2,18.663,-2.399939764,3.19999361,1,0,0,rectangle_8,-2.399939764,3.19999361,1,0,0,7,-2.399939764,3.19999361,1,0,0,0,0,0,6,1,,,,,,,,,,,,,,,,,,,,,,,,,,,,,,,,,,,,,,,,,,,,,,,,,,,,,,,,,,,,,
,,,,,,,,,,,,,,,,,,,,,,,,,,,,,,,,,,,,,,,,,,5ea5ce7be9fb245c8d7deded,60684717b4eecc8bab9f6c86,2021-04-03_12h56.45.170,Colour_Similarity_Experiment,2020.2.10,Win32,60,60674ec340277cd6a308bc9f,16.91373802,16.6978355,16.67763158,16.76677668,16.6631016,16.6978355,,,,,,,,,,,,,,,,,,,5,PF,strong,3,38.40001202,106.3999951,1,0,0,response1disk_5,2,7,7.445,-3.999988616,-2.400006473,1,0,0,rectangle_8,54.40001225,106.3999951,1,0,0,7,-7.199988663,-6.4373E-06,1,0,0,0,1,1,2,1,response1disk_7,7,rectangle_4,,,,,,,,,,,,,,,,,,,,,,,,,,,,,,,,,,,,,,,,,,,,,,,,,,,,,,,,,,
,,,,,,,,,,,,,,,,,,,,,,,,,,,,,,,,,,,,,,,,,,5ea5ce7be9fb245c8d7deded,60684717b4eecc8bab9f6c86,2021-04-03_12h56.45.170,Colour_Similarity_Experiment,2020.2.10,Win32,60,60674ec340277cd6a308bc9f,16.91373802,16.6978355,16.67763158,16.76677668,16.6631016,16.6978355,,,,,,,,,,,,,,,,,,,4,PF,weak,3,39.20001203,103.1999707,1,0,0,response1disk_5,6,7,3.833,0.800011456,-6.4373E-06,1,0,0,rectangle_8,0.800011456,-6.4373E-06,1,0,0,7,0.800011456,-6.4373E-06,1,0,0,0,2,2,5,1,,,,,,,,,,,,,,,,,,,,,,,,,,,,,,,,,,,,,,,,,,,,,,,,,,,,,,,,,,,,,
,,,,,,,,,,,,,,,,,,,,,,,,,,,,,,,,,,,,,,,,,,5ea5ce7be9fb245c8d7deded,60684717b4eecc8bab9f6c86,2021-04-03_12h56.45.170,Colour_Similarity_Experiment,2020.2.10,Win32,60,60674ec340277cd6a308bc9f,16.91373802,16.6978355,16.67763158,16.76677668,16.6631016,16.6978355,,,,,,,,,,,,,,,,,,,7,PF,strong,3,36.80001199,99.99999505,1,0,0,response1disk_5,3,7,3.03,1.14441E-05,-6.4373E-06,1,0,0,rectangle_8,1.14441E-05,-6.4373E-06,1,0,0,7,1.14441E-05,-6.4373E-06,1,0,0,0,3,3,3,1,,,,,,,,,,,,,,,,,,,,,,,,,,,,,,,,,,,,,,,,,,,,,,,,,,,,,,,,,,,,,
,,,,,,,,,,,,,,,,,,,,,,,,,,,,,,,,,,,,,,,,,,5ea5ce7be9fb245c8d7deded,60684717b4eecc8bab9f6c86,2021-04-03_12h56.45.170,Colour_Similarity_Experiment,2020.2.10,Win32,60,60674ec340277cd6a308bc9f,16.91373802,16.6978355,16.67763158,16.76677668,16.6631016,16.6978355,,,,,,,,,,,,,,,,,,,3,PF,weak,3,40.00001204,99.99999505,1,0,0,response1disk_5,8,7,2.282,4.800011516,2.399993598,1,0,0,rectangle_8,44.0000121,114.3999953,1,0,0,7,1.600060296,7.999993682,1,0,0,0,4,4,4,1,response1disk_7,7,rectangle_4,,,,,,,,,,,,,,,,,,,,,,,,,,,,,,,,,,,,,,,,,,,,,,,,,,,,,,,,,,
,,,,,,,,,,,,,,,,,,,,,,,,,,,,,,,,,,,,,,,,,,5ea5ce7be9fb245c8d7deded,60684717b4eecc8bab9f6c86,2021-04-03_12h56.45.170,Colour_Similarity_Experiment,2020.2.10,Win32,60,60674ec340277cd6a308bc9f,16.91373802,16.6978355,16.67763158,16.76677668,16.6631016,16.6978355,,,,,,,,,,,,,,,,,,,7,PF,strong,3,56.00001228,102.3999951,1,0,0,response1disk_5,1,7,3.432,11.20001161,-1.600006461,1,0,0,rectangle_8,11.20001161,-1.600006461,1,0,0,7,11.20001161,-1.600006461,1,0,0,0,5,5,0,1,,,,,,,,,,,,,,,,,,,,,,,,,,,,,,,,,,,,,,,,,,,,,,,,,,,,,,,,,,,,,
,,,,,,,,,,,,,,,,,,,,,,,,,,,,,,,,,,,,,,,,,,5ea5ce7be9fb245c8d7deded,60684717b4eecc8bab9f6c86,2021-04-03_12h56.45.170,Colour_Similarity_Experiment,2020.2.10,Win32,60,60674ec340277cd6a308bc9f,16.91373802,16.6978355,16.67763158,16.76677668,16.6631016,16.6978355,,,,,,,,,,,,,,,,,,,2,PF,weak,3,50.4000122,111.9999952,1,0,0,response1disk_5,9,7,1.281,0.800011456,-0.800006449,1,0,0,rectangle_8,0.800011456,-0.800006449,1,0,0,7,0.800011456,-0.800006449,1,0,0,0,6,6,1,1,,,,,,,,,,,,,,,,,,,,,,,,,,,,,,,,,,,,,,,,,,,,,,,,,,,,,,,,,,,,,
,,,,,,,,,,,,,,,,,,,,,,,,,,,,,,,,,,,,,,,,,,5ea5ce7be9fb245c8d7deded,60684717b4eecc8bab9f6c86,2021-04-03_12h56.45.170,Colour_Similarity_Experiment,2020.2.10,Win32,60,60674ec340277cd6a308bc9f,16.91373802,16.6978355,16.67763158,16.76677668,16.6631016,16.6978355,,,,,,,,,,,,,,,,,,,,PF,weak,3,,,,,,,,7,1.532,,,,,,,,,,,,,,,,,,,,,,,,,,space,47.175,2,weak,53.60001224,100.7999951,1,0,0,response1disk,6,1,10.4000116,6.399993658,1,0,0,rectangle,10.4000116,6.399993658,1,0,0,,5,0.003,10.4000116,6.399993658,1,0,0,0,0,0,113,1,0,,,,,,,,,,,,,,,,,,,,,
,,,,,,,,,,,,,,,,,,,,,,,,,,,,,,,,,,,,,,,,,,5ea5ce7be9fb245c8d7deded,60684717b4eecc8bab9f6c86,2021-04-03_12h56.45.170,Colour_Similarity_Experiment,2020.2.10,Win32,60,60674ec340277cd6a308bc9f,16.91373802,16.6978355,16.67763158,16.76677668,16.6631016,16.6978355,,,,,,,,,,,,,,,,,,,,PF,strong,3,,,,,,,,7,1.481,,,,,,,,,,,,,,,,,,,,,,,,,,,,9,strong,48.00001216,111.1999708,1,0,0,response1disk,4,2,-2.399939764,-3.200006485,1,0,0,rectangle,-2.399939764,-3.200006485,1,0,0,,2,0.002,-2.399939764,-3.200006485,1,0,0,0,1,1,60,1,0,,,,,,,,,,,,,,,,,,,,,
,,,,,,,,,,,,,,,,,,,,,,,,,,,,,,,,,,,,,,,,,,5ea5ce7be9fb245c8d7deded,60684717b4eecc8bab9f6c86,2021-04-03_12h56.45.170,Colour_Similarity_Experiment,2020.2.10,Win32,60,60674ec340277cd6a308bc9f,16.91373802,16.6978355,16.67763158,16.76677668,16.6631016,16.6978355,,,,,,,,,,,,,,,,,,,,PF,strong,3,,,,,,,,7,6.214,,,,,,,,,,,,,,,,,,,,,,,,,,,,5,strong,42.40001208,106.3999951,1,0,0,response1disk,7,3,13.60006047,-6.4373E-06,1,0,0,rectangle,13.60006047,-6.4373E-06,1,0,0,,3,0.001,13.60006047,-6.4373E-06,1,0,0,0,2,2,7,1,0,,,,,,,,,,,,,,,,,,,,,
,,,,,,,,,,,,,,,,,,,,,,,,,,,,,,,,,,,,,,,,,,5ea5ce7be9fb245c8d7deded,60684717b4eecc8bab9f6c86,2021-04-03_12h56.45.170,Colour_Similarity_Experiment,2020.2.10,Win32,60,60674ec340277cd6a308bc9f,16.91373802,16.6978355,16.67763158,16.76677668,16.6631016,16.6978355,,,,,,,,,,,,,,,,,,,,PF,strong,3,,,,,,,,7,1.232,,,,,,,,,,,,,,,,,,,,,,,,,,,,6,strong,50.4000122,104.7999951,1,0,0,response1disk,4,4,-3.999988616,-6.4373E-06,1,0,0,rectangle,-3.999988616,-6.4373E-06,1,0,0,,2,0.002,-3.999988616,-6.4373E-06,1,0,0,0,3,3,56,1,0,,,,,,,,,,,,,,,,,,,,,
,,,,,,,,,,,,,,,,,,,,,,,,,,,,,,,,,,,,,,,,,,5ea5ce7be9fb245c8d7deded,60684717b4eecc8bab9f6c86,2021-04-03_12h56.45.170,Colour_Similarity_Experiment,2020.2.10,Win32,60,60674ec340277cd6a308bc9f,16.91373802,16.6978355,16.67763158,16.76677668,16.6631016,16.6978355,,,,,,,,,,,,,,,,,,,,PF,strong,3,,,,,,,,7,1.029,,,,,,,,,,,,,,,,,,,,,,,,,,,,1,strong,51.20001221,126.3999954,1,0,0,response1disk,2,5,-3.199988604,3.19999361,1,0,0,rectangle,-3.199988604,3.19999361,1,0,0,,6,0.001,-3.199988604,3.19999361,1,0,0,0,4,4,2,1,0,,,,,,,,,,,,,,,,,,,,,
,,,,,,,,,,,,,,,,,,,,,,,,,,,,,,,,,,,,,,,,,,5ea5ce7be9fb245c8d7deded,60684717b4eecc8bab9f6c86,2021-04-03_12h56.45.170,Colour_Similarity_Experiment,2020.2.10,Win32,60,60674ec340277cd6a308bc9f,16.91373802,16.6978355,16.67763158,16.76677668,16.6631016,16.6978355,,,,,,,,,,,,,,,,,,,,PF,strong,3,,,,,,,,2,4.893,,,,,,,,,,,,,,,,,,,,,,,,,,,,3,strong,-79.19998974,-44.00000709,1,0,0,response5disk,3,6,-7.199988663,-1.600006461,1,0,0,rectangle,-7.199988663,-1.600006461,1,0,0,,3,0.002,-7.199988663,-1.600006461,1,0,0,0,5,5,68,1,0,,,,,,,,,,,,,,,,,,,,,
,,,,,,,,,,,,,,,,,,,,,,,,,,,,,,,,,,,,,,,,,,5ea5ce7be9fb245c8d7deded,60684717b4eecc8bab9f6c86,2021-04-03_12h56.45.170,Colour_Similarity_Experiment,2020.2.10,Win32,60,60674ec340277cd6a308bc9f,16.91373802,16.6978355,16.67763158,16.76677668,16.6631016,16.6978355,,,,,,,,,,,,,,,,,,,,PF,weak,3,,,,,,,,7,2.031,,,,,,,,,,,,,,,,,,,,,,,,,,,,7,weak,38.40001202,103.9999951,1,0,0,response1disk,5,7,1.14441E-05,-0.800006449,1,0,0,rectangle,1.14441E-05,-0.800006449,1,0,0,,7,0.001,1.14441E-05,-0.800006449,1,0,0,0,6,6,92,1,0,,,,,,,,,,,,,,,,,,,,,
,,,,,,,,,,,,,,,,,,,,,,,,,,,,,,,,,,,,,,,,,,5ea5ce7be9fb245c8d7deded,60684717b4eecc8bab9f6c86,2021-04-03_12h56.45.170,Colour_Similarity_Experiment,2020.2.10,Win32,60,60674ec340277cd6a308bc9f,16.91373802,16.6978355,16.67763158,16.76677668,16.6631016,16.6978355,,,,,,,,,,,,,,,,,,,,PF,weak,3,,,,,,,,7,1.72,,,,,,,,,,,,,,,,,,,,,,,,,,,,9,weak,45.60006095,107.9999952,1,0,0,response1disk,6,8,-2.399939764,0.799993575,1,0,0,rectangle,-2.399939764,0.799993575,1,0,0,,4,0.001,-2.399939764,0.799993575,1,0,0,0,7,7,148,1,0,,,,,,,,,,,,,,,,,,,,,
,,,,,,,,,,,,,,,,,,,,,,,,,,,,,,,,,,,,,,,,,,5ea5ce7be9fb245c8d7deded,60684717b4eecc8bab9f6c86,2021-04-03_12h56.45.170,Colour_Similarity_Experiment,2020.2.10,Win32,60,60674ec340277cd6a308bc9f,16.91373802,16.6978355,16.67763158,16.76677668,16.6631016,16.6978355,,,,,,,,,,,,,,,,,,,,PF,strong,3,,,,,,,,2,4.249,,,,,,,,,,,,,,,,,,,,,,,,,,,,8,strong,-87.99998987,-49.60000718,1,0,0,response5disk,8,9,-7.199988663,-0.800006449,1,0,0,rectangle,-7.199988663,-0.800006449,1,0,0,,4,0,-7.199988663,-0.800006449,1,0,0,0,8,8,48,1,0,,,,,,,,,,,,,,,,,,,,,
,,,,,,,,,,,,,,,,,,,,,,,,,,,,,,,,,,,,,,,,,,5ea5ce7be9fb245c8d7deded,60684717b4eecc8bab9f6c86,2021-04-03_12h56.45.170,Colour_Similarity_Experiment,2020.2.10,Win32,60,60674ec340277cd6a308bc9f,16.91373802,16.6978355,16.67763158,16.76677668,16.6631016,16.6978355,,,,,,,,,,,,,,,,,,,,PF,strong,3,,,,,,,,7,1.396,,,,,,,,,,,,,,,,,,,,,,,,,,,,6,strong,43.20001209,99.19997063,1,0,0,response1disk,1,10,3.200011492,3.19999361,1,0,0,rectangle,3.200011492,3.19999361,1,0,0,,4,0,3.200011492,3.19999361,1,0,0,0,9,9,5,1,0,,,,,,,,,,,,,,,,,,,,,
,,,,,,,,,,,,,,,,,,,,,,,,,,,,,,,,,,,,,,,,,,5ea5ce7be9fb245c8d7deded,60684717b4eecc8bab9f6c86,2021-04-03_12h56.45.170,Colour_Similarity_Experiment,2020.2.10,Win32,60,60674ec340277cd6a308bc9f,16.91373802,16.6978355,16.67763158,16.76677668,16.6631016,16.6978355,,,,,,,,,,,,,,,,,,,,PF,weak,3,,,,,,,,0,3.933,,,,,,,,,,,,,,,,,,,,,,,,,,,,4,weak,-47.19998926,112.7999952,1,0,0,response7disk,4,11,2.40001148,7.999993682,1,0,0,rectangle,2.40001148,7.999993682,1,0,0,,3,0.001,2.40001148,7.999993682,1,0,0,0,10,10,70,1,0,,,,,,,,,,,,,,,,,,,,,
,,,,,,,,,,,,,,,,,,,,,,,,,,,,,,,,,,,,,,,,,,5ea5ce7be9fb245c8d7deded,60684717b4eecc8bab9f6c86,2021-04-03_12h56.45.170,Colour_Similarity_Experiment,2020.2.10,Win32,60,60674ec340277cd6a308bc9f,16.91373802,16.6978355,16.67763158,16.76677668,16.6631016,16.6978355,,,,,,,,,,,,,,,,,,,,PF,weak,3,,,,,,,,7,1.24,,,,,,,,,,,,,,,,,,,,,,,,,,,,6,weak,40.80001205,101.5999951,1,0,0,response1disk,9,12,1.600060296,-1.600006461,1,0,0,rectangle,1.600060296,-1.600006461,1,0,0,,1,0.001,1.600060296,-1.600006461,1,0,0,0,11,11,45,1,0,,,,,,,,,,,,,,,,,,,,,
,,,,,,,,,,,,,,,,,,,,,,,,,,,,,,,,,,,,,,,,,,5ea5ce7be9fb245c8d7deded,60684717b4eecc8bab9f6c86,2021-04-03_12h56.45.170,Colour_Similarity_Experiment,2020.2.10,Win32,60,60674ec340277cd6a308bc9f,16.91373802,16.6978355,16.67763158,16.76677668,16.6631016,16.6978355,,,,,,,,,,,,,,,,,,,,PF,strong,3,,,,,,,,1,3.411,,,,,,,,,,,,,,,,,,,,,,,,,,,,1,strong,-88.79998988,39.19996973,1,0,0,response7disk,1,13,6.400011539,-4.800006509,1,0,0,rectangle,6.400011539,-4.800006509,1,0,0,,5,0.003,6.400011539,-4.800006509,1,0,0,0,12,12,151,1,0,,,,,,,,,,,,,,,,,,,,,
,,,,,,,,,,,,,,,,,,,,,,,,,,,,,,,,,,,,,,,,,,5ea5ce7be9fb245c8d7deded,60684717b4eecc8bab9f6c86,2021-04-03_12h56.45.170,Colour_Similarity_Experiment,2020.2.10,Win32,60,60674ec340277cd6a308bc9f,16.91373802,16.6978355,16.67763158,16.76677668,16.6631016,16.6978355,,,,,,,,,,,,,,,,,,,,PF,weak,3,,,,,,,,7,1.247,,,,,,,,,,,,,,,,,,,,,,,,,,,,4,weak,45.60006095,102.3999951,1,0,0,response1disk,2,14,-16.79998881,-2.400006473,1,0,0,rectangle,-16.79998881,-2.400006473,1,0,0,,6,0.002,-16.79998881,-2.400006473,1,0,0,0,13,13,108,1,0,,,,,,,,,,,,,,,,,,,,,
,,,,,,,,,,,,,,,,,,,,,,,,,,,,,,,,,,,,,,,,,,5ea5ce7be9fb245c8d7deded,60684717b4eecc8bab9f6c86,2021-04-03_12h56.45.170,Colour_Similarity_Experiment,2020.2.10,Win32,60,60674ec340277cd6a308bc9f,16.91373802,16.6978355,16.67763158,16.76677668,16.6631016,16.6978355,,,,,,,,,,,,,,,,,,,,PF,strong,3,,,,,,,,7,1.179,,,,,,,,,,,,,,,,,,,,,,,,,,,,7,strong,32.00001192,100.7999951,1,0,0,response1disk,1,15,-8.799988687,-4.000006497,1,0,0,rectangle,-8.799988687,-4.000006497,1,0,0,,3,0.001,-8.799988687,-4.000006497,1,0,0,0,14,14,132,1,0,,,,,,,,,,,,,,,,,,,,,
,,,,,,,,,,,,,,,,,,,,,,,,,,,,,,,,,,,,,,,,,,5ea5ce7be9fb245c8d7deded,60684717b4eecc8bab9f6c86,2021-04-03_12h56.45.170,Colour_Similarity_Experiment,2020.2.10,Win32,60,60674ec340277cd6a308bc9f,16.91373802,16.6978355,16.67763158,16.76677668,16.6631016,16.6978355,,,,,,,,,,,,,,,,,,,,PF,strong,3,,,,,,,,7,1.631,,,,,,,,,,,,,,,,,,,,,,,,,,,,3,strong,51.20001221,115.1999709,1,0,0,response1disk,2,16,-2.399939764,-6.4373E-06,1,0,0,rectangle,-2.399939764,-6.4373E-06,1,0,0,,0,0.001,-2.399939764,-6.4373E-06,1,0,0,0,15,15,93,1,0,,,,,,,,,,,,,,,,,,,,,
,,,,,,,,,,,,,,,,,,,,,,,,,,,,,,,,,,,,,,,,,,5ea5ce7be9fb245c8d7deded,60684717b4eecc8bab9f6c86,2021-04-03_12h56.45.170,Colour_Similarity_Experiment,2020.2.10,Win32,60,60674ec340277cd6a308bc9f,16.91373802,16.6978355,16.67763158,16.76677668,16.6631016,16.6978355,,,,,,,,,,,,,,,,,,,,PF,strong,3,,,,,,,,7,1.165,,,,,,,,,,,,,,,,,,,,,,,,,,,,1,strong,55.20001227,111.9999952,1,0,0,response1disk,4,17,-7.199988663,3.19999361,1,0,0,rectangle,-7.199988663,3.19999361,1,0,0,,6,0.002,-7.199988663,3.19999361,1,0,0,0,16,16,135,1,0,,,,,,,,,,,,,,,,,,,,,
,,,,,,,,,,,,,,,,,,,,,,,,,,,,,,,,,,,,,,,,,,5ea5ce7be9fb245c8d7deded,60684717b4eecc8bab9f6c86,2021-04-03_12h56.45.170,Colour_Similarity_Experiment,2020.2.10,Win32,60,60674ec340277cd6a308bc9f,16.91373802,16.6978355,16.67763158,16.76677668,16.6631016,16.6978355,,,,,,,,,,,,,,,,,,,,PF,weak,3,,,,,,,,7,0.832,,,,,,,,,,,,,,,,,,,,,,,,,,,,2,weak,52.80001223,103.9999951,1,0,0,response1disk,9,18,-7.999988675,-2.400006473,1,0,0,rectangle,-7.999988675,-2.400006473,1,0,0,,2,0.001,-7.999988675,-2.400006473,1,0,0,0,17,17,39,1,0,,,,,,,,,,,,,,,,,,,,,
,,,,,,,,,,,,,,,,,,,,,,,,,,,,,,,,,,,,,,,,,,5ea5ce7be9fb245c8d7deded,60684717b4eecc8bab9f6c86,2021-04-03_12h56.45.170,Colour_Similarity_Experiment,2020.2.10,Win32,60,60674ec340277cd6a308bc9f,16.91373802,16.6978355,16.67763158,16.76677668,16.6631016,16.6978355,,,,,,,,,,,,,,,,,,,,PF,weak,3,,,,,,,,7,1.215,,,,,,,,,,,,,,,,,,,,,,,,,,,,8,weak,65.60001242,99.19997063,1,0,0,response1disk,6,19,-16.79998881,-2.400006473,1,0,0,rectangle,-48.79998928,-106.400008,1,0,0,3,3,2.382,-9.599988699,-7.200006545,1,0,0,0,18,18,161,1,1,response5disk_3,rectangle,,,,,,,,,,,,,,,,,,,
,,,,,,,,,,,,,,,,,,,,,,,,,,,,,,,,,,,,,,,,,,5ea5ce7be9fb245c8d7deded,60684717b4eecc8bab9f6c86,2021-04-03_12h56.45.170,Colour_Similarity_Experiment,2020.2.10,Win32,60,60674ec340277cd6a308bc9f,16.91373802,16.6978355,16.67763158,16.76677668,16.6631016,16.6978355,,,,,,,,,,,,,,,,,,,,PF,strong,3,,,,,,,,7,1.815,,,,,,,,,,,,,,,,,,,,,,,,,,,,7,strong,50.4000122,102.3999951,1,0,0,response1disk,7,20,-1.59998858,0.799993575,1,0,0,rectangle,-1.59998858,0.799993575,1,0,0,3,4,0.002,-1.59998858,0.799993575,1,0,0,0,19,19,34,1,0,,,,,,,,,,,,,,,,,,,,,
,,,,,,,,,,,,,,,,,,,,,,,,,,,,,,,,,,,,,,,,,,5ea5ce7be9fb245c8d7deded,60684717b4eecc8bab9f6c86,2021-04-03_12h56.45.170,Colour_Similarity_Experiment,2020.2.10,Win32,60,60674ec340277cd6a308bc9f,16.91373802,16.6978355,16.67763158,16.76677668,16.6631016,16.6978355,,,,,,,,,,,,,,,,,,,,PF,strong,3,,,,,,,,7,0.997,,,,,,,,,,,,,,,,,,,,,,,,,,,,4,strong,57.6000123,112.7999952,1,0,0,response1disk,9,21,12.80001163,-2.400006473,1,0,0,rectangle,12.80001163,-2.400006473,1,0,0,3,1,0.002,12.80001163,-2.400006473,1,0,0,0,20,20,90,1,0,,,,,,,,,,,,,,,,,,,,,
,,,,,,,,,,,,,,,,,,,,,,,,,,,,,,,,,,,,,,,,,,5ea5ce7be9fb245c8d7deded,60684717b4eecc8bab9f6c86,2021-04-03_12h56.45.170,Colour_Similarity_Experiment,2020.2.10,Win32,60,60674ec340277cd6a308bc9f,16.91373802,16.6978355,16.67763158,16.76677668,16.6631016,16.6978355,,,,,,,,,,,,,,,,,,,,PF,weak,3,,,,,,,,7,0.864,,,,,,,,,,,,,,,,,,,,,,,,,,,,5,weak,48.00001216,83.19997039,1,0,0,response1disk,8,22,4.800011516,-3.200006485,1,0,0,rectangle,4.800011516,-3.200006485,1,0,0,3,7,0.001,4.800011516,-3.200006485,1,0,0,0,21,21,149,1,0,,,,,,,,,,,,,,,,,,,,,
,,,,,,,,,,,,,,,,,,,,,,,,,,,,,,,,,,,,,,,,,,5ea5ce7be9fb245c8d7deded,60684717b4eecc8bab9f6c86,2021-04-03_12h56.45.170,Colour_Similarity_Experiment,2020.2.10,Win32,60,60674ec340277cd6a308bc9f,16.91373802,16.6978355,16.67763158,16.76677668,16.6631016,16.6978355,,,,,,,,,,,,,,,,,,,,PF,strong,3,,,,,,,,3,3.565,,,,,,,,,,,,,,,,,,,,,,,,,,,,3,strong,-48.79998928,-108.000008,1,0,0,response5disk,5,23,19.20001173,-0.800006449,1,0,0,rectangle,19.20001173,-0.800006449,1,0,0,3,7,0,19.20001173,-0.800006449,1,0,0,0,22,22,101,1,0,,,,,,,,,,,,,,,,,,,,,
,,,,,,,,,,,,,,,,,,,,,,,,,,,,,,,,,,,,,,,,,,5ea5ce7be9fb245c8d7deded,60684717b4eecc8bab9f6c86,2021-04-03_12h56.45.170,Colour_Similarity_Experiment,2020.2.10,Win32,60,60674ec340277cd6a308bc9f,16.91373802,16.6978355,16.67763158,16.76677668,16.6631016,16.6978355,,,,,,,,,,,,,,,,,,,,PF,strong,3,,,,,,,,3,2.143,,,,,,,,,,,,,,,,,,,,,,,,,,,,5,strong,-36.7999891,-104.000008,1,0,0,response5disk,3,24,-11.99998873,-8.000006557,1,0,0,rectangle,-11.99998873,-8.000006557,1,0,0,3,6,0.001,-11.99998873,-8.000006557,1,0,0,0,23,23,25,1,0,,,,,,,,,,,,,,,,,,,,,
,,,,,,,,,,,,,,,,,,,,,,,,,,,,,,,,,,,,,,,,,,5ea5ce7be9fb245c8d7deded,60684717b4eecc8bab9f6c86,2021-04-03_12h56.45.170,Colour_Similarity_Experiment,2020.2.10,Win32,60,60674ec340277cd6a308bc9f,16.91373802,16.6978355,16.67763158,16.76677668,16.6631016,16.6978355,,,,,,,,,,,,,,,,,,,,PF,strong,3,,,,,,,,5,4.079,,,,,,,,,,,,,,,,,,,,,,,,,,,,6,strong,82.40001267,-48.80000716,1,0,0,response3disk,6,25,-7.199988663,2.399993598,1,0,0,rectangle,-7.199988663,2.399993598,1,0,0,3,5,0.004,-7.199988663,2.399993598,1,0,0,0,24,24,91,1,0,,,,,,,,,,,,,,,,,,,,,
,,,,,,,,,,,,,,,,,,,,,,,,,,,,,,,,,,,,,,,,,,5ea5ce7be9fb245c8d7deded,60684717b4eecc8bab9f6c86,2021-04-03_12h56.45.170,Colour_Similarity_Experiment,2020.2.10,Win32,60,60674ec340277cd6a308bc9f,16.91373802,16.6978355,16.67763158,16.76677668,16.6631016,16.6978355,,,,,,,,,,,,,,,,,,,,PF,weak,3,,,,,,,,7,1.196,,,,,,,,,,,,,,,,,,,,,,,,,,,,8,weak,68.00001246,102.3999951,1,0,0,response1disk,1,26,11.20001161,3.19999361,1,0,0,rectangle,11.20001161,3.19999361,1,0,0,3,4,0.003,11.20001161,3.19999361,1,0,0,0,25,25,57,1,0,,,,,,,,,,,,,,,,,,,,,
,,,,,,,,,,,,,,,,,,,,,,,,,,,,,,,,,,,,,,,,,,5ea5ce7be9fb245c8d7deded,60684717b4eecc8bab9f6c86,2021-04-03_12h56.45.170,Colour_Similarity_Experiment,2020.2.10,Win32,60,60674ec340277cd6a308bc9f,16.91373802,16.6978355,16.67763158,16.76677668,16.6631016,16.6978355,,,,,,,,,,,,,,,,,,,,PF,strong,3,,,,,,,,7,0.914,,,,,,,,,,,,,,,,,,,,,,,,,,,,6,strong,36.00001198,122.3999954,1,0,0,response1disk,8,27,10.4000116,-7.200006545,1,0,0,rectangle,10.4000116,-7.200006545,1,0,0,3,2,0.001,10.4000116,-7.200006545,1,0,0,0,26,26,133,1,0,,,,,,,,,,,,,,,,,,,,,
,,,,,,,,,,,,,,,,,,,,,,,,,,,,,,,,,,,,,,,,,,5ea5ce7be9fb245c8d7deded,60684717b4eecc8bab9f6c86,2021-04-03_12h56.45.170,Colour_Similarity_Experiment,2020.2.10,Win32,60,60674ec340277cd6a308bc9f,16.91373802,16.6978355,16.67763158,16.76677668,16.6631016,16.6978355,,,,,,,,,,,,,,,,,,,,PF,weak,3,,,,,,,,7,1.232,,,,,,,,,,,,,,,,,,,,,,,,,,,,7,weak,42.40001208,112.7999952,1,0,0,response1disk,7,28,-5.599988639,7.19999367,1,0,0,rectangle,-5.599988639,7.19999367,1,0,0,3,0,0.001,-5.599988639,7.19999367,1,0,0,0,27,27,51,1,0,,,,,,,,,,,,,,,,,,,,,
,,,,,,,,,,,,,,,,,,,,,,,,,,,,,,,,,,,,,,,,,,5ea5ce7be9fb245c8d7deded,60684717b4eecc8bab9f6c86,2021-04-03_12h56.45.170,Colour_Similarity_Experiment,2020.2.10,Win32,60,60674ec340277cd6a308bc9f,16.91373802,16.6978355,16.67763158,16.76677668,16.6631016,16.6978355,,,,,,,,,,,,,,,,,,,,PF,weak,3,,,,,,,,7,0.964,,,,,,,,,,,,,,,,,,,,,,,,,,,,7,weak,44.80001211,102.3999951,1,0,0,response1disk,2,29,2.40001148,3.999993622,1,0,0,rectangle,2.40001148,3.999993622,1,0,0,3,6,0.001,2.40001148,3.999993622,1,0,0,0,28,28,32,1,0,,,,,,,,,,,,,,,,,,,,,
,,,,,,,,,,,,,,,,,,,,,,,,,,,,,,,,,,,,,,,,,,5ea5ce7be9fb245c8d7deded,60684717b4eecc8bab9f6c86,2021-04-03_12h56.45.170,Colour_Similarity_Experiment,2020.2.10,Win32,60,60674ec340277cd6a308bc9f,16.91373802,16.6978355,16.67763158,16.76677668,16.6631016,16.6978355,,,,,,,,,,,,,,,,,,,,PF,weak,3,,,,,,,,7,2.048,,,,,,,,,,,,,,,,,,,,,,,,,,,,5,weak,47.20001215,105.5999951,1,0,0,response1disk,3,30,6.400011539,3.19999361,1,0,0,rectangle,6.400011539,3.19999361,1,0,0,3,5,0.001,6.400011539,3.19999361,1,0,0,0,29,29,109,1,0,,,,,,,,,,,,,,,,,,,,,
,,,,,,,,,,,,,,,,,,,,,,,,,,,,,,,,,,,,,,,,,,5ea5ce7be9fb245c8d7deded,60684717b4eecc8bab9f6c86,2021-04-03_12h56.45.170,Colour_Similarity_Experiment,2020.2.10,Win32,60,60674ec340277cd6a308bc9f,16.91373802,16.6978355,16.67763158,16.76677668,16.6631016,16.6978355,,,,,,,,,,,,,,,,,,,,PF,weak,3,,,,,,,,7,1.232,,,,,,,,,,,,,,,,,,,,,,,,,,,,9,weak,56.80001229,91.19997051,1,0,0,response1disk,2,31,2.40001148,7.999993682,1,0,0,rectangle,2.40001148,7.999993682,1,0,0,3,3,0.001,2.40001148,7.999993682,1,0,0,0,30,30,157,1,0,,,,,,,,,,,,,,,,,,,,,
,,,,,,,,,,,,,,,,,,,,,,,,,,,,,,,,,,,,,,,,,,5ea5ce7be9fb245c8d7deded,60684717b4eecc8bab9f6c86,2021-04-03_12h56.45.170,Colour_Similarity_Experiment,2020.2.10,Win32,60,60674ec340277cd6a308bc9f,16.91373802,16.6978355,16.67763158,16.76677668,16.6631016,16.6978355,,,,,,,,,,,,,,,,,,,,PF,strong,3,,,,,,,,7,0.9,,,,,,,,,,,,,,,,,,,,,,,,,,,,7,strong,32.00001192,85.59999484,1,0,0,response1disk,5,32,-4.799988627,-10.40000659,1,0,0,rectangle,-4.799988627,-10.40000659,1,0,0,3,3,0.001,-4.799988627,-10.40000659,1,0,0,0,31,31,156,1,0,,,,,,,,,,,,,,,,,,,,,
,,,,,,,,,,,,,,,,,,,,,,,,,,,,,,,,,,,,,,,,,,5ea5ce7be9fb245c8d7deded,60684717b4eecc8bab9f6c86,2021-04-03_12h56.45.170,Colour_Similarity_Experiment,2020.2.10,Win32,60,60674ec340277cd6a308bc9f,16.91373802,16.6978355,16.67763158,16.76677668,16.6631016,16.6978355,,,,,,,,,,,,,,,,,,,,PF,weak,3,,,,,,,,7,0.93,,,,,,,,,,,,,,,,,,,,,,,,,,,,2,weak,28.00001186,101.5999951,1,0,0,response1disk,3,33,-1.59998858,7.19999367,1,0,0,rectangle,-1.59998858,7.19999367,1,0,0,3,3,0,-1.59998858,7.19999367,1,0,0,0,32,32,69,1,0,,,,,,,,,,,,,,,,,,,,,
,,,,,,,,,,,,,,,,,,,,,,,,,,,,,,,,,,,,,,,,,,5ea5ce7be9fb245c8d7deded,60684717b4eecc8bab9f6c86,2021-04-03_12h56.45.170,Colour_Similarity_Experiment,2020.2.10,Win32,60,60674ec340277cd6a308bc9f,16.91373802,16.6978355,16.67763158,16.76677668,16.6631016,16.6978355,,,,,,,,,,,,,,,,,,,,PF,weak,3,,,,,,,,7,0.798,,,,,,,,,,,,,,,,,,,,,,,,,,,,1,weak,60.80001235,100.7999951,1,0,0,response1disk,4,34,-2.399939764,3.19999361,1,0,0,rectangle,-2.399939764,3.19999361,1,0,0,3,0,0.001,-2.399939764,3.19999361,1,0,0,0,33,33,139,1,0,,,,,,,,,,,,,,,,,,,,,
,,,,,,,,,,,,,,,,,,,,,,,,,,,,,,,,,,,,,,,,,,5ea5ce7be9fb245c8d7deded,60684717b4eecc8bab9f6c86,2021-04-03_12h56.45.170,Colour_Similarity_Experiment,2020.2.10,Win32,60,60674ec340277cd6a308bc9f,16.91373802,16.6978355,16.67763158,16.76677668,16.6631016,16.6978355,,,,,,,,,,,,,,,,,,,,PF,weak,3,,,,,,,,7,0.724,,,,,,,,,,,,,,,,,,,,,,,,,,,,8,weak,48.80001217,99.19997063,1,0,0,response1disk,2,35,-4.799988627,-2.400006473,1,0,0,rectangle,-4.799988627,-2.400006473,1,0,0,3,4,0.002,-4.799988627,-2.400006473,1,0,0,0,34,34,83,1,0,,,,,,,,,,,,,,,,,,,,,
,,,,,,,,,,,,,,,,,,,,,,,,,,,,,,,,,,,,,,,,,,5ea5ce7be9fb245c8d7deded,60684717b4eecc8bab9f6c86,2021-04-03_12h56.45.170,Colour_Similarity_Experiment,2020.2.10,Win32,60,60674ec340277cd6a308bc9f,16.91373802,16.6978355,16.67763158,16.76677668,16.6631016,16.6978355,,,,,,,,,,,,,,,,,,,,PF,weak,3,,,,,,,,7,0.698,,,,,,,,,,,,,,,,,,,,,,,,,,,,3,weak,51.20001221,110.3999952,1,0,0,response1disk,9,36,-5.599988639,-2.400006473,1,0,0,rectangle,-5.599988639,-2.400006473,1,0,0,3,0,0.001,-5.599988639,-2.400006473,1,0,0,0,35,35,79,1,0,,,,,,,,,,,,,,,,,,,,,
,,,,,,,,,,,,,,,,,,,,,,,,,,,,,,,,,,,,,,,,,,5ea5ce7be9fb245c8d7deded,60684717b4eecc8bab9f6c86,2021-04-03_12h56.45.170,Colour_Similarity_Experiment,2020.2.10,Win32,60,60674ec340277cd6a308bc9f,16.91373802,16.6978355,16.67763158,16.76677668,16.6631016,16.6978355,,,,,,,,,,,,,,,,,,,,PF,weak,3,,,,,,,,7,0.817,,,,,,,,,,,,,,,,,,,,,,,,,,,,5,weak,45.60006095,130.3999955,1,0,0,response1disk,6,37,-14.39993994,7.19999367,1,0,0,rectangle,-14.39993994,7.19999367,1,0,0,3,7,0.002,-14.39993994,7.19999367,1,0,0,0,36,36,103,1,0,,,,,,,,,,,,,,,,,,,,,
,,,,,,,,,,,,,,,,,,,,,,,,,,,,,,,,,,,,,,,,,,5ea5ce7be9fb245c8d7deded,60684717b4eecc8bab9f6c86,2021-04-03_12h56.45.170,Colour_Similarity_Experiment,2020.2.10,Win32,60,60674ec340277cd6a308bc9f,16.91373802,16.6978355,16.67763158,16.76677668,16.6631016,16.6978355,,,,,,,,,,,,,,,,,,,,PF,strong,3,,,,,,,,7,1.15,,,,,,,,,,,,,,,,,,,,,,,,,,,,8,strong,35.20001197,94.39999497,1,0,0,response1disk,5,38,-6.399939823,-7.200006545,1,0,0,rectangle,-6.399939823,-7.200006545,1,0,0,3,4,0.002,-6.399939823,-7.200006545,1,0,0,0,37,37,152,1,0,,,,,,,,,,,,,,,,,,,,,
,,,,,,,,,,,,,,,,,,,,,,,,,,,,,,,,,,,,,,,,,,5ea5ce7be9fb245c8d7deded,60684717b4eecc8bab9f6c86,2021-04-03_12h56.45.170,Colour_Similarity_Experiment,2020.2.10,Win32,60,60674ec340277cd6a308bc9f,16.91373802,16.6978355,16.67763158,16.76677668,16.6631016,16.6978355,,,,,,,,,,,,,,,,,,,,PF,weak,3,,,,,,,,7,1.182,,,,,,,,,,,,,,,,,,,,,,,,,,,,7,weak,59.20001233,89.5999949,1,0,0,response1disk,4,39,-11.99998873,-16.00000668,1,0,0,rectangle,-11.99998873,-16.00000668,1,0,0,3,3,0.001,-11.99998873,-16.00000668,1,0,0,0,38,38,43,1,0,,,,,,,,,,,,,,,,,,,,,
,,,,,,,,,,,,,,,,,,,,,,,,,,,,,,,,,,,,,,,,,,5ea5ce7be9fb245c8d7deded,60684717b4eecc8bab9f6c86,2021-04-03_12h56.45.170,Colour_Similarity_Experiment,2020.2.10,Win32,60,60674ec340277cd6a308bc9f,16.91373802,16.6978355,16.67763158,16.76677668,16.6631016,16.6978355,,,,,,,,,,,,,,,,,,,,PF,weak,3,,,,,,,,4,2.147,,,,,,,,,,,,,,,,,,,,,,,,,,,,5,weak,24.80001181,-92.00000781,1,0,0,response3disk,5,40,1.14441E-05,-9.60000658,1,0,0,rectangle,1.14441E-05,-9.60000658,1,0,0,3,1,0.001,1.14441E-05,-9.60000658,1,0,0,0,39,39,94,1,0,,,,,,,,,,,,,,,,,,,,,
,,,,,,,,,,,,,,,,,,,,,,,,,,,,,,,,,,,,,,,,,,5ea5ce7be9fb245c8d7deded,60684717b4eecc8bab9f6c86,2021-04-03_12h56.45.170,Colour_Similarity_Experiment,2020.2.10,Win32,60,60674ec340277cd6a308bc9f,16.91373802,16.6978355,16.67763158,16.76677668,16.6631016,16.6978355,,,,,,,,,,,,,,,,,,,,PF,strong,3,,,,,,,,7,0.926,,,,,,,,,,,,,,,,,,,,,,,,,,,,3,strong,40.80001205,98.39999503,1,0,0,response1disk,9,41,0.800011456,1.599993587,1,0,0,rectangle,0.800011456,1.599993587,1,0,0,3,6,0.001,0.800011456,1.599993587,1,0,0,0,40,40,143,1,0,,,,,,,,,,,,,,,,,,,,,
,,,,,,,,,,,,,,,,,,,,,,,,,,,,,,,,,,,,,,,,,,5ea5ce7be9fb245c8d7deded,60684717b4eecc8bab9f6c86,2021-04-03_12h56.45.170,Colour_Similarity_Experiment,2020.2.10,Win32,60,60674ec340277cd6a308bc9f,16.91373802,16.6978355,16.67763158,16.76677668,16.6631016,16.6978355,,,,,,,,,,,,,,,,,,,,PF,weak,3,,,,,,,,3,1.949,,,,,,,,,,,,,,,,,,,,,,,,,,,,7,weak,-45.59998924,-72.80000752,1,0,0,response5disk,6,42,-5.599988639,-0.800006449,1,0,0,rectangle,-5.599988639,-0.800006449,1,0,0,3,5,0.001,-5.599988639,-0.800006449,1,0,0,0,41,41,29,1,0,,,,,,,,,,,,,,,,,,,,,
,,,,,,,,,,,,,,,,,,,,,,,,,,,,,,,,,,,,,,,,,,5ea5ce7be9fb245c8d7deded,60684717b4eecc8bab9f6c86,2021-04-03_12h56.45.170,Colour_Similarity_Experiment,2020.2.10,Win32,60,60674ec340277cd6a308bc9f,16.91373802,16.6978355,16.67763158,16.76677668,16.6631016,16.6978355,,,,,,,,,,,,,,,,,,,,PF,weak,3,,,,,,,,7,0.93,,,,,,,,,,,,,,,,,,,,,,,,,,,,8,weak,51.20001221,99.19997063,1,0,0,response1disk,5,43,-6.399939823,-12.80000663,1,0,0,rectangle,-6.399939823,-12.80000663,1,0,0,3,6,0.002,-6.399939823,-12.80000663,1,0,0,0,42,42,98,1,0,,,,,,,,,,,,,,,,,,,,,
,,,,,,,,,,,,,,,,,,,,,,,,,,,,,,,,,,,,,,,,,,5ea5ce7be9fb245c8d7deded,60684717b4eecc8bab9f6c86,2021-04-03_12h56.45.170,Colour_Similarity_Experiment,2020.2.10,Win32,60,60674ec340277cd6a308bc9f,16.91373802,16.6978355,16.67763158,16.76677668,16.6631016,16.6978355,,,,,,,,,,,,,,,,,,,,PF,strong,3,,,,,,,,2,1.867,,,,,,,,,,,,,,,,,,,,,,,,,,,,2,strong,-74.39994084,-59.20000732,1,0,0,response5disk,2,44,-4.799988627,-10.40000659,1,0,0,rectangle,-4.799988627,-10.40000659,1,0,0,3,0,0.001,-4.799988627,-10.40000659,1,0,0,0,43,43,142,1,0,,,,,,,,,,,,,,,,,,,,,
,,,,,,,,,,,,,,,,,,,,,,,,,,,,,,,,,,,,,,,,,,5ea5ce7be9fb245c8d7deded,60684717b4eecc8bab9f6c86,2021-04-03_12h56.45.170,Colour_Similarity_Experiment,2020.2.10,Win32,60,60674ec340277cd6a308bc9f,16.91373802,16.6978355,16.67763158,16.76677668,16.6631016,16.6978355,,,,,,,,,,,,,,,,,,,,PF,weak,3,,,,,,,,3,1.478,,,,,,,,,,,,,,,,,,,,,,,,,,,,6,weak,-37.59998912,-98.4000079,1,0,0,response5disk,7,45,5.600060356,-1.600006461,1,0,0,rectangle,5.600060356,-1.600006461,1,0,0,3,1,0.001,5.600060356,-1.600006461,1,0,0,0,44,44,50,1,0,,,,,,,,,,,,,,,,,,,,,
,,,,,,,,,,,,,,,,,,,,,,,,,,,,,,,,,,,,,,,,,,5ea5ce7be9fb245c8d7deded,60684717b4eecc8bab9f6c86,2021-04-03_12h56.45.170,Colour_Similarity_Experiment,2020.2.10,Win32,60,60674ec340277cd6a308bc9f,16.91373802,16.6978355,16.67763158,16.76677668,16.6631016,16.6978355,,,,,,,,,,,,,,,,,,,,PF,strong,3,,,,,,,,7,1.743,,,,,,,,,,,,,,,,,,,,,,,,,,,,6,strong,53.60001224,102.3999951,1,0,0,response1disk,7,46,20.00001174,11.19999373,1,0,0,rectangle,20.00001174,11.19999373,1,0,0,3,6,0.001,20.00001174,11.19999373,1,0,0,0,45,45,18,1,0,,,,,,,,,,,,,,,,,,,,,
,,,,,,,,,,,,,,,,,,,,,,,,,,,,,,,,,,,,,,,,,,5ea5ce7be9fb245c8d7deded,60684717b4eecc8bab9f6c86,2021-04-03_12h56.45.170,Colour_Similarity_Experiment,2020.2.10,Win32,60,60674ec340277cd6a308bc9f,16.91373802,16.6978355,16.67763158,16.76677668,16.6631016,16.6978355,,,,,,,,,,,,,,,,,,,,PF,weak,3,,,,,,,,7,0.917,,,,,,,,,,,,,,,,,,,,,,,,,,,,1,weak,30.4000119,101.5999951,1,0,0,response1disk,2,47,-4.799988627,-7.200006545,1,0,0,rectangle,-4.799988627,-7.200006545,1,0,0,3,6,0,-4.799988627,-7.200006545,1,0,0,0,46,46,24,1,0,,,,,,,,,,,,,,,,,,,,,
,,,,,,,,,,,,,,,,,,,,,,,,,,,,,,,,,,,,,,,,,,5ea5ce7be9fb245c8d7deded,60684717b4eecc8bab9f6c86,2021-04-03_12h56.45.170,Colour_Similarity_Experiment,2020.2.10,Win32,60,60674ec340277cd6a308bc9f,16.91373802,16.6978355,16.67763158,16.76677668,16.6631016,16.6978355,,,,,,,,,,,,,,,,,,,,PF,strong,3,,,,,,,,0,1.646,,,,,,,,,,,,,,,,,,,,,,,,,,,,9,strong,-35.99998909,87.19997045,1,0,0,response7disk,9,48,-0.799988568,-6.400006533,1,0,0,rectangle,-0.799988568,-6.400006533,1,0,0,3,0,0.001,-0.799988568,-6.400006533,1,0,0,0,47,47,17,1,0,,,,,,,,,,,,,,,,,,,,,
,,,,,,,,,,,,,,,,,,,,,,,,,,,,,,,,,,,,,,,,,,5ea5ce7be9fb245c8d7deded,60684717b4eecc8bab9f6c86,2021-04-03_12h56.45.170,Colour_Similarity_Experiment,2020.2.10,Win32,60,60674ec340277cd6a308bc9f,16.91373802,16.6978355,16.67763158,16.76677668,16.6631016,16.6978355,,,,,,,,,,,,,,,,,,,,PF,weak,3,,,,,,,,7,0.731,,,,,,,,,,,,,,,,,,,,,,,,,,,,4,weak,38.40001202,87.99999487,1,0,0,response1disk,8,49,22.40001178,-7.200006545,1,0,0,rectangle,22.40001178,-7.200006545,1,0,0,3,4,0.002,22.40001178,-7.200006545,1,0,0,0,48,48,124,1,0,,,,,,,,,,,,,,,,,,,,,
,,,,,,,,,,,,,,,,,,,,,,,,,,,,,,,,,,,,,,,,,,5ea5ce7be9fb245c8d7deded,60684717b4eecc8bab9f6c86,2021-04-03_12h56.45.170,Colour_Similarity_Experiment,2020.2.10,Win32,60,60674ec340277cd6a308bc9f,16.91373802,16.6978355,16.67763158,16.76677668,16.6631016,16.6978355,,,,,,,,,,,,,,,,,,,,PF,weak,3,,,,,,,,7,0.898,,,,,,,,,,,,,,,,,,,,,,,,,,,,6,weak,34.40001196,108.7999952,1,0,0,response1disk,2,50,4.800011516,4.799993634,1,0,0,rectangle,4.800011516,4.799993634,1,0,0,3,1,0.001,4.800011516,4.799993634,1,0,0,0,49,49,130,1,0,,,,,,,,,,,,,,,,,,,,,
,,,,,,,,,,,,,,,,,,,,,,,,,,,,,,,,,,,,,,,,,,5ea5ce7be9fb245c8d7deded,60684717b4eecc8bab9f6c86,2021-04-03_12h56.45.170,Colour_Similarity_Experiment,2020.2.10,Win32,60,60674ec340277cd6a308bc9f,16.91373802,16.6978355,16.67763158,16.76677668,16.6631016,16.6978355,,,,,,,,,,,,,,,,,,,,PF,weak,3,,,,,,,,0,2.031,,,,,,,,,,,,,,,,,,,,,,,,,,,,3,weak,-31.99998903,55.19996997,1,0,0,response7disk,2,51,-8.799988687,-6.400006533,1,0,0,rectangle,-46.39994042,-95.20000786,1,0,0,3,3,1.736,-15.99998879,3.19999361,1,0,0,0,50,50,36,1,1,response5disk_3,rectangle,,,,,,,,,,,,,,,,,,,
,,,,,,,,,,,,,,,,,,,,,,,,,,,,,,,,,,,,,,,,,,5ea5ce7be9fb245c8d7deded,60684717b4eecc8bab9f6c86,2021-04-03_12h56.45.170,Colour_Similarity_Experiment,2020.2.10,Win32,60,60674ec340277cd6a308bc9f,16.91373802,16.6978355,16.67763158,16.76677668,16.6631016,16.6978355,,,,,,,,,,,,,,,,,,,,PF,strong,3,,,,,,,,7,0.875,,,,,,,,,,,,,,,,,,,,,,,,,,,,2,strong,36.00001198,83.19997039,1,0,0,response1disk,8,52,-1.59998858,-8.000006557,1,0,0,rectangle,-1.59998858,-8.000006557,1,0,0,3,0,0.002,-1.59998858,-8.000006557,1,0,0,0,51,51,62,1,0,,,,,,,,,,,,,,,,,,,,,
,,,,,,,,,,,,,,,,,,,,,,,,,,,,,,,,,,,,,,,,,,5ea5ce7be9fb245c8d7deded,60684717b4eecc8bab9f6c86,2021-04-03_12h56.45.170,Colour_Similarity_Experiment,2020.2.10,Win32,60,60674ec340277cd6a308bc9f,16.91373802,16.6978355,16.67763158,16.76677668,16.6631016,16.6978355,,,,,,,,,,,,,,,,,,,,PF,strong,3,,,,,,,,7,0.512,,,,,,,,,,,,,,,,,,,,,,,,,,,,1,strong,48.80001217,92.79999495,1,0,0,response1disk,6,53,20.80001175,-0.800006449,1,0,0,rectangle,20.80001175,-0.800006449,1,0,0,3,3,0.002,20.80001175,-0.800006449,1,0,0,0,52,52,58,1,0,,,,,,,,,,,,,,,,,,,,,
,,,,,,,,,,,,,,,,,,,,,,,,,,,,,,,,,,,,,,,,,,5ea5ce7be9fb245c8d7deded,60684717b4eecc8bab9f6c86,2021-04-03_12h56.45.170,Colour_Similarity_Experiment,2020.2.10,Win32,60,60674ec340277cd6a308bc9f,16.91373802,16.6978355,16.67763158,16.76677668,16.6631016,16.6978355,,,,,,,,,,,,,,,,,,,,PF,strong,3,,,,,,,,1,1.656,,,,,,,,,,,,,,,,,,,,,,,,,,,,5,strong,-46.39994042,29.599994,1,0,0,response7disk,9,54,18.40001172,-7.200006545,1,0,0,rectangle,18.40001172,-7.200006545,1,0,0,3,5,0.001,18.40001172,-7.200006545,1,0,0,0,53,53,61,1,0,,,,,,,,,,,,,,,,,,,,,
,,,,,,,,,,,,,,,,,,,,,,,,,,,,,,,,,,,,,,,,,,5ea5ce7be9fb245c8d7deded,60684717b4eecc8bab9f6c86,2021-04-03_12h56.45.170,Colour_Similarity_Experiment,2020.2.10,Win32,60,60674ec340277cd6a308bc9f,16.91373802,16.6978355,16.67763158,16.76677668,16.6631016,16.6978355,,,,,,,,,,,,,,,,,,,,PF,strong,3,,,,,,,,7,0.777,,,,,,,,,,,,,,,,,,,,,,,,,,,,6,strong,48.80001217,88.79999489,1,0,0,response1disk,9,55,10.4000116,-11.2000066,1,0,0,rectangle,52.00001222,-103.200008,1,0,0,4,4,1.634,-7.999988675,-1.600006461,1,0,0,0,54,54,160,1,1,response3disk_3,rectangle,,,,,,,,,,,,,,,,,,,
,,,,,,,,,,,,,,,,,,,,,,,,,,,,,,,,,,,,,,,,,,5ea5ce7be9fb245c8d7deded,60684717b4eecc8bab9f6c86,2021-04-03_12h56.45.170,Colour_Similarity_Experiment,2020.2.10,Win32,60,60674ec340277cd6a308bc9f,16.91373802,16.6978355,16.67763158,16.76677668,16.6631016,16.6978355,,,,,,,,,,,,,,,,,,,,PF,weak,3,,,,,,,,7,0.999,,,,,,,,,,,,,,,,,,,,,,,,,,,,7,weak,44.80001211,83.99999481,1,0,0,response1disk,1,56,-2.399939764,5.599993646,1,0,0,rectangle,-2.399939764,5.599993646,1,0,0,4,3,0.001,-2.399939764,5.599993646,1,0,0,0,55,55,53,1,0,,,,,,,,,,,,,,,,,,,,,
,,,,,,,,,,,,,,,,,,,,,,,,,,,,,,,,,,,,,,,,,,5ea5ce7be9fb245c8d7deded,60684717b4eecc8bab9f6c86,2021-04-03_12h56.45.170,Colour_Similarity_Experiment,2020.2.10,Win32,60,60674ec340277cd6a308bc9f,16.91373802,16.6978355,16.67763158,16.76677668,16.6631016,16.6978355,,,,,,,,,,,,,,,,,,,,PF,strong,3,,,,,,,,7,0.799,,,,,,,,,,,,,,,,,,,,,,,,,,,,2,strong,25.60006065,83.19997039,1,0,0,response1disk,5,57,-3.199988604,-4.800006509,1,0,0,rectangle,-3.199988604,-4.800006509,1,0,0,4,4,0.002,-3.199988604,-4.800006509,1,0,0,0,56,56,80,1,0,,,,,,,,,,,,,,,,,,,,,
,,,,,,,,,,,,,,,,,,,,,,,,,,,,,,,,,,,,,,,,,,5ea5ce7be9fb245c8d7deded,60684717b4eecc8bab9f6c86,2021-04-03_12h56.45.170,Colour_Similarity_Experiment,2020.2.10,Win32,60,60674ec340277cd6a308bc9f,16.91373802,16.6978355,16.67763158,16.76677668,16.6631016,16.6978355,,,,,,,,,,,,,,,,,,,,PF,strong,3,,,,,,,,7,0.914,,,,,,,,,,,,,,,,,,,,,,,,,,,,9,strong,46.40001214,95.99999499,1,0,0,response1disk,1,58,1.600060296,0.799993575,1,0,0,rectangle,1.600060296,0.799993575,1,0,0,4,4,0,1.600060296,0.799993575,1,0,0,0,57,57,111,1,0,,,,,,,,,,,,,,,,,,,,,
,,,,,,,,,,,,,,,,,,,,,,,,,,,,,,,,,,,,,,,,,,5ea5ce7be9fb245c8d7deded,60684717b4eecc8bab9f6c86,2021-04-03_12h56.45.170,Colour_Similarity_Experiment,2020.2.10,Win32,60,60674ec340277cd6a308bc9f,16.91373802,16.6978355,16.67763158,16.76677668,16.6631016,16.6978355,,,,,,,,,,,,,,,,,,,,PF,weak,3,,,,,,,,7,0.679,,,,,,,,,,,,,,,,,,,,,,,,,,,,9,weak,49.60006101,80.79999477,1,0,0,response1disk,8,59,6.400011539,4.799993634,1,0,0,rectangle,6.400011539,4.799993634,1,0,0,4,3,0.001,6.400011539,4.799993634,1,0,0,0,58,58,67,1,0,,,,,,,,,,,,,,,,,,,,,
,,,,,,,,,,,,,,,,,,,,,,,,,,,,,,,,,,,,,,,,,,5ea5ce7be9fb245c8d7deded,60684717b4eecc8bab9f6c86,2021-04-03_12h56.45.170,Colour_Similarity_Experiment,2020.2.10,Win32,60,60674ec340277cd6a308bc9f,16.91373802,16.6978355,16.67763158,16.76677668,16.6631016,16.6978355,,,,,,,,,,,,,,,,,,,,PF,strong,3,,,,,,,,7,0.866,,,,,,,,,,,,,,,,,,,,,,,,,,,,3,strong,47.20001215,99.99999505,1,0,0,response1disk,6,60,4.000011504,-2.400006473,1,0,0,rectangle,4.000011504,-2.400006473,1,0,0,4,7,0.001,4.000011504,-2.400006473,1,0,0,0,59,59,95,1,0,,,,,,,,,,,,,,,,,,,,,
,,,,,,,,,,,,,,,,,,,,,,,,,,,,,,,,,,,,,,,,,,5ea5ce7be9fb245c8d7deded,60684717b4eecc8bab9f6c86,2021-04-03_12h56.45.170,Colour_Similarity_Experiment,2020.2.10,Win32,60,60674ec340277cd6a308bc9f,16.91373802,16.6978355,16.67763158,16.76677668,16.6631016,16.6978355,,,,,,,,,,,,,,,,,,,,PF,strong,3,,,,,,,,7,0.93,,,,,,,,,,,,,,,,,,,,,,,,,,,,9,strong,30.4000119,103.9999951,1,0,0,response1disk,6,61,-4.799988627,1.599993587,1,0,0,rectangle,-4.799988627,1.599993587,1,0,0,4,6,0.001,-4.799988627,1.599993587,1,0,0,0,60,60,117,1,0,,,,,,,,,,,,,,,,,,,,,
,,,,,,,,,,,,,,,,,,,,,,,,,,,,,,,,,,,,,,,,,,5ea5ce7be9fb245c8d7deded,60684717b4eecc8bab9f6c86,2021-04-03_12h56.45.170,Colour_Similarity_Experiment,2020.2.10,Win32,60,60674ec340277cd6a308bc9f,16.91373802,16.6978355,16.67763158,16.76677668,16.6631016,16.6978355,,,,,,,,,,,,,,,,,,,,PF,strong,3,,,,,,,,7,0.765,,,,,,,,,,,,,,,,,,,,,,,,,,,,6,strong,44.80001211,86.39999485,1,0,0,response1disk,5,62,-2.399939764,3.999993622,1,0,0,rectangle,-2.399939764,3.999993622,1,0,0,4,2,0.001,-2.399939764,3.999993622,1,0,0,0,61,61,126,1,0,,,,,,,,,,,,,,,,,,,,,
,,,,,,,,,,,,,,,,,,,,,,,,,,,,,,,,,,,,,,,,,,5ea5ce7be9fb245c8d7deded,60684717b4eecc8bab9f6c86,2021-04-03_12h56.45.170,Colour_Similarity_Experiment,2020.2.10,Win32,60,60674ec340277cd6a308bc9f,16.91373802,16.6978355,16.67763158,16.76677668,16.6631016,16.6978355,,,,,,,,,,,,,,,,,,,,PF,weak,3,,,,,,,,7,0.812,,,,,,,,,,,,,,,,,,,,,,,,,,,,5,weak,48.00001216,107.1999707,1,0,0,response1disk,9,63,4.800011516,-4.000006497,1,0,0,rectangle,-99.19999003,-46.40000713,1,0,0,4,2,1.451,-17.59998882,-5.600006521,1,0,0,0,62,62,136,1,1,response5disk_3,rectangle,,,,,,,,,,,,,,,,,,,
,,,,,,,,,,,,,,,,,,,,,,,,,,,,,,,,,,,,,,,,,,5ea5ce7be9fb245c8d7deded,60684717b4eecc8bab9f6c86,2021-04-03_12h56.45.170,Colour_Similarity_Experiment,2020.2.10,Win32,60,60674ec340277cd6a308bc9f,16.91373802,16.6978355,16.67763158,16.76677668,16.6631016,16.6978355,,,,,,,,,,,,,,,,,,,,PF,strong,3,,,,,,,,7,1.296,,,,,,,,,,,,,,,,,,,,,,,,,,,,9,strong,52.00001222,93.59999496,1,0,0,response1disk,8,64,8.000011563,-4.800006509,1,0,0,rectangle,8.000011563,-4.800006509,1,0,0,4,2,0,8.000011563,-4.800006509,1,0,0,0,63,63,6,1,0,,,,,,,,,,,,,,,,,,,,,
,,,,,,,,,,,,,,,,,,,,,,,,,,,,,,,,,,,,,,,,,,5ea5ce7be9fb245c8d7deded,60684717b4eecc8bab9f6c86,2021-04-03_12h56.45.170,Colour_Similarity_Experiment,2020.2.10,Win32,60,60674ec340277cd6a308bc9f,16.91373802,16.6978355,16.67763158,16.76677668,16.6631016,16.6978355,,,,,,,,,,,,,,,,,,,,PF,strong,3,,,,,,,,7,0.788,,,,,,,,,,,,,,,,,,,,,,,,,,,,8,strong,43.20001209,88.79999489,1,0,0,response1disk,6,65,-9.599988699,0.799993575,1,0,0,rectangle,-9.599988699,0.799993575,1,0,0,4,5,0.001,-9.599988699,0.799993575,1,0,0,0,64,64,37,1,0,,,,,,,,,,,,,,,,,,,,,
,,,,,,,,,,,,,,,,,,,,,,,,,,,,,,,,,,,,,,,,,,5ea5ce7be9fb245c8d7deded,60684717b4eecc8bab9f6c86,2021-04-03_12h56.45.170,Colour_Similarity_Experiment,2020.2.10,Win32,60,60674ec340277cd6a308bc9f,16.91373802,16.6978355,16.67763158,16.76677668,16.6631016,16.6978355,,,,,,,,,,,,,,,,,,,,PF,weak,3,,,,,,,,7,0.712,,,,,,,,,,,,,,,,,,,,,,,,,,,,6,weak,29.60006071,81.59999478,1,0,0,response1disk,5,66,0.800011456,0.799993575,1,0,0,rectangle,0.800011456,0.799993575,1,0,0,4,3,0.001,0.800011456,0.799993575,1,0,0,0,65,65,59,1,0,,,,,,,,,,,,,,,,,,,,,
,,,,,,,,,,,,,,,,,,,,,,,,,,,,,,,,,,,,,,,,,,5ea5ce7be9fb245c8d7deded,60684717b4eecc8bab9f6c86,2021-04-03_12h56.45.170,Colour_Similarity_Experiment,2020.2.10,Win32,60,60674ec340277cd6a308bc9f,16.91373802,16.6978355,16.67763158,16.76677668,16.6631016,16.6978355,,,,,,,,,,,,,,,,,,,,PF,weak,3,,,,,,,,7,1.047,,,,,,,,,,,,,,,,,,,,,,,,,,,,8,weak,46.40001214,88.79999489,1,0,0,response1disk,9,67,-15.99998879,-6.400006533,1,0,0,rectangle,-15.99998879,-6.400006533,1,0,0,4,3,0,-15.99998879,-6.400006533,1,0,0,0,66,66,42,1,0,,,,,,,,,,,,,,,,,,,,,
,,,,,,,,,,,,,,,,,,,,,,,,,,,,,,,,,,,,,,,,,,5ea5ce7be9fb245c8d7deded,60684717b4eecc8bab9f6c86,2021-04-03_12h56.45.170,Colour_Similarity_Experiment,2020.2.10,Win32,60,60674ec340277cd6a308bc9f,16.91373802,16.6978355,16.67763158,16.76677668,16.6631016,16.6978355,,,,,,,,,,,,,,,,,,,,PF,weak,3,,,,,,,,7,0.833,,,,,,,,,,,,,,,,,,,,,,,,,,,,3,weak,32.00001192,82.39999479,1,0,0,response1disk,7,68,-7.199988663,-10.40000659,1,0,0,rectangle,-7.199988663,-10.40000659,1,0,0,4,1,0.002,-7.199988663,-10.40000659,1,0,0,0,67,67,41,1,0,,,,,,,,,,,,,,,,,,,,,
,,,,,,,,,,,,,,,,,,,,,,,,,,,,,,,,,,,,,,,,,,5ea5ce7be9fb245c8d7deded,60684717b4eecc8bab9f6c86,2021-04-03_12h56.45.170,Colour_Similarity_Experiment,2020.2.10,Win32,60,60674ec340277cd6a308bc9f,16.91373802,16.6978355,16.67763158,16.76677668,16.6631016,16.6978355,,,,,,,,,,,,,,,,,,,,PF,weak,3,,,,,,,,7,0.607,,,,,,,,,,,,,,,,,,,,,,,,,,,,2,weak,64.80001241,98.39999503,1,0,0,response1disk,8,69,4.000011504,3.999993622,1,0,0,rectangle,4.000011504,3.999993622,1,0,0,4,3,0.002,4.000011504,3.999993622,1,0,0,0,68,68,52,1,0,,,,,,,,,,,,,,,,,,,,,
,,,,,,,,,,,,,,,,,,,,,,,,,,,,,,,,,,,,,,,,,,5ea5ce7be9fb245c8d7deded,60684717b4eecc8bab9f6c86,2021-04-03_12h56.45.170,Colour_Similarity_Experiment,2020.2.10,Win32,60,60674ec340277cd6a308bc9f,16.91373802,16.6978355,16.67763158,16.76677668,16.6631016,16.6978355,,,,,,,,,,,,,,,,,,,,PF,weak,3,,,,,,,,7,1.378,,,,,,,,,,,,,,,,,,,,,,,,,,,,9,weak,43.20001209,81.59999478,1,0,0,response1disk,4,70,-17.59998882,-4.800006509,1,0,0,rectangle,-17.59998882,-4.800006509,1,0,0,4,7,0.001,-17.59998882,-4.800006509,1,0,0,0,69,69,114,1,0,,,,,,,,,,,,,,,,,,,,,
,,,,,,,,,,,,,,,,,,,,,,,,,,,,,,,,,,,,,,,,,,5ea5ce7be9fb245c8d7deded,60684717b4eecc8bab9f6c86,2021-04-03_12h56.45.170,Colour_Similarity_Experiment,2020.2.10,Win32,60,60674ec340277cd6a308bc9f,16.91373802,16.6978355,16.67763158,16.76677668,16.6631016,16.6978355,,,,,,,,,,,,,,,,,,,,PF,weak,3,,,,,,,,0,1.383,,,,,,,,,,,,,,,,,,,,,,,,,,,,5,weak,-29.599989,71.19997021,1,0,0,response7disk,4,71,4.000011504,0.799993575,1,0,0,rectangle,4.000011504,0.799993575,1,0,0,4,3,0.001,4.000011504,0.799993575,1,0,0,0,70,70,54,1,0,,,,,,,,,,,,,,,,,,,,,
,,,,,,,,,,,,,,,,,,,,,,,,,,,,,,,,,,,,,,,,,,5ea5ce7be9fb245c8d7deded,60684717b4eecc8bab9f6c86,2021-04-03_12h56.45.170,Colour_Similarity_Experiment,2020.2.10,Win32,60,60674ec340277cd6a308bc9f,16.91373802,16.6978355,16.67763158,16.76677668,16.6631016,16.6978355,,,,,,,,,,,,,,,,,,,,PF,strong,3,,,,,,,,7,0.83,,,,,,,,,,,,,,,,,,,,,,,,,,,,9,strong,28.80001187,92.79999495,1,0,0,response1disk,5,72,-11.19998872,-2.400006473,1,0,0,rectangle,-11.19998872,-2.400006473,1,0,0,4,4,0.002,-11.19998872,-2.400006473,1,0,0,0,71,71,128,1,0,,,,,,,,,,,,,,,,,,,,,
,,,,,,,,,,,,,,,,,,,,,,,,,,,,,,,,,,,,,,,,,,5ea5ce7be9fb245c8d7deded,60684717b4eecc8bab9f6c86,2021-04-03_12h56.45.170,Colour_Similarity_Experiment,2020.2.10,Win32,60,60674ec340277cd6a308bc9f,16.91373802,16.6978355,16.67763158,16.76677668,16.6631016,16.6978355,,,,,,,,,,,,,,,,,,,,PF,strong,3,,,,,,,,7,0.747,,,,,,,,,,,,,,,,,,,,,,,,,,,,4,strong,36.80001199,79.99999475,1,0,0,response1disk,1,73,16.80001169,-4.800006509,1,0,0,rectangle,16.80001169,-4.800006509,1,0,0,4,2,0.002,16.80001169,-4.800006509,1,0,0,0,72,72,102,1,0,,,,,,,,,,,,,,,,,,,,,
,,,,,,,,,,,,,,,,,,,,,,,,,,,,,,,,,,,,,,,,,,5ea5ce7be9fb245c8d7deded,60684717b4eecc8bab9f6c86,2021-04-03_12h56.45.170,Colour_Similarity_Experiment,2020.2.10,Win32,60,60674ec340277cd6a308bc9f,16.91373802,16.6978355,16.67763158,16.76677668,16.6631016,16.6978355,,,,,,,,,,,,,,,,,,,,PF,strong,3,,,,,,,,7,0.681,,,,,,,,,,,,,,,,,,,,,,,,,,,,5,strong,48.80001217,69.5999946,1,0,0,response1disk,1,74,6.400011539,-6.400006533,1,0,0,rectangle,6.400011539,-6.400006533,1,0,0,4,4,0.001,6.400011539,-6.400006533,1,0,0,0,73,73,131,1,0,,,,,,,,,,,,,,,,,,,,,
,,,,,,,,,,,,,,,,,,,,,,,,,,,,,,,,,,,,,,,,,,5ea5ce7be9fb245c8d7deded,60684717b4eecc8bab9f6c86,2021-04-03_12h56.45.170,Colour_Similarity_Experiment,2020.2.10,Win32,60,60674ec340277cd6a308bc9f,16.91373802,16.6978355,16.67763158,16.76677668,16.6631016,16.6978355,,,,,,,,,,,,,,,,,,,,PF,strong,3,,,,,,,,7,0.951,,,,,,,,,,,,,,,,,,,,,,,,,,,,3,strong,39.20001203,100.7999951,1,0,0,response1disk,1,75,-13.59998876,1.599993587,1,0,0,rectangle,-13.59998876,1.599993587,1,0,0,4,1,0.002,-13.59998876,1.599993587,1,0,0,0,74,74,125,1,0,,,,,,,,,,,,,,,,,,,,,
,,,,,,,,,,,,,,,,,,,,,,,,,,,,,,,,,,,,,,,,,,5ea5ce7be9fb245c8d7deded,60684717b4eecc8bab9f6c86,2021-04-03_12h56.45.170,Colour_Similarity_Experiment,2020.2.10,Win32,60,60674ec340277cd6a308bc9f,16.91373802,16.6978355,16.67763158,16.76677668,16.6631016,16.6978355,,,,,,,,,,,,,,,,,,,,PF,strong,3,,,,,,,,7,0.699,,,,,,,,,,,,,,,,,,,,,,,,,,,,7,strong,32.00001192,67.99999458,1,0,0,response1disk,2,76,1.600060296,1.599993587,1,0,0,rectangle,1.600060296,1.599993587,1,0,0,4,7,0.001,1.600060296,1.599993587,1,0,0,0,75,75,138,1,0,,,,,,,,,,,,,,,,,,,,,
,,,,,,,,,,,,,,,,,,,,,,,,,,,,,,,,,,,,,,,,,,5ea5ce7be9fb245c8d7deded,60684717b4eecc8bab9f6c86,2021-04-03_12h56.45.170,Colour_Similarity_Experiment,2020.2.10,Win32,60,60674ec340277cd6a308bc9f,16.91373802,16.6978355,16.67763158,16.76677668,16.6631016,16.6978355,,,,,,,,,,,,,,,,,,,,PF,strong,3,,,,,,,,7,0.767,,,,,,,,,,,,,,,,,,,,,,,,,,,,8,strong,40.00001204,77.59999472,1,0,0,response1disk,1,77,9.600060415,-6.400006533,1,0,0,rectangle,9.600060415,-6.400006533,1,0,0,4,1,0.001,9.600060415,-6.400006533,1,0,0,0,76,76,20,1,0,,,,,,,,,,,,,,,,,,,,,
,,,,,,,,,,,,,,,,,,,,,,,,,,,,,,,,,,,,,,,,,,5ea5ce7be9fb245c8d7deded,60684717b4eecc8bab9f6c86,2021-04-03_12h56.45.170,Colour_Similarity_Experiment,2020.2.10,Win32,60,60674ec340277cd6a308bc9f,16.91373802,16.6978355,16.67763158,16.76677668,16.6631016,16.6978355,,,,,,,,,,,,,,,,,,,,PF,strong,3,,,,,,,,7,0.746,,,,,,,,,,,,,,,,,,,,,,,,,,,,5,strong,42.40001208,90.39999491,1,0,0,response1disk,8,78,0.800011456,6.399993658,1,0,0,rectangle,0.800011456,6.399993658,1,0,0,4,4,0.001,0.800011456,6.399993658,1,0,0,0,77,77,16,1,0,,,,,,,,,,,,,,,,,,,,,
,,,,,,,,,,,,,,,,,,,,,,,,,,,,,,,,,,,,,,,,,,5ea5ce7be9fb245c8d7deded,60684717b4eecc8bab9f6c86,2021-04-03_12h56.45.170,Colour_Similarity_Experiment,2020.2.10,Win32,60,60674ec340277cd6a308bc9f,16.91373802,16.6978355,16.67763158,16.76677668,16.6631016,16.6978355,,,,,,,,,,,,,,,,,,,,PF,strong,3,,,,,,,,7,0.524,,,,,,,,,,,,,,,,,,,,,,,,,,,,2,strong,44.80001211,65.59999454,1,0,0,response1disk,9,79,15.20001167,-2.400006473,1,0,0,rectangle,15.20001167,-2.400006473,1,0,0,4,0,0.002,15.20001167,-2.400006473,1,0,0,0,78,78,72,1,0,,,,,,,,,,,,,,,,,,,,,
,,,,,,,,,,,,,,,,,,,,,,,,,,,,,,,,,,,,,,,,,,5ea5ce7be9fb245c8d7deded,60684717b4eecc8bab9f6c86,2021-04-03_12h56.45.170,Colour_Similarity_Experiment,2020.2.10,Win32,60,60674ec340277cd6a308bc9f,16.91373802,16.6978355,16.67763158,16.76677668,16.6631016,16.6978355,,,,,,,,,,,,,,,,,,,,PF,weak,3,,,,,,,,7,0.62,,,,,,,,,,,,,,,,,,,,,,,,,,,,3,weak,48.80001217,84.79999483,1,0,0,response1disk,1,80,1.14441E-05,3.999993622,1,0,0,rectangle,1.14441E-05,3.999993622,1,0,0,4,7,0.002,1.14441E-05,3.999993622,1,0,0,0,79,79,96,1,0,,,,,,,,,,,,,,,,,,,,,
,,,,,,,,,,,,,,,,,,,,,,,,,,,,,,,,,,,,,,,,,,5ea5ce7be9fb245c8d7deded,60684717b4eecc8bab9f6c86,2021-04-03_12h56.45.170,Colour_Similarity_Experiment,2020.2.10,Win32,60,60674ec340277cd6a308bc9f,16.91373802,16.6978355,16.67763158,16.76677668,16.6631016,16.6978355,,,,,,,,,,,,,,,,,,,,PF,weak,3,,,,,,,,7,0.512,,,,,,,,,,,,,,,,,,,,,,,,,,,,1,weak,40.80001205,87.19997045,1,0,0,response1disk,7,81,2.40001148,4.799993634,1,0,0,rectangle,2.40001148,4.799993634,1,0,0,4,3,0.002,2.40001148,4.799993634,1,0,0,0,80,80,150,1,0,,,,,,,,,,,,,,,,,,,,,
,,,,,,,,,,,,,,,,,,,,,,,,,,,,,,,,,,,,,,,,,,5ea5ce7be9fb245c8d7deded,60684717b4eecc8bab9f6c86,2021-04-03_12h56.45.170,Colour_Similarity_Experiment,2020.2.10,Win32,60,60674ec340277cd6a308bc9f,16.91373802,16.6978355,16.67763158,16.76677668,16.6631016,16.6978355,,,,,,,,,,,,,,,,,,,,PF,weak,3,,,,,,,,0,0.978,,,,,,,,,,,,,,,,,,,,,,,,,,,,1,weak,-53.59998935,84.79999483,1,0,0,response7disk,1,82,-14.39993994,-1.600006461,1,0,0,rectangle,40.00001204,99.99999505,1,0,0,7,7,1.816,6.400011539,0.799993575,1,0,0,0,81,81,76,1,1,response1disk_3,rectangle,,,,,,,,,,,,,,,,,,,
,,,,,,,,,,,,,,,,,,,,,,,,,,,,,,,,,,,,,,,,,,5ea5ce7be9fb245c8d7deded,60684717b4eecc8bab9f6c86,2021-04-03_12h56.45.170,Colour_Similarity_Experiment,2020.2.10,Win32,60,60674ec340277cd6a308bc9f,16.91373802,16.6978355,16.67763158,16.76677668,16.6631016,16.6978355,,,,,,,,,,,,,,,,,,,,PF,weak,3,,,,,,,,7,0.998,,,,,,,,,,,,,,,,,,,,,,,,,,,,3,weak,36.80001199,103.1999707,1,0,0,response1disk,8,83,-0.799988568,-4.000006497,1,0,0,rectangle,-0.799988568,-4.000006497,1,0,0,7,0,0.001,-0.799988568,-4.000006497,1,0,0,0,82,82,3,1,0,,,,,,,,,,,,,,,,,,,,,
,,,,,,,,,,,,,,,,,,,,,,,,,,,,,,,,,,,,,,,,,,5ea5ce7be9fb245c8d7deded,60684717b4eecc8bab9f6c86,2021-04-03_12h56.45.170,Colour_Similarity_Experiment,2020.2.10,Win32,60,60674ec340277cd6a308bc9f,16.91373802,16.6978355,16.67763158,16.76677668,16.6631016,16.6978355,,,,,,,,,,,,,,,,,,,,PF,strong,3,,,,,,,,7,0.706,,,,,,,,,,,,,,,,,,,,,,,,,,,,6,strong,54.40001225,87.19997045,1,0,0,response1disk,3,84,2.40001148,-11.2000066,1,0,0,rectangle,2.40001148,-11.2000066,1,0,0,7,6,0.001,2.40001148,-11.2000066,1,0,0,0,83,83,21,1,0,,,,,,,,,,,,,,,,,,,,,
,,,,,,,,,,,,,,,,,,,,,,,,,,,,,,,,,,,,,,,,,,5ea5ce7be9fb245c8d7deded,60684717b4eecc8bab9f6c86,2021-04-03_12h56.45.170,Colour_Similarity_Experiment,2020.2.10,Win32,60,60674ec340277cd6a308bc9f,16.91373802,16.6978355,16.67763158,16.76677668,16.6631016,16.6978355,,,,,,,,,,,,,,,,,,,,PF,weak,3,,,,,,,,7,0.845,,,,,,,,,,,,,,,,,,,,,,,,,,,,1,weak,33.60006077,103.1999707,1,0,0,response1disk,9,85,-1.59998858,3.19999361,1,0,0,rectangle,-1.59998858,3.19999361,1,0,0,7,6,0,-1.59998858,3.19999361,1,0,0,0,84,84,15,1,0,,,,,,,,,,,,,,,,,,,,,
,,,,,,,,,,,,,,,,,,,,,,,,,,,,,,,,,,,,,,,,,,5ea5ce7be9fb245c8d7deded,60684717b4eecc8bab9f6c86,2021-04-03_12h56.45.170,Colour_Similarity_Experiment,2020.2.10,Win32,60,60674ec340277cd6a308bc9f,16.91373802,16.6978355,16.67763158,16.76677668,16.6631016,16.6978355,,,,,,,,,,,,,,,,,,,,PF,weak,3,,,,,,,,7,0.733,,,,,,,,,,,,,,,,,,,,,,,,,,,,2,weak,42.40001208,79.99999475,1,0,0,response1disk,4,86,-9.599988699,-5.600006521,1,0,0,rectangle,-9.599988699,-5.600006521,1,0,0,7,7,0.002,-9.599988699,-5.600006521,1,0,0,0,85,85,127,1,0,,,,,,,,,,,,,,,,,,,,,
,,,,,,,,,,,,,,,,,,,,,,,,,,,,,,,,,,,,,,,,,,5ea5ce7be9fb245c8d7deded,60684717b4eecc8bab9f6c86,2021-04-03_12h56.45.170,Colour_Similarity_Experiment,2020.2.10,Win32,60,60674ec340277cd6a308bc9f,16.91373802,16.6978355,16.67763158,16.76677668,16.6631016,16.6978355,,,,,,,,,,,,,,,,,,,,PF,weak,3,,,,,,,,7,0.831,,,,,,,,,,,,,,,,,,,,,,,,,,,,1,weak,36.80001199,87.19997045,1,0,0,response1disk,3,87,5.600060356,-8.000006557,1,0,0,rectangle,5.600060356,-8.000006557,1,0,0,7,5,0.001,5.600060356,-8.000006557,1,0,0,0,86,86,1,1,0,,,,,,,,,,,,,,,,,,,,,
,,,,,,,,,,,,,,,,,,,,,,,,,,,,,,,,,,,,,,,,,,5ea5ce7be9fb245c8d7deded,60684717b4eecc8bab9f6c86,2021-04-03_12h56.45.170,Colour_Similarity_Experiment,2020.2.10,Win32,60,60674ec340277cd6a308bc9f,16.91373802,16.6978355,16.67763158,16.76677668,16.6631016,16.6978355,,,,,,,,,,,,,,,,,,,,PF,strong,3,,,,,,,,0,0.883,,,,,,,,,,,,,,,,,,,,,,,,,,,,4,strong,-62.39994066,100.7999951,1,0,0,response7disk,3,88,26.40001184,-9.60000658,1,0,0,rectangle,26.40001184,-9.60000658,1,0,0,7,7,0.002,26.40001184,-9.60000658,1,0,0,0,87,87,77,1,0,,,,,,,,,,,,,,,,,,,,,
,,,,,,,,,,,,,,,,,,,,,,,,,,,,,,,,,,,,,,,,,,5ea5ce7be9fb245c8d7deded,60684717b4eecc8bab9f6c86,2021-04-03_12h56.45.170,Colour_Similarity_Experiment,2020.2.10,Win32,60,60674ec340277cd6a308bc9f,16.91373802,16.6978355,16.67763158,16.76677668,16.6631016,16.6978355,,,,,,,,,,,,,,,,,,,,PF,weak,3,,,,,,,,3,2.343,,,,,,,,,,,,,,,,,,,,,,,,,,,,4,weak,-48.79998928,-91.2000078,1,0,0,response5disk,5,89,-4.799988627,-8.000006557,1,0,0,rectangle,-4.799988627,-8.000006557,1,0,0,7,5,0.001,-4.799988627,-8.000006557,1,0,0,0,88,88,49,1,0,,,,,,,,,,,,,,,,,,,,,
,,,,,,,,,,,,,,,,,,,,,,,,,,,,,,,,,,,,,,,,,,5ea5ce7be9fb245c8d7deded,60684717b4eecc8bab9f6c86,2021-04-03_12h56.45.170,Colour_Similarity_Experiment,2020.2.10,Win32,60,60674ec340277cd6a308bc9f,16.91373802,16.6978355,16.67763158,16.76677668,16.6631016,16.6978355,,,,,,,,,,,,,,,,,,,,PF,strong,3,,,,,,,,7,0.847,,,,,,,,,,,,,,,,,,,,,,,,,,,,1,strong,37.60006083,96.79999501,1,0,0,response1disk,9,90,1.14441E-05,1.599993587,1,0,0,rectangle,1.14441E-05,1.599993587,1,0,0,7,1,0.001,1.14441E-05,1.599993587,1,0,0,0,89,89,123,1,0,,,,,,,,,,,,,,,,,,,,,
,,,,,,,,,,,,,,,,,,,,,,,,,,,,,,,,,,,,,,,,,,5ea5ce7be9fb245c8d7deded,60684717b4eecc8bab9f6c86,2021-04-03_12h56.45.170,Colour_Similarity_Experiment,2020.2.10,Win32,60,60674ec340277cd6a308bc9f,16.91373802,16.6978355,16.67763158,16.76677668,16.6631016,16.6978355,,,,,,,,,,,,,,,,,,,,PF,weak,3,,,,,,,,7,0.781,,,,,,,,,,,,,,,,,,,,,,,,,,,,9,weak,36.00001198,79.99999475,1,0,0,response1disk,5,91,-8.799988687,-4.000006497,1,0,0,rectangle,-8.799988687,-4.000006497,1,0,0,7,7,0.001,-8.799988687,-4.000006497,1,0,0,0,90,90,134,1,0,,,,,,,,,,,,,,,,,,,,,
,,,,,,,,,,,,,,,,,,,,,,,,,,,,,,,,,,,,,,,,,,5ea5ce7be9fb245c8d7deded,60684717b4eecc8bab9f6c86,2021-04-03_12h56.45.170,Colour_Similarity_Experiment,2020.2.10,Win32,60,60674ec340277cd6a308bc9f,16.91373802,16.6978355,16.67763158,16.76677668,16.6631016,16.6978355,,,,,,,,,,,,,,,,,,,,PF,strong,3,,,,,,,,7,0.765,,,,,,,,,,,,,,,,,,,,,,,,,,,,7,strong,49.60006101,90.39999491,1,0,0,response1disk,9,92,1.600060296,10.39999372,1,0,0,rectangle,1.600060296,10.39999372,1,0,0,7,0,0.001,1.600060296,10.39999372,1,0,0,0,91,91,155,1,0,,,,,,,,,,,,,,,,,,,,,
,,,,,,,,,,,,,,,,,,,,,,,,,,,,,,,,,,,,,,,,,,5ea5ce7be9fb245c8d7deded,60684717b4eecc8bab9f6c86,2021-04-03_12h56.45.170,Colour_Similarity_Experiment,2020.2.10,Win32,60,60674ec340277cd6a308bc9f,16.91373802,16.6978355,16.67763158,16.76677668,16.6631016,16.6978355,,,,,,,,,,,,,,,,,,,,PF,weak,3,,,,,,,,1,1.364,,,,,,,,,,,,,,,,,,,,,,,,,,,,2,weak,-63.99998951,52.79999435,1,0,0,response7disk,2,93,13.60006047,-3.200006485,1,0,0,rectangle,13.60006047,-3.200006485,1,0,0,7,3,0.002,13.60006047,-3.200006485,1,0,0,0,92,92,14,1,0,,,,,,,,,,,,,,,,,,,,,
,,,,,,,,,,,,,,,,,,,,,,,,,,,,,,,,,,,,,,,,,,5ea5ce7be9fb245c8d7deded,60684717b4eecc8bab9f6c86,2021-04-03_12h56.45.170,Colour_Similarity_Experiment,2020.2.10,Win32,60,60674ec340277cd6a308bc9f,16.91373802,16.6978355,16.67763158,16.76677668,16.6631016,16.6978355,,,,,,,,,,,,,,,,,,,,PF,weak,3,,,,,,,,7,0.617,,,,,,,,,,,,,,,,,,,,,,,,,,,,7,weak,42.40001208,71.99999464,1,0,0,response1disk,9,94,11.20001161,-6.4373E-06,1,0,0,rectangle,11.20001161,-6.4373E-06,1,0,0,7,3,0,11.20001161,-6.4373E-06,1,0,0,0,93,93,10,1,0,,,,,,,,,,,,,,,,,,,,,
,,,,,,,,,,,,,,,,,,,,,,,,,,,,,,,,,,,,,,,,,,5ea5ce7be9fb245c8d7deded,60684717b4eecc8bab9f6c86,2021-04-03_12h56.45.170,Colour_Similarity_Experiment,2020.2.10,Win32,60,60674ec340277cd6a308bc9f,16.91373802,16.6978355,16.67763158,16.76677668,16.6631016,16.6978355,,,,,,,,,,,,,,,,,,,,PF,strong,3,,,,,,,,7,0.999,,,,,,,,,,,,,,,,,,,,,,,,,,,,1,strong,18.40001172,91.99999493,1,0,0,response1disk,8,95,-3.999988616,8.799993694,1,0,0,rectangle,-3.999988616,8.799993694,1,0,0,7,5,0.001,-3.999988616,8.799993694,1,0,0,0,94,94,27,1,0,,,,,,,,,,,,,,,,,,,,,
,,,,,,,,,,,,,,,,,,,,,,,,,,,,,,,,,,,,,,,,,,5ea5ce7be9fb245c8d7deded,60684717b4eecc8bab9f6c86,2021-04-03_12h56.45.170,Colour_Similarity_Experiment,2020.2.10,Win32,60,60674ec340277cd6a308bc9f,16.91373802,16.6978355,16.67763158,16.76677668,16.6631016,16.6978355,,,,,,,,,,,,,,,,,,,,PF,weak,3,,,,,,,,7,2.931,,,,,,,,,,,,,,,,,,,,,,,,,,,,3,weak,41.60006089,63.99999452,1,0,0,response1disk,5,96,15.20001167,-7.200006545,1,0,0,rectangle,15.20001167,-7.200006545,1,0,0,7,5,0.001,15.20001167,-7.200006545,1,0,0,0,95,95,66,1,0,,,,,,,,,,,,,,,,,,,,,
,,,,,,,,,,,,,,,,,,,,,,,,,,,,,,,,,,,,,,,,,,5ea5ce7be9fb245c8d7deded,60684717b4eecc8bab9f6c86,2021-04-03_12h56.45.170,Colour_Similarity_Experiment,2020.2.10,Win32,60,60674ec340277cd6a308bc9f,16.91373802,16.6978355,16.67763158,16.76677668,16.6631016,16.6978355,,,,,,,,,,,,,,,,,,,,PF,strong,3,,,,,,,,7,0.945,,,,,,,,,,,,,,,,,,,,,,,,,,,,4,strong,54.40001225,73.59999466,1,0,0,response1disk,2,97,-12.79998875,-12.00000662,1,0,0,rectangle,-12.79998875,-12.00000662,1,0,0,7,6,0.002,-12.79998875,-12.00000662,1,0,0,0,96,96,13,1,0,,,,,,,,,,,,,,,,,,,,,
,,,,,,,,,,,,,,,,,,,,,,,,,,,,,,,,,,,,,,,,,,5ea5ce7be9fb245c8d7deded,60684717b4eecc8bab9f6c86,2021-04-03_12h56.45.170,Colour_Similarity_Experiment,2020.2.10,Win32,60,60674ec340277cd6a308bc9f,16.91373802,16.6978355,16.67763158,16.76677668,16.6631016,16.6978355,,,,,,,,,,,,,,,,,,,,PF,weak,3,,,,,,,,7,0.582,,,,,,,,,,,,,,,,,,,,,,,,,,,,2,weak,36.80001199,70.39999461,1,0,0,response1disk,5,98,12.00001162,-1.600006461,1,0,0,rectangle,12.00001162,-1.600006461,1,0,0,7,0,0.001,12.00001162,-1.600006461,1,0,0,0,97,97,147,1,0,,,,,,,,,,,,,,,,,,,,,
,,,,,,,,,,,,,,,,,,,,,,,,,,,,,,,,,,,,,,,,,,5ea5ce7be9fb245c8d7deded,60684717b4eecc8bab9f6c86,2021-04-03_12h56.45.170,Colour_Similarity_Experiment,2020.2.10,Win32,60,60674ec340277cd6a308bc9f,16.91373802,16.6978355,16.67763158,16.76677668,16.6631016,16.6978355,,,,,,,,,,,,,,,,,,,,PF,weak,3,,,,,,,,7,0.53,,,,,,,,,,,,,,,,,,,,,,,,,,,,4,weak,48.80001217,71.19997021,1,0,0,response1disk,6,99,12.00001162,-6.4373E-06,1,0,0,rectangle,12.00001162,-6.4373E-06,1,0,0,7,5,0.001,12.00001162,-6.4373E-06,1,0,0,0,98,98,120,1,0,,,,,,,,,,,,,,,,,,,,,
,,,,,,,,,,,,,,,,,,,,,,,,,,,,,,,,,,,,,,,,,,5ea5ce7be9fb245c8d7deded,60684717b4eecc8bab9f6c86,2021-04-03_12h56.45.170,Colour_Similarity_Experiment,2020.2.10,Win32,60,60674ec340277cd6a308bc9f,16.91373802,16.6978355,16.67763158,16.76677668,16.6631016,16.6978355,,,,,,,,,,,,,,,,,,,,PF,weak,3,,,,,,,,7,1.041,,,,,,,,,,,,,,,,,,,,,,,,,,,,2,weak,33.60006077,64.79999453,1,0,0,response1disk,7,100,1.600060296,-6.400006533,1,0,0,rectangle,1.600060296,-6.400006533,1,0,0,7,3,0.002,1.600060296,-6.400006533,1,0,0,0,99,99,107,1,0,,,,,,,,,,,,,,,,,,,,,
,,,,,,,,,,,,,,,,,,,,,,,,,,,,,,,,,,,,,,,,,,5ea5ce7be9fb245c8d7deded,60684717b4eecc8bab9f6c86,2021-04-03_12h56.45.170,Colour_Similarity_Experiment,2020.2.10,Win32,60,60674ec340277cd6a308bc9f,16.91373802,16.6978355,16.67763158,16.76677668,16.6631016,16.6978355,,,,,,,,,,,,,,,,,,,,PF,weak,3,,,,,,,,7,0.58,,,,,,,,,,,,,,,,,,,,,,,,,,,,2,weak,35.20001197,77.59999472,1,0,0,response1disk,1,101,10.4000116,0.799993575,1,0,0,rectangle,10.4000116,0.799993575,1,0,0,7,0,0.002,10.4000116,0.799993575,1,0,0,0,100,100,9,1,0,,,,,,,,,,,,,,,,,,,,,
,,,,,,,,,,,,,,,,,,,,,,,,,,,,,,,,,,,,,,,,,,5ea5ce7be9fb245c8d7deded,60684717b4eecc8bab9f6c86,2021-04-03_12h56.45.170,Colour_Similarity_Experiment,2020.2.10,Win32,60,60674ec340277cd6a308bc9f,16.91373802,16.6978355,16.67763158,16.76677668,16.6631016,16.6978355,,,,,,,,,,,,,,,,,,,,PF,strong,3,,,,,,,,7,0.829,,,,,,,,,,,,,,,,,,,,,,,,,,,,2,strong,37.60006083,82.39999479,1,0,0,response1disk,1,102,-3.999988616,-5.600006521,1,0,0,rectangle,-3.999988616,-5.600006521,1,0,0,7,2,0.002,-3.999988616,-5.600006521,1,0,0,0,101,101,85,1,0,,,,,,,,,,,,,,,,,,,,,
,,,,,,,,,,,,,,,,,,,,,,,,,,,,,,,,,,,,,,,,,,5ea5ce7be9fb245c8d7deded,60684717b4eecc8bab9f6c86,2021-04-03_12h56.45.170,Colour_Similarity_Experiment,2020.2.10,Win32,60,60674ec340277cd6a308bc9f,16.91373802,16.6978355,16.67763158,16.76677668,16.6631016,16.6978355,,,,,,,,,,,,,,,,,,,,PF,weak,3,,,,,,,,7,0.979,,,,,,,,,,,,,,,,,,,,,,,,,,,,4,weak,35.20001197,70.39999461,1,0,0,response1disk,7,103,6.400011539,-3.200006485,1,0,0,rectangle,6.400011539,-3.200006485,1,0,0,7,1,0.001,6.400011539,-3.200006485,1,0,0,0,102,102,38,1,0,,,,,,,,,,,,,,,,,,,,,
,,,,,,,,,,,,,,,,,,,,,,,,,,,,,,,,,,,,,,,,,,5ea5ce7be9fb245c8d7deded,60684717b4eecc8bab9f6c86,2021-04-03_12h56.45.170,Colour_Similarity_Experiment,2020.2.10,Win32,60,60674ec340277cd6a308bc9f,16.91373802,16.6978355,16.67763158,16.76677668,16.6631016,16.6978355,,,,,,,,,,,,,,,,,,,,PF,strong,3,,,,,,,,7,0.912,,,,,,,,,,,,,,,,,,,,,,,,,,,,8,strong,29.60006071,83.99999481,1,0,0,response1disk,2,104,-23.99998891,-6.4373E-06,1,0,0,rectangle,-23.99998891,-6.4373E-06,1,0,0,7,3,0.004,-23.99998891,-6.4373E-06,1,0,0,0,103,103,22,1,0,,,,,,,,,,,,,,,,,,,,,
,,,,,,,,,,,,,,,,,,,,,,,,,,,,,,,,,,,,,,,,,,5ea5ce7be9fb245c8d7deded,60684717b4eecc8bab9f6c86,2021-04-03_12h56.45.170,Colour_Similarity_Experiment,2020.2.10,Win32,60,60674ec340277cd6a308bc9f,16.91373802,16.6978355,16.67763158,16.76677668,16.6631016,16.6978355,,,,,,,,,,,,,,,,,,,,PF,weak,3,,,,,,,,7,0.794,,,,,,,,,,,,,,,,,,,,,,,,,,,,8,weak,28.80001187,103.1999707,1,0,0,response1disk,7,105,-13.59998876,1.599993587,1,0,0,rectangle,-13.59998876,1.599993587,1,0,0,7,6,0.003,-13.59998876,1.599993587,1,0,0,0,104,104,23,1,0,,,,,,,,,,,,,,,,,,,,,
,,,,,,,,,,,,,,,,,,,,,,,,,,,,,,,,,,,,,,,,,,5ea5ce7be9fb245c8d7deded,60684717b4eecc8bab9f6c86,2021-04-03_12h56.45.170,Colour_Similarity_Experiment,2020.2.10,Win32,60,60674ec340277cd6a308bc9f,16.91373802,16.6978355,16.67763158,16.76677668,16.6631016,16.6978355,,,,,,,,,,,,,,,,,,,,PF,strong,3,,,,,,,,7,0.814,,,,,,,,,,,,,,,,,,,,,,,,,,,,9,strong,52.00001222,72.79999465,1,0,0,response1disk,7,106,21.60006059,-5.600006521,1,0,0,rectangle,21.60006059,-5.600006521,1,0,0,7,6,0,21.60006059,-5.600006521,1,0,0,0,105,105,100,1,0,,,,,,,,,,,,,,,,,,,,,
,,,,,,,,,,,,,,,,,,,,,,,,,,,,,,,,,,,,,,,,,,5ea5ce7be9fb245c8d7deded,60684717b4eecc8bab9f6c86,2021-04-03_12h56.45.170,Colour_Similarity_Experiment,2020.2.10,Win32,60,60674ec340277cd6a308bc9f,16.91373802,16.6978355,16.67763158,16.76677668,16.6631016,16.6978355,,,,,,,,,,,,,,,,,,,,PF,weak,3,,,,,,,,7,0.598,,,,,,,,,,,,,,,,,,,,,,,,,,,,6,weak,41.60006089,84.79999483,1,0,0,response1disk,1,107,-0.799988568,3.19999361,1,0,0,rectangle,-0.799988568,3.19999361,1,0,0,7,2,0.002,-0.799988568,3.19999361,1,0,0,0,106,106,46,1,0,,,,,,,,,,,,,,,,,,,,,
,,,,,,,,,,,,,,,,,,,,,,,,,,,,,,,,,,,,,,,,,,5ea5ce7be9fb245c8d7deded,60684717b4eecc8bab9f6c86,2021-04-03_12h56.45.170,Colour_Similarity_Experiment,2020.2.10,Win32,60,60674ec340277cd6a308bc9f,16.91373802,16.6978355,16.67763158,16.76677668,16.6631016,16.6978355,,,,,,,,,,,,,,,,,,,,PF,strong,3,,,,,,,,7,0.616,,,,,,,,,,,,,,,,,,,,,,,,,,,,7,strong,36.00001198,72.79999465,1,0,0,response1disk,8,108,-2.399939764,-13.60000664,1,0,0,rectangle,48.80001217,-89.6000566,1,0,0,4,4,1.175,-1.59998858,1.599993587,1,0,0,0,107,107,97,1,1,response3disk_3,rectangle,,,,,,,,,,,,,,,,,,,
,,,,,,,,,,,,,,,,,,,,,,,,,,,,,,,,,,,,,,,,,,5ea5ce7be9fb245c8d7deded,60684717b4eecc8bab9f6c86,2021-04-03_12h56.45.170,Colour_Similarity_Experiment,2020.2.10,Win32,60,60674ec340277cd6a308bc9f,16.91373802,16.6978355,16.67763158,16.76677668,16.6631016,16.6978355,,,,,,,,,,,,,,,,,,,,PF,weak,3,,,,,,,,7,0.765,,,,,,,,,,,,,,,,,,,,,,,,,,,,1,weak,33.60006077,75.9999947,1,0,0,response1disk,5,109,-0.799988568,-9.60000658,1,0,0,rectangle,-0.799988568,-9.60000658,1,0,0,4,7,0.001,-0.799988568,-9.60000658,1,0,0,0,108,108,28,1,0,,,,,,,,,,,,,,,,,,,,,
,,,,,,,,,,,,,,,,,,,,,,,,,,,,,,,,,,,,,,,,,,5ea5ce7be9fb245c8d7deded,60684717b4eecc8bab9f6c86,2021-04-03_12h56.45.170,Colour_Similarity_Experiment,2020.2.10,Win32,60,60674ec340277cd6a308bc9f,16.91373802,16.6978355,16.67763158,16.76677668,16.6631016,16.6978355,,,,,,,,,,,,,,,,,,,,PF,strong,3,,,,,,,,1,1.895,,,,,,,,,,,,,,,,,,,,,,,,,,,,4,strong,-61.59998947,32.79999405,1,0,0,response7disk,4,110,8.800011575,1.599993587,1,0,0,rectangle,8.800011575,1.599993587,1,0,0,4,4,0.001,8.800011575,1.599993587,1,0,0,0,109,109,84,1,0,,,,,,,,,,,,,,,,,,,,,
,,,,,,,,,,,,,,,,,,,,,,,,,,,,,,,,,,,,,,,,,,5ea5ce7be9fb245c8d7deded,60684717b4eecc8bab9f6c86,2021-04-03_12h56.45.170,Colour_Similarity_Experiment,2020.2.10,Win32,60,60674ec340277cd6a308bc9f,16.91373802,16.6978355,16.67763158,16.76677668,16.6631016,16.6978355,,,,,,,,,,,,,,,,,,,,PF,weak,3,,,,,,,,1,1.698,,,,,,,,,,,,,,,,,,,,,,,,,,,,4,weak,-88.79998988,43.19996979,1,0,0,response7disk,3,111,-10.39993988,6.399993658,1,0,0,rectangle,-10.39993988,6.399993658,1,0,0,4,1,0.002,-10.39993988,6.399993658,1,0,0,0,110,110,89,1,0,,,,,,,,,,,,,,,,,,,,,
,,,,,,,,,,,,,,,,,,,,,,,,,,,,,,,,,,,,,,,,,,5ea5ce7be9fb245c8d7deded,60684717b4eecc8bab9f6c86,2021-04-03_12h56.45.170,Colour_Similarity_Experiment,2020.2.10,Win32,60,60674ec340277cd6a308bc9f,16.91373802,16.6978355,16.67763158,16.76677668,16.6631016,16.6978355,,,,,,,,,,,,,,,,,,,,PF,weak,3,,,,,,,,7,0.498,,,,,,,,,,,,,,,,,,,,,,,,,,,,6,weak,43.20001209,64.79999453,1,0,0,response1disk,8,112,1.600060296,-3.200006485,1,0,0,rectangle,1.600060296,-3.200006485,1,0,0,4,0,0.002,1.600060296,-3.200006485,1,0,0,0,111,111,64,1,0,,,,,,,,,,,,,,,,,,,,,
,,,,,,,,,,,,,,,,,,,,,,,,,,,,,,,,,,,,,,,,,,5ea5ce7be9fb245c8d7deded,60684717b4eecc8bab9f6c86,2021-04-03_12h56.45.170,Colour_Similarity_Experiment,2020.2.10,Win32,60,60674ec340277cd6a308bc9f,16.91373802,16.6978355,16.67763158,16.76677668,16.6631016,16.6978355,,,,,,,,,,,,,,,,,,,,PF,strong,3,,,,,,,,7,0.542,,,,,,,,,,,,,,,,,,,,,,,,,,,,9,strong,43.20001209,70.39999461,1,0,0,response1disk,3,113,4.000011504,12.79999375,1,0,0,rectangle,4.000011504,12.79999375,1,0,0,4,1,0.001,4.000011504,12.79999375,1,0,0,0,112,112,141,1,0,,,,,,,,,,,,,,,,,,,,,
,,,,,,,,,,,,,,,,,,,,,,,,,,,,,,,,,,,,,,,,,,5ea5ce7be9fb245c8d7deded,60684717b4eecc8bab9f6c86,2021-04-03_12h56.45.170,Colour_Similarity_Experiment,2020.2.10,Win32,60,60674ec340277cd6a308bc9f,16.91373802,16.6978355,16.67763158,16.76677668,16.6631016,16.6978355,,,,,,,,,,,,,,,,,,,,PF,strong,3,,,,,,,,7,0.732,,,,,,,,,,,,,,,,,,,,,,,,,,,,7,strong,29.60006071,69.5999946,1,0,0,response1disk,6,114,-8.799988687,8.799993694,1,0,0,rectangle,-8.799988687,8.799993694,1,0,0,4,6,0.001,-8.799988687,8.799993694,1,0,0,0,113,113,31,1,0,,,,,,,,,,,,,,,,,,,,,
,,,,,,,,,,,,,,,,,,,,,,,,,,,,,,,,,,,,,,,,,,5ea5ce7be9fb245c8d7deded,60684717b4eecc8bab9f6c86,2021-04-03_12h56.45.170,Colour_Similarity_Experiment,2020.2.10,Win32,60,60674ec340277cd6a308bc9f,16.91373802,16.6978355,16.67763158,16.76677668,16.6631016,16.6978355,,,,,,,,,,,,,,,,,,,,PF,strong,3,,,,,,,,7,0.647,,,,,,,,,,,,,,,,,,,,,,,,,,,,6,strong,32.00001192,69.5999946,1,0,0,response1disk,2,115,11.20001161,-7.200006545,1,0,0,rectangle,11.20001161,-7.200006545,1,0,0,4,5,0.001,11.20001161,-7.200006545,1,0,0,0,114,114,112,1,0,,,,,,,,,,,,,,,,,,,,,
,,,,,,,,,,,,,,,,,,,,,,,,,,,,,,,,,,,,,,,,,,5ea5ce7be9fb245c8d7deded,60684717b4eecc8bab9f6c86,2021-04-03_12h56.45.170,Colour_Similarity_Experiment,2020.2.10,Win32,60,60674ec340277cd6a308bc9f,16.91373802,16.6978355,16.67763158,16.76677668,16.6631016,16.6978355,,,,,,,,,,,,,,,,,,,,PF,strong,3,,,,,,,,7,0.882,,,,,,,,,,,,,,,,,,,,,,,,,,,,8,strong,31.20001191,63.19997009,1,0,0,response1disk,3,116,-1.59998858,-8.800006568,1,0,0,rectangle,-1.59998858,-8.800006568,1,0,0,4,2,0.002,-1.59998858,-8.800006568,1,0,0,0,115,115,154,1,0,,,,,,,,,,,,,,,,,,,,,
,,,,,,,,,,,,,,,,,,,,,,,,,,,,,,,,,,,,,,,,,,5ea5ce7be9fb245c8d7deded,60684717b4eecc8bab9f6c86,2021-04-03_12h56.45.170,Colour_Similarity_Experiment,2020.2.10,Win32,60,60674ec340277cd6a308bc9f,16.91373802,16.6978355,16.67763158,16.76677668,16.6631016,16.6978355,,,,,,,,,,,,,,,,,,,,PF,weak,3,,,,,,,,7,0.529,,,,,,,,,,,,,,,,,,,,,,,,,,,,3,weak,20.80001175,73.59999466,1,0,0,response1disk,6,117,1.14441E-05,-7.200006545,1,0,0,rectangle,1.14441E-05,-7.200006545,1,0,0,4,0,0.002,1.14441E-05,-7.200006545,1,0,0,0,116,116,47,1,0,,,,,,,,,,,,,,,,,,,,,
,,,,,,,,,,,,,,,,,,,,,,,,,,,,,,,,,,,,,,,,,,5ea5ce7be9fb245c8d7deded,60684717b4eecc8bab9f6c86,2021-04-03_12h56.45.170,Colour_Similarity_Experiment,2020.2.10,Win32,60,60674ec340277cd6a308bc9f,16.91373802,16.6978355,16.67763158,16.76677668,16.6631016,16.6978355,,,,,,,,,,,,,,,,,,,,PF,strong,3,,,,,,,,7,0.498,,,,,,,,,,,,,,,,,,,,,,,,,,,,1,strong,40.00001204,64.79999453,1,0,0,response1disk,5,118,7.200011551,4.799993634,1,0,0,rectangle,7.200011551,4.799993634,1,0,0,4,3,0.002,7.200011551,4.799993634,1,0,0,0,117,117,82,1,0,,,,,,,,,,,,,,,,,,,,,
,,,,,,,,,,,,,,,,,,,,,,,,,,,,,,,,,,,,,,,,,,5ea5ce7be9fb245c8d7deded,60684717b4eecc8bab9f6c86,2021-04-03_12h56.45.170,Colour_Similarity_Experiment,2020.2.10,Win32,60,60674ec340277cd6a308bc9f,16.91373802,16.6978355,16.67763158,16.76677668,16.6631016,16.6978355,,,,,,,,,,,,,,,,,,,,PF,strong,3,,,,,,,,7,0.482,,,,,,,,,,,,,,,,,,,,,,,,,,,,5,strong,28.80001187,68.79999459,1,0,0,response1disk,6,119,2.40001148,3.19999361,1,0,0,rectangle,2.40001148,3.19999361,1,0,0,4,2,0.002,2.40001148,3.19999361,1,0,0,0,118,118,12,1,0,,,,,,,,,,,,,,,,,,,,,
,,,,,,,,,,,,,,,,,,,,,,,,,,,,,,,,,,,,,,,,,,5ea5ce7be9fb245c8d7deded,60684717b4eecc8bab9f6c86,2021-04-03_12h56.45.170,Colour_Similarity_Experiment,2020.2.10,Win32,60,60674ec340277cd6a308bc9f,16.91373802,16.6978355,16.67763158,16.76677668,16.6631016,16.6978355,,,,,,,,,,,,,,,,,,,,PF,weak,3,,,,,,,,7,0.5,,,,,,,,,,,,,,,,,,,,,,,,,,,,1,weak,38.40001202,77.59999472,1,0,0,response1disk,6,120,12.00001162,2.399993598,1,0,0,rectangle,12.00001162,2.399993598,1,0,0,4,5,0.002,12.00001162,2.399993598,1,0,0,0,119,119,144,1,0,,,,,,,,,,,,,,,,,,,,,
,,,,,,,,,,,,,,,,,,,,,,,,,,,,,,,,,,,,,,,,,,5ea5ce7be9fb245c8d7deded,60684717b4eecc8bab9f6c86,2021-04-03_12h56.45.170,Colour_Similarity_Experiment,2020.2.10,Win32,60,60674ec340277cd6a308bc9f,16.91373802,16.6978355,16.67763158,16.76677668,16.6631016,16.6978355,,,,,,,,,,,,,,,,,,,,PF,weak,3,,,,,,,,7,0.582,,,,,,,,,,,,,,,,,,,,,,,,,,,,4,weak,43.20001209,75.19997027,1,0,0,response1disk,1,121,-18.39994,8.799993694,1,0,0,rectangle,-18.39994,8.799993694,1,0,0,4,3,0.001,-18.39994,8.799993694,1,0,0,0,120,120,115,1,0,,,,,,,,,,,,,,,,,,,,,
,,,,,,,,,,,,,,,,,,,,,,,,,,,,,,,,,,,,,,,,,,5ea5ce7be9fb245c8d7deded,60684717b4eecc8bab9f6c86,2021-04-03_12h56.45.170,Colour_Similarity_Experiment,2020.2.10,Win32,60,60674ec340277cd6a308bc9f,16.91373802,16.6978355,16.67763158,16.76677668,16.6631016,16.6978355,,,,,,,,,,,,,,,,,,,,PF,strong,3,,,,,,,,7,0.516,,,,,,,,,,,,,,,,,,,,,,,,,,,,1,strong,48.00001216,80.79999477,1,0,0,response1disk,7,122,7.200011551,2.399993598,1,0,0,rectangle,7.200011551,2.399993598,1,0,0,4,4,0.002,7.200011551,2.399993598,1,0,0,0,121,121,137,1,0,,,,,,,,,,,,,,,,,,,,,
,,,,,,,,,,,,,,,,,,,,,,,,,,,,,,,,,,,,,,,,,,5ea5ce7be9fb245c8d7deded,60684717b4eecc8bab9f6c86,2021-04-03_12h56.45.170,Colour_Similarity_Experiment,2020.2.10,Win32,60,60674ec340277cd6a308bc9f,16.91373802,16.6978355,16.67763158,16.76677668,16.6631016,16.6978355,,,,,,,,,,,,,,,,,,,,PF,strong,3,,,,,,,,7,0.599,,,,,,,,,,,,,,,,,,,,,,,,,,,,2,strong,48.80001217,88.79999489,1,0,0,response1disk,4,123,26.40001184,8.799993694,1,0,0,rectangle,26.40001184,8.799993694,1,0,0,4,2,0.001,26.40001184,8.799993694,1,0,0,0,122,122,145,1,0,,,,,,,,,,,,,,,,,,,,,
,,,,,,,,,,,,,,,,,,,,,,,,,,,,,,,,,,,,,,,,,,5ea5ce7be9fb245c8d7deded,60684717b4eecc8bab9f6c86,2021-04-03_12h56.45.170,Colour_Similarity_Experiment,2020.2.10,Win32,60,60674ec340277cd6a308bc9f,16.91373802,16.6978355,16.67763158,16.76677668,16.6631016,16.6978355,,,,,,,,,,,,,,,,,,,,PF,weak,3,,,,,,,,7,0.563,,,,,,,,,,,,,,,,,,,,,,,,,,,,9,weak,39.20001203,71.99999464,1,0,0,response1disk,3,124,11.20001161,-3.200006485,1,0,0,rectangle,11.20001161,-3.200006485,1,0,0,4,7,0.001,11.20001161,-3.200006485,1,0,0,0,123,123,119,1,0,,,,,,,,,,,,,,,,,,,,,
,,,,,,,,,,,,,,,,,,,,,,,,,,,,,,,,,,,,,,,,,,5ea5ce7be9fb245c8d7deded,60684717b4eecc8bab9f6c86,2021-04-03_12h56.45.170,Colour_Similarity_Experiment,2020.2.10,Win32,60,60674ec340277cd6a308bc9f,16.91373802,16.6978355,16.67763158,16.76677668,16.6631016,16.6978355,,,,,,,,,,,,,,,,,,,,PF,strong,3,,,,,,,,7,0.645,,,,,,,,,,,,,,,,,,,,,,,,,,,,3,strong,44.80001211,74.39999467,1,0,0,response1disk,8,125,2.40001148,-8.800006568,1,0,0,rectangle,2.40001148,-8.800006568,1,0,0,4,0,0.001,2.40001148,-8.800006568,1,0,0,0,124,124,44,1,0,,,,,,,,,,,,,,,,,,,,,
,,,,,,,,,,,,,,,,,,,,,,,,,,,,,,,,,,,,,,,,,,5ea5ce7be9fb245c8d7deded,60684717b4eecc8bab9f6c86,2021-04-03_12h56.45.170,Colour_Similarity_Experiment,2020.2.10,Win32,60,60674ec340277cd6a308bc9f,16.91373802,16.6978355,16.67763158,16.76677668,16.6631016,16.6978355,,,,,,,,,,,,,,,,,,,,PF,weak,3,,,,,,,,7,0.679,,,,,,,,,,,,,,,,,,,,,,,,,,,,4,weak,24.80001181,81.59999478,1,0,0,response1disk,9,126,-17.59998882,-11.2000066,1,0,0,rectangle,-17.59998882,-11.2000066,1,0,0,4,1,0.001,-17.59998882,-11.2000066,1,0,0,0,125,125,75,1,0,,,,,,,,,,,,,,,,,,,,,
,,,,,,,,,,,,,,,,,,,,,,,,,,,,,,,,,,,,,,,,,,5ea5ce7be9fb245c8d7deded,60684717b4eecc8bab9f6c86,2021-04-03_12h56.45.170,Colour_Similarity_Experiment,2020.2.10,Win32,60,60674ec340277cd6a308bc9f,16.91373802,16.6978355,16.67763158,16.76677668,16.6631016,16.6978355,,,,,,,,,,,,,,,,,,,,PF,weak,3,,,,,,,,7,0.757,,,,,,,,,,,,,,,,,,,,,,,,,,,,7,weak,24.80001181,67.99999458,1,0,0,response1disk,3,127,16.80001169,-3.200006485,1,0,0,rectangle,16.80001169,-3.200006485,1,0,0,4,2,0.001,16.80001169,-3.200006485,1,0,0,0,126,126,81,1,0,,,,,,,,,,,,,,,,,,,,,
,,,,,,,,,,,,,,,,,,,,,,,,,,,,,,,,,,,,,,,,,,5ea5ce7be9fb245c8d7deded,60684717b4eecc8bab9f6c86,2021-04-03_12h56.45.170,Colour_Similarity_Experiment,2020.2.10,Win32,60,60674ec340277cd6a308bc9f,16.91373802,16.6978355,16.67763158,16.76677668,16.6631016,16.6978355,,,,,,,,,,,,,,,,,,,,PF,strong,3,,,,,,,,7,1.585,,,,,,,,,,,,,,,,,,,,,,,,,,,,8,strong,26.40001184,57.59999442,1,0,0,response1disk,9,128,0.800011456,-0.800006449,1,0,0,rectangle,0.800011456,-0.800006449,1,0,0,4,1,0.001,0.800011456,-0.800006449,1,0,0,0,127,127,105,1,0,,,,,,,,,,,,,,,,,,,,,
,,,,,,,,,,,,,,,,,,,,,,,,,,,,,,,,,,,,,,,,,,5ea5ce7be9fb245c8d7deded,60684717b4eecc8bab9f6c86,2021-04-03_12h56.45.170,Colour_Similarity_Experiment,2020.2.10,Win32,60,60674ec340277cd6a308bc9f,16.91373802,16.6978355,16.67763158,16.76677668,16.6631016,16.6978355,,,,,,,,,,,,,,,,,,,,PF,strong,3,,,,,,,,7,0.566,,,,,,,,,,,,,,,,,,,,,,,,,,,,2,strong,26.40001184,65.59999454,1,0,0,response1disk,7,129,20.80001175,-12.00000662,1,0,0,rectangle,20.80001175,-12.00000662,1,0,0,4,7,0.001,20.80001175,-12.00000662,1,0,0,0,128,128,63,1,0,,,,,,,,,,,,,,,,,,,,,
,,,,,,,,,,,,,,,,,,,,,,,,,,,,,,,,,,,,,,,,,,5ea5ce7be9fb245c8d7deded,60684717b4eecc8bab9f6c86,2021-04-03_12h56.45.170,Colour_Similarity_Experiment,2020.2.10,Win32,60,60674ec340277cd6a308bc9f,16.91373802,16.6978355,16.67763158,16.76677668,16.6631016,16.6978355,,,,,,,,,,,,,,,,,,,,PF,strong,3,,,,,,,,7,0.729,,,,,,,,,,,,,,,,,,,,,,,,,,,,2,strong,67.20001245,83.99999481,1,0,0,response1disk,6,130,16.80001169,7.999993682,1,0,0,rectangle,16.80001169,7.999993682,1,0,0,4,6,0.001,16.80001169,7.999993682,1,0,0,0,129,129,40,1,0,,,,,,,,,,,,,,,,,,,,,
,,,,,,,,,,,,,,,,,,,,,,,,,,,,,,,,,,,,,,,,,,5ea5ce7be9fb245c8d7deded,60684717b4eecc8bab9f6c86,2021-04-03_12h56.45.170,Colour_Similarity_Experiment,2020.2.10,Win32,60,60674ec340277cd6a308bc9f,16.91373802,16.6978355,16.67763158,16.76677668,16.6631016,16.6978355,,,,,,,,,,,,,,,,,,,,PF,strong,3,,,,,,,,7,0.881,,,,,,,,,,,,,,,,,,,,,,,,,,,,8,strong,44.0000121,92.79999495,1,0,0,response1disk,4,131,-18.39994,-6.4373E-06,1,0,0,rectangle,-18.39994,-6.4373E-06,1,0,0,4,6,0,-18.39994,-6.4373E-06,1,0,0,0,130,130,88,1,0,,,,,,,,,,,,,,,,,,,,,
,,,,,,,,,,,,,,,,,,,,,,,,,,,,,,,,,,,,,,,,,,5ea5ce7be9fb245c8d7deded,60684717b4eecc8bab9f6c86,2021-04-03_12h56.45.170,Colour_Similarity_Experiment,2020.2.10,Win32,60,60674ec340277cd6a308bc9f,16.91373802,16.6978355,16.67763158,16.76677668,16.6631016,16.6978355,,,,,,,,,,,,,,,,,,,,PF,weak,3,,,,,,,,7,0.564,,,,,,,,,,,,,,,,,,,,,,,,,,,,6,weak,32.80001193,83.19997039,1,0,0,response1disk,4,132,4.800011516,-5.600006521,1,0,0,rectangle,4.800011516,-5.600006521,1,0,0,4,3,0.001,4.800011516,-5.600006521,1,0,0,0,131,131,33,1,0,,,,,,,,,,,,,,,,,,,,,
,,,,,,,,,,,,,,,,,,,,,,,,,,,,,,,,,,,,,,,,,,5ea5ce7be9fb245c8d7deded,60684717b4eecc8bab9f6c86,2021-04-03_12h56.45.170,Colour_Similarity_Experiment,2020.2.10,Win32,60,60674ec340277cd6a308bc9f,16.91373802,16.6978355,16.67763158,16.76677668,16.6631016,16.6978355,,,,,,,,,,,,,,,,,,,,PF,strong,3,,,,,,,,7,0.732,,,,,,,,,,,,,,,,,,,,,,,,,,,,5,strong,36.80001199,87.19997045,1,0,0,response1disk,2,133,4.000011504,0.799993575,1,0,0,rectangle,76.00001258,27.99999398,1,0,0,6,6,1.637,-15.99998879,-8.000006557,1,0,0,0,132,132,55,1,1,response1disk_3,rectangle,,,,,,,,,,,,,,,,,,,
,,,,,,,,,,,,,,,,,,,,,,,,,,,,,,,,,,,,,,,,,,5ea5ce7be9fb245c8d7deded,60684717b4eecc8bab9f6c86,2021-04-03_12h56.45.170,Colour_Similarity_Experiment,2020.2.10,Win32,60,60674ec340277cd6a308bc9f,16.91373802,16.6978355,16.67763158,16.76677668,16.6631016,16.6978355,,,,,,,,,,,,,,,,,,,,PF,weak,3,,,,,,,,1,1.464,,,,,,,,,,,,,,,,,,,,,,,,,,,,9,weak,-67.99998957,33.59999406,1,0,0,response7disk,9,134,-3.199988604,-10.40000659,1,0,0,rectangle,-3.199988604,-10.40000659,1,0,0,6,1,0.001,-3.199988604,-10.40000659,1,0,0,0,133,133,106,1,0,,,,,,,,,,,,,,,,,,,,,
,,,,,,,,,,,,,,,,,,,,,,,,,,,,,,,,,,,,,,,,,,5ea5ce7be9fb245c8d7deded,60684717b4eecc8bab9f6c86,2021-04-03_12h56.45.170,Colour_Similarity_Experiment,2020.2.10,Win32,60,60674ec340277cd6a308bc9f,16.91373802,16.6978355,16.67763158,16.76677668,16.6631016,16.6978355,,,,,,,,,,,,,,,,,,,,PF,strong,3,,,,,,,,7,0.581,,,,,,,,,,,,,,,,,,,,,,,,,,,,4,strong,40.80001205,94.39999497,1,0,0,response1disk,7,135,18.40001172,4.799993634,1,0,0,rectangle,18.40001172,4.799993634,1,0,0,6,5,0.001,18.40001172,4.799993634,1,0,0,0,134,134,87,1,0,,,,,,,,,,,,,,,,,,,,,
,,,,,,,,,,,,,,,,,,,,,,,,,,,,,,,,,,,,,,,,,,5ea5ce7be9fb245c8d7deded,60684717b4eecc8bab9f6c86,2021-04-03_12h56.45.170,Colour_Similarity_Experiment,2020.2.10,Win32,60,60674ec340277cd6a308bc9f,16.91373802,16.6978355,16.67763158,16.76677668,16.6631016,16.6978355,,,,,,,,,,,,,,,,,,,,PF,weak,3,,,,,,,,7,0.581,,,,,,,,,,,,,,,,,,,,,,,,,,,,8,weak,34.40001196,73.59999466,1,0,0,response1disk,4,136,9.600060415,6.399993658,1,0,0,rectangle,9.600060415,6.399993658,1,0,0,6,7,0.001,9.600060415,6.399993658,1,0,0,0,135,135,78,1,0,,,,,,,,,,,,,,,,,,,,,
,,,,,,,,,,,,,,,,,,,,,,,,,,,,,,,,,,,,,,,,,,5ea5ce7be9fb245c8d7deded,60684717b4eecc8bab9f6c86,2021-04-03_12h56.45.170,Colour_Similarity_Experiment,2020.2.10,Win32,60,60674ec340277cd6a308bc9f,16.91373802,16.6978355,16.67763158,16.76677668,16.6631016,16.6978355,,,,,,,,,,,,,,,,,,,,PF,strong,3,,,,,,,,7,0.614,,,,,,,,,,,,,,,,,,,,,,,,,,,,1,strong,39.20001203,73.59999466,1,0,0,response1disk,3,137,1.600060296,4.799993634,1,0,0,rectangle,1.600060296,4.799993634,1,0,0,6,5,0.001,1.600060296,4.799993634,1,0,0,0,136,136,99,1,0,,,,,,,,,,,,,,,,,,,,,
,,,,,,,,,,,,,,,,,,,,,,,,,,,,,,,,,,,,,,,,,,5ea5ce7be9fb245c8d7deded,60684717b4eecc8bab9f6c86,2021-04-03_12h56.45.170,Colour_Similarity_Experiment,2020.2.10,Win32,60,60674ec340277cd6a308bc9f,16.91373802,16.6978355,16.67763158,16.76677668,16.6631016,16.6978355,,,,,,,,,,,,,,,,,,,,PF,strong,3,,,,,,,,0,0.974,,,,,,,,,,,,,,,,,,,,,,,,,,,,3,strong,-43.1999892,64.79999453,1,0,0,response7disk,4,138,-11.19998872,-3.200006485,1,0,0,rectangle,-11.19998872,-3.200006485,1,0,0,6,0,0.001,-11.19998872,-3.200006485,1,0,0,0,137,137,110,1,0,,,,,,,,,,,,,,,,,,,,,
,,,,,,,,,,,,,,,,,,,,,,,,,,,,,,,,,,,,,,,,,,5ea5ce7be9fb245c8d7deded,60684717b4eecc8bab9f6c86,2021-04-03_12h56.45.170,Colour_Similarity_Experiment,2020.2.10,Win32,60,60674ec340277cd6a308bc9f,16.91373802,16.6978355,16.67763158,16.76677668,16.6631016,16.6978355,,,,,,,,,,,,,,,,,,,,PF,strong,3,,,,,,,,7,0.599,,,,,,,,,,,,,,,,,,,,,,,,,,,,7,strong,53.60001224,91.19997051,1,0,0,response1disk,3,139,-3.999988616,11.99999374,1,0,0,rectangle,-3.999988616,11.99999374,1,0,0,6,3,0.001,-3.999988616,11.99999374,1,0,0,0,138,138,73,1,0,,,,,,,,,,,,,,,,,,,,,
,,,,,,,,,,,,,,,,,,,,,,,,,,,,,,,,,,,,,,,,,,5ea5ce7be9fb245c8d7deded,60684717b4eecc8bab9f6c86,2021-04-03_12h56.45.170,Colour_Similarity_Experiment,2020.2.10,Win32,60,60674ec340277cd6a308bc9f,16.91373802,16.6978355,16.67763158,16.76677668,16.6631016,16.6978355,,,,,,,,,,,,,,,,,,,,PF,weak,3,,,,,,,,7,0.566,,,,,,,,,,,,,,,,,,,,,,,,,,,,5,weak,46.40001214,79.99999475,1,0,0,response1disk,1,140,-10.39993988,4.799993634,1,0,0,rectangle,57.6000123,81.59999478,1,0,0,7,7,1.202,3.200011492,-1.600006461,1,0,0,0,139,139,159,1,1,response1disk_3,rectangle,,,,,,,,,,,,,,,,,,,
,,,,,,,,,,,,,,,,,,,,,,,,,,,,,,,,,,,,,,,,,,5ea5ce7be9fb245c8d7deded,60684717b4eecc8bab9f6c86,2021-04-03_12h56.45.170,Colour_Similarity_Experiment,2020.2.10,Win32,60,60674ec340277cd6a308bc9f,16.91373802,16.6978355,16.67763158,16.76677668,16.6631016,16.6978355,,,,,,,,,,,,,,,,,,,,PF,weak,3,,,,,,,,7,0.635,,,,,,,,,,,,,,,,,,,,,,,,,,,,9,weak,45.60006095,75.9999947,1,0,0,response1disk,7,141,21.60006059,-1.600006461,1,0,0,rectangle,21.60006059,-1.600006461,1,0,0,7,7,0,21.60006059,-1.600006461,1,0,0,0,140,140,121,1,0,,,,,,,,,,,,,,,,,,,,,
,,,,,,,,,,,,,,,,,,,,,,,,,,,,,,,,,,,,,,,,,,5ea5ce7be9fb245c8d7deded,60684717b4eecc8bab9f6c86,2021-04-03_12h56.45.170,Colour_Similarity_Experiment,2020.2.10,Win32,60,60674ec340277cd6a308bc9f,16.91373802,16.6978355,16.67763158,16.76677668,16.6631016,16.6978355,,,,,,,,,,,,,,,,,,,,PF,weak,3,,,,,,,,7,0.53,,,,,,,,,,,,,,,,,,,,,,,,,,,,9,weak,29.60006071,77.59999472,1,0,0,response1disk,1,142,4.800011516,7.999993682,1,0,0,rectangle,4.800011516,7.999993682,1,0,0,7,5,0.002,4.800011516,7.999993682,1,0,0,0,141,141,74,1,0,,,,,,,,,,,,,,,,,,,,,
,,,,,,,,,,,,,,,,,,,,,,,,,,,,,,,,,,,,,,,,,,5ea5ce7be9fb245c8d7deded,60684717b4eecc8bab9f6c86,2021-04-03_12h56.45.170,Colour_Similarity_Experiment,2020.2.10,Win32,60,60674ec340277cd6a308bc9f,16.91373802,16.6978355,16.67763158,16.76677668,16.6631016,16.6978355,,,,,,,,,,,,,,,,,,,,PF,weak,3,,,,,,,,7,0.496,,,,,,,,,,,,,,,,,,,,,,,,,,,,6,weak,28.00001186,60.79999447,1,0,0,response1disk,6,143,-12.79998875,-12.80000663,1,0,0,rectangle,-12.79998875,-12.80000663,1,0,0,7,0,0.001,-12.79998875,-12.80000663,1,0,0,0,142,142,0,1,0,,,,,,,,,,,,,,,,,,,,,
,,,,,,,,,,,,,,,,,,,,,,,,,,,,,,,,,,,,,,,,,,5ea5ce7be9fb245c8d7deded,60684717b4eecc8bab9f6c86,2021-04-03_12h56.45.170,Colour_Similarity_Experiment,2020.2.10,Win32,60,60674ec340277cd6a308bc9f,16.91373802,16.6978355,16.67763158,16.76677668,16.6631016,16.6978355,,,,,,,,,,,,,,,,,,,,PF,strong,3,,,,,,,,7,0.633,,,,,,,,,,,,,,,,,,,,,,,,,,,,4,strong,59.20001233,74.39999467,1,0,0,response1disk,8,144,27.20001185,5.599993646,1,0,0,rectangle,27.20001185,5.599993646,1,0,0,7,5,0.001,27.20001185,5.599993646,1,0,0,0,143,143,35,1,0,,,,,,,,,,,,,,,,,,,,,
,,,,,,,,,,,,,,,,,,,,,,,,,,,,,,,,,,,,,,,,,,5ea5ce7be9fb245c8d7deded,60684717b4eecc8bab9f6c86,2021-04-03_12h56.45.170,Colour_Similarity_Experiment,2020.2.10,Win32,60,60674ec340277cd6a308bc9f,16.91373802,16.6978355,16.67763158,16.76677668,16.6631016,16.6978355,,,,,,,,,,,,,,,,,,,,PF,strong,3,,,,,,,,7,0.881,,,,,,,,,,,,,,,,,,,,,,,,,,,,3,strong,33.60006077,80.79999477,1,0,0,response1disk,7,145,24.80001181,7.19999367,1,0,0,rectangle,24.80001181,7.19999367,1,0,0,7,7,0.002,24.80001181,7.19999367,1,0,0,0,144,144,118,1,0,,,,,,,,,,,,,,,,,,,,,
,,,,,,,,,,,,,,,,,,,,,,,,,,,,,,,,,,,,,,,,,,5ea5ce7be9fb245c8d7deded,60684717b4eecc8bab9f6c86,2021-04-03_12h56.45.170,Colour_Similarity_Experiment,2020.2.10,Win32,60,60674ec340277cd6a308bc9f,16.91373802,16.6978355,16.67763158,16.76677668,16.6631016,16.6978355,,,,,,,,,,,,,,,,,,,,PF,weak,3,,,,,,,,0,1.097,,,,,,,,,,,,,,,,,,,,,,,,,,,,3,weak,-24.79998893,87.99999487,1,0,0,response7disk,3,146,1.14441E-05,7.999993682,1,0,0,rectangle,1.14441E-05,7.999993682,1,0,0,7,0,0.001,1.14441E-05,7.999993682,1,0,0,0,145,145,4,1,0,,,,,,,,,,,,,,,,,,,,,
,,,,,,,,,,,,,,,,,,,,,,,,,,,,,,,,,,,,,,,,,,5ea5ce7be9fb245c8d7deded,60684717b4eecc8bab9f6c86,2021-04-03_12h56.45.170,Colour_Similarity_Experiment,2020.2.10,Win32,60,60674ec340277cd6a308bc9f,16.91373802,16.6978355,16.67763158,16.76677668,16.6631016,16.6978355,,,,,,,,,,,,,,,,,,,,PF,strong,3,,,,,,,,0,0.798,,,,,,,,,,,,,,,,,,,,,,,,,,,,5,strong,-27.19998896,67.99999458,1,0,0,response7disk,5,147,-13.59998876,6.399993658,1,0,0,rectangle,-13.59998876,6.399993658,1,0,0,7,2,0.001,-13.59998876,6.399993658,1,0,0,0,146,146,19,1,0,,,,,,,,,,,,,,,,,,,,,
,,,,,,,,,,,,,,,,,,,,,,,,,,,,,,,,,,,,,,,,,,5ea5ce7be9fb245c8d7deded,60684717b4eecc8bab9f6c86,2021-04-03_12h56.45.170,Colour_Similarity_Experiment,2020.2.10,Win32,60,60674ec340277cd6a308bc9f,16.91373802,16.6978355,16.67763158,16.76677668,16.6631016,16.6978355,,,,,,,,,,,,,,,,,,,,PF,strong,3,,,,,,,,7,0.734,,,,,,,,,,,,,,,,,,,,,,,,,,,,8,strong,32.80001193,53.59999436,1,0,0,response1disk,7,148,-6.399939823,-8.000006557,1,0,0,rectangle,-6.399939823,-8.000006557,1,0,0,7,4,0.001,-6.399939823,-8.000006557,1,0,0,0,147,147,86,1,0,,,,,,,,,,,,,,,,,,,,,
,,,,,,,,,,,,,,,,,,,,,,,,,,,,,,,,,,,,,,,,,,5ea5ce7be9fb245c8d7deded,60684717b4eecc8bab9f6c86,2021-04-03_12h56.45.170,Colour_Similarity_Experiment,2020.2.10,Win32,60,60674ec340277cd6a308bc9f,16.91373802,16.6978355,16.67763158,16.76677668,16.6631016,16.6978355,,,,,,,,,,,,,,,,,,,,PF,weak,3,,,,,,,,7,0.612,,,,,,,,,,,,,,,,,,,,,,,,,,,,5,weak,28.80001187,63.99999452,1,0,0,response1disk,2,149,16.00001168,-6.400006533,1,0,0,rectangle,16.00001168,-6.400006533,1,0,0,7,3,0.002,16.00001168,-6.400006533,1,0,0,0,148,148,129,1,0,,,,,,,,,,,,,,,,,,,,,
,,,,,,,,,,,,,,,,,,,,,,,,,,,,,,,,,,,,,,,,,,5ea5ce7be9fb245c8d7deded,60684717b4eecc8bab9f6c86,2021-04-03_12h56.45.170,Colour_Similarity_Experiment,2020.2.10,Win32,60,60674ec340277cd6a308bc9f,16.91373802,16.6978355,16.67763158,16.76677668,16.6631016,16.6978355,,,,,,,,,,,,,,,,,,,,PF,weak,3,,,,,,,,2,1.781,,,,,,,,,,,,,,,,,,,,,,,,,,,,3,weak,-75.99998969,-17.6000067,1,0,0,response5disk,4,150,3.200011492,5.599993646,1,0,0,rectangle,3.200011492,5.599993646,1,0,0,7,3,0,3.200011492,5.599993646,1,0,0,0,149,149,30,1,0,,,,,,,,,,,,,,,,,,,,,
,,,,,,,,,,,,,,,,,,,,,,,,,,,,,,,,,,,,,,,,,,5ea5ce7be9fb245c8d7deded,60684717b4eecc8bab9f6c86,2021-04-03_12h56.45.170,Colour_Similarity_Experiment,2020.2.10,Win32,60,60674ec340277cd6a308bc9f,16.91373802,16.6978355,16.67763158,16.76677668,16.6631016,16.6978355,,,,,,,,,,,,,,,,,,,,PF,weak,3,,,,,,,,7,1.225,,,,,,,,,,,,,,,,,,,,,,,,,,,,8,weak,19.20001173,78.39999473,1,0,0,response1disk,3,151,-1.59998858,-6.400006533,1,0,0,rectangle,-1.59998858,-6.400006533,1,0,0,7,0,0.001,-1.59998858,-6.400006533,1,0,0,0,150,150,71,1,0,,,,,,,,,,,,,,,,,,,,,
,,,,,,,,,,,,,,,,,,,,,,,,,,,,,,,,,,,,,,,,,,5ea5ce7be9fb245c8d7deded,60684717b4eecc8bab9f6c86,2021-04-03_12h56.45.170,Colour_Similarity_Experiment,2020.2.10,Win32,60,60674ec340277cd6a308bc9f,16.91373802,16.6978355,16.67763158,16.76677668,16.6631016,16.6978355,,,,,,,,,,,,,,,,,,,,PF,weak,3,,,,,,,,1,1.38,,,,,,,,,,,,,,,,,,,,,,,,,,,,8,weak,-77.59998971,25.59999394,1,0,0,response7disk,8,152,1.600060296,3.999993622,1,0,0,rectangle,1.600060296,3.999993622,1,0,0,7,5,0.002,1.600060296,3.999993622,1,0,0,0,151,151,153,1,0,,,,,,,,,,,,,,,,,,,,,
,,,,,,,,,,,,,,,,,,,,,,,,,,,,,,,,,,,,,,,,,,5ea5ce7be9fb245c8d7deded,60684717b4eecc8bab9f6c86,2021-04-03_12h56.45.170,Colour_Similarity_Experiment,2020.2.10,Win32,60,60674ec340277cd6a308bc9f,16.91373802,16.6978355,16.67763158,16.76677668,16.6631016,16.6978355,,,,,,,,,,,,,,,,,,,,PF,weak,3,,,,,,,,7,0.981,,,,,,,,,,,,,,,,,,,,,,,,,,,,1,weak,63.20001239,76.79999471,1,0,0,response1disk,8,153,16.80001169,-4.000006497,1,0,0,rectangle,16.80001169,-4.000006497,1,0,0,7,2,0.001,16.80001169,-4.000006497,1,0,0,0,152,152,65,1,0,,,,,,,,,,,,,,,,,,,,,
,,,,,,,,,,,,,,,,,,,,,,,,,,,,,,,,,,,,,,,,,,5ea5ce7be9fb245c8d7deded,60684717b4eecc8bab9f6c86,2021-04-03_12h56.45.170,Colour_Similarity_Experiment,2020.2.10,Win32,60,60674ec340277cd6a308bc9f,16.91373802,16.6978355,16.67763158,16.76677668,16.6631016,16.6978355,,,,,,,,,,,,,,,,,,,,PF,weak,3,,,,,,,,7,0.615,,,,,,,,,,,,,,,,,,,,,,,,,,,,5,weak,28.00001186,55.9999944,1,0,0,response1disk,7,154,15.20001167,-4.000006497,1,0,0,rectangle,15.20001167,-4.000006497,1,0,0,7,2,0,15.20001167,-4.000006497,1,0,0,0,153,153,146,1,0,,,,,,,,,,,,,,,,,,,,,
,,,,,,,,,,,,,,,,,,,,,,,,,,,,,,,,,,,,,,,,,,5ea5ce7be9fb245c8d7deded,60684717b4eecc8bab9f6c86,2021-04-03_12h56.45.170,Colour_Similarity_Experiment,2020.2.10,Win32,60,60674ec340277cd6a308bc9f,16.91373802,16.6978355,16.67763158,16.76677668,16.6631016,16.6978355,,,,,,,,,,,,,,,,,,,,PF,strong,3,,,,,,,,7,0.617,,,,,,,,,,,,,,,,,,,,,,,,,,,,7,strong,22.40001178,52.79999435,1,0,0,response1disk,4,155,-1.59998858,-16.80000669,1,0,0,rectangle,-1.59998858,-16.80000669,1,0,0,7,2,0,-1.59998858,-16.80000669,1,0,0,0,154,154,158,1,0,,,,,,,,,,,,,,,,,,,,,
,,,,,,,,,,,,,,,,,,,,,,,,,,,,,,,,,,,,,,,,,,5ea5ce7be9fb245c8d7deded,60684717b4eecc8bab9f6c86,2021-04-03_12h56.45.170,Colour_Similarity_Experiment,2020.2.10,Win32,60,60674ec340277cd6a308bc9f,16.91373802,16.6978355,16.67763158,16.76677668,16.6631016,16.6978355,,,,,,,,,,,,,,,,,,,,PF,strong,3,,,,,,,,1,1.465,,,,,,,,,,,,,,,,,,,,,,,,,,,,5,strong,-75.19998968,41.59999418,1,0,0,response7disk,4,156,-7.199988663,-0.800006449,1,0,0,rectangle,-7.199988663,-0.800006449,1,0,0,7,7,0.001,-7.199988663,-0.800006449,1,0,0,0,155,155,8,1,0,,,,,,,,,,,,,,,,,,,,,
,,,,,,,,,,,,,,,,,,,,,,,,,,,,,,,,,,,,,,,,,,5ea5ce7be9fb245c8d7deded,60684717b4eecc8bab9f6c86,2021-04-03_12h56.45.170,Colour_Similarity_Experiment,2020.2.10,Win32,60,60674ec340277cd6a308bc9f,16.91373802,16.6978355,16.67763158,16.76677668,16.6631016,16.6978355,,,,,,,,,,,,,,,,,,,,PF,strong,3,,,,,,,,7,0.674,,,,,,,,,,,,,,,,,,,,,,,,,,,,9,strong,32.80001193,44.79999423,1,0,0,response1disk,2,157,10.4000116,-2.400006473,1,0,0,rectangle,42.40001208,61.59999448,1,0,0,7,7,1.802,-16.79998881,-6.4373E-06,1,0,0,0,156,156,11,1,1,response1disk_3,rectangle,,,,,,,,,,,,,,,,,,,
,,,,,,,,,,,,,,,,,,,,,,,,,,,,,,,,,,,,,,,,,,5ea5ce7be9fb245c8d7deded,60684717b4eecc8bab9f6c86,2021-04-03_12h56.45.170,Colour_Similarity_Experiment,2020.2.10,Win32,60,60674ec340277cd6a308bc9f,16.91373802,16.6978355,16.67763158,16.76677668,16.6631016,16.6978355,,,,,,,,,,,,,,,,,,,,PF,weak,3,,,,,,,,7,0.663,,,,,,,,,,,,,,,,,,,,,,,,,,,,7,weak,29.60006071,75.9999947,1,0,0,response1disk,8,158,21.60006059,0.799993575,1,0,0,rectangle,21.60006059,0.799993575,1,0,0,7,5,0.002,21.60006059,0.799993575,1,0,0,0,157,157,140,1,0,,,,,,,,,,,,,,,,,,,,,
,,,,,,,,,,,,,,,,,,,,,,,,,,,,,,,,,,,,,,,,,,5ea5ce7be9fb245c8d7deded,60684717b4eecc8bab9f6c86,2021-04-03_12h56.45.170,Colour_Similarity_Experiment,2020.2.10,Win32,60,60674ec340277cd6a308bc9f,16.91373802,16.6978355,16.67763158,16.76677668,16.6631016,16.6978355,,,,,,,,,,,,,,,,,,,,PF,strong,3,,,,,,,,7,0.632,,,,,,,,,,,,,,,,,,,,,,,,,,,,4,strong,20.00001174,78.39999473,1,0,0,response1disk,6,159,9.600060415,-6.4373E-06,1,0,0,rectangle,9.600060415,-6.4373E-06,1,0,0,7,1,0.001,9.600060415,-6.4373E-06,1,0,0,0,158,158,122,1,0,,,,,,,,,,,,,,,,,,,,,
,,,,,,,,,,,,,,,,,,,,,,,,,,,,,,,,,,,,,,,,,,5ea5ce7be9fb245c8d7deded,60684717b4eecc8bab9f6c86,2021-04-03_12h56.45.170,Colour_Similarity_Experiment,2020.2.10,Win32,60,60674ec340277cd6a308bc9f,16.91373802,16.6978355,16.67763158,16.76677668,16.6631016,16.6978355,,,,,,,,,,,,,,,,,,,,PF,strong,3,,,,,,,,4,3.366,,,,,,,,,,,,,,,,,,,,,,,,,,,,4,strong,22.40001178,-100.0000079,1,0,0,response3disk,5,160,-2.399939764,-8.000006557,1,0,0,rectangle,-2.399939764,-8.000006557,1,0,0,7,2,0.001,-2.399939764,-8.000006557,1,0,0,0,159,159,116,1,0,,,,,,,,,,,,,,,,,,,,,
,,,,,,,,,,,,,,,,,,,,,,,,,,,,,,,,,,,,,,,,,,5ea5ce7be9fb245c8d7deded,60684717b4eecc8bab9f6c86,2021-04-03_12h56.45.170,Colour_Similarity_Experiment,2020.2.10,Win32,60,60674ec340277cd6a308bc9f,16.91373802,16.6978355,16.67763158,16.76677668,16.6631016,16.6978355,,,,,,,,,,,,,,,,,,,,PF,strong,3,,,,,,,,7,1.407,,,,,,,,,,,,,,,,,,,,,,,,,,,,2,strong,20.80001175,62.39999449,1,0,0,response1disk,3,161,13.60006047,12.79999375,1,0,0,rectangle,28.80001187,84.79999483,1,0,0,7,7,1.101,-3.999988616,10.39999372,1,0,0,0,160,160,104,1,1,response1disk_3,rectangle,,,,,,,,,,,,,,,,,,,
,,,,,,,,,,,,,,,,,,,,,,,,,,,,,,,,,,,,,,,,,,5ea5ce7be9fb245c8d7deded,60684717b4eecc8bab9f6c86,2021-04-03_12h56.45.170,Colour_Similarity_Experiment,2020.2.10,Win32,60,60674ec340277cd6a308bc9f,16.91373802,16.6978355,16.67763158,16.76677668,16.6631016,16.6978355,,,,,,,,,,,,,,,,,,,,PF,weak,3,,,,,,,,7,0.696,,,,,,,,,,,,,,,,,,,,,,,,,,,,6,weak,41.60006089,104.7999951,1,0,0,response1disk,3,162,5.600060356,3.999993622,1,0,0,rectangle,5.600060356,3.999993622,1,0,0,7,3,0.002,5.600060356,3.999993622,1,0,0,0,161,161,26,1,0,,,,,,,,,,,,,,,,,,,,,
,,,,,,,,,,,,,,,,,,,,,,,,,,,,,,,,,,,,,,,,,,5ea5ce7be9fb245c8d7deded,60684717b4eecc8bab9f6c86,2021-04-03_12h56.45.170,Colour_Similarity_Experiment,2020.2.10,Win32,60,60674ec340277cd6a308bc9f,16.91373802,16.6978355,16.67763158,16.76677668,16.6631016,16.6978355,,,,,,,,,,,,,,,,,,,,,,,,,,,,,,,,,,,,,,,,,,,,,,,,,,,,,,,,,,,,,,,,,,,,,,,,,,,,,,,,,,,,,,,,,,,,,,,,0,0,0,0,1,,,,,,,,,,,,,,
,,,,,,,,,,,,,,,,,,,,,,,,,,,,,,,,,,,,,,,,,,5ea5ce7be9fb245c8d7deded,60684717b4eecc8bab9f6c86,2021-04-03_12h56.45.170,Colour_Similarity_Experiment,2020.2.10,Win32,60,60674ec340277cd6a308bc9f,16.91373802,16.6978355,16.67763158,16.76677668,16.6631016,16.6978355,,,,,,,,,,,,,,,,,,,,PF,weak,3,,,,,,,,7,0.53,,,,,,,,,,,,,,,,,,,,,,,,,,,,2,weak,29.60006071,57.59999442,1,0,0,response1disk,6,163,11.20001161,-4.000006497,1,0,0,rectangle,11.20001161,-4.000006497,1,0,0,7,5,0.001,11.20001161,-4.000006497,1,0,0,0,0,0,113,1,0,,,,,,,,,,,,,,,,,,,,,
,,,,,,,,,,,,,,,,,,,,,,,,,,,,,,,,,,,,,,,,,,5ea5ce7be9fb245c8d7deded,60684717b4eecc8bab9f6c86,2021-04-03_12h56.45.170,Colour_Similarity_Experiment,2020.2.10,Win32,60,60674ec340277cd6a308bc9f,16.91373802,16.6978355,16.67763158,16.76677668,16.6631016,16.6978355,,,,,,,,,,,,,,,,,,,,PF,strong,3,,,,,,,,7,0.631,,,,,,,,,,,,,,,,,,,,,,,,,,,,9,strong,20.00001174,61.59999448,1,0,0,response1disk,4,164,9.600060415,3.999993622,1,0,0,rectangle,9.600060415,3.999993622,1,0,0,7,2,0.001,9.600060415,3.999993622,1,0,0,0,1,1,60,1,0,,,,,,,,,,,,,,,,,,,,,
,,,,,,,,,,,,,,,,,,,,,,,,,,,,,,,,,,,,,,,,,,5ea5ce7be9fb245c8d7deded,60684717b4eecc8bab9f6c86,2021-04-03_12h56.45.170,Colour_Similarity_Experiment,2020.2.10,Win32,60,60674ec340277cd6a308bc9f,16.91373802,16.6978355,16.67763158,16.76677668,16.6631016,16.6978355,,,,,,,,,,,,,,,,,,,,PF,strong,3,,,,,,,,7,0.557,,,,,,,,,,,,,,,,,,,,,,,,,,,,5,strong,41.60006089,75.19997027,1,0,0,response1disk,7,165,6.400011539,-12.00000662,1,0,0,rectangle,6.400011539,-12.00000662,1,0,0,7,3,0.002,6.400011539,-12.00000662,1,0,0,0,2,2,7,1,0,,,,,,,,,,,,,,,,,,,,,
,,,,,,,,,,,,,,,,,,,,,,,,,,,,,,,,,,,,,,,,,,5ea5ce7be9fb245c8d7deded,60684717b4eecc8bab9f6c86,2021-04-03_12h56.45.170,Colour_Similarity_Experiment,2020.2.10,Win32,60,60674ec340277cd6a308bc9f,16.91373802,16.6978355,16.67763158,16.76677668,16.6631016,16.6978355,,,,,,,,,,,,,,,,,,,,PF,strong,3,,,,,,,,7,0.599,,,,,,,,,,,,,,,,,,,,,,,,,,,,6,strong,27.20001185,75.19997027,1,0,0,response1disk,4,166,-15.19998878,-1.600006461,1,0,0,rectangle,-15.19998878,-1.600006461,1,0,0,7,2,0.001,-15.19998878,-1.600006461,1,0,0,0,3,3,56,1,0,,,,,,,,,,,,,,,,,,,,,
,,,,,,,,,,,,,,,,,,,,,,,,,,,,,,,,,,,,,,,,,,5ea5ce7be9fb245c8d7deded,60684717b4eecc8bab9f6c86,2021-04-03_12h56.45.170,Colour_Similarity_Experiment,2020.2.10,Win32,60,60674ec340277cd6a308bc9f,16.91373802,16.6978355,16.67763158,16.76677668,16.6631016,16.6978355,,,,,,,,,,,,,,,,,,,,PF,strong,3,,,,,,,,7,0.562,,,,,,,,,,,,,,,,,,,,,,,,,,,,1,strong,36.80001199,59.19997003,1,0,0,response1disk,2,167,36.80001199,2.399993598,1,0,0,rectangle,36.80001199,2.399993598,1,0,0,7,6,0.001,36.80001199,2.399993598,1,0,0,0,4,4,2,1,0,,,,,,,,,,,,,,,,,,,,,
,,,,,,,,,,,,,,,,,,,,,,,,,,,,,,,,,,,,,,,,,,5ea5ce7be9fb245c8d7deded,60684717b4eecc8bab9f6c86,2021-04-03_12h56.45.170,Colour_Similarity_Experiment,2020.2.10,Win32,60,60674ec340277cd6a308bc9f,16.91373802,16.6978355,16.67763158,16.76677668,16.6631016,16.6978355,,,,,,,,,,,,,,,,,,,,PF,strong,3,,,,,,,,0,0.947,,,,,,,,,,,,,,,,,,,,,,,,,,,,3,strong,-42.39994036,79.99999475,1,0,0,response7disk,3,168,-2.399939764,-7.200006545,1,0,0,rectangle,-2.399939764,-7.200006545,1,0,0,7,3,0.002,-2.399939764,-7.200006545,1,0,0,0,5,5,68,1,0,,,,,,,,,,,,,,,,,,,,,
,,,,,,,,,,,,,,,,,,,,,,,,,,,,,,,,,,,,,,,,,,5ea5ce7be9fb245c8d7deded,60684717b4eecc8bab9f6c86,2021-04-03_12h56.45.170,Colour_Similarity_Experiment,2020.2.10,Win32,60,60674ec340277cd6a308bc9f,16.91373802,16.6978355,16.67763158,16.76677668,16.6631016,16.6978355,,,,,,,,,,,,,,,,,,,,PF,weak,3,,,,,,,,7,0.484,,,,,,,,,,,,,,,,,,,,,,,,,,,,7,weak,27.20001185,55.9999944,1,0,0,response1disk,5,169,7.200011551,1.599993587,1,0,0,rectangle,7.200011551,1.599993587,1,0,0,7,7,0.001,7.200011551,1.599993587,1,0,0,0,6,6,92,1,0,,,,,,,,,,,,,,,,,,,,,
