key_resp.keys,key_resp.rt,key_resp_16.keys,key_resp_16.rt,key_resp_2.keys,key_resp_2.rt,X Scale,ratio_pxpermm,screen_size_x,screen_size_y,testsize,key_resp_3.keys,key_resp_4.keys,key_resp_4.rt,line_size,key_resp_5.keys,key_resp_5.rt,key_resp_6.keys,key_resp_6.rt,key_resp_8.keys,key_resp_8.rt,key_resp_7.keys,key_resp_7.rt,key_resp_12.keys,key_resp_12.rt,key_resp_11.keys,key_resp_11.rt,key_resp_18.keys,key_resp_18.rt,key_resp_21.keys,key_resp_21.rt,key_resp_13.keys,key_resp_13.rt,key_resp_19.keys,key_resp_19.rt,ballposx,viewer_distance,trials.thisRepN,trials.thisTrialN,trials.thisN,trials.thisIndex,trials.ran,participant,session,date,expName,psychopyVersion,OS,frameRate,study_id,realFrameRate1,realFrameRate2,realFrameRate3,realFrameRate4,realFrameRate5,realFrameRate,viewerdistancecm,DVA_to_distance,radius_F,radius_P,r_F,R_P,key_resp_20.keys,key_resp_20.rt,key_resp_14.keys,key_resp_14.rt,key_resp_15.keys,key_resp_15.rt,key_resp_17.keys,key_resp_17.rt,key_resp_9.keys,key_resp_9.rt,key_resp_10.keys,key_resp_10.rt,Colour_1,Ecc,maskCon,mask_frames,mouse_5.x,mouse_5.y,mouse_5.leftButton,mouse_5.midButton,mouse_5.rightButton,mouse_5.clicked_name,Colour_2,similarity,response_time,mouse_10.x,mouse_10.y,mouse_10.leftButton,mouse_10.midButton,mouse_10.rightButton,mouse_10.clicked_name,mouse_7.x,mouse_7.y,mouse_7.leftButton,mouse_7.midButton,mouse_7.rightButton,catchnumberprac,mouse_6.x,mouse_6.y,mouse_6.leftButton,mouse_6.midButton,mouse_6.rightButton,duringprac.thisRepN,duringprac.thisTrialN,duringprac.thisN,duringprac.thisIndex,duringprac.ran,mouse_7.clicked_name,catchprac,mouse_6.clicked_name,key_resp_22.keys,key_resp_22.rt,Colour1,maskCon1,mouse.x,mouse.y,mouse.leftButton,mouse.midButton,mouse.rightButton,mouse.clicked_name,Colour2,trialnumber,mouse_2.x,mouse_2.y,mouse_2.leftButton,mouse_2.midButton,mouse_2.rightButton,mouse_2.clicked_name,mouse_3.x,mouse_3.y,mouse_3.leftButton,mouse_3.midButton,mouse_3.rightButton,catchresponse,catchnumber,response_time_catch,mouse_11.x,mouse_11.y,mouse_11.leftButton,mouse_11.midButton,mouse_11.rightButton,trials_2.thisRepN,trials_2.thisTrialN,trials_2.thisN,trials_2.thisIndex,trials_2.ran,Catch,mouse_3.clicked_name,mouse_11.clicked_name,trials_3.thisRepN,trials_3.thisTrialN,trials_3.thisN,trials_3.thisIndex,trials_3.ran,answer1,rt1,answer2,rt2,answer3,rt3,answer4,rt4,answer5,rt5,answer6,rt6,answer7,rt7
space,4.814,space,21.721,space,8.553,39.8,3.98,343.2160804,192.9648241,1366,,space,25.165,79.6,space,19.983,space,4.682,space,2.449,space,5.966,space,11.94,space,11.74,space,11.267,space,22.4,space,25.382,return,18.217,-90.156,666.1928504,0,0,0,0,1,5ebaa88e5271270008af01d5,606841ea113423a35d181197,2021-04-03_12h23.04.543,Colour_Similarity_Experiment,2020.2.10,Win32,60,60674ec340277cd6a308bc9f,17.23173804,16.68634969,16.68769716,16.71864632,16.67651515,16.68769716,,,,,,,,,,,,,,,,,,,,,,,,,,,,,,,,,,,,,,,,,,,,,,,,,,,,,,,,,,,,,,,,,,,,,,,,,,,,,,,,,,,,,,,,,,,,,,,,,,,,,,,,,,,,,,,,,,
,,,,,,,,,,,,,,,,,,,,,,,,,,,,,,,,,return,4.726,-69.666,644.7488745,1,0,1,0,1,5ebaa88e5271270008af01d5,606841ea113423a35d181197,2021-04-03_12h23.04.543,Colour_Similarity_Experiment,2020.2.10,Win32,60,60674ec340277cd6a308bc9f,17.23173804,16.68634969,16.68769716,16.71864632,16.67651515,16.68769716,,,,,,,,,,,,,,,,,,,,,,,,,,,,,,,,,,,,,,,,,,,,,,,,,,,,,,,,,,,,,,,,,,,,,,,,,,,,,,,,,,,,,,,,,,,,,,,,,,,,,,,,,,,,,,,,,,
,,,,,,,,,,,,,,,,,,,,,,,,,,,,,,,,,return,4.651,-61.47,636.1712842,2,0,2,0,1,5ebaa88e5271270008af01d5,606841ea113423a35d181197,2021-04-03_12h23.04.543,Colour_Similarity_Experiment,2020.2.10,Win32,60,60674ec340277cd6a308bc9f,17.23173804,16.68634969,16.68769716,16.71864632,16.67651515,16.68769716,,,,,,,,,,,,,,,,,,,,,,,,,,,,,,,,,,,,,,,,,,,,,,,,,,,,,,,,,,,,,,,,,,,,,,,,,,,,,,,,,,,,,,,,,,,,,,,,,,,,,,,,,,,,,,,,,,
,,,,,,,,,,,,,,,,,,,,,,,,,,,,,,,,,return,4.503,-43.029,616.8717059,3,0,3,0,1,5ebaa88e5271270008af01d5,606841ea113423a35d181197,2021-04-03_12h23.04.543,Colour_Similarity_Experiment,2020.2.10,Win32,60,60674ec340277cd6a308bc9f,17.23173804,16.68634969,16.68769716,16.71864632,16.67651515,16.68769716,,,,,,,,,,,,,,,,,,,,,,,,,,,,,,,,,,,,,,,,,,,,,,,,,,,,,,,,,,,,,,,,,,,,,,,,,,,,,,,,,,,,,,,,,,,,,,,,,,,,,,,,,,,,,,,,,,
,,,,,,,,,,,,,,,,,,,,,,,,,,,,,,,,,return,3.736,51.225,518.2294169,4,0,4,0,1,5ebaa88e5271270008af01d5,606841ea113423a35d181197,2021-04-03_12h23.04.543,Colour_Similarity_Experiment,2020.2.10,Win32,60,60674ec340277cd6a308bc9f,17.23173804,16.68634969,16.68769716,16.71864632,16.67651515,16.68769716,,,,,,,,,,,,,,,,,,,,,,,,,,,,,,,,,,,,,,,,,,,,,,,,,,,,,,,,,,,,,,,,,,,,,,,,,,,,,,,,,,,,,,,,,,,,,,,,,,,,,,,,,,,,,,,,,,
,,,,,,,,,,,,,,,,,,,,,,,,,,,,,,,,,,,,,,,,,,5ebaa88e5271270008af01d5,606841ea113423a35d181197,2021-04-03_12h23.04.543,Colour_Similarity_Experiment,2020.2.10,Win32,60,60674ec340277cd6a308bc9f,17.23173804,16.68634969,16.68769716,16.71864632,16.67651515,16.68769716,64,11.17123756,66.69228823,444.6152548,44.46152548,200.0768647,space,4.685,space,21.81,space,58.466,space,11.567,space,11.017,space,7.532,5,PF,weak,3,95,47,1,0,0,response1disk_5,4,6,8.699,2,-3,1,0,0,rectangle_8,2,-3,1,0,0,3,2,-3,1,0,0,0,0,0,5,1,,,,,,,,,,,,,,,,,,,,,,,,,,,,,,,,,,,,,,,,,,,,,,,,,,,,,,,,,,,,,
,,,,,,,,,,,,,,,,,,,,,,,,,,,,,,,,,,,,,,,,,,5ebaa88e5271270008af01d5,606841ea113423a35d181197,2021-04-03_12h23.04.543,Colour_Similarity_Experiment,2020.2.10,Win32,60,60674ec340277cd6a308bc9f,17.23173804,16.68634969,16.68769716,16.71864632,16.67651515,16.68769716,,,,,,,,,,,,,,,,,,,8,PF,strong,3,-88,31,1,0,0,response7disk_5,9,1,3.383,10,-3,1,0,0,rectangle_8,10,-3,1,0,0,3,10,-3,1,0,0,0,1,1,2,1,,,,,,,,,,,,,,,,,,,,,,,,,,,,,,,,,,,,,,,,,,,,,,,,,,,,,,,,,,,,,
,,,,,,,,,,,,,,,,,,,,,,,,,,,,,,,,,,,,,,,,,,5ebaa88e5271270008af01d5,606841ea113423a35d181197,2021-04-03_12h23.04.543,Colour_Similarity_Experiment,2020.2.10,Win32,60,60674ec340277cd6a308bc9f,17.23173804,16.68634969,16.68769716,16.71864632,16.67651515,16.68769716,,,,,,,,,,,,,,,,,,,4,PF,weak,3,-32,-77,1,0,0,response5disk_5,3,3,7.099,5,-3,1,0,0,rectangle_8,5,-3,1,0,0,3,5,-3,1,0,0,0,2,2,6,1,,,,,,,,,,,,,,,,,,,,,,,,,,,,,,,,,,,,,,,,,,,,,,,,,,,,,,,,,,,,,
,,,,,,,,,,,,,,,,,,,,,,,,,,,,,,,,,,,,,,,,,,5ebaa88e5271270008af01d5,606841ea113423a35d181197,2021-04-03_12h23.04.543,Colour_Similarity_Experiment,2020.2.10,Win32,60,60674ec340277cd6a308bc9f,17.23173804,16.68634969,16.68769716,16.71864632,16.67651515,16.68769716,,,,,,,,,,,,,,,,,,,1,PF,strong,3,83,96,1,0,0,response1disk_5,7,7,3.751,11,9,1,0,0,rectangle_8,-31,-91,1,0,0,3,9,-5,1,0,0,0,3,3,0,1,response5disk_7,3,rectangle_4,,,,,,,,,,,,,,,,,,,,,,,,,,,,,,,,,,,,,,,,,,,,,,,,,,,,,,,,,,
,,,,,,,,,,,,,,,,,,,,,,,,,,,,,,,,,,,,,,,,,,5ebaa88e5271270008af01d5,606841ea113423a35d181197,2021-04-03_12h23.04.543,Colour_Similarity_Experiment,2020.2.10,Win32,60,60674ec340277cd6a308bc9f,17.23173804,16.68634969,16.68769716,16.71864632,16.67651515,16.68769716,,,,,,,,,,,,,,,,,,,1,PF,weak,3,59,73,1,0,0,response1disk_5,7,7,1.482,3,-5,1,0,0,rectangle_8,3,-5,1,0,0,3,3,-5,1,0,0,0,4,4,1,1,,,,,,,,,,,,,,,,,,,,,,,,,,,,,,,,,,,,,,,,,,,,,,,,,,,,,,,,,,,,,
,,,,,,,,,,,,,,,,,,,,,,,,,,,,,,,,,,,,,,,,,,5ebaa88e5271270008af01d5,606841ea113423a35d181197,2021-04-03_12h23.04.543,Colour_Similarity_Experiment,2020.2.10,Win32,60,60674ec340277cd6a308bc9f,17.23173804,16.68634969,16.68769716,16.71864632,16.67651515,16.68769716,,,,,,,,,,,,,,,,,,,8,PF,weak,3,-83,-40,1,0,0,response5disk_5,9,2,2.734,-11,-6,1,0,0,rectangle_8,-26,-83,1,0,0,3,14,2,1,0,0,0,5,5,4,1,response5disk_7,3,rectangle_4,,,,,,,,,,,,,,,,,,,,,,,,,,,,,,,,,,,,,,,,,,,,,,,,,,,,,,,,,,
,,,,,,,,,,,,,,,,,,,,,,,,,,,,,,,,,,,,,,,,,,5ebaa88e5271270008af01d5,606841ea113423a35d181197,2021-04-03_12h23.04.543,Colour_Similarity_Experiment,2020.2.10,Win32,60,60674ec340277cd6a308bc9f,17.23173804,16.68634969,16.68769716,16.71864632,16.67651515,16.68769716,,,,,,,,,,,,,,,,,,,2,PF,strong,3,101,-48,1,0,0,response3disk_5,8,5,5.482,-1,-7,1,0,0,rectangle_8,-1,-7,1,0,0,3,-1,-7,1,0,0,0,6,6,3,1,,,,,,,,,,,,,,,,,,,,,,,,,,,,,,,,,,,,,,,,,,,,,,,,,,,,,,,,,,,,,
,,,,,,,,,,,,,,,,,,,,,,,,,,,,,,,,,,,,,,,,,,5ebaa88e5271270008af01d5,606841ea113423a35d181197,2021-04-03_12h23.04.543,Colour_Similarity_Experiment,2020.2.10,Win32,60,60674ec340277cd6a308bc9f,17.23173804,16.68634969,16.68769716,16.71864632,16.67651515,16.68769716,,,,,,,,,,,,,,,,,,,,PF,weak,3,,,,,,,,6,3.915,,,,,,,,,,,,,,,,,,,,,,,,,,space,7.241,9,weak,102,22,1,0,0,response1disk,7,1,5,-4,1,0,0,rectangle,5,-4,1,0,0,,0,0.005,5,-4,1,0,0,0,0,0,121,1,0,,,,,,,,,,,,,,,,,,,,,
,,,,,,,,,,,,,,,,,,,,,,,,,,,,,,,,,,,,,,,,,,5ebaa88e5271270008af01d5,606841ea113423a35d181197,2021-04-03_12h23.04.543,Colour_Similarity_Experiment,2020.2.10,Win32,60,60674ec340277cd6a308bc9f,17.23173804,16.68634969,16.68769716,16.71864632,16.67651515,16.68769716,,,,,,,,,,,,,,,,,,,,PF,strong,3,,,,,,,,6,2.267,,,,,,,,,,,,,,,,,,,,,,,,,,,,8,strong,78,24,1,0,0,response1disk,5,2,-7,1,1,0,0,rectangle,-7,1,1,0,0,,4,0.004,-7,1,1,0,0,0,1,1,152,1,0,,,,,,,,,,,,,,,,,,,,,
,,,,,,,,,,,,,,,,,,,,,,,,,,,,,,,,,,,,,,,,,,5ebaa88e5271270008af01d5,606841ea113423a35d181197,2021-04-03_12h23.04.543,Colour_Similarity_Experiment,2020.2.10,Win32,60,60674ec340277cd6a308bc9f,17.23173804,16.68634969,16.68769716,16.71864632,16.67651515,16.68769716,,,,,,,,,,,,,,,,,,,,PF,strong,3,,,,,,,,6,2.167,,,,,,,,,,,,,,,,,,,,,,,,,,,,9,strong,98,15,1,0,0,response1disk,7,3,-4,-4,1,0,0,rectangle,-4,-4,1,0,0,,5,0.004,-4,-4,1,0,0,0,2,2,100,1,0,,,,,,,,,,,,,,,,,,,,,
,,,,,,,,,,,,,,,,,,,,,,,,,,,,,,,,,,,,,,,,,,5ebaa88e5271270008af01d5,606841ea113423a35d181197,2021-04-03_12h23.04.543,Colour_Similarity_Experiment,2020.2.10,Win32,60,60674ec340277cd6a308bc9f,17.23173804,16.68634969,16.68769716,16.71864632,16.67651515,16.68769716,,,,,,,,,,,,,,,,,,,,PF,weak,3,,,,,,,,4,3.682,,,,,,,,,,,,,,,,,,,,,,,,,,,,5,weak,64,-72,1,0,0,response3disk,5,4,-2,0,1,0,0,rectangle,-2,0,1,0,0,,1,0.003,-2,0,1,0,0,0,3,3,94,1,0,,,,,,,,,,,,,,,,,,,,,
,,,,,,,,,,,,,,,,,,,,,,,,,,,,,,,,,,,,,,,,,,5ebaa88e5271270008af01d5,606841ea113423a35d181197,2021-04-03_12h23.04.543,Colour_Similarity_Experiment,2020.2.10,Win32,60,60674ec340277cd6a308bc9f,17.23173804,16.68634969,16.68769716,16.71864632,16.67651515,16.68769716,,,,,,,,,,,,,,,,,,,,PF,strong,3,,,,,,,,3,3.45,,,,,,,,,,,,,,,,,,,,,,,,,,,,6,strong,-31,-96,1,0,0,response5disk,5,5,-6,4,1,0,0,rectangle,-6,4,1,0,0,,7,0.003,-6,4,1,0,0,0,4,4,126,1,0,,,,,,,,,,,,,,,,,,,,,
,,,,,,,,,,,,,,,,,,,,,,,,,,,,,,,,,,,,,,,,,,5ebaa88e5271270008af01d5,606841ea113423a35d181197,2021-04-03_12h23.04.543,Colour_Similarity_Experiment,2020.2.10,Win32,60,60674ec340277cd6a308bc9f,17.23173804,16.68634969,16.68769716,16.71864632,16.67651515,16.68769716,,,,,,,,,,,,,,,,,,,,PF,weak,3,,,,,,,,4,4.4,,,,,,,,,,,,,,,,,,,,,,,,,,,,8,weak,41,-69,1,0,0,response3disk,2,6,1,1,1,0,0,rectangle,1,1,1,0,0,,6,0.003,1,1,1,0,0,0,5,5,83,1,0,,,,,,,,,,,,,,,,,,,,,
,,,,,,,,,,,,,,,,,,,,,,,,,,,,,,,,,,,,,,,,,,5ebaa88e5271270008af01d5,606841ea113423a35d181197,2021-04-03_12h23.04.543,Colour_Similarity_Experiment,2020.2.10,Win32,60,60674ec340277cd6a308bc9f,17.23173804,16.68634969,16.68769716,16.71864632,16.67651515,16.68769716,,,,,,,,,,,,,,,,,,,,PF,strong,3,,,,,,,,6,1.717,,,,,,,,,,,,,,,,,,,,,,,,,,,,1,strong,60,24,1,0,0,response1disk,3,7,-7,-3,1,0,0,rectangle,-7,-3,1,0,0,,1,0.003,-7,-3,1,0,0,0,6,6,99,1,0,,,,,,,,,,,,,,,,,,,,,
,,,,,,,,,,,,,,,,,,,,,,,,,,,,,,,,,,,,,,,,,,5ebaa88e5271270008af01d5,606841ea113423a35d181197,2021-04-03_12h23.04.543,Colour_Similarity_Experiment,2020.2.10,Win32,60,60674ec340277cd6a308bc9f,17.23173804,16.68634969,16.68769716,16.71864632,16.67651515,16.68769716,,,,,,,,,,,,,,,,,,,,PF,weak,3,,,,,,,,5,4.149,,,,,,,,,,,,,,,,,,,,,,,,,,,,4,weak,53,-30,1,0,0,response3disk,8,8,13,4,1,0,0,rectangle,13,4,1,0,0,,5,0.004,13,4,1,0,0,0,7,7,124,1,0,,,,,,,,,,,,,,,,,,,,,
,,,,,,,,,,,,,,,,,,,,,,,,,,,,,,,,,,,,,,,,,,5ebaa88e5271270008af01d5,606841ea113423a35d181197,2021-04-03_12h23.04.543,Colour_Similarity_Experiment,2020.2.10,Win32,60,60674ec340277cd6a308bc9f,17.23173804,16.68634969,16.68769716,16.71864632,16.67651515,16.68769716,,,,,,,,,,,,,,,,,,,,PF,strong,3,,,,,,,,5,2.366,,,,,,,,,,,,,,,,,,,,,,,,,,,,5,strong,73,-39,1,0,0,response3disk,7,9,8,0,1,0,0,rectangle,8,0,1,0,0,,6,0.004,8,0,1,0,0,0,8,8,7,1,0,,,,,,,,,,,,,,,,,,,,,
,,,,,,,,,,,,,,,,,,,,,,,,,,,,,,,,,,,,,,,,,,5ebaa88e5271270008af01d5,606841ea113423a35d181197,2021-04-03_12h23.04.543,Colour_Similarity_Experiment,2020.2.10,Win32,60,60674ec340277cd6a308bc9f,17.23173804,16.68634969,16.68769716,16.71864632,16.67651515,16.68769716,,,,,,,,,,,,,,,,,,,,PF,strong,3,,,,,,,,6,1.767,,,,,,,,,,,,,,,,,,,,,,,,,,,,2,strong,99,20,1,0,0,response1disk,5,10,-2,2,1,0,0,rectangle,-2,2,1,0,0,,4,0.003,-2,2,1,0,0,0,9,9,80,1,0,,,,,,,,,,,,,,,,,,,,,
,,,,,,,,,,,,,,,,,,,,,,,,,,,,,,,,,,,,,,,,,,5ebaa88e5271270008af01d5,606841ea113423a35d181197,2021-04-03_12h23.04.543,Colour_Similarity_Experiment,2020.2.10,Win32,60,60674ec340277cd6a308bc9f,17.23173804,16.68634969,16.68769716,16.71864632,16.67651515,16.68769716,,,,,,,,,,,,,,,,,,,,PF,strong,3,,,,,,,,1,2.933,,,,,,,,,,,,,,,,,,,,,,,,,,,,4,strong,-88,28,1,0,0,response7disk,4,11,1,-2,1,0,0,rectangle,1,-2,1,0,0,,3,0.004,1,-2,1,0,0,0,10,10,84,1,0,,,,,,,,,,,,,,,,,,,,,
,,,,,,,,,,,,,,,,,,,,,,,,,,,,,,,,,,,,,,,,,,5ebaa88e5271270008af01d5,606841ea113423a35d181197,2021-04-03_12h23.04.543,Colour_Similarity_Experiment,2020.2.10,Win32,60,60674ec340277cd6a308bc9f,17.23173804,16.68634969,16.68769716,16.71864632,16.67651515,16.68769716,,,,,,,,,,,,,,,,,,,,PF,weak,3,,,,,,,,4,2.467,,,,,,,,,,,,,,,,,,,,,,,,,,,,5,weak,25,-50,1,0,0,response3disk,2,12,-3,-5,1,0,0,rectangle,-3,-5,1,0,0,,1,0.003,-3,-5,1,0,0,0,11,11,129,1,0,,,,,,,,,,,,,,,,,,,,,
,,,,,,,,,,,,,,,,,,,,,,,,,,,,,,,,,,,,,,,,,,5ebaa88e5271270008af01d5,606841ea113423a35d181197,2021-04-03_12h23.04.543,Colour_Similarity_Experiment,2020.2.10,Win32,60,60674ec340277cd6a308bc9f,17.23173804,16.68634969,16.68769716,16.71864632,16.67651515,16.68769716,,,,,,,,,,,,,,,,,,,,PF,weak,3,,,,,,,,5,2.616,,,,,,,,,,,,,,,,,,,,,,,,,,,,1,weak,66,-25,1,0,0,response3disk,7,13,0,8,1,0,0,rectangle,0,8,1,0,0,,7,0.004,0,8,1,0,0,0,12,12,150,1,0,,,,,,,,,,,,,,,,,,,,,
,,,,,,,,,,,,,,,,,,,,,,,,,,,,,,,,,,,,,,,,,,5ebaa88e5271270008af01d5,606841ea113423a35d181197,2021-04-03_12h23.04.543,Colour_Similarity_Experiment,2020.2.10,Win32,60,60674ec340277cd6a308bc9f,17.23173804,16.68634969,16.68769716,16.71864632,16.67651515,16.68769716,,,,,,,,,,,,,,,,,,,,PF,weak,3,,,,,,,,6,1.632,,,,,,,,,,,,,,,,,,,,,,,,,,,,2,weak,74,50,1,0,0,response1disk,7,14,3,0,1,0,0,rectangle,3,0,1,0,0,,3,0.004,3,0,1,0,0,0,13,13,107,1,0,,,,,,,,,,,,,,,,,,,,,
,,,,,,,,,,,,,,,,,,,,,,,,,,,,,,,,,,,,,,,,,,5ebaa88e5271270008af01d5,606841ea113423a35d181197,2021-04-03_12h23.04.543,Colour_Similarity_Experiment,2020.2.10,Win32,60,60674ec340277cd6a308bc9f,17.23173804,16.68634969,16.68769716,16.71864632,16.67651515,16.68769716,,,,,,,,,,,,,,,,,,,,PF,weak,3,,,,,,,,0,1.533,,,,,,,,,,,,,,,,,,,,,,,,,,,,7,weak,-33,70,1,0,0,response7disk,7,15,-5,1,1,0,0,rectangle,-5,1,1,0,0,,4,0.004,-5,1,1,0,0,0,14,14,51,1,0,,,,,,,,,,,,,,,,,,,,,
,,,,,,,,,,,,,,,,,,,,,,,,,,,,,,,,,,,,,,,,,,5ebaa88e5271270008af01d5,606841ea113423a35d181197,2021-04-03_12h23.04.543,Colour_Similarity_Experiment,2020.2.10,Win32,60,60674ec340277cd6a308bc9f,17.23173804,16.68634969,16.68769716,16.71864632,16.67651515,16.68769716,,,,,,,,,,,,,,,,,,,,PF,strong,3,,,,,,,,7,3.035,,,,,,,,,,,,,,,,,,,,,,,,,,,,7,strong,55,58,1,0,0,response1disk,2,16,6,-3,1,0,0,rectangle,6,-3,1,0,0,,7,0.003,6,-3,1,0,0,0,15,15,138,1,0,,,,,,,,,,,,,,,,,,,,,
,,,,,,,,,,,,,,,,,,,,,,,,,,,,,,,,,,,,,,,,,,5ebaa88e5271270008af01d5,606841ea113423a35d181197,2021-04-03_12h23.04.543,Colour_Similarity_Experiment,2020.2.10,Win32,60,60674ec340277cd6a308bc9f,17.23173804,16.68634969,16.68769716,16.71864632,16.67651515,16.68769716,,,,,,,,,,,,,,,,,,,,PF,weak,3,,,,,,,,0,1.333,,,,,,,,,,,,,,,,,,,,,,,,,,,,3,weak,-44,69,1,0,0,response7disk,3,17,1,4,1,0,0,rectangle,1,4,1,0,0,,3,0.003,1,4,1,0,0,0,16,16,4,1,0,,,,,,,,,,,,,,,,,,,,,
,,,,,,,,,,,,,,,,,,,,,,,,,,,,,,,,,,,,,,,,,,5ebaa88e5271270008af01d5,606841ea113423a35d181197,2021-04-03_12h23.04.543,Colour_Similarity_Experiment,2020.2.10,Win32,60,60674ec340277cd6a308bc9f,17.23173804,16.68634969,16.68769716,16.71864632,16.67651515,16.68769716,,,,,,,,,,,,,,,,,,,,PF,weak,3,,,,,,,,4,2.633,,,,,,,,,,,,,,,,,,,,,,,,,,,,7,weak,31,-83,1,0,0,response3disk,1,18,-7,6,1,0,0,rectangle,-7,6,1,0,0,,3,0,-7,6,1,0,0,0,17,17,53,1,0,,,,,,,,,,,,,,,,,,,,,
,,,,,,,,,,,,,,,,,,,,,,,,,,,,,,,,,,,,,,,,,,5ebaa88e5271270008af01d5,606841ea113423a35d181197,2021-04-03_12h23.04.543,Colour_Similarity_Experiment,2020.2.10,Win32,60,60674ec340277cd6a308bc9f,17.23173804,16.68634969,16.68769716,16.71864632,16.67651515,16.68769716,,,,,,,,,,,,,,,,,,,,PF,strong,3,,,,,,,,3,2.859,,,,,,,,,,,,,,,,,,,,,,,,,,,,9,strong,-47,-67,1,0,0,response5disk,8,19,3,2,1,0,0,rectangle,3,2,1,0,0,,1,0.003,3,2,1,0,0,0,18,18,6,1,0,,,,,,,,,,,,,,,,,,,,,
,,,,,,,,,,,,,,,,,,,,,,,,,,,,,,,,,,,,,,,,,,5ebaa88e5271270008af01d5,606841ea113423a35d181197,2021-04-03_12h23.04.543,Colour_Similarity_Experiment,2020.2.10,Win32,60,60674ec340277cd6a308bc9f,17.23173804,16.68634969,16.68769716,16.71864632,16.67651515,16.68769716,,,,,,,,,,,,,,,,,,,,PF,strong,3,,,,,,,,2,1.817,,,,,,,,,,,,,,,,,,,,,,,,,,,,8,strong,-52,-48,1,0,0,response5disk,9,20,4,0,1,0,0,rectangle,4,0,1,0,0,,5,0.004,4,0,1,0,0,0,19,19,105,1,0,,,,,,,,,,,,,,,,,,,,,
,,,,,,,,,,,,,,,,,,,,,,,,,,,,,,,,,,,,,,,,,,5ebaa88e5271270008af01d5,606841ea113423a35d181197,2021-04-03_12h23.04.543,Colour_Similarity_Experiment,2020.2.10,Win32,60,60674ec340277cd6a308bc9f,17.23173804,16.68634969,16.68769716,16.71864632,16.67651515,16.68769716,,,,,,,,,,,,,,,,,,,,PF,weak,3,,,,,,,,6,2.183,,,,,,,,,,,,,,,,,,,,,,,,,,,,2,weak,95,16,1,0,0,response1disk,8,21,-13,-7,1,0,0,rectangle,-13,-7,1,0,0,,1,0.003,-13,-7,1,0,0,0,20,20,52,1,0,,,,,,,,,,,,,,,,,,,,,
,,,,,,,,,,,,,,,,,,,,,,,,,,,,,,,,,,,,,,,,,,5ebaa88e5271270008af01d5,606841ea113423a35d181197,2021-04-03_12h23.04.543,Colour_Similarity_Experiment,2020.2.10,Win32,60,60674ec340277cd6a308bc9f,17.23173804,16.68634969,16.68769716,16.71864632,16.67651515,16.68769716,,,,,,,,,,,,,,,,,,,,PF,strong,3,,,,,,,,6,1.549,,,,,,,,,,,,,,,,,,,,,,,,,,,,1,strong,55,49,1,0,0,response1disk,6,22,5,4,1,0,0,rectangle,5,4,1,0,0,,7,0.003,5,4,1,0,0,0,21,21,58,1,0,,,,,,,,,,,,,,,,,,,,,
,,,,,,,,,,,,,,,,,,,,,,,,,,,,,,,,,,,,,,,,,,5ebaa88e5271270008af01d5,606841ea113423a35d181197,2021-04-03_12h23.04.543,Colour_Similarity_Experiment,2020.2.10,Win32,60,60674ec340277cd6a308bc9f,17.23173804,16.68634969,16.68769716,16.71864632,16.67651515,16.68769716,,,,,,,,,,,,,,,,,,,,PF,weak,3,,,,,,,,3,5.283,,,,,,,,,,,,,,,,,,,,,,,,,,,,9,weak,-40,-65,1,0,0,response5disk,3,23,-6,5,1,0,0,rectangle,-6,5,1,0,0,,5,0.004,-6,5,1,0,0,0,22,22,119,1,0,,,,,,,,,,,,,,,,,,,,,
,,,,,,,,,,,,,,,,,,,,,,,,,,,,,,,,,,,,,,,,,,5ebaa88e5271270008af01d5,606841ea113423a35d181197,2021-04-03_12h23.04.543,Colour_Similarity_Experiment,2020.2.10,Win32,60,60674ec340277cd6a308bc9f,17.23173804,16.68634969,16.68769716,16.71864632,16.67651515,16.68769716,,,,,,,,,,,,,,,,,,,,PF,strong,3,,,,,,,,3,1.484,,,,,,,,,,,,,,,,,,,,,,,,,,,,1,strong,-46,-80,1,0,0,response5disk,9,24,6,1,1,0,0,rectangle,6,1,1,0,0,,6,0.003,6,1,1,0,0,0,23,23,123,1,0,,,,,,,,,,,,,,,,,,,,,
,,,,,,,,,,,,,,,,,,,,,,,,,,,,,,,,,,,,,,,,,,5ebaa88e5271270008af01d5,606841ea113423a35d181197,2021-04-03_12h23.04.543,Colour_Similarity_Experiment,2020.2.10,Win32,60,60674ec340277cd6a308bc9f,17.23173804,16.68634969,16.68769716,16.71864632,16.67651515,16.68769716,,,,,,,,,,,,,,,,,,,,PF,weak,3,,,,,,,,4,2.265,,,,,,,,,,,,,,,,,,,,,,,,,,,,2,weak,31,-64,1,0,0,response3disk,3,25,8,-3,1,0,0,rectangle,8,-3,1,0,0,,1,0.003,8,-3,1,0,0,0,24,24,69,1,0,,,,,,,,,,,,,,,,,,,,,
,,,,,,,,,,,,,,,,,,,,,,,,,,,,,,,,,,,,,,,,,,5ebaa88e5271270008af01d5,606841ea113423a35d181197,2021-04-03_12h23.04.543,Colour_Similarity_Experiment,2020.2.10,Win32,60,60674ec340277cd6a308bc9f,17.23173804,16.68634969,16.68769716,16.71864632,16.67651515,16.68769716,,,,,,,,,,,,,,,,,,,,PF,strong,3,,,,,,,,0,1.334,,,,,,,,,,,,,,,,,,,,,,,,,,,,3,strong,-51,95,1,0,0,response7disk,3,26,7,9,1,0,0,rectangle,7,9,1,0,0,,2,0.003,7,9,1,0,0,0,25,25,68,1,0,,,,,,,,,,,,,,,,,,,,,
,,,,,,,,,,,,,,,,,,,,,,,,,,,,,,,,,,,,,,,,,,5ebaa88e5271270008af01d5,606841ea113423a35d181197,2021-04-03_12h23.04.543,Colour_Similarity_Experiment,2020.2.10,Win32,60,60674ec340277cd6a308bc9f,17.23173804,16.68634969,16.68769716,16.71864632,16.67651515,16.68769716,,,,,,,,,,,,,,,,,,,,PF,weak,3,,,,,,,,3,4.532,,,,,,,,,,,,,,,,,,,,,,,,,,,,4,weak,-31,-97,1,0,0,response5disk,5,27,5,3,1,0,0,rectangle,5,3,1,0,0,,3,0.002,5,3,1,0,0,0,26,26,49,1,0,,,,,,,,,,,,,,,,,,,,,
,,,,,,,,,,,,,,,,,,,,,,,,,,,,,,,,,,,,,,,,,,5ebaa88e5271270008af01d5,606841ea113423a35d181197,2021-04-03_12h23.04.543,Colour_Similarity_Experiment,2020.2.10,Win32,60,60674ec340277cd6a308bc9f,17.23173804,16.68634969,16.68769716,16.71864632,16.67651515,16.68769716,,,,,,,,,,,,,,,,,,,,PF,weak,3,,,,,,,,5,2.316,,,,,,,,,,,,,,,,,,,,,,,,,,,,6,weak,70,-66,1,0,0,response3disk,3,28,-15,12,1,0,0,rectangle,-15,12,1,0,0,,1,0.003,-15,12,1,0,0,0,27,27,26,1,0,,,,,,,,,,,,,,,,,,,,,
,,,,,,,,,,,,,,,,,,,,,,,,,,,,,,,,,,,,,,,,,,5ebaa88e5271270008af01d5,606841ea113423a35d181197,2021-04-03_12h23.04.543,Colour_Similarity_Experiment,2020.2.10,Win32,60,60674ec340277cd6a308bc9f,17.23173804,16.68634969,16.68769716,16.71864632,16.67651515,16.68769716,,,,,,,,,,,,,,,,,,,,PF,weak,3,,,,,,,,6,2.299,,,,,,,,,,,,,,,,,,,,,,,,,,,,4,weak,75,36,1,0,0,response1disk,6,29,-3,0,1,0,0,rectangle,-3,0,1,0,0,,3,0.004,-3,0,1,0,0,0,28,28,120,1,0,,,,,,,,,,,,,,,,,,,,,
,,,,,,,,,,,,,,,,,,,,,,,,,,,,,,,,,,,,,,,,,,5ebaa88e5271270008af01d5,606841ea113423a35d181197,2021-04-03_12h23.04.543,Colour_Similarity_Experiment,2020.2.10,Win32,60,60674ec340277cd6a308bc9f,17.23173804,16.68634969,16.68769716,16.71864632,16.67651515,16.68769716,,,,,,,,,,,,,,,,,,,,PF,weak,3,,,,,,,,4,4.6,,,,,,,,,,,,,,,,,,,,,,,,,,,,8,weak,70,-82,1,0,0,response3disk,7,30,3,3,1,0,0,rectangle,3,3,1,0,0,,1,0.003,3,3,1,0,0,0,29,29,23,1,0,,,,,,,,,,,,,,,,,,,,,
,,,,,,,,,,,,,,,,,,,,,,,,,,,,,,,,,,,,,,,,,,5ebaa88e5271270008af01d5,606841ea113423a35d181197,2021-04-03_12h23.04.543,Colour_Similarity_Experiment,2020.2.10,Win32,60,60674ec340277cd6a308bc9f,17.23173804,16.68634969,16.68769716,16.71864632,16.67651515,16.68769716,,,,,,,,,,,,,,,,,,,,PF,weak,3,,,,,,,,3,4.45,,,,,,,,,,,,,,,,,,,,,,,,,,,,5,weak,-26,-83,1,0,0,response5disk,8,31,2,-2,1,0,0,rectangle,2,-2,1,0,0,,1,0.001,2,-2,1,0,0,0,30,30,149,1,0,,,,,,,,,,,,,,,,,,,,,
,,,,,,,,,,,,,,,,,,,,,,,,,,,,,,,,,,,,,,,,,,5ebaa88e5271270008af01d5,606841ea113423a35d181197,2021-04-03_12h23.04.543,Colour_Similarity_Experiment,2020.2.10,Win32,60,60674ec340277cd6a308bc9f,17.23173804,16.68634969,16.68769716,16.71864632,16.67651515,16.68769716,,,,,,,,,,,,,,,,,,,,PF,weak,3,,,,,,,,3,4.583,,,,,,,,,,,,,,,,,,,,,,,,,,,,1,weak,-28,-88,1,0,0,response5disk,2,32,3,-1,1,0,0,rectangle,3,-1,1,0,0,,4,0.003,3,-1,1,0,0,0,31,31,24,1,0,,,,,,,,,,,,,,,,,,,,,
,,,,,,,,,,,,,,,,,,,,,,,,,,,,,,,,,,,,,,,,,,5ebaa88e5271270008af01d5,606841ea113423a35d181197,2021-04-03_12h23.04.543,Colour_Similarity_Experiment,2020.2.10,Win32,60,60674ec340277cd6a308bc9f,17.23173804,16.68634969,16.68769716,16.71864632,16.67651515,16.68769716,,,,,,,,,,,,,,,,,,,,PF,weak,3,,,,,,,,6,2.066,,,,,,,,,,,,,,,,,,,,,,,,,,,,4,weak,86,37,1,0,0,response1disk,9,33,7,-2,1,0,0,rectangle,7,-2,1,0,0,,2,0.003,7,-2,1,0,0,0,32,32,75,1,0,,,,,,,,,,,,,,,,,,,,,
,,,,,,,,,,,,,,,,,,,,,,,,,,,,,,,,,,,,,,,,,,5ebaa88e5271270008af01d5,606841ea113423a35d181197,2021-04-03_12h23.04.543,Colour_Similarity_Experiment,2020.2.10,Win32,60,60674ec340277cd6a308bc9f,17.23173804,16.68634969,16.68769716,16.71864632,16.67651515,16.68769716,,,,,,,,,,,,,,,,,,,,PF,strong,3,,,,,,,,0,1.799,,,,,,,,,,,,,,,,,,,,,,,,,,,,2,strong,-40,69,1,0,0,response7disk,2,34,-6,-7,1,0,0,rectangle,-6,-7,1,0,0,,7,0.005,-6,-7,1,0,0,0,33,33,142,1,0,,,,,,,,,,,,,,,,,,,,,
,,,,,,,,,,,,,,,,,,,,,,,,,,,,,,,,,,,,,,,,,,5ebaa88e5271270008af01d5,606841ea113423a35d181197,2021-04-03_12h23.04.543,Colour_Similarity_Experiment,2020.2.10,Win32,60,60674ec340277cd6a308bc9f,17.23173804,16.68634969,16.68769716,16.71864632,16.67651515,16.68769716,,,,,,,,,,,,,,,,,,,,PF,strong,3,,,,,,,,2,1.333,,,,,,,,,,,,,,,,,,,,,,,,,,,,2,strong,-60,-35,1,0,0,response5disk,1,35,-8,1,1,0,0,rectangle,-8,1,1,0,0,,5,0.003,-8,1,1,0,0,0,34,34,85,1,0,,,,,,,,,,,,,,,,,,,,,
,,,,,,,,,,,,,,,,,,,,,,,,,,,,,,,,,,,,,,,,,,5ebaa88e5271270008af01d5,606841ea113423a35d181197,2021-04-03_12h23.04.543,Colour_Similarity_Experiment,2020.2.10,Win32,60,60674ec340277cd6a308bc9f,17.23173804,16.68634969,16.68769716,16.71864632,16.67651515,16.68769716,,,,,,,,,,,,,,,,,,,,PF,strong,3,,,,,,,,4,1.817,,,,,,,,,,,,,,,,,,,,,,,,,,,,4,strong,26,-78,1,0,0,response3disk,2,36,-2,1,1,0,0,rectangle,-2,1,1,0,0,,4,0.003,-2,1,1,0,0,0,35,35,13,1,0,,,,,,,,,,,,,,,,,,,,,
,,,,,,,,,,,,,,,,,,,,,,,,,,,,,,,,,,,,,,,,,,5ebaa88e5271270008af01d5,606841ea113423a35d181197,2021-04-03_12h23.04.543,Colour_Similarity_Experiment,2020.2.10,Win32,60,60674ec340277cd6a308bc9f,17.23173804,16.68634969,16.68769716,16.71864632,16.67651515,16.68769716,,,,,,,,,,,,,,,,,,,,PF,weak,3,,,,,,,,6,2.167,,,,,,,,,,,,,,,,,,,,,,,,,,,,1,weak,84,24,1,0,0,response1disk,8,37,-17,-14,1,0,0,rectangle,-17,-14,1,0,0,,4,0,-17,-14,1,0,0,0,36,36,65,1,0,,,,,,,,,,,,,,,,,,,,,
,,,,,,,,,,,,,,,,,,,,,,,,,,,,,,,,,,,,,,,,,,5ebaa88e5271270008af01d5,606841ea113423a35d181197,2021-04-03_12h23.04.543,Colour_Similarity_Experiment,2020.2.10,Win32,60,60674ec340277cd6a308bc9f,17.23173804,16.68634969,16.68769716,16.71864632,16.67651515,16.68769716,,,,,,,,,,,,,,,,,,,,PF,weak,3,,,,,,,,7,1.215,,,,,,,,,,,,,,,,,,,,,,,,,,,,4,weak,50,63,1,0,0,response1disk,1,38,3,-5,1,0,0,rectangle,3,-5,1,0,0,,5,0.003,3,-5,1,0,0,0,37,37,115,1,0,,,,,,,,,,,,,,,,,,,,,
,,,,,,,,,,,,,,,,,,,,,,,,,,,,,,,,,,,,,,,,,,5ebaa88e5271270008af01d5,606841ea113423a35d181197,2021-04-03_12h23.04.543,Colour_Similarity_Experiment,2020.2.10,Win32,60,60674ec340277cd6a308bc9f,17.23173804,16.68634969,16.68769716,16.71864632,16.67651515,16.68769716,,,,,,,,,,,,,,,,,,,,PF,weak,3,,,,,,,,0,1.132,,,,,,,,,,,,,,,,,,,,,,,,,,,,2,weak,-36,87,1,0,0,response7disk,2,39,8,-3,1,0,0,rectangle,8,-3,1,0,0,,6,0.003,8,-3,1,0,0,0,38,38,14,1,0,,,,,,,,,,,,,,,,,,,,,
,,,,,,,,,,,,,,,,,,,,,,,,,,,,,,,,,,,,,,,,,,5ebaa88e5271270008af01d5,606841ea113423a35d181197,2021-04-03_12h23.04.543,Colour_Similarity_Experiment,2020.2.10,Win32,60,60674ec340277cd6a308bc9f,17.23173804,16.68634969,16.68769716,16.71864632,16.67651515,16.68769716,,,,,,,,,,,,,,,,,,,,PF,weak,3,,,,,,,,3,1.767,,,,,,,,,,,,,,,,,,,,,,,,,,,,6,weak,-24,-67,1,0,0,response5disk,5,40,22,0,1,0,0,rectangle,22,0,1,0,0,,4,0.003,22,0,1,0,0,0,39,39,59,1,0,,,,,,,,,,,,,,,,,,,,,
,,,,,,,,,,,,,,,,,,,,,,,,,,,,,,,,,,,,,,,,,,5ebaa88e5271270008af01d5,606841ea113423a35d181197,2021-04-03_12h23.04.543,Colour_Similarity_Experiment,2020.2.10,Win32,60,60674ec340277cd6a308bc9f,17.23173804,16.68634969,16.68769716,16.71864632,16.67651515,16.68769716,,,,,,,,,,,,,,,,,,,,PF,strong,3,,,,,,,,7,1.583,,,,,,,,,,,,,,,,,,,,,,,,,,,,9,strong,72,79,1,0,0,response1disk,5,41,14,-5,1,0,0,rectangle,14,-5,1,0,0,,7,0.003,14,-5,1,0,0,0,40,40,128,1,0,,,,,,,,,,,,,,,,,,,,,
,,,,,,,,,,,,,,,,,,,,,,,,,,,,,,,,,,,,,,,,,,5ebaa88e5271270008af01d5,606841ea113423a35d181197,2021-04-03_12h23.04.543,Colour_Similarity_Experiment,2020.2.10,Win32,60,60674ec340277cd6a308bc9f,17.23173804,16.68634969,16.68769716,16.71864632,16.67651515,16.68769716,,,,,,,,,,,,,,,,,,,,PF,strong,3,,,,,,,,5,1.832,,,,,,,,,,,,,,,,,,,,,,,,,,,,1,strong,72,-50,1,0,0,response3disk,8,42,-5,1,1,0,0,rectangle,-5,1,1,0,0,,5,0.004,-5,1,1,0,0,0,41,41,27,1,0,,,,,,,,,,,,,,,,,,,,,
,,,,,,,,,,,,,,,,,,,,,,,,,,,,,,,,,,,,,,,,,,5ebaa88e5271270008af01d5,606841ea113423a35d181197,2021-04-03_12h23.04.543,Colour_Similarity_Experiment,2020.2.10,Win32,60,60674ec340277cd6a308bc9f,17.23173804,16.68634969,16.68769716,16.71864632,16.67651515,16.68769716,,,,,,,,,,,,,,,,,,,,PF,strong,3,,,,,,,,7,1.316,,,,,,,,,,,,,,,,,,,,,,,,,,,,3,strong,37,64,1,0,0,response1disk,1,43,9,-4,1,0,0,rectangle,9,-4,1,0,0,,5,0.001,9,-4,1,0,0,0,42,42,125,1,0,,,,,,,,,,,,,,,,,,,,,
,,,,,,,,,,,,,,,,,,,,,,,,,,,,,,,,,,,,,,,,,,5ebaa88e5271270008af01d5,606841ea113423a35d181197,2021-04-03_12h23.04.543,Colour_Similarity_Experiment,2020.2.10,Win32,60,60674ec340277cd6a308bc9f,17.23173804,16.68634969,16.68769716,16.71864632,16.67651515,16.68769716,,,,,,,,,,,,,,,,,,,,PF,strong,3,,,,,,,,2,2.001,,,,,,,,,,,,,,,,,,,,,,,,,,,,5,strong,-65,-53,1,0,0,response5disk,3,44,10,2,1,0,0,rectangle,10,2,1,0,0,,0,0.003,10,2,1,0,0,0,43,43,25,1,0,,,,,,,,,,,,,,,,,,,,,
,,,,,,,,,,,,,,,,,,,,,,,,,,,,,,,,,,,,,,,,,,5ebaa88e5271270008af01d5,606841ea113423a35d181197,2021-04-03_12h23.04.543,Colour_Similarity_Experiment,2020.2.10,Win32,60,60674ec340277cd6a308bc9f,17.23173804,16.68634969,16.68769716,16.71864632,16.67651515,16.68769716,,,,,,,,,,,,,,,,,,,,PF,strong,3,,,,,,,,2,1.364,,,,,,,,,,,,,,,,,,,,,,,,,,,,4,strong,-53,-45,1,0,0,response5disk,5,45,1,-5,1,0,0,rectangle,1,-5,1,0,0,,4,0.003,1,-5,1,0,0,0,44,44,116,1,0,,,,,,,,,,,,,,,,,,,,,
,,,,,,,,,,,,,,,,,,,,,,,,,,,,,,,,,,,,,,,,,,5ebaa88e5271270008af01d5,606841ea113423a35d181197,2021-04-03_12h23.04.543,Colour_Similarity_Experiment,2020.2.10,Win32,60,60674ec340277cd6a308bc9f,17.23173804,16.68634969,16.68769716,16.71864632,16.67651515,16.68769716,,,,,,,,,,,,,,,,,,,,PF,weak,3,,,,,,,,7,1.05,,,,,,,,,,,,,,,,,,,,,,,,,,,,7,weak,44,63,1,0,0,response1disk,2,46,-1,-10,1,0,0,rectangle,-1,-10,1,0,0,,1,0.003,-1,-10,1,0,0,0,45,45,32,1,0,,,,,,,,,,,,,,,,,,,,,
,,,,,,,,,,,,,,,,,,,,,,,,,,,,,,,,,,,,,,,,,,5ebaa88e5271270008af01d5,606841ea113423a35d181197,2021-04-03_12h23.04.543,Colour_Similarity_Experiment,2020.2.10,Win32,60,60674ec340277cd6a308bc9f,17.23173804,16.68634969,16.68769716,16.71864632,16.67651515,16.68769716,,,,,,,,,,,,,,,,,,,,PF,weak,3,,,,,,,,2,1.916,,,,,,,,,,,,,,,,,,,,,,,,,,,,7,weak,-94,-49,1,0,0,response5disk,6,47,-22,11,1,0,0,rectangle,-22,11,1,0,0,,7,0.003,-22,11,1,0,0,0,46,46,29,1,0,,,,,,,,,,,,,,,,,,,,,
,,,,,,,,,,,,,,,,,,,,,,,,,,,,,,,,,,,,,,,,,,5ebaa88e5271270008af01d5,606841ea113423a35d181197,2021-04-03_12h23.04.543,Colour_Similarity_Experiment,2020.2.10,Win32,60,60674ec340277cd6a308bc9f,17.23173804,16.68634969,16.68769716,16.71864632,16.67651515,16.68769716,,,,,,,,,,,,,,,,,,,,PF,strong,3,,,,,,,,0,1.1,,,,,,,,,,,,,,,,,,,,,,,,,,,,8,strong,-21,52,1,0,0,response7disk,8,48,4,-15,1,0,0,rectangle,4,-15,1,0,0,,5,0.004,4,-15,1,0,0,0,47,47,48,1,0,,,,,,,,,,,,,,,,,,,,,
,,,,,,,,,,,,,,,,,,,,,,,,,,,,,,,,,,,,,,,,,,5ebaa88e5271270008af01d5,606841ea113423a35d181197,2021-04-03_12h23.04.543,Colour_Similarity_Experiment,2020.2.10,Win32,60,60674ec340277cd6a308bc9f,17.23173804,16.68634969,16.68769716,16.71864632,16.67651515,16.68769716,,,,,,,,,,,,,,,,,,,,PF,strong,3,,,,,,,,7,1.05,,,,,,,,,,,,,,,,,,,,,,,,,,,,3,strong,38,88,1,0,0,response1disk,8,49,11,-8,1,0,0,rectangle,11,-8,1,0,0,,4,0.004,11,-8,1,0,0,0,48,48,44,1,0,,,,,,,,,,,,,,,,,,,,,
,,,,,,,,,,,,,,,,,,,,,,,,,,,,,,,,,,,,,,,,,,5ebaa88e5271270008af01d5,606841ea113423a35d181197,2021-04-03_12h23.04.543,Colour_Similarity_Experiment,2020.2.10,Win32,60,60674ec340277cd6a308bc9f,17.23173804,16.68634969,16.68769716,16.71864632,16.67651515,16.68769716,,,,,,,,,,,,,,,,,,,,PF,weak,3,,,,,,,,6,3.266,,,,,,,,,,,,,,,,,,,,,,,,,,,,4,weak,99,27,1,0,0,response1disk,2,50,19,-3,1,0,0,rectangle,19,-3,1,0,0,,7,0.004,19,-3,1,0,0,0,49,49,108,1,0,,,,,,,,,,,,,,,,,,,,,
,,,,,,,,,,,,,,,,,,,,,,,,,,,,,,,,,,,,,,,,,,5ebaa88e5271270008af01d5,606841ea113423a35d181197,2021-04-03_12h23.04.543,Colour_Similarity_Experiment,2020.2.10,Win32,60,60674ec340277cd6a308bc9f,17.23173804,16.68634969,16.68769716,16.71864632,16.67651515,16.68769716,,,,,,,,,,,,,,,,,,,,PF,strong,3,,,,,,,,3,2.266,,,,,,,,,,,,,,,,,,,,,,,,,,,,3,strong,-19,-101,1,0,0,response5disk,5,51,8,8,1,0,0,rectangle,8,8,1,0,0,,2,0.003,8,8,1,0,0,0,50,50,101,1,0,,,,,,,,,,,,,,,,,,,,,
,,,,,,,,,,,,,,,,,,,,,,,,,,,,,,,,,,,,,,,,,,5ebaa88e5271270008af01d5,606841ea113423a35d181197,2021-04-03_12h23.04.543,Colour_Similarity_Experiment,2020.2.10,Win32,60,60674ec340277cd6a308bc9f,17.23173804,16.68634969,16.68769716,16.71864632,16.67651515,16.68769716,,,,,,,,,,,,,,,,,,,,PF,weak,3,,,,,,,,7,1.204,,,,,,,,,,,,,,,,,,,,,,,,,,,,3,weak,59,76,1,0,0,response1disk,1,52,14,-4,1,0,0,rectangle,14,-4,1,0,0,,1,0.005,14,-4,1,0,0,0,51,51,96,1,0,,,,,,,,,,,,,,,,,,,,,
,,,,,,,,,,,,,,,,,,,,,,,,,,,,,,,,,,,,,,,,,,5ebaa88e5271270008af01d5,606841ea113423a35d181197,2021-04-03_12h23.04.543,Colour_Similarity_Experiment,2020.2.10,Win32,60,60674ec340277cd6a308bc9f,17.23173804,16.68634969,16.68769716,16.71864632,16.67651515,16.68769716,,,,,,,,,,,,,,,,,,,,PF,weak,3,,,,,,,,7,0.883,,,,,,,,,,,,,,,,,,,,,,,,,,,,6,weak,34,80,1,0,0,response1disk,2,53,5,-5,1,0,0,rectangle,5,-5,1,0,0,,7,0.003,5,-5,1,0,0,0,52,52,130,1,0,,,,,,,,,,,,,,,,,,,,,
,,,,,,,,,,,,,,,,,,,,,,,,,,,,,,,,,,,,,,,,,,5ebaa88e5271270008af01d5,606841ea113423a35d181197,2021-04-03_12h23.04.543,Colour_Similarity_Experiment,2020.2.10,Win32,60,60674ec340277cd6a308bc9f,17.23173804,16.68634969,16.68769716,16.71864632,16.67651515,16.68769716,,,,,,,,,,,,,,,,,,,,PF,strong,3,,,,,,,,5,1.966,,,,,,,,,,,,,,,,,,,,,,,,,,,,1,strong,76,-46,1,0,0,response3disk,5,54,5,2,1,0,0,rectangle,5,2,1,0,0,,5,0.004,5,2,1,0,0,0,53,53,82,1,0,,,,,,,,,,,,,,,,,,,,,
,,,,,,,,,,,,,,,,,,,,,,,,,,,,,,,,,,,,,,,,,,5ebaa88e5271270008af01d5,606841ea113423a35d181197,2021-04-03_12h23.04.543,Colour_Similarity_Experiment,2020.2.10,Win32,60,60674ec340277cd6a308bc9f,17.23173804,16.68634969,16.68769716,16.71864632,16.67651515,16.68769716,,,,,,,,,,,,,,,,,,,,PF,strong,3,,,,,,,,2,1.515,,,,,,,,,,,,,,,,,,,,,,,,,,,,5,strong,-89,-47,1,0,0,response5disk,4,55,9,-8,1,0,0,rectangle,9,-8,1,0,0,,5,0.001,9,-8,1,0,0,0,54,54,8,1,0,,,,,,,,,,,,,,,,,,,,,
,,,,,,,,,,,,,,,,,,,,,,,,,,,,,,,,,,,,,,,,,,5ebaa88e5271270008af01d5,606841ea113423a35d181197,2021-04-03_12h23.04.543,Colour_Similarity_Experiment,2020.2.10,Win32,60,60674ec340277cd6a308bc9f,17.23173804,16.68634969,16.68769716,16.71864632,16.67651515,16.68769716,,,,,,,,,,,,,,,,,,,,PF,strong,3,,,,,,,,6,1.583,,,,,,,,,,,,,,,,,,,,,,,,,,,,2,strong,94,37,1,0,0,response1disk,9,56,25,-5,1,0,0,rectangle,25,-5,1,0,0,,0,0.003,25,-5,1,0,0,0,55,55,72,1,0,,,,,,,,,,,,,,,,,,,,,
,,,,,,,,,,,,,,,,,,,,,,,,,,,,,,,,,,,,,,,,,,5ebaa88e5271270008af01d5,606841ea113423a35d181197,2021-04-03_12h23.04.543,Colour_Similarity_Experiment,2020.2.10,Win32,60,60674ec340277cd6a308bc9f,17.23173804,16.68634969,16.68769716,16.71864632,16.67651515,16.68769716,,,,,,,,,,,,,,,,,,,,PF,strong,3,,,,,,,,0,1.849,,,,,,,,,,,,,,,,,,,,,,,,,,,,4,strong,-45,62,1,0,0,response7disk,3,57,-21,9,1,0,0,rectangle,-21,9,1,0,0,,2,0.004,-21,9,1,0,0,0,56,56,77,1,0,,,,,,,,,,,,,,,,,,,,,
,,,,,,,,,,,,,,,,,,,,,,,,,,,,,,,,,,,,,,,,,,5ebaa88e5271270008af01d5,606841ea113423a35d181197,2021-04-03_12h23.04.543,Colour_Similarity_Experiment,2020.2.10,Win32,60,60674ec340277cd6a308bc9f,17.23173804,16.68634969,16.68769716,16.71864632,16.67651515,16.68769716,,,,,,,,,,,,,,,,,,,,PF,weak,3,,,,,,,,6,1.117,,,,,,,,,,,,,,,,,,,,,,,,,,,,2,weak,60,46,1,0,0,response1disk,5,58,7,-3,1,0,0,rectangle,7,-3,1,0,0,,0,0.004,7,-3,1,0,0,0,57,57,147,1,0,,,,,,,,,,,,,,,,,,,,,
,,,,,,,,,,,,,,,,,,,,,,,,,,,,,,,,,,,,,,,,,,5ebaa88e5271270008af01d5,606841ea113423a35d181197,2021-04-03_12h23.04.543,Colour_Similarity_Experiment,2020.2.10,Win32,60,60674ec340277cd6a308bc9f,17.23173804,16.68634969,16.68769716,16.71864632,16.67651515,16.68769716,,,,,,,,,,,,,,,,,,,,PF,weak,3,,,,,,,,4,3.749,,,,,,,,,,,,,,,,,,,,,,,,,,,,5,weak,20,-48,1,0,0,response3disk,9,59,3,-2,1,0,0,rectangle,-48,77,1,0,0,0,0,3.601,1,2,1,0,0,0,58,58,136,1,1,response7disk_3,rectangle,,,,,,,,,,,,,,,,,,,
,,,,,,,,,,,,,,,,,,,,,,,,,,,,,,,,,,,,,,,,,,5ebaa88e5271270008af01d5,606841ea113423a35d181197,2021-04-03_12h23.04.543,Colour_Similarity_Experiment,2020.2.10,Win32,60,60674ec340277cd6a308bc9f,17.23173804,16.68634969,16.68769716,16.71864632,16.67651515,16.68769716,,,,,,,,,,,,,,,,,,,,PF,weak,3,,,,,,,,2,1.1,,,,,,,,,,,,,,,,,,,,,,,,,,,,5,weak,-76,-39,1,0,0,response5disk,6,60,-6,0,1,0,0,rectangle,-6,0,1,0,0,0,6,0.004,-6,0,1,0,0,0,59,59,103,1,0,,,,,,,,,,,,,,,,,,,,,
,,,,,,,,,,,,,,,,,,,,,,,,,,,,,,,,,,,,,,,,,,5ebaa88e5271270008af01d5,606841ea113423a35d181197,2021-04-03_12h23.04.543,Colour_Similarity_Experiment,2020.2.10,Win32,60,60674ec340277cd6a308bc9f,17.23173804,16.68634969,16.68769716,16.71864632,16.67651515,16.68769716,,,,,,,,,,,,,,,,,,,,PF,strong,3,,,,,,,,6,0.984,,,,,,,,,,,,,,,,,,,,,,,,,,,,9,strong,66,33,1,0,0,response1disk,6,61,14,5,1,0,0,rectangle,14,5,1,0,0,0,1,0.004,14,5,1,0,0,0,60,60,117,1,0,,,,,,,,,,,,,,,,,,,,,
,,,,,,,,,,,,,,,,,,,,,,,,,,,,,,,,,,,,,,,,,,5ebaa88e5271270008af01d5,606841ea113423a35d181197,2021-04-03_12h23.04.543,Colour_Similarity_Experiment,2020.2.10,Win32,60,60674ec340277cd6a308bc9f,17.23173804,16.68634969,16.68769716,16.71864632,16.67651515,16.68769716,,,,,,,,,,,,,,,,,,,,PF,strong,3,,,,,,,,3,1.284,,,,,,,,,,,,,,,,,,,,,,,,,,,,9,strong,-21,-44,1,0,0,response5disk,1,62,8,6,1,0,0,rectangle,8,6,1,0,0,0,2,0.004,8,6,1,0,0,0,61,61,111,1,0,,,,,,,,,,,,,,,,,,,,,
,,,,,,,,,,,,,,,,,,,,,,,,,,,,,,,,,,,,,,,,,,5ebaa88e5271270008af01d5,606841ea113423a35d181197,2021-04-03_12h23.04.543,Colour_Similarity_Experiment,2020.2.10,Win32,60,60674ec340277cd6a308bc9f,17.23173804,16.68634969,16.68769716,16.71864632,16.67651515,16.68769716,,,,,,,,,,,,,,,,,,,,PF,weak,3,,,,,,,,6,1.917,,,,,,,,,,,,,,,,,,,,,,,,,,,,8,weak,103,35,1,0,0,response1disk,5,63,8,11,1,0,0,rectangle,8,11,1,0,0,0,2,0,8,11,1,0,0,0,62,62,98,1,0,,,,,,,,,,,,,,,,,,,,,
,,,,,,,,,,,,,,,,,,,,,,,,,,,,,,,,,,,,,,,,,,5ebaa88e5271270008af01d5,606841ea113423a35d181197,2021-04-03_12h23.04.543,Colour_Similarity_Experiment,2020.2.10,Win32,60,60674ec340277cd6a308bc9f,17.23173804,16.68634969,16.68769716,16.71864632,16.67651515,16.68769716,,,,,,,,,,,,,,,,,,,,PF,strong,3,,,,,,,,7,1.133,,,,,,,,,,,,,,,,,,,,,,,,,,,,7,strong,37,50,1,0,0,response1disk,9,64,14,-2,1,0,0,rectangle,14,-2,1,0,0,0,3,0.004,14,-2,1,0,0,0,63,63,155,1,0,,,,,,,,,,,,,,,,,,,,,
,,,,,,,,,,,,,,,,,,,,,,,,,,,,,,,,,,,,,,,,,,5ebaa88e5271270008af01d5,606841ea113423a35d181197,2021-04-03_12h23.04.543,Colour_Similarity_Experiment,2020.2.10,Win32,60,60674ec340277cd6a308bc9f,17.23173804,16.68634969,16.68769716,16.71864632,16.67651515,16.68769716,,,,,,,,,,,,,,,,,,,,PF,weak,3,,,,,,,,1,2.15,,,,,,,,,,,,,,,,,,,,,,,,,,,,1,weak,-74,32,1,0,0,response7disk,4,65,7,3,1,0,0,rectangle,7,3,1,0,0,0,2,0.003,7,3,1,0,0,0,64,64,139,1,0,,,,,,,,,,,,,,,,,,,,,
,,,,,,,,,,,,,,,,,,,,,,,,,,,,,,,,,,,,,,,,,,5ebaa88e5271270008af01d5,606841ea113423a35d181197,2021-04-03_12h23.04.543,Colour_Similarity_Experiment,2020.2.10,Win32,60,60674ec340277cd6a308bc9f,17.23173804,16.68634969,16.68769716,16.71864632,16.67651515,16.68769716,,,,,,,,,,,,,,,,,,,,PF,weak,3,,,,,,,,2,1.351,,,,,,,,,,,,,,,,,,,,,,,,,,,,6,weak,-60,-31,1,0,0,response5disk,7,66,-11,-1,1,0,0,rectangle,-11,-1,1,0,0,0,4,0.003,-11,-1,1,0,0,0,65,65,50,1,0,,,,,,,,,,,,,,,,,,,,,
,,,,,,,,,,,,,,,,,,,,,,,,,,,,,,,,,,,,,,,,,,5ebaa88e5271270008af01d5,606841ea113423a35d181197,2021-04-03_12h23.04.543,Colour_Similarity_Experiment,2020.2.10,Win32,60,60674ec340277cd6a308bc9f,17.23173804,16.68634969,16.68769716,16.71864632,16.67651515,16.68769716,,,,,,,,,,,,,,,,,,,,PF,weak,3,,,,,,,,6,1.066,,,,,,,,,,,,,,,,,,,,,,,,,,,,7,weak,61,26,1,0,0,response1disk,4,67,11,3,1,0,0,rectangle,11,3,1,0,0,0,4,0.001,11,3,1,0,0,0,66,66,43,1,0,,,,,,,,,,,,,,,,,,,,,
,,,,,,,,,,,,,,,,,,,,,,,,,,,,,,,,,,,,,,,,,,5ebaa88e5271270008af01d5,606841ea113423a35d181197,2021-04-03_12h23.04.543,Colour_Similarity_Experiment,2020.2.10,Win32,60,60674ec340277cd6a308bc9f,17.23173804,16.68634969,16.68769716,16.71864632,16.67651515,16.68769716,,,,,,,,,,,,,,,,,,,,PF,strong,3,,,,,,,,7,3.566,,,,,,,,,,,,,,,,,,,,,,,,,,,,9,strong,37,47,1,0,0,response1disk,3,68,10,-4,1,0,0,rectangle,10,-4,1,0,0,0,3,0.003,10,-4,1,0,0,0,67,67,141,1,0,,,,,,,,,,,,,,,,,,,,,
,,,,,,,,,,,,,,,,,,,,,,,,,,,,,,,,,,,,,,,,,,5ebaa88e5271270008af01d5,606841ea113423a35d181197,2021-04-03_12h23.04.543,Colour_Similarity_Experiment,2020.2.10,Win32,60,60674ec340277cd6a308bc9f,17.23173804,16.68634969,16.68769716,16.71864632,16.67651515,16.68769716,,,,,,,,,,,,,,,,,,,,PF,strong,3,,,,,,,,7,1.667,,,,,,,,,,,,,,,,,,,,,,,,,,,,5,strong,56,70,1,0,0,response1disk,9,69,-2,-14,1,0,0,rectangle,-2,-14,1,0,0,0,5,0.004,-2,-14,1,0,0,0,68,68,61,1,0,,,,,,,,,,,,,,,,,,,,,
,,,,,,,,,,,,,,,,,,,,,,,,,,,,,,,,,,,,,,,,,,5ebaa88e5271270008af01d5,606841ea113423a35d181197,2021-04-03_12h23.04.543,Colour_Similarity_Experiment,2020.2.10,Win32,60,60674ec340277cd6a308bc9f,17.23173804,16.68634969,16.68769716,16.71864632,16.67651515,16.68769716,,,,,,,,,,,,,,,,,,,,PF,strong,3,,,,,,,,7,3.016,,,,,,,,,,,,,,,,,,,,,,,,,,,,4,strong,24,40,1,0,0,response1disk,9,70,-4,0,1,0,0,rectangle,-4,0,1,0,0,0,1,0.003,-4,0,1,0,0,0,69,69,90,1,0,,,,,,,,,,,,,,,,,,,,,
,,,,,,,,,,,,,,,,,,,,,,,,,,,,,,,,,,,,,,,,,,5ebaa88e5271270008af01d5,606841ea113423a35d181197,2021-04-03_12h23.04.543,Colour_Similarity_Experiment,2020.2.10,Win32,60,60674ec340277cd6a308bc9f,17.23173804,16.68634969,16.68769716,16.71864632,16.67651515,16.68769716,,,,,,,,,,,,,,,,,,,,PF,strong,3,,,,,,,,4,2.133,,,,,,,,,,,,,,,,,,,,,,,,,,,,7,strong,38,-61,1,0,0,response3disk,5,71,14,5,1,0,0,rectangle,14,5,1,0,0,0,3,0.002,14,5,1,0,0,0,70,70,156,1,0,,,,,,,,,,,,,,,,,,,,,
,,,,,,,,,,,,,,,,,,,,,,,,,,,,,,,,,,,,,,,,,,5ebaa88e5271270008af01d5,606841ea113423a35d181197,2021-04-03_12h23.04.543,Colour_Similarity_Experiment,2020.2.10,Win32,60,60674ec340277cd6a308bc9f,17.23173804,16.68634969,16.68769716,16.71864632,16.67651515,16.68769716,,,,,,,,,,,,,,,,,,,,PF,strong,3,,,,,,,,7,1.633,,,,,,,,,,,,,,,,,,,,,,,,,,,,9,strong,39,61,1,0,0,response1disk,2,72,11,-13,1,0,0,rectangle,27,-70,1,0,0,4,4,1.549,5,-9,1,0,0,0,71,71,11,1,1,response3disk_3,rectangle,,,,,,,,,,,,,,,,,,,
,,,,,,,,,,,,,,,,,,,,,,,,,,,,,,,,,,,,,,,,,,5ebaa88e5271270008af01d5,606841ea113423a35d181197,2021-04-03_12h23.04.543,Colour_Similarity_Experiment,2020.2.10,Win32,60,60674ec340277cd6a308bc9f,17.23173804,16.68634969,16.68769716,16.71864632,16.67651515,16.68769716,,,,,,,,,,,,,,,,,,,,PF,weak,3,,,,,,,,6,1,,,,,,,,,,,,,,,,,,,,,,,,,,,,9,weak,56,30,1,0,0,response1disk,4,73,17,3,1,0,0,rectangle,17,3,1,0,0,4,5,0.003,17,3,1,0,0,0,72,72,114,1,0,,,,,,,,,,,,,,,,,,,,,
,,,,,,,,,,,,,,,,,,,,,,,,,,,,,,,,,,,,,,,,,,5ebaa88e5271270008af01d5,606841ea113423a35d181197,2021-04-03_12h23.04.543,Colour_Similarity_Experiment,2020.2.10,Win32,60,60674ec340277cd6a308bc9f,17.23173804,16.68634969,16.68769716,16.71864632,16.67651515,16.68769716,,,,,,,,,,,,,,,,,,,,PF,strong,3,,,,,,,,2,1.384,,,,,,,,,,,,,,,,,,,,,,,,,,,,7,strong,-48,-30,1,0,0,response5disk,6,74,11,6,1,0,0,rectangle,11,6,1,0,0,4,5,0,11,6,1,0,0,0,73,73,31,1,0,,,,,,,,,,,,,,,,,,,,,
,,,,,,,,,,,,,,,,,,,,,,,,,,,,,,,,,,,,,,,,,,5ebaa88e5271270008af01d5,606841ea113423a35d181197,2021-04-03_12h23.04.543,Colour_Similarity_Experiment,2020.2.10,Win32,60,60674ec340277cd6a308bc9f,17.23173804,16.68634969,16.68769716,16.71864632,16.67651515,16.68769716,,,,,,,,,,,,,,,,,,,,PF,weak,3,,,,,,,,7,1.717,,,,,,,,,,,,,,,,,,,,,,,,,,,,5,weak,38,55,1,0,0,response1disk,1,75,13,4,1,0,0,rectangle,-100,-37,1,0,0,4,2,3.066,-3,-3,1,0,0,0,74,74,159,1,1,response5disk_3,rectangle,,,,,,,,,,,,,,,,,,,
,,,,,,,,,,,,,,,,,,,,,,,,,,,,,,,,,,,,,,,,,,5ebaa88e5271270008af01d5,606841ea113423a35d181197,2021-04-03_12h23.04.543,Colour_Similarity_Experiment,2020.2.10,Win32,60,60674ec340277cd6a308bc9f,17.23173804,16.68634969,16.68769716,16.71864632,16.67651515,16.68769716,,,,,,,,,,,,,,,,,,,,PF,weak,3,,,,,,,,3,1.599,,,,,,,,,,,,,,,,,,,,,,,,,,,,3,weak,-23,-52,1,0,0,response5disk,6,76,5,-9,1,0,0,rectangle,5,-9,1,0,0,4,3,0.004,5,-9,1,0,0,0,75,75,47,1,0,,,,,,,,,,,,,,,,,,,,,
,,,,,,,,,,,,,,,,,,,,,,,,,,,,,,,,,,,,,,,,,,5ebaa88e5271270008af01d5,606841ea113423a35d181197,2021-04-03_12h23.04.543,Colour_Similarity_Experiment,2020.2.10,Win32,60,60674ec340277cd6a308bc9f,17.23173804,16.68634969,16.68769716,16.71864632,16.67651515,16.68769716,,,,,,,,,,,,,,,,,,,,PF,strong,3,,,,,,,,7,1.25,,,,,,,,,,,,,,,,,,,,,,,,,,,,9,strong,31,44,1,0,0,response1disk,4,77,-5,-10,1,0,0,rectangle,-5,-10,1,0,0,4,7,0.003,-5,-10,1,0,0,0,76,76,60,1,0,,,,,,,,,,,,,,,,,,,,,
,,,,,,,,,,,,,,,,,,,,,,,,,,,,,,,,,,,,,,,,,,5ebaa88e5271270008af01d5,606841ea113423a35d181197,2021-04-03_12h23.04.543,Colour_Similarity_Experiment,2020.2.10,Win32,60,60674ec340277cd6a308bc9f,17.23173804,16.68634969,16.68769716,16.71864632,16.67651515,16.68769716,,,,,,,,,,,,,,,,,,,,PF,weak,3,,,,,,,,6,1.799,,,,,,,,,,,,,,,,,,,,,,,,,,,,9,weak,61,28,1,0,0,response1disk,2,78,19,-1,1,0,0,rectangle,19,-1,1,0,0,4,3,0.004,19,-1,1,0,0,0,77,77,157,1,0,,,,,,,,,,,,,,,,,,,,,
,,,,,,,,,,,,,,,,,,,,,,,,,,,,,,,,,,,,,,,,,,5ebaa88e5271270008af01d5,606841ea113423a35d181197,2021-04-03_12h23.04.543,Colour_Similarity_Experiment,2020.2.10,Win32,60,60674ec340277cd6a308bc9f,17.23173804,16.68634969,16.68769716,16.71864632,16.67651515,16.68769716,,,,,,,,,,,,,,,,,,,,PF,strong,3,,,,,,,,7,1.483,,,,,,,,,,,,,,,,,,,,,,,,,,,,6,strong,30,45,1,0,0,response1disk,1,79,10,-10,1,0,0,rectangle,10,-10,1,0,0,4,3,0,10,-10,1,0,0,0,78,78,5,1,0,,,,,,,,,,,,,,,,,,,,,
,,,,,,,,,,,,,,,,,,,,,,,,,,,,,,,,,,,,,,,,,,5ebaa88e5271270008af01d5,606841ea113423a35d181197,2021-04-03_12h23.04.543,Colour_Similarity_Experiment,2020.2.10,Win32,60,60674ec340277cd6a308bc9f,17.23173804,16.68634969,16.68769716,16.71864632,16.67651515,16.68769716,,,,,,,,,,,,,,,,,,,,PF,weak,3,,,,,,,,7,2.467,,,,,,,,,,,,,,,,,,,,,,,,,,,,1,weak,28,36,1,0,0,response1disk,3,80,12,-4,1,0,0,rectangle,12,-4,1,0,0,4,6,0.004,12,-4,1,0,0,0,79,79,1,1,0,,,,,,,,,,,,,,,,,,,,,
,,,,,,,,,,,,,,,,,,,,,,,,,,,,,,,,,,,,,,,,,,5ebaa88e5271270008af01d5,606841ea113423a35d181197,2021-04-03_12h23.04.543,Colour_Similarity_Experiment,2020.2.10,Win32,60,60674ec340277cd6a308bc9f,17.23173804,16.68634969,16.68769716,16.71864632,16.67651515,16.68769716,,,,,,,,,,,,,,,,,,,,PF,weak,3,,,,,,,,6,2.634,,,,,,,,,,,,,,,,,,,,,,,,,,,,7,weak,69,43,1,0,0,response1disk,5,81,21,13,1,0,0,rectangle,21,13,1,0,0,4,3,0.002,21,13,1,0,0,0,80,80,92,1,0,,,,,,,,,,,,,,,,,,,,,
,,,,,,,,,,,,,,,,,,,,,,,,,,,,,,,,,,,,,,,,,,5ebaa88e5271270008af01d5,606841ea113423a35d181197,2021-04-03_12h23.04.543,Colour_Similarity_Experiment,2020.2.10,Win32,60,60674ec340277cd6a308bc9f,17.23173804,16.68634969,16.68769716,16.71864632,16.67651515,16.68769716,,,,,,,,,,,,,,,,,,,,PF,strong,3,,,,,,,,7,1.65,,,,,,,,,,,,,,,,,,,,,,,,,,,,7,strong,28,48,1,0,0,response1disk,3,82,12,6,1,0,0,rectangle,12,6,1,0,0,4,2,0.003,12,6,1,0,0,0,81,81,73,1,0,,,,,,,,,,,,,,,,,,,,,
,,,,,,,,,,,,,,,,,,,,,,,,,,,,,,,,,,,,,,,,,,5ebaa88e5271270008af01d5,606841ea113423a35d181197,2021-04-03_12h23.04.543,Colour_Similarity_Experiment,2020.2.10,Win32,60,60674ec340277cd6a308bc9f,17.23173804,16.68634969,16.68769716,16.71864632,16.67651515,16.68769716,,,,,,,,,,,,,,,,,,,,PF,strong,3,,,,,,,,7,0.899,,,,,,,,,,,,,,,,,,,,,,,,,,,,8,strong,27,53,1,0,0,response1disk,3,83,10,0,1,0,0,rectangle,10,0,1,0,0,4,2,0.001,10,0,1,0,0,0,82,82,154,1,0,,,,,,,,,,,,,,,,,,,,,
,,,,,,,,,,,,,,,,,,,,,,,,,,,,,,,,,,,,,,,,,,5ebaa88e5271270008af01d5,606841ea113423a35d181197,2021-04-03_12h23.04.543,Colour_Similarity_Experiment,2020.2.10,Win32,60,60674ec340277cd6a308bc9f,17.23173804,16.68634969,16.68769716,16.71864632,16.67651515,16.68769716,,,,,,,,,,,,,,,,,,,,PF,strong,3,,,,,,,,7,1.166,,,,,,,,,,,,,,,,,,,,,,,,,,,,1,strong,24,37,1,0,0,response1disk,7,84,3,-3,1,0,0,rectangle,3,-3,1,0,0,4,4,0.004,3,-3,1,0,0,0,83,83,137,1,0,,,,,,,,,,,,,,,,,,,,,
,,,,,,,,,,,,,,,,,,,,,,,,,,,,,,,,,,,,,,,,,,5ebaa88e5271270008af01d5,606841ea113423a35d181197,2021-04-03_12h23.04.543,Colour_Similarity_Experiment,2020.2.10,Win32,60,60674ec340277cd6a308bc9f,17.23173804,16.68634969,16.68769716,16.71864632,16.67651515,16.68769716,,,,,,,,,,,,,,,,,,,,PF,weak,3,,,,,,,,0,1.082,,,,,,,,,,,,,,,,,,,,,,,,,,,,9,weak,-40,76,1,0,0,response7disk,9,85,-6,-2,1,0,0,rectangle,-6,-2,1,0,0,4,5,0.002,-6,-2,1,0,0,0,84,84,106,1,0,,,,,,,,,,,,,,,,,,,,,
,,,,,,,,,,,,,,,,,,,,,,,,,,,,,,,,,,,,,,,,,,5ebaa88e5271270008af01d5,606841ea113423a35d181197,2021-04-03_12h23.04.543,Colour_Similarity_Experiment,2020.2.10,Win32,60,60674ec340277cd6a308bc9f,17.23173804,16.68634969,16.68769716,16.71864632,16.67651515,16.68769716,,,,,,,,,,,,,,,,,,,,PF,strong,3,,,,,,,,3,2.215,,,,,,,,,,,,,,,,,,,,,,,,,,,,2,strong,-39,-83,1,0,0,response5disk,3,86,29,-4,1,0,0,rectangle,-31,-72,1,0,0,3,3,1.949,8,6,1,0,0,0,85,85,104,1,1,response5disk_3,rectangle,,,,,,,,,,,,,,,,,,,
,,,,,,,,,,,,,,,,,,,,,,,,,,,,,,,,,,,,,,,,,,5ebaa88e5271270008af01d5,606841ea113423a35d181197,2021-04-03_12h23.04.543,Colour_Similarity_Experiment,2020.2.10,Win32,60,60674ec340277cd6a308bc9f,17.23173804,16.68634969,16.68769716,16.71864632,16.67651515,16.68769716,,,,,,,,,,,,,,,,,,,,PF,strong,3,,,,,,,,6,2.749,,,,,,,,,,,,,,,,,,,,,,,,,,,,6,strong,114,25,1,0,0,response1disk,4,87,17,-5,1,0,0,rectangle,17,-5,1,0,0,3,4,0.004,17,-5,1,0,0,0,86,86,56,1,0,,,,,,,,,,,,,,,,,,,,,
,,,,,,,,,,,,,,,,,,,,,,,,,,,,,,,,,,,,,,,,,,5ebaa88e5271270008af01d5,606841ea113423a35d181197,2021-04-03_12h23.04.543,Colour_Similarity_Experiment,2020.2.10,Win32,60,60674ec340277cd6a308bc9f,17.23173804,16.68634969,16.68769716,16.71864632,16.67651515,16.68769716,,,,,,,,,,,,,,,,,,,,PF,weak,3,,,,,,,,1,1.366,,,,,,,,,,,,,,,,,,,,,,,,,,,,5,weak,-68,34,1,0,0,response7disk,7,88,-2,0,1,0,0,rectangle,-2,0,1,0,0,3,3,0.003,-2,0,1,0,0,0,87,87,146,1,0,,,,,,,,,,,,,,,,,,,,,
,,,,,,,,,,,,,,,,,,,,,,,,,,,,,,,,,,,,,,,,,,5ebaa88e5271270008af01d5,606841ea113423a35d181197,2021-04-03_12h23.04.543,Colour_Similarity_Experiment,2020.2.10,Win32,60,60674ec340277cd6a308bc9f,17.23173804,16.68634969,16.68769716,16.71864632,16.67651515,16.68769716,,,,,,,,,,,,,,,,,,,,PF,strong,3,,,,,,,,6,2.35,,,,,,,,,,,,,,,,,,,,,,,,,,,,8,strong,83,33,1,0,0,response1disk,2,89,-1,-6,1,0,0,rectangle,-1,-6,1,0,0,3,3,0,-1,-6,1,0,0,0,88,88,22,1,0,,,,,,,,,,,,,,,,,,,,,
,,,,,,,,,,,,,,,,,,,,,,,,,,,,,,,,,,,,,,,,,,5ebaa88e5271270008af01d5,606841ea113423a35d181197,2021-04-03_12h23.04.543,Colour_Similarity_Experiment,2020.2.10,Win32,60,60674ec340277cd6a308bc9f,17.23173804,16.68634969,16.68769716,16.71864632,16.67651515,16.68769716,,,,,,,,,,,,,,,,,,,,PF,strong,3,,,,,,,,6,1.85,,,,,,,,,,,,,,,,,,,,,,,,,,,,2,strong,53,17,1,0,0,response1disk,8,90,16,-2,1,0,0,rectangle,16,-2,1,0,0,3,0,0.004,16,-2,1,0,0,0,89,89,62,1,0,,,,,,,,,,,,,,,,,,,,,
,,,,,,,,,,,,,,,,,,,,,,,,,,,,,,,,,,,,,,,,,,5ebaa88e5271270008af01d5,606841ea113423a35d181197,2021-04-03_12h23.04.543,Colour_Similarity_Experiment,2020.2.10,Win32,60,60674ec340277cd6a308bc9f,17.23173804,16.68634969,16.68769716,16.71864632,16.67651515,16.68769716,,,,,,,,,,,,,,,,,,,,PF,weak,3,,,,,,,,2,2.5,,,,,,,,,,,,,,,,,,,,,,,,,,,,3,weak,-81,-47,1,0,0,response5disk,2,91,12,-6,1,0,0,rectangle,-56,28,1,0,0,1,1,1.466,7,-8,1,0,0,0,90,90,36,1,1,response7disk_3,rectangle,,,,,,,,,,,,,,,,,,,
,,,,,,,,,,,,,,,,,,,,,,,,,,,,,,,,,,,,,,,,,,5ebaa88e5271270008af01d5,606841ea113423a35d181197,2021-04-03_12h23.04.543,Colour_Similarity_Experiment,2020.2.10,Win32,60,60674ec340277cd6a308bc9f,17.23173804,16.68634969,16.68769716,16.71864632,16.67651515,16.68769716,,,,,,,,,,,,,,,,,,,,PF,strong,3,,,,,,,,5,2.45,,,,,,,,,,,,,,,,,,,,,,,,,,,,5,strong,88,-45,1,0,0,response3disk,8,92,8,1,1,0,0,rectangle,8,1,1,0,0,1,4,0.005,8,1,1,0,0,0,91,91,16,1,0,,,,,,,,,,,,,,,,,,,,,
,,,,,,,,,,,,,,,,,,,,,,,,,,,,,,,,,,,,,,,,,,5ebaa88e5271270008af01d5,606841ea113423a35d181197,2021-04-03_12h23.04.543,Colour_Similarity_Experiment,2020.2.10,Win32,60,60674ec340277cd6a308bc9f,17.23173804,16.68634969,16.68769716,16.71864632,16.67651515,16.68769716,,,,,,,,,,,,,,,,,,,,PF,weak,3,,,,,,,,3,1.833,,,,,,,,,,,,,,,,,,,,,,,,,,,,2,weak,-38,-76,1,0,0,response5disk,1,93,7,4,1,0,0,rectangle,7,4,1,0,0,1,6,0.003,7,4,1,0,0,0,92,92,9,1,0,,,,,,,,,,,,,,,,,,,,,
,,,,,,,,,,,,,,,,,,,,,,,,,,,,,,,,,,,,,,,,,,5ebaa88e5271270008af01d5,606841ea113423a35d181197,2021-04-03_12h23.04.543,Colour_Similarity_Experiment,2020.2.10,Win32,60,60674ec340277cd6a308bc9f,17.23173804,16.68634969,16.68769716,16.71864632,16.67651515,16.68769716,,,,,,,,,,,,,,,,,,,,PF,weak,3,,,,,,,,1,2.649,,,,,,,,,,,,,,,,,,,,,,,,,,,,6,weak,-68,38,1,0,0,response7disk,6,94,-8,0,1,0,0,rectangle,-8,0,1,0,0,1,4,0.004,-8,0,1,0,0,0,93,93,0,1,0,,,,,,,,,,,,,,,,,,,,,
,,,,,,,,,,,,,,,,,,,,,,,,,,,,,,,,,,,,,,,,,,5ebaa88e5271270008af01d5,606841ea113423a35d181197,2021-04-03_12h23.04.543,Colour_Similarity_Experiment,2020.2.10,Win32,60,60674ec340277cd6a308bc9f,17.23173804,16.68634969,16.68769716,16.71864632,16.67651515,16.68769716,,,,,,,,,,,,,,,,,,,,PF,weak,3,,,,,,,,1,2.116,,,,,,,,,,,,,,,,,,,,,,,,,,,,1,weak,-61,39,1,0,0,response7disk,1,95,-14,10,1,0,0,rectangle,-28,53,1,0,0,0,0,1.699,3,-1,1,0,0,0,94,94,76,1,1,response7disk_3,rectangle,,,,,,,,,,,,,,,,,,,
,,,,,,,,,,,,,,,,,,,,,,,,,,,,,,,,,,,,,,,,,,5ebaa88e5271270008af01d5,606841ea113423a35d181197,2021-04-03_12h23.04.543,Colour_Similarity_Experiment,2020.2.10,Win32,60,60674ec340277cd6a308bc9f,17.23173804,16.68634969,16.68769716,16.71864632,16.67651515,16.68769716,,,,,,,,,,,,,,,,,,,,PF,strong,3,,,,,,,,0,1.049,,,,,,,,,,,,,,,,,,,,,,,,,,,,5,strong,-16,36,1,0,0,response7disk,5,96,-18,-4,1,0,0,rectangle,-18,-4,1,0,0,0,5,0.003,-18,-4,1,0,0,0,95,95,19,1,0,,,,,,,,,,,,,,,,,,,,,
,,,,,,,,,,,,,,,,,,,,,,,,,,,,,,,,,,,,,,,,,,5ebaa88e5271270008af01d5,606841ea113423a35d181197,2021-04-03_12h23.04.543,Colour_Similarity_Experiment,2020.2.10,Win32,60,60674ec340277cd6a308bc9f,17.23173804,16.68634969,16.68769716,16.71864632,16.67651515,16.68769716,,,,,,,,,,,,,,,,,,,,PF,strong,3,,,,,,,,7,1.45,,,,,,,,,,,,,,,,,,,,,,,,,,,,4,strong,26,40,1,0,0,response1disk,8,97,5,14,1,0,0,rectangle,5,14,1,0,0,0,0,0.003,5,14,1,0,0,0,96,96,35,1,0,,,,,,,,,,,,,,,,,,,,,
,,,,,,,,,,,,,,,,,,,,,,,,,,,,,,,,,,,,,,,,,,5ebaa88e5271270008af01d5,606841ea113423a35d181197,2021-04-03_12h23.04.543,Colour_Similarity_Experiment,2020.2.10,Win32,60,60674ec340277cd6a308bc9f,17.23173804,16.68634969,16.68769716,16.71864632,16.67651515,16.68769716,,,,,,,,,,,,,,,,,,,,PF,strong,3,,,,,,,,7,1.299,,,,,,,,,,,,,,,,,,,,,,,,,,,,2,strong,25,34,1,0,0,response1disk,6,98,3,4,1,0,0,rectangle,3,4,1,0,0,0,5,0.003,3,4,1,0,0,0,97,97,40,1,0,,,,,,,,,,,,,,,,,,,,,
,,,,,,,,,,,,,,,,,,,,,,,,,,,,,,,,,,,,,,,,,,5ebaa88e5271270008af01d5,606841ea113423a35d181197,2021-04-03_12h23.04.543,Colour_Similarity_Experiment,2020.2.10,Win32,60,60674ec340277cd6a308bc9f,17.23173804,16.68634969,16.68769716,16.71864632,16.67651515,16.68769716,,,,,,,,,,,,,,,,,,,,PF,strong,3,,,,,,,,7,1.051,,,,,,,,,,,,,,,,,,,,,,,,,,,,4,strong,30,40,1,0,0,response1disk,1,99,4,0,1,0,0,rectangle,4,0,1,0,0,0,7,0.002,4,0,1,0,0,0,98,98,102,1,0,,,,,,,,,,,,,,,,,,,,,
,,,,,,,,,,,,,,,,,,,,,,,,,,,,,,,,,,,,,,,,,,5ebaa88e5271270008af01d5,606841ea113423a35d181197,2021-04-03_12h23.04.543,Colour_Similarity_Experiment,2020.2.10,Win32,60,60674ec340277cd6a308bc9f,17.23173804,16.68634969,16.68769716,16.71864632,16.67651515,16.68769716,,,,,,,,,,,,,,,,,,,,PF,weak,3,,,,,,,,5,1.549,,,,,,,,,,,,,,,,,,,,,,,,,,,,6,weak,77,-38,1,0,0,response3disk,8,100,-12,12,1,0,0,rectangle,-12,12,1,0,0,0,5,0.004,-12,12,1,0,0,0,99,99,64,1,0,,,,,,,,,,,,,,,,,,,,,
,,,,,,,,,,,,,,,,,,,,,,,,,,,,,,,,,,,,,,,,,,5ebaa88e5271270008af01d5,606841ea113423a35d181197,2021-04-03_12h23.04.543,Colour_Similarity_Experiment,2020.2.10,Win32,60,60674ec340277cd6a308bc9f,17.23173804,16.68634969,16.68769716,16.71864632,16.67651515,16.68769716,,,,,,,,,,,,,,,,,,,,PF,strong,3,,,,,,,,6,2.566,,,,,,,,,,,,,,,,,,,,,,,,,,,,6,strong,68,39,1,0,0,response1disk,3,101,9,2,1,0,0,rectangle,9,2,1,0,0,0,3,0.002,9,2,1,0,0,0,100,100,21,1,0,,,,,,,,,,,,,,,,,,,,,
,,,,,,,,,,,,,,,,,,,,,,,,,,,,,,,,,,,,,,,,,,5ebaa88e5271270008af01d5,606841ea113423a35d181197,2021-04-03_12h23.04.543,Colour_Similarity_Experiment,2020.2.10,Win32,60,60674ec340277cd6a308bc9f,17.23173804,16.68634969,16.68769716,16.71864632,16.67651515,16.68769716,,,,,,,,,,,,,,,,,,,,PF,strong,3,,,,,,,,7,1.7,,,,,,,,,,,,,,,,,,,,,,,,,,,,6,strong,24,36,1,0,0,response1disk,2,102,-5,-9,1,0,0,rectangle,-5,-9,1,0,0,0,7,0.002,-5,-9,1,0,0,0,101,101,112,1,0,,,,,,,,,,,,,,,,,,,,,
,,,,,,,,,,,,,,,,,,,,,,,,,,,,,,,,,,,,,,,,,,5ebaa88e5271270008af01d5,606841ea113423a35d181197,2021-04-03_12h23.04.543,Colour_Similarity_Experiment,2020.2.10,Win32,60,60674ec340277cd6a308bc9f,17.23173804,16.68634969,16.68769716,16.71864632,16.67651515,16.68769716,,,,,,,,,,,,,,,,,,,,PF,weak,3,,,,,,,,0,0.966,,,,,,,,,,,,,,,,,,,,,,,,,,,,8,weak,-32,69,1,0,0,response7disk,8,103,-7,7,1,0,0,rectangle,-7,7,1,0,0,0,5,0.004,-7,7,1,0,0,0,102,102,153,1,0,,,,,,,,,,,,,,,,,,,,,
,,,,,,,,,,,,,,,,,,,,,,,,,,,,,,,,,,,,,,,,,,5ebaa88e5271270008af01d5,606841ea113423a35d181197,2021-04-03_12h23.04.543,Colour_Similarity_Experiment,2020.2.10,Win32,60,60674ec340277cd6a308bc9f,17.23173804,16.68634969,16.68769716,16.71864632,16.67651515,16.68769716,,,,,,,,,,,,,,,,,,,,PF,strong,3,,,,,,,,7,2.7,,,,,,,,,,,,,,,,,,,,,,,,,,,,4,strong,66,83,1,0,0,response1disk,7,104,11,11,1,0,0,rectangle,11,11,1,0,0,0,2,0.003,11,11,1,0,0,0,103,103,87,1,0,,,,,,,,,,,,,,,,,,,,,
,,,,,,,,,,,,,,,,,,,,,,,,,,,,,,,,,,,,,,,,,,5ebaa88e5271270008af01d5,606841ea113423a35d181197,2021-04-03_12h23.04.543,Colour_Similarity_Experiment,2020.2.10,Win32,60,60674ec340277cd6a308bc9f,17.23173804,16.68634969,16.68769716,16.71864632,16.67651515,16.68769716,,,,,,,,,,,,,,,,,,,,PF,strong,3,,,,,,,,5,2.234,,,,,,,,,,,,,,,,,,,,,,,,,,,,8,strong,100,-31,1,0,0,response3disk,7,105,30,2,1,0,0,rectangle,30,2,1,0,0,0,6,0.004,30,2,1,0,0,0,104,104,86,1,0,,,,,,,,,,,,,,,,,,,,,
,,,,,,,,,,,,,,,,,,,,,,,,,,,,,,,,,,,,,,,,,,5ebaa88e5271270008af01d5,606841ea113423a35d181197,2021-04-03_12h23.04.543,Colour_Similarity_Experiment,2020.2.10,Win32,60,60674ec340277cd6a308bc9f,17.23173804,16.68634969,16.68769716,16.71864632,16.67651515,16.68769716,,,,,,,,,,,,,,,,,,,,PF,weak,3,,,,,,,,7,1.216,,,,,,,,,,,,,,,,,,,,,,,,,,,,8,weak,48,54,1,0,0,response1disk,3,106,10,-1,1,0,0,rectangle,10,-1,1,0,0,0,4,0.003,10,-1,1,0,0,0,105,105,71,1,0,,,,,,,,,,,,,,,,,,,,,
,,,,,,,,,,,,,,,,,,,,,,,,,,,,,,,,,,,,,,,,,,5ebaa88e5271270008af01d5,606841ea113423a35d181197,2021-04-03_12h23.04.543,Colour_Similarity_Experiment,2020.2.10,Win32,60,60674ec340277cd6a308bc9f,17.23173804,16.68634969,16.68769716,16.71864632,16.67651515,16.68769716,,,,,,,,,,,,,,,,,,,,PF,strong,3,,,,,,,,6,1.684,,,,,,,,,,,,,,,,,,,,,,,,,,,,7,strong,83,24,1,0,0,response1disk,8,107,-11,9,1,0,0,rectangle,-42,-59,1,0,0,3,3,2.348,0,3,1,0,0,0,106,106,97,1,1,response5disk_3,rectangle,,,,,,,,,,,,,,,,,,,
,,,,,,,,,,,,,,,,,,,,,,,,,,,,,,,,,,,,,,,,,,5ebaa88e5271270008af01d5,606841ea113423a35d181197,2021-04-03_12h23.04.543,Colour_Similarity_Experiment,2020.2.10,Win32,60,60674ec340277cd6a308bc9f,17.23173804,16.68634969,16.68769716,16.71864632,16.67651515,16.68769716,,,,,,,,,,,,,,,,,,,,PF,weak,3,,,,,,,,5,2.2,,,,,,,,,,,,,,,,,,,,,,,,,,,,1,weak,47,-29,1,0,0,response3disk,5,108,26,-14,1,0,0,rectangle,26,-14,1,0,0,3,4,0.004,26,-14,1,0,0,0,107,107,28,1,0,,,,,,,,,,,,,,,,,,,,,
,,,,,,,,,,,,,,,,,,,,,,,,,,,,,,,,,,,,,,,,,,5ebaa88e5271270008af01d5,606841ea113423a35d181197,2021-04-03_12h23.04.543,Colour_Similarity_Experiment,2020.2.10,Win32,60,60674ec340277cd6a308bc9f,17.23173804,16.68634969,16.68769716,16.71864632,16.67651515,16.68769716,,,,,,,,,,,,,,,,,,,,PF,strong,3,,,,,,,,3,2.217,,,,,,,,,,,,,,,,,,,,,,,,,,,,1,strong,-32,-67,1,0,0,response5disk,2,109,15,2,1,0,0,rectangle,15,2,1,0,0,3,5,0.004,15,2,1,0,0,0,108,108,2,1,0,,,,,,,,,,,,,,,,,,,,,
,,,,,,,,,,,,,,,,,,,,,,,,,,,,,,,,,,,,,,,,,,5ebaa88e5271270008af01d5,606841ea113423a35d181197,2021-04-03_12h23.04.543,Colour_Similarity_Experiment,2020.2.10,Win32,60,60674ec340277cd6a308bc9f,17.23173804,16.68634969,16.68769716,16.71864632,16.67651515,16.68769716,,,,,,,,,,,,,,,,,,,,PF,weak,3,,,,,,,,7,1.016,,,,,,,,,,,,,,,,,,,,,,,,,,,,7,weak,34,58,1,0,0,response1disk,3,110,7,2,1,0,0,rectangle,7,2,1,0,0,3,1,0.004,7,2,1,0,0,0,109,109,81,1,0,,,,,,,,,,,,,,,,,,,,,
,,,,,,,,,,,,,,,,,,,,,,,,,,,,,,,,,,,,,,,,,,5ebaa88e5271270008af01d5,606841ea113423a35d181197,2021-04-03_12h23.04.543,Colour_Similarity_Experiment,2020.2.10,Win32,60,60674ec340277cd6a308bc9f,17.23173804,16.68634969,16.68769716,16.71864632,16.67651515,16.68769716,,,,,,,,,,,,,,,,,,,,PF,strong,3,,,,,,,,3,2.216,,,,,,,,,,,,,,,,,,,,,,,,,,,,3,strong,-31,-54,1,0,0,response5disk,2,111,-20,-1,1,0,0,rectangle,-20,-1,1,0,0,3,5,0.003,-20,-1,1,0,0,0,110,110,93,1,0,,,,,,,,,,,,,,,,,,,,,
,,,,,,,,,,,,,,,,,,,,,,,,,,,,,,,,,,,,,,,,,,5ebaa88e5271270008af01d5,606841ea113423a35d181197,2021-04-03_12h23.04.543,Colour_Similarity_Experiment,2020.2.10,Win32,60,60674ec340277cd6a308bc9f,17.23173804,16.68634969,16.68769716,16.71864632,16.67651515,16.68769716,,,,,,,,,,,,,,,,,,,,PF,weak,3,,,,,,,,7,2.015,,,,,,,,,,,,,,,,,,,,,,,,,,,,9,weak,59,66,1,0,0,response1disk,5,112,14,-4,1,0,0,rectangle,14,-4,1,0,0,3,1,0.003,14,-4,1,0,0,0,111,111,134,1,0,,,,,,,,,,,,,,,,,,,,,
,,,,,,,,,,,,,,,,,,,,,,,,,,,,,,,,,,,,,,,,,,5ebaa88e5271270008af01d5,606841ea113423a35d181197,2021-04-03_12h23.04.543,Colour_Similarity_Experiment,2020.2.10,Win32,60,60674ec340277cd6a308bc9f,17.23173804,16.68634969,16.68769716,16.71864632,16.67651515,16.68769716,,,,,,,,,,,,,,,,,,,,PF,weak,3,,,,,,,,5,2.232,,,,,,,,,,,,,,,,,,,,,,,,,,,,6,weak,99,-39,1,0,0,response3disk,4,113,29,-4,1,0,0,rectangle,29,-4,1,0,0,3,5,0.004,29,-4,1,0,0,0,112,112,33,1,0,,,,,,,,,,,,,,,,,,,,,
,,,,,,,,,,,,,,,,,,,,,,,,,,,,,,,,,,,,,,,,,,5ebaa88e5271270008af01d5,606841ea113423a35d181197,2021-04-03_12h23.04.543,Colour_Similarity_Experiment,2020.2.10,Win32,60,60674ec340277cd6a308bc9f,17.23173804,16.68634969,16.68769716,16.71864632,16.67651515,16.68769716,,,,,,,,,,,,,,,,,,,,PF,strong,3,,,,,,,,6,1.915,,,,,,,,,,,,,,,,,,,,,,,,,,,,2,strong,59,20,1,0,0,response1disk,4,114,27,-1,1,0,0,rectangle,27,-1,1,0,0,3,0,0.003,27,-1,1,0,0,0,113,113,145,1,0,,,,,,,,,,,,,,,,,,,,,
,,,,,,,,,,,,,,,,,,,,,,,,,,,,,,,,,,,,,,,,,,5ebaa88e5271270008af01d5,606841ea113423a35d181197,2021-04-03_12h23.04.543,Colour_Similarity_Experiment,2020.2.10,Win32,60,60674ec340277cd6a308bc9f,17.23173804,16.68634969,16.68769716,16.71864632,16.67651515,16.68769716,,,,,,,,,,,,,,,,,,,,PF,strong,3,,,,,,,,0,1.25,,,,,,,,,,,,,,,,,,,,,,,,,,,,7,strong,-25,62,1,0,0,response7disk,7,115,5,-6,1,0,0,rectangle,5,-6,1,0,0,3,2,0.002,5,-6,1,0,0,0,114,114,34,1,0,,,,,,,,,,,,,,,,,,,,,
,,,,,,,,,,,,,,,,,,,,,,,,,,,,,,,,,,,,,,,,,,5ebaa88e5271270008af01d5,606841ea113423a35d181197,2021-04-03_12h23.04.543,Colour_Similarity_Experiment,2020.2.10,Win32,60,60674ec340277cd6a308bc9f,17.23173804,16.68634969,16.68769716,16.71864632,16.67651515,16.68769716,,,,,,,,,,,,,,,,,,,,PF,strong,3,,,,,,,,3,1.85,,,,,,,,,,,,,,,,,,,,,,,,,,,,8,strong,-18,-62,1,0,0,response5disk,1,116,12,0,1,0,0,rectangle,12,0,1,0,0,3,1,0.004,12,0,1,0,0,0,115,115,20,1,0,,,,,,,,,,,,,,,,,,,,,
,,,,,,,,,,,,,,,,,,,,,,,,,,,,,,,,,,,,,,,,,,5ebaa88e5271270008af01d5,606841ea113423a35d181197,2021-04-03_12h23.04.543,Colour_Similarity_Experiment,2020.2.10,Win32,60,60674ec340277cd6a308bc9f,17.23173804,16.68634969,16.68769716,16.71864632,16.67651515,16.68769716,,,,,,,,,,,,,,,,,,,,PF,weak,3,,,,,,,,1,1.7,,,,,,,,,,,,,,,,,,,,,,,,,,,,4,weak,-76,23,1,0,0,response7disk,3,117,-25,-3,1,0,0,rectangle,-25,-3,1,0,0,3,7,0.002,-25,-3,1,0,0,0,116,116,89,1,0,,,,,,,,,,,,,,,,,,,,,
,,,,,,,,,,,,,,,,,,,,,,,,,,,,,,,,,,,,,,,,,,5ebaa88e5271270008af01d5,606841ea113423a35d181197,2021-04-03_12h23.04.543,Colour_Similarity_Experiment,2020.2.10,Win32,60,60674ec340277cd6a308bc9f,17.23173804,16.68634969,16.68769716,16.71864632,16.67651515,16.68769716,,,,,,,,,,,,,,,,,,,,PF,weak,3,,,,,,,,1,1.182,,,,,,,,,,,,,,,,,,,,,,,,,,,,3,weak,-66,21,1,0,0,response7disk,4,118,-21,7,1,0,0,rectangle,-21,7,1,0,0,3,1,0.003,-21,7,1,0,0,0,117,117,30,1,0,,,,,,,,,,,,,,,,,,,,,
,,,,,,,,,,,,,,,,,,,,,,,,,,,,,,,,,,,,,,,,,,5ebaa88e5271270008af01d5,606841ea113423a35d181197,2021-04-03_12h23.04.543,Colour_Similarity_Experiment,2020.2.10,Win32,60,60674ec340277cd6a308bc9f,17.23173804,16.68634969,16.68769716,16.71864632,16.67651515,16.68769716,,,,,,,,,,,,,,,,,,,,PF,weak,3,,,,,,,,3,2.199,,,,,,,,,,,,,,,,,,,,,,,,,,,,9,weak,-40,-63,1,0,0,response5disk,1,119,-14,-12,1,0,0,rectangle,-14,-12,1,0,0,3,5,0.002,-14,-12,1,0,0,0,118,118,74,1,0,,,,,,,,,,,,,,,,,,,,,
,,,,,,,,,,,,,,,,,,,,,,,,,,,,,,,,,,,,,,,,,,5ebaa88e5271270008af01d5,606841ea113423a35d181197,2021-04-03_12h23.04.543,Colour_Similarity_Experiment,2020.2.10,Win32,60,60674ec340277cd6a308bc9f,17.23173804,16.68634969,16.68769716,16.71864632,16.67651515,16.68769716,,,,,,,,,,,,,,,,,,,,PF,strong,3,,,,,,,,7,1.249,,,,,,,,,,,,,,,,,,,,,,,,,,,,3,strong,36,64,1,0,0,response1disk,9,120,1,-4,1,0,0,rectangle,1,-4,1,0,0,3,5,0.001,1,-4,1,0,0,0,119,119,143,1,0,,,,,,,,,,,,,,,,,,,,,
,,,,,,,,,,,,,,,,,,,,,,,,,,,,,,,,,,,,,,,,,,5ebaa88e5271270008af01d5,606841ea113423a35d181197,2021-04-03_12h23.04.543,Colour_Similarity_Experiment,2020.2.10,Win32,60,60674ec340277cd6a308bc9f,17.23173804,16.68634969,16.68769716,16.71864632,16.67651515,16.68769716,,,,,,,,,,,,,,,,,,,,PF,strong,3,,,,,,,,7,0.95,,,,,,,,,,,,,,,,,,,,,,,,,,,,7,strong,23,42,1,0,0,response1disk,1,121,-4,5,1,0,0,rectangle,-4,5,1,0,0,3,6,0.002,-4,5,1,0,0,0,120,120,132,1,0,,,,,,,,,,,,,,,,,,,,,
,,,,,,,,,,,,,,,,,,,,,,,,,,,,,,,,,,,,,,,,,,5ebaa88e5271270008af01d5,606841ea113423a35d181197,2021-04-03_12h23.04.543,Colour_Similarity_Experiment,2020.2.10,Win32,60,60674ec340277cd6a308bc9f,17.23173804,16.68634969,16.68769716,16.71864632,16.67651515,16.68769716,,,,,,,,,,,,,,,,,,,,PF,weak,3,,,,,,,,2,2.5,,,,,,,,,,,,,,,,,,,,,,,,,,,,5,weak,-59,-48,1,0,0,response5disk,3,122,0,-1,1,0,0,rectangle,0,-1,1,0,0,3,7,0.003,0,-1,1,0,0,0,121,121,109,1,0,,,,,,,,,,,,,,,,,,,,,
,,,,,,,,,,,,,,,,,,,,,,,,,,,,,,,,,,,,,,,,,,5ebaa88e5271270008af01d5,606841ea113423a35d181197,2021-04-03_12h23.04.543,Colour_Similarity_Experiment,2020.2.10,Win32,60,60674ec340277cd6a308bc9f,17.23173804,16.68634969,16.68769716,16.71864632,16.67651515,16.68769716,,,,,,,,,,,,,,,,,,,,PF,weak,3,,,,,,,,4,1.933,,,,,,,,,,,,,,,,,,,,,,,,,,,,2,weak,18,-75,1,0,0,response3disk,6,123,7,9,1,0,0,rectangle,7,9,1,0,0,3,0,0.003,7,9,1,0,0,0,122,122,113,1,0,,,,,,,,,,,,,,,,,,,,,
,,,,,,,,,,,,,,,,,,,,,,,,,,,,,,,,,,,,,,,,,,5ebaa88e5271270008af01d5,606841ea113423a35d181197,2021-04-03_12h23.04.543,Colour_Similarity_Experiment,2020.2.10,Win32,60,60674ec340277cd6a308bc9f,17.23173804,16.68634969,16.68769716,16.71864632,16.67651515,16.68769716,,,,,,,,,,,,,,,,,,,,PF,weak,3,,,,,,,,2,2.91,,,,,,,,,,,,,,,,,,,,,,,,,,,,1,weak,-78,-21,1,0,0,response5disk,9,124,31,-1,1,0,0,rectangle,31,-1,1,0,0,3,2,0.004,31,-1,1,0,0,0,123,123,15,1,0,,,,,,,,,,,,,,,,,,,,,
,,,,,,,,,,,,,,,,,,,,,,,,,,,,,,,,,,,,,,,,,,5ebaa88e5271270008af01d5,606841ea113423a35d181197,2021-04-03_12h23.04.543,Colour_Similarity_Experiment,2020.2.10,Win32,60,60674ec340277cd6a308bc9f,17.23173804,16.68634969,16.68769716,16.71864632,16.67651515,16.68769716,,,,,,,,,,,,,,,,,,,,PF,strong,3,,,,,,,,0,1,,,,,,,,,,,,,,,,,,,,,,,,,,,,9,strong,-23,61,1,0,0,response7disk,9,125,-16,0,1,0,0,rectangle,-16,0,1,0,0,3,0,0.003,-16,0,1,0,0,0,124,124,17,1,0,,,,,,,,,,,,,,,,,,,,,
,,,,,,,,,,,,,,,,,,,,,,,,,,,,,,,,,,,,,,,,,,5ebaa88e5271270008af01d5,606841ea113423a35d181197,2021-04-03_12h23.04.543,Colour_Similarity_Experiment,2020.2.10,Win32,60,60674ec340277cd6a308bc9f,17.23173804,16.68634969,16.68769716,16.71864632,16.67651515,16.68769716,,,,,,,,,,,,,,,,,,,,PF,weak,3,,,,,,,,6,1.367,,,,,,,,,,,,,,,,,,,,,,,,,,,,3,weak,46,33,1,0,0,response1disk,8,126,11,7,1,0,0,rectangle,11,7,1,0,0,3,7,0.003,11,7,1,0,0,0,125,125,3,1,0,,,,,,,,,,,,,,,,,,,,,
,,,,,,,,,,,,,,,,,,,,,,,,,,,,,,,,,,,,,,,,,,5ebaa88e5271270008af01d5,606841ea113423a35d181197,2021-04-03_12h23.04.543,Colour_Similarity_Experiment,2020.2.10,Win32,60,60674ec340277cd6a308bc9f,17.23173804,16.68634969,16.68769716,16.71864632,16.67651515,16.68769716,,,,,,,,,,,,,,,,,,,,PF,weak,3,,,,,,,,2,1.882,,,,,,,,,,,,,,,,,,,,,,,,,,,,8,weak,-76,-17,1,0,0,response5disk,4,127,17,11,1,0,0,rectangle,17,11,1,0,0,3,6,0.003,17,11,1,0,0,0,126,126,78,1,0,,,,,,,,,,,,,,,,,,,,,
,,,,,,,,,,,,,,,,,,,,,,,,,,,,,,,,,,,,,,,,,,5ebaa88e5271270008af01d5,606841ea113423a35d181197,2021-04-03_12h23.04.543,Colour_Similarity_Experiment,2020.2.10,Win32,60,60674ec340277cd6a308bc9f,17.23173804,16.68634969,16.68769716,16.71864632,16.67651515,16.68769716,,,,,,,,,,,,,,,,,,,,PF,weak,3,,,,,,,,7,1.182,,,,,,,,,,,,,,,,,,,,,,,,,,,,1,weak,40,56,1,0,0,response1disk,6,128,12,3,1,0,0,rectangle,12,3,1,0,0,3,5,0.003,12,3,1,0,0,0,127,127,144,1,0,,,,,,,,,,,,,,,,,,,,,
,,,,,,,,,,,,,,,,,,,,,,,,,,,,,,,,,,,,,,,,,,5ebaa88e5271270008af01d5,606841ea113423a35d181197,2021-04-03_12h23.04.543,Colour_Similarity_Experiment,2020.2.10,Win32,60,60674ec340277cd6a308bc9f,17.23173804,16.68634969,16.68769716,16.71864632,16.67651515,16.68769716,,,,,,,,,,,,,,,,,,,,PF,strong,3,,,,,,,,0,1.068,,,,,,,,,,,,,,,,,,,,,,,,,,,,6,strong,-21,87,1,0,0,response7disk,6,129,-8,7,1,0,0,rectangle,-8,7,1,0,0,3,6,0.003,-8,7,1,0,0,0,128,128,91,1,0,,,,,,,,,,,,,,,,,,,,,
,,,,,,,,,,,,,,,,,,,,,,,,,,,,,,,,,,,,,,,,,,5ebaa88e5271270008af01d5,606841ea113423a35d181197,2021-04-03_12h23.04.543,Colour_Similarity_Experiment,2020.2.10,Win32,60,60674ec340277cd6a308bc9f,17.23173804,16.68634969,16.68769716,16.71864632,16.67651515,16.68769716,,,,,,,,,,,,,,,,,,,,PF,strong,3,,,,,,,,7,1.117,,,,,,,,,,,,,,,,,,,,,,,,,,,,5,strong,32,64,1,0,0,response1disk,1,130,12,5,1,0,0,rectangle,12,5,1,0,0,3,7,0.004,12,5,1,0,0,0,129,129,131,1,0,,,,,,,,,,,,,,,,,,,,,
,,,,,,,,,,,,,,,,,,,,,,,,,,,,,,,,,,,,,,,,,,5ebaa88e5271270008af01d5,606841ea113423a35d181197,2021-04-03_12h23.04.543,Colour_Similarity_Experiment,2020.2.10,Win32,60,60674ec340277cd6a308bc9f,17.23173804,16.68634969,16.68769716,16.71864632,16.67651515,16.68769716,,,,,,,,,,,,,,,,,,,,PF,weak,3,,,,,,,,2,3.666,,,,,,,,,,,,,,,,,,,,,,,,,,,,5,weak,-80,-55,1,0,0,response5disk,4,131,1,2,1,0,0,rectangle,1,2,1,0,0,3,5,0.003,1,2,1,0,0,0,130,130,54,1,0,,,,,,,,,,,,,,,,,,,,,
,,,,,,,,,,,,,,,,,,,,,,,,,,,,,,,,,,,,,,,,,,5ebaa88e5271270008af01d5,606841ea113423a35d181197,2021-04-03_12h23.04.543,Colour_Similarity_Experiment,2020.2.10,Win32,60,60674ec340277cd6a308bc9f,17.23173804,16.68634969,16.68769716,16.71864632,16.67651515,16.68769716,,,,,,,,,,,,,,,,,,,,PF,strong,3,,,,,,,,5,2.183,,,,,,,,,,,,,,,,,,,,,,,,,,,,5,strong,56,-27,1,0,0,response3disk,2,132,-2,8,1,0,0,rectangle,-61,-90,1,0,0,3,3,2.115,5,-5,1,0,0,0,131,131,55,1,1,response5disk_3,rectangle,,,,,,,,,,,,,,,,,,,
,,,,,,,,,,,,,,,,,,,,,,,,,,,,,,,,,,,,,,,,,,5ebaa88e5271270008af01d5,606841ea113423a35d181197,2021-04-03_12h23.04.543,Colour_Similarity_Experiment,2020.2.10,Win32,60,60674ec340277cd6a308bc9f,17.23173804,16.68634969,16.68769716,16.71864632,16.67651515,16.68769716,,,,,,,,,,,,,,,,,,,,PF,strong,3,,,,,,,,6,3.117,,,,,,,,,,,,,,,,,,,,,,,,,,,,6,strong,93,25,1,0,0,response1disk,9,133,29,1,1,0,0,rectangle,-79,-45,1,0,0,3,2,2,4,2,1,0,0,0,132,132,160,1,1,response5disk_3,rectangle,,,,,,,,,,,,,,,,,,,
,,,,,,,,,,,,,,,,,,,,,,,,,,,,,,,,,,,,,,,,,,5ebaa88e5271270008af01d5,606841ea113423a35d181197,2021-04-03_12h23.04.543,Colour_Similarity_Experiment,2020.2.10,Win32,60,60674ec340277cd6a308bc9f,17.23173804,16.68634969,16.68769716,16.71864632,16.67651515,16.68769716,,,,,,,,,,,,,,,,,,,,PF,weak,3,,,,,,,,3,2.65,,,,,,,,,,,,,,,,,,,,,,,,,,,,2,weak,-37,-92,1,0,0,response5disk,4,134,-1,1,1,0,0,rectangle,-1,1,1,0,0,3,2,0,-1,1,1,0,0,0,133,133,127,1,0,,,,,,,,,,,,,,,,,,,,,
,,,,,,,,,,,,,,,,,,,,,,,,,,,,,,,,,,,,,,,,,,5ebaa88e5271270008af01d5,606841ea113423a35d181197,2021-04-03_12h23.04.543,Colour_Similarity_Experiment,2020.2.10,Win32,60,60674ec340277cd6a308bc9f,17.23173804,16.68634969,16.68769716,16.71864632,16.67651515,16.68769716,,,,,,,,,,,,,,,,,,,,PF,weak,3,,,,,,,,2,1.599,,,,,,,,,,,,,,,,,,,,,,,,,,,,8,weak,-63,-38,1,0,0,response5disk,9,135,9,-11,1,0,0,rectangle,9,-11,1,0,0,3,7,0.003,9,-11,1,0,0,0,134,134,42,1,0,,,,,,,,,,,,,,,,,,,,,
,,,,,,,,,,,,,,,,,,,,,,,,,,,,,,,,,,,,,,,,,,5ebaa88e5271270008af01d5,606841ea113423a35d181197,2021-04-03_12h23.04.543,Colour_Similarity_Experiment,2020.2.10,Win32,60,60674ec340277cd6a308bc9f,17.23173804,16.68634969,16.68769716,16.71864632,16.67651515,16.68769716,,,,,,,,,,,,,,,,,,,,PF,strong,3,,,,,,,,6,1.568,,,,,,,,,,,,,,,,,,,,,,,,,,,,7,strong,65,19,1,0,0,response1disk,4,136,0,-9,1,0,0,rectangle,0,-9,1,0,0,3,7,0,0,-9,1,0,0,0,135,135,158,1,0,,,,,,,,,,,,,,,,,,,,,
,,,,,,,,,,,,,,,,,,,,,,,,,,,,,,,,,,,,,,,,,,5ebaa88e5271270008af01d5,606841ea113423a35d181197,2021-04-03_12h23.04.543,Colour_Similarity_Experiment,2020.2.10,Win32,60,60674ec340277cd6a308bc9f,17.23173804,16.68634969,16.68769716,16.71864632,16.67651515,16.68769716,,,,,,,,,,,,,,,,,,,,PF,weak,3,,,,,,,,5,2.483,,,,,,,,,,,,,,,,,,,,,,,,,,,,8,weak,48,-33,1,0,0,response3disk,6,137,-6,2,1,0,0,rectangle,-31,-86,1,0,0,3,3,1.781,2,2,1,0,0,0,136,136,161,1,1,response5disk_3,rectangle,,,,,,,,,,,,,,,,,,,
,,,,,,,,,,,,,,,,,,,,,,,,,,,,,,,,,,,,,,,,,,5ebaa88e5271270008af01d5,606841ea113423a35d181197,2021-04-03_12h23.04.543,Colour_Similarity_Experiment,2020.2.10,Win32,60,60674ec340277cd6a308bc9f,17.23173804,16.68634969,16.68769716,16.71864632,16.67651515,16.68769716,,,,,,,,,,,,,,,,,,,,PF,weak,3,,,,,,,,4,2.75,,,,,,,,,,,,,,,,,,,,,,,,,,,,3,weak,30,-62,1,0,0,response3disk,9,138,3,-8,1,0,0,rectangle,3,-8,1,0,0,3,6,0.003,3,-8,1,0,0,0,137,137,79,1,0,,,,,,,,,,,,,,,,,,,,,
,,,,,,,,,,,,,,,,,,,,,,,,,,,,,,,,,,,,,,,,,,5ebaa88e5271270008af01d5,606841ea113423a35d181197,2021-04-03_12h23.04.543,Colour_Similarity_Experiment,2020.2.10,Win32,60,60674ec340277cd6a308bc9f,17.23173804,16.68634969,16.68769716,16.71864632,16.67651515,16.68769716,,,,,,,,,,,,,,,,,,,,PF,strong,3,,,,,,,,7,2.282,,,,,,,,,,,,,,,,,,,,,,,,,,,,4,strong,54,65,1,0,0,response1disk,6,139,12,-4,1,0,0,rectangle,12,-4,1,0,0,3,4,0.004,12,-4,1,0,0,0,138,138,122,1,0,,,,,,,,,,,,,,,,,,,,,
,,,,,,,,,,,,,,,,,,,,,,,,,,,,,,,,,,,,,,,,,,5ebaa88e5271270008af01d5,606841ea113423a35d181197,2021-04-03_12h23.04.543,Colour_Similarity_Experiment,2020.2.10,Win32,60,60674ec340277cd6a308bc9f,17.23173804,16.68634969,16.68769716,16.71864632,16.67651515,16.68769716,,,,,,,,,,,,,,,,,,,,PF,strong,3,,,,,,,,2,1.683,,,,,,,,,,,,,,,,,,,,,,,,,,,,3,strong,-87,-37,1,0,0,response5disk,4,140,-22,2,1,0,0,rectangle,-22,2,1,0,0,3,0,0.003,-22,2,1,0,0,0,139,139,110,1,0,,,,,,,,,,,,,,,,,,,,,
,,,,,,,,,,,,,,,,,,,,,,,,,,,,,,,,,,,,,,,,,,5ebaa88e5271270008af01d5,606841ea113423a35d181197,2021-04-03_12h23.04.543,Colour_Similarity_Experiment,2020.2.10,Win32,60,60674ec340277cd6a308bc9f,17.23173804,16.68634969,16.68769716,16.71864632,16.67651515,16.68769716,,,,,,,,,,,,,,,,,,,,PF,weak,3,,,,,,,,7,1.316,,,,,,,,,,,,,,,,,,,,,,,,,,,,6,weak,40,52,1,0,0,response1disk,9,141,18,-9,1,0,0,rectangle,18,-9,1,0,0,3,4,0.004,18,-9,1,0,0,0,140,140,45,1,0,,,,,,,,,,,,,,,,,,,,,
,,,,,,,,,,,,,,,,,,,,,,,,,,,,,,,,,,,,,,,,,,5ebaa88e5271270008af01d5,606841ea113423a35d181197,2021-04-03_12h23.04.543,Colour_Similarity_Experiment,2020.2.10,Win32,60,60674ec340277cd6a308bc9f,17.23173804,16.68634969,16.68769716,16.71864632,16.67651515,16.68769716,,,,,,,,,,,,,,,,,,,,PF,strong,3,,,,,,,,5,1.783,,,,,,,,,,,,,,,,,,,,,,,,,,,,5,strong,36,-32,1,0,0,response3disk,6,142,2,-3,1,0,0,rectangle,2,-3,1,0,0,3,7,0.004,2,-3,1,0,0,0,141,141,12,1,0,,,,,,,,,,,,,,,,,,,,,
,,,,,,,,,,,,,,,,,,,,,,,,,,,,,,,,,,,,,,,,,,5ebaa88e5271270008af01d5,606841ea113423a35d181197,2021-04-03_12h23.04.543,Colour_Similarity_Experiment,2020.2.10,Win32,60,60674ec340277cd6a308bc9f,17.23173804,16.68634969,16.68769716,16.71864632,16.67651515,16.68769716,,,,,,,,,,,,,,,,,,,,PF,strong,3,,,,,,,,7,1.184,,,,,,,,,,,,,,,,,,,,,,,,,,,,8,strong,33,62,1,0,0,response1disk,4,143,6,4,1,0,0,rectangle,6,4,1,0,0,3,2,0.003,6,4,1,0,0,0,142,142,88,1,0,,,,,,,,,,,,,,,,,,,,,
,,,,,,,,,,,,,,,,,,,,,,,,,,,,,,,,,,,,,,,,,,5ebaa88e5271270008af01d5,606841ea113423a35d181197,2021-04-03_12h23.04.543,Colour_Similarity_Experiment,2020.2.10,Win32,60,60674ec340277cd6a308bc9f,17.23173804,16.68634969,16.68769716,16.71864632,16.67651515,16.68769716,,,,,,,,,,,,,,,,,,,,PF,weak,3,,,,,,,,3,1.7,,,,,,,,,,,,,,,,,,,,,,,,,,,,9,weak,-21,-64,1,0,0,response5disk,8,144,-7,3,1,0,0,rectangle,-7,3,1,0,0,3,3,0.003,-7,3,1,0,0,0,143,143,67,1,0,,,,,,,,,,,,,,,,,,,,,
,,,,,,,,,,,,,,,,,,,,,,,,,,,,,,,,,,,,,,,,,,5ebaa88e5271270008af01d5,606841ea113423a35d181197,2021-04-03_12h23.04.543,Colour_Similarity_Experiment,2020.2.10,Win32,60,60674ec340277cd6a308bc9f,17.23173804,16.68634969,16.68769716,16.71864632,16.67651515,16.68769716,,,,,,,,,,,,,,,,,,,,PF,weak,3,,,,,,,,6,2.017,,,,,,,,,,,,,,,,,,,,,,,,,,,,6,weak,60,26,1,0,0,response1disk,1,145,13,3,1,0,0,rectangle,13,3,1,0,0,3,0,0.002,13,3,1,0,0,0,144,144,46,1,0,,,,,,,,,,,,,,,,,,,,,
,,,,,,,,,,,,,,,,,,,,,,,,,,,,,,,,,,,,,,,,,,5ebaa88e5271270008af01d5,606841ea113423a35d181197,2021-04-03_12h23.04.543,Colour_Similarity_Experiment,2020.2.10,Win32,60,60674ec340277cd6a308bc9f,17.23173804,16.68634969,16.68769716,16.71864632,16.67651515,16.68769716,,,,,,,,,,,,,,,,,,,,PF,strong,3,,,,,,,,7,1.017,,,,,,,,,,,,,,,,,,,,,,,,,,,,1,strong,34,53,1,0,0,response1disk,4,146,12,-15,1,0,0,rectangle,12,-15,1,0,0,3,2,0.004,12,-15,1,0,0,0,145,145,135,1,0,,,,,,,,,,,,,,,,,,,,,
,,,,,,,,,,,,,,,,,,,,,,,,,,,,,,,,,,,,,,,,,,5ebaa88e5271270008af01d5,606841ea113423a35d181197,2021-04-03_12h23.04.543,Colour_Similarity_Experiment,2020.2.10,Win32,60,60674ec340277cd6a308bc9f,17.23173804,16.68634969,16.68769716,16.71864632,16.67651515,16.68769716,,,,,,,,,,,,,,,,,,,,PF,strong,3,,,,,,,,5,1.865,,,,,,,,,,,,,,,,,,,,,,,,,,,,8,strong,53,-39,1,0,0,response3disk,6,147,18,1,1,0,0,rectangle,18,1,1,0,0,3,6,0.003,18,1,1,0,0,0,146,146,37,1,0,,,,,,,,,,,,,,,,,,,,,
,,,,,,,,,,,,,,,,,,,,,,,,,,,,,,,,,,,,,,,,,,5ebaa88e5271270008af01d5,606841ea113423a35d181197,2021-04-03_12h23.04.543,Colour_Similarity_Experiment,2020.2.10,Win32,60,60674ec340277cd6a308bc9f,17.23173804,16.68634969,16.68769716,16.71864632,16.67651515,16.68769716,,,,,,,,,,,,,,,,,,,,PF,strong,3,,,,,,,,5,1.967,,,,,,,,,,,,,,,,,,,,,,,,,,,,6,strong,48,-32,1,0,0,response3disk,8,148,24,-11,1,0,0,rectangle,24,-11,1,0,0,3,4,0.003,24,-11,1,0,0,0,147,147,133,1,0,,,,,,,,,,,,,,,,,,,,,
,,,,,,,,,,,,,,,,,,,,,,,,,,,,,,,,,,,,,,,,,,5ebaa88e5271270008af01d5,606841ea113423a35d181197,2021-04-03_12h23.04.543,Colour_Similarity_Experiment,2020.2.10,Win32,60,60674ec340277cd6a308bc9f,17.23173804,16.68634969,16.68769716,16.71864632,16.67651515,16.68769716,,,,,,,,,,,,,,,,,,,,PF,strong,3,,,,,,,,1,2.215,,,,,,,,,,,,,,,,,,,,,,,,,,,,6,strong,-107,34,1,0,0,response7disk,7,149,-11,-3,1,0,0,rectangle,-11,-3,1,0,0,3,6,0.002,-11,-3,1,0,0,0,148,148,18,1,0,,,,,,,,,,,,,,,,,,,,,
,,,,,,,,,,,,,,,,,,,,,,,,,,,,,,,,,,,,,,,,,,5ebaa88e5271270008af01d5,606841ea113423a35d181197,2021-04-03_12h23.04.543,Colour_Similarity_Experiment,2020.2.10,Win32,60,60674ec340277cd6a308bc9f,17.23173804,16.68634969,16.68769716,16.71864632,16.67651515,16.68769716,,,,,,,,,,,,,,,,,,,,PF,weak,3,,,,,,,,3,1.95,,,,,,,,,,,,,,,,,,,,,,,,,,,,3,weak,-25,-44,1,0,0,response5disk,5,150,-13,-13,1,0,0,rectangle,-13,-13,1,0,0,3,5,0.004,-13,-13,1,0,0,0,149,149,66,1,0,,,,,,,,,,,,,,,,,,,,,
,,,,,,,,,,,,,,,,,,,,,,,,,,,,,,,,,,,,,,,,,,5ebaa88e5271270008af01d5,606841ea113423a35d181197,2021-04-03_12h23.04.543,Colour_Similarity_Experiment,2020.2.10,Win32,60,60674ec340277cd6a308bc9f,17.23173804,16.68634969,16.68769716,16.71864632,16.67651515,16.68769716,,,,,,,,,,,,,,,,,,,,PF,strong,3,,,,,,,,6,2.75,,,,,,,,,,,,,,,,,,,,,,,,,,,,3,strong,66,57,1,0,0,response1disk,6,151,4,13,1,0,0,rectangle,4,13,1,0,0,3,4,0.003,4,13,1,0,0,0,150,150,95,1,0,,,,,,,,,,,,,,,,,,,,,
,,,,,,,,,,,,,,,,,,,,,,,,,,,,,,,,,,,,,,,,,,5ebaa88e5271270008af01d5,606841ea113423a35d181197,2021-04-03_12h23.04.543,Colour_Similarity_Experiment,2020.2.10,Win32,60,60674ec340277cd6a308bc9f,17.23173804,16.68634969,16.68769716,16.71864632,16.67651515,16.68769716,,,,,,,,,,,,,,,,,,,,PF,weak,3,,,,,,,,4,2.649,,,,,,,,,,,,,,,,,,,,,,,,,,,,8,weak,50,-62,1,0,0,response3disk,1,152,15,-1,1,0,0,rectangle,15,-1,1,0,0,3,0,0.003,15,-1,1,0,0,0,151,151,57,1,0,,,,,,,,,,,,,,,,,,,,,
,,,,,,,,,,,,,,,,,,,,,,,,,,,,,,,,,,,,,,,,,,5ebaa88e5271270008af01d5,606841ea113423a35d181197,2021-04-03_12h23.04.543,Colour_Similarity_Experiment,2020.2.10,Win32,60,60674ec340277cd6a308bc9f,17.23173804,16.68634969,16.68769716,16.71864632,16.67651515,16.68769716,,,,,,,,,,,,,,,,,,,,PF,weak,3,,,,,,,,0,1.499,,,,,,,,,,,,,,,,,,,,,,,,,,,,4,weak,-27,67,1,0,0,response7disk,4,153,-4,5,1,0,0,rectangle,-4,5,1,0,0,3,2,0.002,-4,5,1,0,0,0,152,152,70,1,0,,,,,,,,,,,,,,,,,,,,,
,,,,,,,,,,,,,,,,,,,,,,,,,,,,,,,,,,,,,,,,,,5ebaa88e5271270008af01d5,606841ea113423a35d181197,2021-04-03_12h23.04.543,Colour_Similarity_Experiment,2020.2.10,Win32,60,60674ec340277cd6a308bc9f,17.23173804,16.68634969,16.68769716,16.71864632,16.67651515,16.68769716,,,,,,,,,,,,,,,,,,,,PF,strong,3,,,,,,,,0,0.883,,,,,,,,,,,,,,,,,,,,,,,,,,,,1,strong,-23,60,1,0,0,response7disk,1,154,0,5,1,0,0,rectangle,0,5,1,0,0,3,2,0,0,5,1,0,0,0,153,153,151,1,0,,,,,,,,,,,,,,,,,,,,,
,,,,,,,,,,,,,,,,,,,,,,,,,,,,,,,,,,,,,,,,,,5ebaa88e5271270008af01d5,606841ea113423a35d181197,2021-04-03_12h23.04.543,Colour_Similarity_Experiment,2020.2.10,Win32,60,60674ec340277cd6a308bc9f,17.23173804,16.68634969,16.68769716,16.71864632,16.67651515,16.68769716,,,,,,,,,,,,,,,,,,,,PF,weak,3,,,,,,,,4,6.116,,,,,,,,,,,,,,,,,,,,,,,,,,,,2,weak,22,-50,1,0,0,response3disk,9,155,-9,-5,1,0,0,rectangle,-9,-5,1,0,0,3,5,0.002,-9,-5,1,0,0,0,154,154,39,1,0,,,,,,,,,,,,,,,,,,,,,
,,,,,,,,,,,,,,,,,,,,,,,,,,,,,,,,,,,,,,,,,,5ebaa88e5271270008af01d5,606841ea113423a35d181197,2021-04-03_12h23.04.543,Colour_Similarity_Experiment,2020.2.10,Win32,60,60674ec340277cd6a308bc9f,17.23173804,16.68634969,16.68769716,16.71864632,16.67651515,16.68769716,,,,,,,,,,,,,,,,,,,,PF,weak,3,,,,,,,,7,1,,,,,,,,,,,,,,,,,,,,,,,,,,,,4,weak,20,60,1,0,0,response1disk,7,156,3,-10,1,0,0,rectangle,3,-10,1,0,0,3,1,0.001,3,-10,1,0,0,0,155,155,38,1,0,,,,,,,,,,,,,,,,,,,,,
,,,,,,,,,,,,,,,,,,,,,,,,,,,,,,,,,,,,,,,,,,5ebaa88e5271270008af01d5,606841ea113423a35d181197,2021-04-03_12h23.04.543,Colour_Similarity_Experiment,2020.2.10,Win32,60,60674ec340277cd6a308bc9f,17.23173804,16.68634969,16.68769716,16.71864632,16.67651515,16.68769716,,,,,,,,,,,,,,,,,,,,PF,weak,3,,,,,,,,5,2.367,,,,,,,,,,,,,,,,,,,,,,,,,,,,7,weak,62,-51,1,0,0,response3disk,8,157,22,-10,1,0,0,rectangle,22,-10,1,0,0,3,3,0.004,22,-10,1,0,0,0,156,156,140,1,0,,,,,,,,,,,,,,,,,,,,,
,,,,,,,,,,,,,,,,,,,,,,,,,,,,,,,,,,,,,,,,,,5ebaa88e5271270008af01d5,606841ea113423a35d181197,2021-04-03_12h23.04.543,Colour_Similarity_Experiment,2020.2.10,Win32,60,60674ec340277cd6a308bc9f,17.23173804,16.68634969,16.68769716,16.71864632,16.67651515,16.68769716,,,,,,,,,,,,,,,,,,,,PF,strong,3,,,,,,,,7,1.097,,,,,,,,,,,,,,,,,,,,,,,,,,,,2,strong,32,48,1,0,0,response1disk,7,158,6,-8,1,0,0,rectangle,6,-8,1,0,0,3,3,0.001,6,-8,1,0,0,0,157,157,63,1,0,,,,,,,,,,,,,,,,,,,,,
,,,,,,,,,,,,,,,,,,,,,,,,,,,,,,,,,,,,,,,,,,5ebaa88e5271270008af01d5,606841ea113423a35d181197,2021-04-03_12h23.04.543,Colour_Similarity_Experiment,2020.2.10,Win32,60,60674ec340277cd6a308bc9f,17.23173804,16.68634969,16.68769716,16.71864632,16.67651515,16.68769716,,,,,,,,,,,,,,,,,,,,PF,strong,3,,,,,,,,7,1.066,,,,,,,,,,,,,,,,,,,,,,,,,,,,3,strong,27,57,1,0,0,response1disk,7,159,3,5,1,0,0,rectangle,3,5,1,0,0,3,6,0.004,3,5,1,0,0,0,158,158,118,1,0,,,,,,,,,,,,,,,,,,,,,
,,,,,,,,,,,,,,,,,,,,,,,,,,,,,,,,,,,,,,,,,,5ebaa88e5271270008af01d5,606841ea113423a35d181197,2021-04-03_12h23.04.543,Colour_Similarity_Experiment,2020.2.10,Win32,60,60674ec340277cd6a308bc9f,17.23173804,16.68634969,16.68769716,16.71864632,16.67651515,16.68769716,,,,,,,,,,,,,,,,,,,,PF,weak,3,,,,,,,,6,4.448,,,,,,,,,,,,,,,,,,,,,,,,,,,,9,weak,47,27,1,0,0,response1disk,6,160,23,12,1,0,0,rectangle,23,12,1,0,0,3,4,0.004,23,12,1,0,0,0,159,159,148,1,0,,,,,,,,,,,,,,,,,,,,,
,,,,,,,,,,,,,,,,,,,,,,,,,,,,,,,,,,,,,,,,,,5ebaa88e5271270008af01d5,606841ea113423a35d181197,2021-04-03_12h23.04.543,Colour_Similarity_Experiment,2020.2.10,Win32,60,60674ec340277cd6a308bc9f,17.23173804,16.68634969,16.68769716,16.71864632,16.67651515,16.68769716,,,,,,,,,,,,,,,,,,,,PF,weak,3,,,,,,,,6,2.284,,,,,,,,,,,,,,,,,,,,,,,,,,,,3,weak,39,23,1,0,0,response1disk,7,161,9,2,1,0,0,rectangle,9,2,1,0,0,3,1,0.003,9,2,1,0,0,0,160,160,41,1,0,,,,,,,,,,,,,,,,,,,,,
,,,,,,,,,,,,,,,,,,,,,,,,,,,,,,,,,,,,,,,,,,5ebaa88e5271270008af01d5,606841ea113423a35d181197,2021-04-03_12h23.04.543,Colour_Similarity_Experiment,2020.2.10,Win32,60,60674ec340277cd6a308bc9f,17.23173804,16.68634969,16.68769716,16.71864632,16.67651515,16.68769716,,,,,,,,,,,,,,,,,,,,PF,weak,3,,,,,,,,1,1.316,,,,,,,,,,,,,,,,,,,,,,,,,,,,7,weak,-73,41,1,0,0,response7disk,9,162,-27,9,1,0,0,rectangle,-27,9,1,0,0,3,3,0.004,-27,9,1,0,0,0,161,161,10,1,0,,,,,,,,,,,,,,,,,,,,,
,,,,,,,,,,,,,,,,,,,,,,,,,,,,,,,,,,,,,,,,,,5ebaa88e5271270008af01d5,606841ea113423a35d181197,2021-04-03_12h23.04.543,Colour_Similarity_Experiment,2020.2.10,Win32,60,60674ec340277cd6a308bc9f,17.23173804,16.68634969,16.68769716,16.71864632,16.67651515,16.68769716,,,,,,,,,,,,,,,,,,,,,,,,,,,,,,,,,,,,,,,,,,,,,,,,,,,,,,,,,,,,,,,,,,,,,,,,,,,,,,,,,,,,,,,,,,,,,,,,0,0,0,0,1,,,,,,,,,,,,,,
,,,,,,,,,,,,,,,,,,,,,,,,,,,,,,,,,,,,,,,,,,5ebaa88e5271270008af01d5,606841ea113423a35d181197,2021-04-03_12h23.04.543,Colour_Similarity_Experiment,2020.2.10,Win32,60,60674ec340277cd6a308bc9f,17.23173804,16.68634969,16.68769716,16.71864632,16.67651515,16.68769716,,,,,,,,,,,,,,,,,,,,PF,weak,3,,,,,,,,6,1.25,,,,,,,,,,,,,,,,,,,,,,,,,,,,9,weak,61,40,1,0,0,response1disk,7,163,5,10,1,0,0,rectangle,5,10,1,0,0,3,0,0.002,5,10,1,0,0,0,0,0,121,1,0,,,,,,,,,,,,,,,,,,,,,
,,,,,,,,,,,,,,,,,,,,,,,,,,,,,,,,,,,,,,,,,,5ebaa88e5271270008af01d5,606841ea113423a35d181197,2021-04-03_12h23.04.543,Colour_Similarity_Experiment,2020.2.10,Win32,60,60674ec340277cd6a308bc9f,17.23173804,16.68634969,16.68769716,16.71864632,16.67651515,16.68769716,,,,,,,,,,,,,,,,,,,,PF,strong,3,,,,,,,,5,2.4,,,,,,,,,,,,,,,,,,,,,,,,,,,,8,strong,68,-52,1,0,0,response3disk,5,164,15,-2,1,0,0,rectangle,15,-2,1,0,0,3,4,0.002,15,-2,1,0,0,0,1,1,152,1,0,,,,,,,,,,,,,,,,,,,,,
,,,,,,,,,,,,,,,,,,,,,,,,,,,,,,,,,,,,,,,,,,5ebaa88e5271270008af01d5,606841ea113423a35d181197,2021-04-03_12h23.04.543,Colour_Similarity_Experiment,2020.2.10,Win32,60,60674ec340277cd6a308bc9f,17.23173804,16.68634969,16.68769716,16.71864632,16.67651515,16.68769716,,,,,,,,,,,,,,,,,,,,PF,strong,3,,,,,,,,6,4.749,,,,,,,,,,,,,,,,,,,,,,,,,,,,9,strong,35,18,1,0,0,response1disk,7,165,14,3,1,0,0,rectangle,14,3,1,0,0,3,5,0.003,14,3,1,0,0,0,2,2,100,1,0,,,,,,,,,,,,,,,,,,,,,
,,,,,,,,,,,,,,,,,,,,,,,,,,,,,,,,,,,,,,,,,,5ebaa88e5271270008af01d5,606841ea113423a35d181197,2021-04-03_12h23.04.543,Colour_Similarity_Experiment,2020.2.10,Win32,60,60674ec340277cd6a308bc9f,17.23173804,16.68634969,16.68769716,16.71864632,16.67651515,16.68769716,,,,,,,,,,,,,,,,,,,,PF,weak,3,,,,,,,,0,1.066,,,,,,,,,,,,,,,,,,,,,,,,,,,,5,weak,-51,74,1,0,0,response7disk,5,166,-18,2,1,0,0,rectangle,-18,2,1,0,0,3,1,0.003,-18,2,1,0,0,0,3,3,94,1,0,,,,,,,,,,,,,,,,,,,,,
,,,,,,,,,,,,,,,,,,,,,,,,,,,,,,,,,,,,,,,,,,5ebaa88e5271270008af01d5,606841ea113423a35d181197,2021-04-03_12h23.04.543,Colour_Similarity_Experiment,2020.2.10,Win32,60,60674ec340277cd6a308bc9f,17.23173804,16.68634969,16.68769716,16.71864632,16.67651515,16.68769716,,,,,,,,,,,,,,,,,,,,PF,strong,3,,,,,,,,4,2.699,,,,,,,,,,,,,,,,,,,,,,,,,,,,6,strong,28,-78,1,0,0,response3disk,5,167,-2,15,1,0,0,rectangle,-2,15,1,0,0,3,7,0.002,-2,15,1,0,0,0,4,4,126,1,0,,,,,,,,,,,,,,,,,,,,,
,,,,,,,,,,,,,,,,,,,,,,,,,,,,,,,,,,,,,,,,,,5ebaa88e5271270008af01d5,606841ea113423a35d181197,2021-04-03_12h23.04.543,Colour_Similarity_Experiment,2020.2.10,Win32,60,60674ec340277cd6a308bc9f,17.23173804,16.68634969,16.68769716,16.71864632,16.67651515,16.68769716,,,,,,,,,,,,,,,,,,,,PF,weak,3,,,,,,,,7,1.066,,,,,,,,,,,,,,,,,,,,,,,,,,,,8,weak,25,54,1,0,0,response1disk,2,168,3,4,1,0,0,rectangle,3,4,1,0,0,3,6,0.004,3,4,1,0,0,0,5,5,83,1,0,,,,,,,,,,,,,,,,,,,,,
,,,,,,,,,,,,,,,,,,,,,,,,,,,,,,,,,,,,,,,,,,5ebaa88e5271270008af01d5,606841ea113423a35d181197,2021-04-03_12h23.04.543,Colour_Similarity_Experiment,2020.2.10,Win32,60,60674ec340277cd6a308bc9f,17.23173804,16.68634969,16.68769716,16.71864632,16.67651515,16.68769716,,,,,,,,,,,,,,,,,,,,PF,strong,3,,,,,,,,7,0.949,,,,,,,,,,,,,,,,,,,,,,,,,,,,1,strong,25,56,1,0,0,response1disk,3,169,6,3,1,0,0,rectangle,6,3,1,0,0,3,1,0.004,6,3,1,0,0,0,6,6,99,1,0,,,,,,,,,,,,,,,,,,,,,
,,,,,,,,,,,,,,,,,,,,,,,,,,,,,,,,,,,,,,,,,,5ebaa88e5271270008af01d5,606841ea113423a35d181197,2021-04-03_12h23.04.543,Colour_Similarity_Experiment,2020.2.10,Win32,60,60674ec340277cd6a308bc9f,17.23173804,16.68634969,16.68769716,16.71864632,16.67651515,16.68769716,,,,,,,,,,,,,,,,,,,,PF,weak,3,,,,,,,,7,1.2,,,,,,,,,,,,,,,,,,,,,,,,,,,,4,weak,15,36,1,0,0,response1disk,8,170,12,-9,1,0,0,rectangle,12,-9,1,0,0,3,5,0.002,12,-9,1,0,0,0,7,7,124,1,0,,,,,,,,,,,,,,,,,,,,,
,,,,,,,,,,,,,,,,,,,,,,,,,,,,,,,,,,,,,,,,,,5ebaa88e5271270008af01d5,606841ea113423a35d181197,2021-04-03_12h23.04.543,Colour_Similarity_Experiment,2020.2.10,Win32,60,60674ec340277cd6a308bc9f,17.23173804,16.68634969,16.68769716,16.71864632,16.67651515,16.68769716,,,,,,,,,,,,,,,,,,,,PF,strong,3,,,,,,,,5,1.767,,,,,,,,,,,,,,,,,,,,,,,,,,,,5,strong,48,-46,1,0,0,response3disk,7,171,22,11,1,0,0,rectangle,22,11,1,0,0,3,6,0.003,22,11,1,0,0,0,8,8,7,1,0,,,,,,,,,,,,,,,,,,,,,
,,,,,,,,,,,,,,,,,,,,,,,,,,,,,,,,,,,,,,,,,,5ebaa88e5271270008af01d5,606841ea113423a35d181197,2021-04-03_12h23.04.543,Colour_Similarity_Experiment,2020.2.10,Win32,60,60674ec340277cd6a308bc9f,17.23173804,16.68634969,16.68769716,16.71864632,16.67651515,16.68769716,,,,,,,,,,,,,,,,,,,,PF,strong,3,,,,,,,,7,2.818,,,,,,,,,,,,,,,,,,,,,,,,,,,,2,strong,49,73,1,0,0,response1disk,5,172,16,13,1,0,0,rectangle,16,13,1,0,0,3,4,0.003,16,13,1,0,0,0,9,9,80,1,0,,,,,,,,,,,,,,,,,,,,,
,,,,,,,,,,,,,,,,,,,,,,,,,,,,,,,,,,,,,,,,,,5ebaa88e5271270008af01d5,606841ea113423a35d181197,2021-04-03_12h23.04.543,Colour_Similarity_Experiment,2020.2.10,Win32,60,60674ec340277cd6a308bc9f,17.23173804,16.68634969,16.68769716,16.71864632,16.67651515,16.68769716,,,,,,,,,,,,,,,,,,,,PF,strong,3,,,,,,,,0,0.934,,,,,,,,,,,,,,,,,,,,,,,,,,,,4,strong,-31,77,1,0,0,response7disk,4,173,0,-1,1,0,0,rectangle,0,-1,1,0,0,3,3,0.003,0,-1,1,0,0,0,10,10,84,1,0,,,,,,,,,,,,,,,,,,,,,
,,,,,,,,,,,,,,,,,,,,,,,,,,,,,,,,,,,,,,,,,,5ebaa88e5271270008af01d5,606841ea113423a35d181197,2021-04-03_12h23.04.543,Colour_Similarity_Experiment,2020.2.10,Win32,60,60674ec340277cd6a308bc9f,17.23173804,16.68634969,16.68769716,16.71864632,16.67651515,16.68769716,,,,,,,,,,,,,,,,,,,,PF,weak,3,,,,,,,,6,2.234,,,,,,,,,,,,,,,,,,,,,,,,,,,,5,weak,75,28,1,0,0,response1disk,2,174,13,-3,1,0,0,rectangle,13,-3,1,0,0,3,1,0.003,13,-3,1,0,0,0,11,11,129,1,0,,,,,,,,,,,,,,,,,,,,,
,,,,,,,,,,,,,,,,,,,,,,,,,,,,,,,,,,,,,,,,,,5ebaa88e5271270008af01d5,606841ea113423a35d181197,2021-04-03_12h23.04.543,Colour_Similarity_Experiment,2020.2.10,Win32,60,60674ec340277cd6a308bc9f,17.23173804,16.68634969,16.68769716,16.71864632,16.67651515,16.68769716,,,,,,,,,,,,,,,,,,,,PF,weak,3,,,,,,,,7,1.079,,,,,,,,,,,,,,,,,,,,,,,,,,,,1,weak,32,54,1,0,0,response1disk,7,175,7,-6,1,0,0,rectangle,7,-6,1,0,0,3,7,0.002,7,-6,1,0,0,0,12,12,150,1,0,,,,,,,,,,,,,,,,,,,,,
,,,,,,,,,,,,,,,,,,,,,,,,,,,,,,,,,,,,,,,,,,5ebaa88e5271270008af01d5,606841ea113423a35d181197,2021-04-03_12h23.04.543,Colour_Similarity_Experiment,2020.2.10,Win32,60,60674ec340277cd6a308bc9f,17.23173804,16.68634969,16.68769716,16.71864632,16.67651515,16.68769716,,,,,,,,,,,,,,,,,,,,PF,weak,3,,,,,,,,4,2.117,,,,,,,,,,,,,,,,,,,,,,,,,,,,2,weak,39,-44,1,0,0,response3disk,7,176,18,4,1,0,0,rectangle,18,4,1,0,0,3,3,0.003,18,4,1,0,0,0,13,13,107,1,0,,,,,,,,,,,,,,,,,,,,,
,,,,,,,,,,,,,,,,,,,,,,,,,,,,,,,,,,,,,,,,,,5ebaa88e5271270008af01d5,606841ea113423a35d181197,2021-04-03_12h23.04.543,Colour_Similarity_Experiment,2020.2.10,Win32,60,60674ec340277cd6a308bc9f,17.23173804,16.68634969,16.68769716,16.71864632,16.67651515,16.68769716,,,,,,,,,,,,,,,,,,,,PF,weak,3,,,,,,,,0,0.834,,,,,,,,,,,,,,,,,,,,,,,,,,,,7,weak,-23,85,1,0,0,response7disk,7,177,-4,12,1,0,0,rectangle,-4,12,1,0,0,3,4,0.002,-4,12,1,0,0,0,14,14,51,1,0,,,,,,,,,,,,,,,,,,,,,
,,,,,,,,,,,,,,,,,,,,,,,,,,,,,,,,,,,,,,,,,,5ebaa88e5271270008af01d5,606841ea113423a35d181197,2021-04-03_12h23.04.543,Colour_Similarity_Experiment,2020.2.10,Win32,60,60674ec340277cd6a308bc9f,17.23173804,16.68634969,16.68769716,16.71864632,16.67651515,16.68769716,,,,,,,,,,,,,,,,,,,,PF,strong,3,,,,,,,,7,1.501,,,,,,,,,,,,,,,,,,,,,,,,,,,,7,strong,23,49,1,0,0,response1disk,2,178,1,-5,1,0,0,rectangle,1,-5,1,0,0,3,7,0.003,1,-5,1,0,0,0,15,15,138,1,0,,,,,,,,,,,,,,,,,,,,,
,,,,,,,,,,,,,,,,,,,,,,,,,,,,,,,,,,,,,,,,,,5ebaa88e5271270008af01d5,606841ea113423a35d181197,2021-04-03_12h23.04.543,Colour_Similarity_Experiment,2020.2.10,Win32,60,60674ec340277cd6a308bc9f,17.23173804,16.68634969,16.68769716,16.71864632,16.67651515,16.68769716,,,,,,,,,,,,,,,,,,,,PF,weak,3,,,,,,,,0,0.866,,,,,,,,,,,,,,,,,,,,,,,,,,,,3,weak,-32,71,1,0,0,response7disk,3,179,-14,0,1,0,0,rectangle,-14,0,1,0,0,3,3,0.003,-14,0,1,0,0,0,16,16,4,1,0,,,,,,,,,,,,,,,,,,,,,
,,,,,,,,,,,,,,,,,,,,,,,,,,,,,,,,,,,,,,,,,,5ebaa88e5271270008af01d5,606841ea113423a35d181197,2021-04-03_12h23.04.543,Colour_Similarity_Experiment,2020.2.10,Win32,60,60674ec340277cd6a308bc9f,17.23173804,16.68634969,16.68769716,16.71864632,16.67651515,16.68769716,,,,,,,,,,,,,,,,,,,,PF,weak,3,,,,,,,,7,1.3,,,,,,,,,,,,,,,,,,,,,,,,,,,,7,weak,44,55,1,0,0,response1disk,1,180,24,1,1,0,0,rectangle,24,1,1,0,0,3,3,0,24,1,1,0,0,0,17,17,53,1,0,,,,,,,,,,,,,,,,,,,,,
,,,,,,,,,,,,,,,,,,,,,,,,,,,,,,,,,,,,,,,,,,5ebaa88e5271270008af01d5,606841ea113423a35d181197,2021-04-03_12h23.04.543,Colour_Similarity_Experiment,2020.2.10,Win32,60,60674ec340277cd6a308bc9f,17.23173804,16.68634969,16.68769716,16.71864632,16.67651515,16.68769716,,,,,,,,,,,,,,,,,,,,PF,strong,3,,,,,,,,3,1.766,,,,,,,,,,,,,,,,,,,,,,,,,,,,9,strong,-29,-66,1,0,0,response5disk,8,181,-5,14,1,0,0,rectangle,-5,14,1,0,0,3,1,0.003,-5,14,1,0,0,0,18,18,6,1,0,,,,,,,,,,,,,,,,,,,,,
,,,,,,,,,,,,,,,,,,,,,,,,,,,,,,,,,,,,,,,,,,5ebaa88e5271270008af01d5,606841ea113423a35d181197,2021-04-03_12h23.04.543,Colour_Similarity_Experiment,2020.2.10,Win32,60,60674ec340277cd6a308bc9f,17.23173804,16.68634969,16.68769716,16.71864632,16.67651515,16.68769716,,,,,,,,,,,,,,,,,,,,PF,strong,3,,,,,,,,3,1.067,,,,,,,,,,,,,,,,,,,,,,,,,,,,8,strong,-17,-65,1,0,0,response5disk,9,182,-12,5,1,0,0,rectangle,-12,5,1,0,0,3,5,0.003,-12,5,1,0,0,0,19,19,105,1,0,,,,,,,,,,,,,,,,,,,,,
,,,,,,,,,,,,,,,,,,,,,,,,,,,,,,,,,,,,,,,,,,5ebaa88e5271270008af01d5,606841ea113423a35d181197,2021-04-03_12h23.04.543,Colour_Similarity_Experiment,2020.2.10,Win32,60,60674ec340277cd6a308bc9f,17.23173804,16.68634969,16.68769716,16.71864632,16.67651515,16.68769716,,,,,,,,,,,,,,,,,,,,PF,weak,3,,,,,,,,7,2.033,,,,,,,,,,,,,,,,,,,,,,,,,,,,2,weak,59,80,1,0,0,response1disk,8,183,19,2,1,0,0,rectangle,19,2,1,0,0,3,1,0.003,19,2,1,0,0,0,20,20,52,1,0,,,,,,,,,,,,,,,,,,,,,
,,,,,,,,,,,,,,,,,,,,,,,,,,,,,,,,,,,,,,,,,,5ebaa88e5271270008af01d5,606841ea113423a35d181197,2021-04-03_12h23.04.543,Colour_Similarity_Experiment,2020.2.10,Win32,60,60674ec340277cd6a308bc9f,17.23173804,16.68634969,16.68769716,16.71864632,16.67651515,16.68769716,,,,,,,,,,,,,,,,,,,,PF,strong,3,,,,,,,,7,0.9,,,,,,,,,,,,,,,,,,,,,,,,,,,,1,strong,35,45,1,0,0,response1disk,6,184,10,6,1,0,0,rectangle,10,6,1,0,0,3,7,0.002,10,6,1,0,0,0,21,21,58,1,0,,,,,,,,,,,,,,,,,,,,,
,,,,,,,,,,,,,,,,,,,,,,,,,,,,,,,,,,,,,,,,,,5ebaa88e5271270008af01d5,606841ea113423a35d181197,2021-04-03_12h23.04.543,Colour_Similarity_Experiment,2020.2.10,Win32,60,60674ec340277cd6a308bc9f,17.23173804,16.68634969,16.68769716,16.71864632,16.67651515,16.68769716,,,,,,,,,,,,,,,,,,,,PF,weak,3,,,,,,,,7,0.8,,,,,,,,,,,,,,,,,,,,,,,,,,,,9,weak,32,69,1,0,0,response1disk,3,185,2,15,1,0,0,rectangle,2,15,1,0,0,3,5,0.003,2,15,1,0,0,0,22,22,119,1,0,,,,,,,,,,,,,,,,,,,,,
,,,,,,,,,,,,,,,,,,,,,,,,,,,,,,,,,,,,,,,,,,5ebaa88e5271270008af01d5,606841ea113423a35d181197,2021-04-03_12h23.04.543,Colour_Similarity_Experiment,2020.2.10,Win32,60,60674ec340277cd6a308bc9f,17.23173804,16.68634969,16.68769716,16.71864632,16.67651515,16.68769716,,,,,,,,,,,,,,,,,,,,PF,strong,3,,,,,,,,1,1.417,,,,,,,,,,,,,,,,,,,,,,,,,,,,1,strong,-92,35,1,0,0,response7disk,9,186,-30,7,1,0,0,rectangle,-30,7,1,0,0,3,6,0.002,-30,7,1,0,0,0,23,23,123,1,0,,,,,,,,,,,,,,,,,,,,,
,,,,,,,,,,,,,,,,,,,,,,,,,,,,,,,,,,,,,,,,,,5ebaa88e5271270008af01d5,606841ea113423a35d181197,2021-04-03_12h23.04.543,Colour_Similarity_Experiment,2020.2.10,Win32,60,60674ec340277cd6a308bc9f,17.23173804,16.68634969,16.68769716,16.71864632,16.67651515,16.68769716,,,,,,,,,,,,,,,,,,,,PF,weak,3,,,,,,,,3,1.434,,,,,,,,,,,,,,,,,,,,,,,,,,,,2,weak,-31,-55,1,0,0,response5disk,3,187,-16,9,1,0,0,rectangle,-16,9,1,0,0,3,1,0.003,-16,9,1,0,0,0,24,24,69,1,0,,,,,,,,,,,,,,,,,,,,,
,,,,,,,,,,,,,,,,,,,,,,,,,,,,,,,,,,,,,,,,,,5ebaa88e5271270008af01d5,606841ea113423a35d181197,2021-04-03_12h23.04.543,Colour_Similarity_Experiment,2020.2.10,Win32,60,60674ec340277cd6a308bc9f,17.23173804,16.68634969,16.68769716,16.71864632,16.67651515,16.68769716,,,,,,,,,,,,,,,,,,,,PF,strong,3,,,,,,,,0,0.817,,,,,,,,,,,,,,,,,,,,,,,,,,,,3,strong,-36,71,1,0,0,response7disk,3,188,-10,8,1,0,0,rectangle,-10,8,1,0,0,3,2,0.003,-10,8,1,0,0,0,25,25,68,1,0,,,,,,,,,,,,,,,,,,,,,
,,,,,,,,,,,,,,,,,,,,,,,,,,,,,,,,,,,,,,,,,,5ebaa88e5271270008af01d5,606841ea113423a35d181197,2021-04-03_12h23.04.543,Colour_Similarity_Experiment,2020.2.10,Win32,60,60674ec340277cd6a308bc9f,17.23173804,16.68634969,16.68769716,16.71864632,16.67651515,16.68769716,,,,,,,,,,,,,,,,,,,,PF,weak,3,,,,,,,,6,2.351,,,,,,,,,,,,,,,,,,,,,,,,,,,,4,weak,94,27,1,0,0,response1disk,5,189,18,8,1,0,0,rectangle,18,8,1,0,0,3,3,0.003,18,8,1,0,0,0,26,26,49,1,0,,,,,,,,,,,,,,,,,,,,,
,,,,,,,,,,,,,,,,,,,,,,,,,,,,,,,,,,,,,,,,,,5ebaa88e5271270008af01d5,606841ea113423a35d181197,2021-04-03_12h23.04.543,Colour_Similarity_Experiment,2020.2.10,Win32,60,60674ec340277cd6a308bc9f,17.23173804,16.68634969,16.68769716,16.71864632,16.67651515,16.68769716,,,,,,,,,,,,,,,,,,,,PF,weak,3,,,,,,,,7,1.883,,,,,,,,,,,,,,,,,,,,,,,,,,,,6,weak,33,65,1,0,0,response1disk,3,190,9,8,1,0,0,rectangle,9,8,1,0,0,3,1,0.003,9,8,1,0,0,0,27,27,26,1,0,,,,,,,,,,,,,,,,,,,,,
,,,,,,,,,,,,,,,,,,,,,,,,,,,,,,,,,,,,,,,,,,5ebaa88e5271270008af01d5,606841ea113423a35d181197,2021-04-03_12h23.04.543,Colour_Similarity_Experiment,2020.2.10,Win32,60,60674ec340277cd6a308bc9f,17.23173804,16.68634969,16.68769716,16.71864632,16.67651515,16.68769716,,,,,,,,,,,,,,,,,,,,PF,weak,3,,,,,,,,6,1.616,,,,,,,,,,,,,,,,,,,,,,,,,,,,4,weak,73,34,1,0,0,response1disk,6,191,34,12,1,0,0,rectangle,34,12,1,0,0,3,3,0.003,34,12,1,0,0,0,28,28,120,1,0,,,,,,,,,,,,,,,,,,,,,
,,,,,,,,,,,,,,,,,,,,,,,,,,,,,,,,,,,,,,,,,,5ebaa88e5271270008af01d5,606841ea113423a35d181197,2021-04-03_12h23.04.543,Colour_Similarity_Experiment,2020.2.10,Win32,60,60674ec340277cd6a308bc9f,17.23173804,16.68634969,16.68769716,16.71864632,16.67651515,16.68769716,,,,,,,,,,,,,,,,,,,,PF,weak,3,,,,,,,,6,1.399,,,,,,,,,,,,,,,,,,,,,,,,,,,,8,weak,50,19,1,0,0,response1disk,7,192,29,8,1,0,0,rectangle,29,8,1,0,0,3,1,0.003,29,8,1,0,0,0,29,29,23,1,0,,,,,,,,,,,,,,,,,,,,,
,,,,,,,,,,,,,,,,,,,,,,,,,,,,,,,,,,,,,,,,,,5ebaa88e5271270008af01d5,606841ea113423a35d181197,2021-04-03_12h23.04.543,Colour_Similarity_Experiment,2020.2.10,Win32,60,60674ec340277cd6a308bc9f,17.23173804,16.68634969,16.68769716,16.71864632,16.67651515,16.68769716,,,,,,,,,,,,,,,,,,,,PF,weak,3,,,,,,,,7,1.317,,,,,,,,,,,,,,,,,,,,,,,,,,,,5,weak,42,61,1,0,0,response1disk,8,193,12,3,1,0,0,rectangle,12,3,1,0,0,3,1,0.001,12,3,1,0,0,0,30,30,149,1,0,,,,,,,,,,,,,,,,,,,,,
,,,,,,,,,,,,,,,,,,,,,,,,,,,,,,,,,,,,,,,,,,5ebaa88e5271270008af01d5,606841ea113423a35d181197,2021-04-03_12h23.04.543,Colour_Similarity_Experiment,2020.2.10,Win32,60,60674ec340277cd6a308bc9f,17.23173804,16.68634969,16.68769716,16.71864632,16.67651515,16.68769716,,,,,,,,,,,,,,,,,,,,PF,weak,3,,,,,,,,4,1.482,,,,,,,,,,,,,,,,,,,,,,,,,,,,1,weak,38,-75,1,0,0,response3disk,2,194,-4,4,1,0,0,rectangle,-4,4,1,0,0,3,4,0.001,-4,4,1,0,0,0,31,31,24,1,0,,,,,,,,,,,,,,,,,,,,,
,,,,,,,,,,,,,,,,,,,,,,,,,,,,,,,,,,,,,,,,,,5ebaa88e5271270008af01d5,606841ea113423a35d181197,2021-04-03_12h23.04.543,Colour_Similarity_Experiment,2020.2.10,Win32,60,60674ec340277cd6a308bc9f,17.23173804,16.68634969,16.68769716,16.71864632,16.67651515,16.68769716,,,,,,,,,,,,,,,,,,,,PF,weak,3,,,,,,,,7,2.316,,,,,,,,,,,,,,,,,,,,,,,,,,,,4,weak,31,41,1,0,0,response1disk,9,195,16,-6,1,0,0,rectangle,16,-6,1,0,0,3,2,0.002,16,-6,1,0,0,0,32,32,75,1,0,,,,,,,,,,,,,,,,,,,,,
,,,,,,,,,,,,,,,,,,,,,,,,,,,,,,,,,,,,,,,,,,5ebaa88e5271270008af01d5,606841ea113423a35d181197,2021-04-03_12h23.04.543,Colour_Similarity_Experiment,2020.2.10,Win32,60,60674ec340277cd6a308bc9f,17.23173804,16.68634969,16.68769716,16.71864632,16.67651515,16.68769716,,,,,,,,,,,,,,,,,,,,PF,strong,3,,,,,,,,0,0.983,,,,,,,,,,,,,,,,,,,,,,,,,,,,2,strong,-18,62,1,0,0,response7disk,2,196,7,-9,1,0,0,rectangle,7,-9,1,0,0,3,7,0.003,7,-9,1,0,0,0,33,33,142,1,0,,,,,,,,,,,,,,,,,,,,,
,,,,,,,,,,,,,,,,,,,,,,,,,,,,,,,,,,,,,,,,,,5ebaa88e5271270008af01d5,606841ea113423a35d181197,2021-04-03_12h23.04.543,Colour_Similarity_Experiment,2020.2.10,Win32,60,60674ec340277cd6a308bc9f,17.23173804,16.68634969,16.68769716,16.71864632,16.67651515,16.68769716,,,,,,,,,,,,,,,,,,,,PF,strong,3,,,,,,,,2,1.334,,,,,,,,,,,,,,,,,,,,,,,,,,,,2,strong,-52,-45,1,0,0,response5disk,1,197,-4,-2,1,0,0,rectangle,-4,-2,1,0,0,3,5,0.003,-4,-2,1,0,0,0,34,34,85,1,0,,,,,,,,,,,,,,,,,,,,,
