key_resp.keys,key_resp.rt,key_resp_16.keys,key_resp_16.rt,key_resp_2.keys,key_resp_2.rt,X Scale,ratio_pxpermm,screen_size_x,screen_size_y,testsize,key_resp_3.keys,key_resp_4.keys,key_resp_4.rt,line_size,key_resp_5.keys,key_resp_5.rt,key_resp_6.keys,key_resp_6.rt,key_resp_8.keys,key_resp_8.rt,key_resp_7.keys,key_resp_7.rt,key_resp_12.keys,key_resp_12.rt,key_resp_11.keys,key_resp_11.rt,key_resp_18.keys,key_resp_18.rt,key_resp_21.keys,key_resp_21.rt,key_resp_13.keys,key_resp_13.rt,key_resp_19.keys,key_resp_19.rt,ballposx,viewer_distance,trials.thisRepN,trials.thisTrialN,trials.thisN,trials.thisIndex,trials.ran,participant,session,date,expName,psychopyVersion,OS,frameRate,study_id,realFrameRate1,realFrameRate2,realFrameRate3,realFrameRate4,realFrameRate5,realFrameRate,viewerdistancecm,DVA_to_distance,radius_F,radius_P,r_F,R_P,key_resp_20.keys,key_resp_20.rt,key_resp_14.keys,key_resp_14.rt,key_resp_15.keys,key_resp_15.rt,key_resp_17.keys,key_resp_17.rt,key_resp_9.keys,key_resp_9.rt,key_resp_10.keys,key_resp_10.rt,Colour_1,Ecc,maskCon,mask_frames,mouse_5.x,mouse_5.y,mouse_5.leftButton,mouse_5.midButton,mouse_5.rightButton,mouse_5.clicked_name,Colour_2,similarity,response_time,mouse_10.x,mouse_10.y,mouse_10.leftButton,mouse_10.midButton,mouse_10.rightButton,mouse_10.clicked_name,mouse_7.x,mouse_7.y,mouse_7.leftButton,mouse_7.midButton,mouse_7.rightButton,catchnumberprac,mouse_6.x,mouse_6.y,mouse_6.leftButton,mouse_6.midButton,mouse_6.rightButton,duringprac.thisRepN,duringprac.thisTrialN,duringprac.thisN,duringprac.thisIndex,duringprac.ran,mouse_7.clicked_name,catchprac,mouse_6.clicked_name,key_resp_22.keys,key_resp_22.rt,Colour1,maskCon1,mouse.x,mouse.y,mouse.leftButton,mouse.midButton,mouse.rightButton,mouse.clicked_name,Colour2,trialnumber,mouse_2.x,mouse_2.y,mouse_2.leftButton,mouse_2.midButton,mouse_2.rightButton,mouse_2.clicked_name,mouse_3.x,mouse_3.y,mouse_3.leftButton,mouse_3.midButton,mouse_3.rightButton,catchresponse,catchnumber,response_time_catch,mouse_11.x,mouse_11.y,mouse_11.leftButton,mouse_11.midButton,mouse_11.rightButton,trials_2.thisRepN,trials_2.thisTrialN,trials_2.thisN,trials_2.thisIndex,trials_2.ran,Catch,mouse_3.clicked_name,mouse_11.clicked_name,trials_3.thisRepN,trials_3.thisTrialN,trials_3.thisN,trials_3.thisIndex,trials_3.ran,answer1,rt1,answer2,rt2,answer3,rt3,answer4,rt4,answer5,rt5,answer6,rt6,answer7,rt7
space,3.055035,space,7.024145,space,6.2541,37.8,3.78,507.9365079,285.7142857,1920,,space,24.835235,75.6,space,14.23793,space,7.197995,space,2.446195,space,3.317895,space,5.12207,space,6.613055,space,9.22231,space,5.855725,space,10.264095,return,2.19631,-195.84,1062.08572,0,0,0,0,1,5ecae16e5a125126cbb0e08b,606841018a9cdac5528af621,2021-04-03_11h18.58.648,Colour_Similarity_Experiment,2020.2.10,Win32,60,60674ec340277cd6a308bc9f,7.048052851,6.948435341,6.949457983,6.950740637,6.943961982,6.949457983,,,,,,,,,,,,,,,,,,,,,,,,,,,,,,,,,,,,,,,,,,,,,,,,,,,,,,,,,,,,,,,,,,,,,,,,,,,,,,,,,,,,,,,,,,,,,,,,,,,,,,,,,,,,,,,,,,
,,,,,,,,,,,,,,,,,,,,,,,,,,,,,,,,,return,2.014145,-118.08,976.3995212,1,0,1,0,1,5ecae16e5a125126cbb0e08b,606841018a9cdac5528af621,2021-04-03_11h18.58.648,Colour_Similarity_Experiment,2020.2.10,Win32,60,60674ec340277cd6a308bc9f,7.048052851,6.948435341,6.949457983,6.950740637,6.943961982,6.949457983,,,,,,,,,,,,,,,,,,,,,,,,,,,,,,,,,,,,,,,,,,,,,,,,,,,,,,,,,,,,,,,,,,,,,,,,,,,,,,,,,,,,,,,,,,,,,,,,,,,,,,,,,,,,,,,,,,
,,,,,,,,,,,,,,,,,,,,,,,,,,,,,,,,,return,1.96424,-97.92,954.1845808,2,0,2,0,1,5ecae16e5a125126cbb0e08b,606841018a9cdac5528af621,2021-04-03_11h18.58.648,Colour_Similarity_Experiment,2020.2.10,Win32,60,60674ec340277cd6a308bc9f,7.048052851,6.948435341,6.949457983,6.950740637,6.943961982,6.949457983,,,,,,,,,,,,,,,,,,,,,,,,,,,,,,,,,,,,,,,,,,,,,,,,,,,,,,,,,,,,,,,,,,,,,,,,,,,,,,,,,,,,,,,,,,,,,,,,,,,,,,,,,,,,,,,,,,
,,,,,,,,,,,,,,,,,,,,,,,,,,,,,,,,,return,2.055695,-135.36,995.4408986,3,0,3,0,1,5ecae16e5a125126cbb0e08b,606841018a9cdac5528af621,2021-04-03_11h18.58.648,Colour_Similarity_Experiment,2020.2.10,Win32,60,60674ec340277cd6a308bc9f,7.048052851,6.948435341,6.949457983,6.950740637,6.943961982,6.949457983,,,,,,,,,,,,,,,,,,,,,,,,,,,,,,,,,,,,,,,,,,,,,,,,,,,,,,,,,,,,,,,,,,,,,,,,,,,,,,,,,,,,,,,,,,,,,,,,,,,,,,,,,,,,,,,,,,
,,,,,,,,,,,,,,,,,,,,,,,,,,,,,,,,,return,2.073335,-141.12,1001.788024,4,0,4,0,1,5ecae16e5a125126cbb0e08b,606841018a9cdac5528af621,2021-04-03_11h18.58.648,Colour_Similarity_Experiment,2020.2.10,Win32,60,60674ec340277cd6a308bc9f,7.048052851,6.948435341,6.949457983,6.950740637,6.943961982,6.949457983,,,,,,,,,,,,,,,,,,,,,,,,,,,,,,,,,,,,,,,,,,,,,,,,,,,,,,,,,,,,,,,,,,,,,,,,,,,,,,,,,,,,,,,,,,,,,,,,,,,,,,,,,,,,,,,,,,
,,,,,,,,,,,,,,,,,,,,,,,,,,,,,,,,,,,,,,,,,,5ecae16e5a125126cbb0e08b,606841018a9cdac5528af621,2021-04-03_11h18.58.648,Colour_Similarity_Experiment,2020.2.10,Win32,60,60674ec340277cd6a308bc9f,7.048052851,6.948435341,6.949457983,6.950740637,6.943961982,6.949457983,95,16.58230575,94.02167361,626.8111574,62.68111574,282.0650208,space,6.92104,space,10.06219,space,19.19852,space,18.02194,space,12.868775,space,2.858015,3,PF,weak,7,70,-113,1,0,0,response3disk_5,6,4,20.860585,-3,2,1,0,0,rectangle_8,-3,2,1,0,0,3,-3,2,1,0,0,0,0,0,6,1,,,,,,,,,,,,,,,,,,,,,,,,,,,,,,,,,,,,,,,,,,,,,,,,,,,,,,,,,,,,,
,,,,,,,,,,,,,,,,,,,,,,,,,,,,,,,,,,,,,,,,,,5ecae16e5a125126cbb0e08b,606841018a9cdac5528af621,2021-04-03_11h18.58.648,Colour_Similarity_Experiment,2020.2.10,Win32,60,60674ec340277cd6a308bc9f,7.048052851,6.948435341,6.949457983,6.950740637,6.943961982,6.949457983,,,,,,,,,,,,,,,,,,,4,PF,strong,7,-68,-49,1,0,0,response5disk_5,7,2,10.025795,2,-5,1,0,0,rectangle_8,-48,-94,1,0,0,3,0,-5,1,0,0,0,1,1,3,1,response5disk_7,3,rectangle_4,,,,,,,,,,,,,,,,,,,,,,,,,,,,,,,,,,,,,,,,,,,,,,,,,,,,,,,,,,
,,,,,,,,,,,,,,,,,,,,,,,,,,,,,,,,,,,,,,,,,,5ecae16e5a125126cbb0e08b,606841018a9cdac5528af621,2021-04-03_11h18.58.648,Colour_Similarity_Experiment,2020.2.10,Win32,60,60674ec340277cd6a308bc9f,7.048052851,6.948435341,6.949457983,6.950740637,6.943961982,6.949457983,,,,,,,,,,,,,,,,,,,3,PF,weak,7,44,94,1,0,0,response1disk_5,8,7,7.42804,3,-6,1,0,0,rectangle_8,3,-6,1,0,0,3,3,-6,1,0,0,0,2,2,1,1,,,,,,,,,,,,,,,,,,,,,,,,,,,,,,,,,,,,,,,,,,,,,,,,,,,,,,,,,,,,,
,,,,,,,,,,,,,,,,,,,,,,,,,,,,,,,,,,,,,,,,,,5ecae16e5a125126cbb0e08b,606841018a9cdac5528af621,2021-04-03_11h18.58.648,Colour_Similarity_Experiment,2020.2.10,Win32,60,60674ec340277cd6a308bc9f,7.048052851,6.948435341,6.949457983,6.950740637,6.943961982,6.949457983,,,,,,,,,,,,,,,,,,,5,PF,strong,7,94,-62,1,0,0,response3disk_5,7,5,5.430615,7,-5,1,0,0,rectangle_8,-53,-87,1,0,0,3,1,-5,1,0,0,0,3,3,0,1,response5disk_7,3,rectangle_4,,,,,,,,,,,,,,,,,,,,,,,,,,,,,,,,,,,,,,,,,,,,,,,,,,,,,,,,,,
,,,,,,,,,,,,,,,,,,,,,,,,,,,,,,,,,,,,,,,,,,5ecae16e5a125126cbb0e08b,606841018a9cdac5528af621,2021-04-03_11h18.58.648,Colour_Similarity_Experiment,2020.2.10,Win32,60,60674ec340277cd6a308bc9f,7.048052851,6.948435341,6.949457983,6.950740637,6.943961982,6.949457983,,,,,,,,,,,,,,,,,,,7,PF,weak,7,41,74,1,0,0,response1disk_5,8,7,2.530545,-2,0,1,0,0,rectangle_8,-2,0,1,0,0,3,-2,0,1,0,0,0,4,4,4,1,,,,,,,,,,,,,,,,,,,,,,,,,,,,,,,,,,,,,,,,,,,,,,,,,,,,,,,,,,,,,
,,,,,,,,,,,,,,,,,,,,,,,,,,,,,,,,,,,,,,,,,,5ecae16e5a125126cbb0e08b,606841018a9cdac5528af621,2021-04-03_11h18.58.648,Colour_Similarity_Experiment,2020.2.10,Win32,60,60674ec340277cd6a308bc9f,7.048052851,6.948435341,6.949457983,6.950740637,6.943961982,6.949457983,,,,,,,,,,,,,,,,,,,8,PF,strong,7,118,-43,1,0,0,response3disk_5,2,5,4.88187,-3,-4,1,0,0,rectangle_8,-3,-4,1,0,0,3,-3,-4,1,0,0,0,5,5,2,1,,,,,,,,,,,,,,,,,,,,,,,,,,,,,,,,,,,,,,,,,,,,,,,,,,,,,,,,,,,,,
,,,,,,,,,,,,,,,,,,,,,,,,,,,,,,,,,,,,,,,,,,5ecae16e5a125126cbb0e08b,606841018a9cdac5528af621,2021-04-03_11h18.58.648,Colour_Similarity_Experiment,2020.2.10,Win32,60,60674ec340277cd6a308bc9f,7.048052851,6.948435341,6.949457983,6.950740637,6.943961982,6.949457983,,,,,,,,,,,,,,,,,,,4,PF,weak,7,52,73,1,0,0,response1disk_5,9,7,3.03021,1,-5,1,0,0,rectangle_8,1,-5,1,0,0,3,1,-5,1,0,0,0,6,6,5,1,,,,,,,,,,,,,,,,,,,,,,,,,,,,,,,,,,,,,,,,,,,,,,,,,,,,,,,,,,,,,
,,,,,,,,,,,,,,,,,,,,,,,,,,,,,,,,,,,,,,,,,,5ecae16e5a125126cbb0e08b,606841018a9cdac5528af621,2021-04-03_11h18.58.648,Colour_Similarity_Experiment,2020.2.10,Win32,60,60674ec340277cd6a308bc9f,7.048052851,6.948435341,6.949457983,6.950740637,6.943961982,6.949457983,,,,,,,,,,,,,,,,,,,,PF,strong,7,,,,,,,,4,7.881585,,,,,,,,,,,,,,,,,,,,,,,,,,space,65.68097,3,strong,63,-101,1,0,0,response3disk,9,1,4,-8,1,0,0,rectangle,4,-8,1,0,0,,6,0.00088,4,-8,1,0,0,0,0,0,143,1,0,,,,,,,,,,,,,,,,,,,,,
,,,,,,,,,,,,,,,,,,,,,,,,,,,,,,,,,,,,,,,,,,5ecae16e5a125126cbb0e08b,606841018a9cdac5528af621,2021-04-03_11h18.58.648,Colour_Similarity_Experiment,2020.2.10,Win32,60,60674ec340277cd6a308bc9f,7.048052851,6.948435341,6.949457983,6.950740637,6.943961982,6.949457983,,,,,,,,,,,,,,,,,,,,PF,weak,7,,,,,,,,4,14.18056,,,,,,,,,,,,,,,,,,,,,,,,,,,,9,weak,82,-111,1,0,0,response3disk,7,2,12,0,1,0,0,rectangle,12,0,1,0,0,,5,0.000525,12,0,1,0,0,0,1,1,121,1,0,,,,,,,,,,,,,,,,,,,,,
,,,,,,,,,,,,,,,,,,,,,,,,,,,,,,,,,,,,,,,,,,5ecae16e5a125126cbb0e08b,606841018a9cdac5528af621,2021-04-03_11h18.58.648,Colour_Similarity_Experiment,2020.2.10,Win32,60,60674ec340277cd6a308bc9f,7.048052851,6.948435341,6.949457983,6.950740637,6.943961982,6.949457983,,,,,,,,,,,,,,,,,,,,PF,weak,7,,,,,,,,6,3.76384,,,,,,,,,,,,,,,,,,,,,,,,,,,,3,weak,106,70,1,0,0,response1disk,8,3,-4,-5,1,0,0,rectangle,-4,-5,1,0,0,,0,0.000515,-4,-5,1,0,0,0,2,2,3,1,0,,,,,,,,,,,,,,,,,,,,,
,,,,,,,,,,,,,,,,,,,,,,,,,,,,,,,,,,,,,,,,,,5ecae16e5a125126cbb0e08b,606841018a9cdac5528af621,2021-04-03_11h18.58.648,Colour_Similarity_Experiment,2020.2.10,Win32,60,60674ec340277cd6a308bc9f,7.048052851,6.948435341,6.949457983,6.950740637,6.943961982,6.949457983,,,,,,,,,,,,,,,,,,,,PF,weak,7,,,,,,,,0,2.50959,,,,,,,,,,,,,,,,,,,,,,,,,,,,2,weak,-52,96,1,0,0,response7disk,2,4,-4,0,1,0,0,rectangle,-4,0,1,0,0,,1,0.000725,-4,0,1,0,0,0,3,3,14,1,0,,,,,,,,,,,,,,,,,,,,,
,,,,,,,,,,,,,,,,,,,,,,,,,,,,,,,,,,,,,,,,,,5ecae16e5a125126cbb0e08b,606841018a9cdac5528af621,2021-04-03_11h18.58.648,Colour_Similarity_Experiment,2020.2.10,Win32,60,60674ec340277cd6a308bc9f,7.048052851,6.948435341,6.949457983,6.950740637,6.943961982,6.949457983,,,,,,,,,,,,,,,,,,,,PF,strong,7,,,,,,,,3,2.768015,,,,,,,,,,,,,,,,,,,,,,,,,,,,3,strong,-41,-78,1,0,0,response5disk,5,5,8,2,1,0,0,rectangle,8,2,1,0,0,,0,0.00072,8,2,1,0,0,0,4,4,101,1,0,,,,,,,,,,,,,,,,,,,,,
,,,,,,,,,,,,,,,,,,,,,,,,,,,,,,,,,,,,,,,,,,5ecae16e5a125126cbb0e08b,606841018a9cdac5528af621,2021-04-03_11h18.58.648,Colour_Similarity_Experiment,2020.2.10,Win32,60,60674ec340277cd6a308bc9f,7.048052851,6.948435341,6.949457983,6.950740637,6.943961982,6.949457983,,,,,,,,,,,,,,,,,,,,PF,strong,7,,,,,,,,4,7.331755,,,,,,,,,,,,,,,,,,,,,,,,,,,,9,strong,63,-103,1,0,0,response3disk,3,6,9,-15,1,0,0,rectangle,9,-15,1,0,0,,4,0.00052,9,-15,1,0,0,0,5,5,141,1,0,,,,,,,,,,,,,,,,,,,,,
,,,,,,,,,,,,,,,,,,,,,,,,,,,,,,,,,,,,,,,,,,5ecae16e5a125126cbb0e08b,606841018a9cdac5528af621,2021-04-03_11h18.58.648,Colour_Similarity_Experiment,2020.2.10,Win32,60,60674ec340277cd6a308bc9f,7.048052851,6.948435341,6.949457983,6.950740637,6.943961982,6.949457983,,,,,,,,,,,,,,,,,,,,PF,weak,7,,,,,,,,7,1.437495,,,,,,,,,,,,,,,,,,,,,,,,,,,,1,weak,44,81,1,0,0,response1disk,6,7,12,-1,1,0,0,rectangle,12,-1,1,0,0,,0,0.00056,12,-1,1,0,0,0,6,6,144,1,0,,,,,,,,,,,,,,,,,,,,,
,,,,,,,,,,,,,,,,,,,,,,,,,,,,,,,,,,,,,,,,,,5ecae16e5a125126cbb0e08b,606841018a9cdac5528af621,2021-04-03_11h18.58.648,Colour_Similarity_Experiment,2020.2.10,Win32,60,60674ec340277cd6a308bc9f,7.048052851,6.948435341,6.949457983,6.950740637,6.943961982,6.949457983,,,,,,,,,,,,,,,,,,,,PF,weak,7,,,,,,,,5,8.597035,,,,,,,,,,,,,,,,,,,,,,,,,,,,6,weak,117,-54,1,0,0,response3disk,9,8,11,-8,1,0,0,rectangle,11,-8,1,0,0,,1,0.000535,11,-8,1,0,0,0,7,7,45,1,0,,,,,,,,,,,,,,,,,,,,,
,,,,,,,,,,,,,,,,,,,,,,,,,,,,,,,,,,,,,,,,,,5ecae16e5a125126cbb0e08b,606841018a9cdac5528af621,2021-04-03_11h18.58.648,Colour_Similarity_Experiment,2020.2.10,Win32,60,60674ec340277cd6a308bc9f,7.048052851,6.948435341,6.949457983,6.950740637,6.943961982,6.949457983,,,,,,,,,,,,,,,,,,,,PF,strong,7,,,,,,,,3,2.50696,,,,,,,,,,,,,,,,,,,,,,,,,,,,3,strong,-33,-125,1,0,0,response5disk,2,9,1,-8,1,0,0,rectangle,1,-8,1,0,0,,6,0.000575,1,-8,1,0,0,0,8,8,93,1,0,,,,,,,,,,,,,,,,,,,,,
,,,,,,,,,,,,,,,,,,,,,,,,,,,,,,,,,,,,,,,,,,5ecae16e5a125126cbb0e08b,606841018a9cdac5528af621,2021-04-03_11h18.58.648,Colour_Similarity_Experiment,2020.2.10,Win32,60,60674ec340277cd6a308bc9f,7.048052851,6.948435341,6.949457983,6.950740637,6.943961982,6.949457983,,,,,,,,,,,,,,,,,,,,PF,weak,7,,,,,,,,4,3.215195,,,,,,,,,,,,,,,,,,,,,,,,,,,,9,weak,35,-92,1,0,0,response3disk,2,10,1,-3,1,0,0,rectangle,1,-3,1,0,0,,5,0.00053,1,-3,1,0,0,0,9,9,157,1,0,,,,,,,,,,,,,,,,,,,,,
,,,,,,,,,,,,,,,,,,,,,,,,,,,,,,,,,,,,,,,,,,5ecae16e5a125126cbb0e08b,606841018a9cdac5528af621,2021-04-03_11h18.58.648,Colour_Similarity_Experiment,2020.2.10,Win32,60,60674ec340277cd6a308bc9f,7.048052851,6.948435341,6.949457983,6.950740637,6.943961982,6.949457983,,,,,,,,,,,,,,,,,,,,PF,strong,7,,,,,,,,2,1.83581,,,,,,,,,,,,,,,,,,,,,,,,,,,,6,strong,-88,-74,1,0,0,response5disk,4,11,-4,-9,1,0,0,rectangle,-4,-9,1,0,0,,5,8.49999E-05,-4,-9,1,0,0,0,10,10,56,1,0,,,,,,,,,,,,,,,,,,,,,
,,,,,,,,,,,,,,,,,,,,,,,,,,,,,,,,,,,,,,,,,,5ecae16e5a125126cbb0e08b,606841018a9cdac5528af621,2021-04-03_11h18.58.648,Colour_Similarity_Experiment,2020.2.10,Win32,60,60674ec340277cd6a308bc9f,7.048052851,6.948435341,6.949457983,6.950740637,6.943961982,6.949457983,,,,,,,,,,,,,,,,,,,,PF,weak,7,,,,,,,,0,1.378825,,,,,,,,,,,,,,,,,,,,,,,,,,,,1,weak,-40,82,1,0,0,response7disk,1,12,-11,7,1,0,0,rectangle,-85,40,1,0,0,1,1,2.028135,-11,3,1,0,0,0,11,11,76,1,1,response7disk_3,rectangle,,,,,,,,,,,,,,,,,,,
,,,,,,,,,,,,,,,,,,,,,,,,,,,,,,,,,,,,,,,,,,5ecae16e5a125126cbb0e08b,606841018a9cdac5528af621,2021-04-03_11h18.58.648,Colour_Similarity_Experiment,2020.2.10,Win32,60,60674ec340277cd6a308bc9f,7.048052851,6.948435341,6.949457983,6.950740637,6.943961982,6.949457983,,,,,,,,,,,,,,,,,,,,PF,strong,7,,,,,,,,4,2.349765,,,,,,,,,,,,,,,,,,,,,,,,,,,,4,strong,75,-105,1,0,0,response3disk,3,13,7,-3,1,0,0,rectangle,7,-3,1,0,0,1,0,0.00068,7,-3,1,0,0,0,12,12,77,1,0,,,,,,,,,,,,,,,,,,,,,
,,,,,,,,,,,,,,,,,,,,,,,,,,,,,,,,,,,,,,,,,,5ecae16e5a125126cbb0e08b,606841018a9cdac5528af621,2021-04-03_11h18.58.648,Colour_Similarity_Experiment,2020.2.10,Win32,60,60674ec340277cd6a308bc9f,7.048052851,6.948435341,6.949457983,6.950740637,6.943961982,6.949457983,,,,,,,,,,,,,,,,,,,,PF,strong,7,,,,,,,,3,4.726685,,,,,,,,,,,,,,,,,,,,,,,,,,,,2,strong,-63,-106,1,0,0,response5disk,2,14,-3,-5,1,0,0,rectangle,-3,-5,1,0,0,1,7,0.00053,-3,-5,1,0,0,0,13,13,142,1,0,,,,,,,,,,,,,,,,,,,,,
,,,,,,,,,,,,,,,,,,,,,,,,,,,,,,,,,,,,,,,,,,5ecae16e5a125126cbb0e08b,606841018a9cdac5528af621,2021-04-03_11h18.58.648,Colour_Similarity_Experiment,2020.2.10,Win32,60,60674ec340277cd6a308bc9f,7.048052851,6.948435341,6.949457983,6.950740637,6.943961982,6.949457983,,,,,,,,,,,,,,,,,,,,PF,strong,7,,,,,,,,2,2.10168,,,,,,,,,,,,,,,,,,,,,,,,,,,,2,strong,-64,-46,1,0,0,response5disk,3,15,2,-10,1,0,0,rectangle,-46,-73,1,0,0,3,3,1.26369,1,-4,1,0,0,0,14,14,104,1,1,response5disk_3,rectangle,,,,,,,,,,,,,,,,,,,
,,,,,,,,,,,,,,,,,,,,,,,,,,,,,,,,,,,,,,,,,,5ecae16e5a125126cbb0e08b,606841018a9cdac5528af621,2021-04-03_11h18.58.648,Colour_Similarity_Experiment,2020.2.10,Win32,60,60674ec340277cd6a308bc9f,7.048052851,6.948435341,6.949457983,6.950740637,6.943961982,6.949457983,,,,,,,,,,,,,,,,,,,,PF,weak,7,,,,,,,,3,6.775185,,,,,,,,,,,,,,,,,,,,,,,,,,,,1,weak,-62,-93,1,0,0,response5disk,8,16,2,-1,1,0,0,rectangle,2,-1,1,0,0,3,6,0.00061,2,-1,1,0,0,0,15,15,65,1,0,,,,,,,,,,,,,,,,,,,,,
,,,,,,,,,,,,,,,,,,,,,,,,,,,,,,,,,,,,,,,,,,5ecae16e5a125126cbb0e08b,606841018a9cdac5528af621,2021-04-03_11h18.58.648,Colour_Similarity_Experiment,2020.2.10,Win32,60,60674ec340277cd6a308bc9f,7.048052851,6.948435341,6.949457983,6.950740637,6.943961982,6.949457983,,,,,,,,,,,,,,,,,,,,PF,strong,7,,,,,,,,6,2.58775,,,,,,,,,,,,,,,,,,,,,,,,,,,,1,strong,98,33,1,0,0,response1disk,5,17,-5,-17,1,0,0,rectangle,-5,-17,1,0,0,3,7,0.00053,-5,-17,1,0,0,0,16,16,82,1,0,,,,,,,,,,,,,,,,,,,,,
,,,,,,,,,,,,,,,,,,,,,,,,,,,,,,,,,,,,,,,,,,5ecae16e5a125126cbb0e08b,606841018a9cdac5528af621,2021-04-03_11h18.58.648,Colour_Similarity_Experiment,2020.2.10,Win32,60,60674ec340277cd6a308bc9f,7.048052851,6.948435341,6.949457983,6.950740637,6.943961982,6.949457983,,,,,,,,,,,,,,,,,,,,PF,strong,7,,,,,,,,4,2.4628,,,,,,,,,,,,,,,,,,,,,,,,,,,,9,strong,34,-85,1,0,0,response3disk,7,18,-4,-11,1,0,0,rectangle,-4,-11,1,0,0,3,2,0.000495,-4,-11,1,0,0,0,17,17,100,1,0,,,,,,,,,,,,,,,,,,,,,
,,,,,,,,,,,,,,,,,,,,,,,,,,,,,,,,,,,,,,,,,,5ecae16e5a125126cbb0e08b,606841018a9cdac5528af621,2021-04-03_11h18.58.648,Colour_Similarity_Experiment,2020.2.10,Win32,60,60674ec340277cd6a308bc9f,7.048052851,6.948435341,6.949457983,6.950740637,6.943961982,6.949457983,,,,,,,,,,,,,,,,,,,,PF,strong,7,,,,,,,,3,2.791675,,,,,,,,,,,,,,,,,,,,,,,,,,,,7,strong,-25,-91,1,0,0,response5disk,9,19,6,-1,1,0,0,rectangle,6,-1,1,0,0,3,5,0.00105,6,-1,1,0,0,0,18,18,155,1,0,,,,,,,,,,,,,,,,,,,,,
,,,,,,,,,,,,,,,,,,,,,,,,,,,,,,,,,,,,,,,,,,5ecae16e5a125126cbb0e08b,606841018a9cdac5528af621,2021-04-03_11h18.58.648,Colour_Similarity_Experiment,2020.2.10,Win32,60,60674ec340277cd6a308bc9f,7.048052851,6.948435341,6.949457983,6.950740637,6.943961982,6.949457983,,,,,,,,,,,,,,,,,,,,PF,strong,7,,,,,,,,1,1.77773,,,,,,,,,,,,,,,,,,,,,,,,,,,,6,strong,-65,36,1,0,0,response7disk,6,20,8,0,1,0,0,rectangle,8,0,1,0,0,3,4,0.000585,8,0,1,0,0,0,19,19,91,1,0,,,,,,,,,,,,,,,,,,,,,
,,,,,,,,,,,,,,,,,,,,,,,,,,,,,,,,,,,,,,,,,,5ecae16e5a125126cbb0e08b,606841018a9cdac5528af621,2021-04-03_11h18.58.648,Colour_Similarity_Experiment,2020.2.10,Win32,60,60674ec340277cd6a308bc9f,7.048052851,6.948435341,6.949457983,6.950740637,6.943961982,6.949457983,,,,,,,,,,,,,,,,,,,,PF,strong,7,,,,,,,,3,5.53465,,,,,,,,,,,,,,,,,,,,,,,,,,,,4,strong,-31,-49,1,0,0,response5disk,4,21,-8,-5,1,0,0,rectangle,-8,-5,1,0,0,3,1,0.00052,-8,-5,1,0,0,0,20,20,84,1,0,,,,,,,,,,,,,,,,,,,,,
,,,,,,,,,,,,,,,,,,,,,,,,,,,,,,,,,,,,,,,,,,5ecae16e5a125126cbb0e08b,606841018a9cdac5528af621,2021-04-03_11h18.58.648,Colour_Similarity_Experiment,2020.2.10,Win32,60,60674ec340277cd6a308bc9f,7.048052851,6.948435341,6.949457983,6.950740637,6.943961982,6.949457983,,,,,,,,,,,,,,,,,,,,PF,strong,7,,,,,,,,2,3.187345,,,,,,,,,,,,,,,,,,,,,,,,,,,,7,strong,-66,-25,1,0,0,response5disk,6,22,3,-4,1,0,0,rectangle,3,-4,1,0,0,3,7,0.00053,3,-4,1,0,0,0,21,21,31,1,0,,,,,,,,,,,,,,,,,,,,,
,,,,,,,,,,,,,,,,,,,,,,,,,,,,,,,,,,,,,,,,,,5ecae16e5a125126cbb0e08b,606841018a9cdac5528af621,2021-04-03_11h18.58.648,Colour_Similarity_Experiment,2020.2.10,Win32,60,60674ec340277cd6a308bc9f,7.048052851,6.948435341,6.949457983,6.950740637,6.943961982,6.949457983,,,,,,,,,,,,,,,,,,,,PF,strong,7,,,,,,,,4,2.747805,,,,,,,,,,,,,,,,,,,,,,,,,,,,4,strong,44,-58,1,0,0,response3disk,8,23,8,4,1,0,0,rectangle,8,4,1,0,0,3,6,0.000515,8,4,1,0,0,0,22,22,35,1,0,,,,,,,,,,,,,,,,,,,,,
,,,,,,,,,,,,,,,,,,,,,,,,,,,,,,,,,,,,,,,,,,5ecae16e5a125126cbb0e08b,606841018a9cdac5528af621,2021-04-03_11h18.58.648,Colour_Similarity_Experiment,2020.2.10,Win32,60,60674ec340277cd6a308bc9f,7.048052851,6.948435341,6.949457983,6.950740637,6.943961982,6.949457983,,,,,,,,,,,,,,,,,,,,PF,strong,7,,,,,,,,7,4.354175,,,,,,,,,,,,,,,,,,,,,,,,,,,,4,strong,50,61,1,0,0,response1disk,1,24,-3,-13,1,0,0,rectangle,-3,-13,1,0,0,3,2,0.00058,-3,-13,1,0,0,0,23,23,102,1,0,,,,,,,,,,,,,,,,,,,,,
,,,,,,,,,,,,,,,,,,,,,,,,,,,,,,,,,,,,,,,,,,5ecae16e5a125126cbb0e08b,606841018a9cdac5528af621,2021-04-03_11h18.58.648,Colour_Similarity_Experiment,2020.2.10,Win32,60,60674ec340277cd6a308bc9f,7.048052851,6.948435341,6.949457983,6.950740637,6.943961982,6.949457983,,,,,,,,,,,,,,,,,,,,PF,strong,7,,,,,,,,6,8.7596,,,,,,,,,,,,,,,,,,,,,,,,,,,,6,strong,94,36,1,0,0,response1disk,2,25,7,1,1,0,0,rectangle,7,1,1,0,0,3,3,0.00054,7,1,1,0,0,0,24,24,112,1,0,,,,,,,,,,,,,,,,,,,,,
,,,,,,,,,,,,,,,,,,,,,,,,,,,,,,,,,,,,,,,,,,5ecae16e5a125126cbb0e08b,606841018a9cdac5528af621,2021-04-03_11h18.58.648,Colour_Similarity_Experiment,2020.2.10,Win32,60,60674ec340277cd6a308bc9f,7.048052851,6.948435341,6.949457983,6.950740637,6.943961982,6.949457983,,,,,,,,,,,,,,,,,,,,PF,strong,7,,,,,,,,6,11.16687,,,,,,,,,,,,,,,,,,,,,,,,,,,,9,strong,139,29,1,0,0,response1disk,5,26,15,0,1,0,0,rectangle,15,0,1,0,0,3,0,0.00053,15,0,1,0,0,0,25,25,128,1,0,,,,,,,,,,,,,,,,,,,,,
,,,,,,,,,,,,,,,,,,,,,,,,,,,,,,,,,,,,,,,,,,5ecae16e5a125126cbb0e08b,606841018a9cdac5528af621,2021-04-03_11h18.58.648,Colour_Similarity_Experiment,2020.2.10,Win32,60,60674ec340277cd6a308bc9f,7.048052851,6.948435341,6.949457983,6.950740637,6.943961982,6.949457983,,,,,,,,,,,,,,,,,,,,PF,strong,7,,,,,,,,4,14.10155,,,,,,,,,,,,,,,,,,,,,,,,,,,,2,strong,46,-100,1,0,0,response3disk,6,27,2,1,1,0,0,rectangle,2,1,1,0,0,3,2,0.00056,2,1,1,0,0,0,26,26,40,1,0,,,,,,,,,,,,,,,,,,,,,
,,,,,,,,,,,,,,,,,,,,,,,,,,,,,,,,,,,,,,,,,,5ecae16e5a125126cbb0e08b,606841018a9cdac5528af621,2021-04-03_11h18.58.648,Colour_Similarity_Experiment,2020.2.10,Win32,60,60674ec340277cd6a308bc9f,7.048052851,6.948435341,6.949457983,6.950740637,6.943961982,6.949457983,,,,,,,,,,,,,,,,,,,,PF,weak,7,,,,,,,,7,4.747555,,,,,,,,,,,,,,,,,,,,,,,,,,,,5,weak,59,76,1,0,0,response1disk,2,28,-1,-14,1,0,0,rectangle,-1,-14,1,0,0,3,7,0.000655,-1,-14,1,0,0,0,27,27,129,1,0,,,,,,,,,,,,,,,,,,,,,
,,,,,,,,,,,,,,,,,,,,,,,,,,,,,,,,,,,,,,,,,,5ecae16e5a125126cbb0e08b,606841018a9cdac5528af621,2021-04-03_11h18.58.648,Colour_Similarity_Experiment,2020.2.10,Win32,60,60674ec340277cd6a308bc9f,7.048052851,6.948435341,6.949457983,6.950740637,6.943961982,6.949457983,,,,,,,,,,,,,,,,,,,,PF,strong,7,,,,,,,,5,5.976715,,,,,,,,,,,,,,,,,,,,,,,,,,,,4,strong,139,-64,1,0,0,response3disk,6,29,-5,4,1,0,0,rectangle,-5,4,1,0,0,3,3,0.00062,-5,4,1,0,0,0,28,28,122,1,0,,,,,,,,,,,,,,,,,,,,,
,,,,,,,,,,,,,,,,,,,,,,,,,,,,,,,,,,,,,,,,,,5ecae16e5a125126cbb0e08b,606841018a9cdac5528af621,2021-04-03_11h18.58.648,Colour_Similarity_Experiment,2020.2.10,Win32,60,60674ec340277cd6a308bc9f,7.048052851,6.948435341,6.949457983,6.950740637,6.943961982,6.949457983,,,,,,,,,,,,,,,,,,,,PF,strong,7,,,,,,,,4,1.63196,,,,,,,,,,,,,,,,,,,,,,,,,,,,3,strong,39,-99,1,0,0,response3disk,8,30,8,-6,1,0,0,rectangle,8,-6,1,0,0,3,7,0.00055,8,-6,1,0,0,0,29,29,44,1,0,,,,,,,,,,,,,,,,,,,,,
,,,,,,,,,,,,,,,,,,,,,,,,,,,,,,,,,,,,,,,,,,5ecae16e5a125126cbb0e08b,606841018a9cdac5528af621,2021-04-03_11h18.58.648,Colour_Similarity_Experiment,2020.2.10,Win32,60,60674ec340277cd6a308bc9f,7.048052851,6.948435341,6.949457983,6.950740637,6.943961982,6.949457983,,,,,,,,,,,,,,,,,,,,PF,strong,7,,,,,,,,3,34.108345,,,,,,,,,,,,,,,,,,,,,,,,,,,,9,strong,-38,-93,1,0,0,response5disk,2,31,-3,-4,1,0,0,rectangle,46,-97,1,0,0,4,4,1.444335,0,-2,1,0,0,0,30,30,11,1,1,response3disk_3,rectangle,,,,,,,,,,,,,,,,,,,
,,,,,,,,,,,,,,,,,,,,,,,,,,,,,,,,,,,,,,,,,,5ecae16e5a125126cbb0e08b,606841018a9cdac5528af621,2021-04-03_11h18.58.648,Colour_Similarity_Experiment,2020.2.10,Win32,60,60674ec340277cd6a308bc9f,7.048052851,6.948435341,6.949457983,6.950740637,6.943961982,6.949457983,,,,,,,,,,,,,,,,,,,,PF,strong,7,,,,,,,,3,3.26126,,,,,,,,,,,,,,,,,,,,,,,,,,,,8,strong,-39,-101,1,0,0,response5disk,6,32,-1,7,1,0,0,rectangle,-1,7,1,0,0,4,2,0.00053,-1,7,1,0,0,0,31,31,37,1,0,,,,,,,,,,,,,,,,,,,,,
,,,,,,,,,,,,,,,,,,,,,,,,,,,,,,,,,,,,,,,,,,5ecae16e5a125126cbb0e08b,606841018a9cdac5528af621,2021-04-03_11h18.58.648,Colour_Similarity_Experiment,2020.2.10,Win32,60,60674ec340277cd6a308bc9f,7.048052851,6.948435341,6.949457983,6.950740637,6.943961982,6.949457983,,,,,,,,,,,,,,,,,,,,PF,weak,7,,,,,,,,3,0.951475,,,,,,,,,,,,,,,,,,,,,,,,,,,,9,weak,-39,-79,1,0,0,response5disk,6,33,-7,-4,1,0,0,rectangle,-7,-4,1,0,0,4,5,0.00053,-7,-4,1,0,0,0,32,32,148,1,0,,,,,,,,,,,,,,,,,,,,,
,,,,,,,,,,,,,,,,,,,,,,,,,,,,,,,,,,,,,,,,,,5ecae16e5a125126cbb0e08b,606841018a9cdac5528af621,2021-04-03_11h18.58.648,Colour_Similarity_Experiment,2020.2.10,Win32,60,60674ec340277cd6a308bc9f,7.048052851,6.948435341,6.949457983,6.950740637,6.943961982,6.949457983,,,,,,,,,,,,,,,,,,,,PF,weak,7,,,,,,,,1,2.254405,,,,,,,,,,,,,,,,,,,,,,,,,,,,3,weak,-99,37,1,0,0,response7disk,5,34,-20,-2,1,0,0,rectangle,-20,-2,1,0,0,4,2,0.000515,-20,-2,1,0,0,0,33,33,66,1,0,,,,,,,,,,,,,,,,,,,,,
,,,,,,,,,,,,,,,,,,,,,,,,,,,,,,,,,,,,,,,,,,5ecae16e5a125126cbb0e08b,606841018a9cdac5528af621,2021-04-03_11h18.58.648,Colour_Similarity_Experiment,2020.2.10,Win32,60,60674ec340277cd6a308bc9f,7.048052851,6.948435341,6.949457983,6.950740637,6.943961982,6.949457983,,,,,,,,,,,,,,,,,,,,PF,weak,7,,,,,,,,5,2.14343,,,,,,,,,,,,,,,,,,,,,,,,,,,,9,weak,79,-46,1,0,0,response3disk,5,35,18,-1,1,0,0,rectangle,18,-1,1,0,0,4,0,0.000675,18,-1,1,0,0,0,34,34,134,1,0,,,,,,,,,,,,,,,,,,,,,
,,,,,,,,,,,,,,,,,,,,,,,,,,,,,,,,,,,,,,,,,,5ecae16e5a125126cbb0e08b,606841018a9cdac5528af621,2021-04-03_11h18.58.648,Colour_Similarity_Experiment,2020.2.10,Win32,60,60674ec340277cd6a308bc9f,7.048052851,6.948435341,6.949457983,6.950740637,6.943961982,6.949457983,,,,,,,,,,,,,,,,,,,,PF,strong,7,,,,,,,,7,3.21971,,,,,,,,,,,,,,,,,,,,,,,,,,,,7,strong,42,92,1,0,0,response1disk,7,36,10,5,1,0,0,rectangle,10,5,1,0,0,4,7,0.00067,10,5,1,0,0,0,35,35,34,1,0,,,,,,,,,,,,,,,,,,,,,
,,,,,,,,,,,,,,,,,,,,,,,,,,,,,,,,,,,,,,,,,,5ecae16e5a125126cbb0e08b,606841018a9cdac5528af621,2021-04-03_11h18.58.648,Colour_Similarity_Experiment,2020.2.10,Win32,60,60674ec340277cd6a308bc9f,7.048052851,6.948435341,6.949457983,6.950740637,6.943961982,6.949457983,,,,,,,,,,,,,,,,,,,,PF,weak,7,,,,,,,,0,1.177955,,,,,,,,,,,,,,,,,,,,,,,,,,,,5,weak,-41,79,1,0,0,response7disk,5,37,8,4,1,0,0,rectangle,8,4,1,0,0,4,0,0.00049,8,4,1,0,0,0,36,36,94,1,0,,,,,,,,,,,,,,,,,,,,,
,,,,,,,,,,,,,,,,,,,,,,,,,,,,,,,,,,,,,,,,,,5ecae16e5a125126cbb0e08b,606841018a9cdac5528af621,2021-04-03_11h18.58.648,Colour_Similarity_Experiment,2020.2.10,Win32,60,60674ec340277cd6a308bc9f,7.048052851,6.948435341,6.949457983,6.950740637,6.943961982,6.949457983,,,,,,,,,,,,,,,,,,,,PF,weak,7,,,,,,,,1,1.96283,,,,,,,,,,,,,,,,,,,,,,,,,,,,8,weak,-77,34,1,0,0,response7disk,8,38,-18,-3,1,0,0,rectangle,-18,-3,1,0,0,4,7,0.000545,-18,-3,1,0,0,0,37,37,153,1,0,,,,,,,,,,,,,,,,,,,,,
,,,,,,,,,,,,,,,,,,,,,,,,,,,,,,,,,,,,,,,,,,5ecae16e5a125126cbb0e08b,606841018a9cdac5528af621,2021-04-03_11h18.58.648,Colour_Similarity_Experiment,2020.2.10,Win32,60,60674ec340277cd6a308bc9f,7.048052851,6.948435341,6.949457983,6.950740637,6.943961982,6.949457983,,,,,,,,,,,,,,,,,,,,PF,strong,7,,,,,,,,5,2.99548,,,,,,,,,,,,,,,,,,,,,,,,,,,,8,strong,58,-45,1,0,0,response3disk,5,39,10,-3,1,0,0,rectangle,10,-3,1,0,0,4,3,0.000515,10,-3,1,0,0,0,38,38,152,1,0,,,,,,,,,,,,,,,,,,,,,
,,,,,,,,,,,,,,,,,,,,,,,,,,,,,,,,,,,,,,,,,,5ecae16e5a125126cbb0e08b,606841018a9cdac5528af621,2021-04-03_11h18.58.648,Colour_Similarity_Experiment,2020.2.10,Win32,60,60674ec340277cd6a308bc9f,7.048052851,6.948435341,6.949457983,6.950740637,6.943961982,6.949457983,,,,,,,,,,,,,,,,,,,,PF,strong,7,,,,,,,,1,1.84279,,,,,,,,,,,,,,,,,,,,,,,,,,,,1,strong,-75,30,1,0,0,response7disk,9,40,0,3,1,0,0,rectangle,0,3,1,0,0,4,5,0.0007,0,3,1,0,0,0,39,39,123,1,0,,,,,,,,,,,,,,,,,,,,,
,,,,,,,,,,,,,,,,,,,,,,,,,,,,,,,,,,,,,,,,,,5ecae16e5a125126cbb0e08b,606841018a9cdac5528af621,2021-04-03_11h18.58.648,Colour_Similarity_Experiment,2020.2.10,Win32,60,60674ec340277cd6a308bc9f,7.048052851,6.948435341,6.949457983,6.950740637,6.943961982,6.949457983,,,,,,,,,,,,,,,,,,,,PF,weak,7,,,,,,,,6,1.78222,,,,,,,,,,,,,,,,,,,,,,,,,,,,1,weak,103,52,1,0,0,response1disk,5,41,30,-2,1,0,0,rectangle,30,-2,1,0,0,4,3,0.0005,30,-2,1,0,0,0,40,40,28,1,0,,,,,,,,,,,,,,,,,,,,,
,,,,,,,,,,,,,,,,,,,,,,,,,,,,,,,,,,,,,,,,,,5ecae16e5a125126cbb0e08b,606841018a9cdac5528af621,2021-04-03_11h18.58.648,Colour_Similarity_Experiment,2020.2.10,Win32,60,60674ec340277cd6a308bc9f,7.048052851,6.948435341,6.949457983,6.950740637,6.943961982,6.949457983,,,,,,,,,,,,,,,,,,,,PF,strong,7,,,,,,,,6,2.24041,,,,,,,,,,,,,,,,,,,,,,,,,,,,8,strong,84,46,1,0,0,response1disk,7,42,26,11,1,0,0,rectangle,26,11,1,0,0,4,4,0.000545,26,11,1,0,0,0,41,41,86,1,0,,,,,,,,,,,,,,,,,,,,,
,,,,,,,,,,,,,,,,,,,,,,,,,,,,,,,,,,,,,,,,,,5ecae16e5a125126cbb0e08b,606841018a9cdac5528af621,2021-04-03_11h18.58.648,Colour_Similarity_Experiment,2020.2.10,Win32,60,60674ec340277cd6a308bc9f,7.048052851,6.948435341,6.949457983,6.950740637,6.943961982,6.949457983,,,,,,,,,,,,,,,,,,,,PF,weak,7,,,,,,,,1,1.344425,,,,,,,,,,,,,,,,,,,,,,,,,,,,9,weak,-64,35,1,0,0,response7disk,1,43,6,2,1,0,0,rectangle,6,2,1,0,0,4,4,7.00001E-05,6,2,1,0,0,0,42,42,74,1,0,,,,,,,,,,,,,,,,,,,,,
,,,,,,,,,,,,,,,,,,,,,,,,,,,,,,,,,,,,,,,,,,5ecae16e5a125126cbb0e08b,606841018a9cdac5528af621,2021-04-03_11h18.58.648,Colour_Similarity_Experiment,2020.2.10,Win32,60,60674ec340277cd6a308bc9f,7.048052851,6.948435341,6.949457983,6.950740637,6.943961982,6.949457983,,,,,,,,,,,,,,,,,,,,PF,strong,7,,,,,,,,7,2.064825,,,,,,,,,,,,,,,,,,,,,,,,,,,,4,strong,51,68,1,0,0,response1disk,7,44,2,3,1,0,0,rectangle,2,3,1,0,0,4,5,0.000645,2,3,1,0,0,0,43,43,87,1,0,,,,,,,,,,,,,,,,,,,,,
,,,,,,,,,,,,,,,,,,,,,,,,,,,,,,,,,,,,,,,,,,5ecae16e5a125126cbb0e08b,606841018a9cdac5528af621,2021-04-03_11h18.58.648,Colour_Similarity_Experiment,2020.2.10,Win32,60,60674ec340277cd6a308bc9f,7.048052851,6.948435341,6.949457983,6.950740637,6.943961982,6.949457983,,,,,,,,,,,,,,,,,,,,PF,strong,7,,,,,,,,5,1.97665,,,,,,,,,,,,,,,,,,,,,,,,,,,,7,strong,86,-53,1,0,0,response3disk,3,45,7,-6,1,0,0,rectangle,7,-6,1,0,0,4,2,0.00058,7,-6,1,0,0,0,44,44,73,1,0,,,,,,,,,,,,,,,,,,,,,
,,,,,,,,,,,,,,,,,,,,,,,,,,,,,,,,,,,,,,,,,,5ecae16e5a125126cbb0e08b,606841018a9cdac5528af621,2021-04-03_11h18.58.648,Colour_Similarity_Experiment,2020.2.10,Win32,60,60674ec340277cd6a308bc9f,7.048052851,6.948435341,6.949457983,6.950740637,6.943961982,6.949457983,,,,,,,,,,,,,,,,,,,,PF,strong,7,,,,,,,,5,2.295955,,,,,,,,,,,,,,,,,,,,,,,,,,,,6,strong,61,-40,1,0,0,response3disk,9,46,9,-11,1,0,0,rectangle,88,-53,1,0,0,5,5,1.27816,5,-6,1,0,0,0,45,45,160,1,1,response3disk_3,rectangle,,,,,,,,,,,,,,,,,,,
,,,,,,,,,,,,,,,,,,,,,,,,,,,,,,,,,,,,,,,,,,5ecae16e5a125126cbb0e08b,606841018a9cdac5528af621,2021-04-03_11h18.58.648,Colour_Similarity_Experiment,2020.2.10,Win32,60,60674ec340277cd6a308bc9f,7.048052851,6.948435341,6.949457983,6.950740637,6.943961982,6.949457983,,,,,,,,,,,,,,,,,,,,PF,weak,7,,,,,,,,6,4.249825,,,,,,,,,,,,,,,,,,,,,,,,,,,,1,weak,132,49,1,0,0,response1disk,3,47,3,-5,1,0,0,rectangle,3,-5,1,0,0,5,0,0.00058,3,-5,1,0,0,0,46,46,1,1,0,,,,,,,,,,,,,,,,,,,,,
,,,,,,,,,,,,,,,,,,,,,,,,,,,,,,,,,,,,,,,,,,5ecae16e5a125126cbb0e08b,606841018a9cdac5528af621,2021-04-03_11h18.58.648,Colour_Similarity_Experiment,2020.2.10,Win32,60,60674ec340277cd6a308bc9f,7.048052851,6.948435341,6.949457983,6.950740637,6.943961982,6.949457983,,,,,,,,,,,,,,,,,,,,PF,weak,7,,,,,,,,7,1.066875,,,,,,,,,,,,,,,,,,,,,,,,,,,,6,weak,30,73,1,0,0,response1disk,1,48,4,3,1,0,0,rectangle,4,3,1,0,0,5,6,0.000525,4,3,1,0,0,0,47,47,46,1,0,,,,,,,,,,,,,,,,,,,,,
,,,,,,,,,,,,,,,,,,,,,,,,,,,,,,,,,,,,,,,,,,5ecae16e5a125126cbb0e08b,606841018a9cdac5528af621,2021-04-03_11h18.58.648,Colour_Similarity_Experiment,2020.2.10,Win32,60,60674ec340277cd6a308bc9f,7.048052851,6.948435341,6.949457983,6.950740637,6.943961982,6.949457983,,,,,,,,,,,,,,,,,,,,PF,weak,7,,,,,,,,0,1.094705,,,,,,,,,,,,,,,,,,,,,,,,,,,,9,weak,-41,67,1,0,0,response7disk,9,49,-1,-6,1,0,0,rectangle,-1,-6,1,0,0,5,2,0.000685,-1,-6,1,0,0,0,48,48,106,1,0,,,,,,,,,,,,,,,,,,,,,
,,,,,,,,,,,,,,,,,,,,,,,,,,,,,,,,,,,,,,,,,,5ecae16e5a125126cbb0e08b,606841018a9cdac5528af621,2021-04-03_11h18.58.648,Colour_Similarity_Experiment,2020.2.10,Win32,60,60674ec340277cd6a308bc9f,7.048052851,6.948435341,6.949457983,6.950740637,6.943961982,6.949457983,,,,,,,,,,,,,,,,,,,,PF,weak,7,,,,,,,,1,1.42813,,,,,,,,,,,,,,,,,,,,,,,,,,,,5,weak,-79,45,1,0,0,response7disk,7,50,-9,-5,1,0,0,rectangle,-9,-5,1,0,0,5,2,6.49999E-05,-9,-5,1,0,0,0,49,49,146,1,0,,,,,,,,,,,,,,,,,,,,,
,,,,,,,,,,,,,,,,,,,,,,,,,,,,,,,,,,,,,,,,,,5ecae16e5a125126cbb0e08b,606841018a9cdac5528af621,2021-04-03_11h18.58.648,Colour_Similarity_Experiment,2020.2.10,Win32,60,60674ec340277cd6a308bc9f,7.048052851,6.948435341,6.949457983,6.950740637,6.943961982,6.949457983,,,,,,,,,,,,,,,,,,,,PF,weak,7,,,,,,,,6,2.01832,,,,,,,,,,,,,,,,,,,,,,,,,,,,7,weak,102,32,1,0,0,response1disk,9,51,12,-7,1,0,0,rectangle,12,-7,1,0,0,5,3,0.000465,12,-7,1,0,0,0,50,50,10,1,0,,,,,,,,,,,,,,,,,,,,,
,,,,,,,,,,,,,,,,,,,,,,,,,,,,,,,,,,,,,,,,,,5ecae16e5a125126cbb0e08b,606841018a9cdac5528af621,2021-04-03_11h18.58.648,Colour_Similarity_Experiment,2020.2.10,Win32,60,60674ec340277cd6a308bc9f,7.048052851,6.948435341,6.949457983,6.950740637,6.943961982,6.949457983,,,,,,,,,,,,,,,,,,,,PF,strong,7,,,,,,,,0,1.32384,,,,,,,,,,,,,,,,,,,,,,,,,,,,6,strong,-40,61,1,0,0,response7disk,7,52,11,-2,1,0,0,rectangle,11,-2,1,0,0,5,3,7.00001E-05,11,-2,1,0,0,0,51,51,18,1,0,,,,,,,,,,,,,,,,,,,,,
,,,,,,,,,,,,,,,,,,,,,,,,,,,,,,,,,,,,,,,,,,5ecae16e5a125126cbb0e08b,606841018a9cdac5528af621,2021-04-03_11h18.58.648,Colour_Similarity_Experiment,2020.2.10,Win32,60,60674ec340277cd6a308bc9f,7.048052851,6.948435341,6.949457983,6.950740637,6.943961982,6.949457983,,,,,,,,,,,,,,,,,,,,PF,strong,7,,,,,,,,2,3.39334,,,,,,,,,,,,,,,,,,,,,,,,,,,,7,strong,-90,-41,1,0,0,response5disk,1,53,13,3,1,0,0,rectangle,13,3,1,0,0,5,4,0.00052,13,3,1,0,0,0,52,52,132,1,0,,,,,,,,,,,,,,,,,,,,,
,,,,,,,,,,,,,,,,,,,,,,,,,,,,,,,,,,,,,,,,,,5ecae16e5a125126cbb0e08b,606841018a9cdac5528af621,2021-04-03_11h18.58.648,Colour_Similarity_Experiment,2020.2.10,Win32,60,60674ec340277cd6a308bc9f,7.048052851,6.948435341,6.949457983,6.950740637,6.943961982,6.949457983,,,,,,,,,,,,,,,,,,,,PF,weak,7,,,,,,,,2,1.69193,,,,,,,,,,,,,,,,,,,,,,,,,,,,5,weak,-92,-44,1,0,0,response5disk,3,54,-4,-5,1,0,0,rectangle,-4,-5,1,0,0,5,7,0.000735,-4,-5,1,0,0,0,53,53,109,1,0,,,,,,,,,,,,,,,,,,,,,
,,,,,,,,,,,,,,,,,,,,,,,,,,,,,,,,,,,,,,,,,,5ecae16e5a125126cbb0e08b,606841018a9cdac5528af621,2021-04-03_11h18.58.648,Colour_Similarity_Experiment,2020.2.10,Win32,60,60674ec340277cd6a308bc9f,7.048052851,6.948435341,6.949457983,6.950740637,6.943961982,6.949457983,,,,,,,,,,,,,,,,,,,,PF,weak,7,,,,,,,,2,1.89329,,,,,,,,,,,,,,,,,,,,,,,,,,,,7,weak,-99,-37,1,0,0,response5disk,5,55,-16,-5,1,0,0,rectangle,-16,-5,1,0,0,5,6,0.00074,-16,-5,1,0,0,0,54,54,92,1,0,,,,,,,,,,,,,,,,,,,,,
,,,,,,,,,,,,,,,,,,,,,,,,,,,,,,,,,,,,,,,,,,5ecae16e5a125126cbb0e08b,606841018a9cdac5528af621,2021-04-03_11h18.58.648,Colour_Similarity_Experiment,2020.2.10,Win32,60,60674ec340277cd6a308bc9f,7.048052851,6.948435341,6.949457983,6.950740637,6.943961982,6.949457983,,,,,,,,,,,,,,,,,,,,PF,weak,7,,,,,,,,7,2.55994,,,,,,,,,,,,,,,,,,,,,,,,,,,,5,weak,65,84,1,0,0,response1disk,1,56,-19,-2,1,0,0,rectangle,99,-56,1,0,0,5,5,1.04144,5,2,1,0,0,0,55,55,159,1,1,response3disk_3,rectangle,,,,,,,,,,,,,,,,,,,
,,,,,,,,,,,,,,,,,,,,,,,,,,,,,,,,,,,,,,,,,,5ecae16e5a125126cbb0e08b,606841018a9cdac5528af621,2021-04-03_11h18.58.648,Colour_Similarity_Experiment,2020.2.10,Win32,60,60674ec340277cd6a308bc9f,7.048052851,6.948435341,6.949457983,6.950740637,6.943961982,6.949457983,,,,,,,,,,,,,,,,,,,,PF,strong,7,,,,,,,,7,2.888985,,,,,,,,,,,,,,,,,,,,,,,,,,,,8,strong,48,75,1,0,0,response1disk,4,57,12,14,1,0,0,rectangle,12,14,1,0,0,5,3,0.00052,12,14,1,0,0,0,56,56,88,1,0,,,,,,,,,,,,,,,,,,,,,
,,,,,,,,,,,,,,,,,,,,,,,,,,,,,,,,,,,,,,,,,,5ecae16e5a125126cbb0e08b,606841018a9cdac5528af621,2021-04-03_11h18.58.648,Colour_Similarity_Experiment,2020.2.10,Win32,60,60674ec340277cd6a308bc9f,7.048052851,6.948435341,6.949457983,6.950740637,6.943961982,6.949457983,,,,,,,,,,,,,,,,,,,,PF,weak,7,,,,,,,,7,1.58079,,,,,,,,,,,,,,,,,,,,,,,,,,,,7,weak,43,72,1,0,0,response1disk,1,58,8,-4,1,0,0,rectangle,8,-4,1,0,0,5,0,0.000545,8,-4,1,0,0,0,57,57,53,1,0,,,,,,,,,,,,,,,,,,,,,
,,,,,,,,,,,,,,,,,,,,,,,,,,,,,,,,,,,,,,,,,,5ecae16e5a125126cbb0e08b,606841018a9cdac5528af621,2021-04-03_11h18.58.648,Colour_Similarity_Experiment,2020.2.10,Win32,60,60674ec340277cd6a308bc9f,7.048052851,6.948435341,6.949457983,6.950740637,6.943961982,6.949457983,,,,,,,,,,,,,,,,,,,,PF,weak,7,,,,,,,,6,1.68767,,,,,,,,,,,,,,,,,,,,,,,,,,,,6,weak,126,39,1,0,0,response1disk,4,59,-4,-8,1,0,0,rectangle,-4,-8,1,0,0,5,2,0.00048,-4,-8,1,0,0,0,58,58,33,1,0,,,,,,,,,,,,,,,,,,,,,
,,,,,,,,,,,,,,,,,,,,,,,,,,,,,,,,,,,,,,,,,,5ecae16e5a125126cbb0e08b,606841018a9cdac5528af621,2021-04-03_11h18.58.648,Colour_Similarity_Experiment,2020.2.10,Win32,60,60674ec340277cd6a308bc9f,7.048052851,6.948435341,6.949457983,6.950740637,6.943961982,6.949457983,,,,,,,,,,,,,,,,,,,,PF,strong,7,,,,,,,,5,2.092765,,,,,,,,,,,,,,,,,,,,,,,,,,,,7,strong,80,-48,1,0,0,response3disk,8,60,13,-8,1,0,0,rectangle,51,86,1,0,0,7,7,1.2707,-7,-14,1,0,0,0,59,59,97,1,1,response1disk_3,rectangle,,,,,,,,,,,,,,,,,,,
,,,,,,,,,,,,,,,,,,,,,,,,,,,,,,,,,,,,,,,,,,5ecae16e5a125126cbb0e08b,606841018a9cdac5528af621,2021-04-03_11h18.58.648,Colour_Similarity_Experiment,2020.2.10,Win32,60,60674ec340277cd6a308bc9f,7.048052851,6.948435341,6.949457983,6.950740637,6.943961982,6.949457983,,,,,,,,,,,,,,,,,,,,PF,strong,7,,,,,,,,5,2.29414,,,,,,,,,,,,,,,,,,,,,,,,,,,,3,strong,92,-58,1,0,0,response3disk,1,61,12,0,1,0,0,rectangle,12,0,1,0,0,7,2,0.00068,12,0,1,0,0,0,60,60,125,1,0,,,,,,,,,,,,,,,,,,,,,
,,,,,,,,,,,,,,,,,,,,,,,,,,,,,,,,,,,,,,,,,,5ecae16e5a125126cbb0e08b,606841018a9cdac5528af621,2021-04-03_11h18.58.648,Colour_Similarity_Experiment,2020.2.10,Win32,60,60674ec340277cd6a308bc9f,7.048052851,6.948435341,6.949457983,6.950740637,6.943961982,6.949457983,,,,,,,,,,,,,,,,,,,,PF,strong,7,,,,,,,,4,1.82386,,,,,,,,,,,,,,,,,,,,,,,,,,,,5,strong,35,-75,1,0,0,response3disk,8,62,-14,-16,1,0,0,rectangle,-14,-16,1,0,0,7,1,0.000635,-14,-16,1,0,0,0,61,61,16,1,0,,,,,,,,,,,,,,,,,,,,,
,,,,,,,,,,,,,,,,,,,,,,,,,,,,,,,,,,,,,,,,,,5ecae16e5a125126cbb0e08b,606841018a9cdac5528af621,2021-04-03_11h18.58.648,Colour_Similarity_Experiment,2020.2.10,Win32,60,60674ec340277cd6a308bc9f,7.048052851,6.948435341,6.949457983,6.950740637,6.943961982,6.949457983,,,,,,,,,,,,,,,,,,,,PF,strong,7,,,,,,,,4,1.24056,,,,,,,,,,,,,,,,,,,,,,,,,,,,2,strong,40,-53,1,0,0,response3disk,4,63,0,1,1,0,0,rectangle,0,1,1,0,0,7,4,0.00048,0,1,1,0,0,0,62,62,145,1,0,,,,,,,,,,,,,,,,,,,,,
,,,,,,,,,,,,,,,,,,,,,,,,,,,,,,,,,,,,,,,,,,5ecae16e5a125126cbb0e08b,606841018a9cdac5528af621,2021-04-03_11h18.58.648,Colour_Similarity_Experiment,2020.2.10,Win32,60,60674ec340277cd6a308bc9f,7.048052851,6.948435341,6.949457983,6.950740637,6.943961982,6.949457983,,,,,,,,,,,,,,,,,,,,PF,weak,7,,,,,,,,5,2.43485,,,,,,,,,,,,,,,,,,,,,,,,,,,,2,weak,101,-40,1,0,0,response3disk,8,64,36,-6,1,0,0,rectangle,36,-6,1,0,0,7,6,0.00052,36,-6,1,0,0,0,63,63,52,1,0,,,,,,,,,,,,,,,,,,,,,
,,,,,,,,,,,,,,,,,,,,,,,,,,,,,,,,,,,,,,,,,,5ecae16e5a125126cbb0e08b,606841018a9cdac5528af621,2021-04-03_11h18.58.648,Colour_Similarity_Experiment,2020.2.10,Win32,60,60674ec340277cd6a308bc9f,7.048052851,6.948435341,6.949457983,6.950740637,6.943961982,6.949457983,,,,,,,,,,,,,,,,,,,,PF,weak,7,,,,,,,,6,3.19888,,,,,,,,,,,,,,,,,,,,,,,,,,,,6,weak,114,31,1,0,0,response1disk,2,65,8,-4,1,0,0,rectangle,8,-4,1,0,0,7,4,0.00051,8,-4,1,0,0,0,64,64,130,1,0,,,,,,,,,,,,,,,,,,,,,
,,,,,,,,,,,,,,,,,,,,,,,,,,,,,,,,,,,,,,,,,,5ecae16e5a125126cbb0e08b,606841018a9cdac5528af621,2021-04-03_11h18.58.648,Colour_Similarity_Experiment,2020.2.10,Win32,60,60674ec340277cd6a308bc9f,7.048052851,6.948435341,6.949457983,6.950740637,6.943961982,6.949457983,,,,,,,,,,,,,,,,,,,,PF,weak,7,,,,,,,,1,2.604505,,,,,,,,,,,,,,,,,,,,,,,,,,,,5,weak,-99,34,1,0,0,response7disk,6,66,-11,8,1,0,0,rectangle,-11,8,1,0,0,7,4,7.00001E-05,-11,8,1,0,0,0,65,65,103,1,0,,,,,,,,,,,,,,,,,,,,,
,,,,,,,,,,,,,,,,,,,,,,,,,,,,,,,,,,,,,,,,,,5ecae16e5a125126cbb0e08b,606841018a9cdac5528af621,2021-04-03_11h18.58.648,Colour_Similarity_Experiment,2020.2.10,Win32,60,60674ec340277cd6a308bc9f,7.048052851,6.948435341,6.949457983,6.950740637,6.943961982,6.949457983,,,,,,,,,,,,,,,,,,,,PF,strong,7,,,,,,,,7,3.080845,,,,,,,,,,,,,,,,,,,,,,,,,,,,5,strong,47,99,1,0,0,response1disk,4,67,-13,-6,1,0,0,rectangle,-13,-6,1,0,0,7,1,0.00051,-13,-6,1,0,0,0,66,66,8,1,0,,,,,,,,,,,,,,,,,,,,,
,,,,,,,,,,,,,,,,,,,,,,,,,,,,,,,,,,,,,,,,,,5ecae16e5a125126cbb0e08b,606841018a9cdac5528af621,2021-04-03_11h18.58.648,Colour_Similarity_Experiment,2020.2.10,Win32,60,60674ec340277cd6a308bc9f,7.048052851,6.948435341,6.949457983,6.950740637,6.943961982,6.949457983,,,,,,,,,,,,,,,,,,,,PF,weak,7,,,,,,,,5,2.302575,,,,,,,,,,,,,,,,,,,,,,,,,,,,2,weak,101,-52,1,0,0,response3disk,4,68,17,0,1,0,0,rectangle,17,0,1,0,0,7,0,0.000475,17,0,1,0,0,0,67,67,127,1,0,,,,,,,,,,,,,,,,,,,,,
,,,,,,,,,,,,,,,,,,,,,,,,,,,,,,,,,,,,,,,,,,5ecae16e5a125126cbb0e08b,606841018a9cdac5528af621,2021-04-03_11h18.58.648,Colour_Similarity_Experiment,2020.2.10,Win32,60,60674ec340277cd6a308bc9f,7.048052851,6.948435341,6.949457983,6.950740637,6.943961982,6.949457983,,,,,,,,,,,,,,,,,,,,PF,weak,7,,,,,,,,4,3.546065,,,,,,,,,,,,,,,,,,,,,,,,,,,,8,weak,37,-100,1,0,0,response3disk,6,69,17,-10,1,0,0,rectangle,99,43,1,0,0,6,6,1.49294,-2,0,1,0,0,0,68,68,161,1,1,response1disk_3,rectangle,,,,,,,,,,,,,,,,,,,
,,,,,,,,,,,,,,,,,,,,,,,,,,,,,,,,,,,,,,,,,,5ecae16e5a125126cbb0e08b,606841018a9cdac5528af621,2021-04-03_11h18.58.648,Colour_Similarity_Experiment,2020.2.10,Win32,60,60674ec340277cd6a308bc9f,7.048052851,6.948435341,6.949457983,6.950740637,6.943961982,6.949457983,,,,,,,,,,,,,,,,,,,,PF,strong,7,,,,,,,,7,1.393325,,,,,,,,,,,,,,,,,,,,,,,,,,,,6,strong,44,73,1,0,0,response1disk,1,70,-5,-5,1,0,0,rectangle,-5,-5,1,0,0,6,5,0.000535,-5,-5,1,0,0,0,69,69,5,1,0,,,,,,,,,,,,,,,,,,,,,
,,,,,,,,,,,,,,,,,,,,,,,,,,,,,,,,,,,,,,,,,,5ecae16e5a125126cbb0e08b,606841018a9cdac5528af621,2021-04-03_11h18.58.648,Colour_Similarity_Experiment,2020.2.10,Win32,60,60674ec340277cd6a308bc9f,7.048052851,6.948435341,6.949457983,6.950740637,6.943961982,6.949457983,,,,,,,,,,,,,,,,,,,,PF,weak,7,,,,,,,,7,0.99748,,,,,,,,,,,,,,,,,,,,,,,,,,,,7,weak,54,93,1,0,0,response1disk,4,71,-11,-6,1,0,0,rectangle,-11,-6,1,0,0,6,7,0.000485,-11,-6,1,0,0,0,70,70,43,1,0,,,,,,,,,,,,,,,,,,,,,
,,,,,,,,,,,,,,,,,,,,,,,,,,,,,,,,,,,,,,,,,,5ecae16e5a125126cbb0e08b,606841018a9cdac5528af621,2021-04-03_11h18.58.648,Colour_Similarity_Experiment,2020.2.10,Win32,60,60674ec340277cd6a308bc9f,7.048052851,6.948435341,6.949457983,6.950740637,6.943961982,6.949457983,,,,,,,,,,,,,,,,,,,,PF,strong,7,,,,,,,,5,1.677935,,,,,,,,,,,,,,,,,,,,,,,,,,,,9,strong,102,-46,1,0,0,response3disk,4,72,20,-2,1,0,0,rectangle,20,-2,1,0,0,6,0,0.00054,20,-2,1,0,0,0,71,71,60,1,0,,,,,,,,,,,,,,,,,,,,,
,,,,,,,,,,,,,,,,,,,,,,,,,,,,,,,,,,,,,,,,,,5ecae16e5a125126cbb0e08b,606841018a9cdac5528af621,2021-04-03_11h18.58.648,Colour_Similarity_Experiment,2020.2.10,Win32,60,60674ec340277cd6a308bc9f,7.048052851,6.948435341,6.949457983,6.950740637,6.943961982,6.949457983,,,,,,,,,,,,,,,,,,,,PF,strong,7,,,,,,,,4,1.32381,,,,,,,,,,,,,,,,,,,,,,,,,,,,9,strong,38,-62,1,0,0,response3disk,1,73,10,-11,1,0,0,rectangle,10,-11,1,0,0,6,2,0.000605,10,-11,1,0,0,0,72,72,111,1,0,,,,,,,,,,,,,,,,,,,,,
,,,,,,,,,,,,,,,,,,,,,,,,,,,,,,,,,,,,,,,,,,5ecae16e5a125126cbb0e08b,606841018a9cdac5528af621,2021-04-03_11h18.58.648,Colour_Similarity_Experiment,2020.2.10,Win32,60,60674ec340277cd6a308bc9f,7.048052851,6.948435341,6.949457983,6.950740637,6.943961982,6.949457983,,,,,,,,,,,,,,,,,,,,PF,strong,7,,,,,,,,2,2.041605,,,,,,,,,,,,,,,,,,,,,,,,,,,,7,strong,-67,-46,1,0,0,response5disk,5,74,-14,-11,1,0,0,rectangle,-14,-11,1,0,0,6,2,7.5E-05,-14,-11,1,0,0,0,73,73,156,1,0,,,,,,,,,,,,,,,,,,,,,
,,,,,,,,,,,,,,,,,,,,,,,,,,,,,,,,,,,,,,,,,,5ecae16e5a125126cbb0e08b,606841018a9cdac5528af621,2021-04-03_11h18.58.648,Colour_Similarity_Experiment,2020.2.10,Win32,60,60674ec340277cd6a308bc9f,7.048052851,6.948435341,6.949457983,6.950740637,6.943961982,6.949457983,,,,,,,,,,,,,,,,,,,,PF,weak,7,,,,,,,,7,0.993025,,,,,,,,,,,,,,,,,,,,,,,,,,,,1,weak,54,84,1,0,0,response1disk,7,75,-2,-1,1,0,0,rectangle,-2,-1,1,0,0,6,2,7.5E-05,-2,-1,1,0,0,0,74,74,150,1,0,,,,,,,,,,,,,,,,,,,,,
,,,,,,,,,,,,,,,,,,,,,,,,,,,,,,,,,,,,,,,,,,5ecae16e5a125126cbb0e08b,606841018a9cdac5528af621,2021-04-03_11h18.58.648,Colour_Similarity_Experiment,2020.2.10,Win32,60,60674ec340277cd6a308bc9f,7.048052851,6.948435341,6.949457983,6.950740637,6.943961982,6.949457983,,,,,,,,,,,,,,,,,,,,PF,weak,7,,,,,,,,5,1.226035,,,,,,,,,,,,,,,,,,,,,,,,,,,,4,weak,98,-45,1,0,0,response3disk,9,76,21,-6,1,0,0,rectangle,21,-6,1,0,0,6,5,0.000495,21,-6,1,0,0,0,75,75,75,1,0,,,,,,,,,,,,,,,,,,,,,
,,,,,,,,,,,,,,,,,,,,,,,,,,,,,,,,,,,,,,,,,,5ecae16e5a125126cbb0e08b,606841018a9cdac5528af621,2021-04-03_11h18.58.648,Colour_Similarity_Experiment,2020.2.10,Win32,60,60674ec340277cd6a308bc9f,7.048052851,6.948435341,6.949457983,6.950740637,6.943961982,6.949457983,,,,,,,,,,,,,,,,,,,,PF,weak,7,,,,,,,,4,3.108605,,,,,,,,,,,,,,,,,,,,,,,,,,,,7,weak,31,-91,1,0,0,response3disk,8,77,2,-18,1,0,0,rectangle,2,-18,1,0,0,6,3,0.00053,2,-18,1,0,0,0,76,76,140,1,0,,,,,,,,,,,,,,,,,,,,,
,,,,,,,,,,,,,,,,,,,,,,,,,,,,,,,,,,,,,,,,,,5ecae16e5a125126cbb0e08b,606841018a9cdac5528af621,2021-04-03_11h18.58.648,Colour_Similarity_Experiment,2020.2.10,Win32,60,60674ec340277cd6a308bc9f,7.048052851,6.948435341,6.949457983,6.950740637,6.943961982,6.949457983,,,,,,,,,,,,,,,,,,,,PF,weak,7,,,,,,,,0,1.08079,,,,,,,,,,,,,,,,,,,,,,,,,,,,3,weak,-39,91,1,0,0,response7disk,4,78,11,-7,1,0,0,rectangle,11,-7,1,0,0,6,0,0.000535,11,-7,1,0,0,0,77,77,30,1,0,,,,,,,,,,,,,,,,,,,,,
,,,,,,,,,,,,,,,,,,,,,,,,,,,,,,,,,,,,,,,,,,5ecae16e5a125126cbb0e08b,606841018a9cdac5528af621,2021-04-03_11h18.58.648,Colour_Similarity_Experiment,2020.2.10,Win32,60,60674ec340277cd6a308bc9f,7.048052851,6.948435341,6.949457983,6.950740637,6.943961982,6.949457983,,,,,,,,,,,,,,,,,,,,PF,weak,7,,,,,,,,4,1.511135,,,,,,,,,,,,,,,,,,,,,,,,,,,,4,weak,50,-82,1,0,0,response3disk,8,79,-17,-11,1,0,0,rectangle,-17,-11,1,0,0,6,6,0.00055,-17,-11,1,0,0,0,78,78,124,1,0,,,,,,,,,,,,,,,,,,,,,
,,,,,,,,,,,,,,,,,,,,,,,,,,,,,,,,,,,,,,,,,,5ecae16e5a125126cbb0e08b,606841018a9cdac5528af621,2021-04-03_11h18.58.648,Colour_Similarity_Experiment,2020.2.10,Win32,60,60674ec340277cd6a308bc9f,7.048052851,6.948435341,6.949457983,6.950740637,6.943961982,6.949457983,,,,,,,,,,,,,,,,,,,,PF,weak,7,,,,,,,,5,4.356655,,,,,,,,,,,,,,,,,,,,,,,,,,,,2,weak,114,-53,1,0,0,response3disk,7,80,4,-1,1,0,0,rectangle,4,-1,1,0,0,6,0,0.000485,4,-1,1,0,0,0,79,79,107,1,0,,,,,,,,,,,,,,,,,,,,,
,,,,,,,,,,,,,,,,,,,,,,,,,,,,,,,,,,,,,,,,,,5ecae16e5a125126cbb0e08b,606841018a9cdac5528af621,2021-04-03_11h18.58.648,Colour_Similarity_Experiment,2020.2.10,Win32,60,60674ec340277cd6a308bc9f,7.048052851,6.948435341,6.949457983,6.950740637,6.943961982,6.949457983,,,,,,,,,,,,,,,,,,,,PF,strong,7,,,,,,,,6,11.68041,,,,,,,,,,,,,,,,,,,,,,,,,,,,4,strong,102,42,1,0,0,response1disk,5,81,21,-14,1,0,0,rectangle,21,-14,1,0,0,6,6,0.000515,21,-14,1,0,0,0,80,80,116,1,0,,,,,,,,,,,,,,,,,,,,,
,,,,,,,,,,,,,,,,,,,,,,,,,,,,,,,,,,,,,,,,,,5ecae16e5a125126cbb0e08b,606841018a9cdac5528af621,2021-04-03_11h18.58.648,Colour_Similarity_Experiment,2020.2.10,Win32,60,60674ec340277cd6a308bc9f,7.048052851,6.948435341,6.949457983,6.950740637,6.943961982,6.949457983,,,,,,,,,,,,,,,,,,,,PF,weak,7,,,,,,,,1,1.037235,,,,,,,,,,,,,,,,,,,,,,,,,,,,6,weak,-62,35,1,0,0,response7disk,6,82,-4,14,1,0,0,rectangle,-4,14,1,0,0,6,7,0.000665,-4,14,1,0,0,0,81,81,0,1,0,,,,,,,,,,,,,,,,,,,,,
,,,,,,,,,,,,,,,,,,,,,,,,,,,,,,,,,,,,,,,,,,5ecae16e5a125126cbb0e08b,606841018a9cdac5528af621,2021-04-03_11h18.58.648,Colour_Similarity_Experiment,2020.2.10,Win32,60,60674ec340277cd6a308bc9f,7.048052851,6.948435341,6.949457983,6.950740637,6.943961982,6.949457983,,,,,,,,,,,,,,,,,,,,PF,weak,7,,,,,,,,1,1.91398,,,,,,,,,,,,,,,,,,,,,,,,,,,,8,weak,-86,34,1,0,0,response7disk,1,83,21,-9,1,0,0,rectangle,21,-9,1,0,0,6,3,0.000485,21,-9,1,0,0,0,82,82,57,1,0,,,,,,,,,,,,,,,,,,,,,
,,,,,,,,,,,,,,,,,,,,,,,,,,,,,,,,,,,,,,,,,,5ecae16e5a125126cbb0e08b,606841018a9cdac5528af621,2021-04-03_11h18.58.648,Colour_Similarity_Experiment,2020.2.10,Win32,60,60674ec340277cd6a308bc9f,7.048052851,6.948435341,6.949457983,6.950740637,6.943961982,6.949457983,,,,,,,,,,,,,,,,,,,,PF,strong,7,,,,,,,,2,1.754365,,,,,,,,,,,,,,,,,,,,,,,,,,,,2,strong,-86,-61,1,0,0,response5disk,1,84,1,-9,1,0,0,rectangle,1,-9,1,0,0,6,7,0.000625,1,-9,1,0,0,0,83,83,85,1,0,,,,,,,,,,,,,,,,,,,,,
,,,,,,,,,,,,,,,,,,,,,,,,,,,,,,,,,,,,,,,,,,5ecae16e5a125126cbb0e08b,606841018a9cdac5528af621,2021-04-03_11h18.58.648,Colour_Similarity_Experiment,2020.2.10,Win32,60,60674ec340277cd6a308bc9f,7.048052851,6.948435341,6.949457983,6.950740637,6.943961982,6.949457983,,,,,,,,,,,,,,,,,,,,PF,strong,7,,,,,,,,4,2.10848,,,,,,,,,,,,,,,,,,,,,,,,,,,,4,strong,36,-66,1,0,0,response3disk,9,85,-3,5,1,0,0,rectangle,-3,5,1,0,0,6,6,0.000685,-3,5,1,0,0,0,84,84,90,1,0,,,,,,,,,,,,,,,,,,,,,
,,,,,,,,,,,,,,,,,,,,,,,,,,,,,,,,,,,,,,,,,,5ecae16e5a125126cbb0e08b,606841018a9cdac5528af621,2021-04-03_11h18.58.648,Colour_Similarity_Experiment,2020.2.10,Win32,60,60674ec340277cd6a308bc9f,7.048052851,6.948435341,6.949457983,6.950740637,6.943961982,6.949457983,,,,,,,,,,,,,,,,,,,,PF,strong,7,,,,,,,,4,4.851515,,,,,,,,,,,,,,,,,,,,,,,,,,,,4,strong,49,-91,1,0,0,response3disk,2,86,-9,-21,1,0,0,rectangle,-9,-21,1,0,0,6,5,0.000505,-9,-21,1,0,0,0,85,85,13,1,0,,,,,,,,,,,,,,,,,,,,,
,,,,,,,,,,,,,,,,,,,,,,,,,,,,,,,,,,,,,,,,,,5ecae16e5a125126cbb0e08b,606841018a9cdac5528af621,2021-04-03_11h18.58.648,Colour_Similarity_Experiment,2020.2.10,Win32,60,60674ec340277cd6a308bc9f,7.048052851,6.948435341,6.949457983,6.950740637,6.943961982,6.949457983,,,,,,,,,,,,,,,,,,,,PF,weak,7,,,,,,,,4,1.19181,,,,,,,,,,,,,,,,,,,,,,,,,,,,3,weak,49,-68,1,0,0,response3disk,2,87,-1,-19,1,0,0,rectangle,-45,-88,1,0,0,3,3,1.10445,9,-1,1,0,0,0,86,86,36,1,1,response5disk_3,rectangle,,,,,,,,,,,,,,,,,,,
,,,,,,,,,,,,,,,,,,,,,,,,,,,,,,,,,,,,,,,,,,5ecae16e5a125126cbb0e08b,606841018a9cdac5528af621,2021-04-03_11h18.58.648,Colour_Similarity_Experiment,2020.2.10,Win32,60,60674ec340277cd6a308bc9f,7.048052851,6.948435341,6.949457983,6.950740637,6.943961982,6.949457983,,,,,,,,,,,,,,,,,,,,PF,strong,7,,,,,,,,5,2.16913,,,,,,,,,,,,,,,,,,,,,,,,,,,,1,strong,61,-47,1,0,0,response3disk,8,88,5,-7,1,0,0,rectangle,5,-7,1,0,0,3,0,0.0007,5,-7,1,0,0,0,87,87,27,1,0,,,,,,,,,,,,,,,,,,,,,
,,,,,,,,,,,,,,,,,,,,,,,,,,,,,,,,,,,,,,,,,,5ecae16e5a125126cbb0e08b,606841018a9cdac5528af621,2021-04-03_11h18.58.648,Colour_Similarity_Experiment,2020.2.10,Win32,60,60674ec340277cd6a308bc9f,7.048052851,6.948435341,6.949457983,6.950740637,6.943961982,6.949457983,,,,,,,,,,,,,,,,,,,,PF,weak,7,,,,,,,,6,2.152705,,,,,,,,,,,,,,,,,,,,,,,,,,,,8,weak,102,33,1,0,0,response1disk,3,89,30,4,1,0,0,rectangle,30,4,1,0,0,3,7,0.000625,30,4,1,0,0,0,88,88,71,1,0,,,,,,,,,,,,,,,,,,,,,
,,,,,,,,,,,,,,,,,,,,,,,,,,,,,,,,,,,,,,,,,,5ecae16e5a125126cbb0e08b,606841018a9cdac5528af621,2021-04-03_11h18.58.648,Colour_Similarity_Experiment,2020.2.10,Win32,60,60674ec340277cd6a308bc9f,7.048052851,6.948435341,6.949457983,6.950740637,6.943961982,6.949457983,,,,,,,,,,,,,,,,,,,,PF,strong,7,,,,,,,,5,1.75851,,,,,,,,,,,,,,,,,,,,,,,,,,,,8,strong,57,-41,1,0,0,response3disk,8,90,18,-20,1,0,0,rectangle,18,-20,1,0,0,3,4,0.000485,18,-20,1,0,0,0,89,89,48,1,0,,,,,,,,,,,,,,,,,,,,,
,,,,,,,,,,,,,,,,,,,,,,,,,,,,,,,,,,,,,,,,,,5ecae16e5a125126cbb0e08b,606841018a9cdac5528af621,2021-04-03_11h18.58.648,Colour_Similarity_Experiment,2020.2.10,Win32,60,60674ec340277cd6a308bc9f,7.048052851,6.948435341,6.949457983,6.950740637,6.943961982,6.949457983,,,,,,,,,,,,,,,,,,,,PF,weak,7,,,,,,,,6,2.671045,,,,,,,,,,,,,,,,,,,,,,,,,,,,7,weak,107,29,1,0,0,response1disk,3,91,18,-1,1,0,0,rectangle,18,-1,1,0,0,3,0,0.000495,18,-1,1,0,0,0,90,90,81,1,0,,,,,,,,,,,,,,,,,,,,,
,,,,,,,,,,,,,,,,,,,,,,,,,,,,,,,,,,,,,,,,,,5ecae16e5a125126cbb0e08b,606841018a9cdac5528af621,2021-04-03_11h18.58.648,Colour_Similarity_Experiment,2020.2.10,Win32,60,60674ec340277cd6a308bc9f,7.048052851,6.948435341,6.949457983,6.950740637,6.943961982,6.949457983,,,,,,,,,,,,,,,,,,,,PF,strong,7,,,,,,,,1,2.73352,,,,,,,,,,,,,,,,,,,,,,,,,,,,5,strong,-49,26,1,0,0,response7disk,9,92,10,-10,1,0,0,rectangle,10,-10,1,0,0,3,2,0.000485,10,-10,1,0,0,0,91,91,61,1,0,,,,,,,,,,,,,,,,,,,,,
,,,,,,,,,,,,,,,,,,,,,,,,,,,,,,,,,,,,,,,,,,5ecae16e5a125126cbb0e08b,606841018a9cdac5528af621,2021-04-03_11h18.58.648,Colour_Similarity_Experiment,2020.2.10,Win32,60,60674ec340277cd6a308bc9f,7.048052851,6.948435341,6.949457983,6.950740637,6.943961982,6.949457983,,,,,,,,,,,,,,,,,,,,PF,strong,7,,,,,,,,3,2.85852,,,,,,,,,,,,,,,,,,,,,,,,,,,,1,strong,-33,-48,1,0,0,response5disk,2,93,-9,-5,1,0,0,rectangle,-9,-5,1,0,0,3,7,0.000475,-9,-5,1,0,0,0,92,92,2,1,0,,,,,,,,,,,,,,,,,,,,,
,,,,,,,,,,,,,,,,,,,,,,,,,,,,,,,,,,,,,,,,,,5ecae16e5a125126cbb0e08b,606841018a9cdac5528af621,2021-04-03_11h18.58.648,Colour_Similarity_Experiment,2020.2.10,Win32,60,60674ec340277cd6a308bc9f,7.048052851,6.948435341,6.949457983,6.950740637,6.943961982,6.949457983,,,,,,,,,,,,,,,,,,,,PF,strong,7,,,,,,,,5,2.177905,,,,,,,,,,,,,,,,,,,,,,,,,,,,8,strong,65,-49,1,0,0,response3disk,9,94,20,-15,1,0,0,rectangle,20,-15,1,0,0,3,0,0.0005,20,-15,1,0,0,0,93,93,105,1,0,,,,,,,,,,,,,,,,,,,,,
,,,,,,,,,,,,,,,,,,,,,,,,,,,,,,,,,,,,,,,,,,5ecae16e5a125126cbb0e08b,606841018a9cdac5528af621,2021-04-03_11h18.58.648,Colour_Similarity_Experiment,2020.2.10,Win32,60,60674ec340277cd6a308bc9f,7.048052851,6.948435341,6.949457983,6.950740637,6.943961982,6.949457983,,,,,,,,,,,,,,,,,,,,PF,weak,7,,,,,,,,7,4.16916,,,,,,,,,,,,,,,,,,,,,,,,,,,,2,weak,42,79,1,0,0,response1disk,6,95,-4,7,1,0,0,rectangle,-4,7,1,0,0,3,7,0.000535,-4,7,1,0,0,0,94,94,113,1,0,,,,,,,,,,,,,,,,,,,,,
,,,,,,,,,,,,,,,,,,,,,,,,,,,,,,,,,,,,,,,,,,5ecae16e5a125126cbb0e08b,606841018a9cdac5528af621,2021-04-03_11h18.58.648,Colour_Similarity_Experiment,2020.2.10,Win32,60,60674ec340277cd6a308bc9f,7.048052851,6.948435341,6.949457983,6.950740637,6.943961982,6.949457983,,,,,,,,,,,,,,,,,,,,PF,weak,7,,,,,,,,5,2.98357,,,,,,,,,,,,,,,,,,,,,,,,,,,,4,weak,99,-54,1,0,0,response3disk,2,96,-3,5,1,0,0,rectangle,-3,5,1,0,0,3,4,0.000685,-3,5,1,0,0,0,95,95,108,1,0,,,,,,,,,,,,,,,,,,,,,
,,,,,,,,,,,,,,,,,,,,,,,,,,,,,,,,,,,,,,,,,,5ecae16e5a125126cbb0e08b,606841018a9cdac5528af621,2021-04-03_11h18.58.648,Colour_Similarity_Experiment,2020.2.10,Win32,60,60674ec340277cd6a308bc9f,7.048052851,6.948435341,6.949457983,6.950740637,6.943961982,6.949457983,,,,,,,,,,,,,,,,,,,,PF,strong,7,,,,,,,,7,3.083215,,,,,,,,,,,,,,,,,,,,,,,,,,,,9,strong,55,75,1,0,0,response1disk,6,97,11,4,1,0,0,rectangle,11,4,1,0,0,3,7,0.000485,11,4,1,0,0,0,96,96,117,1,0,,,,,,,,,,,,,,,,,,,,,
,,,,,,,,,,,,,,,,,,,,,,,,,,,,,,,,,,,,,,,,,,5ecae16e5a125126cbb0e08b,606841018a9cdac5528af621,2021-04-03_11h18.58.648,Colour_Similarity_Experiment,2020.2.10,Win32,60,60674ec340277cd6a308bc9f,7.048052851,6.948435341,6.949457983,6.950740637,6.943961982,6.949457983,,,,,,,,,,,,,,,,,,,,PF,weak,7,,,,,,,,1,1.243055,,,,,,,,,,,,,,,,,,,,,,,,,,,,4,weak,-58,41,1,0,0,response7disk,5,98,-3,3,1,0,0,rectangle,-3,3,1,0,0,3,4,0.000475,-3,3,1,0,0,0,97,97,49,1,0,,,,,,,,,,,,,,,,,,,,,
,,,,,,,,,,,,,,,,,,,,,,,,,,,,,,,,,,,,,,,,,,5ecae16e5a125126cbb0e08b,606841018a9cdac5528af621,2021-04-03_11h18.58.648,Colour_Similarity_Experiment,2020.2.10,Win32,60,60674ec340277cd6a308bc9f,7.048052851,6.948435341,6.949457983,6.950740637,6.943961982,6.949457983,,,,,,,,,,,,,,,,,,,,PF,weak,7,,,,,,,,7,2.125025,,,,,,,,,,,,,,,,,,,,,,,,,,,,8,weak,48,73,1,0,0,response1disk,7,99,28,1,1,0,0,rectangle,28,1,1,0,0,3,2,0.0011,28,1,1,0,0,0,98,98,23,1,0,,,,,,,,,,,,,,,,,,,,,
,,,,,,,,,,,,,,,,,,,,,,,,,,,,,,,,,,,,,,,,,,5ecae16e5a125126cbb0e08b,606841018a9cdac5528af621,2021-04-03_11h18.58.648,Colour_Similarity_Experiment,2020.2.10,Win32,60,60674ec340277cd6a308bc9f,7.048052851,6.948435341,6.949457983,6.950740637,6.943961982,6.949457983,,,,,,,,,,,,,,,,,,,,PF,weak,7,,,,,,,,3,5.458245,,,,,,,,,,,,,,,,,,,,,,,,,,,,8,weak,-40,-60,1,0,0,response5disk,2,100,-3,-8,1,0,0,rectangle,-3,-8,1,0,0,3,4,0.000615,-3,-8,1,0,0,0,99,99,83,1,0,,,,,,,,,,,,,,,,,,,,,
,,,,,,,,,,,,,,,,,,,,,,,,,,,,,,,,,,,,,,,,,,5ecae16e5a125126cbb0e08b,606841018a9cdac5528af621,2021-04-03_11h18.58.648,Colour_Similarity_Experiment,2020.2.10,Win32,60,60674ec340277cd6a308bc9f,7.048052851,6.948435341,6.949457983,6.950740637,6.943961982,6.949457983,,,,,,,,,,,,,,,,,,,,PF,strong,7,,,,,,,,1,1.39577,,,,,,,,,,,,,,,,,,,,,,,,,,,,3,strong,-56,28,1,0,0,response7disk,4,101,-11,4,1,0,0,rectangle,-11,4,1,0,0,3,7,0.000505,-11,4,1,0,0,0,100,100,110,1,0,,,,,,,,,,,,,,,,,,,,,
,,,,,,,,,,,,,,,,,,,,,,,,,,,,,,,,,,,,,,,,,,5ecae16e5a125126cbb0e08b,606841018a9cdac5528af621,2021-04-03_11h18.58.648,Colour_Similarity_Experiment,2020.2.10,Win32,60,60674ec340277cd6a308bc9f,7.048052851,6.948435341,6.949457983,6.950740637,6.943961982,6.949457983,,,,,,,,,,,,,,,,,,,,PF,weak,7,,,,,,,,6,1.67343,,,,,,,,,,,,,,,,,,,,,,,,,,,,4,weak,75,43,1,0,0,response1disk,6,102,44,4,1,0,0,rectangle,44,4,1,0,0,3,4,0.00048,44,4,1,0,0,0,101,101,120,1,0,,,,,,,,,,,,,,,,,,,,,
,,,,,,,,,,,,,,,,,,,,,,,,,,,,,,,,,,,,,,,,,,5ecae16e5a125126cbb0e08b,606841018a9cdac5528af621,2021-04-03_11h18.58.648,Colour_Similarity_Experiment,2020.2.10,Win32,60,60674ec340277cd6a308bc9f,7.048052851,6.948435341,6.949457983,6.950740637,6.943961982,6.949457983,,,,,,,,,,,,,,,,,,,,PF,strong,7,,,,,,,,0,1.097215,,,,,,,,,,,,,,,,,,,,,,,,,,,,9,strong,-25,65,1,0,0,response7disk,9,103,11,2,1,0,0,rectangle,11,2,1,0,0,3,2,0.000505,11,2,1,0,0,0,102,102,17,1,0,,,,,,,,,,,,,,,,,,,,,
,,,,,,,,,,,,,,,,,,,,,,,,,,,,,,,,,,,,,,,,,,5ecae16e5a125126cbb0e08b,606841018a9cdac5528af621,2021-04-03_11h18.58.648,Colour_Similarity_Experiment,2020.2.10,Win32,60,60674ec340277cd6a308bc9f,7.048052851,6.948435341,6.949457983,6.950740637,6.943961982,6.949457983,,,,,,,,,,,,,,,,,,,,PF,strong,7,,,,,,,,2,4.28463,,,,,,,,,,,,,,,,,,,,,,,,,,,,6,strong,-72,-24,1,0,0,response5disk,5,104,-7,5,1,0,0,rectangle,-7,5,1,0,0,3,3,0.00051,-7,5,1,0,0,0,103,103,126,1,0,,,,,,,,,,,,,,,,,,,,,
,,,,,,,,,,,,,,,,,,,,,,,,,,,,,,,,,,,,,,,,,,5ecae16e5a125126cbb0e08b,606841018a9cdac5528af621,2021-04-03_11h18.58.648,Colour_Similarity_Experiment,2020.2.10,Win32,60,60674ec340277cd6a308bc9f,7.048052851,6.948435341,6.949457983,6.950740637,6.943961982,6.949457983,,,,,,,,,,,,,,,,,,,,PF,strong,7,,,,,,,,0,1.465235,,,,,,,,,,,,,,,,,,,,,,,,,,,,1,strong,-48,74,1,0,0,response7disk,1,105,-5,6,1,0,0,rectangle,-5,6,1,0,0,3,0,0.000495,-5,6,1,0,0,0,104,104,151,1,0,,,,,,,,,,,,,,,,,,,,,
,,,,,,,,,,,,,,,,,,,,,,,,,,,,,,,,,,,,,,,,,,5ecae16e5a125126cbb0e08b,606841018a9cdac5528af621,2021-04-03_11h18.58.648,Colour_Similarity_Experiment,2020.2.10,Win32,60,60674ec340277cd6a308bc9f,7.048052851,6.948435341,6.949457983,6.950740637,6.943961982,6.949457983,,,,,,,,,,,,,,,,,,,,PF,strong,7,,,,,,,,4,2.44445,,,,,,,,,,,,,,,,,,,,,,,,,,,,3,strong,38,-53,1,0,0,response3disk,6,106,6,-5,1,0,0,rectangle,6,-5,1,0,0,3,2,0.000495,6,-5,1,0,0,0,105,105,95,1,0,,,,,,,,,,,,,,,,,,,,,
,,,,,,,,,,,,,,,,,,,,,,,,,,,,,,,,,,,,,,,,,,5ecae16e5a125126cbb0e08b,606841018a9cdac5528af621,2021-04-03_11h18.58.648,Colour_Similarity_Experiment,2020.2.10,Win32,60,60674ec340277cd6a308bc9f,7.048052851,6.948435341,6.949457983,6.950740637,6.943961982,6.949457983,,,,,,,,,,,,,,,,,,,,PF,weak,7,,,,,,,,7,1.12502,,,,,,,,,,,,,,,,,,,,,,,,,,,,4,weak,35,71,1,0,0,response1disk,1,107,14,-1,1,0,0,rectangle,14,-1,1,0,0,3,1,0.00048,14,-1,1,0,0,0,106,106,115,1,0,,,,,,,,,,,,,,,,,,,,,
,,,,,,,,,,,,,,,,,,,,,,,,,,,,,,,,,,,,,,,,,,5ecae16e5a125126cbb0e08b,606841018a9cdac5528af621,2021-04-03_11h18.58.648,Colour_Similarity_Experiment,2020.2.10,Win32,60,60674ec340277cd6a308bc9f,7.048052851,6.948435341,6.949457983,6.950740637,6.943961982,6.949457983,,,,,,,,,,,,,,,,,,,,PF,strong,7,,,,,,,,6,5.055515,,,,,,,,,,,,,,,,,,,,,,,,,,,,8,strong,84,28,1,0,0,response1disk,2,108,5,-7,1,0,0,rectangle,5,-7,1,0,0,3,2,0.00051,5,-7,1,0,0,0,107,107,22,1,0,,,,,,,,,,,,,,,,,,,,,
,,,,,,,,,,,,,,,,,,,,,,,,,,,,,,,,,,,,,,,,,,5ecae16e5a125126cbb0e08b,606841018a9cdac5528af621,2021-04-03_11h18.58.648,Colour_Similarity_Experiment,2020.2.10,Win32,60,60674ec340277cd6a308bc9f,7.048052851,6.948435341,6.949457983,6.950740637,6.943961982,6.949457983,,,,,,,,,,,,,,,,,,,,PF,weak,7,,,,,,,,1,0.99993,,,,,,,,,,,,,,,,,,,,,,,,,,,,5,weak,-69,41,1,0,0,response7disk,4,109,-11,-4,1,0,0,rectangle,-11,-4,1,0,0,3,6,0.00053,-11,-4,1,0,0,0,108,108,54,1,0,,,,,,,,,,,,,,,,,,,,,
,,,,,,,,,,,,,,,,,,,,,,,,,,,,,,,,,,,,,,,,,,5ecae16e5a125126cbb0e08b,606841018a9cdac5528af621,2021-04-03_11h18.58.648,Colour_Similarity_Experiment,2020.2.10,Win32,60,60674ec340277cd6a308bc9f,7.048052851,6.948435341,6.949457983,6.950740637,6.943961982,6.949457983,,,,,,,,,,,,,,,,,,,,PF,strong,7,,,,,,,,7,1.388895,,,,,,,,,,,,,,,,,,,,,,,,,,,,1,strong,41,81,1,0,0,response1disk,4,110,7,2,1,0,0,rectangle,7,2,1,0,0,3,7,0.000575,7,2,1,0,0,0,109,109,135,1,0,,,,,,,,,,,,,,,,,,,,,
,,,,,,,,,,,,,,,,,,,,,,,,,,,,,,,,,,,,,,,,,,5ecae16e5a125126cbb0e08b,606841018a9cdac5528af621,2021-04-03_11h18.58.648,Colour_Similarity_Experiment,2020.2.10,Win32,60,60674ec340277cd6a308bc9f,7.048052851,6.948435341,6.949457983,6.950740637,6.943961982,6.949457983,,,,,,,,,,,,,,,,,,,,PF,strong,7,,,,,,,,4,2.437485,,,,,,,,,,,,,,,,,,,,,,,,,,,,7,strong,47,-66,1,0,0,response3disk,2,111,4,-11,1,0,0,rectangle,4,-11,1,0,0,3,1,0.00055,4,-11,1,0,0,0,110,110,138,1,0,,,,,,,,,,,,,,,,,,,,,
,,,,,,,,,,,,,,,,,,,,,,,,,,,,,,,,,,,,,,,,,,5ecae16e5a125126cbb0e08b,606841018a9cdac5528af621,2021-04-03_11h18.58.648,Colour_Similarity_Experiment,2020.2.10,Win32,60,60674ec340277cd6a308bc9f,7.048052851,6.948435341,6.949457983,6.950740637,6.943961982,6.949457983,,,,,,,,,,,,,,,,,,,,PF,weak,7,,,,,,,,2,1.30314,,,,,,,,,,,,,,,,,,,,,,,,,,,,9,weak,-86,-32,1,0,0,response5disk,8,112,-5,8,1,0,0,rectangle,-5,8,1,0,0,3,5,0.000465,-5,8,1,0,0,0,111,111,67,1,0,,,,,,,,,,,,,,,,,,,,,
,,,,,,,,,,,,,,,,,,,,,,,,,,,,,,,,,,,,,,,,,,5ecae16e5a125126cbb0e08b,606841018a9cdac5528af621,2021-04-03_11h18.58.648,Colour_Similarity_Experiment,2020.2.10,Win32,60,60674ec340277cd6a308bc9f,7.048052851,6.948435341,6.949457983,6.950740637,6.943961982,6.949457983,,,,,,,,,,,,,,,,,,,,PF,weak,7,,,,,,,,4,19.41405,,,,,,,,,,,,,,,,,,,,,,,,,,,,2,weak,32,-72,1,0,0,response3disk,5,113,9,-4,1,0,0,rectangle,9,-4,1,0,0,3,3,0.00071,9,-4,1,0,0,0,112,112,147,1,0,,,,,,,,,,,,,,,,,,,,,
,,,,,,,,,,,,,,,,,,,,,,,,,,,,,,,,,,,,,,,,,,5ecae16e5a125126cbb0e08b,606841018a9cdac5528af621,2021-04-03_11h18.58.648,Colour_Similarity_Experiment,2020.2.10,Win32,60,60674ec340277cd6a308bc9f,7.048052851,6.948435341,6.949457983,6.950740637,6.943961982,6.949457983,,,,,,,,,,,,,,,,,,,,PF,weak,7,,,,,,,,0,2.504325,,,,,,,,,,,,,,,,,,,,,,,,,,,,7,weak,-47,92,1,0,0,response7disk,7,114,0,-7,1,0,0,rectangle,0,-7,1,0,0,3,4,0.000485,0,-7,1,0,0,0,113,113,51,1,0,,,,,,,,,,,,,,,,,,,,,
,,,,,,,,,,,,,,,,,,,,,,,,,,,,,,,,,,,,,,,,,,5ecae16e5a125126cbb0e08b,606841018a9cdac5528af621,2021-04-03_11h18.58.648,Colour_Similarity_Experiment,2020.2.10,Win32,60,60674ec340277cd6a308bc9f,7.048052851,6.948435341,6.949457983,6.950740637,6.943961982,6.949457983,,,,,,,,,,,,,,,,,,,,PF,strong,7,,,,,,,,1,1.141235,,,,,,,,,,,,,,,,,,,,,,,,,,,,6,strong,-85,47,1,0,0,response7disk,8,115,7,3,1,0,0,rectangle,7,3,1,0,0,3,4,7E-05,7,3,1,0,0,0,114,114,133,1,0,,,,,,,,,,,,,,,,,,,,,
,,,,,,,,,,,,,,,,,,,,,,,,,,,,,,,,,,,,,,,,,,5ecae16e5a125126cbb0e08b,606841018a9cdac5528af621,2021-04-03_11h18.58.648,Colour_Similarity_Experiment,2020.2.10,Win32,60,60674ec340277cd6a308bc9f,7.048052851,6.948435341,6.949457983,6.950740637,6.943961982,6.949457983,,,,,,,,,,,,,,,,,,,,PF,strong,7,,,,,,,,4,2.65278,,,,,,,,,,,,,,,,,,,,,,,,,,,,1,strong,58,-95,1,0,0,response3disk,7,116,0,-5,1,0,0,rectangle,0,-5,1,0,0,3,5,0.00047,0,-5,1,0,0,0,115,115,137,1,0,,,,,,,,,,,,,,,,,,,,,
,,,,,,,,,,,,,,,,,,,,,,,,,,,,,,,,,,,,,,,,,,5ecae16e5a125126cbb0e08b,606841018a9cdac5528af621,2021-04-03_11h18.58.648,Colour_Similarity_Experiment,2020.2.10,Win32,60,60674ec340277cd6a308bc9f,7.048052851,6.948435341,6.949457983,6.950740637,6.943961982,6.949457983,,,,,,,,,,,,,,,,,,,,PF,strong,7,,,,,,,,3,3.04612,,,,,,,,,,,,,,,,,,,,,,,,,,,,5,strong,-38,-66,1,0,0,response5disk,6,117,0,-1,1,0,0,rectangle,0,-1,1,0,0,3,5,7E-05,0,-1,1,0,0,0,116,116,12,1,0,,,,,,,,,,,,,,,,,,,,,
,,,,,,,,,,,,,,,,,,,,,,,,,,,,,,,,,,,,,,,,,,5ecae16e5a125126cbb0e08b,606841018a9cdac5528af621,2021-04-03_11h18.58.648,Colour_Similarity_Experiment,2020.2.10,Win32,60,60674ec340277cd6a308bc9f,7.048052851,6.948435341,6.949457983,6.950740637,6.943961982,6.949457983,,,,,,,,,,,,,,,,,,,,PF,strong,7,,,,,,,,2,1.88614,,,,,,,,,,,,,,,,,,,,,,,,,,,,5,strong,-94,-35,1,0,0,response5disk,3,118,-6,-3,1,0,0,rectangle,-6,-3,1,0,0,3,0,0.00047,-6,-3,1,0,0,0,117,117,25,1,0,,,,,,,,,,,,,,,,,,,,,
,,,,,,,,,,,,,,,,,,,,,,,,,,,,,,,,,,,,,,,,,,5ecae16e5a125126cbb0e08b,606841018a9cdac5528af621,2021-04-03_11h18.58.648,Colour_Similarity_Experiment,2020.2.10,Win32,60,60674ec340277cd6a308bc9f,7.048052851,6.948435341,6.949457983,6.950740637,6.943961982,6.949457983,,,,,,,,,,,,,,,,,,,,PF,weak,7,,,,,,,,4,1.392875,,,,,,,,,,,,,,,,,,,,,,,,,,,,2,weak,38,-69,1,0,0,response3disk,3,119,6,-7,1,0,0,rectangle,6,-7,1,0,0,3,6,0.000505,6,-7,1,0,0,0,118,118,69,1,0,,,,,,,,,,,,,,,,,,,,,
,,,,,,,,,,,,,,,,,,,,,,,,,,,,,,,,,,,,,,,,,,5ecae16e5a125126cbb0e08b,606841018a9cdac5528af621,2021-04-03_11h18.58.648,Colour_Similarity_Experiment,2020.2.10,Win32,60,60674ec340277cd6a308bc9f,7.048052851,6.948435341,6.949457983,6.950740637,6.943961982,6.949457983,,,,,,,,,,,,,,,,,,,,PF,weak,7,,,,,,,,7,5.15018,,,,,,,,,,,,,,,,,,,,,,,,,,,,9,weak,34,80,1,0,0,response1disk,4,120,2,-15,1,0,0,rectangle,2,-15,1,0,0,3,4,0.000735,2,-15,1,0,0,0,119,119,114,1,0,,,,,,,,,,,,,,,,,,,,,
,,,,,,,,,,,,,,,,,,,,,,,,,,,,,,,,,,,,,,,,,,5ecae16e5a125126cbb0e08b,606841018a9cdac5528af621,2021-04-03_11h18.58.648,Colour_Similarity_Experiment,2020.2.10,Win32,60,60674ec340277cd6a308bc9f,7.048052851,6.948435341,6.949457983,6.950740637,6.943961982,6.949457983,,,,,,,,,,,,,,,,,,,,PF,strong,7,,,,,,,,7,1.332695,,,,,,,,,,,,,,,,,,,,,,,,,,,,7,strong,35,65,1,0,0,response1disk,4,121,7,6,1,0,0,rectangle,7,6,1,0,0,3,3,0.000475,7,6,1,0,0,0,120,120,158,1,0,,,,,,,,,,,,,,,,,,,,,
,,,,,,,,,,,,,,,,,,,,,,,,,,,,,,,,,,,,,,,,,,5ecae16e5a125126cbb0e08b,606841018a9cdac5528af621,2021-04-03_11h18.58.648,Colour_Similarity_Experiment,2020.2.10,Win32,60,60674ec340277cd6a308bc9f,7.048052851,6.948435341,6.949457983,6.950740637,6.943961982,6.949457983,,,,,,,,,,,,,,,,,,,,PF,weak,7,,,,,,,,1,1.12748,,,,,,,,,,,,,,,,,,,,,,,,,,,,1,weak,-74,38,1,0,0,response7disk,9,122,1,-8,1,0,0,rectangle,1,-8,1,0,0,3,3,7.5E-05,1,-8,1,0,0,0,121,121,15,1,0,,,,,,,,,,,,,,,,,,,,,
,,,,,,,,,,,,,,,,,,,,,,,,,,,,,,,,,,,,,,,,,,5ecae16e5a125126cbb0e08b,606841018a9cdac5528af621,2021-04-03_11h18.58.648,Colour_Similarity_Experiment,2020.2.10,Win32,60,60674ec340277cd6a308bc9f,7.048052851,6.948435341,6.949457983,6.950740637,6.943961982,6.949457983,,,,,,,,,,,,,,,,,,,,PF,weak,7,,,,,,,,2,1.39336,,,,,,,,,,,,,,,,,,,,,,,,,,,,6,weak,-85,-40,1,0,0,response5disk,3,123,-25,-8,1,0,0,rectangle,-25,-8,1,0,0,3,6,0.00061,-25,-8,1,0,0,0,122,122,26,1,0,,,,,,,,,,,,,,,,,,,,,
,,,,,,,,,,,,,,,,,,,,,,,,,,,,,,,,,,,,,,,,,,5ecae16e5a125126cbb0e08b,606841018a9cdac5528af621,2021-04-03_11h18.58.648,Colour_Similarity_Experiment,2020.2.10,Win32,60,60674ec340277cd6a308bc9f,7.048052851,6.948435341,6.949457983,6.950740637,6.943961982,6.949457983,,,,,,,,,,,,,,,,,,,,PF,strong,7,,,,,,,,4,1.86562,,,,,,,,,,,,,,,,,,,,,,,,,,,,2,strong,29,-73,1,0,0,response3disk,7,124,9,-16,1,0,0,rectangle,9,-16,1,0,0,3,0,0.00066,9,-16,1,0,0,0,123,123,63,1,0,,,,,,,,,,,,,,,,,,,,,
,,,,,,,,,,,,,,,,,,,,,,,,,,,,,,,,,,,,,,,,,,5ecae16e5a125126cbb0e08b,606841018a9cdac5528af621,2021-04-03_11h18.58.648,Colour_Similarity_Experiment,2020.2.10,Win32,60,60674ec340277cd6a308bc9f,7.048052851,6.948435341,6.949457983,6.950740637,6.943961982,6.949457983,,,,,,,,,,,,,,,,,,,,PF,weak,7,,,,,,,,5,1.476175,,,,,,,,,,,,,,,,,,,,,,,,,,,,7,weak,89,-60,1,0,0,response3disk,2,125,-4,-2,1,0,0,rectangle,-4,-2,1,0,0,3,2,0.00064,-4,-2,1,0,0,0,124,124,32,1,0,,,,,,,,,,,,,,,,,,,,,
,,,,,,,,,,,,,,,,,,,,,,,,,,,,,,,,,,,,,,,,,,5ecae16e5a125126cbb0e08b,606841018a9cdac5528af621,2021-04-03_11h18.58.648,Colour_Similarity_Experiment,2020.2.10,Win32,60,60674ec340277cd6a308bc9f,7.048052851,6.948435341,6.949457983,6.950740637,6.943961982,6.949457983,,,,,,,,,,,,,,,,,,,,PF,strong,7,,,,,,,,3,3.990195,,,,,,,,,,,,,,,,,,,,,,,,,,,,5,strong,-35,-89,1,0,0,response5disk,2,126,-2,-13,1,0,0,rectangle,138,-61,1,0,0,5,5,1.347655,2,-14,1,0,0,0,125,125,55,1,1,response3disk_3,rectangle,,,,,,,,,,,,,,,,,,,
,,,,,,,,,,,,,,,,,,,,,,,,,,,,,,,,,,,,,,,,,,5ecae16e5a125126cbb0e08b,606841018a9cdac5528af621,2021-04-03_11h18.58.648,Colour_Similarity_Experiment,2020.2.10,Win32,60,60674ec340277cd6a308bc9f,7.048052851,6.948435341,6.949457983,6.950740637,6.943961982,6.949457983,,,,,,,,,,,,,,,,,,,,PF,strong,7,,,,,,,,2,1.287085,,,,,,,,,,,,,,,,,,,,,,,,,,,,9,strong,-95,-41,1,0,0,response5disk,8,127,15,13,1,0,0,rectangle,15,13,1,0,0,5,4,0.00049,15,13,1,0,0,0,126,126,6,1,0,,,,,,,,,,,,,,,,,,,,,
,,,,,,,,,,,,,,,,,,,,,,,,,,,,,,,,,,,,,,,,,,5ecae16e5a125126cbb0e08b,606841018a9cdac5528af621,2021-04-03_11h18.58.648,Colour_Similarity_Experiment,2020.2.10,Win32,60,60674ec340277cd6a308bc9f,7.048052851,6.948435341,6.949457983,6.950740637,6.943961982,6.949457983,,,,,,,,,,,,,,,,,,,,PF,weak,7,,,,,,,,5,1.38888,,,,,,,,,,,,,,,,,,,,,,,,,,,,3,weak,113,-49,1,0,0,response3disk,9,128,12,1,1,0,0,rectangle,12,1,1,0,0,5,4,7E-05,12,1,1,0,0,0,127,127,79,1,0,,,,,,,,,,,,,,,,,,,,,
,,,,,,,,,,,,,,,,,,,,,,,,,,,,,,,,,,,,,,,,,,5ecae16e5a125126cbb0e08b,606841018a9cdac5528af621,2021-04-03_11h18.58.648,Colour_Similarity_Experiment,2020.2.10,Win32,60,60674ec340277cd6a308bc9f,7.048052851,6.948435341,6.949457983,6.950740637,6.943961982,6.949457983,,,,,,,,,,,,,,,,,,,,PF,strong,7,,,,,,,,6,1.72915,,,,,,,,,,,,,,,,,,,,,,,,,,,,5,strong,96,39,1,0,0,response1disk,7,129,14,-3,1,0,0,rectangle,14,-3,1,0,0,5,6,0.0005,14,-3,1,0,0,0,128,128,7,1,0,,,,,,,,,,,,,,,,,,,,,
,,,,,,,,,,,,,,,,,,,,,,,,,,,,,,,,,,,,,,,,,,5ecae16e5a125126cbb0e08b,606841018a9cdac5528af621,2021-04-03_11h18.58.648,Colour_Similarity_Experiment,2020.2.10,Win32,60,60674ec340277cd6a308bc9f,7.048052851,6.948435341,6.949457983,6.950740637,6.943961982,6.949457983,,,,,,,,,,,,,,,,,,,,PF,weak,7,,,,,,,,7,0.986095,,,,,,,,,,,,,,,,,,,,,,,,,,,,3,weak,38,70,1,0,0,response1disk,1,130,1,3,1,0,0,rectangle,1,3,1,0,0,5,7,0.000545,1,3,1,0,0,0,129,129,96,1,0,,,,,,,,,,,,,,,,,,,,,
,,,,,,,,,,,,,,,,,,,,,,,,,,,,,,,,,,,,,,,,,,5ecae16e5a125126cbb0e08b,606841018a9cdac5528af621,2021-04-03_11h18.58.648,Colour_Similarity_Experiment,2020.2.10,Win32,60,60674ec340277cd6a308bc9f,7.048052851,6.948435341,6.949457983,6.950740637,6.943961982,6.949457983,,,,,,,,,,,,,,,,,,,,PF,weak,7,,,,,,,,7,0.868105,,,,,,,,,,,,,,,,,,,,,,,,,,,,3,weak,31,61,1,0,0,response1disk,7,131,9,-3,1,0,0,rectangle,9,-3,1,0,0,5,2,0.00048,9,-3,1,0,0,0,130,130,41,1,0,,,,,,,,,,,,,,,,,,,,,
,,,,,,,,,,,,,,,,,,,,,,,,,,,,,,,,,,,,,,,,,,5ecae16e5a125126cbb0e08b,606841018a9cdac5528af621,2021-04-03_11h18.58.648,Colour_Similarity_Experiment,2020.2.10,Win32,60,60674ec340277cd6a308bc9f,7.048052851,6.948435341,6.949457983,6.950740637,6.943961982,6.949457983,,,,,,,,,,,,,,,,,,,,PF,weak,7,,,,,,,,1,1.493025,,,,,,,,,,,,,,,,,,,,,,,,,,,,1,weak,-92,41,1,0,0,response7disk,2,132,-12,1,1,0,0,rectangle,-12,1,1,0,0,5,4,0.00049,-12,1,1,0,0,0,131,131,24,1,0,,,,,,,,,,,,,,,,,,,,,
,,,,,,,,,,,,,,,,,,,,,,,,,,,,,,,,,,,,,,,,,,5ecae16e5a125126cbb0e08b,606841018a9cdac5528af621,2021-04-03_11h18.58.648,Colour_Similarity_Experiment,2020.2.10,Win32,60,60674ec340277cd6a308bc9f,7.048052851,6.948435341,6.949457983,6.950740637,6.943961982,6.949457983,,,,,,,,,,,,,,,,,,,,PF,strong,7,,,,,,,,2,1.902705,,,,,,,,,,,,,,,,,,,,,,,,,,,,6,strong,-75,-36,1,0,0,response5disk,3,133,9,-3,1,0,0,rectangle,9,-3,1,0,0,5,3,0.00048,9,-3,1,0,0,0,132,132,21,1,0,,,,,,,,,,,,,,,,,,,,,
,,,,,,,,,,,,,,,,,,,,,,,,,,,,,,,,,,,,,,,,,,5ecae16e5a125126cbb0e08b,606841018a9cdac5528af621,2021-04-03_11h18.58.648,Colour_Similarity_Experiment,2020.2.10,Win32,60,60674ec340277cd6a308bc9f,7.048052851,6.948435341,6.949457983,6.950740637,6.943961982,6.949457983,,,,,,,,,,,,,,,,,,,,PF,weak,7,,,,,,,,1,0.895815,,,,,,,,,,,,,,,,,,,,,,,,,,,,7,weak,-92,50,1,0,0,response7disk,6,134,-8,-1,1,0,0,rectangle,-8,-1,1,0,0,5,4,0.000495,-8,-1,1,0,0,0,133,133,29,1,0,,,,,,,,,,,,,,,,,,,,,
,,,,,,,,,,,,,,,,,,,,,,,,,,,,,,,,,,,,,,,,,,5ecae16e5a125126cbb0e08b,606841018a9cdac5528af621,2021-04-03_11h18.58.648,Colour_Similarity_Experiment,2020.2.10,Win32,60,60674ec340277cd6a308bc9f,7.048052851,6.948435341,6.949457983,6.950740637,6.943961982,6.949457983,,,,,,,,,,,,,,,,,,,,PF,strong,7,,,,,,,,6,4.45138,,,,,,,,,,,,,,,,,,,,,,,,,,,,8,strong,107,33,1,0,0,response1disk,3,135,0,-3,1,0,0,rectangle,0,-3,1,0,0,5,1,0.000555,0,-3,1,0,0,0,134,134,154,1,0,,,,,,,,,,,,,,,,,,,,,
,,,,,,,,,,,,,,,,,,,,,,,,,,,,,,,,,,,,,,,,,,5ecae16e5a125126cbb0e08b,606841018a9cdac5528af621,2021-04-03_11h18.58.648,Colour_Similarity_Experiment,2020.2.10,Win32,60,60674ec340277cd6a308bc9f,7.048052851,6.948435341,6.949457983,6.950740637,6.943961982,6.949457983,,,,,,,,,,,,,,,,,,,,PF,weak,7,,,,,,,,1,0.828845,,,,,,,,,,,,,,,,,,,,,,,,,,,,6,weak,-89,33,1,0,0,response7disk,7,136,-26,7,1,0,0,rectangle,-26,7,1,0,0,5,1,7.00001E-05,-26,7,1,0,0,0,135,135,50,1,0,,,,,,,,,,,,,,,,,,,,,
,,,,,,,,,,,,,,,,,,,,,,,,,,,,,,,,,,,,,,,,,,5ecae16e5a125126cbb0e08b,606841018a9cdac5528af621,2021-04-03_11h18.58.648,Colour_Similarity_Experiment,2020.2.10,Win32,60,60674ec340277cd6a308bc9f,7.048052851,6.948435341,6.949457983,6.950740637,6.943961982,6.949457983,,,,,,,,,,,,,,,,,,,,PF,weak,7,,,,,,,,7,1.04604,,,,,,,,,,,,,,,,,,,,,,,,,,,,1,weak,43,69,1,0,0,response1disk,4,137,11,0,1,0,0,rectangle,11,0,1,0,0,5,6,0.00048,11,0,1,0,0,0,136,136,139,1,0,,,,,,,,,,,,,,,,,,,,,
,,,,,,,,,,,,,,,,,,,,,,,,,,,,,,,,,,,,,,,,,,5ecae16e5a125126cbb0e08b,606841018a9cdac5528af621,2021-04-03_11h18.58.648,Colour_Similarity_Experiment,2020.2.10,Win32,60,60674ec340277cd6a308bc9f,7.048052851,6.948435341,6.949457983,6.950740637,6.943961982,6.949457983,,,,,,,,,,,,,,,,,,,,PF,weak,7,,,,,,,,2,1.177875,,,,,,,,,,,,,,,,,,,,,,,,,,,,6,weak,-79,-34,1,0,0,response5disk,5,138,-12,-5,1,0,0,rectangle,-12,-5,1,0,0,5,1,0.000485,-12,-5,1,0,0,0,137,137,59,1,0,,,,,,,,,,,,,,,,,,,,,
,,,,,,,,,,,,,,,,,,,,,,,,,,,,,,,,,,,,,,,,,,5ecae16e5a125126cbb0e08b,606841018a9cdac5528af621,2021-04-03_11h18.58.648,Colour_Similarity_Experiment,2020.2.10,Win32,60,60674ec340277cd6a308bc9f,7.048052851,6.948435341,6.949457983,6.950740637,6.943961982,6.949457983,,,,,,,,,,,,,,,,,,,,PF,weak,7,,,,,,,,6,1.76823,,,,,,,,,,,,,,,,,,,,,,,,,,,,8,weak,96,47,1,0,0,response1disk,5,139,6,1,1,0,0,rectangle,6,1,1,0,0,5,0,0.000475,6,1,1,0,0,0,138,138,98,1,0,,,,,,,,,,,,,,,,,,,,,
,,,,,,,,,,,,,,,,,,,,,,,,,,,,,,,,,,,,,,,,,,5ecae16e5a125126cbb0e08b,606841018a9cdac5528af621,2021-04-03_11h18.58.648,Colour_Similarity_Experiment,2020.2.10,Win32,60,60674ec340277cd6a308bc9f,7.048052851,6.948435341,6.949457983,6.950740637,6.943961982,6.949457983,,,,,,,,,,,,,,,,,,,,PF,strong,7,,,,,,,,6,1.236335,,,,,,,,,,,,,,,,,,,,,,,,,,,,1,strong,83,36,1,0,0,response1disk,6,140,1,-10,1,0,0,rectangle,1,-10,1,0,0,5,2,0.00045,1,-10,1,0,0,0,139,139,58,1,0,,,,,,,,,,,,,,,,,,,,,
,,,,,,,,,,,,,,,,,,,,,,,,,,,,,,,,,,,,,,,,,,5ecae16e5a125126cbb0e08b,606841018a9cdac5528af621,2021-04-03_11h18.58.648,Colour_Similarity_Experiment,2020.2.10,Win32,60,60674ec340277cd6a308bc9f,7.048052851,6.948435341,6.949457983,6.950740637,6.943961982,6.949457983,,,,,,,,,,,,,,,,,,,,PF,strong,7,,,,,,,,1,0.997435,,,,,,,,,,,,,,,,,,,,,,,,,,,,8,strong,-97,45,1,0,0,response7disk,1,141,-21,4,1,0,0,rectangle,-21,4,1,0,0,5,0,0.00082,-21,4,1,0,0,0,140,140,20,1,0,,,,,,,,,,,,,,,,,,,,,
,,,,,,,,,,,,,,,,,,,,,,,,,,,,,,,,,,,,,,,,,,5ecae16e5a125126cbb0e08b,606841018a9cdac5528af621,2021-04-03_11h18.58.648,Colour_Similarity_Experiment,2020.2.10,Win32,60,60674ec340277cd6a308bc9f,7.048052851,6.948435341,6.949457983,6.950740637,6.943961982,6.949457983,,,,,,,,,,,,,,,,,,,,PF,weak,7,,,,,,,,1,1.774905,,,,,,,,,,,,,,,,,,,,,,,,,,,,2,weak,-102,45,1,0,0,response7disk,9,142,-16,-4,1,0,0,rectangle,-16,-4,1,0,0,5,3,0.0005,-16,-4,1,0,0,0,141,141,39,1,0,,,,,,,,,,,,,,,,,,,,,
,,,,,,,,,,,,,,,,,,,,,,,,,,,,,,,,,,,,,,,,,,5ecae16e5a125126cbb0e08b,606841018a9cdac5528af621,2021-04-03_11h18.58.648,Colour_Similarity_Experiment,2020.2.10,Win32,60,60674ec340277cd6a308bc9f,7.048052851,6.948435341,6.949457983,6.950740637,6.943961982,6.949457983,,,,,,,,,,,,,,,,,,,,PF,weak,7,,,,,,,,6,4.02531,,,,,,,,,,,,,,,,,,,,,,,,,,,,5,weak,97,36,1,0,0,response1disk,9,143,3,3,1,0,0,rectangle,-102,39,1,0,0,1,1,1.227255,-11,8,1,0,0,0,142,142,136,1,1,response7disk_3,rectangle,,,,,,,,,,,,,,,,,,,
,,,,,,,,,,,,,,,,,,,,,,,,,,,,,,,,,,,,,,,,,,5ecae16e5a125126cbb0e08b,606841018a9cdac5528af621,2021-04-03_11h18.58.648,Colour_Similarity_Experiment,2020.2.10,Win32,60,60674ec340277cd6a308bc9f,7.048052851,6.948435341,6.949457983,6.950740637,6.943961982,6.949457983,,,,,,,,,,,,,,,,,,,,PF,weak,7,,,,,,,,3,1.932965,,,,,,,,,,,,,,,,,,,,,,,,,,,,6,weak,-42,-68,1,0,0,response5disk,8,144,-1,-16,1,0,0,rectangle,-1,-16,1,0,0,1,1,9.99999E-05,-1,-16,1,0,0,0,143,143,64,1,0,,,,,,,,,,,,,,,,,,,,,
,,,,,,,,,,,,,,,,,,,,,,,,,,,,,,,,,,,,,,,,,,5ecae16e5a125126cbb0e08b,606841018a9cdac5528af621,2021-04-03_11h18.58.648,Colour_Similarity_Experiment,2020.2.10,Win32,60,60674ec340277cd6a308bc9f,7.048052851,6.948435341,6.949457983,6.950740637,6.943961982,6.949457983,,,,,,,,,,,,,,,,,,,,PF,weak,7,,,,,,,,6,2.21968,,,,,,,,,,,,,,,,,,,,,,,,,,,,8,weak,94,34,1,0,0,response1disk,4,145,5,-6,1,0,0,rectangle,5,-6,1,0,0,1,5,0.000665,5,-6,1,0,0,0,144,144,78,1,0,,,,,,,,,,,,,,,,,,,,,
,,,,,,,,,,,,,,,,,,,,,,,,,,,,,,,,,,,,,,,,,,5ecae16e5a125126cbb0e08b,606841018a9cdac5528af621,2021-04-03_11h18.58.648,Colour_Similarity_Experiment,2020.2.10,Win32,60,60674ec340277cd6a308bc9f,7.048052851,6.948435341,6.949457983,6.950740637,6.943961982,6.949457983,,,,,,,,,,,,,,,,,,,,PF,weak,7,,,,,,,,1,0.925915,,,,,,,,,,,,,,,,,,,,,,,,,,,,8,weak,-86,29,1,0,0,response7disk,9,146,-25,0,1,0,0,rectangle,-25,0,1,0,0,1,7,0.000475,-25,0,1,0,0,0,145,145,42,1,0,,,,,,,,,,,,,,,,,,,,,
,,,,,,,,,,,,,,,,,,,,,,,,,,,,,,,,,,,,,,,,,,5ecae16e5a125126cbb0e08b,606841018a9cdac5528af621,2021-04-03_11h18.58.648,Colour_Similarity_Experiment,2020.2.10,Win32,60,60674ec340277cd6a308bc9f,7.048052851,6.948435341,6.949457983,6.950740637,6.943961982,6.949457983,,,,,,,,,,,,,,,,,,,,PF,strong,7,,,,,,,,6,1.532255,,,,,,,,,,,,,,,,,,,,,,,,,,,,3,strong,101,37,1,0,0,response1disk,7,147,14,12,1,0,0,rectangle,14,12,1,0,0,1,7,6.5E-05,14,12,1,0,0,0,146,146,118,1,0,,,,,,,,,,,,,,,,,,,,,
,,,,,,,,,,,,,,,,,,,,,,,,,,,,,,,,,,,,,,,,,,5ecae16e5a125126cbb0e08b,606841018a9cdac5528af621,2021-04-03_11h18.58.648,Colour_Similarity_Experiment,2020.2.10,Win32,60,60674ec340277cd6a308bc9f,7.048052851,6.948435341,6.949457983,6.950740637,6.943961982,6.949457983,,,,,,,,,,,,,,,,,,,,PF,weak,7,,,,,,,,1,1.23359,,,,,,,,,,,,,,,,,,,,,,,,,,,,4,weak,-116,38,1,0,0,response7disk,4,148,-10,-13,1,0,0,rectangle,-10,-13,1,0,0,1,3,0.00046,-10,-13,1,0,0,0,147,147,70,1,0,,,,,,,,,,,,,,,,,,,,,
,,,,,,,,,,,,,,,,,,,,,,,,,,,,,,,,,,,,,,,,,,5ecae16e5a125126cbb0e08b,606841018a9cdac5528af621,2021-04-03_11h18.58.648,Colour_Similarity_Experiment,2020.2.10,Win32,60,60674ec340277cd6a308bc9f,7.048052851,6.948435341,6.949457983,6.950740637,6.943961982,6.949457983,,,,,,,,,,,,,,,,,,,,PF,strong,7,,,,,,,,4,3.50439,,,,,,,,,,,,,,,,,,,,,,,,,,,,2,strong,59,-81,1,0,0,response3disk,8,149,-6,-10,1,0,0,rectangle,-6,-10,1,0,0,1,0,0.00098,-6,-10,1,0,0,0,148,148,62,1,0,,,,,,,,,,,,,,,,,,,,,
,,,,,,,,,,,,,,,,,,,,,,,,,,,,,,,,,,,,,,,,,,5ecae16e5a125126cbb0e08b,606841018a9cdac5528af621,2021-04-03_11h18.58.648,Colour_Similarity_Experiment,2020.2.10,Win32,60,60674ec340277cd6a308bc9f,7.048052851,6.948435341,6.949457983,6.950740637,6.943961982,6.949457983,,,,,,,,,,,,,,,,,,,,PF,weak,7,,,,,,,,1,1.08082,,,,,,,,,,,,,,,,,,,,,,,,,,,,3,weak,-86,39,1,0,0,response7disk,3,150,5,-9,1,0,0,rectangle,5,-9,1,0,0,1,7,0.000465,5,-9,1,0,0,0,149,149,4,1,0,,,,,,,,,,,,,,,,,,,,,
,,,,,,,,,,,,,,,,,,,,,,,,,,,,,,,,,,,,,,,,,,5ecae16e5a125126cbb0e08b,606841018a9cdac5528af621,2021-04-03_11h18.58.648,Colour_Similarity_Experiment,2020.2.10,Win32,60,60674ec340277cd6a308bc9f,7.048052851,6.948435341,6.949457983,6.950740637,6.943961982,6.949457983,,,,,,,,,,,,,,,,,,,,PF,weak,7,,,,,,,,0,0.955615,,,,,,,,,,,,,,,,,,,,,,,,,,,,4,weak,-52,88,1,0,0,response7disk,3,151,1,7,1,0,0,rectangle,1,7,1,0,0,1,1,0.000625,1,7,1,0,0,0,150,150,89,1,0,,,,,,,,,,,,,,,,,,,,,
,,,,,,,,,,,,,,,,,,,,,,,,,,,,,,,,,,,,,,,,,,5ecae16e5a125126cbb0e08b,606841018a9cdac5528af621,2021-04-03_11h18.58.648,Colour_Similarity_Experiment,2020.2.10,Win32,60,60674ec340277cd6a308bc9f,7.048052851,6.948435341,6.949457983,6.950740637,6.943961982,6.949457983,,,,,,,,,,,,,,,,,,,,PF,strong,7,,,,,,,,1,1.233575,,,,,,,,,,,,,,,,,,,,,,,,,,,,3,strong,-84,39,1,0,0,response7disk,3,152,5,-3,1,0,0,rectangle,5,-3,1,0,0,1,2,0.000495,5,-3,1,0,0,0,151,151,68,1,0,,,,,,,,,,,,,,,,,,,,,
,,,,,,,,,,,,,,,,,,,,,,,,,,,,,,,,,,,,,,,,,,5ecae16e5a125126cbb0e08b,606841018a9cdac5528af621,2021-04-03_11h18.58.648,Colour_Similarity_Experiment,2020.2.10,Win32,60,60674ec340277cd6a308bc9f,7.048052851,6.948435341,6.949457983,6.950740637,6.943961982,6.949457983,,,,,,,,,,,,,,,,,,,,PF,weak,7,,,,,,,,1,1.053555,,,,,,,,,,,,,,,,,,,,,,,,,,,,2,weak,-89,39,1,0,0,response7disk,1,153,-13,-8,1,0,0,rectangle,-13,-8,1,0,0,1,1,0.000505,-13,-8,1,0,0,0,152,152,9,1,0,,,,,,,,,,,,,,,,,,,,,
,,,,,,,,,,,,,,,,,,,,,,,,,,,,,,,,,,,,,,,,,,5ecae16e5a125126cbb0e08b,606841018a9cdac5528af621,2021-04-03_11h18.58.648,Colour_Similarity_Experiment,2020.2.10,Win32,60,60674ec340277cd6a308bc9f,7.048052851,6.948435341,6.949457983,6.950740637,6.943961982,6.949457983,,,,,,,,,,,,,,,,,,,,PF,weak,7,,,,,,,,5,2.715235,,,,,,,,,,,,,,,,,,,,,,,,,,,,9,weak,123,-41,1,0,0,response3disk,3,154,9,6,1,0,0,rectangle,9,6,1,0,0,1,0,0.00049,9,6,1,0,0,0,153,153,119,1,0,,,,,,,,,,,,,,,,,,,,,
,,,,,,,,,,,,,,,,,,,,,,,,,,,,,,,,,,,,,,,,,,5ecae16e5a125126cbb0e08b,606841018a9cdac5528af621,2021-04-03_11h18.58.648,Colour_Similarity_Experiment,2020.2.10,Win32,60,60674ec340277cd6a308bc9f,7.048052851,6.948435341,6.949457983,6.950740637,6.943961982,6.949457983,,,,,,,,,,,,,,,,,,,,PF,strong,7,,,,,,,,5,1.965245,,,,,,,,,,,,,,,,,,,,,,,,,,,,5,strong,67,-52,1,0,0,response3disk,5,155,6,-11,1,0,0,rectangle,6,-11,1,0,0,1,3,0.000545,6,-11,1,0,0,0,154,154,19,1,0,,,,,,,,,,,,,,,,,,,,,
,,,,,,,,,,,,,,,,,,,,,,,,,,,,,,,,,,,,,,,,,,5ecae16e5a125126cbb0e08b,606841018a9cdac5528af621,2021-04-03_11h18.58.648,Colour_Similarity_Experiment,2020.2.10,Win32,60,60674ec340277cd6a308bc9f,7.048052851,6.948435341,6.949457983,6.950740637,6.943961982,6.949457983,,,,,,,,,,,,,,,,,,,,PF,weak,7,,,,,,,,4,3.201345,,,,,,,,,,,,,,,,,,,,,,,,,,,,3,weak,64,-101,1,0,0,response3disk,6,156,0,-9,1,0,0,rectangle,0,-9,1,0,0,1,6,0.00048,0,-9,1,0,0,0,155,155,47,1,0,,,,,,,,,,,,,,,,,,,,,
,,,,,,,,,,,,,,,,,,,,,,,,,,,,,,,,,,,,,,,,,,5ecae16e5a125126cbb0e08b,606841018a9cdac5528af621,2021-04-03_11h18.58.648,Colour_Similarity_Experiment,2020.2.10,Win32,60,60674ec340277cd6a308bc9f,7.048052851,6.948435341,6.949457983,6.950740637,6.943961982,6.949457983,,,,,,,,,,,,,,,,,,,,PF,weak,7,,,,,,,,6,2.104105,,,,,,,,,,,,,,,,,,,,,,,,,,,,5,weak,87,37,1,0,0,response1disk,8,157,4,-3,1,0,0,rectangle,4,-3,1,0,0,1,7,0.00048,4,-3,1,0,0,0,156,156,149,1,0,,,,,,,,,,,,,,,,,,,,,
,,,,,,,,,,,,,,,,,,,,,,,,,,,,,,,,,,,,,,,,,,5ecae16e5a125126cbb0e08b,606841018a9cdac5528af621,2021-04-03_11h18.58.648,Colour_Similarity_Experiment,2020.2.10,Win32,60,60674ec340277cd6a308bc9f,7.048052851,6.948435341,6.949457983,6.950740637,6.943961982,6.949457983,,,,,,,,,,,,,,,,,,,,PF,weak,7,,,,,,,,5,2.493105,,,,,,,,,,,,,,,,,,,,,,,,,,,,4,weak,129,-49,1,0,0,response3disk,7,158,16,-17,1,0,0,rectangle,16,-17,1,0,0,1,6,0.000475,16,-17,1,0,0,0,157,157,38,1,0,,,,,,,,,,,,,,,,,,,,,
,,,,,,,,,,,,,,,,,,,,,,,,,,,,,,,,,,,,,,,,,,5ecae16e5a125126cbb0e08b,606841018a9cdac5528af621,2021-04-03_11h18.58.648,Colour_Similarity_Experiment,2020.2.10,Win32,60,60674ec340277cd6a308bc9f,7.048052851,6.948435341,6.949457983,6.950740637,6.943961982,6.949457983,,,,,,,,,,,,,,,,,,,,PF,strong,7,,,,,,,,6,1.71363,,,,,,,,,,,,,,,,,,,,,,,,,,,,2,strong,85,37,1,0,0,response1disk,5,159,8,3,1,0,0,rectangle,8,3,1,0,0,1,0,0.000445,8,3,1,0,0,0,158,158,80,1,0,,,,,,,,,,,,,,,,,,,,,
,,,,,,,,,,,,,,,,,,,,,,,,,,,,,,,,,,,,,,,,,,5ecae16e5a125126cbb0e08b,606841018a9cdac5528af621,2021-04-03_11h18.58.648,Colour_Similarity_Experiment,2020.2.10,Win32,60,60674ec340277cd6a308bc9f,7.048052851,6.948435341,6.949457983,6.950740637,6.943961982,6.949457983,,,,,,,,,,,,,,,,,,,,PF,strong,7,,,,,,,,6,3.63631,,,,,,,,,,,,,,,,,,,,,,,,,,,,1,strong,126,42,1,0,0,response1disk,3,160,24,-2,1,0,0,rectangle,24,-2,1,0,0,1,4,0.0005,24,-2,1,0,0,0,159,159,99,1,0,,,,,,,,,,,,,,,,,,,,,
,,,,,,,,,,,,,,,,,,,,,,,,,,,,,,,,,,,,,,,,,,5ecae16e5a125126cbb0e08b,606841018a9cdac5528af621,2021-04-03_11h18.58.648,Colour_Similarity_Experiment,2020.2.10,Win32,60,60674ec340277cd6a308bc9f,7.048052851,6.948435341,6.949457983,6.950740637,6.943961982,6.949457983,,,,,,,,,,,,,,,,,,,,PF,strong,7,,,,,,,,1,3.736245,,,,,,,,,,,,,,,,,,,,,,,,,,,,2,strong,-72,31,1,0,0,response7disk,9,161,-12,-3,1,0,0,rectangle,-12,-3,1,0,0,1,7,0.000535,-12,-3,1,0,0,0,160,160,72,1,0,,,,,,,,,,,,,,,,,,,,,
,,,,,,,,,,,,,,,,,,,,,,,,,,,,,,,,,,,,,,,,,,5ecae16e5a125126cbb0e08b,606841018a9cdac5528af621,2021-04-03_11h18.58.648,Colour_Similarity_Experiment,2020.2.10,Win32,60,60674ec340277cd6a308bc9f,7.048052851,6.948435341,6.949457983,6.950740637,6.943961982,6.949457983,,,,,,,,,,,,,,,,,,,,PF,strong,7,,,,,,,,1,1.969545,,,,,,,,,,,,,,,,,,,,,,,,,,,,5,strong,-82,33,1,0,0,response7disk,1,162,-2,0,1,0,0,rectangle,-2,0,1,0,0,1,0,0.00049,-2,0,1,0,0,0,161,161,131,1,0,,,,,,,,,,,,,,,,,,,,,
,,,,,,,,,,,,,,,,,,,,,,,,,,,,,,,,,,,,,,,,,,5ecae16e5a125126cbb0e08b,606841018a9cdac5528af621,2021-04-03_11h18.58.648,Colour_Similarity_Experiment,2020.2.10,Win32,60,60674ec340277cd6a308bc9f,7.048052851,6.948435341,6.949457983,6.950740637,6.943961982,6.949457983,,,,,,,,,,,,,,,,,,,,,,,,,,,,,,,,,,,,,,,,,,,,,,,,,,,,,,,,,,,,,,,,,,,,,,,,,,,,,,,,,,,,,,,,,,,,,,,,0,0,0,0,1,,,,,,,,,,,,,,
,,,,,,,,,,,,,,,,,,,,,,,,,,,,,,,,,,,,,,,,,,5ecae16e5a125126cbb0e08b,606841018a9cdac5528af621,2021-04-03_11h18.58.648,Colour_Similarity_Experiment,2020.2.10,Win32,60,60674ec340277cd6a308bc9f,7.048052851,6.948435341,6.949457983,6.950740637,6.943961982,6.949457983,,,,,,,,,,,,,,,,,,,,PF,strong,7,,,,,,,,6,1.31251,,,,,,,,,,,,,,,,,,,,,,,,,,,,3,strong,92,32,1,0,0,response1disk,9,163,25,-2,1,0,0,rectangle,25,-2,1,0,0,1,6,0.00046,25,-2,1,0,0,0,0,0,143,1,0,,,,,,,,,,,,,,,,,,,,,
,,,,,,,,,,,,,,,,,,,,,,,,,,,,,,,,,,,,,,,,,,5ecae16e5a125126cbb0e08b,606841018a9cdac5528af621,2021-04-03_11h18.58.648,Colour_Similarity_Experiment,2020.2.10,Win32,60,60674ec340277cd6a308bc9f,7.048052851,6.948435341,6.949457983,6.950740637,6.943961982,6.949457983,,,,,,,,,,,,,,,,,,,,PF,weak,7,,,,,,,,6,1.8149,,,,,,,,,,,,,,,,,,,,,,,,,,,,9,weak,81,38,1,0,0,response1disk,7,164,8,-1,1,0,0,rectangle,8,-1,1,0,0,1,5,0.0005,8,-1,1,0,0,0,1,1,121,1,0,,,,,,,,,,,,,,,,,,,,,
,,,,,,,,,,,,,,,,,,,,,,,,,,,,,,,,,,,,,,,,,,5ecae16e5a125126cbb0e08b,606841018a9cdac5528af621,2021-04-03_11h18.58.648,Colour_Similarity_Experiment,2020.2.10,Win32,60,60674ec340277cd6a308bc9f,7.048052851,6.948435341,6.949457983,6.950740637,6.943961982,6.949457983,,,,,,,,,,,,,,,,,,,,PF,weak,7,,,,,,,,7,1.671115,,,,,,,,,,,,,,,,,,,,,,,,,,,,3,weak,44,62,1,0,0,response1disk,8,165,-5,10,1,0,0,rectangle,-5,10,1,0,0,1,0,0.000475,-5,10,1,0,0,0,2,2,3,1,0,,,,,,,,,,,,,,,,,,,,,
,,,,,,,,,,,,,,,,,,,,,,,,,,,,,,,,,,,,,,,,,,5ecae16e5a125126cbb0e08b,606841018a9cdac5528af621,2021-04-03_11h18.58.648,Colour_Similarity_Experiment,2020.2.10,Win32,60,60674ec340277cd6a308bc9f,7.048052851,6.948435341,6.949457983,6.950740637,6.943961982,6.949457983,,,,,,,,,,,,,,,,,,,,PF,weak,7,,,,,,,,0,0.90937,,,,,,,,,,,,,,,,,,,,,,,,,,,,2,weak,-45,81,1,0,0,response7disk,2,166,-9,5,1,0,0,rectangle,-9,5,1,0,0,1,1,0.000685,-9,5,1,0,0,0,3,3,14,1,0,,,,,,,,,,,,,,,,,,,,,
,,,,,,,,,,,,,,,,,,,,,,,,,,,,,,,,,,,,,,,,,,5ecae16e5a125126cbb0e08b,606841018a9cdac5528af621,2021-04-03_11h18.58.648,Colour_Similarity_Experiment,2020.2.10,Win32,60,60674ec340277cd6a308bc9f,7.048052851,6.948435341,6.949457983,6.950740637,6.943961982,6.949457983,,,,,,,,,,,,,,,,,,,,PF,strong,7,,,,,,,,1,1.268275,,,,,,,,,,,,,,,,,,,,,,,,,,,,3,strong,-110,37,1,0,0,response7disk,5,167,-9,-7,1,0,0,rectangle,-9,-7,1,0,0,1,0,0.000635,-9,-7,1,0,0,0,4,4,101,1,0,,,,,,,,,,,,,,,,,,,,,
,,,,,,,,,,,,,,,,,,,,,,,,,,,,,,,,,,,,,,,,,,5ecae16e5a125126cbb0e08b,606841018a9cdac5528af621,2021-04-03_11h18.58.648,Colour_Similarity_Experiment,2020.2.10,Win32,60,60674ec340277cd6a308bc9f,7.048052851,6.948435341,6.949457983,6.950740637,6.943961982,6.949457983,,,,,,,,,,,,,,,,,,,,PF,strong,7,,,,,,,,5,1.504525,,,,,,,,,,,,,,,,,,,,,,,,,,,,9,strong,88,-40,1,0,0,response3disk,3,168,-5,-5,1,0,0,rectangle,-5,-5,1,0,0,1,4,0.000445,-5,-5,1,0,0,0,5,5,141,1,0,,,,,,,,,,,,,,,,,,,,,
,,,,,,,,,,,,,,,,,,,,,,,,,,,,,,,,,,,,,,,,,,5ecae16e5a125126cbb0e08b,606841018a9cdac5528af621,2021-04-03_11h18.58.648,Colour_Similarity_Experiment,2020.2.10,Win32,60,60674ec340277cd6a308bc9f,7.048052851,6.948435341,6.949457983,6.950740637,6.943961982,6.949457983,,,,,,,,,,,,,,,,,,,,PF,weak,7,,,,,,,,7,1.99553,,,,,,,,,,,,,,,,,,,,,,,,,,,,1,weak,55,83,1,0,0,response1disk,6,169,12,5,1,0,0,rectangle,12,5,1,0,0,1,0,0.000635,12,5,1,0,0,0,6,6,144,1,0,,,,,,,,,,,,,,,,,,,,,
,,,,,,,,,,,,,,,,,,,,,,,,,,,,,,,,,,,,,,,,,,5ecae16e5a125126cbb0e08b,606841018a9cdac5528af621,2021-04-03_11h18.58.648,Colour_Similarity_Experiment,2020.2.10,Win32,60,60674ec340277cd6a308bc9f,7.048052851,6.948435341,6.949457983,6.950740637,6.943961982,6.949457983,,,,,,,,,,,,,,,,,,,,PF,weak,7,,,,,,,,6,1.379145,,,,,,,,,,,,,,,,,,,,,,,,,,,,6,weak,111,40,1,0,0,response1disk,9,170,33,4,1,0,0,rectangle,33,4,1,0,0,1,1,0.00045,33,4,1,0,0,0,7,7,45,1,0,,,,,,,,,,,,,,,,,,,,,
,,,,,,,,,,,,,,,,,,,,,,,,,,,,,,,,,,,,,,,,,,5ecae16e5a125126cbb0e08b,606841018a9cdac5528af621,2021-04-03_11h18.58.648,Colour_Similarity_Experiment,2020.2.10,Win32,60,60674ec340277cd6a308bc9f,7.048052851,6.948435341,6.949457983,6.950740637,6.943961982,6.949457983,,,,,,,,,,,,,,,,,,,,PF,strong,7,,,,,,,,5,3.51812,,,,,,,,,,,,,,,,,,,,,,,,,,,,3,strong,55,-38,1,0,0,response3disk,2,171,-15,-5,1,0,0,rectangle,-15,-5,1,0,0,1,6,0.00049,-15,-5,1,0,0,0,8,8,93,1,0,,,,,,,,,,,,,,,,,,,,,
,,,,,,,,,,,,,,,,,,,,,,,,,,,,,,,,,,,,,,,,,,5ecae16e5a125126cbb0e08b,606841018a9cdac5528af621,2021-04-03_11h18.58.648,Colour_Similarity_Experiment,2020.2.10,Win32,60,60674ec340277cd6a308bc9f,7.048052851,6.948435341,6.949457983,6.950740637,6.943961982,6.949457983,,,,,,,,,,,,,,,,,,,,PF,weak,7,,,,,,,,5,2.41663,,,,,,,,,,,,,,,,,,,,,,,,,,,,9,weak,85,-36,1,0,0,response3disk,2,172,10,-7,1,0,0,rectangle,10,-7,1,0,0,1,5,0.000455,10,-7,1,0,0,0,9,9,157,1,0,,,,,,,,,,,,,,,,,,,,,
,,,,,,,,,,,,,,,,,,,,,,,,,,,,,,,,,,,,,,,,,,5ecae16e5a125126cbb0e08b,606841018a9cdac5528af621,2021-04-03_11h18.58.648,Colour_Similarity_Experiment,2020.2.10,Win32,60,60674ec340277cd6a308bc9f,7.048052851,6.948435341,6.949457983,6.950740637,6.943961982,6.949457983,,,,,,,,,,,,,,,,,,,,PF,strong,7,,,,,,,,4,2.98614,,,,,,,,,,,,,,,,,,,,,,,,,,,,6,strong,32,-46,1,0,0,response3disk,4,173,-2,-1,1,0,0,rectangle,-2,-1,1,0,0,1,5,7E-05,-2,-1,1,0,0,0,10,10,56,1,0,,,,,,,,,,,,,,,,,,,,,
,,,,,,,,,,,,,,,,,,,,,,,,,,,,,,,,,,,,,,,,,,5ecae16e5a125126cbb0e08b,606841018a9cdac5528af621,2021-04-03_11h18.58.648,Colour_Similarity_Experiment,2020.2.10,Win32,60,60674ec340277cd6a308bc9f,7.048052851,6.948435341,6.949457983,6.950740637,6.943961982,6.949457983,,,,,,,,,,,,,,,,,,,,PF,weak,7,,,,,,,,0,0.902115,,,,,,,,,,,,,,,,,,,,,,,,,,,,1,weak,-35,75,1,0,0,response7disk,1,174,-2,-15,1,0,0,rectangle,-79,30,1,0,0,1,1,1.13203,-7,-13,1,0,0,0,11,11,76,1,1,response7disk_3,rectangle,,,,,,,,,,,,,,,,,,,
,,,,,,,,,,,,,,,,,,,,,,,,,,,,,,,,,,,,,,,,,,5ecae16e5a125126cbb0e08b,606841018a9cdac5528af621,2021-04-03_11h18.58.648,Colour_Similarity_Experiment,2020.2.10,Win32,60,60674ec340277cd6a308bc9f,7.048052851,6.948435341,6.949457983,6.950740637,6.943961982,6.949457983,,,,,,,,,,,,,,,,,,,,PF,strong,7,,,,,,,,4,1.78724,,,,,,,,,,,,,,,,,,,,,,,,,,,,4,strong,57,-114,1,0,0,response3disk,3,175,9,-8,1,0,0,rectangle,9,-8,1,0,0,1,0,0.00051,9,-8,1,0,0,0,12,12,77,1,0,,,,,,,,,,,,,,,,,,,,,
,,,,,,,,,,,,,,,,,,,,,,,,,,,,,,,,,,,,,,,,,,5ecae16e5a125126cbb0e08b,606841018a9cdac5528af621,2021-04-03_11h18.58.648,Colour_Similarity_Experiment,2020.2.10,Win32,60,60674ec340277cd6a308bc9f,7.048052851,6.948435341,6.949457983,6.950740637,6.943961982,6.949457983,,,,,,,,,,,,,,,,,,,,PF,strong,7,,,,,,,,3,1.20137,,,,,,,,,,,,,,,,,,,,,,,,,,,,2,strong,-58,-98,1,0,0,response5disk,2,176,18,-4,1,0,0,rectangle,18,-4,1,0,0,1,7,0.000525,18,-4,1,0,0,0,13,13,142,1,0,,,,,,,,,,,,,,,,,,,,,
,,,,,,,,,,,,,,,,,,,,,,,,,,,,,,,,,,,,,,,,,,5ecae16e5a125126cbb0e08b,606841018a9cdac5528af621,2021-04-03_11h18.58.648,Colour_Similarity_Experiment,2020.2.10,Win32,60,60674ec340277cd6a308bc9f,7.048052851,6.948435341,6.949457983,6.950740637,6.943961982,6.949457983,,,,,,,,,,,,,,,,,,,,PF,strong,7,,,,,,,,5,1.618135,,,,,,,,,,,,,,,,,,,,,,,,,,,,2,strong,113,-60,1,0,0,response3disk,3,177,11,1,1,0,0,rectangle,-38,-96,1,0,0,3,3,1.45115,8,2,1,0,0,0,14,14,104,1,1,response5disk_3,rectangle,,,,,,,,,,,,,,,,,,,
,,,,,,,,,,,,,,,,,,,,,,,,,,,,,,,,,,,,,,,,,,5ecae16e5a125126cbb0e08b,606841018a9cdac5528af621,2021-04-03_11h18.58.648,Colour_Similarity_Experiment,2020.2.10,Win32,60,60674ec340277cd6a308bc9f,7.048052851,6.948435341,6.949457983,6.950740637,6.943961982,6.949457983,,,,,,,,,,,,,,,,,,,,PF,weak,7,,,,,,,,2,0.930565,,,,,,,,,,,,,,,,,,,,,,,,,,,,1,weak,-94,-46,1,0,0,response5disk,8,178,-6,-10,1,0,0,rectangle,-6,-10,1,0,0,3,6,0.0005,-6,-10,1,0,0,0,15,15,65,1,0,,,,,,,,,,,,,,,,,,,,,
,,,,,,,,,,,,,,,,,,,,,,,,,,,,,,,,,,,,,,,,,,5ecae16e5a125126cbb0e08b,606841018a9cdac5528af621,2021-04-03_11h18.58.648,Colour_Similarity_Experiment,2020.2.10,Win32,60,60674ec340277cd6a308bc9f,7.048052851,6.948435341,6.949457983,6.950740637,6.943961982,6.949457983,,,,,,,,,,,,,,,,,,,,PF,strong,7,,,,,,,,6,1.01383,,,,,,,,,,,,,,,,,,,,,,,,,,,,1,strong,81,52,1,0,0,response1disk,5,179,18,7,1,0,0,rectangle,18,7,1,0,0,3,7,0.000475,18,7,1,0,0,0,16,16,82,1,0,,,,,,,,,,,,,,,,,,,,,
,,,,,,,,,,,,,,,,,,,,,,,,,,,,,,,,,,,,,,,,,,5ecae16e5a125126cbb0e08b,606841018a9cdac5528af621,2021-04-03_11h18.58.648,Colour_Similarity_Experiment,2020.2.10,Win32,60,60674ec340277cd6a308bc9f,7.048052851,6.948435341,6.949457983,6.950740637,6.943961982,6.949457983,,,,,,,,,,,,,,,,,,,,PF,strong,7,,,,,,,,5,1.45133,,,,,,,,,,,,,,,,,,,,,,,,,,,,9,strong,103,-46,1,0,0,response3disk,7,180,-9,0,1,0,0,rectangle,-9,0,1,0,0,3,2,0.000465,-9,0,1,0,0,0,17,17,100,1,0,,,,,,,,,,,,,,,,,,,,,
,,,,,,,,,,,,,,,,,,,,,,,,,,,,,,,,,,,,,,,,,,5ecae16e5a125126cbb0e08b,606841018a9cdac5528af621,2021-04-03_11h18.58.648,Colour_Similarity_Experiment,2020.2.10,Win32,60,60674ec340277cd6a308bc9f,7.048052851,6.948435341,6.949457983,6.950740637,6.943961982,6.949457983,,,,,,,,,,,,,,,,,,,,PF,strong,7,,,,,,,,5,1.020815,,,,,,,,,,,,,,,,,,,,,,,,,,,,7,strong,85,-50,1,0,0,response3disk,9,181,13,-5,1,0,0,rectangle,13,-5,1,0,0,3,5,0.000465,13,-5,1,0,0,0,18,18,155,1,0,,,,,,,,,,,,,,,,,,,,,
,,,,,,,,,,,,,,,,,,,,,,,,,,,,,,,,,,,,,,,,,,5ecae16e5a125126cbb0e08b,606841018a9cdac5528af621,2021-04-03_11h18.58.648,Colour_Similarity_Experiment,2020.2.10,Win32,60,60674ec340277cd6a308bc9f,7.048052851,6.948435341,6.949457983,6.950740637,6.943961982,6.949457983,,,,,,,,,,,,,,,,,,,,PF,strong,7,,,,,,,,5,1.19452,,,,,,,,,,,,,,,,,,,,,,,,,,,,6,strong,102,-49,1,0,0,response3disk,6,182,-22,11,1,0,0,rectangle,-22,11,1,0,0,3,4,0.00047,-22,11,1,0,0,0,19,19,91,1,0,,,,,,,,,,,,,,,,,,,,,
,,,,,,,,,,,,,,,,,,,,,,,,,,,,,,,,,,,,,,,,,,5ecae16e5a125126cbb0e08b,606841018a9cdac5528af621,2021-04-03_11h18.58.648,Colour_Similarity_Experiment,2020.2.10,Win32,60,60674ec340277cd6a308bc9f,7.048052851,6.948435341,6.949457983,6.950740637,6.943961982,6.949457983,,,,,,,,,,,,,,,,,,,,PF,strong,7,,,,,,,,1,1.245515,,,,,,,,,,,,,,,,,,,,,,,,,,,,4,strong,-88,39,1,0,0,response7disk,4,183,14,-5,1,0,0,rectangle,14,-5,1,0,0,3,1,0.00046,14,-5,1,0,0,0,20,20,84,1,0,,,,,,,,,,,,,,,,,,,,,
,,,,,,,,,,,,,,,,,,,,,,,,,,,,,,,,,,,,,,,,,,5ecae16e5a125126cbb0e08b,606841018a9cdac5528af621,2021-04-03_11h18.58.648,Colour_Similarity_Experiment,2020.2.10,Win32,60,60674ec340277cd6a308bc9f,7.048052851,6.948435341,6.949457983,6.950740637,6.943961982,6.949457983,,,,,,,,,,,,,,,,,,,,PF,strong,7,,,,,,,,1,1.011285,,,,,,,,,,,,,,,,,,,,,,,,,,,,7,strong,-97,44,1,0,0,response7disk,6,184,16,-6,1,0,0,rectangle,16,-6,1,0,0,3,7,0.000515,16,-6,1,0,0,0,21,21,31,1,0,,,,,,,,,,,,,,,,,,,,,
,,,,,,,,,,,,,,,,,,,,,,,,,,,,,,,,,,,,,,,,,,5ecae16e5a125126cbb0e08b,606841018a9cdac5528af621,2021-04-03_11h18.58.648,Colour_Similarity_Experiment,2020.2.10,Win32,60,60674ec340277cd6a308bc9f,7.048052851,6.948435341,6.949457983,6.950740637,6.943961982,6.949457983,,,,,,,,,,,,,,,,,,,,PF,strong,7,,,,,,,,2,1.059965,,,,,,,,,,,,,,,,,,,,,,,,,,,,4,strong,-87,-33,1,0,0,response5disk,8,185,6,-1,1,0,0,rectangle,6,-1,1,0,0,3,6,0.0005,6,-1,1,0,0,0,22,22,35,1,0,,,,,,,,,,,,,,,,,,,,,
,,,,,,,,,,,,,,,,,,,,,,,,,,,,,,,,,,,,,,,,,,5ecae16e5a125126cbb0e08b,606841018a9cdac5528af621,2021-04-03_11h18.58.648,Colour_Similarity_Experiment,2020.2.10,Win32,60,60674ec340277cd6a308bc9f,7.048052851,6.948435341,6.949457983,6.950740637,6.943961982,6.949457983,,,,,,,,,,,,,,,,,,,,PF,strong,7,,,,,,,,7,1.24995,,,,,,,,,,,,,,,,,,,,,,,,,,,,4,strong,37,86,1,0,0,response1disk,1,186,24,19,1,0,0,rectangle,24,19,1,0,0,3,2,0.000685,24,19,1,0,0,0,23,23,102,1,0,,,,,,,,,,,,,,,,,,,,,
,,,,,,,,,,,,,,,,,,,,,,,,,,,,,,,,,,,,,,,,,,5ecae16e5a125126cbb0e08b,606841018a9cdac5528af621,2021-04-03_11h18.58.648,Colour_Similarity_Experiment,2020.2.10,Win32,60,60674ec340277cd6a308bc9f,7.048052851,6.948435341,6.949457983,6.950740637,6.943961982,6.949457983,,,,,,,,,,,,,,,,,,,,PF,strong,7,,,,,,,,6,1.775235,,,,,,,,,,,,,,,,,,,,,,,,,,,,6,strong,101,39,1,0,0,response1disk,2,187,-14,-1,1,0,0,rectangle,-14,-1,1,0,0,3,3,0.000595,-14,-1,1,0,0,0,24,24,112,1,0,,,,,,,,,,,,,,,,,,,,,
,,,,,,,,,,,,,,,,,,,,,,,,,,,,,,,,,,,,,,,,,,5ecae16e5a125126cbb0e08b,606841018a9cdac5528af621,2021-04-03_11h18.58.648,Colour_Similarity_Experiment,2020.2.10,Win32,60,60674ec340277cd6a308bc9f,7.048052851,6.948435341,6.949457983,6.950740637,6.943961982,6.949457983,,,,,,,,,,,,,,,,,,,,PF,strong,7,,,,,,,,6,1.53907,,,,,,,,,,,,,,,,,,,,,,,,,,,,9,strong,92,49,1,0,0,response1disk,5,188,8,4,1,0,0,rectangle,8,4,1,0,0,3,0,0.000505,8,4,1,0,0,0,25,25,128,1,0,,,,,,,,,,,,,,,,,,,,,
,,,,,,,,,,,,,,,,,,,,,,,,,,,,,,,,,,,,,,,,,,5ecae16e5a125126cbb0e08b,606841018a9cdac5528af621,2021-04-03_11h18.58.648,Colour_Similarity_Experiment,2020.2.10,Win32,60,60674ec340277cd6a308bc9f,7.048052851,6.948435341,6.949457983,6.950740637,6.943961982,6.949457983,,,,,,,,,,,,,,,,,,,,PF,strong,7,,,,,,,,6,1.560055,,,,,,,,,,,,,,,,,,,,,,,,,,,,2,strong,70,34,1,0,0,response1disk,6,189,-11,3,1,0,0,rectangle,-11,3,1,0,0,3,2,0.00045,-11,3,1,0,0,0,26,26,40,1,0,,,,,,,,,,,,,,,,,,,,,
,,,,,,,,,,,,,,,,,,,,,,,,,,,,,,,,,,,,,,,,,,5ecae16e5a125126cbb0e08b,606841018a9cdac5528af621,2021-04-03_11h18.58.648,Colour_Similarity_Experiment,2020.2.10,Win32,60,60674ec340277cd6a308bc9f,7.048052851,6.948435341,6.949457983,6.950740637,6.943961982,6.949457983,,,,,,,,,,,,,,,,,,,,PF,weak,7,,,,,,,,7,1.294195,,,,,,,,,,,,,,,,,,,,,,,,,,,,5,weak,44,88,1,0,0,response1disk,2,190,-5,-2,1,0,0,rectangle,-5,-2,1,0,0,3,7,0.00049,-5,-2,1,0,0,0,27,27,129,1,0,,,,,,,,,,,,,,,,,,,,,
,,,,,,,,,,,,,,,,,,,,,,,,,,,,,,,,,,,,,,,,,,5ecae16e5a125126cbb0e08b,606841018a9cdac5528af621,2021-04-03_11h18.58.648,Colour_Similarity_Experiment,2020.2.10,Win32,60,60674ec340277cd6a308bc9f,7.048052851,6.948435341,6.949457983,6.950740637,6.943961982,6.949457983,,,,,,,,,,,,,,,,,,,,PF,strong,7,,,,,,,,5,2.740495,,,,,,,,,,,,,,,,,,,,,,,,,,,,4,strong,100,-74,1,0,0,response3disk,6,191,-7,-3,1,0,0,rectangle,-7,-3,1,0,0,3,3,0.000465,-7,-3,1,0,0,0,28,28,122,1,0,,,,,,,,,,,,,,,,,,,,,
,,,,,,,,,,,,,,,,,,,,,,,,,,,,,,,,,,,,,,,,,,5ecae16e5a125126cbb0e08b,606841018a9cdac5528af621,2021-04-03_11h18.58.648,Colour_Similarity_Experiment,2020.2.10,Win32,60,60674ec340277cd6a308bc9f,7.048052851,6.948435341,6.949457983,6.950740637,6.943961982,6.949457983,,,,,,,,,,,,,,,,,,,,PF,strong,7,,,,,,,,4,2.678035,,,,,,,,,,,,,,,,,,,,,,,,,,,,3,strong,39,-72,1,0,0,response3disk,8,192,-3,-2,1,0,0,rectangle,-3,-2,1,0,0,3,7,0.000505,-3,-2,1,0,0,0,29,29,44,1,0,,,,,,,,,,,,,,,,,,,,,
,,,,,,,,,,,,,,,,,,,,,,,,,,,,,,,,,,,,,,,,,,5ecae16e5a125126cbb0e08b,606841018a9cdac5528af621,2021-04-03_11h18.58.648,Colour_Similarity_Experiment,2020.2.10,Win32,60,60674ec340277cd6a308bc9f,7.048052851,6.948435341,6.949457983,6.950740637,6.943961982,6.949457983,,,,,,,,,,,,,,,,,,,,PF,strong,7,,,,,,,,4,2.261305,,,,,,,,,,,,,,,,,,,,,,,,,,,,9,strong,32,-72,1,0,0,response3disk,2,193,0,2,1,0,0,rectangle,53,-95,1,0,0,4,4,1.03455,-21,8,1,0,0,0,30,30,11,1,1,response3disk_3,rectangle,,,,,,,,,,,,,,,,,,,
,,,,,,,,,,,,,,,,,,,,,,,,,,,,,,,,,,,,,,,,,,5ecae16e5a125126cbb0e08b,606841018a9cdac5528af621,2021-04-03_11h18.58.648,Colour_Similarity_Experiment,2020.2.10,Win32,60,60674ec340277cd6a308bc9f,7.048052851,6.948435341,6.949457983,6.950740637,6.943961982,6.949457983,,,,,,,,,,,,,,,,,,,,PF,strong,7,,,,,,,,5,1.624995,,,,,,,,,,,,,,,,,,,,,,,,,,,,8,strong,97,-51,1,0,0,response3disk,6,194,-5,-4,1,0,0,rectangle,-5,-4,1,0,0,4,2,0.00051,-5,-4,1,0,0,0,31,31,37,1,0,,,,,,,,,,,,,,,,,,,,,
