key_resp.keys,key_resp.rt,key_resp_16.keys,key_resp_16.rt,key_resp_2.keys,key_resp_2.rt,X Scale,ratio_pxpermm,screen_size_x,screen_size_y,testsize,key_resp_3.keys,key_resp_4.keys,key_resp_4.rt,line_size,key_resp_5.keys,key_resp_5.rt,key_resp_6.keys,key_resp_6.rt,key_resp_8.keys,key_resp_8.rt,key_resp_7.keys,key_resp_7.rt,key_resp_12.keys,key_resp_12.rt,key_resp_11.keys,key_resp_11.rt,key_resp_18.keys,key_resp_18.rt,key_resp_21.keys,key_resp_21.rt,key_resp_13.keys,key_resp_13.rt,key_resp_19.keys,key_resp_19.rt,ballposx,viewer_distance,trials.thisRepN,trials.thisTrialN,trials.thisN,trials.thisIndex,trials.ran,participant,session,date,expName,psychopyVersion,OS,frameRate,study_id,realFrameRate1,realFrameRate2,realFrameRate3,realFrameRate4,realFrameRate5,realFrameRate,viewerdistancecm,DVA_to_distance,radius_F,radius_P,r_F,R_P,key_resp_20.keys,key_resp_20.rt,key_resp_14.keys,key_resp_14.rt,key_resp_15.keys,key_resp_15.rt,key_resp_17.keys,key_resp_17.rt,key_resp_9.keys,key_resp_9.rt,key_resp_10.keys,key_resp_10.rt,Colour_1,Ecc,maskCon,mask_frames,mouse_5.x,mouse_5.y,mouse_5.leftButton,mouse_5.midButton,mouse_5.rightButton,mouse_5.clicked_name,Colour_2,similarity,response_time,mouse_10.x,mouse_10.y,mouse_10.leftButton,mouse_10.midButton,mouse_10.rightButton,mouse_10.clicked_name,mouse_7.x,mouse_7.y,mouse_7.leftButton,mouse_7.midButton,mouse_7.rightButton,catchnumberprac,mouse_6.x,mouse_6.y,mouse_6.leftButton,mouse_6.midButton,mouse_6.rightButton,duringprac.thisRepN,duringprac.thisTrialN,duringprac.thisN,duringprac.thisIndex,duringprac.ran,mouse_7.clicked_name,catchprac,mouse_6.clicked_name,key_resp_22.keys,key_resp_22.rt,Colour1,maskCon1,mouse.x,mouse.y,mouse.leftButton,mouse.midButton,mouse.rightButton,mouse.clicked_name,Colour2,trialnumber,mouse_2.x,mouse_2.y,mouse_2.leftButton,mouse_2.midButton,mouse_2.rightButton,mouse_2.clicked_name,mouse_3.x,mouse_3.y,mouse_3.leftButton,mouse_3.midButton,mouse_3.rightButton,catchresponse,catchnumber,response_time_catch,mouse_11.x,mouse_11.y,mouse_11.leftButton,mouse_11.midButton,mouse_11.rightButton,trials_2.thisRepN,trials_2.thisTrialN,trials_2.thisN,trials_2.thisIndex,trials_2.ran,Catch,mouse_3.clicked_name,mouse_11.clicked_name,trials_3.thisRepN,trials_3.thisTrialN,trials_3.thisN,trials_3.thisIndex,trials_3.ran,answer1,rt1,answer2,rt2,answer3,rt3,answer4,rt4,answer5,rt5,answer6,rt6,answer7,rt7
space,29.14719,space,8.76015,space,4.59357,35.8,3.58,536.3128492,301.6759777,1920,,space,16.78846,71.6,space,9.51952,space,6.680215,space,1.829365,space,3.496465,space,11.12078,space,5.287725,space,4.037365,space,7.318,space,10.3948,return,3.50223,109.44,766.2292834,0,0,0,0,1,5ed12d21e8cebc04aefac77c,60684b48bf2abe3d93bd1b67,2021-04-03_13h13.23.425,Colour_Similarity_Experiment,2020.2.10,Win32,60,60674ec340277cd6a308bc9f,21.43407216,16.80773423,16.68064232,16.68223214,16.68201158,16.68223214,,,,,,,,,,,,,,,,,,,,,,,,,,,,,,,,,,,,,,,,,,,,,,,,,,,,,,,,,,,,,,,,,,,,,,,,,,,,,,,,,,,,,,,,,,,,,,,,,,,,,,,,,,,,,,,,,,
,,,,,,,,,,,,,,,,,,,,,,,,,,,,,,,,,return,3.269195,152.64,715.9664296,1,0,1,0,1,5ed12d21e8cebc04aefac77c,60684b48bf2abe3d93bd1b67,2021-04-03_13h13.23.425,Colour_Similarity_Experiment,2020.2.10,Win32,60,60674ec340277cd6a308bc9f,21.43407216,16.80773423,16.68064232,16.68223214,16.68201158,16.68223214,,,,,,,,,,,,,,,,,,,,,,,,,,,,,,,,,,,,,,,,,,,,,,,,,,,,,,,,,,,,,,,,,,,,,,,,,,,,,,,,,,,,,,,,,,,,,,,,,,,,,,,,,,,,,,,,,,
,,,,,,,,,,,,,,,,,,,,,,,,,,,,,,,,,return,3.240595,158.4,709.2647157,2,0,2,0,1,5ed12d21e8cebc04aefac77c,60684b48bf2abe3d93bd1b67,2021-04-03_13h13.23.425,Colour_Similarity_Experiment,2020.2.10,Win32,60,60674ec340277cd6a308bc9f,21.43407216,16.80773423,16.68064232,16.68223214,16.68201158,16.68223214,,,,,,,,,,,,,,,,,,,,,,,,,,,,,,,,,,,,,,,,,,,,,,,,,,,,,,,,,,,,,,,,,,,,,,,,,,,,,,,,,,,,,,,,,,,,,,,,,,,,,,,,,,,,,,,,,,
,,,,,,,,,,,,,,,,,,,,,,,,,,,,,,,,,return,3.21177,164.16,702.5630019,3,0,3,0,1,5ed12d21e8cebc04aefac77c,60684b48bf2abe3d93bd1b67,2021-04-03_13h13.23.425,Colour_Similarity_Experiment,2020.2.10,Win32,60,60674ec340277cd6a308bc9f,21.43407216,16.80773423,16.68064232,16.68223214,16.68201158,16.68223214,,,,,,,,,,,,,,,,,,,,,,,,,,,,,,,,,,,,,,,,,,,,,,,,,,,,,,,,,,,,,,,,,,,,,,,,,,,,,,,,,,,,,,,,,,,,,,,,,,,,,,,,,,,,,,,,,,
,,,,,,,,,,,,,,,,,,,,,,,,,,,,,,,,,return,3.20856,164.16,702.5630019,4,0,4,0,1,5ed12d21e8cebc04aefac77c,60684b48bf2abe3d93bd1b67,2021-04-03_13h13.23.425,Colour_Similarity_Experiment,2020.2.10,Win32,60,60674ec340277cd6a308bc9f,21.43407216,16.80773423,16.68064232,16.68223214,16.68201158,16.68223214,,,,,,,,,,,,,,,,,,,,,,,,,,,,,,,,,,,,,,,,,,,,,,,,,,,,,,,,,,,,,,,,,,,,,,,,,,,,,,,,,,,,,,,,,,,,,,,,,,,,,,,,,,,,,,,,,,
,,,,,,,,,,,,,,,,,,,,,,,,,,,,,,,,,,,,,,,,,,5ed12d21e8cebc04aefac77c,60684b48bf2abe3d93bd1b67,2021-04-03_13h13.23.425,Colour_Similarity_Experiment,2020.2.10,Win32,60,60674ec340277cd6a308bc9f,21.43407216,16.80773423,16.68064232,16.68223214,16.68201158,16.68223214,71,12.39309167,66.55090225,443.6726817,44.36726817,199.6527068,space,5.299805,space,22.15923,space,39.73175,space,14.271935,space,1.660655,space,4.25596,5,PF,weak,3,85,48,1,0,0,response1disk_5,6,6,10.10979,6,-1,1,0,0,rectangle_8,6,-1,1,0,0,3,6,-1,1,0,0,0,0,0,6,1,,,,,,,,,,,,,,,,,,,,,,,,,,,,,,,,,,,,,,,,,,,,,,,,,,,,,,,,,,,,,
,,,,,,,,,,,,,,,,,,,,,,,,,,,,,,,,,,,,,,,,,,5ed12d21e8cebc04aefac77c,60684b48bf2abe3d93bd1b67,2021-04-03_13h13.23.425,Colour_Similarity_Experiment,2020.2.10,Win32,60,60674ec340277cd6a308bc9f,21.43407216,16.80773423,16.68064232,16.68223214,16.68201158,16.68223214,,,,,,,,,,,,,,,,,,,2,PF,weak,3,-53,-42,1,0,0,response5disk_5,8,2,6.59002,9,-7,1,0,0,rectangle_8,-37,-97,1,0,0,3,1,-7,1,0,0,0,1,1,1,1,response5disk_7,3,rectangle_4,,,,,,,,,,,,,,,,,,,,,,,,,,,,,,,,,,,,,,,,,,,,,,,,,,,,,,,,,,
,,,,,,,,,,,,,,,,,,,,,,,,,,,,,,,,,,,,,,,,,,5ed12d21e8cebc04aefac77c,60684b48bf2abe3d93bd1b67,2021-04-03_13h13.23.425,Colour_Similarity_Experiment,2020.2.10,Win32,60,60674ec340277cd6a308bc9f,21.43407216,16.80773423,16.68064232,16.68223214,16.68201158,16.68223214,,,,,,,,,,,,,,,,,,,2,PF,weak,3,90,48,1,0,0,response1disk_5,3,6,9.25915,18,-1,1,0,0,rectangle_8,-46,-92,1,0,0,3,-9,3,1,0,0,0,2,2,5,1,response5disk_7,3,rectangle_4,,,,,,,,,,,,,,,,,,,,,,,,,,,,,,,,,,,,,,,,,,,,,,,,,,,,,,,,,,
,,,,,,,,,,,,,,,,,,,,,,,,,,,,,,,,,,,,,,,,,,5ed12d21e8cebc04aefac77c,60684b48bf2abe3d93bd1b67,2021-04-03_13h13.23.425,Colour_Similarity_Experiment,2020.2.10,Win32,60,60674ec340277cd6a308bc9f,21.43407216,16.80773423,16.68064232,16.68223214,16.68201158,16.68223214,,,,,,,,,,,,,,,,,,,4,PF,strong,3,-29,-63,1,0,0,response5disk_5,5,3,6.356455,-11,-1,1,0,0,rectangle_8,-11,-1,1,0,0,3,-11,-1,1,0,0,0,3,3,2,1,,,,,,,,,,,,,,,,,,,,,,,,,,,,,,,,,,,,,,,,,,,,,,,,,,,,,,,,,,,,,
,,,,,,,,,,,,,,,,,,,,,,,,,,,,,,,,,,,,,,,,,,5ed12d21e8cebc04aefac77c,60684b48bf2abe3d93bd1b67,2021-04-03_13h13.23.425,Colour_Similarity_Experiment,2020.2.10,Win32,60,60674ec340277cd6a308bc9f,21.43407216,16.80773423,16.68064232,16.68223214,16.68201158,16.68223214,,,,,,,,,,,,,,,,,,,7,PF,strong,3,-36,-74,1,0,0,response5disk_5,1,3,10.360645,-21,-5,1,0,0,rectangle_8,-21,-5,1,0,0,3,-21,-5,1,0,0,0,4,4,3,1,,,,,,,,,,,,,,,,,,,,,,,,,,,,,,,,,,,,,,,,,,,,,,,,,,,,,,,,,,,,,
,,,,,,,,,,,,,,,,,,,,,,,,,,,,,,,,,,,,,,,,,,5ed12d21e8cebc04aefac77c,60684b48bf2abe3d93bd1b67,2021-04-03_13h13.23.425,Colour_Similarity_Experiment,2020.2.10,Win32,60,60674ec340277cd6a308bc9f,21.43407216,16.80773423,16.68064232,16.68223214,16.68201158,16.68223214,,,,,,,,,,,,,,,,,,,5,PF,strong,3,-82,-44,1,0,0,response5disk_5,7,2,5.438825,5,-7,1,0,0,rectangle_8,5,-7,1,0,0,3,5,-7,1,0,0,0,5,5,0,1,,,,,,,,,,,,,,,,,,,,,,,,,,,,,,,,,,,,,,,,,,,,,,,,,,,,,,,,,,,,,
,,,,,,,,,,,,,,,,,,,,,,,,,,,,,,,,,,,,,,,,,,5ed12d21e8cebc04aefac77c,60684b48bf2abe3d93bd1b67,2021-04-03_13h13.23.425,Colour_Similarity_Experiment,2020.2.10,Win32,60,60674ec340277cd6a308bc9f,21.43407216,16.80773423,16.68064232,16.68223214,16.68201158,16.68223214,,,,,,,,,,,,,,,,,,,6,PF,weak,3,-73,46,1,0,0,response7disk_5,6,1,3.0364,-10,-6,1,0,0,rectangle_8,-10,-6,1,0,0,3,-10,-6,1,0,0,0,6,6,4,1,,,,,,,,,,,,,,,,,,,,,,,,,,,,,,,,,,,,,,,,,,,,,,,,,,,,,,,,,,,,,
,,,,,,,,,,,,,,,,,,,,,,,,,,,,,,,,,,,,,,,,,,5ed12d21e8cebc04aefac77c,60684b48bf2abe3d93bd1b67,2021-04-03_13h13.23.425,Colour_Similarity_Experiment,2020.2.10,Win32,60,60674ec340277cd6a308bc9f,21.43407216,16.80773423,16.68064232,16.68223214,16.68201158,16.68223214,,,,,,,,,,,,,,,,,,,,PF,strong,3,,,,,,,,3,2.935855,,,,,,,,,,,,,,,,,,,,,,,,,,space,91.29355,9,strong,-43,-89,1,0,0,response5disk,9,1,-6,0,1,0,0,rectangle,-6,0,1,0,0,,4,0.00101,-6,0,1,0,0,0,0,0,17,1,0,,,,,,,,,,,,,,,,,,,,,
,,,,,,,,,,,,,,,,,,,,,,,,,,,,,,,,,,,,,,,,,,5ed12d21e8cebc04aefac77c,60684b48bf2abe3d93bd1b67,2021-04-03_13h13.23.425,Colour_Similarity_Experiment,2020.2.10,Win32,60,60674ec340277cd6a308bc9f,21.43407216,16.80773423,16.68064232,16.68223214,16.68201158,16.68223214,,,,,,,,,,,,,,,,,,,,PF,weak,3,,,,,,,,6,10.243665,,,,,,,,,,,,,,,,,,,,,,,,,,,,5,weak,99,29,1,0,0,response1disk,1,2,-2,-8,1,0,0,rectangle,-95,-39,1,0,0,,2,2.569135,-17,0,1,0,0,0,1,1,159,1,1,response5disk_3,rectangle,,,,,,,,,,,,,,,,,,,
,,,,,,,,,,,,,,,,,,,,,,,,,,,,,,,,,,,,,,,,,,5ed12d21e8cebc04aefac77c,60684b48bf2abe3d93bd1b67,2021-04-03_13h13.23.425,Colour_Similarity_Experiment,2020.2.10,Win32,60,60674ec340277cd6a308bc9f,21.43407216,16.80773423,16.68064232,16.68223214,16.68201158,16.68223214,,,,,,,,,,,,,,,,,,,,PF,strong,3,,,,,,,,3,4.17091,,,,,,,,,,,,,,,,,,,,,,,,,,,,3,strong,-35,-82,1,0,0,response5disk,5,3,-3,-12,1,0,0,rectangle,-3,-12,1,0,0,,0,0.00061,-3,-12,1,0,0,0,2,2,101,1,0,,,,,,,,,,,,,,,,,,,,,
,,,,,,,,,,,,,,,,,,,,,,,,,,,,,,,,,,,,,,,,,,5ed12d21e8cebc04aefac77c,60684b48bf2abe3d93bd1b67,2021-04-03_13h13.23.425,Colour_Similarity_Experiment,2020.2.10,Win32,60,60674ec340277cd6a308bc9f,21.43407216,16.80773423,16.68064232,16.68223214,16.68201158,16.68223214,,,,,,,,,,,,,,,,,,,,PF,strong,3,,,,,,,,6,2.453635,,,,,,,,,,,,,,,,,,,,,,,,,,,,4,strong,87,34,1,0,0,response1disk,4,4,10,-4,1,0,0,rectangle,10,-4,1,0,0,,4,0.000605,10,-4,1,0,0,0,3,3,84,1,0,,,,,,,,,,,,,,,,,,,,,
,,,,,,,,,,,,,,,,,,,,,,,,,,,,,,,,,,,,,,,,,,5ed12d21e8cebc04aefac77c,60684b48bf2abe3d93bd1b67,2021-04-03_13h13.23.425,Colour_Similarity_Experiment,2020.2.10,Win32,60,60674ec340277cd6a308bc9f,21.43407216,16.80773423,16.68064232,16.68223214,16.68201158,16.68223214,,,,,,,,,,,,,,,,,,,,PF,strong,3,,,,,,,,3,6.589945,,,,,,,,,,,,,,,,,,,,,,,,,,,,9,strong,-22,-47,1,0,0,response5disk,8,5,-20,-8,1,0,0,rectangle,-20,-8,1,0,0,,6,0.000545,-20,-8,1,0,0,0,4,4,6,1,0,,,,,,,,,,,,,,,,,,,,,
,,,,,,,,,,,,,,,,,,,,,,,,,,,,,,,,,,,,,,,,,,5ed12d21e8cebc04aefac77c,60684b48bf2abe3d93bd1b67,2021-04-03_13h13.23.425,Colour_Similarity_Experiment,2020.2.10,Win32,60,60674ec340277cd6a308bc9f,21.43407216,16.80773423,16.68064232,16.68223214,16.68201158,16.68223214,,,,,,,,,,,,,,,,,,,,PF,weak,3,,,,,,,,0,4.337655,,,,,,,,,,,,,,,,,,,,,,,,,,,,3,weak,-51,64,1,0,0,response7disk,7,6,-26,-2,1,0,0,rectangle,-26,-2,1,0,0,,6,9.5E-05,-26,-2,1,0,0,0,5,5,41,1,0,,,,,,,,,,,,,,,,,,,,,
,,,,,,,,,,,,,,,,,,,,,,,,,,,,,,,,,,,,,,,,,,5ed12d21e8cebc04aefac77c,60684b48bf2abe3d93bd1b67,2021-04-03_13h13.23.425,Colour_Similarity_Experiment,2020.2.10,Win32,60,60674ec340277cd6a308bc9f,21.43407216,16.80773423,16.68064232,16.68223214,16.68201158,16.68223214,,,,,,,,,,,,,,,,,,,,PF,weak,3,,,,,,,,1,12.162255,,,,,,,,,,,,,,,,,,,,,,,,,,,,1,weak,-93,38,1,0,0,response7disk,4,7,-22,12,1,0,0,rectangle,-22,12,1,0,0,,7,0.00056,-22,12,1,0,0,0,6,6,139,1,0,,,,,,,,,,,,,,,,,,,,,
,,,,,,,,,,,,,,,,,,,,,,,,,,,,,,,,,,,,,,,,,,5ed12d21e8cebc04aefac77c,60684b48bf2abe3d93bd1b67,2021-04-03_13h13.23.425,Colour_Similarity_Experiment,2020.2.10,Win32,60,60674ec340277cd6a308bc9f,21.43407216,16.80773423,16.68064232,16.68223214,16.68201158,16.68223214,,,,,,,,,,,,,,,,,,,,PF,strong,3,,,,,,,,2,9.426085,,,,,,,,,,,,,,,,,,,,,,,,,,,,3,strong,-61,-49,1,0,0,response5disk,1,8,-15,10,1,0,0,rectangle,-15,10,1,0,0,,0,0.000555,-15,10,1,0,0,0,7,7,125,1,0,,,,,,,,,,,,,,,,,,,,,
,,,,,,,,,,,,,,,,,,,,,,,,,,,,,,,,,,,,,,,,,,5ed12d21e8cebc04aefac77c,60684b48bf2abe3d93bd1b67,2021-04-03_13h13.23.425,Colour_Similarity_Experiment,2020.2.10,Win32,60,60674ec340277cd6a308bc9f,21.43407216,16.80773423,16.68064232,16.68223214,16.68201158,16.68223214,,,,,,,,,,,,,,,,,,,,PF,strong,3,,,,,,,,1,2.686025,,,,,,,,,,,,,,,,,,,,,,,,,,,,8,strong,-77,49,1,0,0,response7disk,6,9,-47,9,1,0,0,rectangle,-47,9,1,0,0,,7,0.000605,-47,9,1,0,0,0,8,8,37,1,0,,,,,,,,,,,,,,,,,,,,,
,,,,,,,,,,,,,,,,,,,,,,,,,,,,,,,,,,,,,,,,,,5ed12d21e8cebc04aefac77c,60684b48bf2abe3d93bd1b67,2021-04-03_13h13.23.425,Colour_Similarity_Experiment,2020.2.10,Win32,60,60674ec340277cd6a308bc9f,21.43407216,16.80773423,16.68064232,16.68223214,16.68201158,16.68223214,,,,,,,,,,,,,,,,,,,,PF,strong,3,,,,,,,,4,4.220845,,,,,,,,,,,,,,,,,,,,,,,,,,,,6,strong,28,-69,1,0,0,response3disk,2,10,3,-11,1,0,0,rectangle,3,-11,1,0,0,,3,0.000605,3,-11,1,0,0,0,9,9,112,1,0,,,,,,,,,,,,,,,,,,,,,
,,,,,,,,,,,,,,,,,,,,,,,,,,,,,,,,,,,,,,,,,,5ed12d21e8cebc04aefac77c,60684b48bf2abe3d93bd1b67,2021-04-03_13h13.23.425,Colour_Similarity_Experiment,2020.2.10,Win32,60,60674ec340277cd6a308bc9f,21.43407216,16.80773423,16.68064232,16.68223214,16.68201158,16.68223214,,,,,,,,,,,,,,,,,,,,PF,strong,3,,,,,,,,6,1.86862,,,,,,,,,,,,,,,,,,,,,,,,,,,,5,strong,80,42,1,0,0,response1disk,5,11,32,-3,1,0,0,rectangle,32,-3,1,0,0,,1,0.00057,32,-3,1,0,0,0,10,10,19,1,0,,,,,,,,,,,,,,,,,,,,,
,,,,,,,,,,,,,,,,,,,,,,,,,,,,,,,,,,,,,,,,,,5ed12d21e8cebc04aefac77c,60684b48bf2abe3d93bd1b67,2021-04-03_13h13.23.425,Colour_Similarity_Experiment,2020.2.10,Win32,60,60674ec340277cd6a308bc9f,21.43407216,16.80773423,16.68064232,16.68223214,16.68201158,16.68223214,,,,,,,,,,,,,,,,,,,,PF,weak,3,,,,,,,,0,4.13734,,,,,,,,,,,,,,,,,,,,,,,,,,,,2,weak,-57,80,1,0,0,response7disk,7,12,-30,18,1,0,0,rectangle,-30,18,1,0,0,1,3,0.000565,-30,18,1,0,0,0,11,11,107,1,0,,,,,,,,,,,,,,,,,,,,,
,,,,,,,,,,,,,,,,,,,,,,,,,,,,,,,,,,,,,,,,,,5ed12d21e8cebc04aefac77c,60684b48bf2abe3d93bd1b67,2021-04-03_13h13.23.425,Colour_Similarity_Experiment,2020.2.10,Win32,60,60674ec340277cd6a308bc9f,21.43407216,16.80773423,16.68064232,16.68223214,16.68201158,16.68223214,,,,,,,,,,,,,,,,,,,,PF,weak,3,,,,,,,,1,7.20717,,,,,,,,,,,,,,,,,,,,,,,,,,,,5,weak,-52,36,1,0,0,response7disk,8,13,-11,11,1,0,0,rectangle,-11,11,1,0,0,1,5,0.000545,-11,11,1,0,0,0,12,12,149,1,0,,,,,,,,,,,,,,,,,,,,,
,,,,,,,,,,,,,,,,,,,,,,,,,,,,,,,,,,,,,,,,,,5ed12d21e8cebc04aefac77c,60684b48bf2abe3d93bd1b67,2021-04-03_13h13.23.425,Colour_Similarity_Experiment,2020.2.10,Win32,60,60674ec340277cd6a308bc9f,21.43407216,16.80773423,16.68064232,16.68223214,16.68201158,16.68223214,,,,,,,,,,,,,,,,,,,,PF,weak,3,,,,,,,,1,6.673405,,,,,,,,,,,,,,,,,,,,,,,,,,,,3,weak,-83,31,1,0,0,response7disk,5,14,-22,-3,1,0,0,rectangle,-22,-3,1,0,0,1,6,0.000545,-22,-3,1,0,0,0,13,13,66,1,0,,,,,,,,,,,,,,,,,,,,,
,,,,,,,,,,,,,,,,,,,,,,,,,,,,,,,,,,,,,,,,,,5ed12d21e8cebc04aefac77c,60684b48bf2abe3d93bd1b67,2021-04-03_13h13.23.425,Colour_Similarity_Experiment,2020.2.10,Win32,60,60674ec340277cd6a308bc9f,21.43407216,16.80773423,16.68064232,16.68223214,16.68201158,16.68223214,,,,,,,,,,,,,,,,,,,,PF,strong,3,,,,,,,,2,20.337135,,,,,,,,,,,,,,,,,,,,,,,,,,,,8,strong,-58,-33,1,0,0,response5disk,1,15,-3,-6,1,0,0,rectangle,-3,-6,1,0,0,1,4,0.00055,-3,-6,1,0,0,0,14,14,20,1,0,,,,,,,,,,,,,,,,,,,,,
,,,,,,,,,,,,,,,,,,,,,,,,,,,,,,,,,,,,,,,,,,5ed12d21e8cebc04aefac77c,60684b48bf2abe3d93bd1b67,2021-04-03_13h13.23.425,Colour_Similarity_Experiment,2020.2.10,Win32,60,60674ec340277cd6a308bc9f,21.43407216,16.80773423,16.68064232,16.68223214,16.68201158,16.68223214,,,,,,,,,,,,,,,,,,,,PF,weak,3,,,,,,,,1,4.25425,,,,,,,,,,,,,,,,,,,,,,,,,,,,2,weak,-60,37,1,0,0,response7disk,9,16,-34,8,1,0,0,rectangle,-34,8,1,0,0,1,6,0.00077,-34,8,1,0,0,0,15,15,39,1,0,,,,,,,,,,,,,,,,,,,,,
,,,,,,,,,,,,,,,,,,,,,,,,,,,,,,,,,,,,,,,,,,5ed12d21e8cebc04aefac77c,60684b48bf2abe3d93bd1b67,2021-04-03_13h13.23.425,Colour_Similarity_Experiment,2020.2.10,Win32,60,60674ec340277cd6a308bc9f,21.43407216,16.80773423,16.68064232,16.68223214,16.68201158,16.68223214,,,,,,,,,,,,,,,,,,,,PF,weak,3,,,,,,,,2,4.087505,,,,,,,,,,,,,,,,,,,,,,,,,,,,8,weak,-104,-35,1,0,0,response5disk,2,17,-30,-10,1,0,0,rectangle,-30,-10,1,0,0,1,5,0.000575,-30,-10,1,0,0,0,16,16,83,1,0,,,,,,,,,,,,,,,,,,,,,
,,,,,,,,,,,,,,,,,,,,,,,,,,,,,,,,,,,,,,,,,,5ed12d21e8cebc04aefac77c,60684b48bf2abe3d93bd1b67,2021-04-03_13h13.23.425,Colour_Similarity_Experiment,2020.2.10,Win32,60,60674ec340277cd6a308bc9f,21.43407216,16.80773423,16.68064232,16.68223214,16.68201158,16.68223214,,,,,,,,,,,,,,,,,,,,PF,strong,3,,,,,,,,3,4.788315,,,,,,,,,,,,,,,,,,,,,,,,,,,,8,strong,-44,-89,1,0,0,response5disk,7,18,-15,-8,1,0,0,rectangle,-15,-8,1,0,0,1,1,0.000555,-15,-8,1,0,0,0,17,17,86,1,0,,,,,,,,,,,,,,,,,,,,,
,,,,,,,,,,,,,,,,,,,,,,,,,,,,,,,,,,,,,,,,,,5ed12d21e8cebc04aefac77c,60684b48bf2abe3d93bd1b67,2021-04-03_13h13.23.425,Colour_Similarity_Experiment,2020.2.10,Win32,60,60674ec340277cd6a308bc9f,21.43407216,16.80773423,16.68064232,16.68223214,16.68201158,16.68223214,,,,,,,,,,,,,,,,,,,,PF,strong,3,,,,,,,,6,2.75258,,,,,,,,,,,,,,,,,,,,,,,,,,,,4,strong,96,35,1,0,0,response1disk,5,19,21,7,1,0,0,rectangle,21,7,1,0,0,1,6,0.000595,21,7,1,0,0,0,18,18,116,1,0,,,,,,,,,,,,,,,,,,,,,
,,,,,,,,,,,,,,,,,,,,,,,,,,,,,,,,,,,,,,,,,,5ed12d21e8cebc04aefac77c,60684b48bf2abe3d93bd1b67,2021-04-03_13h13.23.425,Colour_Similarity_Experiment,2020.2.10,Win32,60,60674ec340277cd6a308bc9f,21.43407216,16.80773423,16.68064232,16.68223214,16.68201158,16.68223214,,,,,,,,,,,,,,,,,,,,PF,strong,3,,,,,,,,6,3.319795,,,,,,,,,,,,,,,,,,,,,,,,,,,,2,strong,86,36,1,0,0,response1disk,5,20,16,-8,1,0,0,rectangle,16,-8,1,0,0,1,7,0.00067,16,-8,1,0,0,0,19,19,80,1,0,,,,,,,,,,,,,,,,,,,,,
,,,,,,,,,,,,,,,,,,,,,,,,,,,,,,,,,,,,,,,,,,5ed12d21e8cebc04aefac77c,60684b48bf2abe3d93bd1b67,2021-04-03_13h13.23.425,Colour_Similarity_Experiment,2020.2.10,Win32,60,60674ec340277cd6a308bc9f,21.43407216,16.80773423,16.68064232,16.68223214,16.68201158,16.68223214,,,,,,,,,,,,,,,,,,,,PF,weak,3,,,,,,,,5,1.968875,,,,,,,,,,,,,,,,,,,,,,,,,,,,4,weak,80,-26,1,0,0,response3disk,5,21,8,2,1,0,0,rectangle,8,2,1,0,0,1,3,0.000555,8,2,1,0,0,0,20,20,49,1,0,,,,,,,,,,,,,,,,,,,,,
,,,,,,,,,,,,,,,,,,,,,,,,,,,,,,,,,,,,,,,,,,5ed12d21e8cebc04aefac77c,60684b48bf2abe3d93bd1b67,2021-04-03_13h13.23.425,Colour_Similarity_Experiment,2020.2.10,Win32,60,60674ec340277cd6a308bc9f,21.43407216,16.80773423,16.68064232,16.68223214,16.68201158,16.68223214,,,,,,,,,,,,,,,,,,,,PF,weak,3,,,,,,,,1,1.668405,,,,,,,,,,,,,,,,,,,,,,,,,,,,1,weak,-54,37,1,0,0,response7disk,8,22,13,16,1,0,0,rectangle,13,16,1,0,0,1,4,0.000565,13,16,1,0,0,0,21,21,65,1,0,,,,,,,,,,,,,,,,,,,,,
,,,,,,,,,,,,,,,,,,,,,,,,,,,,,,,,,,,,,,,,,,5ed12d21e8cebc04aefac77c,60684b48bf2abe3d93bd1b67,2021-04-03_13h13.23.425,Colour_Similarity_Experiment,2020.2.10,Win32,60,60674ec340277cd6a308bc9f,21.43407216,16.80773423,16.68064232,16.68223214,16.68201158,16.68223214,,,,,,,,,,,,,,,,,,,,PF,strong,3,,,,,,,,3,1.601635,,,,,,,,,,,,,,,,,,,,,,,,,,,,6,strong,-23,-59,1,0,0,response5disk,6,23,-9,-10,1,0,0,rectangle,-9,-10,1,0,0,1,6,0.000635,-9,-10,1,0,0,0,22,22,91,1,0,,,,,,,,,,,,,,,,,,,,,
,,,,,,,,,,,,,,,,,,,,,,,,,,,,,,,,,,,,,,,,,,5ed12d21e8cebc04aefac77c,60684b48bf2abe3d93bd1b67,2021-04-03_13h13.23.425,Colour_Similarity_Experiment,2020.2.10,Win32,60,60674ec340277cd6a308bc9f,21.43407216,16.80773423,16.68064232,16.68223214,16.68201158,16.68223214,,,,,,,,,,,,,,,,,,,,PF,strong,3,,,,,,,,4,2.202285,,,,,,,,,,,,,,,,,,,,,,,,,,,,8,strong,38,-73,1,0,0,response3disk,3,24,19,-1,1,0,0,rectangle,19,-1,1,0,0,1,7,0.00056,19,-1,1,0,0,0,23,23,154,1,0,,,,,,,,,,,,,,,,,,,,,
,,,,,,,,,,,,,,,,,,,,,,,,,,,,,,,,,,,,,,,,,,5ed12d21e8cebc04aefac77c,60684b48bf2abe3d93bd1b67,2021-04-03_13h13.23.425,Colour_Similarity_Experiment,2020.2.10,Win32,60,60674ec340277cd6a308bc9f,21.43407216,16.80773423,16.68064232,16.68223214,16.68201158,16.68223214,,,,,,,,,,,,,,,,,,,,PF,strong,3,,,,,,,,1,2.052005,,,,,,,,,,,,,,,,,,,,,,,,,,,,3,strong,-70,34,1,0,0,response7disk,8,25,-12,0,1,0,0,rectangle,-12,0,1,0,0,1,5,0.000585,-12,0,1,0,0,0,24,24,44,1,0,,,,,,,,,,,,,,,,,,,,,
,,,,,,,,,,,,,,,,,,,,,,,,,,,,,,,,,,,,,,,,,,5ed12d21e8cebc04aefac77c,60684b48bf2abe3d93bd1b67,2021-04-03_13h13.23.425,Colour_Similarity_Experiment,2020.2.10,Win32,60,60674ec340277cd6a308bc9f,21.43407216,16.80773423,16.68064232,16.68223214,16.68201158,16.68223214,,,,,,,,,,,,,,,,,,,,PF,weak,3,,,,,,,,1,2.68593,,,,,,,,,,,,,,,,,,,,,,,,,,,,8,weak,-67,28,1,0,0,response7disk,6,26,4,-5,1,0,0,rectangle,97,36,1,0,0,6,6,1.7189,20,-17,1,0,0,0,25,25,161,1,1,response1disk_3,rectangle,,,,,,,,,,,,,,,,,,,
,,,,,,,,,,,,,,,,,,,,,,,,,,,,,,,,,,,,,,,,,,5ed12d21e8cebc04aefac77c,60684b48bf2abe3d93bd1b67,2021-04-03_13h13.23.425,Colour_Similarity_Experiment,2020.2.10,Win32,60,60674ec340277cd6a308bc9f,21.43407216,16.80773423,16.68064232,16.68223214,16.68201158,16.68223214,,,,,,,,,,,,,,,,,,,,PF,strong,3,,,,,,,,2,22.189015,,,,,,,,,,,,,,,,,,,,,,,,,,,,3,strong,-67,-38,1,0,0,response5disk,7,27,1,6,1,0,0,rectangle,1,6,1,0,0,6,0,0.000575,1,6,1,0,0,0,26,26,118,1,0,,,,,,,,,,,,,,,,,,,,,
,,,,,,,,,,,,,,,,,,,,,,,,,,,,,,,,,,,,,,,,,,5ed12d21e8cebc04aefac77c,60684b48bf2abe3d93bd1b67,2021-04-03_13h13.23.425,Colour_Similarity_Experiment,2020.2.10,Win32,60,60674ec340277cd6a308bc9f,21.43407216,16.80773423,16.68064232,16.68223214,16.68201158,16.68223214,,,,,,,,,,,,,,,,,,,,PF,strong,3,,,,,,,,2,1.23451,,,,,,,,,,,,,,,,,,,,,,,,,,,,1,strong,-88,-34,1,0,0,response5disk,6,28,-32,-2,1,0,0,rectangle,-32,-2,1,0,0,6,3,0.000545,-32,-2,1,0,0,0,27,27,58,1,0,,,,,,,,,,,,,,,,,,,,,
,,,,,,,,,,,,,,,,,,,,,,,,,,,,,,,,,,,,,,,,,,5ed12d21e8cebc04aefac77c,60684b48bf2abe3d93bd1b67,2021-04-03_13h13.23.425,Colour_Similarity_Experiment,2020.2.10,Win32,60,60674ec340277cd6a308bc9f,21.43407216,16.80773423,16.68064232,16.68223214,16.68201158,16.68223214,,,,,,,,,,,,,,,,,,,,PF,strong,3,,,,,,,,7,6.65678,,,,,,,,,,,,,,,,,,,,,,,,,,,,2,strong,66,66,1,0,0,response1disk,7,29,39,7,1,0,0,rectangle,39,7,1,0,0,6,5,0.000835,39,7,1,0,0,0,28,28,63,1,0,,,,,,,,,,,,,,,,,,,,,
,,,,,,,,,,,,,,,,,,,,,,,,,,,,,,,,,,,,,,,,,,5ed12d21e8cebc04aefac77c,60684b48bf2abe3d93bd1b67,2021-04-03_13h13.23.425,Colour_Similarity_Experiment,2020.2.10,Win32,60,60674ec340277cd6a308bc9f,21.43407216,16.80773423,16.68064232,16.68223214,16.68201158,16.68223214,,,,,,,,,,,,,,,,,,,,PF,weak,3,,,,,,,,1,1.75176,,,,,,,,,,,,,,,,,,,,,,,,,,,,7,weak,-54,33,1,0,0,response7disk,4,30,26,-6,1,0,0,rectangle,26,-6,1,0,0,6,0,0.00064,26,-6,1,0,0,0,29,29,43,1,0,,,,,,,,,,,,,,,,,,,,,
,,,,,,,,,,,,,,,,,,,,,,,,,,,,,,,,,,,,,,,,,,5ed12d21e8cebc04aefac77c,60684b48bf2abe3d93bd1b67,2021-04-03_13h13.23.425,Colour_Similarity_Experiment,2020.2.10,Win32,60,60674ec340277cd6a308bc9f,21.43407216,16.80773423,16.68064232,16.68223214,16.68201158,16.68223214,,,,,,,,,,,,,,,,,,,,PF,strong,3,,,,,,,,4,2.45236,,,,,,,,,,,,,,,,,,,,,,,,,,,,1,strong,34,-72,1,0,0,response3disk,9,31,13,-12,1,0,0,rectangle,13,-12,1,0,0,6,0,8E-05,13,-12,1,0,0,0,30,30,123,1,0,,,,,,,,,,,,,,,,,,,,,
,,,,,,,,,,,,,,,,,,,,,,,,,,,,,,,,,,,,,,,,,,5ed12d21e8cebc04aefac77c,60684b48bf2abe3d93bd1b67,2021-04-03_13h13.23.425,Colour_Similarity_Experiment,2020.2.10,Win32,60,60674ec340277cd6a308bc9f,21.43407216,16.80773423,16.68064232,16.68223214,16.68201158,16.68223214,,,,,,,,,,,,,,,,,,,,PF,weak,3,,,,,,,,2,2.519285,,,,,,,,,,,,,,,,,,,,,,,,,,,,8,weak,-97,-48,1,0,0,response5disk,3,32,-23,-4,1,0,0,rectangle,-23,-4,1,0,0,6,4,0.00054,-23,-4,1,0,0,0,31,31,71,1,0,,,,,,,,,,,,,,,,,,,,,
,,,,,,,,,,,,,,,,,,,,,,,,,,,,,,,,,,,,,,,,,,5ed12d21e8cebc04aefac77c,60684b48bf2abe3d93bd1b67,2021-04-03_13h13.23.425,Colour_Similarity_Experiment,2020.2.10,Win32,60,60674ec340277cd6a308bc9f,21.43407216,16.80773423,16.68064232,16.68223214,16.68201158,16.68223214,,,,,,,,,,,,,,,,,,,,PF,strong,3,,,,,,,,2,1.68518,,,,,,,,,,,,,,,,,,,,,,,,,,,,8,strong,-59,-44,1,0,0,response5disk,4,33,16,2,1,0,0,rectangle,16,2,1,0,0,6,3,0.00056,16,2,1,0,0,0,32,32,88,1,0,,,,,,,,,,,,,,,,,,,,,
,,,,,,,,,,,,,,,,,,,,,,,,,,,,,,,,,,,,,,,,,,5ed12d21e8cebc04aefac77c,60684b48bf2abe3d93bd1b67,2021-04-03_13h13.23.425,Colour_Similarity_Experiment,2020.2.10,Win32,60,60674ec340277cd6a308bc9f,21.43407216,16.80773423,16.68064232,16.68223214,16.68201158,16.68223214,,,,,,,,,,,,,,,,,,,,PF,strong,3,,,,,,,,3,2.252265,,,,,,,,,,,,,,,,,,,,,,,,,,,,4,strong,-62,-67,1,0,0,response5disk,8,34,-16,-8,1,0,0,rectangle,-16,-8,1,0,0,6,0,0.001135,-16,-8,1,0,0,0,33,33,35,1,0,,,,,,,,,,,,,,,,,,,,,
,,,,,,,,,,,,,,,,,,,,,,,,,,,,,,,,,,,,,,,,,,5ed12d21e8cebc04aefac77c,60684b48bf2abe3d93bd1b67,2021-04-03_13h13.23.425,Colour_Similarity_Experiment,2020.2.10,Win32,60,60674ec340277cd6a308bc9f,21.43407216,16.80773423,16.68064232,16.68223214,16.68201158,16.68223214,,,,,,,,,,,,,,,,,,,,PF,strong,3,,,,,,,,2,1.117455,,,,,,,,,,,,,,,,,,,,,,,,,,,,2,strong,-45,-40,1,0,0,response5disk,2,35,-11,-6,1,0,0,rectangle,-11,-6,1,0,0,6,5,0.000595,-11,-6,1,0,0,0,34,34,142,1,0,,,,,,,,,,,,,,,,,,,,,
,,,,,,,,,,,,,,,,,,,,,,,,,,,,,,,,,,,,,,,,,,5ed12d21e8cebc04aefac77c,60684b48bf2abe3d93bd1b67,2021-04-03_13h13.23.425,Colour_Similarity_Experiment,2020.2.10,Win32,60,60674ec340277cd6a308bc9f,21.43407216,16.80773423,16.68064232,16.68223214,16.68201158,16.68223214,,,,,,,,,,,,,,,,,,,,PF,strong,3,,,,,,,,5,4.120745,,,,,,,,,,,,,,,,,,,,,,,,,,,,5,strong,82,-17,1,0,0,response3disk,3,36,46,-8,1,0,0,rectangle,46,-8,1,0,0,6,6,0.000585,46,-8,1,0,0,0,35,35,25,1,0,,,,,,,,,,,,,,,,,,,,,
,,,,,,,,,,,,,,,,,,,,,,,,,,,,,,,,,,,,,,,,,,5ed12d21e8cebc04aefac77c,60684b48bf2abe3d93bd1b67,2021-04-03_13h13.23.425,Colour_Similarity_Experiment,2020.2.10,Win32,60,60674ec340277cd6a308bc9f,21.43407216,16.80773423,16.68064232,16.68223214,16.68201158,16.68223214,,,,,,,,,,,,,,,,,,,,PF,weak,3,,,,,,,,1,1.468175,,,,,,,,,,,,,,,,,,,,,,,,,,,,5,weak,-62,31,1,0,0,response7disk,2,37,-16,7,1,0,0,rectangle,-16,7,1,0,0,6,3,0.000535,-16,7,1,0,0,0,36,36,129,1,0,,,,,,,,,,,,,,,,,,,,,
,,,,,,,,,,,,,,,,,,,,,,,,,,,,,,,,,,,,,,,,,,5ed12d21e8cebc04aefac77c,60684b48bf2abe3d93bd1b67,2021-04-03_13h13.23.425,Colour_Similarity_Experiment,2020.2.10,Win32,60,60674ec340277cd6a308bc9f,21.43407216,16.80773423,16.68064232,16.68223214,16.68201158,16.68223214,,,,,,,,,,,,,,,,,,,,PF,strong,3,,,,,,,,6,1.868625,,,,,,,,,,,,,,,,,,,,,,,,,,,,1,strong,65,24,1,0,0,response1disk,5,38,28,-1,1,0,0,rectangle,28,-1,1,0,0,6,3,8E-05,28,-1,1,0,0,0,37,37,82,1,0,,,,,,,,,,,,,,,,,,,,,
,,,,,,,,,,,,,,,,,,,,,,,,,,,,,,,,,,,,,,,,,,5ed12d21e8cebc04aefac77c,60684b48bf2abe3d93bd1b67,2021-04-03_13h13.23.425,Colour_Similarity_Experiment,2020.2.10,Win32,60,60674ec340277cd6a308bc9f,21.43407216,16.80773423,16.68064232,16.68223214,16.68201158,16.68223214,,,,,,,,,,,,,,,,,,,,PF,strong,3,,,,,,,,6,1.78504,,,,,,,,,,,,,,,,,,,,,,,,,,,,7,strong,61,39,1,0,0,response1disk,1,39,33,11,1,0,0,rectangle,33,11,1,0,0,6,7,0.000545,33,11,1,0,0,0,38,38,132,1,0,,,,,,,,,,,,,,,,,,,,,
,,,,,,,,,,,,,,,,,,,,,,,,,,,,,,,,,,,,,,,,,,5ed12d21e8cebc04aefac77c,60684b48bf2abe3d93bd1b67,2021-04-03_13h13.23.425,Colour_Similarity_Experiment,2020.2.10,Win32,60,60674ec340277cd6a308bc9f,21.43407216,16.80773423,16.68064232,16.68223214,16.68201158,16.68223214,,,,,,,,,,,,,,,,,,,,PF,weak,3,,,,,,,,6,2.069035,,,,,,,,,,,,,,,,,,,,,,,,,,,,8,weak,55,40,1,0,0,response1disk,7,40,35,4,1,0,0,rectangle,35,4,1,0,0,6,3,0.00062,35,4,1,0,0,0,39,39,23,1,0,,,,,,,,,,,,,,,,,,,,,
,,,,,,,,,,,,,,,,,,,,,,,,,,,,,,,,,,,,,,,,,,5ed12d21e8cebc04aefac77c,60684b48bf2abe3d93bd1b67,2021-04-03_13h13.23.425,Colour_Similarity_Experiment,2020.2.10,Win32,60,60674ec340277cd6a308bc9f,21.43407216,16.80773423,16.68064232,16.68223214,16.68201158,16.68223214,,,,,,,,,,,,,,,,,,,,PF,strong,3,,,,,,,,1,2.6026,,,,,,,,,,,,,,,,,,,,,,,,,,,,5,strong,-75,35,1,0,0,response7disk,9,41,-12,6,1,0,0,rectangle,-12,6,1,0,0,6,1,0.000595,-12,6,1,0,0,0,40,40,61,1,0,,,,,,,,,,,,,,,,,,,,,
,,,,,,,,,,,,,,,,,,,,,,,,,,,,,,,,,,,,,,,,,,5ed12d21e8cebc04aefac77c,60684b48bf2abe3d93bd1b67,2021-04-03_13h13.23.425,Colour_Similarity_Experiment,2020.2.10,Win32,60,60674ec340277cd6a308bc9f,21.43407216,16.80773423,16.68064232,16.68223214,16.68201158,16.68223214,,,,,,,,,,,,,,,,,,,,PF,strong,3,,,,,,,,6,28.29508,,,,,,,,,,,,,,,,,,,,,,,,,,,,5,strong,91,30,1,0,0,response1disk,4,42,27,11,1,0,0,rectangle,27,11,1,0,0,6,1,8E-05,27,11,1,0,0,0,41,41,8,1,0,,,,,,,,,,,,,,,,,,,,,
,,,,,,,,,,,,,,,,,,,,,,,,,,,,,,,,,,,,,,,,,,5ed12d21e8cebc04aefac77c,60684b48bf2abe3d93bd1b67,2021-04-03_13h13.23.425,Colour_Similarity_Experiment,2020.2.10,Win32,60,60674ec340277cd6a308bc9f,21.43407216,16.80773423,16.68064232,16.68223214,16.68201158,16.68223214,,,,,,,,,,,,,,,,,,,,PF,strong,3,,,,,,,,2,1.818635,,,,,,,,,,,,,,,,,,,,,,,,,,,,2,strong,-53,-23,1,0,0,response5disk,9,43,10,5,1,0,0,rectangle,10,5,1,0,0,6,7,0.000595,10,5,1,0,0,0,42,42,72,1,0,,,,,,,,,,,,,,,,,,,,,
,,,,,,,,,,,,,,,,,,,,,,,,,,,,,,,,,,,,,,,,,,5ed12d21e8cebc04aefac77c,60684b48bf2abe3d93bd1b67,2021-04-03_13h13.23.425,Colour_Similarity_Experiment,2020.2.10,Win32,60,60674ec340277cd6a308bc9f,21.43407216,16.80773423,16.68064232,16.68223214,16.68201158,16.68223214,,,,,,,,,,,,,,,,,,,,PF,weak,3,,,,,,,,0,2.452535,,,,,,,,,,,,,,,,,,,,,,,,,,,,4,weak,-41,83,1,0,0,response7disk,3,44,-19,9,1,0,0,rectangle,-19,9,1,0,0,6,4,0.00055,-19,9,1,0,0,0,43,43,89,1,0,,,,,,,,,,,,,,,,,,,,,
,,,,,,,,,,,,,,,,,,,,,,,,,,,,,,,,,,,,,,,,,,5ed12d21e8cebc04aefac77c,60684b48bf2abe3d93bd1b67,2021-04-03_13h13.23.425,Colour_Similarity_Experiment,2020.2.10,Win32,60,60674ec340277cd6a308bc9f,21.43407216,16.80773423,16.68064232,16.68223214,16.68201158,16.68223214,,,,,,,,,,,,,,,,,,,,PF,weak,3,,,,,,,,7,1.267645,,,,,,,,,,,,,,,,,,,,,,,,,,,,1,weak,66,70,1,0,0,response1disk,6,45,27,3,1,0,0,rectangle,27,3,1,0,0,6,2,0.00057,27,3,1,0,0,0,44,44,144,1,0,,,,,,,,,,,,,,,,,,,,,
,,,,,,,,,,,,,,,,,,,,,,,,,,,,,,,,,,,,,,,,,,5ed12d21e8cebc04aefac77c,60684b48bf2abe3d93bd1b67,2021-04-03_13h13.23.425,Colour_Similarity_Experiment,2020.2.10,Win32,60,60674ec340277cd6a308bc9f,21.43407216,16.80773423,16.68064232,16.68223214,16.68201158,16.68223214,,,,,,,,,,,,,,,,,,,,PF,strong,3,,,,,,,,6,1.251315,,,,,,,,,,,,,,,,,,,,,,,,,,,,4,strong,66,21,1,0,0,response1disk,6,46,39,-21,1,0,0,rectangle,39,-21,1,0,0,5,2,7.5E-05,39,-21,1,0,0,0,45,45,122,1,0,,,,,,,,,,,,,,,,,,,,,
,,,,,,,,,,,,,,,,,,,,,,,,,,,,,,,,,,,,,,,,,,5ed12d21e8cebc04aefac77c,60684b48bf2abe3d93bd1b67,2021-04-03_13h13.23.425,Colour_Similarity_Experiment,2020.2.10,Win32,60,60674ec340277cd6a308bc9f,21.43407216,16.80773423,16.68064232,16.68223214,16.68201158,16.68223214,,,,,,,,,,,,,,,,,,,,PF,weak,3,,,,,,,,7,3.253435,,,,,,,,,,,,,,,,,,,,,,,,,,,,8,weak,49,57,1,0,0,response1disk,5,47,22,10,1,0,0,rectangle,22,10,1,0,0,5,6,0.00067,22,10,1,0,0,0,46,46,98,1,0,,,,,,,,,,,,,,,,,,,,,
,,,,,,,,,,,,,,,,,,,,,,,,,,,,,,,,,,,,,,,,,,5ed12d21e8cebc04aefac77c,60684b48bf2abe3d93bd1b67,2021-04-03_13h13.23.425,Colour_Similarity_Experiment,2020.2.10,Win32,60,60674ec340277cd6a308bc9f,21.43407216,16.80773423,16.68064232,16.68223214,16.68201158,16.68223214,,,,,,,,,,,,,,,,,,,,PF,weak,3,,,,,,,,2,1.501465,,,,,,,,,,,,,,,,,,,,,,,,,,,,8,weak,-33,-24,1,0,0,response5disk,9,48,11,-8,1,0,0,rectangle,11,-8,1,0,0,5,2,0.00058,11,-8,1,0,0,0,47,47,42,1,0,,,,,,,,,,,,,,,,,,,,,
,,,,,,,,,,,,,,,,,,,,,,,,,,,,,,,,,,,,,,,,,,5ed12d21e8cebc04aefac77c,60684b48bf2abe3d93bd1b67,2021-04-03_13h13.23.425,Colour_Similarity_Experiment,2020.2.10,Win32,60,60674ec340277cd6a308bc9f,21.43407216,16.80773423,16.68064232,16.68223214,16.68201158,16.68223214,,,,,,,,,,,,,,,,,,,,PF,weak,3,,,,,,,,6,1.30138,,,,,,,,,,,,,,,,,,,,,,,,,,,,6,weak,77,23,1,0,0,response1disk,9,49,3,-17,1,0,0,rectangle,3,-17,1,0,0,5,5,0.00054,3,-17,1,0,0,0,48,48,45,1,0,,,,,,,,,,,,,,,,,,,,,
,,,,,,,,,,,,,,,,,,,,,,,,,,,,,,,,,,,,,,,,,,5ed12d21e8cebc04aefac77c,60684b48bf2abe3d93bd1b67,2021-04-03_13h13.23.425,Colour_Similarity_Experiment,2020.2.10,Win32,60,60674ec340277cd6a308bc9f,21.43407216,16.80773423,16.68064232,16.68223214,16.68201158,16.68223214,,,,,,,,,,,,,,,,,,,,PF,strong,3,,,,,,,,6,35.18544,,,,,,,,,,,,,,,,,,,,,,,,,,,,1,strong,81,52,1,0,0,response1disk,3,50,14,-8,1,0,0,rectangle,14,-8,1,0,0,5,4,0.00056,14,-8,1,0,0,0,49,49,99,1,0,,,,,,,,,,,,,,,,,,,,,
,,,,,,,,,,,,,,,,,,,,,,,,,,,,,,,,,,,,,,,,,,5ed12d21e8cebc04aefac77c,60684b48bf2abe3d93bd1b67,2021-04-03_13h13.23.425,Colour_Similarity_Experiment,2020.2.10,Win32,60,60674ec340277cd6a308bc9f,21.43407216,16.80773423,16.68064232,16.68223214,16.68201158,16.68223214,,,,,,,,,,,,,,,,,,,,PF,weak,3,,,,,,,,7,3.36997,,,,,,,,,,,,,,,,,,,,,,,,,,,,7,weak,29,61,1,0,0,response1disk,2,51,10,-1,1,0,0,rectangle,10,-1,1,0,0,5,2,0.00079,10,-1,1,0,0,0,50,50,32,1,0,,,,,,,,,,,,,,,,,,,,,
,,,,,,,,,,,,,,,,,,,,,,,,,,,,,,,,,,,,,,,,,,5ed12d21e8cebc04aefac77c,60684b48bf2abe3d93bd1b67,2021-04-03_13h13.23.425,Colour_Similarity_Experiment,2020.2.10,Win32,60,60674ec340277cd6a308bc9f,21.43407216,16.80773423,16.68064232,16.68223214,16.68201158,16.68223214,,,,,,,,,,,,,,,,,,,,PF,weak,3,,,,,,,,6,1.36812,,,,,,,,,,,,,,,,,,,,,,,,,,,,4,weak,65,47,1,0,0,response1disk,9,52,12,0,1,0,0,rectangle,12,0,1,0,0,5,0,0.00057,12,0,1,0,0,0,51,51,75,1,0,,,,,,,,,,,,,,,,,,,,,
,,,,,,,,,,,,,,,,,,,,,,,,,,,,,,,,,,,,,,,,,,5ed12d21e8cebc04aefac77c,60684b48bf2abe3d93bd1b67,2021-04-03_13h13.23.425,Colour_Similarity_Experiment,2020.2.10,Win32,60,60674ec340277cd6a308bc9f,21.43407216,16.80773423,16.68064232,16.68223214,16.68201158,16.68223214,,,,,,,,,,,,,,,,,,,,PF,strong,3,,,,,,,,3,1.35126,,,,,,,,,,,,,,,,,,,,,,,,,,,,6,strong,-26,-61,1,0,0,response5disk,1,53,24,15,1,0,0,rectangle,24,15,1,0,0,5,3,0.00055,24,15,1,0,0,0,52,52,5,1,0,,,,,,,,,,,,,,,,,,,,,
,,,,,,,,,,,,,,,,,,,,,,,,,,,,,,,,,,,,,,,,,,5ed12d21e8cebc04aefac77c,60684b48bf2abe3d93bd1b67,2021-04-03_13h13.23.425,Colour_Similarity_Experiment,2020.2.10,Win32,60,60674ec340277cd6a308bc9f,21.43407216,16.80773423,16.68064232,16.68223214,16.68201158,16.68223214,,,,,,,,,,,,,,,,,,,,PF,strong,3,,,,,,,,1,1.6684,,,,,,,,,,,,,,,,,,,,,,,,,,,,1,strong,-46,40,1,0,0,response7disk,1,54,-20,9,1,0,0,rectangle,-20,9,1,0,0,5,0,0.001115,-20,9,1,0,0,0,53,53,151,1,0,,,,,,,,,,,,,,,,,,,,,
,,,,,,,,,,,,,,,,,,,,,,,,,,,,,,,,,,,,,,,,,,5ed12d21e8cebc04aefac77c,60684b48bf2abe3d93bd1b67,2021-04-03_13h13.23.425,Colour_Similarity_Experiment,2020.2.10,Win32,60,60674ec340277cd6a308bc9f,21.43407216,16.80773423,16.68064232,16.68223214,16.68201158,16.68223214,,,,,,,,,,,,,,,,,,,,PF,weak,3,,,,,,,,6,1.46826,,,,,,,,,,,,,,,,,,,,,,,,,,,,2,weak,56,49,1,0,0,response1disk,5,55,39,-7,1,0,0,rectangle,39,-7,1,0,0,5,3,0.00056,39,-7,1,0,0,0,54,54,147,1,0,,,,,,,,,,,,,,,,,,,,,
,,,,,,,,,,,,,,,,,,,,,,,,,,,,,,,,,,,,,,,,,,5ed12d21e8cebc04aefac77c,60684b48bf2abe3d93bd1b67,2021-04-03_13h13.23.425,Colour_Similarity_Experiment,2020.2.10,Win32,60,60674ec340277cd6a308bc9f,21.43407216,16.80773423,16.68064232,16.68223214,16.68201158,16.68223214,,,,,,,,,,,,,,,,,,,,PF,strong,3,,,,,,,,6,1.13425,,,,,,,,,,,,,,,,,,,,,,,,,,,,1,strong,81,35,1,0,0,response1disk,2,56,38,-20,1,0,0,rectangle,38,-20,1,0,0,5,2,0.00056,38,-20,1,0,0,0,55,55,2,1,0,,,,,,,,,,,,,,,,,,,,,
,,,,,,,,,,,,,,,,,,,,,,,,,,,,,,,,,,,,,,,,,,5ed12d21e8cebc04aefac77c,60684b48bf2abe3d93bd1b67,2021-04-03_13h13.23.425,Colour_Similarity_Experiment,2020.2.10,Win32,60,60674ec340277cd6a308bc9f,21.43407216,16.80773423,16.68064232,16.68223214,16.68201158,16.68223214,,,,,,,,,,,,,,,,,,,,PF,strong,3,,,,,,,,6,1.617835,,,,,,,,,,,,,,,,,,,,,,,,,,,,3,strong,63,34,1,0,0,response1disk,6,57,-23,8,1,0,0,rectangle,-23,8,1,0,0,5,7,0.0006,-23,8,1,0,0,0,56,56,95,1,0,,,,,,,,,,,,,,,,,,,,,
,,,,,,,,,,,,,,,,,,,,,,,,,,,,,,,,,,,,,,,,,,5ed12d21e8cebc04aefac77c,60684b48bf2abe3d93bd1b67,2021-04-03_13h13.23.425,Colour_Similarity_Experiment,2020.2.10,Win32,60,60674ec340277cd6a308bc9f,21.43407216,16.80773423,16.68064232,16.68223214,16.68201158,16.68223214,,,,,,,,,,,,,,,,,,,,PF,strong,3,,,,,,,,2,1.70173,,,,,,,,,,,,,,,,,,,,,,,,,,,,7,strong,-48,-34,1,0,0,response5disk,7,58,-24,-18,1,0,0,rectangle,-24,-18,1,0,0,5,0,0.000525,-24,-18,1,0,0,0,57,57,34,1,0,,,,,,,,,,,,,,,,,,,,,
,,,,,,,,,,,,,,,,,,,,,,,,,,,,,,,,,,,,,,,,,,5ed12d21e8cebc04aefac77c,60684b48bf2abe3d93bd1b67,2021-04-03_13h13.23.425,Colour_Similarity_Experiment,2020.2.10,Win32,60,60674ec340277cd6a308bc9f,21.43407216,16.80773423,16.68064232,16.68223214,16.68201158,16.68223214,,,,,,,,,,,,,,,,,,,,PF,strong,3,,,,,,,,1,1.10108,,,,,,,,,,,,,,,,,,,,,,,,,,,,7,strong,-67,36,1,0,0,response7disk,9,59,-23,8,1,0,0,rectangle,-23,8,1,0,0,5,7,0.00055,-23,8,1,0,0,0,58,58,155,1,0,,,,,,,,,,,,,,,,,,,,,
,,,,,,,,,,,,,,,,,,,,,,,,,,,,,,,,,,,,,,,,,,5ed12d21e8cebc04aefac77c,60684b48bf2abe3d93bd1b67,2021-04-03_13h13.23.425,Colour_Similarity_Experiment,2020.2.10,Win32,60,60674ec340277cd6a308bc9f,21.43407216,16.80773423,16.68064232,16.68223214,16.68201158,16.68223214,,,,,,,,,,,,,,,,,,,,PF,weak,3,,,,,,,,6,1.35143,,,,,,,,,,,,,,,,,,,,,,,,,,,,4,weak,72,46,1,0,0,response1disk,2,60,28,15,1,0,0,rectangle,28,15,1,0,0,5,0,0.000585,28,15,1,0,0,0,59,59,108,1,0,,,,,,,,,,,,,,,,,,,,,
,,,,,,,,,,,,,,,,,,,,,,,,,,,,,,,,,,,,,,,,,,5ed12d21e8cebc04aefac77c,60684b48bf2abe3d93bd1b67,2021-04-03_13h13.23.425,Colour_Similarity_Experiment,2020.2.10,Win32,60,60674ec340277cd6a308bc9f,21.43407216,16.80773423,16.68064232,16.68223214,16.68201158,16.68223214,,,,,,,,,,,,,,,,,,,,PF,weak,3,,,,,,,,3,1.651625,,,,,,,,,,,,,,,,,,,,,,,,,,,,7,weak,-42,-62,1,0,0,response5disk,5,61,-8,-21,1,0,0,rectangle,-8,-21,1,0,0,5,6,0.00057,-8,-21,1,0,0,0,60,60,92,1,0,,,,,,,,,,,,,,,,,,,,,
,,,,,,,,,,,,,,,,,,,,,,,,,,,,,,,,,,,,,,,,,,5ed12d21e8cebc04aefac77c,60684b48bf2abe3d93bd1b67,2021-04-03_13h13.23.425,Colour_Similarity_Experiment,2020.2.10,Win32,60,60674ec340277cd6a308bc9f,21.43407216,16.80773423,16.68064232,16.68223214,16.68201158,16.68223214,,,,,,,,,,,,,,,,,,,,PF,weak,3,,,,,,,,6,2.11882,,,,,,,,,,,,,,,,,,,,,,,,,,,,8,weak,65,57,1,0,0,response1disk,4,62,14,10,1,0,0,rectangle,14,10,1,0,0,5,3,0.00054,14,10,1,0,0,0,61,61,78,1,0,,,,,,,,,,,,,,,,,,,,,
,,,,,,,,,,,,,,,,,,,,,,,,,,,,,,,,,,,,,,,,,,5ed12d21e8cebc04aefac77c,60684b48bf2abe3d93bd1b67,2021-04-03_13h13.23.425,Colour_Similarity_Experiment,2020.2.10,Win32,60,60674ec340277cd6a308bc9f,21.43407216,16.80773423,16.68064232,16.68223214,16.68201158,16.68223214,,,,,,,,,,,,,,,,,,,,PF,strong,3,,,,,,,,1,1.13441,,,,,,,,,,,,,,,,,,,,,,,,,,,,1,strong,-82,52,1,0,0,response7disk,8,63,-9,-6,1,0,0,rectangle,-9,-6,1,0,0,5,0,0.00054,-9,-6,1,0,0,0,62,62,27,1,0,,,,,,,,,,,,,,,,,,,,,
,,,,,,,,,,,,,,,,,,,,,,,,,,,,,,,,,,,,,,,,,,5ed12d21e8cebc04aefac77c,60684b48bf2abe3d93bd1b67,2021-04-03_13h13.23.425,Colour_Similarity_Experiment,2020.2.10,Win32,60,60674ec340277cd6a308bc9f,21.43407216,16.80773423,16.68064232,16.68223214,16.68201158,16.68223214,,,,,,,,,,,,,,,,,,,,PF,weak,3,,,,,,,,1,1.1679,,,,,,,,,,,,,,,,,,,,,,,,,,,,9,weak,-47,28,1,0,0,response7disk,2,64,-10,-10,1,0,0,rectangle,-10,-10,1,0,0,5,2,0.00057,-10,-10,1,0,0,0,63,63,157,1,0,,,,,,,,,,,,,,,,,,,,,
,,,,,,,,,,,,,,,,,,,,,,,,,,,,,,,,,,,,,,,,,,5ed12d21e8cebc04aefac77c,60684b48bf2abe3d93bd1b67,2021-04-03_13h13.23.425,Colour_Similarity_Experiment,2020.2.10,Win32,60,60674ec340277cd6a308bc9f,21.43407216,16.80773423,16.68064232,16.68223214,16.68201158,16.68223214,,,,,,,,,,,,,,,,,,,,PF,weak,3,,,,,,,,7,1.201275,,,,,,,,,,,,,,,,,,,,,,,,,,,,1,weak,50,78,1,0,0,response1disk,2,65,37,8,1,0,0,rectangle,37,8,1,0,0,5,7,0.000535,37,8,1,0,0,0,64,64,24,1,0,,,,,,,,,,,,,,,,,,,,,
,,,,,,,,,,,,,,,,,,,,,,,,,,,,,,,,,,,,,,,,,,5ed12d21e8cebc04aefac77c,60684b48bf2abe3d93bd1b67,2021-04-03_13h13.23.425,Colour_Similarity_Experiment,2020.2.10,Win32,60,60674ec340277cd6a308bc9f,21.43407216,16.80773423,16.68064232,16.68223214,16.68201158,16.68223214,,,,,,,,,,,,,,,,,,,,PF,strong,3,,,,,,,,1,1.768445,,,,,,,,,,,,,,,,,,,,,,,,,,,,9,strong,-83,31,1,0,0,response7disk,7,66,-23,-20,1,0,0,rectangle,-23,-20,1,0,0,5,7,8.5E-05,-23,-20,1,0,0,0,65,65,100,1,0,,,,,,,,,,,,,,,,,,,,,
,,,,,,,,,,,,,,,,,,,,,,,,,,,,,,,,,,,,,,,,,,5ed12d21e8cebc04aefac77c,60684b48bf2abe3d93bd1b67,2021-04-03_13h13.23.425,Colour_Similarity_Experiment,2020.2.10,Win32,60,60674ec340277cd6a308bc9f,21.43407216,16.80773423,16.68064232,16.68223214,16.68201158,16.68223214,,,,,,,,,,,,,,,,,,,,PF,weak,3,,,,,,,,6,1.851235,,,,,,,,,,,,,,,,,,,,,,,,,,,,7,weak,63,42,1,0,0,response1disk,1,67,3,19,1,0,0,rectangle,3,19,1,0,0,5,6,0.000535,3,19,1,0,0,0,66,66,53,1,0,,,,,,,,,,,,,,,,,,,,,
,,,,,,,,,,,,,,,,,,,,,,,,,,,,,,,,,,,,,,,,,,5ed12d21e8cebc04aefac77c,60684b48bf2abe3d93bd1b67,2021-04-03_13h13.23.425,Colour_Similarity_Experiment,2020.2.10,Win32,60,60674ec340277cd6a308bc9f,21.43407216,16.80773423,16.68064232,16.68223214,16.68201158,16.68223214,,,,,,,,,,,,,,,,,,,,PF,strong,3,,,,,,,,1,1.23461,,,,,,,,,,,,,,,,,,,,,,,,,,,,5,strong,-65,28,1,0,0,response7disk,2,68,1,10,1,0,0,rectangle,-98,-58,1,0,0,5,2,1.46843,-20,-7,1,0,0,0,67,67,55,1,1,response5disk_3,rectangle,,,,,,,,,,,,,,,,,,,
,,,,,,,,,,,,,,,,,,,,,,,,,,,,,,,,,,,,,,,,,,5ed12d21e8cebc04aefac77c,60684b48bf2abe3d93bd1b67,2021-04-03_13h13.23.425,Colour_Similarity_Experiment,2020.2.10,Win32,60,60674ec340277cd6a308bc9f,21.43407216,16.80773423,16.68064232,16.68223214,16.68201158,16.68223214,,,,,,,,,,,,,,,,,,,,PF,weak,3,,,,,,,,2,2.86953,,,,,,,,,,,,,,,,,,,,,,,,,,,,7,weak,-107,-34,1,0,0,response5disk,8,69,-26,11,1,0,0,rectangle,-26,11,1,0,0,5,2,7.5E-05,-26,11,1,0,0,0,68,68,140,1,0,,,,,,,,,,,,,,,,,,,,,
,,,,,,,,,,,,,,,,,,,,,,,,,,,,,,,,,,,,,,,,,,5ed12d21e8cebc04aefac77c,60684b48bf2abe3d93bd1b67,2021-04-03_13h13.23.425,Colour_Similarity_Experiment,2020.2.10,Win32,60,60674ec340277cd6a308bc9f,21.43407216,16.80773423,16.68064232,16.68223214,16.68201158,16.68223214,,,,,,,,,,,,,,,,,,,,PF,weak,3,,,,,,,,7,1.20145,,,,,,,,,,,,,,,,,,,,,,,,,,,,1,weak,55,77,1,0,0,response1disk,1,70,12,8,1,0,0,rectangle,-39,-92,1,0,0,3,3,1.485945,7,-11,1,0,0,0,69,69,76,1,1,response5disk_3,rectangle,,,,,,,,,,,,,,,,,,,
,,,,,,,,,,,,,,,,,,,,,,,,,,,,,,,,,,,,,,,,,,5ed12d21e8cebc04aefac77c,60684b48bf2abe3d93bd1b67,2021-04-03_13h13.23.425,Colour_Similarity_Experiment,2020.2.10,Win32,60,60674ec340277cd6a308bc9f,21.43407216,16.80773423,16.68064232,16.68223214,16.68201158,16.68223214,,,,,,,,,,,,,,,,,,,,PF,weak,3,,,,,,,,2,1.535255,,,,,,,,,,,,,,,,,,,,,,,,,,,,6,weak,-59,-45,1,0,0,response5disk,4,71,6,13,1,0,0,rectangle,6,13,1,0,0,3,3,0.0001,6,13,1,0,0,0,70,70,33,1,0,,,,,,,,,,,,,,,,,,,,,
,,,,,,,,,,,,,,,,,,,,,,,,,,,,,,,,,,,,,,,,,,5ed12d21e8cebc04aefac77c,60684b48bf2abe3d93bd1b67,2021-04-03_13h13.23.425,Colour_Similarity_Experiment,2020.2.10,Win32,60,60674ec340277cd6a308bc9f,21.43407216,16.80773423,16.68064232,16.68223214,16.68201158,16.68223214,,,,,,,,,,,,,,,,,,,,PF,strong,3,,,,,,,,1,4.70357,,,,,,,,,,,,,,,,,,,,,,,,,,,,8,strong,-93,48,1,0,0,response7disk,8,72,-28,10,1,0,0,rectangle,-28,10,1,0,0,3,5,0.000575,-28,10,1,0,0,0,71,71,48,1,0,,,,,,,,,,,,,,,,,,,,,
,,,,,,,,,,,,,,,,,,,,,,,,,,,,,,,,,,,,,,,,,,5ed12d21e8cebc04aefac77c,60684b48bf2abe3d93bd1b67,2021-04-03_13h13.23.425,Colour_Similarity_Experiment,2020.2.10,Win32,60,60674ec340277cd6a308bc9f,21.43407216,16.80773423,16.68064232,16.68223214,16.68201158,16.68223214,,,,,,,,,,,,,,,,,,,,PF,strong,3,,,,,,,,3,9.67673,,,,,,,,,,,,,,,,,,,,,,,,,,,,3,strong,-55,-64,1,0,0,response5disk,4,73,-9,-7,1,0,0,rectangle,-9,-7,1,0,0,3,1,0.00051,-9,-7,1,0,0,0,72,72,110,1,0,,,,,,,,,,,,,,,,,,,,,
,,,,,,,,,,,,,,,,,,,,,,,,,,,,,,,,,,,,,,,,,,5ed12d21e8cebc04aefac77c,60684b48bf2abe3d93bd1b67,2021-04-03_13h13.23.425,Colour_Similarity_Experiment,2020.2.10,Win32,60,60674ec340277cd6a308bc9f,21.43407216,16.80773423,16.68064232,16.68223214,16.68201158,16.68223214,,,,,,,,,,,,,,,,,,,,PF,weak,3,,,,,,,,0,1.56744,,,,,,,,,,,,,,,,,,,,,,,,,,,,3,weak,-63,71,1,0,0,response7disk,3,74,-5,0,1,0,0,rectangle,-5,0,1,0,0,3,5,0.00064,-5,0,1,0,0,0,73,73,4,1,0,,,,,,,,,,,,,,,,,,,,,
,,,,,,,,,,,,,,,,,,,,,,,,,,,,,,,,,,,,,,,,,,5ed12d21e8cebc04aefac77c,60684b48bf2abe3d93bd1b67,2021-04-03_13h13.23.425,Colour_Similarity_Experiment,2020.2.10,Win32,60,60674ec340277cd6a308bc9f,21.43407216,16.80773423,16.68064232,16.68223214,16.68201158,16.68223214,,,,,,,,,,,,,,,,,,,,PF,weak,3,,,,,,,,3,1.417195,,,,,,,,,,,,,,,,,,,,,,,,,,,,5,weak,-54,-79,1,0,0,response5disk,4,75,0,-12,1,0,0,rectangle,0,-12,1,0,0,3,7,0.000515,0,-12,1,0,0,0,74,74,54,1,0,,,,,,,,,,,,,,,,,,,,,
,,,,,,,,,,,,,,,,,,,,,,,,,,,,,,,,,,,,,,,,,,5ed12d21e8cebc04aefac77c,60684b48bf2abe3d93bd1b67,2021-04-03_13h13.23.425,Colour_Similarity_Experiment,2020.2.10,Win32,60,60674ec340277cd6a308bc9f,21.43407216,16.80773423,16.68064232,16.68223214,16.68201158,16.68223214,,,,,,,,,,,,,,,,,,,,PF,strong,3,,,,,,,,1,1.368335,,,,,,,,,,,,,,,,,,,,,,,,,,,,7,strong,-69,56,1,0,0,response7disk,8,76,-24,3,1,0,0,rectangle,-39,-91,1,0,0,3,3,1.10181,-19,-1,1,0,0,0,75,75,97,1,1,response5disk_3,rectangle,,,,,,,,,,,,,,,,,,,
,,,,,,,,,,,,,,,,,,,,,,,,,,,,,,,,,,,,,,,,,,5ed12d21e8cebc04aefac77c,60684b48bf2abe3d93bd1b67,2021-04-03_13h13.23.425,Colour_Similarity_Experiment,2020.2.10,Win32,60,60674ec340277cd6a308bc9f,21.43407216,16.80773423,16.68064232,16.68223214,16.68201158,16.68223214,,,,,,,,,,,,,,,,,,,,PF,strong,3,,,,,,,,3,1.63523,,,,,,,,,,,,,,,,,,,,,,,,,,,,7,strong,-46,-68,1,0,0,response5disk,5,77,-8,-14,1,0,0,rectangle,-8,-14,1,0,0,3,2,0.000555,-8,-14,1,0,0,0,76,76,156,1,0,,,,,,,,,,,,,,,,,,,,,
,,,,,,,,,,,,,,,,,,,,,,,,,,,,,,,,,,,,,,,,,,5ed12d21e8cebc04aefac77c,60684b48bf2abe3d93bd1b67,2021-04-03_13h13.23.425,Colour_Similarity_Experiment,2020.2.10,Win32,60,60674ec340277cd6a308bc9f,21.43407216,16.80773423,16.68064232,16.68223214,16.68201158,16.68223214,,,,,,,,,,,,,,,,,,,,PF,weak,3,,,,,,,,1,1.552285,,,,,,,,,,,,,,,,,,,,,,,,,,,,9,weak,-72,45,1,0,0,response7disk,9,78,-17,17,1,0,0,rectangle,-17,17,1,0,0,0,4,0.000525,-17,17,1,0,0,0,77,77,106,1,0,,,,,,,,,,,,,,,,,,,,,
,,,,,,,,,,,,,,,,,,,,,,,,,,,,,,,,,,,,,,,,,,5ed12d21e8cebc04aefac77c,60684b48bf2abe3d93bd1b67,2021-04-03_13h13.23.425,Colour_Similarity_Experiment,2020.2.10,Win32,60,60674ec340277cd6a308bc9f,21.43407216,16.80773423,16.68064232,16.68223214,16.68201158,16.68223214,,,,,,,,,,,,,,,,,,,,PF,weak,3,,,,,,,,6,1.28394,,,,,,,,,,,,,,,,,,,,,,,,,,,,6,weak,48,39,1,0,0,response1disk,1,79,12,2,1,0,0,rectangle,12,2,1,0,0,0,6,0.00051,12,2,1,0,0,0,78,78,46,1,0,,,,,,,,,,,,,,,,,,,,,
,,,,,,,,,,,,,,,,,,,,,,,,,,,,,,,,,,,,,,,,,,5ed12d21e8cebc04aefac77c,60684b48bf2abe3d93bd1b67,2021-04-03_13h13.23.425,Colour_Similarity_Experiment,2020.2.10,Win32,60,60674ec340277cd6a308bc9f,21.43407216,16.80773423,16.68064232,16.68223214,16.68201158,16.68223214,,,,,,,,,,,,,,,,,,,,PF,weak,3,,,,,,,,1,1.767725,,,,,,,,,,,,,,,,,,,,,,,,,,,,5,weak,-75,57,1,0,0,response7disk,5,80,-12,7,1,0,0,rectangle,-12,7,1,0,0,0,4,0.000515,-12,7,1,0,0,0,79,79,94,1,0,,,,,,,,,,,,,,,,,,,,,
,,,,,,,,,,,,,,,,,,,,,,,,,,,,,,,,,,,,,,,,,,5ed12d21e8cebc04aefac77c,60684b48bf2abe3d93bd1b67,2021-04-03_13h13.23.425,Colour_Similarity_Experiment,2020.2.10,Win32,60,60674ec340277cd6a308bc9f,21.43407216,16.80773423,16.68064232,16.68223214,16.68201158,16.68223214,,,,,,,,,,,,,,,,,,,,PF,weak,3,,,,,,,,4,1.435045,,,,,,,,,,,,,,,,,,,,,,,,,,,,2,weak,21,-64,1,0,0,response3disk,1,81,-3,-9,1,0,0,rectangle,-3,-9,1,0,0,0,5,0.000495,-3,-9,1,0,0,0,80,80,9,1,0,,,,,,,,,,,,,,,,,,,,,
,,,,,,,,,,,,,,,,,,,,,,,,,,,,,,,,,,,,,,,,,,5ed12d21e8cebc04aefac77c,60684b48bf2abe3d93bd1b67,2021-04-03_13h13.23.425,Colour_Similarity_Experiment,2020.2.10,Win32,60,60674ec340277cd6a308bc9f,21.43407216,16.80773423,16.68064232,16.68223214,16.68201158,16.68223214,,,,,,,,,,,,,,,,,,,,PF,weak,3,,,,,,,,2,1.41856,,,,,,,,,,,,,,,,,,,,,,,,,,,,9,weak,-57,-34,1,0,0,response5disk,8,82,-2,-17,1,0,0,rectangle,-2,-17,1,0,0,0,3,0.000535,-2,-17,1,0,0,0,81,81,67,1,0,,,,,,,,,,,,,,,,,,,,,
,,,,,,,,,,,,,,,,,,,,,,,,,,,,,,,,,,,,,,,,,,5ed12d21e8cebc04aefac77c,60684b48bf2abe3d93bd1b67,2021-04-03_13h13.23.425,Colour_Similarity_Experiment,2020.2.10,Win32,60,60674ec340277cd6a308bc9f,21.43407216,16.80773423,16.68064232,16.68223214,16.68201158,16.68223214,,,,,,,,,,,,,,,,,,,,PF,strong,3,,,,,,,,1,1.667645,,,,,,,,,,,,,,,,,,,,,,,,,,,,4,strong,-48,31,1,0,0,response7disk,2,83,-4,-4,1,0,0,rectangle,-4,-4,1,0,0,0,7,0.0005,-4,-4,1,0,0,0,82,82,13,1,0,,,,,,,,,,,,,,,,,,,,,
,,,,,,,,,,,,,,,,,,,,,,,,,,,,,,,,,,,,,,,,,,5ed12d21e8cebc04aefac77c,60684b48bf2abe3d93bd1b67,2021-04-03_13h13.23.425,Colour_Similarity_Experiment,2020.2.10,Win32,60,60674ec340277cd6a308bc9f,21.43407216,16.80773423,16.68064232,16.68223214,16.68201158,16.68223214,,,,,,,,,,,,,,,,,,,,PF,strong,3,,,,,,,,1,1.13362,,,,,,,,,,,,,,,,,,,,,,,,,,,,6,strong,-70,24,1,0,0,response7disk,3,84,-2,-8,1,0,0,rectangle,-2,-8,1,0,0,0,5,0.00053,-2,-8,1,0,0,0,83,83,21,1,0,,,,,,,,,,,,,,,,,,,,,
,,,,,,,,,,,,,,,,,,,,,,,,,,,,,,,,,,,,,,,,,,5ed12d21e8cebc04aefac77c,60684b48bf2abe3d93bd1b67,2021-04-03_13h13.23.425,Colour_Similarity_Experiment,2020.2.10,Win32,60,60674ec340277cd6a308bc9f,21.43407216,16.80773423,16.68064232,16.68223214,16.68201158,16.68223214,,,,,,,,,,,,,,,,,,,,PF,strong,3,,,,,,,,6,1.25046,,,,,,,,,,,,,,,,,,,,,,,,,,,,6,strong,65,35,1,0,0,response1disk,8,85,-2,16,1,0,0,rectangle,-2,16,1,0,0,0,3,0.000525,-2,16,1,0,0,0,84,84,133,1,0,,,,,,,,,,,,,,,,,,,,,
,,,,,,,,,,,,,,,,,,,,,,,,,,,,,,,,,,,,,,,,,,5ed12d21e8cebc04aefac77c,60684b48bf2abe3d93bd1b67,2021-04-03_13h13.23.425,Colour_Similarity_Experiment,2020.2.10,Win32,60,60674ec340277cd6a308bc9f,21.43407216,16.80773423,16.68064232,16.68223214,16.68201158,16.68223214,,,,,,,,,,,,,,,,,,,,PF,weak,3,,,,,,,,6,2.40259,,,,,,,,,,,,,,,,,,,,,,,,,,,,3,weak,75,46,1,0,0,response1disk,1,86,34,6,1,0,0,rectangle,34,6,1,0,0,0,2,0.00061,34,6,1,0,0,0,85,85,96,1,0,,,,,,,,,,,,,,,,,,,,,
,,,,,,,,,,,,,,,,,,,,,,,,,,,,,,,,,,,,,,,,,,5ed12d21e8cebc04aefac77c,60684b48bf2abe3d93bd1b67,2021-04-03_13h13.23.425,Colour_Similarity_Experiment,2020.2.10,Win32,60,60674ec340277cd6a308bc9f,21.43407216,16.80773423,16.68064232,16.68223214,16.68201158,16.68223214,,,,,,,,,,,,,,,,,,,,PF,strong,3,,,,,,,,6,1.74851,,,,,,,,,,,,,,,,,,,,,,,,,,,,5,strong,80,38,1,0,0,response1disk,7,87,-7,-11,1,0,0,rectangle,-7,-11,1,0,0,0,7,0.000545,-7,-11,1,0,0,0,86,86,7,1,0,,,,,,,,,,,,,,,,,,,,,
,,,,,,,,,,,,,,,,,,,,,,,,,,,,,,,,,,,,,,,,,,5ed12d21e8cebc04aefac77c,60684b48bf2abe3d93bd1b67,2021-04-03_13h13.23.425,Colour_Similarity_Experiment,2020.2.10,Win32,60,60674ec340277cd6a308bc9f,21.43407216,16.80773423,16.68064232,16.68223214,16.68201158,16.68223214,,,,,,,,,,,,,,,,,,,,PF,weak,3,,,,,,,,1,1.58495,,,,,,,,,,,,,,,,,,,,,,,,,,,,8,weak,-86,50,1,0,0,response7disk,8,88,6,-10,1,0,0,rectangle,6,-10,1,0,0,0,7,8E-05,6,-10,1,0,0,0,87,87,153,1,0,,,,,,,,,,,,,,,,,,,,,
,,,,,,,,,,,,,,,,,,,,,,,,,,,,,,,,,,,,,,,,,,5ed12d21e8cebc04aefac77c,60684b48bf2abe3d93bd1b67,2021-04-03_13h13.23.425,Colour_Similarity_Experiment,2020.2.10,Win32,60,60674ec340277cd6a308bc9f,21.43407216,16.80773423,16.68064232,16.68223214,16.68201158,16.68223214,,,,,,,,,,,,,,,,,,,,PF,strong,3,,,,,,,,3,1.68517,,,,,,,,,,,,,,,,,,,,,,,,,,,,9,strong,-28,-97,1,0,0,response5disk,2,89,-6,5,1,0,0,rectangle,107,38,1,0,0,6,6,1.368085,6,-13,1,0,0,0,88,88,11,1,1,response1disk_3,rectangle,,,,,,,,,,,,,,,,,,,
,,,,,,,,,,,,,,,,,,,,,,,,,,,,,,,,,,,,,,,,,,5ed12d21e8cebc04aefac77c,60684b48bf2abe3d93bd1b67,2021-04-03_13h13.23.425,Colour_Similarity_Experiment,2020.2.10,Win32,60,60674ec340277cd6a308bc9f,21.43407216,16.80773423,16.68064232,16.68223214,16.68201158,16.68223214,,,,,,,,,,,,,,,,,,,,PF,weak,3,,,,,,,,3,2.769455,,,,,,,,,,,,,,,,,,,,,,,,,,,,1,weak,-30,-75,1,0,0,response5disk,5,90,-11,-7,1,0,0,rectangle,-11,-7,1,0,0,6,1,0.00056,-11,-7,1,0,0,0,89,89,28,1,0,,,,,,,,,,,,,,,,,,,,,
,,,,,,,,,,,,,,,,,,,,,,,,,,,,,,,,,,,,,,,,,,5ed12d21e8cebc04aefac77c,60684b48bf2abe3d93bd1b67,2021-04-03_13h13.23.425,Colour_Similarity_Experiment,2020.2.10,Win32,60,60674ec340277cd6a308bc9f,21.43407216,16.80773423,16.68064232,16.68223214,16.68201158,16.68223214,,,,,,,,,,,,,,,,,,,,PF,weak,3,,,,,,,,3,1.2678,,,,,,,,,,,,,,,,,,,,,,,,,,,,3,weak,-36,-60,1,0,0,response5disk,2,91,-12,10,1,0,0,rectangle,108,31,1,0,0,6,6,1.551695,-3,-3,1,0,0,0,90,90,36,1,1,response1disk_3,rectangle,,,,,,,,,,,,,,,,,,,
,,,,,,,,,,,,,,,,,,,,,,,,,,,,,,,,,,,,,,,,,,5ed12d21e8cebc04aefac77c,60684b48bf2abe3d93bd1b67,2021-04-03_13h13.23.425,Colour_Similarity_Experiment,2020.2.10,Win32,60,60674ec340277cd6a308bc9f,21.43407216,16.80773423,16.68064232,16.68223214,16.68201158,16.68223214,,,,,,,,,,,,,,,,,,,,PF,strong,3,,,,,,,,4,2.752675,,,,,,,,,,,,,,,,,,,,,,,,,,,,5,strong,35,-77,1,0,0,response3disk,8,92,-25,-2,1,0,0,rectangle,-25,-2,1,0,0,6,7,0.000555,-25,-2,1,0,0,0,91,91,16,1,0,,,,,,,,,,,,,,,,,,,,,
,,,,,,,,,,,,,,,,,,,,,,,,,,,,,,,,,,,,,,,,,,5ed12d21e8cebc04aefac77c,60684b48bf2abe3d93bd1b67,2021-04-03_13h13.23.425,Colour_Similarity_Experiment,2020.2.10,Win32,60,60674ec340277cd6a308bc9f,21.43407216,16.80773423,16.68064232,16.68223214,16.68201158,16.68223214,,,,,,,,,,,,,,,,,,,,PF,strong,3,,,,,,,,1,1.201215,,,,,,,,,,,,,,,,,,,,,,,,,,,,3,strong,-60,33,1,0,0,response7disk,3,93,1,2,1,0,0,rectangle,1,2,1,0,0,6,1,0.000545,1,2,1,0,0,0,92,92,68,1,0,,,,,,,,,,,,,,,,,,,,,
,,,,,,,,,,,,,,,,,,,,,,,,,,,,,,,,,,,,,,,,,,5ed12d21e8cebc04aefac77c,60684b48bf2abe3d93bd1b67,2021-04-03_13h13.23.425,Colour_Similarity_Experiment,2020.2.10,Win32,60,60674ec340277cd6a308bc9f,21.43407216,16.80773423,16.68064232,16.68223214,16.68201158,16.68223214,,,,,,,,,,,,,,,,,,,,PF,weak,3,,,,,,,,3,2.118825,,,,,,,,,,,,,,,,,,,,,,,,,,,,6,weak,-32,-63,1,0,0,response5disk,5,94,7,-7,1,0,0,rectangle,7,-7,1,0,0,6,7,0.00055,7,-7,1,0,0,0,93,93,59,1,0,,,,,,,,,,,,,,,,,,,,,
,,,,,,,,,,,,,,,,,,,,,,,,,,,,,,,,,,,,,,,,,,5ed12d21e8cebc04aefac77c,60684b48bf2abe3d93bd1b67,2021-04-03_13h13.23.425,Colour_Similarity_Experiment,2020.2.10,Win32,60,60674ec340277cd6a308bc9f,21.43407216,16.80773423,16.68064232,16.68223214,16.68201158,16.68223214,,,,,,,,,,,,,,,,,,,,PF,strong,3,,,,,,,,2,2.118765,,,,,,,,,,,,,,,,,,,,,,,,,,,,4,strong,-76,-33,1,0,0,response5disk,1,95,-35,3,1,0,0,rectangle,-35,3,1,0,0,6,2,0.00057,-35,3,1,0,0,0,94,94,102,1,0,,,,,,,,,,,,,,,,,,,,,
,,,,,,,,,,,,,,,,,,,,,,,,,,,,,,,,,,,,,,,,,,5ed12d21e8cebc04aefac77c,60684b48bf2abe3d93bd1b67,2021-04-03_13h13.23.425,Colour_Similarity_Experiment,2020.2.10,Win32,60,60674ec340277cd6a308bc9f,21.43407216,16.80773423,16.68064232,16.68223214,16.68201158,16.68223214,,,,,,,,,,,,,,,,,,,,PF,strong,3,,,,,,,,7,1.60162,,,,,,,,,,,,,,,,,,,,,,,,,,,,4,strong,46,48,1,0,0,response1disk,9,96,13,-5,1,0,0,rectangle,13,-5,1,0,0,6,4,0.000535,13,-5,1,0,0,0,95,95,90,1,0,,,,,,,,,,,,,,,,,,,,,
,,,,,,,,,,,,,,,,,,,,,,,,,,,,,,,,,,,,,,,,,,5ed12d21e8cebc04aefac77c,60684b48bf2abe3d93bd1b67,2021-04-03_13h13.23.425,Colour_Similarity_Experiment,2020.2.10,Win32,60,60674ec340277cd6a308bc9f,21.43407216,16.80773423,16.68064232,16.68223214,16.68201158,16.68223214,,,,,,,,,,,,,,,,,,,,PF,weak,3,,,,,,,,6,0.88415,,,,,,,,,,,,,,,,,,,,,,,,,,,,7,weak,87,21,1,0,0,response1disk,9,97,18,-9,1,0,0,rectangle,18,-9,1,0,0,6,7,0.000595,18,-9,1,0,0,0,96,96,10,1,0,,,,,,,,,,,,,,,,,,,,,
,,,,,,,,,,,,,,,,,,,,,,,,,,,,,,,,,,,,,,,,,,5ed12d21e8cebc04aefac77c,60684b48bf2abe3d93bd1b67,2021-04-03_13h13.23.425,Colour_Similarity_Experiment,2020.2.10,Win32,60,60674ec340277cd6a308bc9f,21.43407216,16.80773423,16.68064232,16.68223214,16.68201158,16.68223214,,,,,,,,,,,,,,,,,,,,PF,weak,3,,,,,,,,2,2.335755,,,,,,,,,,,,,,,,,,,,,,,,,,,,5,weak,-60,-47,1,0,0,response5disk,3,98,5,-10,1,0,0,rectangle,5,-10,1,0,0,6,0,0.000545,5,-10,1,0,0,0,97,97,109,1,0,,,,,,,,,,,,,,,,,,,,,
,,,,,,,,,,,,,,,,,,,,,,,,,,,,,,,,,,,,,,,,,,5ed12d21e8cebc04aefac77c,60684b48bf2abe3d93bd1b67,2021-04-03_13h13.23.425,Colour_Similarity_Experiment,2020.2.10,Win32,60,60674ec340277cd6a308bc9f,21.43407216,16.80773423,16.68064232,16.68223214,16.68201158,16.68223214,,,,,,,,,,,,,,,,,,,,PF,strong,3,,,,,,,,4,1.868535,,,,,,,,,,,,,,,,,,,,,,,,,,,,2,strong,54,-74,1,0,0,response3disk,4,99,7,-9,1,0,0,rectangle,7,-9,1,0,0,6,4,0.00061,7,-9,1,0,0,0,98,98,145,1,0,,,,,,,,,,,,,,,,,,,,,
,,,,,,,,,,,,,,,,,,,,,,,,,,,,,,,,,,,,,,,,,,5ed12d21e8cebc04aefac77c,60684b48bf2abe3d93bd1b67,2021-04-03_13h13.23.425,Colour_Similarity_Experiment,2020.2.10,Win32,60,60674ec340277cd6a308bc9f,21.43407216,16.80773423,16.68064232,16.68223214,16.68201158,16.68223214,,,,,,,,,,,,,,,,,,,,PF,strong,3,,,,,,,,4,5.722495,,,,,,,,,,,,,,,,,,,,,,,,,,,,5,strong,34,-69,1,0,0,response3disk,1,100,-8,3,1,0,0,rectangle,-8,3,1,0,0,6,1,0.000585,-8,3,1,0,0,0,99,99,131,1,0,,,,,,,,,,,,,,,,,,,,,
,,,,,,,,,,,,,,,,,,,,,,,,,,,,,,,,,,,,,,,,,,5ed12d21e8cebc04aefac77c,60684b48bf2abe3d93bd1b67,2021-04-03_13h13.23.425,Colour_Similarity_Experiment,2020.2.10,Win32,60,60674ec340277cd6a308bc9f,21.43407216,16.80773423,16.68064232,16.68223214,16.68201158,16.68223214,,,,,,,,,,,,,,,,,,,,PF,strong,3,,,,,,,,3,0.884215,,,,,,,,,,,,,,,,,,,,,,,,,,,,6,strong,-32,-70,1,0,0,response5disk,4,101,14,5,1,0,0,rectangle,14,5,1,0,0,6,6,0.000605,14,5,1,0,0,0,100,100,56,1,0,,,,,,,,,,,,,,,,,,,,,
,,,,,,,,,,,,,,,,,,,,,,,,,,,,,,,,,,,,,,,,,,5ed12d21e8cebc04aefac77c,60684b48bf2abe3d93bd1b67,2021-04-03_13h13.23.425,Colour_Similarity_Experiment,2020.2.10,Win32,60,60674ec340277cd6a308bc9f,21.43407216,16.80773423,16.68064232,16.68223214,16.68201158,16.68223214,,,,,,,,,,,,,,,,,,,,PF,weak,3,,,,,,,,7,1.451385,,,,,,,,,,,,,,,,,,,,,,,,,,,,3,weak,35,88,1,0,0,response1disk,4,102,8,16,1,0,0,rectangle,8,16,1,0,0,6,0,0.000605,8,16,1,0,0,0,101,101,30,1,0,,,,,,,,,,,,,,,,,,,,,
,,,,,,,,,,,,,,,,,,,,,,,,,,,,,,,,,,,,,,,,,,5ed12d21e8cebc04aefac77c,60684b48bf2abe3d93bd1b67,2021-04-03_13h13.23.425,Colour_Similarity_Experiment,2020.2.10,Win32,60,60674ec340277cd6a308bc9f,21.43407216,16.80773423,16.68064232,16.68223214,16.68201158,16.68223214,,,,,,,,,,,,,,,,,,,,PF,weak,3,,,,,,,,6,1.918555,,,,,,,,,,,,,,,,,,,,,,,,,,,,9,weak,98,46,1,0,0,response1disk,4,103,-4,-9,1,0,0,rectangle,-4,-9,1,0,0,6,3,0.000945,-4,-9,1,0,0,0,102,102,114,1,0,,,,,,,,,,,,,,,,,,,,,
,,,,,,,,,,,,,,,,,,,,,,,,,,,,,,,,,,,,,,,,,,5ed12d21e8cebc04aefac77c,60684b48bf2abe3d93bd1b67,2021-04-03_13h13.23.425,Colour_Similarity_Experiment,2020.2.10,Win32,60,60674ec340277cd6a308bc9f,21.43407216,16.80773423,16.68064232,16.68223214,16.68201158,16.68223214,,,,,,,,,,,,,,,,,,,,PF,weak,3,,,,,,,,1,1.20123,,,,,,,,,,,,,,,,,,,,,,,,,,,,2,weak,-54,37,1,0,0,response7disk,2,104,-14,6,1,0,0,rectangle,-14,6,1,0,0,6,3,7.5E-05,-14,6,1,0,0,0,103,103,14,1,0,,,,,,,,,,,,,,,,,,,,,
,,,,,,,,,,,,,,,,,,,,,,,,,,,,,,,,,,,,,,,,,,5ed12d21e8cebc04aefac77c,60684b48bf2abe3d93bd1b67,2021-04-03_13h13.23.425,Colour_Similarity_Experiment,2020.2.10,Win32,60,60674ec340277cd6a308bc9f,21.43407216,16.80773423,16.68064232,16.68223214,16.68201158,16.68223214,,,,,,,,,,,,,,,,,,,,PF,weak,3,,,,,,,,6,1.71829,,,,,,,,,,,,,,,,,,,,,,,,,,,,5,weak,67,28,1,0,0,response1disk,9,105,12,-6,1,0,0,rectangle,87,-43,1,0,0,5,5,1.184485,5,14,1,0,0,0,104,104,136,1,1,response3disk_3,rectangle,,,,,,,,,,,,,,,,,,,
,,,,,,,,,,,,,,,,,,,,,,,,,,,,,,,,,,,,,,,,,,5ed12d21e8cebc04aefac77c,60684b48bf2abe3d93bd1b67,2021-04-03_13h13.23.425,Colour_Similarity_Experiment,2020.2.10,Win32,60,60674ec340277cd6a308bc9f,21.43407216,16.80773423,16.68064232,16.68223214,16.68201158,16.68223214,,,,,,,,,,,,,,,,,,,,PF,strong,3,,,,,,,,2,1.08435,,,,,,,,,,,,,,,,,,,,,,,,,,,,2,strong,-72,-29,1,0,0,response5disk,8,106,-21,7,1,0,0,rectangle,-21,7,1,0,0,5,7,0.00076,-21,7,1,0,0,0,105,105,62,1,0,,,,,,,,,,,,,,,,,,,,,
,,,,,,,,,,,,,,,,,,,,,,,,,,,,,,,,,,,,,,,,,,5ed12d21e8cebc04aefac77c,60684b48bf2abe3d93bd1b67,2021-04-03_13h13.23.425,Colour_Similarity_Experiment,2020.2.10,Win32,60,60674ec340277cd6a308bc9f,21.43407216,16.80773423,16.68064232,16.68223214,16.68201158,16.68223214,,,,,,,,,,,,,,,,,,,,PF,strong,3,,,,,,,,6,1.084235,,,,,,,,,,,,,,,,,,,,,,,,,,,,8,strong,108,36,1,0,0,response1disk,2,107,32,14,1,0,0,rectangle,32,14,1,0,0,5,5,0.000565,32,14,1,0,0,0,106,106,22,1,0,,,,,,,,,,,,,,,,,,,,,
,,,,,,,,,,,,,,,,,,,,,,,,,,,,,,,,,,,,,,,,,,5ed12d21e8cebc04aefac77c,60684b48bf2abe3d93bd1b67,2021-04-03_13h13.23.425,Colour_Similarity_Experiment,2020.2.10,Win32,60,60674ec340277cd6a308bc9f,21.43407216,16.80773423,16.68064232,16.68223214,16.68201158,16.68223214,,,,,,,,,,,,,,,,,,,,PF,strong,3,,,,,,,,7,1.73506,,,,,,,,,,,,,,,,,,,,,,,,,,,,2,strong,54,73,1,0,0,response1disk,1,108,7,8,1,0,0,rectangle,7,8,1,0,0,5,5,7E-05,7,8,1,0,0,0,107,107,85,1,0,,,,,,,,,,,,,,,,,,,,,
,,,,,,,,,,,,,,,,,,,,,,,,,,,,,,,,,,,,,,,,,,5ed12d21e8cebc04aefac77c,60684b48bf2abe3d93bd1b67,2021-04-03_13h13.23.425,Colour_Similarity_Experiment,2020.2.10,Win32,60,60674ec340277cd6a308bc9f,21.43407216,16.80773423,16.68064232,16.68223214,16.68201158,16.68223214,,,,,,,,,,,,,,,,,,,,PF,weak,3,,,,,,,,6,1.885215,,,,,,,,,,,,,,,,,,,,,,,,,,,,4,weak,74,31,1,0,0,response1disk,7,109,14,18,1,0,0,rectangle,14,18,1,0,0,5,5,7E-05,14,18,1,0,0,0,108,108,38,1,0,,,,,,,,,,,,,,,,,,,,,
,,,,,,,,,,,,,,,,,,,,,,,,,,,,,,,,,,,,,,,,,,5ed12d21e8cebc04aefac77c,60684b48bf2abe3d93bd1b67,2021-04-03_13h13.23.425,Colour_Similarity_Experiment,2020.2.10,Win32,60,60674ec340277cd6a308bc9f,21.43407216,16.80773423,16.68064232,16.68223214,16.68201158,16.68223214,,,,,,,,,,,,,,,,,,,,PF,weak,3,,,,,,,,7,1.01777,,,,,,,,,,,,,,,,,,,,,,,,,,,,9,weak,47,90,1,0,0,response1disk,3,110,18,4,1,0,0,rectangle,18,4,1,0,0,5,0,0.00052,18,4,1,0,0,0,109,109,119,1,0,,,,,,,,,,,,,,,,,,,,,
,,,,,,,,,,,,,,,,,,,,,,,,,,,,,,,,,,,,,,,,,,5ed12d21e8cebc04aefac77c,60684b48bf2abe3d93bd1b67,2021-04-03_13h13.23.425,Colour_Similarity_Experiment,2020.2.10,Win32,60,60674ec340277cd6a308bc9f,21.43407216,16.80773423,16.68064232,16.68223214,16.68201158,16.68223214,,,,,,,,,,,,,,,,,,,,PF,weak,3,,,,,,,,6,1.71832,,,,,,,,,,,,,,,,,,,,,,,,,,,,2,weak,82,47,1,0,0,response1disk,4,111,1,-7,1,0,0,rectangle,1,-7,1,0,0,5,7,0.00055,1,-7,1,0,0,0,110,110,127,1,0,,,,,,,,,,,,,,,,,,,,,
,,,,,,,,,,,,,,,,,,,,,,,,,,,,,,,,,,,,,,,,,,5ed12d21e8cebc04aefac77c,60684b48bf2abe3d93bd1b67,2021-04-03_13h13.23.425,Colour_Similarity_Experiment,2020.2.10,Win32,60,60674ec340277cd6a308bc9f,21.43407216,16.80773423,16.68064232,16.68223214,16.68201158,16.68223214,,,,,,,,,,,,,,,,,,,,PF,weak,3,,,,,,,,6,1.351445,,,,,,,,,,,,,,,,,,,,,,,,,,,,3,weak,69,34,1,0,0,response1disk,9,112,-8,-8,1,0,0,rectangle,-8,-8,1,0,0,5,4,0.00107,-8,-8,1,0,0,0,111,111,79,1,0,,,,,,,,,,,,,,,,,,,,,
,,,,,,,,,,,,,,,,,,,,,,,,,,,,,,,,,,,,,,,,,,5ed12d21e8cebc04aefac77c,60684b48bf2abe3d93bd1b67,2021-04-03_13h13.23.425,Colour_Similarity_Experiment,2020.2.10,Win32,60,60674ec340277cd6a308bc9f,21.43407216,16.80773423,16.68064232,16.68223214,16.68201158,16.68223214,,,,,,,,,,,,,,,,,,,,PF,weak,3,,,,,,,,6,1.43464,,,,,,,,,,,,,,,,,,,,,,,,,,,,4,weak,60,37,1,0,0,response1disk,6,113,-4,-5,1,0,0,rectangle,-4,-5,1,0,0,5,6,0.000525,-4,-5,1,0,0,0,112,112,120,1,0,,,,,,,,,,,,,,,,,,,,,
,,,,,,,,,,,,,,,,,,,,,,,,,,,,,,,,,,,,,,,,,,5ed12d21e8cebc04aefac77c,60684b48bf2abe3d93bd1b67,2021-04-03_13h13.23.425,Colour_Similarity_Experiment,2020.2.10,Win32,60,60674ec340277cd6a308bc9f,21.43407216,16.80773423,16.68064232,16.68223214,16.68201158,16.68223214,,,,,,,,,,,,,,,,,,,,PF,weak,3,,,,,,,,4,1.568365,,,,,,,,,,,,,,,,,,,,,,,,,,,,9,weak,53,-66,1,0,0,response3disk,7,114,22,-12,1,0,0,rectangle,22,-12,1,0,0,5,5,0.0005,22,-12,1,0,0,0,113,113,121,1,0,,,,,,,,,,,,,,,,,,,,,
,,,,,,,,,,,,,,,,,,,,,,,,,,,,,,,,,,,,,,,,,,5ed12d21e8cebc04aefac77c,60684b48bf2abe3d93bd1b67,2021-04-03_13h13.23.425,Colour_Similarity_Experiment,2020.2.10,Win32,60,60674ec340277cd6a308bc9f,21.43407216,16.80773423,16.68064232,16.68223214,16.68201158,16.68223214,,,,,,,,,,,,,,,,,,,,PF,strong,3,,,,,,,,3,1.15134,,,,,,,,,,,,,,,,,,,,,,,,,,,,6,strong,-28,-76,1,0,0,response5disk,5,115,26,-18,1,0,0,rectangle,26,-18,1,0,0,5,1,0.00054,26,-18,1,0,0,0,114,114,126,1,0,,,,,,,,,,,,,,,,,,,,,
,,,,,,,,,,,,,,,,,,,,,,,,,,,,,,,,,,,,,,,,,,5ed12d21e8cebc04aefac77c,60684b48bf2abe3d93bd1b67,2021-04-03_13h13.23.425,Colour_Similarity_Experiment,2020.2.10,Win32,60,60674ec340277cd6a308bc9f,21.43407216,16.80773423,16.68064232,16.68223214,16.68201158,16.68223214,,,,,,,,,,,,,,,,,,,,PF,weak,3,,,,,,,,6,1.518215,,,,,,,,,,,,,,,,,,,,,,,,,,,,9,weak,79,18,1,0,0,response1disk,6,116,41,-6,1,0,0,rectangle,41,-6,1,0,0,5,6,0.00051,41,-6,1,0,0,0,115,115,148,1,0,,,,,,,,,,,,,,,,,,,,,
,,,,,,,,,,,,,,,,,,,,,,,,,,,,,,,,,,,,,,,,,,5ed12d21e8cebc04aefac77c,60684b48bf2abe3d93bd1b67,2021-04-03_13h13.23.425,Colour_Similarity_Experiment,2020.2.10,Win32,60,60674ec340277cd6a308bc9f,21.43407216,16.80773423,16.68064232,16.68223214,16.68201158,16.68223214,,,,,,,,,,,,,,,,,,,,PF,weak,3,,,,,,,,6,10.59398,,,,,,,,,,,,,,,,,,,,,,,,,,,,9,weak,101,51,1,0,0,response1disk,1,117,15,-8,1,0,0,rectangle,15,-8,1,0,0,5,4,0.000505,15,-8,1,0,0,0,116,116,74,1,0,,,,,,,,,,,,,,,,,,,,,
,,,,,,,,,,,,,,,,,,,,,,,,,,,,,,,,,,,,,,,,,,5ed12d21e8cebc04aefac77c,60684b48bf2abe3d93bd1b67,2021-04-03_13h13.23.425,Colour_Similarity_Experiment,2020.2.10,Win32,60,60674ec340277cd6a308bc9f,21.43407216,16.80773423,16.68064232,16.68223214,16.68201158,16.68223214,,,,,,,,,,,,,,,,,,,,PF,strong,3,,,,,,,,7,1.05099,,,,,,,,,,,,,,,,,,,,,,,,,,,,1,strong,30,56,1,0,0,response1disk,7,118,8,8,1,0,0,rectangle,8,8,1,0,0,5,7,0.00053,8,8,1,0,0,0,117,117,137,1,0,,,,,,,,,,,,,,,,,,,,,
,,,,,,,,,,,,,,,,,,,,,,,,,,,,,,,,,,,,,,,,,,5ed12d21e8cebc04aefac77c,60684b48bf2abe3d93bd1b67,2021-04-03_13h13.23.425,Colour_Similarity_Experiment,2020.2.10,Win32,60,60674ec340277cd6a308bc9f,21.43407216,16.80773423,16.68064232,16.68223214,16.68201158,16.68223214,,,,,,,,,,,,,,,,,,,,PF,weak,3,,,,,,,,7,2.452525,,,,,,,,,,,,,,,,,,,,,,,,,,,,4,weak,32,98,1,0,0,response1disk,1,119,6,-1,1,0,0,rectangle,6,-1,1,0,0,5,0,0.000535,6,-1,1,0,0,0,118,118,115,1,0,,,,,,,,,,,,,,,,,,,,,
,,,,,,,,,,,,,,,,,,,,,,,,,,,,,,,,,,,,,,,,,,5ed12d21e8cebc04aefac77c,60684b48bf2abe3d93bd1b67,2021-04-03_13h13.23.425,Colour_Similarity_Experiment,2020.2.10,Win32,60,60674ec340277cd6a308bc9f,21.43407216,16.80773423,16.68064232,16.68223214,16.68201158,16.68223214,,,,,,,,,,,,,,,,,,,,PF,strong,3,,,,,,,,1,1.751835,,,,,,,,,,,,,,,,,,,,,,,,,,,,2,strong,-60,32,1,0,0,response7disk,3,120,-4,-7,1,0,0,rectangle,-87,63,1,0,0,1,1,1.11768,-15,8,1,0,0,0,119,119,104,1,1,response7disk_3,rectangle,,,,,,,,,,,,,,,,,,,
,,,,,,,,,,,,,,,,,,,,,,,,,,,,,,,,,,,,,,,,,,5ed12d21e8cebc04aefac77c,60684b48bf2abe3d93bd1b67,2021-04-03_13h13.23.425,Colour_Similarity_Experiment,2020.2.10,Win32,60,60674ec340277cd6a308bc9f,21.43407216,16.80773423,16.68064232,16.68223214,16.68201158,16.68223214,,,,,,,,,,,,,,,,,,,,PF,weak,3,,,,,,,,7,1.35193,,,,,,,,,,,,,,,,,,,,,,,,,,,,1,weak,49,65,1,0,0,response1disk,3,121,20,4,1,0,0,rectangle,20,4,1,0,0,1,6,0.000595,20,4,1,0,0,0,120,120,1,1,0,,,,,,,,,,,,,,,,,,,,,
,,,,,,,,,,,,,,,,,,,,,,,,,,,,,,,,,,,,,,,,,,5ed12d21e8cebc04aefac77c,60684b48bf2abe3d93bd1b67,2021-04-03_13h13.23.425,Colour_Similarity_Experiment,2020.2.10,Win32,60,60674ec340277cd6a308bc9f,21.43407216,16.80773423,16.68064232,16.68223214,16.68201158,16.68223214,,,,,,,,,,,,,,,,,,,,PF,weak,3,,,,,,,,1,1.067025,,,,,,,,,,,,,,,,,,,,,,,,,,,,6,weak,-48,45,1,0,0,response7disk,6,122,-11,13,1,0,0,rectangle,-11,13,1,0,0,1,0,0.000585,-11,13,1,0,0,0,121,121,0,1,0,,,,,,,,,,,,,,,,,,,,,
,,,,,,,,,,,,,,,,,,,,,,,,,,,,,,,,,,,,,,,,,,5ed12d21e8cebc04aefac77c,60684b48bf2abe3d93bd1b67,2021-04-03_13h13.23.425,Colour_Similarity_Experiment,2020.2.10,Win32,60,60674ec340277cd6a308bc9f,21.43407216,16.80773423,16.68064232,16.68223214,16.68201158,16.68223214,,,,,,,,,,,,,,,,,,,,PF,strong,3,,,,,,,,6,1.50155,,,,,,,,,,,,,,,,,,,,,,,,,,,,9,strong,61,60,1,0,0,response1disk,6,123,19,4,1,0,0,rectangle,19,4,1,0,0,1,5,0.00051,19,4,1,0,0,0,122,122,117,1,0,,,,,,,,,,,,,,,,,,,,,
,,,,,,,,,,,,,,,,,,,,,,,,,,,,,,,,,,,,,,,,,,5ed12d21e8cebc04aefac77c,60684b48bf2abe3d93bd1b67,2021-04-03_13h13.23.425,Colour_Similarity_Experiment,2020.2.10,Win32,60,60674ec340277cd6a308bc9f,21.43407216,16.80773423,16.68064232,16.68223214,16.68201158,16.68223214,,,,,,,,,,,,,,,,,,,,PF,weak,3,,,,,,,,1,1.401365,,,,,,,,,,,,,,,,,,,,,,,,,,,,6,weak,-40,31,1,0,0,response7disk,3,124,2,15,1,0,0,rectangle,2,15,1,0,0,1,6,0.00051,2,15,1,0,0,0,123,123,26,1,0,,,,,,,,,,,,,,,,,,,,,
,,,,,,,,,,,,,,,,,,,,,,,,,,,,,,,,,,,,,,,,,,5ed12d21e8cebc04aefac77c,60684b48bf2abe3d93bd1b67,2021-04-03_13h13.23.425,Colour_Similarity_Experiment,2020.2.10,Win32,60,60674ec340277cd6a308bc9f,21.43407216,16.80773423,16.68064232,16.68223214,16.68201158,16.68223214,,,,,,,,,,,,,,,,,,,,PF,weak,3,,,,,,,,1,1.83512,,,,,,,,,,,,,,,,,,,,,,,,,,,,7,weak,-106,49,1,0,0,response7disk,6,125,20,13,1,0,0,rectangle,20,13,1,0,0,1,1,0.000785,20,13,1,0,0,0,124,124,29,1,0,,,,,,,,,,,,,,,,,,,,,
,,,,,,,,,,,,,,,,,,,,,,,,,,,,,,,,,,,,,,,,,,5ed12d21e8cebc04aefac77c,60684b48bf2abe3d93bd1b67,2021-04-03_13h13.23.425,Colour_Similarity_Experiment,2020.2.10,Win32,60,60674ec340277cd6a308bc9f,21.43407216,16.80773423,16.68064232,16.68223214,16.68201158,16.68223214,,,,,,,,,,,,,,,,,,,,PF,strong,3,,,,,,,,6,1.451615,,,,,,,,,,,,,,,,,,,,,,,,,,,,8,strong,63,43,1,0,0,response1disk,5,126,7,-3,1,0,0,rectangle,7,-3,1,0,0,1,1,8E-05,7,-3,1,0,0,0,125,125,152,1,0,,,,,,,,,,,,,,,,,,,,,
,,,,,,,,,,,,,,,,,,,,,,,,,,,,,,,,,,,,,,,,,,5ed12d21e8cebc04aefac77c,60684b48bf2abe3d93bd1b67,2021-04-03_13h13.23.425,Colour_Similarity_Experiment,2020.2.10,Win32,60,60674ec340277cd6a308bc9f,21.43407216,16.80773423,16.68064232,16.68223214,16.68201158,16.68223214,,,,,,,,,,,,,,,,,,,,PF,strong,3,,,,,,,,6,1.584815,,,,,,,,,,,,,,,,,,,,,,,,,,,,2,strong,44,31,1,0,0,response1disk,6,127,-12,-8,1,0,0,rectangle,-12,-8,1,0,0,1,7,0.00073,-12,-8,1,0,0,0,126,126,40,1,0,,,,,,,,,,,,,,,,,,,,,
,,,,,,,,,,,,,,,,,,,,,,,,,,,,,,,,,,,,,,,,,,5ed12d21e8cebc04aefac77c,60684b48bf2abe3d93bd1b67,2021-04-03_13h13.23.425,Colour_Similarity_Experiment,2020.2.10,Win32,60,60674ec340277cd6a308bc9f,21.43407216,16.80773423,16.68064232,16.68223214,16.68201158,16.68223214,,,,,,,,,,,,,,,,,,,,PF,weak,3,,,,,,,,6,1.265255,,,,,,,,,,,,,,,,,,,,,,,,,,,,2,weak,61,37,1,0,0,response1disk,6,128,1,0,1,0,0,rectangle,1,0,1,0,0,1,4,0.000515,1,0,1,0,0,0,127,127,113,1,0,,,,,,,,,,,,,,,,,,,,,
,,,,,,,,,,,,,,,,,,,,,,,,,,,,,,,,,,,,,,,,,,5ed12d21e8cebc04aefac77c,60684b48bf2abe3d93bd1b67,2021-04-03_13h13.23.425,Colour_Similarity_Experiment,2020.2.10,Win32,60,60674ec340277cd6a308bc9f,21.43407216,16.80773423,16.68064232,16.68223214,16.68201158,16.68223214,,,,,,,,,,,,,,,,,,,,PF,strong,3,,,,,,,,1,1.351425,,,,,,,,,,,,,,,,,,,,,,,,,,,,4,strong,-62,35,1,0,0,response7disk,3,129,-6,-4,1,0,0,rectangle,-6,-4,1,0,0,1,5,0.00051,-6,-4,1,0,0,0,128,128,77,1,0,,,,,,,,,,,,,,,,,,,,,
,,,,,,,,,,,,,,,,,,,,,,,,,,,,,,,,,,,,,,,,,,5ed12d21e8cebc04aefac77c,60684b48bf2abe3d93bd1b67,2021-04-03_13h13.23.425,Colour_Similarity_Experiment,2020.2.10,Win32,60,60674ec340277cd6a308bc9f,21.43407216,16.80773423,16.68064232,16.68223214,16.68201158,16.68223214,,,,,,,,,,,,,,,,,,,,PF,weak,3,,,,,,,,6,1.150985,,,,,,,,,,,,,,,,,,,,,,,,,,,,7,weak,75,47,1,0,0,response1disk,3,130,-5,9,1,0,0,rectangle,-5,9,1,0,0,1,4,0.000525,-5,9,1,0,0,0,129,129,81,1,0,,,,,,,,,,,,,,,,,,,,,
,,,,,,,,,,,,,,,,,,,,,,,,,,,,,,,,,,,,,,,,,,5ed12d21e8cebc04aefac77c,60684b48bf2abe3d93bd1b67,2021-04-03_13h13.23.425,Colour_Similarity_Experiment,2020.2.10,Win32,60,60674ec340277cd6a308bc9f,21.43407216,16.80773423,16.68064232,16.68223214,16.68201158,16.68223214,,,,,,,,,,,,,,,,,,,,PF,strong,3,,,,,,,,5,72.873345,,,,,,,,,,,,,,,,,,,,,,,,,,,,9,strong,70,-40,1,0,0,response3disk,1,131,6,-9,1,0,0,rectangle,6,-9,1,0,0,1,0,0.000515,6,-9,1,0,0,0,130,130,111,1,0,,,,,,,,,,,,,,,,,,,,,
,,,,,,,,,,,,,,,,,,,,,,,,,,,,,,,,,,,,,,,,,,5ed12d21e8cebc04aefac77c,60684b48bf2abe3d93bd1b67,2021-04-03_13h13.23.425,Colour_Similarity_Experiment,2020.2.10,Win32,60,60674ec340277cd6a308bc9f,21.43407216,16.80773423,16.68064232,16.68223214,16.68201158,16.68223214,,,,,,,,,,,,,,,,,,,,PF,strong,3,,,,,,,,7,1.60165,,,,,,,,,,,,,,,,,,,,,,,,,,,,7,strong,65,92,1,0,0,response1disk,2,132,24,6,1,0,0,rectangle,24,6,1,0,0,1,3,0.00052,24,6,1,0,0,0,131,131,138,1,0,,,,,,,,,,,,,,,,,,,,,
,,,,,,,,,,,,,,,,,,,,,,,,,,,,,,,,,,,,,,,,,,5ed12d21e8cebc04aefac77c,60684b48bf2abe3d93bd1b67,2021-04-03_13h13.23.425,Colour_Similarity_Experiment,2020.2.10,Win32,60,60674ec340277cd6a308bc9f,21.43407216,16.80773423,16.68064232,16.68223214,16.68201158,16.68223214,,,,,,,,,,,,,,,,,,,,PF,weak,3,,,,,,,,6,17.717905,,,,,,,,,,,,,,,,,,,,,,,,,,,,2,weak,60,38,1,0,0,response1disk,3,133,8,15,1,0,0,rectangle,8,15,1,0,0,1,2,0.00053,8,15,1,0,0,0,132,132,69,1,0,,,,,,,,,,,,,,,,,,,,,
,,,,,,,,,,,,,,,,,,,,,,,,,,,,,,,,,,,,,,,,,,5ed12d21e8cebc04aefac77c,60684b48bf2abe3d93bd1b67,2021-04-03_13h13.23.425,Colour_Similarity_Experiment,2020.2.10,Win32,60,60674ec340277cd6a308bc9f,21.43407216,16.80773423,16.68064232,16.68223214,16.68201158,16.68223214,,,,,,,,,,,,,,,,,,,,PF,strong,3,,,,,,,,6,0.91736,,,,,,,,,,,,,,,,,,,,,,,,,,,,3,strong,66,31,1,0,0,response1disk,2,134,34,5,1,0,0,rectangle,34,5,1,0,0,1,1,0.000615,34,5,1,0,0,0,133,133,93,1,0,,,,,,,,,,,,,,,,,,,,,
,,,,,,,,,,,,,,,,,,,,,,,,,,,,,,,,,,,,,,,,,,5ed12d21e8cebc04aefac77c,60684b48bf2abe3d93bd1b67,2021-04-03_13h13.23.425,Colour_Similarity_Experiment,2020.2.10,Win32,60,60674ec340277cd6a308bc9f,21.43407216,16.80773423,16.68064232,16.68223214,16.68201158,16.68223214,,,,,,,,,,,,,,,,,,,,PF,strong,3,,,,,,,,6,0.95097,,,,,,,,,,,,,,,,,,,,,,,,,,,,7,strong,70,46,1,0,0,response1disk,3,135,38,3,1,0,0,rectangle,38,3,1,0,0,1,3,0.000545,38,3,1,0,0,0,134,134,73,1,0,,,,,,,,,,,,,,,,,,,,,
,,,,,,,,,,,,,,,,,,,,,,,,,,,,,,,,,,,,,,,,,,5ed12d21e8cebc04aefac77c,60684b48bf2abe3d93bd1b67,2021-04-03_13h13.23.425,Colour_Similarity_Experiment,2020.2.10,Win32,60,60674ec340277cd6a308bc9f,21.43407216,16.80773423,16.68064232,16.68223214,16.68201158,16.68223214,,,,,,,,,,,,,,,,,,,,PF,weak,3,,,,,,,,1,6.039335,,,,,,,,,,,,,,,,,,,,,,,,,,,,8,weak,-94,83,1,0,0,response7disk,1,136,-7,9,1,0,0,rectangle,-7,9,1,0,0,1,4,0.00052,-7,9,1,0,0,0,135,135,57,1,0,,,,,,,,,,,,,,,,,,,,,
,,,,,,,,,,,,,,,,,,,,,,,,,,,,,,,,,,,,,,,,,,5ed12d21e8cebc04aefac77c,60684b48bf2abe3d93bd1b67,2021-04-03_13h13.23.425,Colour_Similarity_Experiment,2020.2.10,Win32,60,60674ec340277cd6a308bc9f,21.43407216,16.80773423,16.68064232,16.68223214,16.68201158,16.68223214,,,,,,,,,,,,,,,,,,,,PF,weak,3,,,,,,,,1,1.067795,,,,,,,,,,,,,,,,,,,,,,,,,,,,4,weak,-78,56,1,0,0,response7disk,8,137,-22,-5,1,0,0,rectangle,-22,-5,1,0,0,1,4,7E-05,-22,-5,1,0,0,0,136,136,124,1,0,,,,,,,,,,,,,,,,,,,,,
,,,,,,,,,,,,,,,,,,,,,,,,,,,,,,,,,,,,,,,,,,5ed12d21e8cebc04aefac77c,60684b48bf2abe3d93bd1b67,2021-04-03_13h13.23.425,Colour_Similarity_Experiment,2020.2.10,Win32,60,60674ec340277cd6a308bc9f,21.43407216,16.80773423,16.68064232,16.68223214,16.68201158,16.68223214,,,,,,,,,,,,,,,,,,,,PF,weak,3,,,,,,,,6,1.301295,,,,,,,,,,,,,,,,,,,,,,,,,,,,9,weak,92,50,1,0,0,response1disk,5,138,47,-2,1,0,0,rectangle,47,-2,1,0,0,1,0,0.000505,47,-2,1,0,0,0,137,137,134,1,0,,,,,,,,,,,,,,,,,,,,,
,,,,,,,,,,,,,,,,,,,,,,,,,,,,,,,,,,,,,,,,,,5ed12d21e8cebc04aefac77c,60684b48bf2abe3d93bd1b67,2021-04-03_13h13.23.425,Colour_Similarity_Experiment,2020.2.10,Win32,60,60674ec340277cd6a308bc9f,21.43407216,16.80773423,16.68064232,16.68223214,16.68201158,16.68223214,,,,,,,,,,,,,,,,,,,,PF,strong,3,,,,,,,,6,1.35143,,,,,,,,,,,,,,,,,,,,,,,,,,,,9,strong,59,37,1,0,0,response1disk,4,139,-37,-13,1,0,0,rectangle,-37,-13,1,0,0,1,4,0.000495,-37,-13,1,0,0,0,138,138,60,1,0,,,,,,,,,,,,,,,,,,,,,
,,,,,,,,,,,,,,,,,,,,,,,,,,,,,,,,,,,,,,,,,,5ed12d21e8cebc04aefac77c,60684b48bf2abe3d93bd1b67,2021-04-03_13h13.23.425,Colour_Similarity_Experiment,2020.2.10,Win32,60,60674ec340277cd6a308bc9f,21.43407216,16.80773423,16.68064232,16.68223214,16.68201158,16.68223214,,,,,,,,,,,,,,,,,,,,PF,weak,3,,,,,,,,6,2.168815,,,,,,,,,,,,,,,,,,,,,,,,,,,,1,weak,62,46,1,0,0,response1disk,9,140,23,12,1,0,0,rectangle,23,12,1,0,0,1,3,0.000525,23,12,1,0,0,0,139,139,15,1,0,,,,,,,,,,,,,,,,,,,,,
,,,,,,,,,,,,,,,,,,,,,,,,,,,,,,,,,,,,,,,,,,5ed12d21e8cebc04aefac77c,60684b48bf2abe3d93bd1b67,2021-04-03_13h13.23.425,Colour_Similarity_Experiment,2020.2.10,Win32,60,60674ec340277cd6a308bc9f,21.43407216,16.80773423,16.68064232,16.68223214,16.68201158,16.68223214,,,,,,,,,,,,,,,,,,,,PF,weak,3,,,,,,,,6,1.384685,,,,,,,,,,,,,,,,,,,,,,,,,,,,6,weak,100,51,1,0,0,response1disk,7,141,-46,-4,1,0,0,rectangle,-46,-4,1,0,0,1,1,0.000495,-46,-4,1,0,0,0,140,140,50,1,0,,,,,,,,,,,,,,,,,,,,,
,,,,,,,,,,,,,,,,,,,,,,,,,,,,,,,,,,,,,,,,,,5ed12d21e8cebc04aefac77c,60684b48bf2abe3d93bd1b67,2021-04-03_13h13.23.425,Colour_Similarity_Experiment,2020.2.10,Win32,60,60674ec340277cd6a308bc9f,21.43407216,16.80773423,16.68064232,16.68223214,16.68201158,16.68223214,,,,,,,,,,,,,,,,,,,,PF,strong,3,,,,,,,,5,1.234455,,,,,,,,,,,,,,,,,,,,,,,,,,,,1,strong,72,-70,1,0,0,response3disk,4,142,34,-4,1,0,0,rectangle,34,-4,1,0,0,1,6,0.00052,34,-4,1,0,0,0,141,141,135,1,0,,,,,,,,,,,,,,,,,,,,,
,,,,,,,,,,,,,,,,,,,,,,,,,,,,,,,,,,,,,,,,,,5ed12d21e8cebc04aefac77c,60684b48bf2abe3d93bd1b67,2021-04-03_13h13.23.425,Colour_Similarity_Experiment,2020.2.10,Win32,60,60674ec340277cd6a308bc9f,21.43407216,16.80773423,16.68064232,16.68223214,16.68201158,16.68223214,,,,,,,,,,,,,,,,,,,,PF,weak,3,,,,,,,,3,0.567245,,,,,,,,,,,,,,,,,,,,,,,,,,,,3,weak,-25,-55,1,0,0,response5disk,6,143,-2,-5,1,0,0,rectangle,-2,-5,1,0,0,1,3,0.000525,-2,-5,1,0,0,0,142,142,47,1,0,,,,,,,,,,,,,,,,,,,,,
,,,,,,,,,,,,,,,,,,,,,,,,,,,,,,,,,,,,,,,,,,5ed12d21e8cebc04aefac77c,60684b48bf2abe3d93bd1b67,2021-04-03_13h13.23.425,Colour_Similarity_Experiment,2020.2.10,Win32,60,60674ec340277cd6a308bc9f,21.43407216,16.80773423,16.68064232,16.68223214,16.68201158,16.68223214,,,,,,,,,,,,,,,,,,,,PF,weak,3,,,,,,,,1,1.001165,,,,,,,,,,,,,,,,,,,,,,,,,,,,4,weak,-35,26,1,0,0,response7disk,4,144,-23,5,1,0,0,rectangle,-23,5,1,0,0,1,3,7.5E-05,-23,5,1,0,0,0,143,143,70,1,0,,,,,,,,,,,,,,,,,,,,,
,,,,,,,,,,,,,,,,,,,,,,,,,,,,,,,,,,,,,,,,,,5ed12d21e8cebc04aefac77c,60684b48bf2abe3d93bd1b67,2021-04-03_13h13.23.425,Colour_Similarity_Experiment,2020.2.10,Win32,60,60674ec340277cd6a308bc9f,21.43407216,16.80773423,16.68064232,16.68223214,16.68201158,16.68223214,,,,,,,,,,,,,,,,,,,,PF,strong,3,,,,,,,,1,1.28461,,,,,,,,,,,,,,,,,,,,,,,,,,,,4,strong,-62,37,1,0,0,response7disk,7,145,10,-6,1,0,0,rectangle,10,-6,1,0,0,1,3,9.5E-05,10,-6,1,0,0,0,144,144,87,1,0,,,,,,,,,,,,,,,,,,,,,
,,,,,,,,,,,,,,,,,,,,,,,,,,,,,,,,,,,,,,,,,,5ed12d21e8cebc04aefac77c,60684b48bf2abe3d93bd1b67,2021-04-03_13h13.23.425,Colour_Similarity_Experiment,2020.2.10,Win32,60,60674ec340277cd6a308bc9f,21.43407216,16.80773423,16.68064232,16.68223214,16.68201158,16.68223214,,,,,,,,,,,,,,,,,,,,PF,strong,3,,,,,,,,6,0.9511,,,,,,,,,,,,,,,,,,,,,,,,,,,,9,strong,96,52,1,0,0,response1disk,3,146,12,10,1,0,0,rectangle,12,10,1,0,0,1,1,0.000505,12,10,1,0,0,0,145,145,141,1,0,,,,,,,,,,,,,,,,,,,,,
,,,,,,,,,,,,,,,,,,,,,,,,,,,,,,,,,,,,,,,,,,5ed12d21e8cebc04aefac77c,60684b48bf2abe3d93bd1b67,2021-04-03_13h13.23.425,Colour_Similarity_Experiment,2020.2.10,Win32,60,60674ec340277cd6a308bc9f,21.43407216,16.80773423,16.68064232,16.68223214,16.68201158,16.68223214,,,,,,,,,,,,,,,,,,,,PF,strong,3,,,,,,,,6,0.850815,,,,,,,,,,,,,,,,,,,,,,,,,,,,6,strong,65,21,1,0,0,response1disk,9,147,36,9,1,0,0,rectangle,100,52,1,0,0,6,6,1.318495,33,-5,1,0,0,0,146,146,160,1,1,response1disk_3,rectangle,,,,,,,,,,,,,,,,,,,
,,,,,,,,,,,,,,,,,,,,,,,,,,,,,,,,,,,,,,,,,,5ed12d21e8cebc04aefac77c,60684b48bf2abe3d93bd1b67,2021-04-03_13h13.23.425,Colour_Similarity_Experiment,2020.2.10,Win32,60,60674ec340277cd6a308bc9f,21.43407216,16.80773423,16.68064232,16.68223214,16.68201158,16.68223214,,,,,,,,,,,,,,,,,,,,PF,strong,3,,,,,,,,1,0.950935,,,,,,,,,,,,,,,,,,,,,,,,,,,,7,strong,-54,32,1,0,0,response7disk,4,148,6,7,1,0,0,rectangle,6,7,1,0,0,6,3,0.00054,6,7,1,0,0,0,147,147,158,1,0,,,,,,,,,,,,,,,,,,,,,
,,,,,,,,,,,,,,,,,,,,,,,,,,,,,,,,,,,,,,,,,,5ed12d21e8cebc04aefac77c,60684b48bf2abe3d93bd1b67,2021-04-03_13h13.23.425,Colour_Similarity_Experiment,2020.2.10,Win32,60,60674ec340277cd6a308bc9f,21.43407216,16.80773423,16.68064232,16.68223214,16.68201158,16.68223214,,,,,,,,,,,,,,,,,,,,PF,weak,3,,,,,,,,7,0.76759,,,,,,,,,,,,,,,,,,,,,,,,,,,,2,weak,37,94,1,0,0,response1disk,8,149,16,12,1,0,0,rectangle,16,12,1,0,0,6,3,0.000065,16,12,1,0,0,0,148,148,52,1,0,,,,,,,,,,,,,,,,,,,,,
,,,,,,,,,,,,,,,,,,,,,,,,,,,,,,,,,,,,,,,,,,5ed12d21e8cebc04aefac77c,60684b48bf2abe3d93bd1b67,2021-04-03_13h13.23.425,Colour_Similarity_Experiment,2020.2.10,Win32,60,60674ec340277cd6a308bc9f,21.43407216,16.80773423,16.68064232,16.68223214,16.68201158,16.68223214,,,,,,,,,,,,,,,,,,,,PF,strong,3,,,,,,,,3,1.26775,,,,,,,,,,,,,,,,,,,,,,,,,,,,5,strong,-32,-64,1,0,0,response5disk,6,150,-15,-4,1,0,0,rectangle,-15,-4,1,0,0,6,1,0.000535,-15,-4,1,0,0,0,149,149,12,1,0,,,,,,,,,,,,,,,,,,,,,
,,,,,,,,,,,,,,,,,,,,,,,,,,,,,,,,,,,,,,,,,,5ed12d21e8cebc04aefac77c,60684b48bf2abe3d93bd1b67,2021-04-03_13h13.23.425,Colour_Similarity_Experiment,2020.2.10,Win32,60,60674ec340277cd6a308bc9f,21.43407216,16.80773423,16.68064232,16.68223214,16.68201158,16.68223214,,,,,,,,,,,,,,,,,,,,PF,weak,3,,,,,,,,7,3.269995,,,,,,,,,,,,,,,,,,,,,,,,,,,,1,weak,26,82,1,0,0,response1disk,7,151,21,-12,1,0,0,rectangle,21,-12,1,0,0,6,0,0.000515,21,-12,1,0,0,0,150,150,150,1,0,,,,,,,,,,,,,,,,,,,,,
,,,,,,,,,,,,,,,,,,,,,,,,,,,,,,,,,,,,,,,,,,5ed12d21e8cebc04aefac77c,60684b48bf2abe3d93bd1b67,2021-04-03_13h13.23.425,Colour_Similarity_Experiment,2020.2.10,Win32,60,60674ec340277cd6a308bc9f,21.43407216,16.80773423,16.68064232,16.68223214,16.68201158,16.68223214,,,,,,,,,,,,,,,,,,,,PF,weak,3,,,,,,,,1,1.718415,,,,,,,,,,,,,,,,,,,,,,,,,,,,6,weak,-77,28,1,0,0,response7disk,8,152,7,1,1,0,0,rectangle,7,1,1,0,0,6,3,0.000515,7,1,1,0,0,0,151,151,64,1,0,,,,,,,,,,,,,,,,,,,,,
,,,,,,,,,,,,,,,,,,,,,,,,,,,,,,,,,,,,,,,,,,5ed12d21e8cebc04aefac77c,60684b48bf2abe3d93bd1b67,2021-04-03_13h13.23.425,Colour_Similarity_Experiment,2020.2.10,Win32,60,60674ec340277cd6a308bc9f,21.43407216,16.80773423,16.68064232,16.68223214,16.68201158,16.68223214,,,,,,,,,,,,,,,,,,,,PF,weak,3,,,,,,,,3,1.151345,,,,,,,,,,,,,,,,,,,,,,,,,,,,5,weak,-45,-55,1,0,0,response5disk,6,153,-21,0,1,0,0,rectangle,-21,0,1,0,0,6,5,0.000545,-21,0,1,0,0,0,152,152,103,1,0,,,,,,,,,,,,,,,,,,,,,
,,,,,,,,,,,,,,,,,,,,,,,,,,,,,,,,,,,,,,,,,,5ed12d21e8cebc04aefac77c,60684b48bf2abe3d93bd1b67,2021-04-03_13h13.23.425,Colour_Similarity_Experiment,2020.2.10,Win32,60,60674ec340277cd6a308bc9f,21.43407216,16.80773423,16.68064232,16.68223214,16.68201158,16.68223214,,,,,,,,,,,,,,,,,,,,PF,strong,3,,,,,,,,6,1.05099,,,,,,,,,,,,,,,,,,,,,,,,,,,,6,strong,66,49,1,0,0,response1disk,7,154,-38,8,1,0,0,rectangle,-38,8,1,0,0,6,7,0.000535,-38,8,1,0,0,0,153,153,18,1,0,,,,,,,,,,,,,,,,,,,,,
,,,,,,,,,,,,,,,,,,,,,,,,,,,,,,,,,,,,,,,,,,5ed12d21e8cebc04aefac77c,60684b48bf2abe3d93bd1b67,2021-04-03_13h13.23.425,Colour_Similarity_Experiment,2020.2.10,Win32,60,60674ec340277cd6a308bc9f,21.43407216,16.80773423,16.68064232,16.68223214,16.68201158,16.68223214,,,,,,,,,,,,,,,,,,,,PF,strong,3,,,,,,,,6,0.80083,,,,,,,,,,,,,,,,,,,,,,,,,,,,9,strong,122,37,1,0,0,response1disk,5,155,36,-7,1,0,0,rectangle,36,-7,1,0,0,6,5,0.00049,36,-7,1,0,0,0,154,154,128,1,0,,,,,,,,,,,,,,,,,,,,,
,,,,,,,,,,,,,,,,,,,,,,,,,,,,,,,,,,,,,,,,,,5ed12d21e8cebc04aefac77c,60684b48bf2abe3d93bd1b67,2021-04-03_13h13.23.425,Colour_Similarity_Experiment,2020.2.10,Win32,60,60674ec340277cd6a308bc9f,21.43407216,16.80773423,16.68064232,16.68223214,16.68201158,16.68223214,,,,,,,,,,,,,,,,,,,,PF,strong,3,,,,,,,,4,0.75092,,,,,,,,,,,,,,,,,,,,,,,,,,,,3,strong,47,-49,1,0,0,response3disk,9,156,25,-11,1,0,0,rectangle,25,-11,1,0,0,6,4,0.000525,25,-11,1,0,0,0,155,155,143,1,0,,,,,,,,,,,,,,,,,,,,,
,,,,,,,,,,,,,,,,,,,,,,,,,,,,,,,,,,,,,,,,,,5ed12d21e8cebc04aefac77c,60684b48bf2abe3d93bd1b67,2021-04-03_13h13.23.425,Colour_Similarity_Experiment,2020.2.10,Win32,60,60674ec340277cd6a308bc9f,21.43407216,16.80773423,16.68064232,16.68223214,16.68201158,16.68223214,,,,,,,,,,,,,,,,,,,,PF,strong,3,,,,,,,,2,1.885225,,,,,,,,,,,,,,,,,,,,,,,,,,,,7,strong,-77,-36,1,0,0,response5disk,6,157,-35,-8,1,0,0,rectangle,-35,-8,1,0,0,6,7,0.00055,-35,-8,1,0,0,0,156,156,31,1,0,,,,,,,,,,,,,,,,,,,,,
,,,,,,,,,,,,,,,,,,,,,,,,,,,,,,,,,,,,,,,,,,5ed12d21e8cebc04aefac77c,60684b48bf2abe3d93bd1b67,2021-04-03_13h13.23.425,Colour_Similarity_Experiment,2020.2.10,Win32,60,60674ec340277cd6a308bc9f,21.43407216,16.80773423,16.68064232,16.68223214,16.68201158,16.68223214,,,,,,,,,,,,,,,,,,,,PF,weak,3,,,,,,,,7,0.834195,,,,,,,,,,,,,,,,,,,,,,,,,,,,3,weak,43,72,1,0,0,response1disk,8,158,33,2,1,0,0,rectangle,33,2,1,0,0,6,1,0.000495,33,2,1,0,0,0,157,157,3,1,0,,,,,,,,,,,,,,,,,,,,,
,,,,,,,,,,,,,,,,,,,,,,,,,,,,,,,,,,,,,,,,,,5ed12d21e8cebc04aefac77c,60684b48bf2abe3d93bd1b67,2021-04-03_13h13.23.425,Colour_Similarity_Experiment,2020.2.10,Win32,60,60674ec340277cd6a308bc9f,21.43407216,16.80773423,16.68064232,16.68223214,16.68201158,16.68223214,,,,,,,,,,,,,,,,,,,,PF,weak,3,,,,,,,,3,11.111195,,,,,,,,,,,,,,,,,,,,,,,,,,,,5,weak,-32,-41,1,0,0,response5disk,7,159,9,-9,1,0,0,rectangle,9,-9,1,0,0,6,4,0.000505,9,-9,1,0,0,0,158,158,146,1,0,,,,,,,,,,,,,,,,,,,,,
,,,,,,,,,,,,,,,,,,,,,,,,,,,,,,,,,,,,,,,,,,5ed12d21e8cebc04aefac77c,60684b48bf2abe3d93bd1b67,2021-04-03_13h13.23.425,Colour_Similarity_Experiment,2020.2.10,Win32,60,60674ec340277cd6a308bc9f,21.43407216,16.80773423,16.68064232,16.68223214,16.68201158,16.68223214,,,,,,,,,,,,,,,,,,,,PF,weak,3,,,,,,,,1,1.73524,,,,,,,,,,,,,,,,,,,,,,,,,,,,7,weak,-71,43,1,0,0,response7disk,7,160,-18,-1,1,0,0,rectangle,-18,-1,1,0,0,6,0,0.00059,-18,-1,1,0,0,0,159,159,51,1,0,,,,,,,,,,,,,,,,,,,,,
,,,,,,,,,,,,,,,,,,,,,,,,,,,,,,,,,,,,,,,,,,5ed12d21e8cebc04aefac77c,60684b48bf2abe3d93bd1b67,2021-04-03_13h13.23.425,Colour_Similarity_Experiment,2020.2.10,Win32,60,60674ec340277cd6a308bc9f,21.43407216,16.80773423,16.68064232,16.68223214,16.68201158,16.68223214,,,,,,,,,,,,,,,,,,,,PF,strong,3,,,,,,,,2,1.551585,,,,,,,,,,,,,,,,,,,,,,,,,,,,8,strong,-55,-44,1,0,0,response5disk,9,161,4,1,1,0,0,rectangle,4,1,1,0,0,6,7,0.00051,4,1,1,0,0,0,160,160,105,1,0,,,,,,,,,,,,,,,,,,,,,
,,,,,,,,,,,,,,,,,,,,,,,,,,,,,,,,,,,,,,,,,,5ed12d21e8cebc04aefac77c,60684b48bf2abe3d93bd1b67,2021-04-03_13h13.23.425,Colour_Similarity_Experiment,2020.2.10,Win32,60,60674ec340277cd6a308bc9f,21.43407216,16.80773423,16.68064232,16.68223214,16.68201158,16.68223214,,,,,,,,,,,,,,,,,,,,PF,weak,3,,,,,,,,7,1.36807,,,,,,,,,,,,,,,,,,,,,,,,,,,,6,weak,34,68,1,0,0,response1disk,2,162,-12,0,1,0,0,rectangle,-12,0,1,0,0,6,5,0.00059,-12,0,1,0,0,0,161,161,130,1,0,,,,,,,,,,,,,,,,,,,,,
,,,,,,,,,,,,,,,,,,,,,,,,,,,,,,,,,,,,,,,,,,5ed12d21e8cebc04aefac77c,60684b48bf2abe3d93bd1b67,2021-04-03_13h13.23.425,Colour_Similarity_Experiment,2020.2.10,Win32,60,60674ec340277cd6a308bc9f,21.43407216,16.80773423,16.68064232,16.68223214,16.68201158,16.68223214,,,,,,,,,,,,,,,,,,,,,,,,,,,,,,,,,,,,,,,,,,,,,,,,,,,,,,,,,,,,,,,,,,,,,,,,,,,,,,,,,,,,,,,,,,,,,,,,0,0,0,0,1,,,,,,,,,,,,,,
,,,,,,,,,,,,,,,,,,,,,,,,,,,,,,,,,,,,,,,,,,5ed12d21e8cebc04aefac77c,60684b48bf2abe3d93bd1b67,2021-04-03_13h13.23.425,Colour_Similarity_Experiment,2020.2.10,Win32,60,60674ec340277cd6a308bc9f,21.43407216,16.80773423,16.68064232,16.68223214,16.68201158,16.68223214,,,,,,,,,,,,,,,,,,,,PF,strong,3,,,,,,,,2,1.317955,,,,,,,,,,,,,,,,,,,,,,,,,,,,9,strong,-82,-28,1,0,0,response5disk,9,163,-23,0,1,0,0,rectangle,-23,0,1,0,0,6,4,0.00055,-23,0,1,0,0,0,0,0,17,1,0,,,,,,,,,,,,,,,,,,,,,
,,,,,,,,,,,,,,,,,,,,,,,,,,,,,,,,,,,,,,,,,,5ed12d21e8cebc04aefac77c,60684b48bf2abe3d93bd1b67,2021-04-03_13h13.23.425,Colour_Similarity_Experiment,2020.2.10,Win32,60,60674ec340277cd6a308bc9f,21.43407216,16.80773423,16.68064232,16.68223214,16.68201158,16.68223214,,,,,,,,,,,,,,,,,,,,PF,weak,3,,,,,,,,3,2.719435,,,,,,,,,,,,,,,,,,,,,,,,,,,,5,weak,-41,-88,1,0,0,response5disk,1,164,-3,-21,1,0,0,rectangle,-72,-32,1,0,0,6,2,1.46818,0,-21,1,0,0,0,1,1,159,1,1,response5disk_3,rectangle,,,,,,,,,,,,,,,,,,,
,,,,,,,,,,,,,,,,,,,,,,,,,,,,,,,,,,,,,,,,,,5ed12d21e8cebc04aefac77c,60684b48bf2abe3d93bd1b67,2021-04-03_13h13.23.425,Colour_Similarity_Experiment,2020.2.10,Win32,60,60674ec340277cd6a308bc9f,21.43407216,16.80773423,16.68064232,16.68223214,16.68201158,16.68223214,,,,,,,,,,,,,,,,,,,,PF,strong,3,,,,,,,,3,1.201285,,,,,,,,,,,,,,,,,,,,,,,,,,,,3,strong,-46,-64,1,0,0,response5disk,5,165,-3,-7,1,0,0,rectangle,-3,-7,1,0,0,6,0,0.00053,-3,-7,1,0,0,0,2,2,101,1,0,,,,,,,,,,,,,,,,,,,,,
,,,,,,,,,,,,,,,,,,,,,,,,,,,,,,,,,,,,,,,,,,5ed12d21e8cebc04aefac77c,60684b48bf2abe3d93bd1b67,2021-04-03_13h13.23.425,Colour_Similarity_Experiment,2020.2.10,Win32,60,60674ec340277cd6a308bc9f,21.43407216,16.80773423,16.68064232,16.68223214,16.68201158,16.68223214,,,,,,,,,,,,,,,,,,,,PF,strong,3,,,,,,,,4,1.10111,,,,,,,,,,,,,,,,,,,,,,,,,,,,4,strong,47,-55,1,0,0,response3disk,4,166,17,10,1,0,0,rectangle,17,10,1,0,0,6,4,0.000535,17,10,1,0,0,0,3,3,84,1,0,,,,,,,,,,,,,,,,,,,,,
,,,,,,,,,,,,,,,,,,,,,,,,,,,,,,,,,,,,,,,,,,5ed12d21e8cebc04aefac77c,60684b48bf2abe3d93bd1b67,2021-04-03_13h13.23.425,Colour_Similarity_Experiment,2020.2.10,Win32,60,60674ec340277cd6a308bc9f,21.43407216,16.80773423,16.68064232,16.68223214,16.68201158,16.68223214,,,,,,,,,,,,,,,,,,,,PF,strong,3,,,,,,,,3,1.334715,,,,,,,,,,,,,,,,,,,,,,,,,,,,9,strong,-38,-54,1,0,0,response5disk,8,167,-23,-3,1,0,0,rectangle,-23,-3,1,0,0,6,6,0.000595,-23,-3,1,0,0,0,4,4,6,1,0,,,,,,,,,,,,,,,,,,,,,
,,,,,,,,,,,,,,,,,,,,,,,,,,,,,,,,,,,,,,,,,,5ed12d21e8cebc04aefac77c,60684b48bf2abe3d93bd1b67,2021-04-03_13h13.23.425,Colour_Similarity_Experiment,2020.2.10,Win32,60,60674ec340277cd6a308bc9f,21.43407216,16.80773423,16.68064232,16.68223214,16.68201158,16.68223214,,,,,,,,,,,,,,,,,,,,PF,weak,3,,,,,,,,6,1.50148,,,,,,,,,,,,,,,,,,,,,,,,,,,,3,weak,94,46,1,0,0,response1disk,7,168,22,4,1,0,0,rectangle,22,4,1,0,0,6,6,7E-05,22,4,1,0,0,0,5,5,41,1,0,,,,,,,,,,,,,,,,,,,,,
,,,,,,,,,,,,,,,,,,,,,,,,,,,,,,,,,,,,,,,,,,5ed12d21e8cebc04aefac77c,60684b48bf2abe3d93bd1b67,2021-04-03_13h13.23.425,Colour_Similarity_Experiment,2020.2.10,Win32,60,60674ec340277cd6a308bc9f,21.43407216,16.80773423,16.68064232,16.68223214,16.68201158,16.68223214,,,,,,,,,,,,,,,,,,,,PF,weak,3,,,,,,,,7,1.00106,,,,,,,,,,,,,,,,,,,,,,,,,,,,1,weak,46,71,1,0,0,response1disk,4,169,13,17,1,0,0,rectangle,13,17,1,0,0,6,7,0.000515,13,17,1,0,0,0,6,6,139,1,0,,,,,,,,,,,,,,,,,,,,,
,,,,,,,,,,,,,,,,,,,,,,,,,,,,,,,,,,,,,,,,,,5ed12d21e8cebc04aefac77c,60684b48bf2abe3d93bd1b67,2021-04-03_13h13.23.425,Colour_Similarity_Experiment,2020.2.10,Win32,60,60674ec340277cd6a308bc9f,21.43407216,16.80773423,16.68064232,16.68223214,16.68201158,16.68223214,,,,,,,,,,,,,,,,,,,,PF,strong,3,,,,,,,,3,1.101105,,,,,,,,,,,,,,,,,,,,,,,,,,,,3,strong,-21,-63,1,0,0,response5disk,1,170,2,-9,1,0,0,rectangle,2,-9,1,0,0,6,0,0.00051,2,-9,1,0,0,0,7,7,125,1,0,,,,,,,,,,,,,,,,,,,,,
,,,,,,,,,,,,,,,,,,,,,,,,,,,,,,,,,,,,,,,,,,5ed12d21e8cebc04aefac77c,60684b48bf2abe3d93bd1b67,2021-04-03_13h13.23.425,Colour_Similarity_Experiment,2020.2.10,Win32,60,60674ec340277cd6a308bc9f,21.43407216,16.80773423,16.68064232,16.68223214,16.68201158,16.68223214,,,,,,,,,,,,,,,,,,,,PF,strong,3,,,,,,,,6,1.21792,,,,,,,,,,,,,,,,,,,,,,,,,,,,8,strong,94,25,1,0,0,response1disk,6,171,12,17,1,0,0,rectangle,12,17,1,0,0,6,7,0.00052,12,17,1,0,0,0,8,8,37,1,0,,,,,,,,,,,,,,,,,,,,,
,,,,,,,,,,,,,,,,,,,,,,,,,,,,,,,,,,,,,,,,,,5ed12d21e8cebc04aefac77c,60684b48bf2abe3d93bd1b67,2021-04-03_13h13.23.425,Colour_Similarity_Experiment,2020.2.10,Win32,60,60674ec340277cd6a308bc9f,21.43407216,16.80773423,16.68064232,16.68223214,16.68201158,16.68223214,,,,,,,,,,,,,,,,,,,,PF,strong,3,,,,,,,,6,0.76749,,,,,,,,,,,,,,,,,,,,,,,,,,,,6,strong,56,43,1,0,0,response1disk,2,172,5,-20,1,0,0,rectangle,5,-20,1,0,0,6,3,0.000515,5,-20,1,0,0,0,9,9,112,1,0,,,,,,,,,,,,,,,,,,,,,
,,,,,,,,,,,,,,,,,,,,,,,,,,,,,,,,,,,,,,,,,,5ed12d21e8cebc04aefac77c,60684b48bf2abe3d93bd1b67,2021-04-03_13h13.23.425,Colour_Similarity_Experiment,2020.2.10,Win32,60,60674ec340277cd6a308bc9f,21.43407216,16.80773423,16.68064232,16.68223214,16.68201158,16.68223214,,,,,,,,,,,,,,,,,,,,PF,strong,3,,,,,,,,1,0.91759,,,,,,,,,,,,,,,,,,,,,,,,,,,,5,strong,-53,41,1,0,0,response7disk,5,173,-5,4,1,0,0,rectangle,-5,4,1,0,0,6,1,0.00055,-5,4,1,0,0,0,10,10,19,1,0,,,,,,,,,,,,,,,,,,,,,
,,,,,,,,,,,,,,,,,,,,,,,,,,,,,,,,,,,,,,,,,,5ed12d21e8cebc04aefac77c,60684b48bf2abe3d93bd1b67,2021-04-03_13h13.23.425,Colour_Similarity_Experiment,2020.2.10,Win32,60,60674ec340277cd6a308bc9f,21.43407216,16.80773423,16.68064232,16.68223214,16.68201158,16.68223214,,,,,,,,,,,,,,,,,,,,PF,weak,3,,,,,,,,7,0.95108,,,,,,,,,,,,,,,,,,,,,,,,,,,,2,weak,30,68,1,0,0,response1disk,7,174,-37,-12,1,0,0,rectangle,-37,-12,1,0,0,6,3,0.000535,-37,-12,1,0,0,0,11,11,107,1,0,,,,,,,,,,,,,,,,,,,,,
,,,,,,,,,,,,,,,,,,,,,,,,,,,,,,,,,,,,,,,,,,5ed12d21e8cebc04aefac77c,60684b48bf2abe3d93bd1b67,2021-04-03_13h13.23.425,Colour_Similarity_Experiment,2020.2.10,Win32,60,60674ec340277cd6a308bc9f,21.43407216,16.80773423,16.68064232,16.68223214,16.68201158,16.68223214,,,,,,,,,,,,,,,,,,,,PF,weak,3,,,,,,,,3,2.018765,,,,,,,,,,,,,,,,,,,,,,,,,,,,5,weak,-53,-63,1,0,0,response5disk,8,175,-15,-19,1,0,0,rectangle,-15,-19,1,0,0,6,5,0.00054,-15,-19,1,0,0,0,12,12,149,1,0,,,,,,,,,,,,,,,,,,,,,
,,,,,,,,,,,,,,,,,,,,,,,,,,,,,,,,,,,,,,,,,,5ed12d21e8cebc04aefac77c,60684b48bf2abe3d93bd1b67,2021-04-03_13h13.23.425,Colour_Similarity_Experiment,2020.2.10,Win32,60,60674ec340277cd6a308bc9f,21.43407216,16.80773423,16.68064232,16.68223214,16.68201158,16.68223214,,,,,,,,,,,,,,,,,,,,PF,weak,3,,,,,,,,4,1.434775,,,,,,,,,,,,,,,,,,,,,,,,,,,,3,weak,34,-43,1,0,0,response3disk,5,176,-11,11,1,0,0,rectangle,-11,11,1,0,0,6,6,0.000515,-11,11,1,0,0,0,13,13,66,1,0,,,,,,,,,,,,,,,,,,,,,
,,,,,,,,,,,,,,,,,,,,,,,,,,,,,,,,,,,,,,,,,,5ed12d21e8cebc04aefac77c,60684b48bf2abe3d93bd1b67,2021-04-03_13h13.23.425,Colour_Similarity_Experiment,2020.2.10,Win32,60,60674ec340277cd6a308bc9f,21.43407216,16.80773423,16.68064232,16.68223214,16.68201158,16.68223214,,,,,,,,,,,,,,,,,,,,PF,strong,3,,,,,,,,6,1.218015,,,,,,,,,,,,,,,,,,,,,,,,,,,,8,strong,72,36,1,0,0,response1disk,1,177,13,-5,1,0,0,rectangle,13,-5,1,0,0,6,4,0.00051,13,-5,1,0,0,0,14,14,20,1,0,,,,,,,,,,,,,,,,,,,,,
,,,,,,,,,,,,,,,,,,,,,,,,,,,,,,,,,,,,,,,,,,5ed12d21e8cebc04aefac77c,60684b48bf2abe3d93bd1b67,2021-04-03_13h13.23.425,Colour_Similarity_Experiment,2020.2.10,Win32,60,60674ec340277cd6a308bc9f,21.43407216,16.80773423,16.68064232,16.68223214,16.68201158,16.68223214,,,,,,,,,,,,,,,,,,,,PF,weak,3,,,,,,,,7,0.81744,,,,,,,,,,,,,,,,,,,,,,,,,,,,2,weak,34,65,1,0,0,response1disk,9,178,-4,5,1,0,0,rectangle,-4,5,1,0,0,6,6,0.000515,-4,5,1,0,0,0,15,15,39,1,0,,,,,,,,,,,,,,,,,,,,,
,,,,,,,,,,,,,,,,,,,,,,,,,,,,,,,,,,,,,,,,,,5ed12d21e8cebc04aefac77c,60684b48bf2abe3d93bd1b67,2021-04-03_13h13.23.425,Colour_Similarity_Experiment,2020.2.10,Win32,60,60674ec340277cd6a308bc9f,21.43407216,16.80773423,16.68064232,16.68223214,16.68201158,16.68223214,,,,,,,,,,,,,,,,,,,,PF,weak,3,,,,,,,,2,2.485915,,,,,,,,,,,,,,,,,,,,,,,,,,,,8,weak,-40,-32,1,0,0,response5disk,2,179,6,12,1,0,0,rectangle,6,12,1,0,0,6,5,0.00055,6,12,1,0,0,0,16,16,83,1,0,,,,,,,,,,,,,,,,,,,,,
,,,,,,,,,,,,,,,,,,,,,,,,,,,,,,,,,,,,,,,,,,5ed12d21e8cebc04aefac77c,60684b48bf2abe3d93bd1b67,2021-04-03_13h13.23.425,Colour_Similarity_Experiment,2020.2.10,Win32,60,60674ec340277cd6a308bc9f,21.43407216,16.80773423,16.68064232,16.68223214,16.68201158,16.68223214,,,,,,,,,,,,,,,,,,,,PF,strong,3,,,,,,,,7,0.934205,,,,,,,,,,,,,,,,,,,,,,,,,,,,8,strong,33,63,1,0,0,response1disk,7,180,4,21,1,0,0,rectangle,4,21,1,0,0,6,1,0.00059,4,21,1,0,0,0,17,17,86,1,0,,,,,,,,,,,,,,,,,,,,,
,,,,,,,,,,,,,,,,,,,,,,,,,,,,,,,,,,,,,,,,,,5ed12d21e8cebc04aefac77c,60684b48bf2abe3d93bd1b67,2021-04-03_13h13.23.425,Colour_Similarity_Experiment,2020.2.10,Win32,60,60674ec340277cd6a308bc9f,21.43407216,16.80773423,16.68064232,16.68223214,16.68201158,16.68223214,,,,,,,,,,,,,,,,,,,,PF,strong,3,,,,,,,,6,0.917735,,,,,,,,,,,,,,,,,,,,,,,,,,,,4,strong,53,25,1,0,0,response1disk,5,181,11,-8,1,0,0,rectangle,11,-8,1,0,0,6,6,0.00052,11,-8,1,0,0,0,18,18,116,1,0,,,,,,,,,,,,,,,,,,,,,
,,,,,,,,,,,,,,,,,,,,,,,,,,,,,,,,,,,,,,,,,,5ed12d21e8cebc04aefac77c,60684b48bf2abe3d93bd1b67,2021-04-03_13h13.23.425,Colour_Similarity_Experiment,2020.2.10,Win32,60,60674ec340277cd6a308bc9f,21.43407216,16.80773423,16.68064232,16.68223214,16.68201158,16.68223214,,,,,,,,,,,,,,,,,,,,PF,strong,3,,,,,,,,7,1.451465,,,,,,,,,,,,,,,,,,,,,,,,,,,,2,strong,40,41,1,0,0,response1disk,5,182,7,8,1,0,0,rectangle,7,8,1,0,0,6,7,0.000875,7,8,1,0,0,0,19,19,80,1,0,,,,,,,,,,,,,,,,,,,,,
,,,,,,,,,,,,,,,,,,,,,,,,,,,,,,,,,,,,,,,,,,5ed12d21e8cebc04aefac77c,60684b48bf2abe3d93bd1b67,2021-04-03_13h13.23.425,Colour_Similarity_Experiment,2020.2.10,Win32,60,60674ec340277cd6a308bc9f,21.43407216,16.80773423,16.68064232,16.68223214,16.68201158,16.68223214,,,,,,,,,,,,,,,,,,,,PF,weak,3,,,,,,,,1,1.0009,,,,,,,,,,,,,,,,,,,,,,,,,,,,4,weak,-41,29,1,0,0,response7disk,5,183,4,6,1,0,0,rectangle,4,6,1,0,0,6,3,0.000585,4,6,1,0,0,0,20,20,49,1,0,,,,,,,,,,,,,,,,,,,,,
,,,,,,,,,,,,,,,,,,,,,,,,,,,,,,,,,,,,,,,,,,5ed12d21e8cebc04aefac77c,60684b48bf2abe3d93bd1b67,2021-04-03_13h13.23.425,Colour_Similarity_Experiment,2020.2.10,Win32,60,60674ec340277cd6a308bc9f,21.43407216,16.80773423,16.68064232,16.68223214,16.68201158,16.68223214,,,,,,,,,,,,,,,,,,,,PF,weak,3,,,,,,,,7,1.46824,,,,,,,,,,,,,,,,,,,,,,,,,,,,1,weak,30,64,1,0,0,response1disk,8,184,26,-15,1,0,0,rectangle,26,-15,1,0,0,6,4,0.0005,26,-15,1,0,0,0,21,21,65,1,0,,,,,,,,,,,,,,,,,,,,,
,,,,,,,,,,,,,,,,,,,,,,,,,,,,,,,,,,,,,,,,,,5ed12d21e8cebc04aefac77c,60684b48bf2abe3d93bd1b67,2021-04-03_13h13.23.425,Colour_Similarity_Experiment,2020.2.10,Win32,60,60674ec340277cd6a308bc9f,21.43407216,16.80773423,16.68064232,16.68223214,16.68201158,16.68223214,,,,,,,,,,,,,,,,,,,,PF,strong,3,,,,,,,,5,1.5181,,,,,,,,,,,,,,,,,,,,,,,,,,,,6,strong,40,-40,1,0,0,response3disk,6,185,18,-17,1,0,0,rectangle,18,-17,1,0,0,5,6,0.000485,18,-17,1,0,0,0,22,22,91,1,0,,,,,,,,,,,,,,,,,,,,,
,,,,,,,,,,,,,,,,,,,,,,,,,,,,,,,,,,,,,,,,,,5ed12d21e8cebc04aefac77c,60684b48bf2abe3d93bd1b67,2021-04-03_13h13.23.425,Colour_Similarity_Experiment,2020.2.10,Win32,60,60674ec340277cd6a308bc9f,21.43407216,16.80773423,16.68064232,16.68223214,16.68201158,16.68223214,,,,,,,,,,,,,,,,,,,,PF,strong,3,,,,,,,,2,1.13444,,,,,,,,,,,,,,,,,,,,,,,,,,,,8,strong,-34,-23,1,0,0,response5disk,3,186,-17,-1,1,0,0,rectangle,-17,-1,1,0,0,5,7,0.00052,-17,-1,1,0,0,0,23,23,154,1,0,,,,,,,,,,,,,,,,,,,,,
,,,,,,,,,,,,,,,,,,,,,,,,,,,,,,,,,,,,,,,,,,5ed12d21e8cebc04aefac77c,60684b48bf2abe3d93bd1b67,2021-04-03_13h13.23.425,Colour_Similarity_Experiment,2020.2.10,Win32,60,60674ec340277cd6a308bc9f,21.43407216,16.80773423,16.68064232,16.68223214,16.68201158,16.68223214,,,,,,,,,,,,,,,,,,,,PF,strong,3,,,,,,,,3,1.03441,,,,,,,,,,,,,,,,,,,,,,,,,,,,3,strong,-25,-48,1,0,0,response5disk,8,187,-1,-9,1,0,0,rectangle,-1,-9,1,0,0,5,5,0.000695,-1,-9,1,0,0,0,24,24,44,1,0,,,,,,,,,,,,,,,,,,,,,
,,,,,,,,,,,,,,,,,,,,,,,,,,,,,,,,,,,,,,,,,,5ed12d21e8cebc04aefac77c,60684b48bf2abe3d93bd1b67,2021-04-03_13h13.23.425,Colour_Similarity_Experiment,2020.2.10,Win32,60,60674ec340277cd6a308bc9f,21.43407216,16.80773423,16.68064232,16.68223214,16.68201158,16.68223214,,,,,,,,,,,,,,,,,,,,PF,weak,3,,,,,,,,3,2.302345,,,,,,,,,,,,,,,,,,,,,,,,,,,,8,weak,-43,-62,1,0,0,response5disk,6,188,-23,-2,1,0,0,rectangle,107,60,1,0,0,6,6,1.167985,38,-6,1,0,0,0,25,25,161,1,1,response1disk_3,rectangle,,,,,,,,,,,,,,,,,,,
,,,,,,,,,,,,,,,,,,,,,,,,,,,,,,,,,,,,,,,,,,5ed12d21e8cebc04aefac77c,60684b48bf2abe3d93bd1b67,2021-04-03_13h13.23.425,Colour_Similarity_Experiment,2020.2.10,Win32,60,60674ec340277cd6a308bc9f,21.43407216,16.80773423,16.68064232,16.68223214,16.68201158,16.68223214,,,,,,,,,,,,,,,,,,,,PF,strong,3,,,,,,,,3,1.868775,,,,,,,,,,,,,,,,,,,,,,,,,,,,3,strong,-51,-57,1,0,0,response5disk,7,189,-37,-11,1,0,0,rectangle,-37,-11,1,0,0,6,0,0.00052,-37,-11,1,0,0,0,26,26,118,1,0,,,,,,,,,,,,,,,,,,,,,
,,,,,,,,,,,,,,,,,,,,,,,,,,,,,,,,,,,,,,,,,,5ed12d21e8cebc04aefac77c,60684b48bf2abe3d93bd1b67,2021-04-03_13h13.23.425,Colour_Similarity_Experiment,2020.2.10,Win32,60,60674ec340277cd6a308bc9f,21.43407216,16.80773423,16.68064232,16.68223214,16.68201158,16.68223214,,,,,,,,,,,,,,,,,,,,PF,strong,3,,,,,,,,5,1.034485,,,,,,,,,,,,,,,,,,,,,,,,,,,,1,strong,59,-22,1,0,0,response3disk,6,190,23,5,1,0,0,rectangle,23,5,1,0,0,6,3,0.00051,23,5,1,0,0,0,27,27,58,1,0,,,,,,,,,,,,,,,,,,,,,
,,,,,,,,,,,,,,,,,,,,,,,,,,,,,,,,,,,,,,,,,,5ed12d21e8cebc04aefac77c,60684b48bf2abe3d93bd1b67,2021-04-03_13h13.23.425,Colour_Similarity_Experiment,2020.2.10,Win32,60,60674ec340277cd6a308bc9f,21.43407216,16.80773423,16.68064232,16.68223214,16.68201158,16.68223214,,,,,,,,,,,,,,,,,,,,PF,strong,3,,,,,,,,6,1.301225,,,,,,,,,,,,,,,,,,,,,,,,,,,,2,strong,72,23,1,0,0,response1disk,7,191,21,-1,1,0,0,rectangle,21,-1,1,0,0,6,5,0.000545,21,-1,1,0,0,0,28,28,63,1,0,,,,,,,,,,,,,,,,,,,,,
,,,,,,,,,,,,,,,,,,,,,,,,,,,,,,,,,,,,,,,,,,5ed12d21e8cebc04aefac77c,60684b48bf2abe3d93bd1b67,2021-04-03_13h13.23.425,Colour_Similarity_Experiment,2020.2.10,Win32,60,60674ec340277cd6a308bc9f,21.43407216,16.80773423,16.68064232,16.68223214,16.68201158,16.68223214,,,,,,,,,,,,,,,,,,,,PF,weak,3,,,,,,,,3,1.351265,,,,,,,,,,,,,,,,,,,,,,,,,,,,7,weak,-48,-67,1,0,0,response5disk,4,192,-25,7,1,0,0,rectangle,-25,7,1,0,0,6,0,0.00048,-25,7,1,0,0,0,29,29,43,1,0,,,,,,,,,,,,,,,,,,,,,
,,,,,,,,,,,,,,,,,,,,,,,,,,,,,,,,,,,,,,,,,,5ed12d21e8cebc04aefac77c,60684b48bf2abe3d93bd1b67,2021-04-03_13h13.23.425,Colour_Similarity_Experiment,2020.2.10,Win32,60,60674ec340277cd6a308bc9f,21.43407216,16.80773423,16.68064232,16.68223214,16.68201158,16.68223214,,,,,,,,,,,,,,,,,,,,PF,strong,3,,,,,,,,1,1.551535,,,,,,,,,,,,,,,,,,,,,,,,,,,,1,strong,-59,34,1,0,0,response7disk,9,193,-19,13,1,0,0,rectangle,-19,13,1,0,0,6,0,7.5E-05,-19,13,1,0,0,0,30,30,123,1,0,,,,,,,,,,,,,,,,,,,,,
