key_resp.keys,key_resp.rt,key_resp_16.keys,key_resp_16.rt,key_resp_2.keys,key_resp_2.rt,X Scale,ratio_pxpermm,screen_size_x,screen_size_y,testsize,key_resp_3.keys,key_resp_4.keys,key_resp_4.rt,line_size,key_resp_5.keys,key_resp_5.rt,key_resp_6.keys,key_resp_6.rt,key_resp_8.keys,key_resp_8.rt,key_resp_7.keys,key_resp_7.rt,key_resp_12.keys,key_resp_12.rt,key_resp_11.keys,key_resp_11.rt,key_resp_18.keys,key_resp_18.rt,key_resp_21.keys,key_resp_21.rt,key_resp_13.keys,key_resp_13.rt,key_resp_19.keys,key_resp_19.rt,ballposx,viewer_distance,trials.thisRepN,trials.thisTrialN,trials.thisN,trials.thisIndex,trials.ran,participant,session,date,expName,psychopyVersion,OS,frameRate,study_id,realFrameRate1,realFrameRate2,realFrameRate3,realFrameRate4,realFrameRate5,realFrameRate,viewerdistancecm,DVA_to_distance,radius_F,radius_P,r_F,R_P,key_resp_20.keys,key_resp_20.rt,key_resp_14.keys,key_resp_14.rt,key_resp_15.keys,key_resp_15.rt,key_resp_17.keys,key_resp_17.rt,key_resp_9.keys,key_resp_9.rt,key_resp_10.keys,key_resp_10.rt,Colour_1,Ecc,maskCon,mask_frames,mouse_5.x,mouse_5.y,mouse_5.leftButton,mouse_5.midButton,mouse_5.rightButton,mouse_5.clicked_name,Colour_2,similarity,response_time,mouse_10.x,mouse_10.y,mouse_10.leftButton,mouse_10.midButton,mouse_10.rightButton,mouse_10.clicked_name,mouse_7.x,mouse_7.y,mouse_7.leftButton,mouse_7.midButton,mouse_7.rightButton,mouse_7.clicked_name,catchprac,catchnumberprac,mouse_6.x,mouse_6.y,mouse_6.leftButton,mouse_6.midButton,mouse_6.rightButton,mouse_6.clicked_name,duringprac.thisRepN,duringprac.thisTrialN,duringprac.thisN,duringprac.thisIndex,duringprac.ran,key_resp_22.keys,key_resp_22.rt,Colour1,maskCon1,mouse.x,mouse.y,mouse.leftButton,mouse.midButton,mouse.rightButton,mouse.clicked_name,Colour2,trialnumber,mouse_2.x,mouse_2.y,mouse_2.leftButton,mouse_2.midButton,mouse_2.rightButton,mouse_2.clicked_name,mouse_3.x,mouse_3.y,mouse_3.leftButton,mouse_3.midButton,mouse_3.rightButton,catchresponse,catchnumber,response_time_catch,mouse_11.x,mouse_11.y,mouse_11.leftButton,mouse_11.midButton,mouse_11.rightButton,trials_2.thisRepN,trials_2.thisTrialN,trials_2.thisN,trials_2.thisIndex,trials_2.ran,Catch,mouse_3.clicked_name,mouse_11.clicked_name,trials_3.thisRepN,trials_3.thisTrialN,trials_3.thisN,trials_3.thisIndex,trials_3.ran,answer1,rt1,answer2,rt2,answer3,rt3,answer4,rt4,answer5,rt5,answer6,rt6,answer7,rt7
space,4.7255,space,2.274555,space,6.449295,51.1,5.11,281.8003914,176.1252446,1440,,space,28.503695,102.2,space,12.751755,space,1.099905,space,2.25809,space,3.383155,space,8.60888,space,8.655415,space,16.1907,space,14.589545,space,13.302685,return,5.470145,-170.64,608.6067661,0,0,0,0,1,5edcaf1d96a72797d4a1e76e,606842178a9cdac5528af625,2021-04-03_11h23.38.299,Colour_Similarity_Experiment,2020.2.10,MacIntel,60,60674ec340277cd6a308bc9f,16.96964824,16.8084058,16.70608481,16.71776801,16.70829751,16.71776801,,,,,,,,,,,,,,,,,,,,,,,,,,,,,,,,,,,,,,,,,,,,,,,,,,,,,,,,,,,,,,,,,,,,,,,,,,,,,,,,,,,,,,,,,,,,,,,,,,,,,,,,,,,,,,,,,,
,,,,,,,,,,,,,,,,,,,,,,,,,,,,,,,,,return,5.026765,-112.32,561.0685327,1,0,1,0,1,5edcaf1d96a72797d4a1e76e,606842178a9cdac5528af625,2021-04-03_11h23.38.299,Colour_Similarity_Experiment,2020.2.10,MacIntel,60,60674ec340277cd6a308bc9f,16.96964824,16.8084058,16.70608481,16.71776801,16.70829751,16.71776801,,,,,,,,,,,,,,,,,,,,,,,,,,,,,,,,,,,,,,,,,,,,,,,,,,,,,,,,,,,,,,,,,,,,,,,,,,,,,,,,,,,,,,,,,,,,,,,,,,,,,,,,,,,,,,,,,,
,,,,,,,,,,,,,,,,,,,,,,,,,,,,,,,,,return,4.879715,-92.88,545.2224548,2,0,2,0,1,5edcaf1d96a72797d4a1e76e,606842178a9cdac5528af625,2021-04-03_11h23.38.299,Colour_Similarity_Experiment,2020.2.10,MacIntel,60,60674ec340277cd6a308bc9f,16.96964824,16.8084058,16.70608481,16.71776801,16.70829751,16.71776801,,,,,,,,,,,,,,,,,,,,,,,,,,,,,,,,,,,,,,,,,,,,,,,,,,,,,,,,,,,,,,,,,,,,,,,,,,,,,,,,,,,,,,,,,,,,,,,,,,,,,,,,,,,,,,,,,,
,,,,,,,,,,,,,,,,,,,,,,,,,,,,,,,,,return,4.948335,-101.52,552.2651561,3,0,3,0,1,5edcaf1d96a72797d4a1e76e,606842178a9cdac5528af625,2021-04-03_11h23.38.299,Colour_Similarity_Experiment,2020.2.10,MacIntel,60,60674ec340277cd6a308bc9f,16.96964824,16.8084058,16.70608481,16.71776801,16.70829751,16.71776801,,,,,,,,,,,,,,,,,,,,,,,,,,,,,,,,,,,,,,,,,,,,,,,,,,,,,,,,,,,,,,,,,,,,,,,,,,,,,,,,,,,,,,,,,,,,,,,,,,,,,,,,,,,,,,,,,,
,,,,,,,,,,,,,,,,,,,,,,,,,,,,,,,,,return,4.691975,-69.12,525.8550264,4,0,4,0,1,5edcaf1d96a72797d4a1e76e,606842178a9cdac5528af625,2021-04-03_11h23.38.299,Colour_Similarity_Experiment,2020.2.10,MacIntel,60,60674ec340277cd6a308bc9f,16.96964824,16.8084058,16.70608481,16.71776801,16.70829751,16.71776801,,,,,,,,,,,,,,,,,,,,,,,,,,,,,,,,,,,,,,,,,,,,,,,,,,,,,,,,,,,,,,,,,,,,,,,,,,,,,,,,,,,,,,,,,,,,,,,,,,,,,,,,,,,,,,,,,,
,,,,,,,,,,,,,,,,,,,,,,,,,,,,,,,,,,,,,,,,,,5edcaf1d96a72797d4a1e76e,606842178a9cdac5528af625,2021-04-03_11h23.38.299,Colour_Similarity_Experiment,2020.2.10,MacIntel,60,60674ec340277cd6a308bc9f,16.96964824,16.8084058,16.70608481,16.71776801,16.70829751,16.71776801,55,9.600282277,73.58616365,490.5744244,49.05744244,220.758491,space,3.732395,space,31.525195,space,50.61949,space,4.04747,space,2.7748,space,3.40377,8,PF,weak,3,-51.6640625,22.8359375,1,0,0,response7disk_5,7,1,21.28877,3.00390625,0.95703125,1,0,0,rectangle_8,10.359375,54.40234375,1,0,0,response1disk_7,7,7,-0.6953125,0.91796875,1,0,0,rectangle_4,0,0,0,1,1,,,,,,,,,,,,,,,,,,,,,,,,,,,,,,,,,,,,,,,,,,,,,,,,,,,,,,,,,,
,,,,,,,,,,,,,,,,,,,,,,,,,,,,,,,,,,,,,,,,,,5edcaf1d96a72797d4a1e76e,606842178a9cdac5528af625,2021-04-03_11h23.38.299,Colour_Similarity_Experiment,2020.2.10,MacIntel,60,60674ec340277cd6a308bc9f,16.96964824,16.8084058,16.70608481,16.71776801,16.70829751,16.71776801,,,,,,,,,,,,,,,,,,,1,PF,weak,3,28.640625,40.65234375,1,0,0,response1disk_5,1,7,7.28477,-15.62109375,-2.828125,1,0,0,rectangle_8,-15.62109375,-2.828125,1,0,0,,,7,-15.62109375,-2.828125,1,0,0,,0,1,1,6,1,,,,,,,,,,,,,,,,,,,,,,,,,,,,,,,,,,,,,,,,,,,,,,,,,,,,,,,,,,
,,,,,,,,,,,,,,,,,,,,,,,,,,,,,,,,,,,,,,,,,,5edcaf1d96a72797d4a1e76e,606842178a9cdac5528af625,2021-04-03_11h23.38.299,Colour_Similarity_Experiment,2020.2.10,MacIntel,60,60674ec340277cd6a308bc9f,16.96964824,16.8084058,16.70608481,16.71776801,16.70829751,16.71776801,,,,,,,,,,,,,,,,,,,5,PF,strong,3,20.42578125,-47.47265625,1,0,0,response3disk_5,2,4,3.709825,-1.375,-3.3046875,1,0,0,rectangle_8,-1.375,-3.3046875,1,0,0,,,7,-1.375,-3.3046875,1,0,0,,0,2,2,2,1,,,,,,,,,,,,,,,,,,,,,,,,,,,,,,,,,,,,,,,,,,,,,,,,,,,,,,,,,,
,,,,,,,,,,,,,,,,,,,,,,,,,,,,,,,,,,,,,,,,,,5edcaf1d96a72797d4a1e76e,606842178a9cdac5528af625,2021-04-03_11h23.38.299,Colour_Similarity_Experiment,2020.2.10,MacIntel,60,60674ec340277cd6a308bc9f,16.96964824,16.8084058,16.70608481,16.71776801,16.70829751,16.71776801,,,,,,,,,,,,,,,,,,,5,PF,weak,3,22.99609375,58.2734375,1,0,0,response1disk_5,1,7,2.74197,12.3359375,-4.1328125,1,0,0,rectangle_8,18.12109375,55.48828125,1,0,0,response1disk_7,7,7,5.328125,-5.390625,1,0,0,rectangle_4,0,3,3,5,1,,,,,,,,,,,,,,,,,,,,,,,,,,,,,,,,,,,,,,,,,,,,,,,,,,,,,,,,,,
,,,,,,,,,,,,,,,,,,,,,,,,,,,,,,,,,,,,,,,,,,5edcaf1d96a72797d4a1e76e,606842178a9cdac5528af625,2021-04-03_11h23.38.299,Colour_Similarity_Experiment,2020.2.10,MacIntel,60,60674ec340277cd6a308bc9f,16.96964824,16.8084058,16.70608481,16.71776801,16.70829751,16.71776801,,,,,,,,,,,,,,,,,,,6,PF,strong,3,-44.8046875,-22.80078125,1,0,0,response5disk_5,5,2,3.507905,9.85546875,1.3125,1,0,0,rectangle_8,9.85546875,1.3125,1,0,0,,,7,9.85546875,1.3125,1,0,0,,0,4,4,3,1,,,,,,,,,,,,,,,,,,,,,,,,,,,,,,,,,,,,,,,,,,,,,,,,,,,,,,,,,,
,,,,,,,,,,,,,,,,,,,,,,,,,,,,,,,,,,,,,,,,,,5edcaf1d96a72797d4a1e76e,606842178a9cdac5528af625,2021-04-03_11h23.38.299,Colour_Similarity_Experiment,2020.2.10,MacIntel,60,60674ec340277cd6a308bc9f,16.96964824,16.8084058,16.70608481,16.71776801,16.70829751,16.71776801,,,,,,,,,,,,,,,,,,,8,PF,strong,3,22.7734375,-50.125,1,0,0,response3disk_5,4,4,4.194805,-2.88671875,-5.3046875,1,0,0,rectangle_8,-2.88671875,-5.3046875,1,0,0,,,7,-2.88671875,-5.3046875,1,0,0,,0,5,5,0,1,,,,,,,,,,,,,,,,,,,,,,,,,,,,,,,,,,,,,,,,,,,,,,,,,,,,,,,,,,
,,,,,,,,,,,,,,,,,,,,,,,,,,,,,,,,,,,,,,,,,,5edcaf1d96a72797d4a1e76e,606842178a9cdac5528af625,2021-04-03_11h23.38.299,Colour_Similarity_Experiment,2020.2.10,MacIntel,60,60674ec340277cd6a308bc9f,16.96964824,16.8084058,16.70608481,16.71776801,16.70829751,16.71776801,,,,,,,,,,,,,,,,,,,4,PF,weak,3,-35.56640625,-44.421875,1,0,0,response5disk_5,6,3,2.354955,-3.9296875,-0.25,1,0,0,rectangle_8,-3.9296875,-0.25,1,0,0,,,7,-3.9296875,-0.25,1,0,0,,0,6,6,4,1,,,,,,,,,,,,,,,,,,,,,,,,,,,,,,,,,,,,,,,,,,,,,,,,,,,,,,,,,,
,,,,,,,,,,,,,,,,,,,,,,,,,,,,,,,,,,,,,,,,,,5edcaf1d96a72797d4a1e76e,606842178a9cdac5528af625,2021-04-03_11h23.38.299,Colour_Similarity_Experiment,2020.2.10,MacIntel,60,60674ec340277cd6a308bc9f,16.96964824,16.8084058,16.70608481,16.71776801,16.70829751,16.71776801,,,,,,,,,,,,,,,,,,,,PF,strong,3,,,,,,,,2,2.20125,,,,,,,,,,,,,,,,,,,,,,,,,,space,2.137015,7,strong,-55.01953125,-26.36328125,1,0,0,response5disk,5,1,16.7421875,-4.03515625,1,0,0,rectangle,16.7421875,-4.03515625,1,0,0,,5,0.00319,16.7421875,-4.03515625,1,0,0,0,0,0,156,1,0,,,,,,,,,,,,,,,,,,,,,
,,,,,,,,,,,,,,,,,,,,,,,,,,,,,,,,,,,,,,,,,,5edcaf1d96a72797d4a1e76e,606842178a9cdac5528af625,2021-04-03_11h23.38.299,Colour_Similarity_Experiment,2020.2.10,MacIntel,60,60674ec340277cd6a308bc9f,16.96964824,16.8084058,16.70608481,16.71776801,16.70829751,16.71776801,,,,,,,,,,,,,,,,,,,,PF,weak,3,,,,,,,,7,1.87197,,,,,,,,,,,,,,,,,,,,,,,,,,,,9,weak,29.66796875,59.0234375,1,0,0,response1disk,7,2,-6.0546875,-10.5625,1,0,0,rectangle,-6.0546875,-10.5625,1,0,0,,7,0.007325,-6.0546875,-10.5625,1,0,0,0,1,1,121,1,0,,,,,,,,,,,,,,,,,,,,,
,,,,,,,,,,,,,,,,,,,,,,,,,,,,,,,,,,,,,,,,,,5edcaf1d96a72797d4a1e76e,606842178a9cdac5528af625,2021-04-03_11h23.38.299,Colour_Similarity_Experiment,2020.2.10,MacIntel,60,60674ec340277cd6a308bc9f,16.96964824,16.8084058,16.70608481,16.71776801,16.70829751,16.71776801,,,,,,,,,,,,,,,,,,,,PF,strong,3,,,,,,,,5,4.09456,,,,,,,,,,,,,,,,,,,,,,,,,,,,1,strong,48.7734375,-22.17578125,1,0,0,response3disk,8,3,2.86328125,0.10546875,1,0,0,rectangle,2.86328125,0.10546875,1,0,0,,5,0.00441,2.86328125,0.10546875,1,0,0,0,2,2,27,1,0,,,,,,,,,,,,,,,,,,,,,
,,,,,,,,,,,,,,,,,,,,,,,,,,,,,,,,,,,,,,,,,,5edcaf1d96a72797d4a1e76e,606842178a9cdac5528af625,2021-04-03_11h23.38.299,Colour_Similarity_Experiment,2020.2.10,MacIntel,60,60674ec340277cd6a308bc9f,16.96964824,16.8084058,16.70608481,16.71776801,16.70829751,16.71776801,,,,,,,,,,,,,,,,,,,,PF,strong,3,,,,,,,,7,2.82653,,,,,,,,,,,,,,,,,,,,,,,,,,,,4,strong,33.9296875,45.49609375,1,0,0,response1disk,2,4,13.43359375,-0.32421875,1,0,0,rectangle,13.43359375,-0.32421875,1,0,0,,6,0.00342,13.43359375,-0.32421875,1,0,0,0,3,3,13,1,0,,,,,,,,,,,,,,,,,,,,,
,,,,,,,,,,,,,,,,,,,,,,,,,,,,,,,,,,,,,,,,,,5edcaf1d96a72797d4a1e76e,606842178a9cdac5528af625,2021-04-03_11h23.38.299,Colour_Similarity_Experiment,2020.2.10,MacIntel,60,60674ec340277cd6a308bc9f,16.96964824,16.8084058,16.70608481,16.71776801,16.70829751,16.71776801,,,,,,,,,,,,,,,,,,,,PF,weak,3,,,,,,,,3,1.702945,,,,,,,,,,,,,,,,,,,,,,,,,,,,3,weak,-34.5234375,-46.5390625,1,0,0,response5disk,3,5,11.43359375,1.8984375,1,0,0,rectangle,11.43359375,1.8984375,1,0,0,,4,0.00387,11.43359375,1.8984375,1,0,0,0,4,4,4,1,0,,,,,,,,,,,,,,,,,,,,,
,,,,,,,,,,,,,,,,,,,,,,,,,,,,,,,,,,,,,,,,,,5edcaf1d96a72797d4a1e76e,606842178a9cdac5528af625,2021-04-03_11h23.38.299,Colour_Similarity_Experiment,2020.2.10,MacIntel,60,60674ec340277cd6a308bc9f,16.96964824,16.8084058,16.70608481,16.71776801,16.70829751,16.71776801,,,,,,,,,,,,,,,,,,,,PF,strong,3,,,,,,,,4,1.772185,,,,,,,,,,,,,,,,,,,,,,,,,,,,5,strong,32.8828125,-53.15625,1,0,0,response3disk,3,6,16.171875,-0.93359375,1,0,0,rectangle,16.171875,-0.93359375,1,0,0,,7,0.004465,16.171875,-0.93359375,1,0,0,0,5,5,25,1,0,,,,,,,,,,,,,,,,,,,,,
,,,,,,,,,,,,,,,,,,,,,,,,,,,,,,,,,,,,,,,,,,5edcaf1d96a72797d4a1e76e,606842178a9cdac5528af625,2021-04-03_11h23.38.299,Colour_Similarity_Experiment,2020.2.10,MacIntel,60,60674ec340277cd6a308bc9f,16.96964824,16.8084058,16.70608481,16.71776801,16.70829751,16.71776801,,,,,,,,,,,,,,,,,,,,PF,weak,3,,,,,,,,4,3.492085,,,,,,,,,,,,,,,,,,,,,,,,,,,,8,weak,29.40234375,-55.8515625,1,0,0,response3disk,4,7,6.7734375,-1.28125,1,0,0,rectangle,6.7734375,-1.28125,1,0,0,,0,0.004935,6.7734375,-1.28125,1,0,0,0,6,6,78,1,0,,,,,,,,,,,,,,,,,,,,,
,,,,,,,,,,,,,,,,,,,,,,,,,,,,,,,,,,,,,,,,,,5edcaf1d96a72797d4a1e76e,606842178a9cdac5528af625,2021-04-03_11h23.38.299,Colour_Similarity_Experiment,2020.2.10,MacIntel,60,60674ec340277cd6a308bc9f,16.96964824,16.8084058,16.70608481,16.71776801,16.70829751,16.71776801,,,,,,,,,,,,,,,,,,,,PF,weak,3,,,,,,,,2,2.1567,,,,,,,,,,,,,,,,,,,,,,,,,,,,5,weak,-50.58203125,-20.33984375,1,0,0,response5disk,3,8,23.7890625,-2.93359375,1,0,0,rectangle,23.7890625,-2.93359375,1,0,0,,1,0.004295,23.7890625,-2.93359375,1,0,0,0,7,7,109,1,0,,,,,,,,,,,,,,,,,,,,,
,,,,,,,,,,,,,,,,,,,,,,,,,,,,,,,,,,,,,,,,,,5edcaf1d96a72797d4a1e76e,606842178a9cdac5528af625,2021-04-03_11h23.38.299,Colour_Similarity_Experiment,2020.2.10,MacIntel,60,60674ec340277cd6a308bc9f,16.96964824,16.8084058,16.70608481,16.71776801,16.70829751,16.71776801,,,,,,,,,,,,,,,,,,,,PF,strong,3,,,,,,,,5,2.188045,,,,,,,,,,,,,,,,,,,,,,,,,,,,7,strong,55.12109375,-25.4296875,1,0,0,response3disk,8,9,2.68359375,0.33203125,1,0,0,rectangle,-42.2265625,22.875,1,0,0,1,1,3.341895,13.0390625,-2.1015625,1,0,0,0,8,8,97,1,1,response7disk_3,rectangle,,,,,,,,,,,,,,,,,,,
,,,,,,,,,,,,,,,,,,,,,,,,,,,,,,,,,,,,,,,,,,5edcaf1d96a72797d4a1e76e,606842178a9cdac5528af625,2021-04-03_11h23.38.299,Colour_Similarity_Experiment,2020.2.10,MacIntel,60,60674ec340277cd6a308bc9f,16.96964824,16.8084058,16.70608481,16.71776801,16.70829751,16.71776801,,,,,,,,,,,,,,,,,,,,PF,strong,3,,,,,,,,2,1.53677,,,,,,,,,,,,,,,,,,,,,,,,,,,,9,strong,-37.390625,-16.5546875,1,0,0,response5disk,6,10,10.26171875,-2.28125,1,0,0,rectangle,10.26171875,-2.28125,1,0,0,1,1,0.00037,10.26171875,-2.28125,1,0,0,0,9,9,117,1,0,,,,,,,,,,,,,,,,,,,,,
,,,,,,,,,,,,,,,,,,,,,,,,,,,,,,,,,,,,,,,,,,5edcaf1d96a72797d4a1e76e,606842178a9cdac5528af625,2021-04-03_11h23.38.299,Colour_Similarity_Experiment,2020.2.10,MacIntel,60,60674ec340277cd6a308bc9f,16.96964824,16.8084058,16.70608481,16.71776801,16.70829751,16.71776801,,,,,,,,,,,,,,,,,,,,PF,weak,3,,,,,,,,7,1.48672,,,,,,,,,,,,,,,,,,,,,,,,,,,,3,weak,30.453125,41.7578125,1,0,0,response1disk,9,11,7.12890625,-9.6796875,1,0,0,rectangle,7.12890625,-9.6796875,1,0,0,1,5,0.004725,7.12890625,-9.6796875,1,0,0,0,10,10,79,1,0,,,,,,,,,,,,,,,,,,,,,
,,,,,,,,,,,,,,,,,,,,,,,,,,,,,,,,,,,,,,,,,,5edcaf1d96a72797d4a1e76e,606842178a9cdac5528af625,2021-04-03_11h23.38.299,Colour_Similarity_Experiment,2020.2.10,MacIntel,60,60674ec340277cd6a308bc9f,16.96964824,16.8084058,16.70608481,16.71776801,16.70829751,16.71776801,,,,,,,,,,,,,,,,,,,,PF,strong,3,,,,,,,,7,1.270015,,,,,,,,,,,,,,,,,,,,,,,,,,,,3,strong,29.71484375,56.81640625,1,0,0,response1disk,1,12,18.6640625,3.2890625,1,0,0,rectangle,18.6640625,3.2890625,1,0,0,1,3,0.00886,18.6640625,3.2890625,1,0,0,0,11,11,125,1,0,,,,,,,,,,,,,,,,,,,,,
,,,,,,,,,,,,,,,,,,,,,,,,,,,,,,,,,,,,,,,,,,5edcaf1d96a72797d4a1e76e,606842178a9cdac5528af625,2021-04-03_11h23.38.299,Colour_Similarity_Experiment,2020.2.10,MacIntel,60,60674ec340277cd6a308bc9f,16.96964824,16.8084058,16.70608481,16.71776801,16.70829751,16.71776801,,,,,,,,,,,,,,,,,,,,PF,strong,3,,,,,,,,5,1.87115,,,,,,,,,,,,,,,,,,,,,,,,,,,,9,strong,48.42578125,-30.9609375,1,0,0,response3disk,3,13,7.734375,-2.06640625,1,0,0,rectangle,7.734375,-2.06640625,1,0,0,1,7,0.00387,7.734375,-2.06640625,1,0,0,0,12,12,141,1,0,,,,,,,,,,,,,,,,,,,,,
,,,,,,,,,,,,,,,,,,,,,,,,,,,,,,,,,,,,,,,,,,5edcaf1d96a72797d4a1e76e,606842178a9cdac5528af625,2021-04-03_11h23.38.299,Colour_Similarity_Experiment,2020.2.10,MacIntel,60,60674ec340277cd6a308bc9f,16.96964824,16.8084058,16.70608481,16.71776801,16.70829751,16.71776801,,,,,,,,,,,,,,,,,,,,PF,weak,3,,,,,,,,6,2.05563,,,,,,,,,,,,,,,,,,,,,,,,,,,,2,weak,56.12890625,10.81640625,1,0,0,response1disk,3,14,-2.70703125,-13.6875,1,0,0,rectangle,-2.70703125,-13.6875,1,0,0,1,3,0.00435,-2.70703125,-13.6875,1,0,0,0,13,13,69,1,0,,,,,,,,,,,,,,,,,,,,,
,,,,,,,,,,,,,,,,,,,,,,,,,,,,,,,,,,,,,,,,,,5edcaf1d96a72797d4a1e76e,606842178a9cdac5528af625,2021-04-03_11h23.38.299,Colour_Similarity_Experiment,2020.2.10,MacIntel,60,60674ec340277cd6a308bc9f,16.96964824,16.8084058,16.70608481,16.71776801,16.70829751,16.71776801,,,,,,,,,,,,,,,,,,,,PF,strong,3,,,,,,,,5,1.92145,,,,,,,,,,,,,,,,,,,,,,,,,,,,8,strong,48.68359375,-30.79296875,1,0,0,response3disk,4,15,19.13671875,-5.7265625,1,0,0,rectangle,19.13671875,-5.7265625,1,0,0,1,7,0.00438,19.13671875,-5.7265625,1,0,0,0,14,14,88,1,0,,,,,,,,,,,,,,,,,,,,,
,,,,,,,,,,,,,,,,,,,,,,,,,,,,,,,,,,,,,,,,,,5edcaf1d96a72797d4a1e76e,606842178a9cdac5528af625,2021-04-03_11h23.38.299,Colour_Similarity_Experiment,2020.2.10,MacIntel,60,60674ec340277cd6a308bc9f,16.96964824,16.8084058,16.70608481,16.71776801,16.70829751,16.71776801,,,,,,,,,,,,,,,,,,,,PF,strong,3,,,,,,,,6,2.206895,,,,,,,,,,,,,,,,,,,,,,,,,,,,5,strong,52.98828125,15.46875,1,0,0,response1disk,5,16,23.484375,3.62890625,1,0,0,rectangle,23.484375,3.62890625,1,0,0,1,1,0.004755,23.484375,3.62890625,1,0,0,0,15,15,19,1,0,,,,,,,,,,,,,,,,,,,,,
,,,,,,,,,,,,,,,,,,,,,,,,,,,,,,,,,,,,,,,,,,5edcaf1d96a72797d4a1e76e,606842178a9cdac5528af625,2021-04-03_11h23.38.299,Colour_Similarity_Experiment,2020.2.10,MacIntel,60,60674ec340277cd6a308bc9f,16.96964824,16.8084058,16.70608481,16.71776801,16.70829751,16.71776801,,,,,,,,,,,,,,,,,,,,PF,strong,3,,,,,,,,5,1.75088,,,,,,,,,,,,,,,,,,,,,,,,,,,,2,strong,43.98046875,-24.22265625,1,0,0,response3disk,8,17,16.82421875,-4.421875,1,0,0,rectangle,16.82421875,-4.421875,1,0,0,1,7,0.005575,16.82421875,-4.421875,1,0,0,0,16,16,62,1,0,,,,,,,,,,,,,,,,,,,,,
,,,,,,,,,,,,,,,,,,,,,,,,,,,,,,,,,,,,,,,,,,5edcaf1d96a72797d4a1e76e,606842178a9cdac5528af625,2021-04-03_11h23.38.299,Colour_Similarity_Experiment,2020.2.10,MacIntel,60,60674ec340277cd6a308bc9f,16.96964824,16.8084058,16.70608481,16.71776801,16.70829751,16.71776801,,,,,,,,,,,,,,,,,,,,PF,strong,3,,,,,,,,3,1.45413,,,,,,,,,,,,,,,,,,,,,,,,,,,,5,strong,-29.12890625,-43.0234375,1,0,0,response5disk,6,18,-7.6328125,-6.51171875,1,0,0,rectangle,-7.6328125,-6.51171875,1,0,0,1,6,0.00355,-7.6328125,-6.51171875,1,0,0,0,17,17,12,1,0,,,,,,,,,,,,,,,,,,,,,
,,,,,,,,,,,,,,,,,,,,,,,,,,,,,,,,,,,,,,,,,,5edcaf1d96a72797d4a1e76e,606842178a9cdac5528af625,2021-04-03_11h23.38.299,Colour_Similarity_Experiment,2020.2.10,MacIntel,60,60674ec340277cd6a308bc9f,16.96964824,16.8084058,16.70608481,16.71776801,16.70829751,16.71776801,,,,,,,,,,,,,,,,,,,,PF,strong,3,,,,,,,,2,1.403305,,,,,,,,,,,,,,,,,,,,,,,,,,,,8,strong,-41.40625,-29.578125,1,0,0,response5disk,7,19,1.0703125,-12.16796875,1,0,0,rectangle,1.0703125,-12.16796875,1,0,0,1,1,0.00277,1.0703125,-12.16796875,1,0,0,0,18,18,86,1,0,,,,,,,,,,,,,,,,,,,,,
,,,,,,,,,,,,,,,,,,,,,,,,,,,,,,,,,,,,,,,,,,5edcaf1d96a72797d4a1e76e,606842178a9cdac5528af625,2021-04-03_11h23.38.299,Colour_Similarity_Experiment,2020.2.10,MacIntel,60,60674ec340277cd6a308bc9f,16.96964824,16.8084058,16.70608481,16.71776801,16.70829751,16.71776801,,,,,,,,,,,,,,,,,,,,PF,strong,3,,,,,,,,7,1.97081,,,,,,,,,,,,,,,,,,,,,,,,,,,,5,strong,33.58203125,38.08984375,1,0,0,response1disk,2,20,22.09375,-5.9921875,1,0,0,rectangle,-43.01171875,16.19921875,1,0,0,1,1,2.02202,18.9140625,-3.59765625,1,0,0,0,19,19,55,1,1,response7disk_3,rectangle,,,,,,,,,,,,,,,,,,,
,,,,,,,,,,,,,,,,,,,,,,,,,,,,,,,,,,,,,,,,,,5edcaf1d96a72797d4a1e76e,606842178a9cdac5528af625,2021-04-03_11h23.38.299,Colour_Similarity_Experiment,2020.2.10,MacIntel,60,60674ec340277cd6a308bc9f,16.96964824,16.8084058,16.70608481,16.71776801,16.70829751,16.71776801,,,,,,,,,,,,,,,,,,,,PF,weak,3,,,,,,,,5,1.770555,,,,,,,,,,,,,,,,,,,,,,,,,,,,8,weak,45.328125,-25.36328125,1,0,0,response3disk,8,21,10.12109375,-3.33984375,1,0,0,rectangle,10.12109375,-3.33984375,1,0,0,1,6,0.00396,10.12109375,-3.33984375,1,0,0,0,20,20,153,1,0,,,,,,,,,,,,,,,,,,,,,
,,,,,,,,,,,,,,,,,,,,,,,,,,,,,,,,,,,,,,,,,,5edcaf1d96a72797d4a1e76e,606842178a9cdac5528af625,2021-04-03_11h23.38.299,Colour_Similarity_Experiment,2020.2.10,MacIntel,60,60674ec340277cd6a308bc9f,16.96964824,16.8084058,16.70608481,16.71776801,16.70829751,16.71776801,,,,,,,,,,,,,,,,,,,,PF,weak,3,,,,,,,,7,1.00191,,,,,,,,,,,,,,,,,,,,,,,,,,,,2,weak,21.56640625,38.6953125,1,0,0,response1disk,7,22,19.51953125,-6.734375,1,0,0,rectangle,19.51953125,-6.734375,1,0,0,1,2,0.00502,19.51953125,-6.734375,1,0,0,0,21,21,107,1,0,,,,,,,,,,,,,,,,,,,,,
,,,,,,,,,,,,,,,,,,,,,,,,,,,,,,,,,,,,,,,,,,5edcaf1d96a72797d4a1e76e,606842178a9cdac5528af625,2021-04-03_11h23.38.299,Colour_Similarity_Experiment,2020.2.10,MacIntel,60,60674ec340277cd6a308bc9f,16.96964824,16.8084058,16.70608481,16.71776801,16.70829751,16.71776801,,,,,,,,,,,,,,,,,,,,PF,strong,3,,,,,,,,7,1.31961,,,,,,,,,,,,,,,,,,,,,,,,,,,,8,strong,29.83203125,39.39453125,1,0,0,response1disk,1,23,20.78125,-10.60546875,1,0,0,rectangle,20.78125,-10.60546875,1,0,0,5,1,0.00453,20.78125,-10.60546875,1,0,0,0,22,22,20,1,0,,,,,,,,,,,,,,,,,,,,,
,,,,,,,,,,,,,,,,,,,,,,,,,,,,,,,,,,,,,,,,,,5edcaf1d96a72797d4a1e76e,606842178a9cdac5528af625,2021-04-03_11h23.38.299,Colour_Similarity_Experiment,2020.2.10,MacIntel,60,60674ec340277cd6a308bc9f,16.96964824,16.8084058,16.70608481,16.71776801,16.70829751,16.71776801,,,,,,,,,,,,,,,,,,,,PF,weak,3,,,,,,,,4,3.308405,,,,,,,,,,,,,,,,,,,,,,,,,,,,2,weak,16.42578125,-52.7265625,1,0,0,response3disk,1,24,16.42578125,-3.76953125,1,0,0,rectangle,16.42578125,-3.76953125,1,0,0,5,5,0.004535,16.42578125,-3.76953125,1,0,0,0,23,23,9,1,0,,,,,,,,,,,,,,,,,,,,,
,,,,,,,,,,,,,,,,,,,,,,,,,,,,,,,,,,,,,,,,,,5edcaf1d96a72797d4a1e76e,606842178a9cdac5528af625,2021-04-03_11h23.38.299,Colour_Similarity_Experiment,2020.2.10,MacIntel,60,60674ec340277cd6a308bc9f,16.96964824,16.8084058,16.70608481,16.71776801,16.70829751,16.71776801,,,,,,,,,,,,,,,,,,,,PF,strong,3,,,,,,,,4,1.42013,,,,,,,,,,,,,,,,,,,,,,,,,,,,5,strong,31.046875,-46.37109375,1,0,0,response3disk,4,25,20.99609375,-14.6875,1,0,0,rectangle,20.99609375,-14.6875,1,0,0,5,3,0.00253,20.99609375,-14.6875,1,0,0,0,24,24,8,1,0,,,,,,,,,,,,,,,,,,,,,
,,,,,,,,,,,,,,,,,,,,,,,,,,,,,,,,,,,,,,,,,,5edcaf1d96a72797d4a1e76e,606842178a9cdac5528af625,2021-04-03_11h23.38.299,Colour_Similarity_Experiment,2020.2.10,MacIntel,60,60674ec340277cd6a308bc9f,16.96964824,16.8084058,16.70608481,16.71776801,16.70829751,16.71776801,,,,,,,,,,,,,,,,,,,,PF,strong,3,,,,,,,,7,1.805325,,,,,,,,,,,,,,,,,,,,,,,,,,,,3,strong,31.44140625,35.75,1,0,0,response1disk,7,26,20.6484375,-7.37890625,1,0,0,rectangle,20.6484375,-7.37890625,1,0,0,5,6,0.00401,20.6484375,-7.37890625,1,0,0,0,25,25,118,1,0,,,,,,,,,,,,,,,,,,,,,
,,,,,,,,,,,,,,,,,,,,,,,,,,,,,,,,,,,,,,,,,,5edcaf1d96a72797d4a1e76e,606842178a9cdac5528af625,2021-04-03_11h23.38.299,Colour_Similarity_Experiment,2020.2.10,MacIntel,60,60674ec340277cd6a308bc9f,16.96964824,16.8084058,16.70608481,16.71776801,16.70829751,16.71776801,,,,,,,,,,,,,,,,,,,,PF,strong,3,,,,,,,,7,1.052,,,,,,,,,,,,,,,,,,,,,,,,,,,,7,strong,23.43359375,44.80078125,1,0,0,response1disk,2,27,19.38671875,-1.45703125,1,0,0,rectangle,19.38671875,-1.45703125,1,0,0,5,0,0.00431,19.38671875,-1.45703125,1,0,0,0,26,26,138,1,0,,,,,,,,,,,,,,,,,,,,,
,,,,,,,,,,,,,,,,,,,,,,,,,,,,,,,,,,,,,,,,,,5edcaf1d96a72797d4a1e76e,606842178a9cdac5528af625,2021-04-03_11h23.38.299,Colour_Similarity_Experiment,2020.2.10,MacIntel,60,60674ec340277cd6a308bc9f,16.96964824,16.8084058,16.70608481,16.71776801,16.70829751,16.71776801,,,,,,,,,,,,,,,,,,,,PF,weak,3,,,,,,,,7,1.002585,,,,,,,,,,,,,,,,,,,,,,,,,,,,4,weak,24.26171875,61.1640625,1,0,0,response1disk,1,28,15.6484375,-6.7265625,1,0,0,rectangle,15.6484375,-6.7265625,1,0,0,5,1,0.004095,15.6484375,-6.7265625,1,0,0,0,27,27,115,1,0,,,,,,,,,,,,,,,,,,,,,
,,,,,,,,,,,,,,,,,,,,,,,,,,,,,,,,,,,,,,,,,,5edcaf1d96a72797d4a1e76e,606842178a9cdac5528af625,2021-04-03_11h23.38.299,Colour_Similarity_Experiment,2020.2.10,MacIntel,60,60674ec340277cd6a308bc9f,16.96964824,16.8084058,16.70608481,16.71776801,16.70829751,16.71776801,,,,,,,,,,,,,,,,,,,,PF,weak,3,,,,,,,,7,0.83585,,,,,,,,,,,,,,,,,,,,,,,,,,,,1,weak,29.57421875,51.11328125,1,0,0,response1disk,6,29,10.1640625,-0.76171875,1,0,0,rectangle,10.1640625,-0.76171875,1,0,0,5,2,0.004395,10.1640625,-0.76171875,1,0,0,0,28,28,144,1,0,,,,,,,,,,,,,,,,,,,,,
,,,,,,,,,,,,,,,,,,,,,,,,,,,,,,,,,,,,,,,,,,5edcaf1d96a72797d4a1e76e,606842178a9cdac5528af625,2021-04-03_11h23.38.299,Colour_Similarity_Experiment,2020.2.10,MacIntel,60,60674ec340277cd6a308bc9f,16.96964824,16.8084058,16.70608481,16.71776801,16.70829751,16.71776801,,,,,,,,,,,,,,,,,,,,PF,strong,3,,,,,,,,7,1.256545,,,,,,,,,,,,,,,,,,,,,,,,,,,,9,strong,20.95703125,47.890625,1,0,0,response1disk,1,30,20.95703125,0.23828125,1,0,0,rectangle,20.95703125,0.23828125,1,0,0,5,3,0.004305,20.95703125,0.23828125,1,0,0,0,29,29,111,1,0,,,,,,,,,,,,,,,,,,,,,
,,,,,,,,,,,,,,,,,,,,,,,,,,,,,,,,,,,,,,,,,,5edcaf1d96a72797d4a1e76e,606842178a9cdac5528af625,2021-04-03_11h23.38.299,Colour_Similarity_Experiment,2020.2.10,MacIntel,60,60674ec340277cd6a308bc9f,16.96964824,16.8084058,16.70608481,16.71776801,16.70829751,16.71776801,,,,,,,,,,,,,,,,,,,,PF,strong,3,,,,,,,,5,1.653605,,,,,,,,,,,,,,,,,,,,,,,,,,,,7,strong,43.28515625,-28.66015625,1,0,0,response3disk,3,31,-4.3671875,-6.7265625,1,0,0,rectangle,-4.3671875,-6.7265625,1,0,0,5,0,0.00355,-4.3671875,-6.7265625,1,0,0,0,30,30,73,1,0,,,,,,,,,,,,,,,,,,,,,
,,,,,,,,,,,,,,,,,,,,,,,,,,,,,,,,,,,,,,,,,,5edcaf1d96a72797d4a1e76e,606842178a9cdac5528af625,2021-04-03_11h23.38.299,Colour_Similarity_Experiment,2020.2.10,MacIntel,60,60674ec340277cd6a308bc9f,16.96964824,16.8084058,16.70608481,16.71776801,16.70829751,16.71776801,,,,,,,,,,,,,,,,,,,,PF,strong,3,,,,,,,,7,1.020105,,,,,,,,,,,,,,,,,,,,,,,,,,,,3,strong,29.40234375,57.3359375,1,0,0,response1disk,9,32,15.51953125,-7.02734375,1,0,0,rectangle,15.51953125,-7.02734375,1,0,0,5,6,0.00431,15.51953125,-7.02734375,1,0,0,0,31,31,143,1,0,,,,,,,,,,,,,,,,,,,,,
,,,,,,,,,,,,,,,,,,,,,,,,,,,,,,,,,,,,,,,,,,5edcaf1d96a72797d4a1e76e,606842178a9cdac5528af625,2021-04-03_11h23.38.299,Colour_Similarity_Experiment,2020.2.10,MacIntel,60,60674ec340277cd6a308bc9f,16.96964824,16.8084058,16.70608481,16.71776801,16.70829751,16.71776801,,,,,,,,,,,,,,,,,,,,PF,weak,3,,,,,,,,5,1.43749,,,,,,,,,,,,,,,,,,,,,,,,,,,,8,weak,53.90625,-26.9609375,1,0,0,response3disk,3,33,7.34375,-12.33984375,1,0,0,rectangle,7.34375,-12.33984375,1,0,0,5,2,0.004895,7.34375,-12.33984375,1,0,0,0,32,32,71,1,0,,,,,,,,,,,,,,,,,,,,,
,,,,,,,,,,,,,,,,,,,,,,,,,,,,,,,,,,,,,,,,,,5edcaf1d96a72797d4a1e76e,606842178a9cdac5528af625,2021-04-03_11h23.38.299,Colour_Similarity_Experiment,2020.2.10,MacIntel,60,60674ec340277cd6a308bc9f,16.96964824,16.8084058,16.70608481,16.71776801,16.70829751,16.71776801,,,,,,,,,,,,,,,,,,,,PF,weak,3,,,,,,,,1,2.724885,,,,,,,,,,,,,,,,,,,,,,,,,,,,4,weak,-49.75390625,12.2890625,1,0,0,response7disk,5,34,-11.546875,2.54296875,1,0,0,rectangle,-11.546875,2.54296875,1,0,0,5,6,0.004555,-11.546875,2.54296875,1,0,0,0,33,33,49,1,0,,,,,,,,,,,,,,,,,,,,,
,,,,,,,,,,,,,,,,,,,,,,,,,,,,,,,,,,,,,,,,,,5edcaf1d96a72797d4a1e76e,606842178a9cdac5528af625,2021-04-03_11h23.38.299,Colour_Similarity_Experiment,2020.2.10,MacIntel,60,60674ec340277cd6a308bc9f,16.96964824,16.8084058,16.70608481,16.71776801,16.70829751,16.71776801,,,,,,,,,,,,,,,,,,,,PF,strong,3,,,,,,,,4,1.787635,,,,,,,,,,,,,,,,,,,,,,,,,,,,8,strong,15.9140625,-51.421875,1,0,0,response3disk,6,35,4.078125,-10.16796875,1,0,0,rectangle,4.078125,-10.16796875,1,0,0,5,1,0.004685,4.078125,-10.16796875,1,0,0,0,34,34,37,1,0,,,,,,,,,,,,,,,,,,,,,
,,,,,,,,,,,,,,,,,,,,,,,,,,,,,,,,,,,,,,,,,,5edcaf1d96a72797d4a1e76e,606842178a9cdac5528af625,2021-04-03_11h23.38.299,Colour_Similarity_Experiment,2020.2.10,MacIntel,60,60674ec340277cd6a308bc9f,16.96964824,16.8084058,16.70608481,16.71776801,16.70829751,16.71776801,,,,,,,,,,,,,,,,,,,,PF,weak,3,,,,,,,,3,1.13625,,,,,,,,,,,,,,,,,,,,,,,,,,,,5,weak,-26.515625,-48.20703125,1,0,0,response5disk,4,36,-10.84765625,-5.8671875,1,0,0,rectangle,-10.84765625,-5.8671875,1,0,0,5,1,0.000215,-10.84765625,-5.8671875,1,0,0,0,35,35,54,1,0,,,,,,,,,,,,,,,,,,,,,
,,,,,,,,,,,,,,,,,,,,,,,,,,,,,,,,,,,,,,,,,,5edcaf1d96a72797d4a1e76e,606842178a9cdac5528af625,2021-04-03_11h23.38.299,Colour_Similarity_Experiment,2020.2.10,MacIntel,60,60674ec340277cd6a308bc9f,16.96964824,16.8084058,16.70608481,16.71776801,16.70829751,16.71776801,,,,,,,,,,,,,,,,,,,,PF,strong,3,,,,,,,,3,1.16995,,,,,,,,,,,,,,,,,,,,,,,,,,,,1,strong,-29.86328125,-49,1,0,0,response5disk,4,37,-17.02734375,-4.5234375,1,0,0,rectangle,-17.02734375,-4.5234375,1,0,0,5,2,0.004,-17.02734375,-4.5234375,1,0,0,0,36,36,135,1,0,,,,,,,,,,,,,,,,,,,,,
,,,,,,,,,,,,,,,,,,,,,,,,,,,,,,,,,,,,,,,,,,5edcaf1d96a72797d4a1e76e,606842178a9cdac5528af625,2021-04-03_11h23.38.299,Colour_Similarity_Experiment,2020.2.10,MacIntel,60,60674ec340277cd6a308bc9f,16.96964824,16.8084058,16.70608481,16.71776801,16.70829751,16.71776801,,,,,,,,,,,,,,,,,,,,PF,weak,3,,,,,,,,7,1.018715,,,,,,,,,,,,,,,,,,,,,,,,,,,,7,weak,25.14453125,43.26171875,1,0,0,response1disk,9,38,8.0859375,-8.5703125,1,0,0,rectangle,8.0859375,-8.5703125,1,0,0,4,1,0.007655,8.0859375,-8.5703125,1,0,0,0,37,37,10,1,0,,,,,,,,,,,,,,,,,,,,,
,,,,,,,,,,,,,,,,,,,,,,,,,,,,,,,,,,,,,,,,,,5edcaf1d96a72797d4a1e76e,606842178a9cdac5528af625,2021-04-03_11h23.38.299,Colour_Similarity_Experiment,2020.2.10,MacIntel,60,60674ec340277cd6a308bc9f,16.96964824,16.8084058,16.70608481,16.71776801,16.70829751,16.71776801,,,,,,,,,,,,,,,,,,,,PF,strong,3,,,,,,,,3,1.421545,,,,,,,,,,,,,,,,,,,,,,,,,,,,4,strong,-23.5546875,-49.51953125,1,0,0,response5disk,5,39,-2.359375,-11.91796875,1,0,0,rectangle,-2.359375,-11.91796875,1,0,0,4,6,0.00261,-2.359375,-11.91796875,1,0,0,0,38,38,116,1,0,,,,,,,,,,,,,,,,,,,,,
,,,,,,,,,,,,,,,,,,,,,,,,,,,,,,,,,,,,,,,,,,5edcaf1d96a72797d4a1e76e,606842178a9cdac5528af625,2021-04-03_11h23.38.299,Colour_Similarity_Experiment,2020.2.10,MacIntel,60,60674ec340277cd6a308bc9f,16.96964824,16.8084058,16.70608481,16.71776801,16.70829751,16.71776801,,,,,,,,,,,,,,,,,,,,PF,strong,3,,,,,,,,7,1.0017,,,,,,,,,,,,,,,,,,,,,,,,,,,,2,strong,15.921875,37.82421875,1,0,0,response1disk,9,40,1.30078125,-7.04296875,1,0,0,rectangle,1.30078125,-7.04296875,1,0,0,4,7,0.004855,1.30078125,-7.04296875,1,0,0,0,39,39,72,1,0,,,,,,,,,,,,,,,,,,,,,
,,,,,,,,,,,,,,,,,,,,,,,,,,,,,,,,,,,,,,,,,,5edcaf1d96a72797d4a1e76e,606842178a9cdac5528af625,2021-04-03_11h23.38.299,Colour_Similarity_Experiment,2020.2.10,MacIntel,60,60674ec340277cd6a308bc9f,16.96964824,16.8084058,16.70608481,16.71776801,16.70829751,16.71776801,,,,,,,,,,,,,,,,,,,,PF,weak,3,,,,,,,,1,1.23629,,,,,,,,,,,,,,,,,,,,,,,,,,,,5,weak,-54.359375,20.80859375,1,0,0,response7disk,5,41,-8.83984375,-6.03515625,1,0,0,rectangle,-8.83984375,-6.03515625,1,0,0,4,3,0.00395,-8.83984375,-6.03515625,1,0,0,0,40,40,94,1,0,,,,,,,,,,,,,,,,,,,,,
,,,,,,,,,,,,,,,,,,,,,,,,,,,,,,,,,,,,,,,,,,5edcaf1d96a72797d4a1e76e,606842178a9cdac5528af625,2021-04-03_11h23.38.299,Colour_Similarity_Experiment,2020.2.10,MacIntel,60,60674ec340277cd6a308bc9f,16.96964824,16.8084058,16.70608481,16.71776801,16.70829751,16.71776801,,,,,,,,,,,,,,,,,,,,PF,strong,3,,,,,,,,4,1.621875,,,,,,,,,,,,,,,,,,,,,,,,,,,,8,strong,13.09375,-52.3828125,1,0,0,response3disk,3,42,5.78125,-1.25,1,0,0,rectangle,5.78125,-1.25,1,0,0,4,6,0.00499,5.78125,-1.25,1,0,0,0,41,41,154,1,0,,,,,,,,,,,,,,,,,,,,,
,,,,,,,,,,,,,,,,,,,,,,,,,,,,,,,,,,,,,,,,,,5edcaf1d96a72797d4a1e76e,606842178a9cdac5528af625,2021-04-03_11h23.38.299,Colour_Similarity_Experiment,2020.2.10,MacIntel,60,60674ec340277cd6a308bc9f,16.96964824,16.8084058,16.70608481,16.71776801,16.70829751,16.71776801,,,,,,,,,,,,,,,,,,,,PF,strong,3,,,,,,,,7,1.270635,,,,,,,,,,,,,,,,,,,,,,,,,,,,4,strong,36.72265625,44.0546875,1,0,0,response1disk,1,43,14.83203125,-7.33984375,1,0,0,rectangle,14.83203125,-7.33984375,1,0,0,4,4,0.00441,14.83203125,-7.33984375,1,0,0,0,42,42,102,1,0,,,,,,,,,,,,,,,,,,,,,
,,,,,,,,,,,,,,,,,,,,,,,,,,,,,,,,,,,,,,,,,,5edcaf1d96a72797d4a1e76e,606842178a9cdac5528af625,2021-04-03_11h23.38.299,Colour_Similarity_Experiment,2020.2.10,MacIntel,60,60674ec340277cd6a308bc9f,16.96964824,16.8084058,16.70608481,16.71776801,16.70829751,16.71776801,,,,,,,,,,,,,,,,,,,,PF,weak,3,,,,,,,,3,1.286815,,,,,,,,,,,,,,,,,,,,,,,,,,,,6,weak,-18.546875,-48.6796875,1,0,0,response5disk,4,44,6.171875,3.92578125,1,0,0,rectangle,6.171875,3.92578125,1,0,0,4,4,0.00034,6.171875,3.92578125,1,0,0,0,43,43,33,1,0,,,,,,,,,,,,,,,,,,,,,
,,,,,,,,,,,,,,,,,,,,,,,,,,,,,,,,,,,,,,,,,,5edcaf1d96a72797d4a1e76e,606842178a9cdac5528af625,2021-04-03_11h23.38.299,Colour_Similarity_Experiment,2020.2.10,MacIntel,60,60674ec340277cd6a308bc9f,16.96964824,16.8084058,16.70608481,16.71776801,16.70829751,16.71776801,,,,,,,,,,,,,,,,,,,,PF,strong,3,,,,,,,,6,1.53784,,,,,,,,,,,,,,,,,,,,,,,,,,,,2,strong,56.3515625,19.984375,1,0,0,response1disk,7,45,10.83203125,-2.25,1,0,0,rectangle,10.83203125,-2.25,1,0,0,4,2,0.004265,10.83203125,-2.25,1,0,0,0,44,44,63,1,0,,,,,,,,,,,,,,,,,,,,,
,,,,,,,,,,,,,,,,,,,,,,,,,,,,,,,,,,,,,,,,,,5edcaf1d96a72797d4a1e76e,606842178a9cdac5528af625,2021-04-03_11h23.38.299,Colour_Similarity_Experiment,2020.2.10,MacIntel,60,60674ec340277cd6a308bc9f,16.96964824,16.8084058,16.70608481,16.71776801,16.70829751,16.71776801,,,,,,,,,,,,,,,,,,,,PF,weak,3,,,,,,,,7,0.85175,,,,,,,,,,,,,,,,,,,,,,,,,,,,8,weak,25.10546875,47.83984375,1,0,0,response1disk,2,46,17.83984375,-6.296875,1,0,0,rectangle,17.83984375,-6.296875,1,0,0,4,4,0.00643,17.83984375,-6.296875,1,0,0,0,45,45,83,1,0,,,,,,,,,,,,,,,,,,,,,
,,,,,,,,,,,,,,,,,,,,,,,,,,,,,,,,,,,,,,,,,,5edcaf1d96a72797d4a1e76e,606842178a9cdac5528af625,2021-04-03_11h23.38.299,Colour_Similarity_Experiment,2020.2.10,MacIntel,60,60674ec340277cd6a308bc9f,16.96964824,16.8084058,16.70608481,16.71776801,16.70829751,16.71776801,,,,,,,,,,,,,,,,,,,,PF,strong,3,,,,,,,,6,4.68041,,,,,,,,,,,,,,,,,,,,,,,,,,,,8,strong,49.43359375,27.76953125,1,0,0,response1disk,5,47,-6.18359375,-6.3046875,1,0,0,rectangle,-6.18359375,-6.3046875,1,0,0,4,0,0.00269,-6.18359375,-6.3046875,1,0,0,0,46,46,152,1,0,,,,,,,,,,,,,,,,,,,,,
,,,,,,,,,,,,,,,,,,,,,,,,,,,,,,,,,,,,,,,,,,5edcaf1d96a72797d4a1e76e,606842178a9cdac5528af625,2021-04-03_11h23.38.299,Colour_Similarity_Experiment,2020.2.10,MacIntel,60,60674ec340277cd6a308bc9f,16.96964824,16.8084058,16.70608481,16.71776801,16.70829751,16.71776801,,,,,,,,,,,,,,,,,,,,PF,weak,3,,,,,,,,3,1.203445,,,,,,,,,,,,,,,,,,,,,,,,,,,,7,weak,-23.89453125,-42.859375,1,0,0,response5disk,7,48,-11.44921875,-14.4453125,1,0,0,rectangle,-11.44921875,-14.4453125,1,0,0,3,4,0.003745,-11.44921875,-14.4453125,1,0,0,0,47,47,51,1,0,,,,,,,,,,,,,,,,,,,,,
,,,,,,,,,,,,,,,,,,,,,,,,,,,,,,,,,,,,,,,,,,5edcaf1d96a72797d4a1e76e,606842178a9cdac5528af625,2021-04-03_11h23.38.299,Colour_Similarity_Experiment,2020.2.10,MacIntel,60,60674ec340277cd6a308bc9f,16.96964824,16.8084058,16.70608481,16.71776801,16.70829751,16.71776801,,,,,,,,,,,,,,,,,,,,PF,weak,3,,,,,,,,7,0.95349,,,,,,,,,,,,,,,,,,,,,,,,,,,,4,weak,17.09765625,46,1,0,0,response1disk,9,49,12.921875,8.09765625,1,0,0,rectangle,12.921875,8.09765625,1,0,0,6,6,0.003875,12.921875,8.09765625,1,0,0,0,48,48,75,1,0,,,,,,,,,,,,,,,,,,,,,
,,,,,,,,,,,,,,,,,,,,,,,,,,,,,,,,,,,,,,,,,,5edcaf1d96a72797d4a1e76e,606842178a9cdac5528af625,2021-04-03_11h23.38.299,Colour_Similarity_Experiment,2020.2.10,MacIntel,60,60674ec340277cd6a308bc9f,16.96964824,16.8084058,16.70608481,16.71776801,16.70829751,16.71776801,,,,,,,,,,,,,,,,,,,,PF,weak,3,,,,,,,,3,1.353815,,,,,,,,,,,,,,,,,,,,,,,,,,,,5,weak,-21.5,-43.8203125,1,0,0,response5disk,6,50,11.921875,-7.5703125,1,0,0,rectangle,11.921875,-7.5703125,1,0,0,6,6,0.000285,11.921875,-7.5703125,1,0,0,0,49,49,103,1,0,,,,,,,,,,,,,,,,,,,,,
,,,,,,,,,,,,,,,,,,,,,,,,,,,,,,,,,,,,,,,,,,5edcaf1d96a72797d4a1e76e,606842178a9cdac5528af625,2021-04-03_11h23.38.299,Colour_Similarity_Experiment,2020.2.10,MacIntel,60,60674ec340277cd6a308bc9f,16.96964824,16.8084058,16.70608481,16.71776801,16.70829751,16.71776801,,,,,,,,,,,,,,,,,,,,PF,weak,3,,,,,,,,7,0.768985,,,,,,,,,,,,,,,,,,,,,,,,,,,,9,weak,32.4609375,53.703125,1,0,0,response1disk,3,51,15.796875,13.36328125,1,0,0,rectangle,15.796875,13.36328125,1,0,0,6,5,0.00433,15.796875,13.36328125,1,0,0,0,50,50,119,1,0,,,,,,,,,,,,,,,,,,,,,
,,,,,,,,,,,,,,,,,,,,,,,,,,,,,,,,,,,,,,,,,,5edcaf1d96a72797d4a1e76e,606842178a9cdac5528af625,2021-04-03_11h23.38.299,Colour_Similarity_Experiment,2020.2.10,MacIntel,60,60674ec340277cd6a308bc9f,16.96964824,16.8084058,16.70608481,16.71776801,16.70829751,16.71776801,,,,,,,,,,,,,,,,,,,,PF,weak,3,,,,,,,,7,0.86972,,,,,,,,,,,,,,,,,,,,,,,,,,,,1,weak,34.24609375,54.0078125,1,0,0,response1disk,5,52,20.3203125,1.83203125,1,0,0,rectangle,20.3203125,1.83203125,1,0,0,6,4,0.004565,20.3203125,1.83203125,1,0,0,0,51,51,28,1,0,,,,,,,,,,,,,,,,,,,,,
,,,,,,,,,,,,,,,,,,,,,,,,,,,,,,,,,,,,,,,,,,5edcaf1d96a72797d4a1e76e,606842178a9cdac5528af625,2021-04-03_11h23.38.299,Colour_Similarity_Experiment,2020.2.10,MacIntel,60,60674ec340277cd6a308bc9f,16.96964824,16.8084058,16.70608481,16.71776801,16.70829751,16.71776801,,,,,,,,,,,,,,,,,,,,PF,weak,3,,,,,,,,4,1.370185,,,,,,,,,,,,,,,,,,,,,,,,,,,,5,weak,37.73046875,-50.6953125,1,0,0,response3disk,7,53,25.1953125,-9.35546875,1,0,0,rectangle,25.1953125,-9.35546875,1,0,0,5,4,0.000305,25.1953125,-9.35546875,1,0,0,0,52,52,146,1,0,,,,,,,,,,,,,,,,,,,,,
,,,,,,,,,,,,,,,,,,,,,,,,,,,,,,,,,,,,,,,,,,5edcaf1d96a72797d4a1e76e,606842178a9cdac5528af625,2021-04-03_11h23.38.299,Colour_Similarity_Experiment,2020.2.10,MacIntel,60,60674ec340277cd6a308bc9f,16.96964824,16.8084058,16.70608481,16.71776801,16.70829751,16.71776801,,,,,,,,,,,,,,,,,,,,PF,strong,3,,,,,,,,7,0.985115,,,,,,,,,,,,,,,,,,,,,,,,,,,,4,strong,35.98828125,58.4453125,1,0,0,response1disk,8,54,23.5,-4.91796875,1,0,0,rectangle,23.5,-4.91796875,1,0,0,5,0,0.005655,23.5,-4.91796875,1,0,0,0,53,53,35,1,0,,,,,,,,,,,,,,,,,,,,,
,,,,,,,,,,,,,,,,,,,,,,,,,,,,,,,,,,,,,,,,,,5edcaf1d96a72797d4a1e76e,606842178a9cdac5528af625,2021-04-03_11h23.38.299,Colour_Similarity_Experiment,2020.2.10,MacIntel,60,60674ec340277cd6a308bc9f,16.96964824,16.8084058,16.70608481,16.71776801,16.70829751,16.71776801,,,,,,,,,,,,,,,,,,,,PF,strong,3,,,,,,,,7,0.970165,,,,,,,,,,,,,,,,,,,,,,,,,,,,2,strong,34.29296875,51.83203125,1,0,0,response1disk,1,55,32.55078125,-6.4375,1,0,0,rectangle,32.55078125,-6.4375,1,0,0,5,5,0.003705,32.55078125,-6.4375,1,0,0,0,54,54,85,1,0,,,,,,,,,,,,,,,,,,,,,
,,,,,,,,,,,,,,,,,,,,,,,,,,,,,,,,,,,,,,,,,,5edcaf1d96a72797d4a1e76e,606842178a9cdac5528af625,2021-04-03_11h23.38.299,Colour_Similarity_Experiment,2020.2.10,MacIntel,60,60674ec340277cd6a308bc9f,16.96964824,16.8084058,16.70608481,16.71776801,16.70829751,16.71776801,,,,,,,,,,,,,,,,,,,,PF,strong,3,,,,,,,,7,1.068995,,,,,,,,,,,,,,,,,,,,,,,,,,,,1,strong,27.375,50.91796875,1,0,0,response1disk,1,56,22.1953125,4.09765625,1,0,0,rectangle,22.1953125,4.09765625,1,0,0,5,1,0.004645,22.1953125,4.09765625,1,0,0,0,55,55,151,1,0,,,,,,,,,,,,,,,,,,,,,
,,,,,,,,,,,,,,,,,,,,,,,,,,,,,,,,,,,,,,,,,,5edcaf1d96a72797d4a1e76e,606842178a9cdac5528af625,2021-04-03_11h23.38.299,Colour_Similarity_Experiment,2020.2.10,MacIntel,60,60674ec340277cd6a308bc9f,16.96964824,16.8084058,16.70608481,16.71776801,16.70829751,16.71776801,,,,,,,,,,,,,,,,,,,,PF,weak,3,,,,,,,,7,0.86901,,,,,,,,,,,,,,,,,,,,,,,,,,,,1,weak,31.24609375,41.21484375,1,0,0,response1disk,3,57,30.24609375,2.35546875,1,0,0,rectangle,30.24609375,2.35546875,1,0,0,5,0,0.00439,30.24609375,2.35546875,1,0,0,0,56,56,1,1,0,,,,,,,,,,,,,,,,,,,,,
,,,,,,,,,,,,,,,,,,,,,,,,,,,,,,,,,,,,,,,,,,5edcaf1d96a72797d4a1e76e,606842178a9cdac5528af625,2021-04-03_11h23.38.299,Colour_Similarity_Experiment,2020.2.10,MacIntel,60,60674ec340277cd6a308bc9f,16.96964824,16.8084058,16.70608481,16.71776801,16.70829751,16.71776801,,,,,,,,,,,,,,,,,,,,PF,strong,3,,,,,,,,7,1.00333,,,,,,,,,,,,,,,,,,,,,,,,,,,,2,strong,32.73046875,62.1953125,1,0,0,response1disk,3,58,21.58984375,5.2734375,1,0,0,rectangle,34.7734375,49.48828125,1,0,0,7,7,1.889755,11.27734375,-6.2578125,1,0,0,0,57,57,104,1,1,response1disk_3,rectangle,,,,,,,,,,,,,,,,,,,
,,,,,,,,,,,,,,,,,,,,,,,,,,,,,,,,,,,,,,,,,,5edcaf1d96a72797d4a1e76e,606842178a9cdac5528af625,2021-04-03_11h23.38.299,Colour_Similarity_Experiment,2020.2.10,MacIntel,60,60674ec340277cd6a308bc9f,16.96964824,16.8084058,16.70608481,16.71776801,16.70829751,16.71776801,,,,,,,,,,,,,,,,,,,,PF,weak,3,,,,,,,,6,1.82051,,,,,,,,,,,,,,,,,,,,,,,,,,,,6,weak,49.2265625,11.453125,1,0,0,response1disk,8,59,20.41796875,0.4453125,1,0,0,rectangle,20.41796875,0.4453125,1,0,0,7,2,0.00453,20.41796875,0.4453125,1,0,0,0,58,58,64,1,0,,,,,,,,,,,,,,,,,,,,,
,,,,,,,,,,,,,,,,,,,,,,,,,,,,,,,,,,,,,,,,,,5edcaf1d96a72797d4a1e76e,606842178a9cdac5528af625,2021-04-03_11h23.38.299,Colour_Similarity_Experiment,2020.2.10,MacIntel,60,60674ec340277cd6a308bc9f,16.96964824,16.8084058,16.70608481,16.71776801,16.70829751,16.71776801,,,,,,,,,,,,,,,,,,,,PF,weak,3,,,,,,,,7,0.93409,,,,,,,,,,,,,,,,,,,,,,,,,,,,6,weak,27.3828125,53.66796875,1,0,0,response1disk,2,60,23.55078125,5.3203125,1,0,0,rectangle,23.55078125,5.3203125,1,0,0,7,3,0.0046,23.55078125,5.3203125,1,0,0,0,59,59,130,1,0,,,,,,,,,,,,,,,,,,,,,
,,,,,,,,,,,,,,,,,,,,,,,,,,,,,,,,,,,,,,,,,,5edcaf1d96a72797d4a1e76e,606842178a9cdac5528af625,2021-04-03_11h23.38.299,Colour_Similarity_Experiment,2020.2.10,MacIntel,60,60674ec340277cd6a308bc9f,16.96964824,16.8084058,16.70608481,16.71776801,16.70829751,16.71776801,,,,,,,,,,,,,,,,,,,,PF,weak,3,,,,,,,,6,1.354415,,,,,,,,,,,,,,,,,,,,,,,,,,,,1,weak,55.88671875,22.94140625,1,0,0,response1disk,8,61,20.765625,-16.05078125,1,0,0,rectangle,20.765625,-16.05078125,1,0,0,5,0,0.00316,20.765625,-16.05078125,1,0,0,0,60,60,65,1,0,,,,,,,,,,,,,,,,,,,,,
,,,,,,,,,,,,,,,,,,,,,,,,,,,,,,,,,,,,,,,,,,5edcaf1d96a72797d4a1e76e,606842178a9cdac5528af625,2021-04-03_11h23.38.299,Colour_Similarity_Experiment,2020.2.10,MacIntel,60,60674ec340277cd6a308bc9f,16.96964824,16.8084058,16.70608481,16.71776801,16.70829751,16.71776801,,,,,,,,,,,,,,,,,,,,PF,weak,3,,,,,,,,1,1.354805,,,,,,,,,,,,,,,,,,,,,,,,,,,,2,weak,-35.1953125,23.68359375,1,0,0,response7disk,2,62,-5.04296875,5.2734375,1,0,0,rectangle,-5.04296875,5.2734375,1,0,0,5,7,0.00466,-5.04296875,5.2734375,1,0,0,0,61,61,14,1,0,,,,,,,,,,,,,,,,,,,,,
,,,,,,,,,,,,,,,,,,,,,,,,,,,,,,,,,,,,,,,,,,5edcaf1d96a72797d4a1e76e,606842178a9cdac5528af625,2021-04-03_11h23.38.299,Colour_Similarity_Experiment,2020.2.10,MacIntel,60,60674ec340277cd6a308bc9f,16.96964824,16.8084058,16.70608481,16.71776801,16.70829751,16.71776801,,,,,,,,,,,,,,,,,,,,PF,weak,3,,,,,,,,4,1.503855,,,,,,,,,,,,,,,,,,,,,,,,,,,,9,weak,27.73046875,-49.60546875,1,0,0,response3disk,2,63,12.0625,-8.30859375,1,0,0,rectangle,12.0625,-8.30859375,1,0,0,5,1,0.004855,12.0625,-8.30859375,1,0,0,0,62,62,157,1,0,,,,,,,,,,,,,,,,,,,,,
,,,,,,,,,,,,,,,,,,,,,,,,,,,,,,,,,,,,,,,,,,5edcaf1d96a72797d4a1e76e,606842178a9cdac5528af625,2021-04-03_11h23.38.299,Colour_Similarity_Experiment,2020.2.10,MacIntel,60,60674ec340277cd6a308bc9f,16.96964824,16.8084058,16.70608481,16.71776801,16.70829751,16.71776801,,,,,,,,,,,,,,,,,,,,PF,weak,3,,,,,,,,3,2.22129,,,,,,,,,,,,,,,,,,,,,,,,,,,,8,weak,-24.44921875,-55.9609375,1,0,0,response5disk,7,64,-13.3515625,-6.3984375,1,0,0,rectangle,-13.3515625,-6.3984375,1,0,0,5,0,0.0045,-13.3515625,-6.3984375,1,0,0,0,63,63,23,1,0,,,,,,,,,,,,,,,,,,,,,
,,,,,,,,,,,,,,,,,,,,,,,,,,,,,,,,,,,,,,,,,,5edcaf1d96a72797d4a1e76e,606842178a9cdac5528af625,2021-04-03_11h23.38.299,Colour_Similarity_Experiment,2020.2.10,MacIntel,60,60674ec340277cd6a308bc9f,16.96964824,16.8084058,16.70608481,16.71776801,16.70829751,16.71776801,,,,,,,,,,,,,,,,,,,,PF,weak,3,,,,,,,,7,1.653955,,,,,,,,,,,,,,,,,,,,,,,,,,,,8,weak,17.58984375,39.03125,1,0,0,response1disk,5,65,16.58984375,-1.17578125,1,0,0,rectangle,16.58984375,-1.17578125,1,0,0,5,6,0.004395,16.58984375,-1.17578125,1,0,0,0,64,64,98,1,0,,,,,,,,,,,,,,,,,,,,,
,,,,,,,,,,,,,,,,,,,,,,,,,,,,,,,,,,,,,,,,,,5edcaf1d96a72797d4a1e76e,606842178a9cdac5528af625,2021-04-03_11h23.38.299,Colour_Similarity_Experiment,2020.2.10,MacIntel,60,60674ec340277cd6a308bc9f,16.96964824,16.8084058,16.70608481,16.71776801,16.70829751,16.71776801,,,,,,,,,,,,,,,,,,,,PF,strong,3,,,,,,,,6,1.63788,,,,,,,,,,,,,,,,,,,,,,,,,,,,9,strong,52.0546875,12.09765625,1,0,0,response1disk,2,66,2.3125,-3.22265625,1,0,0,rectangle,56.1875,-23.06640625,1,0,0,5,5,1.937385,-5.34375,-6.703125,1,0,0,0,65,65,11,1,1,response3disk_3,rectangle,,,,,,,,,,,,,,,,,,,
,,,,,,,,,,,,,,,,,,,,,,,,,,,,,,,,,,,,,,,,,,5edcaf1d96a72797d4a1e76e,606842178a9cdac5528af625,2021-04-03_11h23.38.299,Colour_Similarity_Experiment,2020.2.10,MacIntel,60,60674ec340277cd6a308bc9f,16.96964824,16.8084058,16.70608481,16.71776801,16.70829751,16.71776801,,,,,,,,,,,,,,,,,,,,PF,weak,3,,,,,,,,7,1.118195,,,,,,,,,,,,,,,,,,,,,,,,,,,,9,weak,22.5078125,42.69140625,1,0,0,response1disk,4,67,20.41796875,-7.74609375,1,0,0,rectangle,20.41796875,-7.74609375,1,0,0,5,6,0.005675,20.41796875,-7.74609375,1,0,0,0,66,66,114,1,0,,,,,,,,,,,,,,,,,,,,,
,,,,,,,,,,,,,,,,,,,,,,,,,,,,,,,,,,,,,,,,,,5edcaf1d96a72797d4a1e76e,606842178a9cdac5528af625,2021-04-03_11h23.38.299,Colour_Similarity_Experiment,2020.2.10,MacIntel,60,60674ec340277cd6a308bc9f,16.96964824,16.8084058,16.70608481,16.71776801,16.70829751,16.71776801,,,,,,,,,,,,,,,,,,,,PF,weak,3,,,,,,,,6,1.5711,,,,,,,,,,,,,,,,,,,,,,,,,,,,7,weak,57.3671875,14.2734375,1,0,0,response1disk,4,68,1.01171875,-1.3046875,1,0,0,rectangle,1.01171875,-1.3046875,1,0,0,5,3,0.00409,1.01171875,-1.3046875,1,0,0,0,67,67,43,1,0,,,,,,,,,,,,,,,,,,,,,
,,,,,,,,,,,,,,,,,,,,,,,,,,,,,,,,,,,,,,,,,,5edcaf1d96a72797d4a1e76e,606842178a9cdac5528af625,2021-04-03_11h23.38.299,Colour_Similarity_Experiment,2020.2.10,MacIntel,60,60674ec340277cd6a308bc9f,16.96964824,16.8084058,16.70608481,16.71776801,16.70829751,16.71776801,,,,,,,,,,,,,,,,,,,,PF,strong,3,,,,,,,,7,1.504065,,,,,,,,,,,,,,,,,,,,,,,,,,,,8,strong,16.890625,47.65234375,1,0,0,response1disk,2,69,16.890625,9.79296875,1,0,0,rectangle,16.890625,9.79296875,1,0,0,6,1,0.004825,16.890625,9.79296875,1,0,0,0,68,68,22,1,0,,,,,,,,,,,,,,,,,,,,,
,,,,,,,,,,,,,,,,,,,,,,,,,,,,,,,,,,,,,,,,,,5edcaf1d96a72797d4a1e76e,606842178a9cdac5528af625,2021-04-03_11h23.38.299,Colour_Similarity_Experiment,2020.2.10,MacIntel,60,60674ec340277cd6a308bc9f,16.96964824,16.8084058,16.70608481,16.71776801,16.70829751,16.71776801,,,,,,,,,,,,,,,,,,,,PF,strong,3,,,,,,,,7,1.221175,,,,,,,,,,,,,,,,,,,,,,,,,,,,9,strong,33.86328125,54.3125,1,0,0,response1disk,7,70,5.75,-4.1328125,1,0,0,rectangle,5.75,-4.1328125,1,0,0,6,2,0.004515,5.75,-4.1328125,1,0,0,0,69,69,100,1,0,,,,,,,,,,,,,,,,,,,,,
,,,,,,,,,,,,,,,,,,,,,,,,,,,,,,,,,,,,,,,,,,5edcaf1d96a72797d4a1e76e,606842178a9cdac5528af625,2021-04-03_11h23.38.299,Colour_Similarity_Experiment,2020.2.10,MacIntel,60,60674ec340277cd6a308bc9f,16.96964824,16.8084058,16.70608481,16.71776801,16.70829751,16.71776801,,,,,,,,,,,,,,,,,,,,PF,strong,3,,,,,,,,6,1.83787,,,,,,,,,,,,,,,,,,,,,,,,,,,,2,strong,54.0546875,16.015625,1,0,0,response1disk,2,71,-2.515625,2.23828125,1,0,0,rectangle,-2.515625,2.23828125,1,0,0,6,2,0.000315,-2.515625,2.23828125,1,0,0,0,70,70,142,1,0,,,,,,,,,,,,,,,,,,,,,
,,,,,,,,,,,,,,,,,,,,,,,,,,,,,,,,,,,,,,,,,,5edcaf1d96a72797d4a1e76e,606842178a9cdac5528af625,2021-04-03_11h23.38.299,Colour_Similarity_Experiment,2020.2.10,MacIntel,60,60674ec340277cd6a308bc9f,16.96964824,16.8084058,16.70608481,16.71776801,16.70829751,16.71776801,,,,,,,,,,,,,,,,,,,,PF,weak,3,,,,,,,,7,1.78804,,,,,,,,,,,,,,,,,,,,,,,,,,,,2,weak,20.328125,53.06640625,1,0,0,response1disk,6,72,10.234375,0.49609375,1,0,0,rectangle,10.234375,0.49609375,1,0,0,6,7,0.003555,10.234375,0.49609375,1,0,0,0,71,71,113,1,0,,,,,,,,,,,,,,,,,,,,,
,,,,,,,,,,,,,,,,,,,,,,,,,,,,,,,,,,,,,,,,,,5edcaf1d96a72797d4a1e76e,606842178a9cdac5528af625,2021-04-03_11h23.38.299,Colour_Similarity_Experiment,2020.2.10,MacIntel,60,60674ec340277cd6a308bc9f,16.96964824,16.8084058,16.70608481,16.71776801,16.70829751,16.71776801,,,,,,,,,,,,,,,,,,,,PF,strong,3,,,,,,,,4,2.139685,,,,,,,,,,,,,,,,,,,,,,,,,,,,6,strong,41.7421875,-45.28125,1,0,0,response3disk,6,73,25.03125,-7.37890625,1,0,0,rectangle,25.03125,-7.37890625,1,0,0,6,1,0.004625,25.03125,-7.37890625,1,0,0,0,72,72,91,1,0,,,,,,,,,,,,,,,,,,,,,
,,,,,,,,,,,,,,,,,,,,,,,,,,,,,,,,,,,,,,,,,,5edcaf1d96a72797d4a1e76e,606842178a9cdac5528af625,2021-04-03_11h23.38.299,Colour_Similarity_Experiment,2020.2.10,MacIntel,60,60674ec340277cd6a308bc9f,16.96964824,16.8084058,16.70608481,16.71776801,16.70829751,16.71776801,,,,,,,,,,,,,,,,,,,,PF,strong,3,,,,,,,,5,2.137945,,,,,,,,,,,,,,,,,,,,,,,,,,,,6,strong,50.97265625,-12.5546875,1,0,0,response3disk,4,74,8.9375,-8.37890625,1,0,0,rectangle,8.9375,-8.37890625,1,0,0,5,6,0.003075,8.9375,-8.37890625,1,0,0,0,73,73,56,1,0,,,,,,,,,,,,,,,,,,,,,
,,,,,,,,,,,,,,,,,,,,,,,,,,,,,,,,,,,,,,,,,,5edcaf1d96a72797d4a1e76e,606842178a9cdac5528af625,2021-04-03_11h23.38.299,Colour_Similarity_Experiment,2020.2.10,MacIntel,60,60674ec340277cd6a308bc9f,16.96964824,16.8084058,16.70608481,16.71776801,16.70829751,16.71776801,,,,,,,,,,,,,,,,,,,,PF,weak,3,,,,,,,,3,1.820395,,,,,,,,,,,,,,,,,,,,,,,,,,,,6,weak,-16.17578125,-51.8515625,1,0,0,response5disk,5,75,1.27734375,-2.4140625,1,0,0,rectangle,1.27734375,-2.4140625,1,0,0,5,1,0.004635,1.27734375,-2.4140625,1,0,0,0,74,74,59,1,0,,,,,,,,,,,,,,,,,,,,,
,,,,,,,,,,,,,,,,,,,,,,,,,,,,,,,,,,,,,,,,,,5edcaf1d96a72797d4a1e76e,606842178a9cdac5528af625,2021-04-03_11h23.38.299,Colour_Similarity_Experiment,2020.2.10,MacIntel,60,60674ec340277cd6a308bc9f,16.96964824,16.8084058,16.70608481,16.71776801,16.70829751,16.71776801,,,,,,,,,,,,,,,,,,,,PF,strong,3,,,,,,,,5,2.40617,,,,,,,,,,,,,,,,,,,,,,,,,,,,4,strong,53.54296875,-39.3203125,1,0,0,response3disk,3,76,3.453125,-7.63671875,1,0,0,rectangle,3.453125,-7.63671875,1,0,0,5,0,0.00451,3.453125,-7.63671875,1,0,0,0,75,75,77,1,0,,,,,,,,,,,,,,,,,,,,,
,,,,,,,,,,,,,,,,,,,,,,,,,,,,,,,,,,,,,,,,,,5edcaf1d96a72797d4a1e76e,606842178a9cdac5528af625,2021-04-03_11h23.38.299,Colour_Similarity_Experiment,2020.2.10,MacIntel,60,60674ec340277cd6a308bc9f,16.96964824,16.8084058,16.70608481,16.71776801,16.70829751,16.71776801,,,,,,,,,,,,,,,,,,,,PF,strong,3,,,,,,,,5,1.554225,,,,,,,,,,,,,,,,,,,,,,,,,,,,4,strong,58.80859375,-31.66015625,1,0,0,response3disk,7,77,13.9453125,2.06640625,1,0,0,rectangle,13.9453125,2.06640625,1,0,0,5,2,0.004855,13.9453125,2.06640625,1,0,0,0,76,76,87,1,0,,,,,,,,,,,,,,,,,,,,,
,,,,,,,,,,,,,,,,,,,,,,,,,,,,,,,,,,,,,,,,,,5edcaf1d96a72797d4a1e76e,606842178a9cdac5528af625,2021-04-03_11h23.38.299,Colour_Similarity_Experiment,2020.2.10,MacIntel,60,60674ec340277cd6a308bc9f,16.96964824,16.8084058,16.70608481,16.71776801,16.70829751,16.71776801,,,,,,,,,,,,,,,,,,,,PF,weak,3,,,,,,,,7,1.003165,,,,,,,,,,,,,,,,,,,,,,,,,,,,4,weak,32.00390625,61.94921875,1,0,0,response1disk,2,78,11.11328125,-7.63671875,1,0,0,rectangle,11.11328125,-7.63671875,1,0,0,5,0,0.003865,11.11328125,-7.63671875,1,0,0,0,77,77,108,1,0,,,,,,,,,,,,,,,,,,,,,
,,,,,,,,,,,,,,,,,,,,,,,,,,,,,,,,,,,,,,,,,,5edcaf1d96a72797d4a1e76e,606842178a9cdac5528af625,2021-04-03_11h23.38.299,Colour_Similarity_Experiment,2020.2.10,MacIntel,60,60674ec340277cd6a308bc9f,16.96964824,16.8084058,16.70608481,16.71776801,16.70829751,16.71776801,,,,,,,,,,,,,,,,,,,,PF,weak,3,,,,,,,,7,0.97086,,,,,,,,,,,,,,,,,,,,,,,,,,,,6,weak,14.9453125,55.37890625,1,0,0,response1disk,9,79,11.80859375,2.4609375,1,0,0,rectangle,11.80859375,2.4609375,1,0,0,5,1,0.004495,11.80859375,2.4609375,1,0,0,0,78,78,45,1,0,,,,,,,,,,,,,,,,,,,,,
,,,,,,,,,,,,,,,,,,,,,,,,,,,,,,,,,,,,,,,,,,5edcaf1d96a72797d4a1e76e,606842178a9cdac5528af625,2021-04-03_11h23.38.299,Colour_Similarity_Experiment,2020.2.10,MacIntel,60,60674ec340277cd6a308bc9f,16.96964824,16.8084058,16.70608481,16.71776801,16.70829751,16.71776801,,,,,,,,,,,,,,,,,,,,PF,strong,3,,,,,,,,7,1.168945,,,,,,,,,,,,,,,,,,,,,,,,,,,,5,strong,45.8828125,62.0390625,1,0,0,response1disk,9,80,10.0703125,-7.24609375,1,0,0,rectangle,10.0703125,-7.24609375,1,0,0,5,1,0.000255,10.0703125,-7.24609375,1,0,0,0,79,79,61,1,0,,,,,,,,,,,,,,,,,,,,,
,,,,,,,,,,,,,,,,,,,,,,,,,,,,,,,,,,,,,,,,,,5edcaf1d96a72797d4a1e76e,606842178a9cdac5528af625,2021-04-03_11h23.38.299,Colour_Similarity_Experiment,2020.2.10,MacIntel,60,60674ec340277cd6a308bc9f,16.96964824,16.8084058,16.70608481,16.71776801,16.70829751,16.71776801,,,,,,,,,,,,,,,,,,,,PF,strong,3,,,,,,,,6,1.67177,,,,,,,,,,,,,,,,,,,,,,,,,,,,3,strong,54.6328125,17.734375,1,0,0,response1disk,2,81,15.37890625,6.24609375,1,0,0,rectangle,15.37890625,6.24609375,1,0,0,5,0,0.00454,15.37890625,6.24609375,1,0,0,0,80,80,93,1,0,,,,,,,,,,,,,,,,,,,,,
,,,,,,,,,,,,,,,,,,,,,,,,,,,,,,,,,,,,,,,,,,5edcaf1d96a72797d4a1e76e,606842178a9cdac5528af625,2021-04-03_11h23.38.299,Colour_Similarity_Experiment,2020.2.10,MacIntel,60,60674ec340277cd6a308bc9f,16.96964824,16.8084058,16.70608481,16.71776801,16.70829751,16.71776801,,,,,,,,,,,,,,,,,,,,PF,weak,3,,,,,,,,4,2.406345,,,,,,,,,,,,,,,,,,,,,,,,,,,,7,weak,31.52734375,-51.24609375,1,0,0,response3disk,5,82,18.69140625,-3.59375,1,0,0,rectangle,18.69140625,-3.59375,1,0,0,5,3,0.00428,18.69140625,-3.59375,1,0,0,0,81,81,92,1,0,,,,,,,,,,,,,,,,,,,,,
,,,,,,,,,,,,,,,,,,,,,,,,,,,,,,,,,,,,,,,,,,5edcaf1d96a72797d4a1e76e,606842178a9cdac5528af625,2021-04-03_11h23.38.299,Colour_Similarity_Experiment,2020.2.10,MacIntel,60,60674ec340277cd6a308bc9f,16.96964824,16.8084058,16.70608481,16.71776801,16.70829751,16.71776801,,,,,,,,,,,,,,,,,,,,PF,weak,3,,,,,,,,6,1.887795,,,,,,,,,,,,,,,,,,,,,,,,,,,,3,weak,47.41015625,15.20703125,1,0,0,response1disk,6,83,16.078125,-3.50390625,1,0,0,rectangle,16.078125,-3.50390625,1,0,0,5,6,0.00412,16.078125,-3.50390625,1,0,0,0,82,82,47,1,0,,,,,,,,,,,,,,,,,,,,,
,,,,,,,,,,,,,,,,,,,,,,,,,,,,,,,,,,,,,,,,,,5edcaf1d96a72797d4a1e76e,606842178a9cdac5528af625,2021-04-03_11h23.38.299,Colour_Similarity_Experiment,2020.2.10,MacIntel,60,60674ec340277cd6a308bc9f,16.96964824,16.8084058,16.70608481,16.71776801,16.70829751,16.71776801,,,,,,,,,,,,,,,,,,,,PF,weak,3,,,,,,,,2,1.57159,,,,,,,,,,,,,,,,,,,,,,,,,,,,9,weak,-48.984375,-19.8671875,1,0,0,response5disk,9,84,1.8046875,-9.07421875,1,0,0,rectangle,1.8046875,-9.07421875,1,0,0,5,5,0.00384,1.8046875,-9.07421875,1,0,0,0,83,83,106,1,0,,,,,,,,,,,,,,,,,,,,,
,,,,,,,,,,,,,,,,,,,,,,,,,,,,,,,,,,,,,,,,,,5edcaf1d96a72797d4a1e76e,606842178a9cdac5528af625,2021-04-03_11h23.38.299,Colour_Similarity_Experiment,2020.2.10,MacIntel,60,60674ec340277cd6a308bc9f,16.96964824,16.8084058,16.70608481,16.71776801,16.70829751,16.71776801,,,,,,,,,,,,,,,,,,,,PF,weak,3,,,,,,,,7,1.371585,,,,,,,,,,,,,,,,,,,,,,,,,,,,9,weak,17.12109375,35.4453125,1,0,0,response1disk,5,85,15.03125,-11.81640625,1,0,0,rectangle,15.03125,-11.81640625,1,0,0,5,2,0.00316,15.03125,-11.81640625,1,0,0,0,84,84,134,1,0,,,,,,,,,,,,,,,,,,,,,
,,,,,,,,,,,,,,,,,,,,,,,,,,,,,,,,,,,,,,,,,,5edcaf1d96a72797d4a1e76e,606842178a9cdac5528af625,2021-04-03_11h23.38.299,Colour_Similarity_Experiment,2020.2.10,MacIntel,60,60674ec340277cd6a308bc9f,16.96964824,16.8084058,16.70608481,16.71776801,16.70829751,16.71776801,,,,,,,,,,,,,,,,,,,,PF,weak,3,,,,,,,,7,1.004195,,,,,,,,,,,,,,,,,,,,,,,,,,,,2,weak,25.12890625,55.2890625,1,0,0,response1disk,8,86,8.41796875,-4.546875,1,0,0,rectangle,8.41796875,-4.546875,1,0,0,5,0,0.00385,8.41796875,-4.546875,1,0,0,0,85,85,52,1,0,,,,,,,,,,,,,,,,,,,,,
,,,,,,,,,,,,,,,,,,,,,,,,,,,,,,,,,,,,,,,,,,5edcaf1d96a72797d4a1e76e,606842178a9cdac5528af625,2021-04-03_11h23.38.299,Colour_Similarity_Experiment,2020.2.10,MacIntel,60,60674ec340277cd6a308bc9f,16.96964824,16.8084058,16.70608481,16.71776801,16.70829751,16.71776801,,,,,,,,,,,,,,,,,,,,PF,weak,3,,,,,,,,7,0.935405,,,,,,,,,,,,,,,,,,,,,,,,,,,,4,weak,21.25390625,50.76171875,1,0,0,response1disk,8,87,16.03125,-4.9765625,1,0,0,rectangle,16.03125,-4.9765625,1,0,0,5,2,0.005165,16.03125,-4.9765625,1,0,0,0,86,86,124,1,0,,,,,,,,,,,,,,,,,,,,,
,,,,,,,,,,,,,,,,,,,,,,,,,,,,,,,,,,,,,,,,,,5edcaf1d96a72797d4a1e76e,606842178a9cdac5528af625,2021-04-03_11h23.38.299,Colour_Similarity_Experiment,2020.2.10,MacIntel,60,60674ec340277cd6a308bc9f,16.96964824,16.8084058,16.70608481,16.71776801,16.70829751,16.71776801,,,,,,,,,,,,,,,,,,,,PF,strong,3,,,,,,,,3,1.438935,,,,,,,,,,,,,,,,,,,,,,,,,,,,3,strong,-21.5234375,-51.93359375,1,0,0,response5disk,5,88,-15.30078125,1.984375,1,0,0,rectangle,-15.30078125,1.984375,1,0,0,5,7,0.00481,-15.30078125,1.984375,1,0,0,0,87,87,101,1,0,,,,,,,,,,,,,,,,,,,,,
,,,,,,,,,,,,,,,,,,,,,,,,,,,,,,,,,,,,,,,,,,5edcaf1d96a72797d4a1e76e,606842178a9cdac5528af625,2021-04-03_11h23.38.299,Colour_Similarity_Experiment,2020.2.10,MacIntel,60,60674ec340277cd6a308bc9f,16.96964824,16.8084058,16.70608481,16.71776801,16.70829751,16.71776801,,,,,,,,,,,,,,,,,,,,PF,strong,3,,,,,,,,6,1.973155,,,,,,,,,,,,,,,,,,,,,,,,,,,,8,strong,49.41015625,25.3984375,1,0,0,response1disk,8,89,7.765625,-2.7109375,1,0,0,rectangle,7.765625,-2.7109375,1,0,0,5,4,0.004255,7.765625,-2.7109375,1,0,0,0,88,88,48,1,0,,,,,,,,,,,,,,,,,,,,,
,,,,,,,,,,,,,,,,,,,,,,,,,,,,,,,,,,,,,,,,,,5edcaf1d96a72797d4a1e76e,606842178a9cdac5528af625,2021-04-03_11h23.38.299,Colour_Similarity_Experiment,2020.2.10,MacIntel,60,60674ec340277cd6a308bc9f,16.96964824,16.8084058,16.70608481,16.71776801,16.70829751,16.71776801,,,,,,,,,,,,,,,,,,,,PF,weak,3,,,,,,,,7,1.06864,,,,,,,,,,,,,,,,,,,,,,,,,,,,3,weak,16.12109375,41.4609375,1,0,0,response1disk,1,90,6.375,0.03125,1,0,0,rectangle,6.375,0.03125,1,0,0,5,6,0.002985,6.375,0.03125,1,0,0,0,89,89,96,1,0,,,,,,,,,,,,,,,,,,,,,
,,,,,,,,,,,,,,,,,,,,,,,,,,,,,,,,,,,,,,,,,,5edcaf1d96a72797d4a1e76e,606842178a9cdac5528af625,2021-04-03_11h23.38.299,Colour_Similarity_Experiment,2020.2.10,MacIntel,60,60674ec340277cd6a308bc9f,16.96964824,16.8084058,16.70608481,16.71776801,16.70829751,16.71776801,,,,,,,,,,,,,,,,,,,,PF,weak,3,,,,,,,,5,1.93935,,,,,,,,,,,,,,,,,,,,,,,,,,,,3,weak,48.1953125,-36.22265625,1,0,0,response3disk,7,91,23.51953125,-17.76953125,1,0,0,rectangle,23.51953125,-17.76953125,1,0,0,5,3,0.005085,23.51953125,-17.76953125,1,0,0,0,90,90,41,1,0,,,,,,,,,,,,,,,,,,,,,
,,,,,,,,,,,,,,,,,,,,,,,,,,,,,,,,,,,,,,,,,,5edcaf1d96a72797d4a1e76e,606842178a9cdac5528af625,2021-04-03_11h23.38.299,Colour_Similarity_Experiment,2020.2.10,MacIntel,60,60674ec340277cd6a308bc9f,16.96964824,16.8084058,16.70608481,16.71776801,16.70829751,16.71776801,,,,,,,,,,,,,,,,,,,,PF,weak,3,,,,,,,,5,1.152845,,,,,,,,,,,,,,,,,,,,,,,,,,,,6,weak,58.29296875,-36.875,1,0,0,response3disk,3,92,6.765625,-12.50390625,1,0,0,rectangle,6.765625,-12.50390625,1,0,0,5,0,0.00459,6.765625,-12.50390625,1,0,0,0,91,91,26,1,0,,,,,,,,,,,,,,,,,,,,,
,,,,,,,,,,,,,,,,,,,,,,,,,,,,,,,,,,,,,,,,,,5edcaf1d96a72797d4a1e76e,606842178a9cdac5528af625,2021-04-03_11h23.38.299,Colour_Similarity_Experiment,2020.2.10,MacIntel,60,60674ec340277cd6a308bc9f,16.96964824,16.8084058,16.70608481,16.71776801,16.70829751,16.71776801,,,,,,,,,,,,,,,,,,,,PF,weak,3,,,,,,,,7,1.06859,,,,,,,,,,,,,,,,,,,,,,,,,,,,7,weak,28.69921875,58.51953125,1,0,0,response1disk,1,93,12.68359375,-12.76171875,1,0,0,rectangle,12.68359375,-12.76171875,1,0,0,4,3,0.00437,12.68359375,-12.76171875,1,0,0,0,92,92,53,1,0,,,,,,,,,,,,,,,,,,,,,
,,,,,,,,,,,,,,,,,,,,,,,,,,,,,,,,,,,,,,,,,,5edcaf1d96a72797d4a1e76e,606842178a9cdac5528af625,2021-04-03_11h23.38.299,Colour_Similarity_Experiment,2020.2.10,MacIntel,60,60674ec340277cd6a308bc9f,16.96964824,16.8084058,16.70608481,16.71776801,16.70829751,16.71776801,,,,,,,,,,,,,,,,,,,,PF,strong,3,,,,,,,,5,1.54408,,,,,,,,,,,,,,,,,,,,,,,,,,,,5,strong,63.03125,-23.1328125,1,0,0,response3disk,7,94,-0.89453125,2.71875,1,0,0,rectangle,-0.89453125,2.71875,1,0,0,4,4,0.004145,-0.89453125,2.71875,1,0,0,0,93,93,7,1,0,,,,,,,,,,,,,,,,,,,,,
,,,,,,,,,,,,,,,,,,,,,,,,,,,,,,,,,,,,,,,,,,5edcaf1d96a72797d4a1e76e,606842178a9cdac5528af625,2021-04-03_11h23.38.299,Colour_Similarity_Experiment,2020.2.10,MacIntel,60,60674ec340277cd6a308bc9f,16.96964824,16.8084058,16.70608481,16.71776801,16.70829751,16.71776801,,,,,,,,,,,,,,,,,,,,PF,weak,3,,,,,,,,7,1.035725,,,,,,,,,,,,,,,,,,,,,,,,,,,,6,weak,28.30859375,39.2734375,1,0,0,response1disk,1,95,9.16015625,-6.2890625,1,0,0,rectangle,9.16015625,-6.2890625,1,0,0,4,1,0.00489,9.16015625,-6.2890625,1,0,0,0,94,94,46,1,0,,,,,,,,,,,,,,,,,,,,,
,,,,,,,,,,,,,,,,,,,,,,,,,,,,,,,,,,,,,,,,,,5edcaf1d96a72797d4a1e76e,606842178a9cdac5528af625,2021-04-03_11h23.38.299,Colour_Similarity_Experiment,2020.2.10,MacIntel,60,60674ec340277cd6a308bc9f,16.96964824,16.8084058,16.70608481,16.71776801,16.70829751,16.71776801,,,,,,,,,,,,,,,,,,,,PF,strong,3,,,,,,,,6,1.186295,,,,,,,,,,,,,,,,,,,,,,,,,,,,9,strong,55.11328125,19.734375,1,0,0,response1disk,8,96,12.640625,-5.59375,1,0,0,rectangle,12.640625,-5.59375,1,0,0,4,3,0.003105,12.640625,-5.59375,1,0,0,0,95,95,6,1,0,,,,,,,,,,,,,,,,,,,,,
,,,,,,,,,,,,,,,,,,,,,,,,,,,,,,,,,,,,,,,,,,5edcaf1d96a72797d4a1e76e,606842178a9cdac5528af625,2021-04-03_11h23.38.299,Colour_Similarity_Experiment,2020.2.10,MacIntel,60,60674ec340277cd6a308bc9f,16.96964824,16.8084058,16.70608481,16.71776801,16.70829751,16.71776801,,,,,,,,,,,,,,,,,,,,PF,strong,3,,,,,,,,6,2.6581,,,,,,,,,,,,,,,,,,,,,,,,,,,,6,strong,40.09765625,17.125,1,0,0,response1disk,3,97,10.8984375,5.984375,1,0,0,rectangle,10.8984375,5.984375,1,0,0,4,3,0.000215,10.8984375,5.984375,1,0,0,0,96,96,21,1,0,,,,,,,,,,,,,,,,,,,,,
,,,,,,,,,,,,,,,,,,,,,,,,,,,,,,,,,,,,,,,,,,5edcaf1d96a72797d4a1e76e,606842178a9cdac5528af625,2021-04-03_11h23.38.299,Colour_Similarity_Experiment,2020.2.10,MacIntel,60,60674ec340277cd6a308bc9f,16.96964824,16.8084058,16.70608481,16.71776801,16.70829751,16.71776801,,,,,,,,,,,,,,,,,,,,PF,strong,3,,,,,,,,7,0.96951,,,,,,,,,,,,,,,,,,,,,,,,,,,,1,strong,10.8984375,56.37890625,1,0,0,response1disk,6,98,8.11328125,-5.19921875,1,0,0,rectangle,8.11328125,-5.19921875,1,0,0,4,2,0.00495,8.11328125,-5.19921875,1,0,0,0,97,97,58,1,0,,,,,,,,,,,,,,,,,,,,,
,,,,,,,,,,,,,,,,,,,,,,,,,,,,,,,,,,,,,,,,,,5edcaf1d96a72797d4a1e76e,606842178a9cdac5528af625,2021-04-03_11h23.38.299,Colour_Similarity_Experiment,2020.2.10,MacIntel,60,60674ec340277cd6a308bc9f,16.96964824,16.8084058,16.70608481,16.71776801,16.70829751,16.71776801,,,,,,,,,,,,,,,,,,,,PF,weak,3,,,,,,,,5,1.503935,,,,,,,,,,,,,,,,,,,,,,,,,,,,8,weak,52.9375,-39.7109375,1,0,0,response3disk,6,99,7.72265625,-0.37109375,1,0,0,rectangle,-51.46484375,-29.8359375,1,0,0,4,2,2.224625,15.203125,-4.37890625,1,0,0,0,98,98,161,1,1,response5disk_3,rectangle,,,,,,,,,,,,,,,,,,,
,,,,,,,,,,,,,,,,,,,,,,,,,,,,,,,,,,,,,,,,,,5edcaf1d96a72797d4a1e76e,606842178a9cdac5528af625,2021-04-03_11h23.38.299,Colour_Similarity_Experiment,2020.2.10,MacIntel,60,60674ec340277cd6a308bc9f,16.96964824,16.8084058,16.70608481,16.71776801,16.70829751,16.71776801,,,,,,,,,,,,,,,,,,,,PF,weak,3,,,,,,,,7,1.287065,,,,,,,,,,,,,,,,,,,,,,,,,,,,5,weak,21.46875,47.05859375,1,0,0,response1disk,8,100,7.890625,-9.9921875,1,0,0,rectangle,7.890625,-9.9921875,1,0,0,4,4,0.004195,7.890625,-9.9921875,1,0,0,0,99,99,149,1,0,,,,,,,,,,,,,,,,,,,,,
,,,,,,,,,,,,,,,,,,,,,,,,,,,,,,,,,,,,,,,,,,5edcaf1d96a72797d4a1e76e,606842178a9cdac5528af625,2021-04-03_11h23.38.299,Colour_Similarity_Experiment,2020.2.10,MacIntel,60,60674ec340277cd6a308bc9f,16.96964824,16.8084058,16.70608481,16.71776801,16.70829751,16.71776801,,,,,,,,,,,,,,,,,,,,PF,strong,3,,,,,,,,7,1.08699,,,,,,,,,,,,,,,,,,,,,,,,,,,,1,strong,30.5234375,49.84375,1,0,0,response1disk,2,101,12.41796875,1.67578125,1,0,0,rectangle,12.41796875,1.67578125,1,0,0,4,2,0.003985,12.41796875,1.67578125,1,0,0,0,100,100,2,1,0,,,,,,,,,,,,,,,,,,,,,
,,,,,,,,,,,,,,,,,,,,,,,,,,,,,,,,,,,,,,,,,,5edcaf1d96a72797d4a1e76e,606842178a9cdac5528af625,2021-04-03_11h23.38.299,Colour_Similarity_Experiment,2020.2.10,MacIntel,60,60674ec340277cd6a308bc9f,16.96964824,16.8084058,16.70608481,16.71776801,16.70829751,16.71776801,,,,,,,,,,,,,,,,,,,,PF,weak,3,,,,,,,,5,2.1201,,,,,,,,,,,,,,,,,,,,,,,,,,,,2,weak,56.28515625,-15.77734375,1,0,0,response3disk,9,102,-0.02734375,-13.33984375,1,0,0,rectangle,-0.02734375,-13.33984375,1,0,0,4,3,0.00469,-0.02734375,-13.33984375,1,0,0,0,101,101,39,1,0,,,,,,,,,,,,,,,,,,,,,
,,,,,,,,,,,,,,,,,,,,,,,,,,,,,,,,,,,,,,,,,,5edcaf1d96a72797d4a1e76e,606842178a9cdac5528af625,2021-04-03_11h23.38.299,Colour_Similarity_Experiment,2020.2.10,MacIntel,60,60674ec340277cd6a308bc9f,16.96964824,16.8084058,16.70608481,16.71776801,16.70829751,16.71776801,,,,,,,,,,,,,,,,,,,,PF,weak,3,,,,,,,,7,1.488095,,,,,,,,,,,,,,,,,,,,,,,,,,,,8,weak,24.99609375,35.8359375,1,0,0,response1disk,1,103,23.99609375,3.2890625,1,0,0,rectangle,23.99609375,3.2890625,1,0,0,4,5,0.00402,23.99609375,3.2890625,1,0,0,0,102,102,57,1,0,,,,,,,,,,,,,,,,,,,,,
,,,,,,,,,,,,,,,,,,,,,,,,,,,,,,,,,,,,,,,,,,5edcaf1d96a72797d4a1e76e,606842178a9cdac5528af625,2021-04-03_11h23.38.299,Colour_Similarity_Experiment,2020.2.10,MacIntel,60,60674ec340277cd6a308bc9f,16.96964824,16.8084058,16.70608481,16.71776801,16.70829751,16.71776801,,,,,,,,,,,,,,,,,,,,PF,strong,3,,,,,,,,7,1.053785,,,,,,,,,,,,,,,,,,,,,,,,,,,,9,strong,41.0546875,52.8984375,1,0,0,response1disk,9,104,29.26171875,1.76171875,1,0,0,rectangle,29.26171875,1.76171875,1,0,0,4,4,0.003715,29.26171875,1.76171875,1,0,0,0,103,103,17,1,0,,,,,,,,,,,,,,,,,,,,,
,,,,,,,,,,,,,,,,,,,,,,,,,,,,,,,,,,,,,,,,,,5edcaf1d96a72797d4a1e76e,606842178a9cdac5528af625,2021-04-03_11h23.38.299,Colour_Similarity_Experiment,2020.2.10,MacIntel,60,60674ec340277cd6a308bc9f,16.96964824,16.8084058,16.70608481,16.71776801,16.70829751,16.71776801,,,,,,,,,,,,,,,,,,,,PF,strong,3,,,,,,,,7,1.06952,,,,,,,,,,,,,,,,,,,,,,,,,,,,2,strong,35.1796875,50.4140625,1,0,0,response1disk,6,105,22.30078125,-1.4140625,1,0,0,rectangle,22.30078125,-1.4140625,1,0,0,4,1,0.00534,22.30078125,-1.4140625,1,0,0,0,104,104,40,1,0,,,,,,,,,,,,,,,,,,,,,
,,,,,,,,,,,,,,,,,,,,,,,,,,,,,,,,,,,,,,,,,,5edcaf1d96a72797d4a1e76e,606842178a9cdac5528af625,2021-04-03_11h23.38.299,Colour_Similarity_Experiment,2020.2.10,MacIntel,60,60674ec340277cd6a308bc9f,16.96964824,16.8084058,16.70608481,16.71776801,16.70829751,16.71776801,,,,,,,,,,,,,,,,,,,,PF,weak,3,,,,,,,,6,1.50266,,,,,,,,,,,,,,,,,,,,,,,,,,,,7,weak,52.1953125,23.34765625,1,0,0,response1disk,3,106,4.54296875,5.63671875,1,0,0,rectangle,4.54296875,5.63671875,1,0,0,4,3,0.00388,4.54296875,5.63671875,1,0,0,0,105,105,81,1,0,,,,,,,,,,,,,,,,,,,,,
,,,,,,,,,,,,,,,,,,,,,,,,,,,,,,,,,,,,,,,,,,5edcaf1d96a72797d4a1e76e,606842178a9cdac5528af625,2021-04-03_11h23.38.299,Colour_Similarity_Experiment,2020.2.10,MacIntel,60,60674ec340277cd6a308bc9f,16.96964824,16.8084058,16.70608481,16.71776801,16.70829751,16.71776801,,,,,,,,,,,,,,,,,,,,PF,weak,3,,,,,,,,1,1.487055,,,,,,,,,,,,,,,,,,,,,,,,,,,,3,weak,-42.84765625,17.38671875,1,0,0,response7disk,4,107,-3.203125,0.37109375,1,0,0,rectangle,-3.203125,0.37109375,1,0,0,4,6,0.00525,-3.203125,0.37109375,1,0,0,0,106,106,30,1,0,,,,,,,,,,,,,,,,,,,,,
,,,,,,,,,,,,,,,,,,,,,,,,,,,,,,,,,,,,,,,,,,5edcaf1d96a72797d4a1e76e,606842178a9cdac5528af625,2021-04-03_11h23.38.299,Colour_Similarity_Experiment,2020.2.10,MacIntel,60,60674ec340277cd6a308bc9f,16.96964824,16.8084058,16.70608481,16.71776801,16.70829751,16.71776801,,,,,,,,,,,,,,,,,,,,PF,strong,3,,,,,,,,6,1.436235,,,,,,,,,,,,,,,,,,,,,,,,,,,,1,strong,47.97265625,18.82421875,1,0,0,response1disk,9,108,9.4609375,7.6796875,1,0,0,rectangle,9.4609375,7.6796875,1,0,0,4,0,0.004675,9.4609375,7.6796875,1,0,0,0,107,107,123,1,0,,,,,,,,,,,,,,,,,,,,,
,,,,,,,,,,,,,,,,,,,,,,,,,,,,,,,,,,,,,,,,,,5edcaf1d96a72797d4a1e76e,606842178a9cdac5528af625,2021-04-03_11h23.38.299,Colour_Similarity_Experiment,2020.2.10,MacIntel,60,60674ec340277cd6a308bc9f,16.96964824,16.8084058,16.70608481,16.71776801,16.70829751,16.71776801,,,,,,,,,,,,,,,,,,,,PF,weak,3,,,,,,,,7,1.353225,,,,,,,,,,,,,,,,,,,,,,,,,,,,9,weak,24.0859375,53.24609375,1,0,0,response1disk,6,109,-3.72265625,-5.50390625,1,0,0,rectangle,-3.72265625,-5.50390625,1,0,0,4,3,0.005835,-3.72265625,-5.50390625,1,0,0,0,108,108,148,1,0,,,,,,,,,,,,,,,,,,,,,
,,,,,,,,,,,,,,,,,,,,,,,,,,,,,,,,,,,,,,,,,,5edcaf1d96a72797d4a1e76e,606842178a9cdac5528af625,2021-04-03_11h23.38.299,Colour_Similarity_Experiment,2020.2.10,MacIntel,60,60674ec340277cd6a308bc9f,16.96964824,16.8084058,16.70608481,16.71776801,16.70829751,16.71776801,,,,,,,,,,,,,,,,,,,,PF,weak,3,,,,,,,,6,1.25158,,,,,,,,,,,,,,,,,,,,,,,,,,,,8,weak,55.41796875,8.46875,1,0,0,response1disk,9,110,5.0234375,-12.07421875,1,0,0,rectangle,5.0234375,-12.07421875,1,0,0,4,4,0.00372,5.0234375,-12.07421875,1,0,0,0,109,109,42,1,0,,,,,,,,,,,,,,,,,,,,,
,,,,,,,,,,,,,,,,,,,,,,,,,,,,,,,,,,,,,,,,,,5edcaf1d96a72797d4a1e76e,606842178a9cdac5528af625,2021-04-03_11h23.38.299,Colour_Similarity_Experiment,2020.2.10,MacIntel,60,60674ec340277cd6a308bc9f,16.96964824,16.8084058,16.70608481,16.71776801,16.70829751,16.71776801,,,,,,,,,,,,,,,,,,,,PF,strong,3,,,,,,,,7,1.32152,,,,,,,,,,,,,,,,,,,,,,,,,,,,3,strong,19.99609375,51.24609375,1,0,0,response1disk,8,111,17.55859375,3.7265625,1,0,0,rectangle,17.55859375,3.7265625,1,0,0,4,5,0.003875,17.55859375,3.7265625,1,0,0,0,110,110,44,1,0,,,,,,,,,,,,,,,,,,,,,
,,,,,,,,,,,,,,,,,,,,,,,,,,,,,,,,,,,,,,,,,,5edcaf1d96a72797d4a1e76e,606842178a9cdac5528af625,2021-04-03_11h23.38.299,Colour_Similarity_Experiment,2020.2.10,MacIntel,60,60674ec340277cd6a308bc9f,16.96964824,16.8084058,16.70608481,16.71776801,16.70829751,16.71776801,,,,,,,,,,,,,,,,,,,,PF,weak,3,,,,,,,,4,2.03902,,,,,,,,,,,,,,,,,,,,,,,,,,,,1,weak,31.44140625,-51.49609375,1,0,0,response3disk,2,112,10.8984375,-1.75390625,1,0,0,rectangle,10.8984375,-1.75390625,1,0,0,4,3,0.0049,10.8984375,-1.75390625,1,0,0,0,111,111,24,1,0,,,,,,,,,,,,,,,,,,,,,
,,,,,,,,,,,,,,,,,,,,,,,,,,,,,,,,,,,,,,,,,,5edcaf1d96a72797d4a1e76e,606842178a9cdac5528af625,2021-04-03_11h23.38.299,Colour_Similarity_Experiment,2020.2.10,MacIntel,60,60674ec340277cd6a308bc9f,16.96964824,16.8084058,16.70608481,16.71776801,16.70829751,16.71776801,,,,,,,,,,,,,,,,,,,,PF,strong,3,,,,,,,,7,0.9515,,,,,,,,,,,,,,,,,,,,,,,,,,,,7,strong,36.6640625,51.46875,1,0,0,response1disk,1,113,25.87109375,5.51171875,1,0,0,rectangle,25.87109375,5.51171875,1,0,0,4,0,0.003695,25.87109375,5.51171875,1,0,0,0,112,112,132,1,0,,,,,,,,,,,,,,,,,,,,,
,,,,,,,,,,,,,,,,,,,,,,,,,,,,,,,,,,,,,,,,,,5edcaf1d96a72797d4a1e76e,606842178a9cdac5528af625,2021-04-03_11h23.38.299,Colour_Similarity_Experiment,2020.2.10,MacIntel,60,60674ec340277cd6a308bc9f,16.96964824,16.8084058,16.70608481,16.71776801,16.70829751,16.71776801,,,,,,,,,,,,,,,,,,,,PF,strong,3,,,,,,,,4,1.3695,,,,,,,,,,,,,,,,,,,,,,,,,,,,3,strong,28.65625,-51.890625,1,0,0,response3disk,3,114,27.609375,-9.15625,1,0,0,rectangle,27.609375,-9.15625,1,0,0,5,6,0.002785,27.609375,-9.15625,1,0,0,0,113,113,68,1,0,,,,,,,,,,,,,,,,,,,,,
,,,,,,,,,,,,,,,,,,,,,,,,,,,,,,,,,,,,,,,,,,5edcaf1d96a72797d4a1e76e,606842178a9cdac5528af625,2021-04-03_11h23.38.299,Colour_Similarity_Experiment,2020.2.10,MacIntel,60,60674ec340277cd6a308bc9f,16.96964824,16.8084058,16.70608481,16.71776801,16.70829751,16.71776801,,,,,,,,,,,,,,,,,,,,PF,weak,3,,,,,,,,2,2.269375,,,,,,,,,,,,,,,,,,,,,,,,,,,,4,weak,-50.58984375,-23.08203125,1,0,0,response5disk,4,115,-8.8125,-14.81640625,1,0,0,rectangle,-8.8125,-14.81640625,1,0,0,3,5,0.00474,-8.8125,-14.81640625,1,0,0,0,114,114,70,1,0,,,,,,,,,,,,,,,,,,,,,
,,,,,,,,,,,,,,,,,,,,,,,,,,,,,,,,,,,,,,,,,,5edcaf1d96a72797d4a1e76e,606842178a9cdac5528af625,2021-04-03_11h23.38.299,Colour_Similarity_Experiment,2020.2.10,MacIntel,60,60674ec340277cd6a308bc9f,16.96964824,16.8084058,16.70608481,16.71776801,16.70829751,16.71776801,,,,,,,,,,,,,,,,,,,,PF,weak,3,,,,,,,,7,0.968395,,,,,,,,,,,,,,,,,,,,,,,,,,,,1,weak,22.87109375,47.4140625,1,0,0,response1disk,4,116,11.73046875,-11.33203125,1,0,0,rectangle,11.73046875,-11.33203125,1,0,0,5,6,0.002915,11.73046875,-11.33203125,1,0,0,0,115,115,139,1,0,,,,,,,,,,,,,,,,,,,,,
,,,,,,,,,,,,,,,,,,,,,,,,,,,,,,,,,,,,,,,,,,5edcaf1d96a72797d4a1e76e,606842178a9cdac5528af625,2021-04-03_11h23.38.299,Colour_Similarity_Experiment,2020.2.10,MacIntel,60,60674ec340277cd6a308bc9f,16.96964824,16.8084058,16.70608481,16.71776801,16.70829751,16.71776801,,,,,,,,,,,,,,,,,,,,PF,strong,3,,,,,,,,7,1.10644,,,,,,,,,,,,,,,,,,,,,,,,,,,,2,strong,36.44921875,44.67578125,1,0,0,response1disk,5,117,7.55078125,-3.62890625,1,0,0,rectangle,7.55078125,-3.62890625,1,0,0,5,6,0.000145,7.55078125,-3.62890625,1,0,0,0,116,116,80,1,0,,,,,,,,,,,,,,,,,,,,,
,,,,,,,,,,,,,,,,,,,,,,,,,,,,,,,,,,,,,,,,,,5edcaf1d96a72797d4a1e76e,606842178a9cdac5528af625,2021-04-03_11h23.38.299,Colour_Similarity_Experiment,2020.2.10,MacIntel,60,60674ec340277cd6a308bc9f,16.96964824,16.8084058,16.70608481,16.71776801,16.70829751,16.71776801,,,,,,,,,,,,,,,,,,,,PF,weak,3,,,,,,,,1,1.13739,,,,,,,,,,,,,,,,,,,,,,,,,,,,6,weak,-54.72265625,30.140625,1,0,0,response7disk,6,118,-21.04296875,-14.1171875,1,0,0,rectangle,-21.04296875,-14.1171875,1,0,0,5,1,0.00465,-21.04296875,-14.1171875,1,0,0,0,117,117,0,1,0,,,,,,,,,,,,,,,,,,,,,
,,,,,,,,,,,,,,,,,,,,,,,,,,,,,,,,,,,,,,,,,,5edcaf1d96a72797d4a1e76e,606842178a9cdac5528af625,2021-04-03_11h23.38.299,Colour_Similarity_Experiment,2020.2.10,MacIntel,60,60674ec340277cd6a308bc9f,16.96964824,16.8084058,16.70608481,16.71776801,16.70829751,16.71776801,,,,,,,,,,,,,,,,,,,,PF,strong,3,,,,,,,,3,1.854295,,,,,,,,,,,,,,,,,,,,,,,,,,,,7,strong,-25.69921875,-56.19921875,1,0,0,response5disk,7,119,-0.98046875,-0.9765625,1,0,0,rectangle,-0.98046875,-0.9765625,1,0,0,5,4,0.005865,-0.98046875,-0.9765625,1,0,0,0,118,118,34,1,0,,,,,,,,,,,,,,,,,,,,,
,,,,,,,,,,,,,,,,,,,,,,,,,,,,,,,,,,,,,,,,,,5edcaf1d96a72797d4a1e76e,606842178a9cdac5528af625,2021-04-03_11h23.38.299,Colour_Similarity_Experiment,2020.2.10,MacIntel,60,60674ec340277cd6a308bc9f,16.96964824,16.8084058,16.70608481,16.71776801,16.70829751,16.71776801,,,,,,,,,,,,,,,,,,,,PF,strong,3,,,,,,,,4,1.453125,,,,,,,,,,,,,,,,,,,,,,,,,,,,7,strong,38.70703125,-50.23828125,1,0,0,response3disk,6,120,4.98046875,3.7265625,1,0,0,rectangle,4.98046875,3.7265625,1,0,0,5,6,0.004245,4.98046875,3.7265625,1,0,0,0,119,119,31,1,0,,,,,,,,,,,,,,,,,,,,,
,,,,,,,,,,,,,,,,,,,,,,,,,,,,,,,,,,,,,,,,,,5edcaf1d96a72797d4a1e76e,606842178a9cdac5528af625,2021-04-03_11h23.38.299,Colour_Similarity_Experiment,2020.2.10,MacIntel,60,60674ec340277cd6a308bc9f,16.96964824,16.8084058,16.70608481,16.71776801,16.70829751,16.71776801,,,,,,,,,,,,,,,,,,,,PF,strong,3,,,,,,,,4,1.7397,,,,,,,,,,,,,,,,,,,,,,,,,,,,3,strong,31.69921875,-44.62109375,1,0,0,response3disk,6,121,13.3359375,2.2890625,1,0,0,rectangle,13.3359375,2.2890625,1,0,0,5,7,0.00404,13.3359375,2.2890625,1,0,0,0,120,120,95,1,0,,,,,,,,,,,,,,,,,,,,,
,,,,,,,,,,,,,,,,,,,,,,,,,,,,,,,,,,,,,,,,,,5edcaf1d96a72797d4a1e76e,606842178a9cdac5528af625,2021-04-03_11h23.38.299,Colour_Similarity_Experiment,2020.2.10,MacIntel,60,60674ec340277cd6a308bc9f,16.96964824,16.8084058,16.70608481,16.71776801,16.70829751,16.71776801,,,,,,,,,,,,,,,,,,,,PF,strong,3,,,,,,,,2,1.272105,,,,,,,,,,,,,,,,,,,,,,,,,,,,3,strong,-49.2421875,-24.51953125,1,0,0,response5disk,4,122,8.5078125,0.8515625,1,0,0,rectangle,8.5078125,0.8515625,1,0,0,5,4,0.005035,8.5078125,0.8515625,1,0,0,0,121,121,110,1,0,,,,,,,,,,,,,,,,,,,,,
,,,,,,,,,,,,,,,,,,,,,,,,,,,,,,,,,,,,,,,,,,5edcaf1d96a72797d4a1e76e,606842178a9cdac5528af625,2021-04-03_11h23.38.299,Colour_Similarity_Experiment,2020.2.10,MacIntel,60,60674ec340277cd6a308bc9f,16.96964824,16.8084058,16.70608481,16.71776801,16.70829751,16.71776801,,,,,,,,,,,,,,,,,,,,PF,weak,3,,,,,,,,3,1.304645,,,,,,,,,,,,,,,,,,,,,,,,,,,,6,weak,-20.6953125,-52.0234375,1,0,0,response5disk,7,123,5.11328125,-1.71875,1,0,0,rectangle,5.11328125,-1.71875,1,0,0,5,6,0.006135,5.11328125,-1.71875,1,0,0,0,122,122,50,1,0,,,,,,,,,,,,,,,,,,,,,
,,,,,,,,,,,,,,,,,,,,,,,,,,,,,,,,,,,,,,,,,,5edcaf1d96a72797d4a1e76e,606842178a9cdac5528af625,2021-04-03_11h23.38.299,Colour_Similarity_Experiment,2020.2.10,MacIntel,60,60674ec340277cd6a308bc9f,16.96964824,16.8084058,16.70608481,16.71776801,16.70829751,16.71776801,,,,,,,,,,,,,,,,,,,,PF,weak,3,,,,,,,,7,0.96821,,,,,,,,,,,,,,,,,,,,,,,,,,,,1,weak,26.7421875,56.37890625,1,0,0,response1disk,7,124,15.94921875,-2.28125,1,0,0,rectangle,15.94921875,-2.28125,1,0,0,5,7,0.004695,15.94921875,-2.28125,1,0,0,0,123,123,150,1,0,,,,,,,,,,,,,,,,,,,,,
,,,,,,,,,,,,,,,,,,,,,,,,,,,,,,,,,,,,,,,,,,5edcaf1d96a72797d4a1e76e,606842178a9cdac5528af625,2021-04-03_11h23.38.299,Colour_Similarity_Experiment,2020.2.10,MacIntel,60,60674ec340277cd6a308bc9f,16.96964824,16.8084058,16.70608481,16.71776801,16.70829751,16.71776801,,,,,,,,,,,,,,,,,,,,PF,strong,3,,,,,,,,3,1.337355,,,,,,,,,,,,,,,,,,,,,,,,,,,,6,strong,-26.828125,-47.9765625,1,0,0,response5disk,5,125,-16.7734375,0.71875,1,0,0,rectangle,-16.7734375,0.71875,1,0,0,5,0,0.003565,-16.7734375,0.71875,1,0,0,0,124,124,126,1,0,,,,,,,,,,,,,,,,,,,,,
,,,,,,,,,,,,,,,,,,,,,,,,,,,,,,,,,,,,,,,,,,5edcaf1d96a72797d4a1e76e,606842178a9cdac5528af625,2021-04-03_11h23.38.299,Colour_Similarity_Experiment,2020.2.10,MacIntel,60,60674ec340277cd6a308bc9f,16.96964824,16.8084058,16.70608481,16.71776801,16.70829751,16.71776801,,,,,,,,,,,,,,,,,,,,PF,strong,3,,,,,,,,3,1.221115,,,,,,,,,,,,,,,,,,,,,,,,,,,,9,strong,-25.48046875,-48.62890625,1,0,0,response5disk,4,126,-15.3828125,-6.109375,1,0,0,rectangle,-15.3828125,-6.109375,1,0,0,5,5,0.00356,-15.3828125,-6.109375,1,0,0,0,125,125,60,1,0,,,,,,,,,,,,,,,,,,,,,
,,,,,,,,,,,,,,,,,,,,,,,,,,,,,,,,,,,,,,,,,,5edcaf1d96a72797d4a1e76e,606842178a9cdac5528af625,2021-04-03_11h23.38.299,Colour_Similarity_Experiment,2020.2.10,MacIntel,60,60674ec340277cd6a308bc9f,16.96964824,16.8084058,16.70608481,16.71776801,16.70829751,16.71776801,,,,,,,,,,,,,,,,,,,,PF,strong,3,,,,,,,,7,1.06969,,,,,,,,,,,,,,,,,,,,,,,,,,,,1,strong,28.39453125,60.9921875,1,0,0,response1disk,3,127,9.24609375,-4.06640625,1,0,0,rectangle,9.24609375,-4.06640625,1,0,0,5,1,0.00422,9.24609375,-4.06640625,1,0,0,0,126,126,99,1,0,,,,,,,,,,,,,,,,,,,,,
,,,,,,,,,,,,,,,,,,,,,,,,,,,,,,,,,,,,,,,,,,5edcaf1d96a72797d4a1e76e,606842178a9cdac5528af625,2021-04-03_11h23.38.299,Colour_Similarity_Experiment,2020.2.10,MacIntel,60,60674ec340277cd6a308bc9f,16.96964824,16.8084058,16.70608481,16.71776801,16.70829751,16.71776801,,,,,,,,,,,,,,,,,,,,PF,strong,3,,,,,,,,6,1.954615,,,,,,,,,,,,,,,,,,,,,,,,,,,,5,strong,55.85546875,22.7421875,1,0,0,response1disk,8,128,2.67578125,-6.15625,1,0,0,rectangle,2.67578125,-6.15625,1,0,0,5,4,0.00466,2.67578125,-6.15625,1,0,0,0,127,127,16,1,0,,,,,,,,,,,,,,,,,,,,,
,,,,,,,,,,,,,,,,,,,,,,,,,,,,,,,,,,,,,,,,,,5edcaf1d96a72797d4a1e76e,606842178a9cdac5528af625,2021-04-03_11h23.38.299,Colour_Similarity_Experiment,2020.2.10,MacIntel,60,60674ec340277cd6a308bc9f,16.96964824,16.8084058,16.70608481,16.71776801,16.70829751,16.71776801,,,,,,,,,,,,,,,,,,,,PF,weak,3,,,,,,,,3,1.521205,,,,,,,,,,,,,,,,,,,,,,,,,,,,7,weak,-34.31640625,-54.15625,1,0,0,response5disk,6,129,-9.3359375,-2.76171875,1,0,0,rectangle,-9.3359375,-2.76171875,1,0,0,5,1,0.003245,-9.3359375,-2.76171875,1,0,0,0,128,128,29,1,0,,,,,,,,,,,,,,,,,,,,,
,,,,,,,,,,,,,,,,,,,,,,,,,,,,,,,,,,,,,,,,,,5edcaf1d96a72797d4a1e76e,606842178a9cdac5528af625,2021-04-03_11h23.38.299,Colour_Similarity_Experiment,2020.2.10,MacIntel,60,60674ec340277cd6a308bc9f,16.96964824,16.8084058,16.70608481,16.71776801,16.70829751,16.71776801,,,,,,,,,,,,,,,,,,,,PF,strong,3,,,,,,,,4,1.287025,,,,,,,,,,,,,,,,,,,,,,,,,,,,4,strong,30.30859375,-45.453125,1,0,0,response3disk,6,130,5.23828125,-6.76171875,1,0,0,rectangle,5.23828125,-6.76171875,1,0,0,5,1,0.000285,5.23828125,-6.76171875,1,0,0,0,129,129,122,1,0,,,,,,,,,,,,,,,,,,,,,
,,,,,,,,,,,,,,,,,,,,,,,,,,,,,,,,,,,,,,,,,,5edcaf1d96a72797d4a1e76e,606842178a9cdac5528af625,2021-04-03_11h23.38.299,Colour_Similarity_Experiment,2020.2.10,MacIntel,60,60674ec340277cd6a308bc9f,16.96964824,16.8084058,16.70608481,16.71776801,16.70829751,16.71776801,,,,,,,,,,,,,,,,,,,,PF,strong,3,,,,,,,,3,1.20297,,,,,,,,,,,,,,,,,,,,,,,,,,,,4,strong,-24.00390625,-45.75390625,1,0,0,response5disk,4,131,-6.3828125,-4.94140625,1,0,0,rectangle,-6.3828125,-4.94140625,1,0,0,5,5,0.00404,-6.3828125,-4.94140625,1,0,0,0,130,130,84,1,0,,,,,,,,,,,,,,,,,,,,,
,,,,,,,,,,,,,,,,,,,,,,,,,,,,,,,,,,,,,,,,,,5edcaf1d96a72797d4a1e76e,606842178a9cdac5528af625,2021-04-03_11h23.38.299,Colour_Similarity_Experiment,2020.2.10,MacIntel,60,60674ec340277cd6a308bc9f,16.96964824,16.8084058,16.70608481,16.71776801,16.70829751,16.71776801,,,,,,,,,,,,,,,,,,,,PF,strong,3,,,,,,,,7,0.934155,,,,,,,,,,,,,,,,,,,,,,,,,,,,1,strong,30.0390625,47.49609375,1,0,0,response1disk,7,132,11.98046875,-0.4609375,1,0,0,rectangle,11.98046875,-0.4609375,1,0,0,5,3,0.004655,11.98046875,-0.4609375,1,0,0,0,131,131,137,1,0,,,,,,,,,,,,,,,,,,,,,
,,,,,,,,,,,,,,,,,,,,,,,,,,,,,,,,,,,,,,,,,,5edcaf1d96a72797d4a1e76e,606842178a9cdac5528af625,2021-04-03_11h23.38.299,Colour_Similarity_Experiment,2020.2.10,MacIntel,60,60674ec340277cd6a308bc9f,16.96964824,16.8084058,16.70608481,16.71776801,16.70829751,16.71776801,,,,,,,,,,,,,,,,,,,,PF,strong,3,,,,,,,,7,1.12068,,,,,,,,,,,,,,,,,,,,,,,,,,,,1,strong,33.21875,51.76171875,1,0,0,response1disk,5,133,14.4609375,-4.984375,1,0,0,rectangle,14.4609375,-4.984375,1,0,0,5,5,0.00446,14.4609375,-4.984375,1,0,0,0,132,132,82,1,0,,,,,,,,,,,,,,,,,,,,,
,,,,,,,,,,,,,,,,,,,,,,,,,,,,,,,,,,,,,,,,,,5edcaf1d96a72797d4a1e76e,606842178a9cdac5528af625,2021-04-03_11h23.38.299,Colour_Similarity_Experiment,2020.2.10,MacIntel,60,60674ec340277cd6a308bc9f,16.96964824,16.8084058,16.70608481,16.71776801,16.70829751,16.71776801,,,,,,,,,,,,,,,,,,,,PF,weak,3,,,,,,,,7,0.85134,,,,,,,,,,,,,,,,,,,,,,,,,,,,2,weak,29.43359375,55.59375,1,0,0,response1disk,4,134,25.6015625,-3.45703125,1,0,0,rectangle,25.6015625,-3.45703125,1,0,0,5,0,0.00457,25.6015625,-3.45703125,1,0,0,0,133,133,127,1,0,,,,,,,,,,,,,,,,,,,,,
,,,,,,,,,,,,,,,,,,,,,,,,,,,,,,,,,,,,,,,,,,5edcaf1d96a72797d4a1e76e,606842178a9cdac5528af625,2021-04-03_11h23.38.299,Colour_Similarity_Experiment,2020.2.10,MacIntel,60,60674ec340277cd6a308bc9f,16.96964824,16.8084058,16.70608481,16.71776801,16.70829751,16.71776801,,,,,,,,,,,,,,,,,,,,PF,strong,3,,,,,,,,6,1.840015,,,,,,,,,,,,,,,,,,,,,,,,,,,,6,strong,47.14453125,27.48046875,1,0,0,response1disk,8,135,10.58984375,-8.76953125,1,0,0,rectangle,10.58984375,-8.76953125,1,0,0,5,1,0.002125,10.58984375,-8.76953125,1,0,0,0,134,134,133,1,0,,,,,,,,,,,,,,,,,,,,,
,,,,,,,,,,,,,,,,,,,,,,,,,,,,,,,,,,,,,,,,,,5edcaf1d96a72797d4a1e76e,606842178a9cdac5528af625,2021-04-03_11h23.38.299,Colour_Similarity_Experiment,2020.2.10,MacIntel,60,60674ec340277cd6a308bc9f,16.96964824,16.8084058,16.70608481,16.71776801,16.70829751,16.71776801,,,,,,,,,,,,,,,,,,,,PF,weak,3,,,,,,,,3,1.117885,,,,,,,,,,,,,,,,,,,,,,,,,,,,3,weak,-22.87890625,-51.94140625,1,0,0,response5disk,5,136,-3.42578125,-0.45703125,1,0,0,rectangle,-3.42578125,-0.45703125,1,0,0,5,5,0.004395,-3.42578125,-0.45703125,1,0,0,0,135,135,66,1,0,,,,,,,,,,,,,,,,,,,,,
,,,,,,,,,,,,,,,,,,,,,,,,,,,,,,,,,,,,,,,,,,5edcaf1d96a72797d4a1e76e,606842178a9cdac5528af625,2021-04-03_11h23.38.299,Colour_Similarity_Experiment,2020.2.10,MacIntel,60,60674ec340277cd6a308bc9f,16.96964824,16.8084058,16.70608481,16.71776801,16.70829751,16.71776801,,,,,,,,,,,,,,,,,,,,PF,strong,3,,,,,,,,7,1.421265,,,,,,,,,,,,,,,,,,,,,,,,,,,,5,strong,29.6484375,50.37109375,1,0,0,response1disk,1,137,15.375,-2.109375,1,0,0,rectangle,15.375,-2.109375,1,0,0,5,4,0.00502,15.375,-2.109375,1,0,0,0,136,136,131,1,0,,,,,,,,,,,,,,,,,,,,,
,,,,,,,,,,,,,,,,,,,,,,,,,,,,,,,,,,,,,,,,,,5edcaf1d96a72797d4a1e76e,606842178a9cdac5528af625,2021-04-03_11h23.38.299,Colour_Similarity_Experiment,2020.2.10,MacIntel,60,60674ec340277cd6a308bc9f,16.96964824,16.8084058,16.70608481,16.71776801,16.70829751,16.71776801,,,,,,,,,,,,,,,,,,,,PF,strong,3,,,,,,,,4,1.806115,,,,,,,,,,,,,,,,,,,,,,,,,,,,7,strong,21.29296875,-54.2890625,1,0,0,response3disk,4,138,19.55078125,-3.45703125,1,0,0,rectangle,19.55078125,-3.45703125,1,0,0,5,2,0.004785,19.55078125,-3.45703125,1,0,0,0,137,137,158,1,0,,,,,,,,,,,,,,,,,,,,,
,,,,,,,,,,,,,,,,,,,,,,,,,,,,,,,,,,,,,,,,,,5edcaf1d96a72797d4a1e76e,606842178a9cdac5528af625,2021-04-03_11h23.38.299,Colour_Similarity_Experiment,2020.2.10,MacIntel,60,60674ec340277cd6a308bc9f,16.96964824,16.8084058,16.70608481,16.71776801,16.70829751,16.71776801,,,,,,,,,,,,,,,,,,,,PF,weak,3,,,,,,,,4,1.46997,,,,,,,,,,,,,,,,,,,,,,,,,,,,1,weak,27.90625,-55.89453125,1,0,0,response3disk,9,139,23.078125,-12.20703125,1,0,0,rectangle,23.078125,-12.20703125,1,0,0,5,7,0.00504,23.078125,-12.20703125,1,0,0,0,138,138,15,1,0,,,,,,,,,,,,,,,,,,,,,
,,,,,,,,,,,,,,,,,,,,,,,,,,,,,,,,,,,,,,,,,,5edcaf1d96a72797d4a1e76e,606842178a9cdac5528af625,2021-04-03_11h23.38.299,Colour_Similarity_Experiment,2020.2.10,MacIntel,60,60674ec340277cd6a308bc9f,16.96964824,16.8084058,16.70608481,16.71776801,16.70829751,16.71776801,,,,,,,,,,,,,,,,,,,,PF,strong,3,,,,,,,,3,1.85401,,,,,,,,,,,,,,,,,,,,,,,,,,,,9,strong,-14.5234375,-49.9765625,1,0,0,response5disk,5,140,-1.640625,-6.984375,1,0,0,rectangle,-1.640625,-6.984375,1,0,0,5,1,0.00359,-1.640625,-6.984375,1,0,0,0,139,139,128,1,0,,,,,,,,,,,,,,,,,,,,,
,,,,,,,,,,,,,,,,,,,,,,,,,,,,,,,,,,,,,,,,,,5edcaf1d96a72797d4a1e76e,606842178a9cdac5528af625,2021-04-03_11h23.38.299,Colour_Similarity_Experiment,2020.2.10,MacIntel,60,60674ec340277cd6a308bc9f,16.96964824,16.8084058,16.70608481,16.71776801,16.70829751,16.71776801,,,,,,,,,,,,,,,,,,,,PF,strong,3,,,,,,,,2,1.100525,,,,,,,,,,,,,,,,,,,,,,,,,,,,6,strong,-62.56640625,-24.7421875,1,0,0,response5disk,7,141,-8.953125,-5.63671875,1,0,0,rectangle,-8.953125,-5.63671875,1,0,0,5,1,0.00041,-8.953125,-5.63671875,1,0,0,0,140,140,18,1,0,,,,,,,,,,,,,,,,,,,,,
,,,,,,,,,,,,,,,,,,,,,,,,,,,,,,,,,,,,,,,,,,5edcaf1d96a72797d4a1e76e,606842178a9cdac5528af625,2021-04-03_11h23.38.299,Colour_Similarity_Experiment,2020.2.10,MacIntel,60,60674ec340277cd6a308bc9f,16.96964824,16.8084058,16.70608481,16.71776801,16.70829751,16.71776801,,,,,,,,,,,,,,,,,,,,PF,weak,3,,,,,,,,5,1.688725,,,,,,,,,,,,,,,,,,,,,,,,,,,,3,weak,46.40234375,-36.18359375,1,0,0,response3disk,2,142,8.84765625,-10.421875,1,0,0,rectangle,-23.484375,-65.125,1,0,0,3,3,2.608205,5.41015625,-5.59375,1,0,0,0,141,141,36,1,1,response5disk_3,rectangle,,,,,,,,,,,,,,,,,,,
,,,,,,,,,,,,,,,,,,,,,,,,,,,,,,,,,,,,,,,,,,5edcaf1d96a72797d4a1e76e,606842178a9cdac5528af625,2021-04-03_11h23.38.299,Colour_Similarity_Experiment,2020.2.10,MacIntel,60,60674ec340277cd6a308bc9f,16.96964824,16.8084058,16.70608481,16.71776801,16.70829751,16.71776801,,,,,,,,,,,,,,,,,,,,PF,weak,3,,,,,,,,5,1.286005,,,,,,,,,,,,,,,,,,,,,,,,,,,,4,weak,48.8828125,-23.21484375,1,0,0,response3disk,7,143,8.54296875,-2.32421875,1,0,0,rectangle,8.54296875,-2.32421875,1,0,0,3,1,0.0039,8.54296875,-2.32421875,1,0,0,0,142,142,38,1,0,,,,,,,,,,,,,,,,,,,,,
,,,,,,,,,,,,,,,,,,,,,,,,,,,,,,,,,,,,,,,,,,5edcaf1d96a72797d4a1e76e,606842178a9cdac5528af625,2021-04-03_11h23.38.299,Colour_Similarity_Experiment,2020.2.10,MacIntel,60,60674ec340277cd6a308bc9f,16.96964824,16.8084058,16.70608481,16.71776801,16.70829751,16.71776801,,,,,,,,,,,,,,,,,,,,PF,weak,3,,,,,,,,7,1.06853,,,,,,,,,,,,,,,,,,,,,,,,,,,,3,weak,23.81640625,55.07421875,1,0,0,response1disk,8,144,14.4609375,-6.2890625,1,0,0,rectangle,14.4609375,-6.2890625,1,0,0,3,0,0.0054,14.4609375,-6.2890625,1,0,0,0,143,143,3,1,0,,,,,,,,,,,,,,,,,,,,,
,,,,,,,,,,,,,,,,,,,,,,,,,,,,,,,,,,,,,,,,,,5edcaf1d96a72797d4a1e76e,606842178a9cdac5528af625,2021-04-03_11h23.38.299,Colour_Similarity_Experiment,2020.2.10,MacIntel,60,60674ec340277cd6a308bc9f,16.96964824,16.8084058,16.70608481,16.71776801,16.70829751,16.71776801,,,,,,,,,,,,,,,,,,,,PF,strong,3,,,,,,,,7,1.054515,,,,,,,,,,,,,,,,,,,,,,,,,,,,6,strong,29.78125,44.05859375,1,0,0,response1disk,1,145,23.1640625,-0.37109375,1,0,0,rectangle,23.1640625,-0.37109375,1,0,0,3,6,0.004125,23.1640625,-0.37109375,1,0,0,0,144,144,5,1,0,,,,,,,,,,,,,,,,,,,,,
,,,,,,,,,,,,,,,,,,,,,,,,,,,,,,,,,,,,,,,,,,5edcaf1d96a72797d4a1e76e,606842178a9cdac5528af625,2021-04-03_11h23.38.299,Colour_Similarity_Experiment,2020.2.10,MacIntel,60,60674ec340277cd6a308bc9f,16.96964824,16.8084058,16.70608481,16.71776801,16.70829751,16.71776801,,,,,,,,,,,,,,,,,,,,PF,weak,3,,,,,,,,2,1.052175,,,,,,,,,,,,,,,,,,,,,,,,,,,,4,weak,-42.84765625,-19.51953125,1,0,0,response5disk,3,146,-1.16015625,-0.76171875,1,0,0,rectangle,-1.16015625,-0.76171875,1,0,0,3,3,0.005555,-1.16015625,-0.76171875,1,0,0,0,145,145,89,1,0,,,,,,,,,,,,,,,,,,,,,
,,,,,,,,,,,,,,,,,,,,,,,,,,,,,,,,,,,,,,,,,,5edcaf1d96a72797d4a1e76e,606842178a9cdac5528af625,2021-04-03_11h23.38.299,Colour_Similarity_Experiment,2020.2.10,MacIntel,60,60674ec340277cd6a308bc9f,16.96964824,16.8084058,16.70608481,16.71776801,16.70829751,16.71776801,,,,,,,,,,,,,,,,,,,,PF,weak,3,,,,,,,,5,1.3182,,,,,,,,,,,,,,,,,,,,,,,,,,,,7,weak,47.234375,-15.6875,1,0,0,response3disk,8,147,6.6328125,-13.6875,1,0,0,rectangle,6.6328125,-13.6875,1,0,0,3,6,0.005455,6.6328125,-13.6875,1,0,0,0,146,146,140,1,0,,,,,,,,,,,,,,,,,,,,,
,,,,,,,,,,,,,,,,,,,,,,,,,,,,,,,,,,,,,,,,,,5edcaf1d96a72797d4a1e76e,606842178a9cdac5528af625,2021-04-03_11h23.38.299,Colour_Similarity_Experiment,2020.2.10,MacIntel,60,60674ec340277cd6a308bc9f,16.96964824,16.8084058,16.70608481,16.71776801,16.70829751,16.71776801,,,,,,,,,,,,,,,,,,,,PF,weak,3,,,,,,,,7,0.88458,,,,,,,,,,,,,,,,,,,,,,,,,,,,2,weak,37.26953125,49.80078125,1,0,0,response1disk,5,148,21.69140625,-8.94921875,1,0,0,rectangle,21.69140625,-8.94921875,1,0,0,5,5,0.009355,21.69140625,-8.94921875,1,0,0,0,147,147,147,1,0,,,,,,,,,,,,,,,,,,,,,
,,,,,,,,,,,,,,,,,,,,,,,,,,,,,,,,,,,,,,,,,,5edcaf1d96a72797d4a1e76e,606842178a9cdac5528af625,2021-04-03_11h23.38.299,Colour_Similarity_Experiment,2020.2.10,MacIntel,60,60674ec340277cd6a308bc9f,16.96964824,16.8084058,16.70608481,16.71776801,16.70829751,16.71776801,,,,,,,,,,,,,,,,,,,,PF,strong,3,,,,,,,,7,1.086615,,,,,,,,,,,,,,,,,,,,,,,,,,,,4,strong,29.69921875,49.19140625,1,0,0,response1disk,9,149,8.80859375,-1.984375,1,0,0,rectangle,8.80859375,-1.984375,1,0,0,5,5,0.00016,8.80859375,-1.984375,1,0,0,0,148,148,90,1,0,,,,,,,,,,,,,,,,,,,,,
,,,,,,,,,,,,,,,,,,,,,,,,,,,,,,,,,,,,,,,,,,5edcaf1d96a72797d4a1e76e,606842178a9cdac5528af625,2021-04-03_11h23.38.299,Colour_Similarity_Experiment,2020.2.10,MacIntel,60,60674ec340277cd6a308bc9f,16.96964824,16.8084058,16.70608481,16.71776801,16.70829751,16.71776801,,,,,,,,,,,,,,,,,,,,PF,weak,3,,,,,,,,7,1.070035,,,,,,,,,,,,,,,,,,,,,,,,,,,,5,weak,31.44140625,39.3984375,1,0,0,response1disk,2,150,17.515625,-17.60546875,1,0,0,rectangle,17.515625,-17.60546875,1,0,0,4,6,0.005125,17.515625,-17.60546875,1,0,0,0,149,149,129,1,0,,,,,,,,,,,,,,,,,,,,,
,,,,,,,,,,,,,,,,,,,,,,,,,,,,,,,,,,,,,,,,,,5edcaf1d96a72797d4a1e76e,606842178a9cdac5528af625,2021-04-03_11h23.38.299,Colour_Similarity_Experiment,2020.2.10,MacIntel,60,60674ec340277cd6a308bc9f,16.96964824,16.8084058,16.70608481,16.71776801,16.70829751,16.71776801,,,,,,,,,,,,,,,,,,,,PF,strong,3,,,,,,,,7,1.01946,,,,,,,,,,,,,,,,,,,,,,,,,,,,7,strong,30.3515625,39.8359375,1,0,0,response1disk,9,151,23.82421875,-9.51171875,1,0,0,rectangle,23.82421875,-9.51171875,1,0,0,5,1,0.00445,23.82421875,-9.51171875,1,0,0,0,150,150,155,1,0,,,,,,,,,,,,,,,,,,,,,
,,,,,,,,,,,,,,,,,,,,,,,,,,,,,,,,,,,,,,,,,,5edcaf1d96a72797d4a1e76e,606842178a9cdac5528af625,2021-04-03_11h23.38.299,Colour_Similarity_Experiment,2020.2.10,MacIntel,60,60674ec340277cd6a308bc9f,16.96964824,16.8084058,16.70608481,16.71776801,16.70829751,16.71776801,,,,,,,,,,,,,,,,,,,,PF,strong,3,,,,,,,,6,1.42149,,,,,,,,,,,,,,,,,,,,,,,,,,,,6,strong,55.16015625,16.90234375,1,0,0,response1disk,9,152,-4.6328125,-2.24609375,1,0,0,rectangle,23.56640625,-46.109375,1,0,0,4,4,2.17168,14.515625,-13.734375,1,0,0,0,151,151,160,1,1,response3disk_3,rectangle,,,,,,,,,,,,,,,,,,,
,,,,,,,,,,,,,,,,,,,,,,,,,,,,,,,,,,,,,,,,,,5edcaf1d96a72797d4a1e76e,606842178a9cdac5528af625,2021-04-03_11h23.38.299,Colour_Similarity_Experiment,2020.2.10,MacIntel,60,60674ec340277cd6a308bc9f,16.96964824,16.8084058,16.70608481,16.71776801,16.70829751,16.71776801,,,,,,,,,,,,,,,,,,,,PF,weak,3,,,,,,,,5,2.724815,,,,,,,,,,,,,,,,,,,,,,,,,,,,4,weak,45.84765625,-23.52734375,1,0,0,response3disk,6,153,5.80859375,-4.03125,1,0,0,rectangle,5.80859375,-4.03125,1,0,0,4,1,0.004795,5.80859375,-4.03125,1,0,0,0,152,152,120,1,0,,,,,,,,,,,,,,,,,,,,,
,,,,,,,,,,,,,,,,,,,,,,,,,,,,,,,,,,,,,,,,,,5edcaf1d96a72797d4a1e76e,606842178a9cdac5528af625,2021-04-03_11h23.38.299,Colour_Similarity_Experiment,2020.2.10,MacIntel,60,60674ec340277cd6a308bc9f,16.96964824,16.8084058,16.70608481,16.71776801,16.70829751,16.71776801,,,,,,,,,,,,,,,,,,,,PF,strong,3,,,,,,,,6,1.773165,,,,,,,,,,,,,,,,,,,,,,,,,,,,8,strong,51.375,24.51953125,1,0,0,response1disk,9,154,-9.5078125,-0.63671875,1,0,0,rectangle,-9.5078125,-0.63671875,1,0,0,4,1,0.000245,-9.5078125,-0.63671875,1,0,0,0,153,153,105,1,0,,,,,,,,,,,,,,,,,,,,,
,,,,,,,,,,,,,,,,,,,,,,,,,,,,,,,,,,,,,,,,,,5edcaf1d96a72797d4a1e76e,606842178a9cdac5528af625,2021-04-03_11h23.38.299,Colour_Similarity_Experiment,2020.2.10,MacIntel,60,60674ec340277cd6a308bc9f,16.96964824,16.8084058,16.70608481,16.71776801,16.70829751,16.71776801,,,,,,,,,,,,,,,,,,,,PF,weak,3,,,,,,,,2,1.286565,,,,,,,,,,,,,,,,,,,,,,,,,,,,1,weak,-46.76171875,-38.5390625,1,0,0,response5disk,1,155,-8.1171875,-5.859375,1,0,0,rectangle,-55.8125,14.03125,1,0,0,1,1,1.720765,-9.29296875,-0.15625,1,0,0,0,154,154,76,1,1,response7disk_3,rectangle,,,,,,,,,,,,,,,,,,,
,,,,,,,,,,,,,,,,,,,,,,,,,,,,,,,,,,,,,,,,,,5edcaf1d96a72797d4a1e76e,606842178a9cdac5528af625,2021-04-03_11h23.38.299,Colour_Similarity_Experiment,2020.2.10,MacIntel,60,60674ec340277cd6a308bc9f,16.96964824,16.8084058,16.70608481,16.71776801,16.70829751,16.71776801,,,,,,,,,,,,,,,,,,,,PF,strong,3,,,,,,,,4,1.47105,,,,,,,,,,,,,,,,,,,,,,,,,,,,2,strong,31.09375,-60.6875,1,0,0,response3disk,4,156,23.4765625,-9.1640625,1,0,0,rectangle,23.4765625,-9.1640625,1,0,0,5,3,0.00622,23.4765625,-9.1640625,1,0,0,0,155,155,145,1,0,,,,,,,,,,,,,,,,,,,,,
,,,,,,,,,,,,,,,,,,,,,,,,,,,,,,,,,,,,,,,,,,5edcaf1d96a72797d4a1e76e,606842178a9cdac5528af625,2021-04-03_11h23.38.299,Colour_Similarity_Experiment,2020.2.10,MacIntel,60,60674ec340277cd6a308bc9f,16.96964824,16.8084058,16.70608481,16.71776801,16.70829751,16.71776801,,,,,,,,,,,,,,,,,,,,PF,weak,3,,,,,,,,6,1.68666,,,,,,,,,,,,,,,,,,,,,,,,,,,,9,weak,50.9375,27,1,0,0,response1disk,8,157,-2.98046875,5.76171875,1,0,0,rectangle,-2.98046875,5.76171875,1,0,0,5,4,0.004625,-2.98046875,5.76171875,1,0,0,0,156,156,67,1,0,,,,,,,,,,,,,,,,,,,,,
,,,,,,,,,,,,,,,,,,,,,,,,,,,,,,,,,,,,,,,,,,5edcaf1d96a72797d4a1e76e,606842178a9cdac5528af625,2021-04-03_11h23.38.299,Colour_Similarity_Experiment,2020.2.10,MacIntel,60,60674ec340277cd6a308bc9f,16.96964824,16.8084058,16.70608481,16.71776801,16.70829751,16.71776801,,,,,,,,,,,,,,,,,,,,PF,weak,3,,,,,,,,7,0.846535,,,,,,,,,,,,,,,,,,,,,,,,,,,,7,weak,28.21875,53.76171875,1,0,0,response1disk,2,158,-2.41796875,-1.8515625,1,0,0,rectangle,-2.41796875,-1.8515625,1,0,0,5,1,0.00374,-2.41796875,-1.8515625,1,0,0,0,157,157,32,1,0,,,,,,,,,,,,,,,,,,,,,
,,,,,,,,,,,,,,,,,,,,,,,,,,,,,,,,,,,,,,,,,,5edcaf1d96a72797d4a1e76e,606842178a9cdac5528af625,2021-04-03_11h23.38.299,Colour_Similarity_Experiment,2020.2.10,MacIntel,60,60674ec340277cd6a308bc9f,16.96964824,16.8084058,16.70608481,16.71776801,16.70829751,16.71776801,,,,,,,,,,,,,,,,,,,,PF,weak,3,,,,,,,,7,0.848485,,,,,,,,,,,,,,,,,,,,,,,,,,,,5,weak,21.953125,49.67578125,1,0,0,response1disk,1,159,0.3671875,-7.03125,1,0,0,rectangle,56.0703125,-23.828125,1,0,0,5,5,1.93695,29.87109375,-2.76953125,1,0,0,0,158,158,159,1,1,response3disk_3,rectangle,,,,,,,,,,,,,,,,,,,
,,,,,,,,,,,,,,,,,,,,,,,,,,,,,,,,,,,,,,,,,,5edcaf1d96a72797d4a1e76e,606842178a9cdac5528af625,2021-04-03_11h23.38.299,Colour_Similarity_Experiment,2020.2.10,MacIntel,60,60674ec340277cd6a308bc9f,16.96964824,16.8084058,16.70608481,16.71776801,16.70829751,16.71776801,,,,,,,,,,,,,,,,,,,,PF,weak,3,,,,,,,,5,1.90424,,,,,,,,,,,,,,,,,,,,,,,,,,,,9,weak,60.4609375,-14.60546875,1,0,0,response3disk,1,160,1.16015625,10.48046875,1,0,0,rectangle,1.16015625,10.48046875,1,0,0,5,0,0.004285,1.16015625,10.48046875,1,0,0,0,159,159,74,1,0,,,,,,,,,,,,,,,,,,,,,
,,,,,,,,,,,,,,,,,,,,,,,,,,,,,,,,,,,,,,,,,,5edcaf1d96a72797d4a1e76e,606842178a9cdac5528af625,2021-04-03_11h23.38.299,Colour_Similarity_Experiment,2020.2.10,MacIntel,60,60674ec340277cd6a308bc9f,16.96964824,16.8084058,16.70608481,16.71776801,16.70829751,16.71776801,,,,,,,,,,,,,,,,,,,,PF,strong,3,,,,,,,,7,1.08557,,,,,,,,,,,,,,,,,,,,,,,,,,,,6,strong,42.98046875,54.6953125,1,0,0,response1disk,2,161,15.9140625,6.34765625,1,0,0,rectangle,15.9140625,6.34765625,1,0,0,5,5,0.004885,15.9140625,6.34765625,1,0,0,0,160,160,112,1,0,,,,,,,,,,,,,,,,,,,,,
,,,,,,,,,,,,,,,,,,,,,,,,,,,,,,,,,,,,,,,,,,5edcaf1d96a72797d4a1e76e,606842178a9cdac5528af625,2021-04-03_11h23.38.299,Colour_Similarity_Experiment,2020.2.10,MacIntel,60,60674ec340277cd6a308bc9f,16.96964824,16.8084058,16.70608481,16.71776801,16.70829751,16.71776801,,,,,,,,,,,,,,,,,,,,PF,weak,3,,,,,,,,7,1.0518,,,,,,,,,,,,,,,,,,,,,,,,,,,,5,weak,25.6171875,41.1171875,1,0,0,response1disk,9,162,24.57421875,-2.66015625,1,0,0,rectangle,-21.98828125,52.39453125,1,0,0,0,0,1.50471,-9.1953125,-3.35546875,1,0,0,0,161,161,136,1,1,response7disk_3,rectangle,,,,,,,,,,,,,,,,,,,
,,,,,,,,,,,,,,,,,,,,,,,,,,,,,,,,,,,,,,,,,,5edcaf1d96a72797d4a1e76e,606842178a9cdac5528af625,2021-04-03_11h23.38.299,Colour_Similarity_Experiment,2020.2.10,MacIntel,60,60674ec340277cd6a308bc9f,16.96964824,16.8084058,16.70608481,16.71776801,16.70829751,16.71776801,,,,,,,,,,,,,,,,,,,,,,,,,,,,,,,,,,,,,,,,,,,,,,,,,,,,,,,,,,,,,,,,,,,,,,,,,,,,,,,,,,,,,,,,,,,,,,,,0,0,0,0,1,,,,,,,,,,,,,,
,,,,,,,,,,,,,,,,,,,,,,,,,,,,,,,,,,,,,,,,,,5edcaf1d96a72797d4a1e76e,606842178a9cdac5528af625,2021-04-03_11h23.38.299,Colour_Similarity_Experiment,2020.2.10,MacIntel,60,60674ec340277cd6a308bc9f,16.96964824,16.8084058,16.70608481,16.71776801,16.70829751,16.71776801,,,,,,,,,,,,,,,,,,,,PF,strong,3,,,,,,,,5,1.33627,,,,,,,,,,,,,,,,,,,,,,,,,,,,7,strong,61.21875,-28.37890625,1,0,0,response3disk,5,163,6.99609375,-6.09765625,1,0,0,rectangle,6.99609375,-6.09765625,1,0,0,0,5,0.004055,6.99609375,-6.09765625,1,0,0,0,0,0,156,1,0,,,,,,,,,,,,,,,,,,,,,
,,,,,,,,,,,,,,,,,,,,,,,,,,,,,,,,,,,,,,,,,,5edcaf1d96a72797d4a1e76e,606842178a9cdac5528af625,2021-04-03_11h23.38.299,Colour_Similarity_Experiment,2020.2.10,MacIntel,60,60674ec340277cd6a308bc9f,16.96964824,16.8084058,16.70608481,16.71776801,16.70829751,16.71776801,,,,,,,,,,,,,,,,,,,,PF,weak,3,,,,,,,,7,0.9019,,,,,,,,,,,,,,,,,,,,,,,,,,,,9,weak,31.01953125,46.0390625,1,0,0,response1disk,7,164,17.7890625,-1.61328125,1,0,0,rectangle,17.7890625,-1.61328125,1,0,0,0,7,0.00769,17.7890625,-1.61328125,1,0,0,0,1,1,121,1,0,,,,,,,,,,,,,,,,,,,,,
,,,,,,,,,,,,,,,,,,,,,,,,,,,,,,,,,,,,,,,,,,5edcaf1d96a72797d4a1e76e,606842178a9cdac5528af625,2021-04-03_11h23.38.299,Colour_Similarity_Experiment,2020.2.10,MacIntel,60,60674ec340277cd6a308bc9f,16.96964824,16.8084058,16.70608481,16.71776801,16.70829751,16.71776801,,,,,,,,,,,,,,,,,,,,PF,strong,3,,,,,,,,7,0.95173,,,,,,,,,,,,,,,,,,,,,,,,,,,,1,strong,38.67578125,60.3125,1,0,0,response1disk,8,165,17.44140625,-13.36328125,1,0,0,rectangle,17.44140625,-13.36328125,1,0,0,5,5,0.003655,17.44140625,-13.36328125,1,0,0,0,2,2,27,1,0,,,,,,,,,,,,,,,,,,,,,
,,,,,,,,,,,,,,,,,,,,,,,,,,,,,,,,,,,,,,,,,,5edcaf1d96a72797d4a1e76e,606842178a9cdac5528af625,2021-04-03_11h23.38.299,Colour_Similarity_Experiment,2020.2.10,MacIntel,60,60674ec340277cd6a308bc9f,16.96964824,16.8084058,16.70608481,16.71776801,16.70829751,16.71776801,,,,,,,,,,,,,,,,,,,,PF,strong,3,,,,,,,,7,1.02125,,,,,,,,,,,,,,,,,,,,,,,,,,,,4,strong,31.71484375,53.7421875,1,0,0,response1disk,2,166,24.40234375,-10.92578125,1,0,0,rectangle,24.40234375,-10.92578125,1,0,0,5,6,0.0029,24.40234375,-10.92578125,1,0,0,0,3,3,13,1,0,,,,,,,,,,,,,,,,,,,,,
,,,,,,,,,,,,,,,,,,,,,,,,,,,,,,,,,,,,,,,,,,5edcaf1d96a72797d4a1e76e,606842178a9cdac5528af625,2021-04-03_11h23.38.299,Colour_Similarity_Experiment,2020.2.10,MacIntel,60,60674ec340277cd6a308bc9f,16.96964824,16.8084058,16.70608481,16.71776801,16.70829751,16.71776801,,,,,,,,,,,,,,,,,,,,PF,weak,3,,,,,,,,3,1.203015,,,,,,,,,,,,,,,,,,,,,,,,,,,,3,weak,-22.59765625,-45.08984375,1,0,0,response5disk,3,167,-15.28515625,-7.23046875,1,0,0,rectangle,-15.28515625,-7.23046875,1,0,0,5,4,0.004975,-15.28515625,-7.23046875,1,0,0,0,4,4,4,1,0,,,,,,,,,,,,,,,,,,,,,
,,,,,,,,,,,,,,,,,,,,,,,,,,,,,,,,,,,,,,,,,,5edcaf1d96a72797d4a1e76e,606842178a9cdac5528af625,2021-04-03_11h23.38.299,Colour_Similarity_Experiment,2020.2.10,MacIntel,60,60674ec340277cd6a308bc9f,16.96964824,16.8084058,16.70608481,16.71776801,16.70829751,16.71776801,,,,,,,,,,,,,,,,,,,,PF,strong,3,,,,,,,,3,2.38964,,,,,,,,,,,,,,,,,,,,,,,,,,,,5,strong,-35.12890625,-49.35546875,1,0,0,response5disk,3,168,-7.625,-1.3125,1,0,0,rectangle,-7.625,-1.3125,1,0,0,5,7,0.004675,-7.625,-1.3125,1,0,0,0,5,5,25,1,0,,,,,,,,,,,,,,,,,,,,,
,,,,,,,,,,,,,,,,,,,,,,,,,,,,,,,,,,,,,,,,,,5edcaf1d96a72797d4a1e76e,606842178a9cdac5528af625,2021-04-03_11h23.38.299,Colour_Similarity_Experiment,2020.2.10,MacIntel,60,60674ec340277cd6a308bc9f,16.96964824,16.8084058,16.70608481,16.71776801,16.70829751,16.71776801,,,,,,,,,,,,,,,,,,,,PF,weak,3,,,,,,,,7,7.18393,,,,,,,,,,,,,,,,,,,,,,,,,,,,8,weak,21.26953125,51.8671875,1,0,0,response1disk,4,169,-5.83984375,-1.265625,1,0,0,rectangle,-5.83984375,-1.265625,1,0,0,5,0,0.00426,-5.83984375,-1.265625,1,0,0,0,6,6,78,1,0,,,,,,,,,,,,,,,,,,,,,
