key_resp.keys,key_resp.rt,key_resp_16.keys,key_resp_16.rt,key_resp_2.keys,key_resp_2.rt,X Scale,ratio_pxpermm,screen_size_x,screen_size_y,testsize,key_resp_3.keys,key_resp_4.keys,key_resp_4.rt,line_size,key_resp_5.keys,key_resp_5.rt,key_resp_6.keys,key_resp_6.rt,key_resp_8.keys,key_resp_8.rt,key_resp_7.keys,key_resp_7.rt,key_resp_12.keys,key_resp_12.rt,key_resp_11.keys,key_resp_11.rt,key_resp_18.keys,key_resp_18.rt,key_resp_21.keys,key_resp_21.rt,key_resp_13.keys,key_resp_13.rt,key_resp_19.keys,key_resp_19.rt,ballposx,viewer_distance,trials.thisRepN,trials.thisTrialN,trials.thisN,trials.thisIndex,trials.ran,participant,session,date,expName,psychopyVersion,OS,frameRate,study_id,realFrameRate1,realFrameRate2,realFrameRate3,realFrameRate4,realFrameRate5,realFrameRate,viewerdistancecm,DVA_to_distance,radius_F,radius_P,r_F,R_P,key_resp_20.keys,key_resp_20.rt,key_resp_14.keys,key_resp_14.rt,key_resp_15.keys,key_resp_15.rt,key_resp_17.keys,key_resp_17.rt,key_resp_9.keys,key_resp_9.rt,key_resp_10.keys,key_resp_10.rt,Colour_1,Ecc,maskCon,mask_frames,mouse_5.x,mouse_5.y,mouse_5.leftButton,mouse_5.midButton,mouse_5.rightButton,mouse_5.clicked_name,Colour_2,similarity,response_time,mouse_10.x,mouse_10.y,mouse_10.leftButton,mouse_10.midButton,mouse_10.rightButton,mouse_10.clicked_name,mouse_7.x,mouse_7.y,mouse_7.leftButton,mouse_7.midButton,mouse_7.rightButton,mouse_7.clicked_name,catchnumberprac,mouse_6.x,mouse_6.y,mouse_6.leftButton,mouse_6.midButton,mouse_6.rightButton,mouse_6.clicked_name,duringprac.thisRepN,duringprac.thisTrialN,duringprac.thisN,duringprac.thisIndex,duringprac.ran,catchprac,key_resp_22.keys,key_resp_22.rt,Colour1,maskCon1,mouse.x,mouse.y,mouse.leftButton,mouse.midButton,mouse.rightButton,mouse.clicked_name,Colour2,trialnumber,mouse_2.x,mouse_2.y,mouse_2.leftButton,mouse_2.midButton,mouse_2.rightButton,mouse_2.clicked_name,mouse_3.x,mouse_3.y,mouse_3.leftButton,mouse_3.midButton,mouse_3.rightButton,catchresponse,catchnumber,response_time_catch,mouse_11.x,mouse_11.y,mouse_11.leftButton,mouse_11.midButton,mouse_11.rightButton,trials_2.thisRepN,trials_2.thisTrialN,trials_2.thisN,trials_2.thisIndex,trials_2.ran,Catch,mouse_3.clicked_name,mouse_11.clicked_name,trials_3.thisRepN,trials_3.thisTrialN,trials_3.thisN,trials_3.thisIndex,trials_3.ran,answer1,rt1,answer2,rt2,answer3,rt3,answer4,rt4,answer5,rt5,answer6,rt6,answer7,rt7
space,1.3117,space,6.86401,space,5.85275,50.1,5.01,383.2335329,215.5688623,1920,,space,23.436505,100.2,space,24.0839,space,6.59748,space,2.47775,space,1.63462,space,8.20574,space,5.66911,space,12.39085,space,7.19894,space,10.2655,return,9.16262,-866.88,1359.235093,0,0,0,0,1,5f07759f859dcb38b8d4c6b5,6068418d036f27812f552542,2021-04-03_13h21.20.106,Colour_Similarity_Experiment,2020.2.10,Win32,60,60674ec340277cd6a308bc9f,17.12817949,16.6656401,16.6948517,16.66496449,16.94588521,16.6948517,,,,,,,,,,,,,,,,,,,,,,,,,,,,,,,,,,,,,,,,,,,,,,,,,,,,,,,,,,,,,,,,,,,,,,,,,,,,,,,,,,,,,,,,,,,,,,,,,,,,,,,,,,,,,,,,,,
,,,,,,,,,,,,,,,,,,,,,,,,,,,,,,,,,return,8.581025,-768.96,1277.824653,1,0,1,0,1,5f07759f859dcb38b8d4c6b5,6068418d036f27812f552542,2021-04-03_13h21.20.106,Colour_Similarity_Experiment,2020.2.10,Win32,60,60674ec340277cd6a308bc9f,17.12817949,16.6656401,16.6948517,16.66496449,16.94588521,16.6948517,,,,,,,,,,,,,,,,,,,,,,,,,,,,,,,,,,,,,,,,,,,,,,,,,,,,,,,,,,,,,,,,,,,,,,,,,,,,,,,,,,,,,,,,,,,,,,,,,,,,,,,,,,,,,,,,,,
,,,,,,,,,,,,,,,,,,,,,,,,,,,,,,,,,return,8.336435,-725.76,1241.908282,2,0,2,0,1,5f07759f859dcb38b8d4c6b5,6068418d036f27812f552542,2021-04-03_13h21.20.106,Colour_Similarity_Experiment,2020.2.10,Win32,60,60674ec340277cd6a308bc9f,17.12817949,16.6656401,16.6948517,16.66496449,16.94588521,16.6948517,,,,,,,,,,,,,,,,,,,,,,,,,,,,,,,,,,,,,,,,,,,,,,,,,,,,,,,,,,,,,,,,,,,,,,,,,,,,,,,,,,,,,,,,,,,,,,,,,,,,,,,,,,,,,,,,,,
,,,,,,,,,,,,,,,,,,,,,,,,,,,,,,,,,return,8.679165,-783.36,1289.796776,3,0,3,0,1,5f07759f859dcb38b8d4c6b5,6068418d036f27812f552542,2021-04-03_13h21.20.106,Colour_Similarity_Experiment,2020.2.10,Win32,60,60674ec340277cd6a308bc9f,17.12817949,16.6656401,16.6948517,16.66496449,16.94588521,16.6948517,,,,,,,,,,,,,,,,,,,,,,,,,,,,,,,,,,,,,,,,,,,,,,,,,,,,,,,,,,,,,,,,,,,,,,,,,,,,,,,,,,,,,,,,,,,,,,,,,,,,,,,,,,,,,,,,,,
,,,,,,,,,,,,,,,,,,,,,,,,,,,,,,,,,return,8.759305,-794.88,1299.374475,4,0,4,0,1,5f07759f859dcb38b8d4c6b5,6068418d036f27812f552542,2021-04-03_13h21.20.106,Colour_Similarity_Experiment,2020.2.10,Win32,60,60674ec340277cd6a308bc9f,17.12817949,16.6656401,16.6948517,16.66496449,16.94588521,16.6948517,,,,,,,,,,,,,,,,,,,,,,,,,,,,,,,,,,,,,,,,,,,,,,,,,,,,,,,,,,,,,,,,,,,,,,,,,,,,,,,,,,,,,,,,,,,,,,,,,,,,,,,,,,,,,,,,,,
,,,,,,,,,,,,,,,,,,,,,,,,,,,,,,,,,,,,,,,,,,5f07759f859dcb38b8d4c6b5,6068418d036f27812f552542,2021-04-03_13h21.20.106,Colour_Similarity_Experiment,2020.2.10,Win32,60,60674ec340277cd6a308bc9f,17.12817949,16.6656401,16.6948517,16.66496449,16.94588521,16.6948517,129,22.5170257,169.2154482,1128.102988,112.8102988,507.6463445,space,4.53579,space,25.222915,space,32.25948,space,1.501805,space,1.14889,space,3.87956,8,PF,strong,3,27,-56,1,0,0,response3disk_5,1,4,11.51808,0,11,1,0,0,rectangle_8,-95,-35,1,0,0,response5disk_7,2,-15,10,1,0,0,rectangle_4,0,0,0,3,1,,,,,,,,,,,,,,,,,,,,,,,,,,,,,,,,,,,,,,,,,,,,,,,,,,,,,,,,,,,
,,,,,,,,,,,,,,,,,,,,,,,,,,,,,,,,,,,,,,,,,,5f07759f859dcb38b8d4c6b5,6068418d036f27812f552542,2021-04-03_13h21.20.106,Colour_Similarity_Experiment,2020.2.10,Win32,60,60674ec340277cd6a308bc9f,17.12817949,16.6656401,16.6948517,16.66496449,16.94588521,16.6948517,,,,,,,,,,,,,,,,,,,8,PF,weak,3,83,-36,1,0,0,response3disk_5,7,5,1.699925,-18,-2,1,0,0,rectangle_8,-18,-2,1,0,0,,2,-18,-2,1,0,0,,0,1,1,6,1,,,,,,,,,,,,,,,,,,,,,,,,,,,,,,,,,,,,,,,,,,,,,,,,,,,,,,,,,,,
,,,,,,,,,,,,,,,,,,,,,,,,,,,,,,,,,,,,,,,,,,5f07759f859dcb38b8d4c6b5,6068418d036f27812f552542,2021-04-03_13h21.20.106,Colour_Similarity_Experiment,2020.2.10,Win32,60,60674ec340277cd6a308bc9f,17.12817949,16.6656401,16.6948517,16.66496449,16.94588521,16.6948517,,,,,,,,,,,,,,,,,,,6,PF,weak,3,99,50,1,0,0,response1disk_5,7,6,2.77994,-9,-3,1,0,0,rectangle_8,-71,-55,1,0,0,response5disk_7,2,-7,2,1,0,0,rectangle_4,0,2,2,5,1,,,,,,,,,,,,,,,,,,,,,,,,,,,,,,,,,,,,,,,,,,,,,,,,,,,,,,,,,,,
,,,,,,,,,,,,,,,,,,,,,,,,,,,,,,,,,,,,,,,,,,5f07759f859dcb38b8d4c6b5,6068418d036f27812f552542,2021-04-03_13h21.20.106,Colour_Similarity_Experiment,2020.2.10,Win32,60,60674ec340277cd6a308bc9f,17.12817949,16.6656401,16.6948517,16.66496449,16.94588521,16.6948517,,,,,,,,,,,,,,,,,,,5,PF,strong,3,79,-29,1,0,0,response3disk_5,9,5,3.016965,23,-19,1,0,0,rectangle_8,23,-19,1,0,0,,2,23,-19,1,0,0,,0,3,3,2,1,5,,,,,,,,,,,,,,,,,,,,,,,,,,,,,,,,,,,,,,,,,,,,,,,,,,,,,,,,,,
,,,,,,,,,,,,,,,,,,,,,,,,,,,,,,,,,,,,,,,,,,5f07759f859dcb38b8d4c6b5,6068418d036f27812f552542,2021-04-03_13h21.20.106,Colour_Similarity_Experiment,2020.2.10,Win32,60,60674ec340277cd6a308bc9f,17.12817949,16.6656401,16.6948517,16.66496449,16.94588521,16.6948517,,,,,,,,,,,,,,,,,,,3,PF,weak,3,42,108,1,0,0,response1disk_5,8,7,0.96654,-15,-10,1,0,0,rectangle_8,-15,-10,1,0,0,,2,-15,-10,1,0,0,,0,4,4,4,1,,,,,,,,,,,,,,,,,,,,,,,,,,,,,,,,,,,,,,,,,,,,,,,,,,,,,,,,,,,
,,,,,,,,,,,,,,,,,,,,,,,,,,,,,,,,,,,,,,,,,,5f07759f859dcb38b8d4c6b5,6068418d036f27812f552542,2021-04-03_13h21.20.106,Colour_Similarity_Experiment,2020.2.10,Win32,60,60674ec340277cd6a308bc9f,17.12817949,16.6656401,16.6948517,16.66496449,16.94588521,16.6948517,,,,,,,,,,,,,,,,,,,4,PF,strong,3,-100,-35,1,0,0,response5disk_5,3,2,1.816815,12,-8,1,0,0,rectangle_8,12,-8,1,0,0,,2,12,-8,1,0,0,,0,5,5,0,1,,,,,,,,,,,,,,,,,,,,,,,,,,,,,,,,,,,,,,,,,,,,,,,,,,,,,,,,,,,
,,,,,,,,,,,,,,,,,,,,,,,,,,,,,,,,,,,,,,,,,,5f07759f859dcb38b8d4c6b5,6068418d036f27812f552542,2021-04-03_13h21.20.106,Colour_Similarity_Experiment,2020.2.10,Win32,60,60674ec340277cd6a308bc9f,17.12817949,16.6656401,16.6948517,16.66496449,16.94588521,16.6948517,,,,,,,,,,,,,,,,,,,6,PF,weak,3,86,-34,1,0,0,response3disk_5,2,5,0.949865,35,-8,1,0,0,rectangle_8,35,-8,1,0,0,,2,35,-8,1,0,0,,0,6,6,1,1,,,,,,,,,,,,,,,,,,,,,,,,,,,,,,,,,,,,,,,,,,,,,,,,,,,,,,,,,,,
,,,,,,,,,,,,,,,,,,,,,,,,,,,,,,,,,,,,,,,,,,5f07759f859dcb38b8d4c6b5,6068418d036f27812f552542,2021-04-03_13h21.20.106,Colour_Similarity_Experiment,2020.2.10,Win32,60,60674ec340277cd6a308bc9f,17.12817949,16.6656401,16.6948517,16.66496449,16.94588521,16.6948517,,,,,,,,,,,,,,,,,,,,PF,strong,3,,,,,,,,6,6.53012,,,,,,,,,,,,,,,,,,,,,,,,,,space,3.635705,8,strong,102,33,1,0,0,response1disk,7,1,15,-5,1,0,0,rectangle,15,-5,1,0,0,,6,0.001325,15,-5,1,0,0,0,0,0,86,1,0,,,,,,,,,,,,,,,,,,,,,
,,,,,,,,,,,,,,,,,,,,,,,,,,,,,,,,,,,,,,,,,,5f07759f859dcb38b8d4c6b5,6068418d036f27812f552542,2021-04-03_13h21.20.106,Colour_Similarity_Experiment,2020.2.10,Win32,60,60674ec340277cd6a308bc9f,17.12817949,16.6656401,16.6948517,16.66496449,16.94588521,16.6948517,,,,,,,,,,,,,,,,,,,,PF,weak,3,,,,,,,,6,1.6165,,,,,,,,,,,,,,,,,,,,,,,,,,,,7,weak,115,40,1,0,0,response1disk,6,2,-3,-14,1,0,0,rectangle,-3,-14,1,0,0,,6,0.00019,-3,-14,1,0,0,0,1,1,29,1,0,,,,,,,,,,,,,,,,,,,,,
,,,,,,,,,,,,,,,,,,,,,,,,,,,,,,,,,,,,,,,,,,5f07759f859dcb38b8d4c6b5,6068418d036f27812f552542,2021-04-03_13h21.20.106,Colour_Similarity_Experiment,2020.2.10,Win32,60,60674ec340277cd6a308bc9f,17.12817949,16.6656401,16.6948517,16.66496449,16.94588521,16.6948517,,,,,,,,,,,,,,,,,,,,PF,strong,3,,,,,,,,5,2.849995,,,,,,,,,,,,,,,,,,,,,,,,,,,,9,strong,107,-61,1,0,0,response3disk,8,3,14,-14,1,0,0,rectangle,14,-14,1,0,0,,1,0.00204,14,-14,1,0,0,0,2,2,6,1,0,,,,,,,,,,,,,,,,,,,,,
,,,,,,,,,,,,,,,,,,,,,,,,,,,,,,,,,,,,,,,,,,5f07759f859dcb38b8d4c6b5,6068418d036f27812f552542,2021-04-03_13h21.20.106,Colour_Similarity_Experiment,2020.2.10,Win32,60,60674ec340277cd6a308bc9f,17.12817949,16.6656401,16.6948517,16.66496449,16.94588521,16.6948517,,,,,,,,,,,,,,,,,,,,PF,strong,3,,,,,,,,7,1.283115,,,,,,,,,,,,,,,,,,,,,,,,,,,,6,strong,40,97,1,0,0,response1disk,3,4,9,11,1,0,0,rectangle,9,11,1,0,0,,0,0.001615,9,11,1,0,0,0,3,3,21,1,0,,,,,,,,,,,,,,,,,,,,,
,,,,,,,,,,,,,,,,,,,,,,,,,,,,,,,,,,,,,,,,,,5f07759f859dcb38b8d4c6b5,6068418d036f27812f552542,2021-04-03_13h21.20.106,Colour_Similarity_Experiment,2020.2.10,Win32,60,60674ec340277cd6a308bc9f,17.12817949,16.6656401,16.6948517,16.66496449,16.94588521,16.6948517,,,,,,,,,,,,,,,,,,,,PF,weak,3,,,,,,,,2,3.249945,,,,,,,,,,,,,,,,,,,,,,,,,,,,6,weak,-98,-49,1,0,0,response5disk,7,5,9,-3,1,0,0,rectangle,9,-3,1,0,0,,5,0.0017,9,-3,1,0,0,0,4,4,50,1,0,,,,,,,,,,,,,,,,,,,,,
,,,,,,,,,,,,,,,,,,,,,,,,,,,,,,,,,,,,,,,,,,5f07759f859dcb38b8d4c6b5,6068418d036f27812f552542,2021-04-03_13h21.20.106,Colour_Similarity_Experiment,2020.2.10,Win32,60,60674ec340277cd6a308bc9f,17.12817949,16.6656401,16.6948517,16.66496449,16.94588521,16.6948517,,,,,,,,,,,,,,,,,,,,PF,weak,3,,,,,,,,6,1.516565,,,,,,,,,,,,,,,,,,,,,,,,,,,,9,weak,103,34,1,0,0,response1disk,8,6,15,0,1,0,0,rectangle,15,0,1,0,0,,5,0.00011,15,0,1,0,0,0,5,5,67,1,0,,,,,,,,,,,,,,,,,,,,,
,,,,,,,,,,,,,,,,,,,,,,,,,,,,,,,,,,,,,,,,,,5f07759f859dcb38b8d4c6b5,6068418d036f27812f552542,2021-04-03_13h21.20.106,Colour_Similarity_Experiment,2020.2.10,Win32,60,60674ec340277cd6a308bc9f,17.12817949,16.6656401,16.6948517,16.66496449,16.94588521,16.6948517,,,,,,,,,,,,,,,,,,,,PF,weak,3,,,,,,,,6,3.10022,,,,,,,,,,,,,,,,,,,,,,,,,,,,6,weak,76,32,1,0,0,response1disk,8,7,3,-9,1,0,0,rectangle,3,-9,1,0,0,,5,0.00016,3,-9,1,0,0,0,6,6,64,1,0,,,,,,,,,,,,,,,,,,,,,
,,,,,,,,,,,,,,,,,,,,,,,,,,,,,,,,,,,,,,,,,,5f07759f859dcb38b8d4c6b5,6068418d036f27812f552542,2021-04-03_13h21.20.106,Colour_Similarity_Experiment,2020.2.10,Win32,60,60674ec340277cd6a308bc9f,17.12817949,16.6656401,16.6948517,16.66496449,16.94588521,16.6948517,,,,,,,,,,,,,,,,,,,,PF,strong,3,,,,,,,,6,1.08331,,,,,,,,,,,,,,,,,,,,,,,,,,,,6,strong,119,23,1,0,0,response1disk,1,8,-13,9,1,0,0,rectangle,-13,9,1,0,0,,5,0.00014,-13,9,1,0,0,0,7,7,5,1,0,,,,,,,,,,,,,,,,,,,,,
,,,,,,,,,,,,,,,,,,,,,,,,,,,,,,,,,,,,,,,,,,5f07759f859dcb38b8d4c6b5,6068418d036f27812f552542,2021-04-03_13h21.20.106,Colour_Similarity_Experiment,2020.2.10,Win32,60,60674ec340277cd6a308bc9f,17.12817949,16.6656401,16.6948517,16.66496449,16.94588521,16.6948517,,,,,,,,,,,,,,,,,,,,PF,weak,3,,,,,,,,2,0.282965,,,,,,,,,,,,,,,,,,,,,,,,,,,,5,weak,-62,-36,1,0,0,response5disk,9,9,8,-2,1,0,0,rectangle,116,55,1,0,0,6,7,0.10073,-37,15,1,0,0,0,8,8,136,1,1,response1disk_3,rectangle,,,,,,,,,,,,,,,,,,,
,,,,,,,,,,,,,,,,,,,,,,,,,,,,,,,,,,,,,,,,,,5f07759f859dcb38b8d4c6b5,6068418d036f27812f552542,2021-04-03_13h21.20.106,Colour_Similarity_Experiment,2020.2.10,Win32,60,60674ec340277cd6a308bc9f,17.12817949,16.6656401,16.6948517,16.66496449,16.94588521,16.6948517,,,,,,,,,,,,,,,,,,,,PF,strong,3,,,,,,,,5,2.51656,,,,,,,,,,,,,,,,,,,,,,,,,,,,5,strong,110,-45,1,0,0,response3disk,8,10,-2,-7,1,0,0,rectangle,-2,-7,1,0,0,6,2,0.00182,-2,-7,1,0,0,0,9,9,16,1,0,,,,,,,,,,,,,,,,,,,,,
,,,,,,,,,,,,,,,,,,,,,,,,,,,,,,,,,,,,,,,,,,5f07759f859dcb38b8d4c6b5,6068418d036f27812f552542,2021-04-03_13h21.20.106,Colour_Similarity_Experiment,2020.2.10,Win32,60,60674ec340277cd6a308bc9f,17.12817949,16.6656401,16.6948517,16.66496449,16.94588521,16.6948517,,,,,,,,,,,,,,,,,,,,PF,strong,3,,,,,,,,2,5.36653,,,,,,,,,,,,,,,,,,,,,,,,,,,,8,strong,-86,-40,1,0,0,response5disk,2,11,-7,12,1,0,0,rectangle,-7,12,1,0,0,6,2,0.00026,-7,12,1,0,0,0,10,10,22,1,0,,,,,,,,,,,,,,,,,,,,,
,,,,,,,,,,,,,,,,,,,,,,,,,,,,,,,,,,,,,,,,,,5f07759f859dcb38b8d4c6b5,6068418d036f27812f552542,2021-04-03_13h21.20.106,Colour_Similarity_Experiment,2020.2.10,Win32,60,60674ec340277cd6a308bc9f,17.12817949,16.6656401,16.6948517,16.66496449,16.94588521,16.6948517,,,,,,,,,,,,,,,,,,,,PF,strong,3,,,,,,,,5,3.016475,,,,,,,,,,,,,,,,,,,,,,,,,,,,5,strong,96,-57,1,0,0,response3disk,2,12,27,5,1,0,0,rectangle,-113,61,1,0,0,1,1,2.616635,10,-6,1,0,0,0,11,11,55,1,1,response7disk_3,rectangle,,,,,,,,,,,,,,,,,,,
,,,,,,,,,,,,,,,,,,,,,,,,,,,,,,,,,,,,,,,,,,5f07759f859dcb38b8d4c6b5,6068418d036f27812f552542,2021-04-03_13h21.20.106,Colour_Similarity_Experiment,2020.2.10,Win32,60,60674ec340277cd6a308bc9f,17.12817949,16.6656401,16.6948517,16.66496449,16.94588521,16.6948517,,,,,,,,,,,,,,,,,,,,PF,strong,3,,,,,,,,5,2.01649,,,,,,,,,,,,,,,,,,,,,,,,,,,,6,strong,94,-27,1,0,0,response3disk,8,13,9,1,1,0,0,rectangle,9,1,1,0,0,1,0,0.001865,9,1,1,0,0,0,12,12,133,1,0,,,,,,,,,,,,,,,,,,,,,
,,,,,,,,,,,,,,,,,,,,,,,,,,,,,,,,,,,,,,,,,,5f07759f859dcb38b8d4c6b5,6068418d036f27812f552542,2021-04-03_13h21.20.106,Colour_Similarity_Experiment,2020.2.10,Win32,60,60674ec340277cd6a308bc9f,17.12817949,16.6656401,16.6948517,16.66496449,16.94588521,16.6948517,,,,,,,,,,,,,,,,,,,,PF,strong,3,,,,,,,,6,0.88336,,,,,,,,,,,,,,,,,,,,,,,,,,,,5,strong,88,55,1,0,0,response1disk,3,14,5,2,1,0,0,rectangle,5,2,1,0,0,1,3,0.00135,5,2,1,0,0,0,13,13,25,1,0,,,,,,,,,,,,,,,,,,,,,
,,,,,,,,,,,,,,,,,,,,,,,,,,,,,,,,,,,,,,,,,,5f07759f859dcb38b8d4c6b5,6068418d036f27812f552542,2021-04-03_13h21.20.106,Colour_Similarity_Experiment,2020.2.10,Win32,60,60674ec340277cd6a308bc9f,17.12817949,16.6656401,16.6948517,16.66496449,16.94588521,16.6948517,,,,,,,,,,,,,,,,,,,,PF,weak,3,,,,,,,,4,5.39991,,,,,,,,,,,,,,,,,,,,,,,,,,,,8,weak,58,-122,1,0,0,response3disk,7,15,23,-6,1,0,0,rectangle,23,-6,1,0,0,1,6,0.002125,23,-6,1,0,0,0,14,14,23,1,0,,,,,,,,,,,,,,,,,,,,,
,,,,,,,,,,,,,,,,,,,,,,,,,,,,,,,,,,,,,,,,,,5f07759f859dcb38b8d4c6b5,6068418d036f27812f552542,2021-04-03_13h21.20.106,Colour_Similarity_Experiment,2020.2.10,Win32,60,60674ec340277cd6a308bc9f,17.12817949,16.6656401,16.6948517,16.66496449,16.94588521,16.6948517,,,,,,,,,,,,,,,,,,,,PF,weak,3,,,,,,,,6,1.26649,,,,,,,,,,,,,,,,,,,,,,,,,,,,8,weak,81,45,1,0,0,response1disk,4,16,21,1,1,0,0,rectangle,21,1,1,0,0,1,7,0.001215,21,1,1,0,0,0,15,15,78,1,0,,,,,,,,,,,,,,,,,,,,,
,,,,,,,,,,,,,,,,,,,,,,,,,,,,,,,,,,,,,,,,,,5f07759f859dcb38b8d4c6b5,6068418d036f27812f552542,2021-04-03_13h21.20.106,Colour_Similarity_Experiment,2020.2.10,Win32,60,60674ec340277cd6a308bc9f,17.12817949,16.6656401,16.6948517,16.66496449,16.94588521,16.6948517,,,,,,,,,,,,,,,,,,,,PF,weak,3,,,,,,,,5,4.41681,,,,,,,,,,,,,,,,,,,,,,,,,,,,1,weak,106,-40,1,0,0,response3disk,9,17,-11,-3,1,0,0,rectangle,-11,-3,1,0,0,1,6,0.00152,-11,-3,1,0,0,0,16,16,15,1,0,,,,,,,,,,,,,,,,,,,,,
,,,,,,,,,,,,,,,,,,,,,,,,,,,,,,,,,,,,,,,,,,5f07759f859dcb38b8d4c6b5,6068418d036f27812f552542,2021-04-03_13h21.20.106,Colour_Similarity_Experiment,2020.2.10,Win32,60,60674ec340277cd6a308bc9f,17.12817949,16.6656401,16.6948517,16.66496449,16.94588521,16.6948517,,,,,,,,,,,,,,,,,,,,PF,strong,3,,,,,,,,6,0.98337,,,,,,,,,,,,,,,,,,,,,,,,,,,,2,strong,104,42,1,0,0,response1disk,5,18,15,-10,1,0,0,rectangle,15,-10,1,0,0,1,1,0.00125,15,-10,1,0,0,0,17,17,80,1,0,,,,,,,,,,,,,,,,,,,,,
,,,,,,,,,,,,,,,,,,,,,,,,,,,,,,,,,,,,,,,,,,5f07759f859dcb38b8d4c6b5,6068418d036f27812f552542,2021-04-03_13h21.20.106,Colour_Similarity_Experiment,2020.2.10,Win32,60,60674ec340277cd6a308bc9f,17.12817949,16.6656401,16.6948517,16.66496449,16.94588521,16.6948517,,,,,,,,,,,,,,,,,,,,PF,strong,3,,,,,,,,5,0.983325,,,,,,,,,,,,,,,,,,,,,,,,,,,,6,strong,84,-45,1,0,0,response3disk,7,19,23,-3,1,0,0,rectangle,23,-3,1,0,0,1,6,0.00119,23,-3,1,0,0,0,18,18,18,1,0,,,,,,,,,,,,,,,,,,,,,
,,,,,,,,,,,,,,,,,,,,,,,,,,,,,,,,,,,,,,,,,,5f07759f859dcb38b8d4c6b5,6068418d036f27812f552542,2021-04-03_13h21.20.106,Colour_Similarity_Experiment,2020.2.10,Win32,60,60674ec340277cd6a308bc9f,17.12817949,16.6656401,16.6948517,16.66496449,16.94588521,16.6948517,,,,,,,,,,,,,,,,,,,,PF,weak,3,,,,,,,,6,2.416625,,,,,,,,,,,,,,,,,,,,,,,,,,,,9,weak,72,38,1,0,0,response1disk,3,20,0,2,1,0,0,rectangle,0,2,1,0,0,1,0,0.00197,0,2,1,0,0,0,19,19,119,1,0,,,,,,,,,,,,,,,,,,,,,
,,,,,,,,,,,,,,,,,,,,,,,,,,,,,,,,,,,,,,,,,,5f07759f859dcb38b8d4c6b5,6068418d036f27812f552542,2021-04-03_13h21.20.106,Colour_Similarity_Experiment,2020.2.10,Win32,60,60674ec340277cd6a308bc9f,17.12817949,16.6656401,16.6948517,16.66496449,16.94588521,16.6948517,,,,,,,,,,,,,,,,,,,,PF,strong,3,,,,,,,,1,1.600055,,,,,,,,,,,,,,,,,,,,,,,,,,,,2,strong,-74,40,1,0,0,response7disk,1,21,11,4,1,0,0,rectangle,11,4,1,0,0,1,3,0.001475,11,4,1,0,0,0,20,20,85,1,0,,,,,,,,,,,,,,,,,,,,,
,,,,,,,,,,,,,,,,,,,,,,,,,,,,,,,,,,,,,,,,,,5f07759f859dcb38b8d4c6b5,6068418d036f27812f552542,2021-04-03_13h21.20.106,Colour_Similarity_Experiment,2020.2.10,Win32,60,60674ec340277cd6a308bc9f,17.12817949,16.6656401,16.6948517,16.66496449,16.94588521,16.6948517,,,,,,,,,,,,,,,,,,,,PF,strong,3,,,,,,,,6,1.11652,,,,,,,,,,,,,,,,,,,,,,,,,,,,9,strong,98,34,1,0,0,response1disk,7,22,30,2,1,0,0,rectangle,30,2,1,0,0,1,6,0.001215,30,2,1,0,0,0,21,21,100,1,0,,,,,,,,,,,,,,,,,,,,,
,,,,,,,,,,,,,,,,,,,,,,,,,,,,,,,,,,,,,,,,,,5f07759f859dcb38b8d4c6b5,6068418d036f27812f552542,2021-04-03_13h21.20.106,Colour_Similarity_Experiment,2020.2.10,Win32,60,60674ec340277cd6a308bc9f,17.12817949,16.6656401,16.6948517,16.66496449,16.94588521,16.6948517,,,,,,,,,,,,,,,,,,,,PF,strong,3,,,,,,,,6,0.86651,,,,,,,,,,,,,,,,,,,,,,,,,,,,7,strong,94,34,1,0,0,response1disk,5,23,11,8,1,0,0,rectangle,11,8,1,0,0,1,2,0.00256,11,8,1,0,0,0,22,22,156,1,0,,,,,,,,,,,,,,,,,,,,,
,,,,,,,,,,,,,,,,,,,,,,,,,,,,,,,,,,,,,,,,,,5f07759f859dcb38b8d4c6b5,6068418d036f27812f552542,2021-04-03_13h21.20.106,Colour_Similarity_Experiment,2020.2.10,Win32,60,60674ec340277cd6a308bc9f,17.12817949,16.6656401,16.6948517,16.66496449,16.94588521,16.6948517,,,,,,,,,,,,,,,,,,,,PF,strong,3,,,,,,,,5,1.21676,,,,,,,,,,,,,,,,,,,,,,,,,,,,9,strong,83,-47,1,0,0,response3disk,9,24,22,-9,1,0,0,rectangle,22,-9,1,0,0,1,1,0.00129,22,-9,1,0,0,0,23,23,17,1,0,,,,,,,,,,,,,,,,,,,,,
,,,,,,,,,,,,,,,,,,,,,,,,,,,,,,,,,,,,,,,,,,5f07759f859dcb38b8d4c6b5,6068418d036f27812f552542,2021-04-03_13h21.20.106,Colour_Similarity_Experiment,2020.2.10,Win32,60,60674ec340277cd6a308bc9f,17.12817949,16.6656401,16.6948517,16.66496449,16.94588521,16.6948517,,,,,,,,,,,,,,,,,,,,PF,weak,3,,,,,,,,5,1.29991,,,,,,,,,,,,,,,,,,,,,,,,,,,,1,weak,86,-37,1,0,0,response3disk,7,25,21,-2,1,0,0,rectangle,21,-2,1,0,0,1,1,0.00012,21,-2,1,0,0,0,24,24,150,1,0,,,,,,,,,,,,,,,,,,,,,
,,,,,,,,,,,,,,,,,,,,,,,,,,,,,,,,,,,,,,,,,,5f07759f859dcb38b8d4c6b5,6068418d036f27812f552542,2021-04-03_13h21.20.106,Colour_Similarity_Experiment,2020.2.10,Win32,60,60674ec340277cd6a308bc9f,17.12817949,16.6656401,16.6948517,16.66496449,16.94588521,16.6948517,,,,,,,,,,,,,,,,,,,,PF,strong,3,,,,,,,,5,1.899935,,,,,,,,,,,,,,,,,,,,,,,,,,,,1,strong,95,-41,1,0,0,response3disk,7,26,4,11,1,0,0,rectangle,4,11,1,0,0,1,3,0.00119,4,11,1,0,0,0,25,25,137,1,0,,,,,,,,,,,,,,,,,,,,,
,,,,,,,,,,,,,,,,,,,,,,,,,,,,,,,,,,,,,,,,,,5f07759f859dcb38b8d4c6b5,6068418d036f27812f552542,2021-04-03_13h21.20.106,Colour_Similarity_Experiment,2020.2.10,Win32,60,60674ec340277cd6a308bc9f,17.12817949,16.6656401,16.6948517,16.66496449,16.94588521,16.6948517,,,,,,,,,,,,,,,,,,,,PF,strong,3,,,,,,,,5,0.783285,,,,,,,,,,,,,,,,,,,,,,,,,,,,8,strong,93,-34,1,0,0,response3disk,4,27,12,0,1,0,0,rectangle,12,0,1,0,0,1,1,0.00208,12,0,1,0,0,0,26,26,88,1,0,,,,,,,,,,,,,,,,,,,,,
,,,,,,,,,,,,,,,,,,,,,,,,,,,,,,,,,,,,,,,,,,5f07759f859dcb38b8d4c6b5,6068418d036f27812f552542,2021-04-03_13h21.20.106,Colour_Similarity_Experiment,2020.2.10,Win32,60,60674ec340277cd6a308bc9f,17.12817949,16.6656401,16.6948517,16.66496449,16.94588521,16.6948517,,,,,,,,,,,,,,,,,,,,PF,weak,3,,,,,,,,6,0.99997,,,,,,,,,,,,,,,,,,,,,,,,,,,,3,weak,82,47,1,0,0,response1disk,8,28,-6,-1,1,0,0,rectangle,-6,-1,1,0,0,1,7,0.00171,-6,-1,1,0,0,0,27,27,3,1,0,,,,,,,,,,,,,,,,,,,,,
,,,,,,,,,,,,,,,,,,,,,,,,,,,,,,,,,,,,,,,,,,5f07759f859dcb38b8d4c6b5,6068418d036f27812f552542,2021-04-03_13h21.20.106,Colour_Similarity_Experiment,2020.2.10,Win32,60,60674ec340277cd6a308bc9f,17.12817949,16.6656401,16.6948517,16.66496449,16.94588521,16.6948517,,,,,,,,,,,,,,,,,,,,PF,strong,3,,,,,,,,1,8.083255,,,,,,,,,,,,,,,,,,,,,,,,,,,,1,strong,-95,25,1,0,0,response7disk,6,29,1,-7,1,0,0,rectangle,1,-7,1,0,0,1,2,0.001545,1,-7,1,0,0,0,28,28,58,1,0,,,,,,,,,,,,,,,,,,,,,
,,,,,,,,,,,,,,,,,,,,,,,,,,,,,,,,,,,,,,,,,,5f07759f859dcb38b8d4c6b5,6068418d036f27812f552542,2021-04-03_13h21.20.106,Colour_Similarity_Experiment,2020.2.10,Win32,60,60674ec340277cd6a308bc9f,17.12817949,16.6656401,16.6948517,16.66496449,16.94588521,16.6948517,,,,,,,,,,,,,,,,,,,,PF,strong,3,,,,,,,,3,2.783435,,,,,,,,,,,,,,,,,,,,,,,,,,,,3,strong,-49,-103,1,0,0,response5disk,8,30,14,17,1,0,0,rectangle,14,17,1,0,0,1,6,0.001175,14,17,1,0,0,0,29,29,44,1,0,,,,,,,,,,,,,,,,,,,,,
,,,,,,,,,,,,,,,,,,,,,,,,,,,,,,,,,,,,,,,,,,5f07759f859dcb38b8d4c6b5,6068418d036f27812f552542,2021-04-03_13h21.20.106,Colour_Similarity_Experiment,2020.2.10,Win32,60,60674ec340277cd6a308bc9f,17.12817949,16.6656401,16.6948517,16.66496449,16.94588521,16.6948517,,,,,,,,,,,,,,,,,,,,PF,strong,3,,,,,,,,7,1.73316,,,,,,,,,,,,,,,,,,,,,,,,,,,,9,strong,45,89,1,0,0,response1disk,4,31,11,-1,1,0,0,rectangle,11,-1,1,0,0,1,6,9.5E-05,11,-1,1,0,0,0,30,30,60,1,0,,,,,,,,,,,,,,,,,,,,,
,,,,,,,,,,,,,,,,,,,,,,,,,,,,,,,,,,,,,,,,,,5f07759f859dcb38b8d4c6b5,6068418d036f27812f552542,2021-04-03_13h21.20.106,Colour_Similarity_Experiment,2020.2.10,Win32,60,60674ec340277cd6a308bc9f,17.12817949,16.6656401,16.6948517,16.66496449,16.94588521,16.6948517,,,,,,,,,,,,,,,,,,,,PF,weak,3,,,,,,,,7,1.41659,,,,,,,,,,,,,,,,,,,,,,,,,,,,2,weak,37,82,1,0,0,response1disk,7,32,1,-10,1,0,0,rectangle,1,-10,1,0,0,1,5,0.00135,1,-10,1,0,0,0,31,31,107,1,0,,,,,,,,,,,,,,,,,,,,,
,,,,,,,,,,,,,,,,,,,,,,,,,,,,,,,,,,,,,,,,,,5f07759f859dcb38b8d4c6b5,6068418d036f27812f552542,2021-04-03_13h21.20.106,Colour_Similarity_Experiment,2020.2.10,Win32,60,60674ec340277cd6a308bc9f,17.12817949,16.6656401,16.6948517,16.66496449,16.94588521,16.6948517,,,,,,,,,,,,,,,,,,,,PF,weak,3,,,,,,,,7,1.13345,,,,,,,,,,,,,,,,,,,,,,,,,,,,7,weak,51,90,1,0,0,response1disk,7,33,10,9,1,0,0,rectangle,10,9,1,0,0,1,4,0.001155,10,9,1,0,0,0,32,32,51,1,0,,,,,,,,,,,,,,,,,,,,,
,,,,,,,,,,,,,,,,,,,,,,,,,,,,,,,,,,,,,,,,,,5f07759f859dcb38b8d4c6b5,6068418d036f27812f552542,2021-04-03_13h21.20.106,Colour_Similarity_Experiment,2020.2.10,Win32,60,60674ec340277cd6a308bc9f,17.12817949,16.6656401,16.6948517,16.66496449,16.94588521,16.6948517,,,,,,,,,,,,,,,,,,,,PF,strong,3,,,,,,,,6,3.016675,,,,,,,,,,,,,,,,,,,,,,,,,,,,8,strong,121,36,1,0,0,response1disk,8,34,14,-3,1,0,0,rectangle,14,-3,1,0,0,1,7,0.001375,14,-3,1,0,0,0,33,33,48,1,0,,,,,,,,,,,,,,,,,,,,,
,,,,,,,,,,,,,,,,,,,,,,,,,,,,,,,,,,,,,,,,,,5f07759f859dcb38b8d4c6b5,6068418d036f27812f552542,2021-04-03_13h21.20.106,Colour_Similarity_Experiment,2020.2.10,Win32,60,60674ec340277cd6a308bc9f,17.12817949,16.6656401,16.6948517,16.66496449,16.94588521,16.6948517,,,,,,,,,,,,,,,,,,,,PF,strong,3,,,,,,,,4,2.366595,,,,,,,,,,,,,,,,,,,,,,,,,,,,8,strong,57,-93,1,0,0,response3disk,3,35,38,-7,1,0,0,rectangle,38,-7,1,0,0,1,1,0.001265,38,-7,1,0,0,0,34,34,154,1,0,,,,,,,,,,,,,,,,,,,,,
,,,,,,,,,,,,,,,,,,,,,,,,,,,,,,,,,,,,,,,,,,5f07759f859dcb38b8d4c6b5,6068418d036f27812f552542,2021-04-03_13h21.20.106,Colour_Similarity_Experiment,2020.2.10,Win32,60,60674ec340277cd6a308bc9f,17.12817949,16.6656401,16.6948517,16.66496449,16.94588521,16.6948517,,,,,,,,,,,,,,,,,,,,PF,strong,3,,,,,,,,1,2.32879,,,,,,,,,,,,,,,,,,,,,,,,,,,,7,strong,-78,37,1,0,0,response7disk,3,36,8,-9,1,0,0,rectangle,8,-9,1,0,0,1,2,0.001365,8,-9,1,0,0,0,35,35,73,1,0,,,,,,,,,,,,,,,,,,,,,
,,,,,,,,,,,,,,,,,,,,,,,,,,,,,,,,,,,,,,,,,,5f07759f859dcb38b8d4c6b5,6068418d036f27812f552542,2021-04-03_13h21.20.106,Colour_Similarity_Experiment,2020.2.10,Win32,60,60674ec340277cd6a308bc9f,17.12817949,16.6656401,16.6948517,16.66496449,16.94588521,16.6948517,,,,,,,,,,,,,,,,,,,,PF,strong,3,,,,,,,,4,3.600275,,,,,,,,,,,,,,,,,,,,,,,,,,,,3,strong,48,-101,1,0,0,response3disk,7,37,12,-7,1,0,0,rectangle,12,-7,1,0,0,1,4,0.00163,12,-7,1,0,0,0,36,36,118,1,0,,,,,,,,,,,,,,,,,,,,,
,,,,,,,,,,,,,,,,,,,,,,,,,,,,,,,,,,,,,,,,,,5f07759f859dcb38b8d4c6b5,6068418d036f27812f552542,2021-04-03_13h21.20.106,Colour_Similarity_Experiment,2020.2.10,Win32,60,60674ec340277cd6a308bc9f,17.12817949,16.6656401,16.6948517,16.66496449,16.94588521,16.6948517,,,,,,,,,,,,,,,,,,,,PF,strong,3,,,,,,,,2,2.083255,,,,,,,,,,,,,,,,,,,,,,,,,,,,4,strong,-92,-32,1,0,0,response5disk,3,38,21,0,1,0,0,rectangle,21,0,1,0,0,1,7,0.001695,21,0,1,0,0,0,37,37,77,1,0,,,,,,,,,,,,,,,,,,,,,
,,,,,,,,,,,,,,,,,,,,,,,,,,,,,,,,,,,,,,,,,,5f07759f859dcb38b8d4c6b5,6068418d036f27812f552542,2021-04-03_13h21.20.106,Colour_Similarity_Experiment,2020.2.10,Win32,60,60674ec340277cd6a308bc9f,17.12817949,16.6656401,16.6948517,16.66496449,16.94588521,16.6948517,,,,,,,,,,,,,,,,,,,,PF,strong,3,,,,,,,,1,2.399965,,,,,,,,,,,,,,,,,,,,,,,,,,,,9,strong,-74,45,1,0,0,response7disk,1,39,26,2,1,0,0,rectangle,26,2,1,0,0,1,4,0.001735,26,2,1,0,0,0,38,38,111,1,0,,,,,,,,,,,,,,,,,,,,,
,,,,,,,,,,,,,,,,,,,,,,,,,,,,,,,,,,,,,,,,,,5f07759f859dcb38b8d4c6b5,6068418d036f27812f552542,2021-04-03_13h21.20.106,Colour_Similarity_Experiment,2020.2.10,Win32,60,60674ec340277cd6a308bc9f,17.12817949,16.6656401,16.6948517,16.66496449,16.94588521,16.6948517,,,,,,,,,,,,,,,,,,,,PF,strong,3,,,,,,,,7,1.39992,,,,,,,,,,,,,,,,,,,,,,,,,,,,3,strong,58,68,1,0,0,response1disk,3,40,33,-3,1,0,0,rectangle,33,-3,1,0,0,1,6,0.001225,33,-3,1,0,0,0,39,39,68,1,0,,,,,,,,,,,,,,,,,,,,,
,,,,,,,,,,,,,,,,,,,,,,,,,,,,,,,,,,,,,,,,,,5f07759f859dcb38b8d4c6b5,6068418d036f27812f552542,2021-04-03_13h21.20.106,Colour_Similarity_Experiment,2020.2.10,Win32,60,60674ec340277cd6a308bc9f,17.12817949,16.6656401,16.6948517,16.66496449,16.94588521,16.6948517,,,,,,,,,,,,,,,,,,,,PF,weak,3,,,,,,,,0,1.699795,,,,,,,,,,,,,,,,,,,,,,,,,,,,1,weak,-51,95,1,0,0,response7disk,3,41,-8,1,1,0,0,rectangle,-8,1,1,0,0,1,2,0.00112,-8,1,1,0,0,0,40,40,1,1,0,,,,,,,,,,,,,,,,,,,,,
,,,,,,,,,,,,,,,,,,,,,,,,,,,,,,,,,,,,,,,,,,5f07759f859dcb38b8d4c6b5,6068418d036f27812f552542,2021-04-03_13h21.20.106,Colour_Similarity_Experiment,2020.2.10,Win32,60,60674ec340277cd6a308bc9f,17.12817949,16.6656401,16.6948517,16.66496449,16.94588521,16.6948517,,,,,,,,,,,,,,,,,,,,PF,weak,3,,,,,,,,2,2.549905,,,,,,,,,,,,,,,,,,,,,,,,,,,,7,weak,-87,-30,1,0,0,response5disk,3,42,0,4,1,0,0,rectangle,0,4,1,0,0,1,1,0.001095,0,4,1,0,0,0,41,41,81,1,0,,,,,,,,,,,,,,,,,,,,,
,,,,,,,,,,,,,,,,,,,,,,,,,,,,,,,,,,,,,,,,,,5f07759f859dcb38b8d4c6b5,6068418d036f27812f552542,2021-04-03_13h21.20.106,Colour_Similarity_Experiment,2020.2.10,Win32,60,60674ec340277cd6a308bc9f,17.12817949,16.6656401,16.6948517,16.66496449,16.94588521,16.6948517,,,,,,,,,,,,,,,,,,,,PF,strong,3,,,,,,,,5,1.76676,,,,,,,,,,,,,,,,,,,,,,,,,,,,1,strong,77,-35,1,0,0,response3disk,2,43,4,-10,1,0,0,rectangle,4,-10,1,0,0,1,2,0.00127,4,-10,1,0,0,0,42,42,2,1,0,,,,,,,,,,,,,,,,,,,,,
,,,,,,,,,,,,,,,,,,,,,,,,,,,,,,,,,,,,,,,,,,5f07759f859dcb38b8d4c6b5,6068418d036f27812f552542,2021-04-03_13h21.20.106,Colour_Similarity_Experiment,2020.2.10,Win32,60,60674ec340277cd6a308bc9f,17.12817949,16.6656401,16.6948517,16.66496449,16.94588521,16.6948517,,,,,,,,,,,,,,,,,,,,PF,weak,3,,,,,,,,1,2.51669,,,,,,,,,,,,,,,,,,,,,,,,,,,,9,weak,-101,40,1,0,0,response7disk,4,44,-7,6,1,0,0,rectangle,-7,6,1,0,0,1,6,0.00117,-7,6,1,0,0,0,43,43,114,1,0,,,,,,,,,,,,,,,,,,,,,
,,,,,,,,,,,,,,,,,,,,,,,,,,,,,,,,,,,,,,,,,,5f07759f859dcb38b8d4c6b5,6068418d036f27812f552542,2021-04-03_13h21.20.106,Colour_Similarity_Experiment,2020.2.10,Win32,60,60674ec340277cd6a308bc9f,17.12817949,16.6656401,16.6948517,16.66496449,16.94588521,16.6948517,,,,,,,,,,,,,,,,,,,,PF,weak,3,,,,,,,,0,1.584725,,,,,,,,,,,,,,,,,,,,,,,,,,,,2,weak,-45,104,1,0,0,response7disk,5,45,0,5,1,0,0,rectangle,0,5,1,0,0,1,0,0.00072,0,5,1,0,0,0,44,44,147,1,0,,,,,,,,,,,,,,,,,,,,,
,,,,,,,,,,,,,,,,,,,,,,,,,,,,,,,,,,,,,,,,,,5f07759f859dcb38b8d4c6b5,6068418d036f27812f552542,2021-04-03_13h21.20.106,Colour_Similarity_Experiment,2020.2.10,Win32,60,60674ec340277cd6a308bc9f,17.12817949,16.6656401,16.6948517,16.66496449,16.94588521,16.6948517,,,,,,,,,,,,,,,,,,,,PF,weak,3,,,,,,,,0,2.35002,,,,,,,,,,,,,,,,,,,,,,,,,,,,7,weak,-52,91,1,0,0,response7disk,4,46,-17,7,1,0,0,rectangle,-17,7,1,0,0,1,1,0.00188,-17,7,1,0,0,0,45,45,43,1,0,,,,,,,,,,,,,,,,,,,,,
,,,,,,,,,,,,,,,,,,,,,,,,,,,,,,,,,,,,,,,,,,5f07759f859dcb38b8d4c6b5,6068418d036f27812f552542,2021-04-03_13h21.20.106,Colour_Similarity_Experiment,2020.2.10,Win32,60,60674ec340277cd6a308bc9f,17.12817949,16.6656401,16.6948517,16.66496449,16.94588521,16.6948517,,,,,,,,,,,,,,,,,,,,PF,weak,3,,,,,,,,0,2.100035,,,,,,,,,,,,,,,,,,,,,,,,,,,,4,weak,-49,88,1,0,0,response7disk,7,47,3,4,1,0,0,rectangle,3,4,1,0,0,1,6,0.001155,3,4,1,0,0,0,46,46,38,1,0,,,,,,,,,,,,,,,,,,,,,
,,,,,,,,,,,,,,,,,,,,,,,,,,,,,,,,,,,,,,,,,,5f07759f859dcb38b8d4c6b5,6068418d036f27812f552542,2021-04-03_13h21.20.106,Colour_Similarity_Experiment,2020.2.10,Win32,60,60674ec340277cd6a308bc9f,17.12817949,16.6656401,16.6948517,16.66496449,16.94588521,16.6948517,,,,,,,,,,,,,,,,,,,,PF,weak,3,,,,,,,,6,1.31649,,,,,,,,,,,,,,,,,,,,,,,,,,,,3,weak,78,40,1,0,0,response1disk,4,48,5,-12,1,0,0,rectangle,5,-12,1,0,0,1,5,0.001125,5,-12,1,0,0,0,47,47,30,1,0,,,,,,,,,,,,,,,,,,,,,
,,,,,,,,,,,,,,,,,,,,,,,,,,,,,,,,,,,,,,,,,,5f07759f859dcb38b8d4c6b5,6068418d036f27812f552542,2021-04-03_13h21.20.106,Colour_Similarity_Experiment,2020.2.10,Win32,60,60674ec340277cd6a308bc9f,17.12817949,16.6656401,16.6948517,16.66496449,16.94588521,16.6948517,,,,,,,,,,,,,,,,,,,,PF,weak,3,,,,,,,,3,3.116635,,,,,,,,,,,,,,,,,,,,,,,,,,,,3,weak,-51,-98,1,0,0,response5disk,6,49,28,5,1,0,0,rectangle,28,5,1,0,0,1,6,0.0013,28,5,1,0,0,0,48,48,47,1,0,,,,,,,,,,,,,,,,,,,,,
,,,,,,,,,,,,,,,,,,,,,,,,,,,,,,,,,,,,,,,,,,5f07759f859dcb38b8d4c6b5,6068418d036f27812f552542,2021-04-03_13h21.20.106,Colour_Similarity_Experiment,2020.2.10,Win32,60,60674ec340277cd6a308bc9f,17.12817949,16.6656401,16.6948517,16.66496449,16.94588521,16.6948517,,,,,,,,,,,,,,,,,,,,PF,weak,3,,,,,,,,4,1.70005,,,,,,,,,,,,,,,,,,,,,,,,,,,,7,weak,46,-101,1,0,0,response3disk,8,50,-11,11,1,0,0,rectangle,-11,11,1,0,0,1,3,0.00175,-11,11,1,0,0,0,49,49,140,1,0,,,,,,,,,,,,,,,,,,,,,
,,,,,,,,,,,,,,,,,,,,,,,,,,,,,,,,,,,,,,,,,,5f07759f859dcb38b8d4c6b5,6068418d036f27812f552542,2021-04-03_13h21.20.106,Colour_Similarity_Experiment,2020.2.10,Win32,60,60674ec340277cd6a308bc9f,17.12817949,16.6656401,16.6948517,16.66496449,16.94588521,16.6948517,,,,,,,,,,,,,,,,,,,,PF,strong,3,,,,,,,,6,1.229435,,,,,,,,,,,,,,,,,,,,,,,,,,,,2,strong,78,31,1,0,0,response1disk,2,51,-3,-1,1,0,0,rectangle,-3,-1,1,0,0,1,7,0.001915,-3,-1,1,0,0,0,50,50,142,1,0,,,,,,,,,,,,,,,,,,,,,
,,,,,,,,,,,,,,,,,,,,,,,,,,,,,,,,,,,,,,,,,,5f07759f859dcb38b8d4c6b5,6068418d036f27812f552542,2021-04-03_13h21.20.106,Colour_Similarity_Experiment,2020.2.10,Win32,60,60674ec340277cd6a308bc9f,17.12817949,16.6656401,16.6948517,16.66496449,16.94588521,16.6948517,,,,,,,,,,,,,,,,,,,,PF,strong,3,,,,,,,,6,1.279235,,,,,,,,,,,,,,,,,,,,,,,,,,,,1,strong,76,55,1,0,0,response1disk,4,52,-4,11,1,0,0,rectangle,-4,11,1,0,0,1,1,0.001535,-4,11,1,0,0,0,51,51,135,1,0,,,,,,,,,,,,,,,,,,,,,
,,,,,,,,,,,,,,,,,,,,,,,,,,,,,,,,,,,,,,,,,,5f07759f859dcb38b8d4c6b5,6068418d036f27812f552542,2021-04-03_13h21.20.106,Colour_Similarity_Experiment,2020.2.10,Win32,60,60674ec340277cd6a308bc9f,17.12817949,16.6656401,16.6948517,16.66496449,16.94588521,16.6948517,,,,,,,,,,,,,,,,,,,,PF,strong,3,,,,,,,,5,5.846005,,,,,,,,,,,,,,,,,,,,,,,,,,,,3,strong,96,-39,1,0,0,response3disk,5,53,-10,-2,1,0,0,rectangle,-10,-2,1,0,0,1,1,0.00025,-10,-2,1,0,0,0,52,52,101,1,0,,,,,,,,,,,,,,,,,,,,,
,,,,,,,,,,,,,,,,,,,,,,,,,,,,,,,,,,,,,,,,,,5f07759f859dcb38b8d4c6b5,6068418d036f27812f552542,2021-04-03_13h21.20.106,Colour_Similarity_Experiment,2020.2.10,Win32,60,60674ec340277cd6a308bc9f,17.12817949,16.6656401,16.6948517,16.66496449,16.94588521,16.6948517,,,,,,,,,,,,,,,,,,,,PF,strong,3,,,,,,,,3,2.36251,,,,,,,,,,,,,,,,,,,,,,,,,,,,1,strong,-63,-108,1,0,0,response5disk,8,54,16,-10,1,0,0,rectangle,16,-10,1,0,0,1,7,0.00174,16,-10,1,0,0,0,53,53,27,1,0,,,,,,,,,,,,,,,,,,,,,
,,,,,,,,,,,,,,,,,,,,,,,,,,,,,,,,,,,,,,,,,,5f07759f859dcb38b8d4c6b5,6068418d036f27812f552542,2021-04-03_13h21.20.106,Colour_Similarity_Experiment,2020.2.10,Win32,60,60674ec340277cd6a308bc9f,17.12817949,16.6656401,16.6948517,16.66496449,16.94588521,16.6948517,,,,,,,,,,,,,,,,,,,,PF,strong,3,,,,,,,,6,1.46255,,,,,,,,,,,,,,,,,,,,,,,,,,,,6,strong,83,43,1,0,0,response1disk,2,55,-4,-2,1,0,0,rectangle,-4,-2,1,0,0,1,0,0.00179,-4,-2,1,0,0,0,54,54,112,1,0,,,,,,,,,,,,,,,,,,,,,
,,,,,,,,,,,,,,,,,,,,,,,,,,,,,,,,,,,,,,,,,,5f07759f859dcb38b8d4c6b5,6068418d036f27812f552542,2021-04-03_13h21.20.106,Colour_Similarity_Experiment,2020.2.10,Win32,60,60674ec340277cd6a308bc9f,17.12817949,16.6656401,16.6948517,16.66496449,16.94588521,16.6948517,,,,,,,,,,,,,,,,,,,,PF,weak,3,,,,,,,,0,1.615695,,,,,,,,,,,,,,,,,,,,,,,,,,,,6,weak,-48,96,1,0,0,response7disk,1,56,-14,6,1,0,0,rectangle,-14,6,1,0,0,1,0,0.00019,-14,6,1,0,0,0,55,55,46,1,0,,,,,,,,,,,,,,,,,,,,,
,,,,,,,,,,,,,,,,,,,,,,,,,,,,,,,,,,,,,,,,,,5f07759f859dcb38b8d4c6b5,6068418d036f27812f552542,2021-04-03_13h21.20.106,Colour_Similarity_Experiment,2020.2.10,Win32,60,60674ec340277cd6a308bc9f,17.12817949,16.6656401,16.6948517,16.66496449,16.94588521,16.6948517,,,,,,,,,,,,,,,,,,,,PF,weak,3,,,,,,,,0,4.446275,,,,,,,,,,,,,,,,,,,,,,,,,,,,6,weak,-34,105,1,0,0,response7disk,5,57,-1,9,1,0,0,rectangle,-1,9,1,0,0,1,4,0.001245,-1,9,1,0,0,0,56,56,59,1,0,,,,,,,,,,,,,,,,,,,,,
,,,,,,,,,,,,,,,,,,,,,,,,,,,,,,,,,,,,,,,,,,5f07759f859dcb38b8d4c6b5,6068418d036f27812f552542,2021-04-03_13h21.20.106,Colour_Similarity_Experiment,2020.2.10,Win32,60,60674ec340277cd6a308bc9f,17.12817949,16.6656401,16.6948517,16.66496449,16.94588521,16.6948517,,,,,,,,,,,,,,,,,,,,PF,strong,3,,,,,,,,0,1.849985,,,,,,,,,,,,,,,,,,,,,,,,,,,,5,strong,-54,93,1,0,0,response7disk,4,58,-3,0,1,0,0,rectangle,-3,0,1,0,0,1,2,0.00122,-3,0,1,0,0,0,57,57,8,1,0,,,,,,,,,,,,,,,,,,,,,
,,,,,,,,,,,,,,,,,,,,,,,,,,,,,,,,,,,,,,,,,,5f07759f859dcb38b8d4c6b5,6068418d036f27812f552542,2021-04-03_13h21.20.106,Colour_Similarity_Experiment,2020.2.10,Win32,60,60674ec340277cd6a308bc9f,17.12817949,16.6656401,16.6948517,16.66496449,16.94588521,16.6948517,,,,,,,,,,,,,,,,,,,,PF,strong,3,,,,,,,,4,1.616565,,,,,,,,,,,,,,,,,,,,,,,,,,,,7,strong,37,-106,1,0,0,response3disk,6,59,-2,0,1,0,0,rectangle,-2,0,1,0,0,1,0,0.00125,-2,0,1,0,0,0,58,58,31,1,0,,,,,,,,,,,,,,,,,,,,,
,,,,,,,,,,,,,,,,,,,,,,,,,,,,,,,,,,,,,,,,,,5f07759f859dcb38b8d4c6b5,6068418d036f27812f552542,2021-04-03_13h21.20.106,Colour_Similarity_Experiment,2020.2.10,Win32,60,60674ec340277cd6a308bc9f,17.12817949,16.6656401,16.6948517,16.66496449,16.94588521,16.6948517,,,,,,,,,,,,,,,,,,,,PF,weak,3,,,,,,,,2,2.516675,,,,,,,,,,,,,,,,,,,,,,,,,,,,2,weak,-84,-50,1,0,0,response5disk,6,60,4,-1,1,0,0,rectangle,4,-1,1,0,0,1,5,0.00267,4,-1,1,0,0,0,59,59,113,1,0,,,,,,,,,,,,,,,,,,,,,
,,,,,,,,,,,,,,,,,,,,,,,,,,,,,,,,,,,,,,,,,,5f07759f859dcb38b8d4c6b5,6068418d036f27812f552542,2021-04-03_13h21.20.106,Colour_Similarity_Experiment,2020.2.10,Win32,60,60674ec340277cd6a308bc9f,17.12817949,16.6656401,16.6948517,16.66496449,16.94588521,16.6948517,,,,,,,,,,,,,,,,,,,,PF,weak,3,,,,,,,,0,1.566615,,,,,,,,,,,,,,,,,,,,,,,,,,,,5,weak,-46,97,1,0,0,response7disk,2,61,9,4,1,0,0,rectangle,9,4,1,0,0,1,4,0.00139,9,4,1,0,0,0,60,60,129,1,0,,,,,,,,,,,,,,,,,,,,,
,,,,,,,,,,,,,,,,,,,,,,,,,,,,,,,,,,,,,,,,,,5f07759f859dcb38b8d4c6b5,6068418d036f27812f552542,2021-04-03_13h21.20.106,Colour_Similarity_Experiment,2020.2.10,Win32,60,60674ec340277cd6a308bc9f,17.12817949,16.6656401,16.6948517,16.66496449,16.94588521,16.6948517,,,,,,,,,,,,,,,,,,,,PF,strong,3,,,,,,,,6,1.616445,,,,,,,,,,,,,,,,,,,,,,,,,,,,9,strong,89,47,1,0,0,response1disk,6,62,-2,-6,1,0,0,rectangle,-2,-6,1,0,0,1,7,0.003185,-2,-6,1,0,0,0,61,61,117,1,0,,,,,,,,,,,,,,,,,,,,,
,,,,,,,,,,,,,,,,,,,,,,,,,,,,,,,,,,,,,,,,,,5f07759f859dcb38b8d4c6b5,6068418d036f27812f552542,2021-04-03_13h21.20.106,Colour_Similarity_Experiment,2020.2.10,Win32,60,60674ec340277cd6a308bc9f,17.12817949,16.6656401,16.6948517,16.66496449,16.94588521,16.6948517,,,,,,,,,,,,,,,,,,,,PF,weak,3,,,,,,,,7,1.58333,,,,,,,,,,,,,,,,,,,,,,,,,,,,9,weak,50,92,1,0,0,response1disk,9,63,14,-4,1,0,0,rectangle,14,-4,1,0,0,1,0,0.001175,14,-4,1,0,0,0,62,62,106,1,0,,,,,,,,,,,,,,,,,,,,,
,,,,,,,,,,,,,,,,,,,,,,,,,,,,,,,,,,,,,,,,,,5f07759f859dcb38b8d4c6b5,6068418d036f27812f552542,2021-04-03_13h21.20.106,Colour_Similarity_Experiment,2020.2.10,Win32,60,60674ec340277cd6a308bc9f,17.12817949,16.6656401,16.6948517,16.66496449,16.94588521,16.6948517,,,,,,,,,,,,,,,,,,,,PF,strong,3,,,,,,,,3,1.75011,,,,,,,,,,,,,,,,,,,,,,,,,,,,2,strong,-48,-84,1,0,0,response5disk,6,64,-7,-6,1,0,0,rectangle,-7,-6,1,0,0,1,5,0.00193,-7,-6,1,0,0,0,63,63,40,1,0,,,,,,,,,,,,,,,,,,,,,
,,,,,,,,,,,,,,,,,,,,,,,,,,,,,,,,,,,,,,,,,,5f07759f859dcb38b8d4c6b5,6068418d036f27812f552542,2021-04-03_13h21.20.106,Colour_Similarity_Experiment,2020.2.10,Win32,60,60674ec340277cd6a308bc9f,17.12817949,16.6656401,16.6948517,16.66496449,16.94588521,16.6948517,,,,,,,,,,,,,,,,,,,,PF,strong,3,,,,,,,,1,0.98335,,,,,,,,,,,,,,,,,,,,,,,,,,,,4,strong,-83,26,1,0,0,response7disk,5,65,-11,-12,1,0,0,rectangle,-11,-12,1,0,0,1,3,0.001025,-11,-12,1,0,0,0,64,64,116,1,0,,,,,,,,,,,,,,,,,,,,,
,,,,,,,,,,,,,,,,,,,,,,,,,,,,,,,,,,,,,,,,,,5f07759f859dcb38b8d4c6b5,6068418d036f27812f552542,2021-04-03_13h21.20.106,Colour_Similarity_Experiment,2020.2.10,Win32,60,60674ec340277cd6a308bc9f,17.12817949,16.6656401,16.6948517,16.66496449,16.94588521,16.6948517,,,,,,,,,,,,,,,,,,,,PF,weak,3,,,,,,,,0,1.500915,,,,,,,,,,,,,,,,,,,,,,,,,,,,1,weak,-34,93,1,0,0,response7disk,8,66,-18,-18,1,0,0,rectangle,-18,-18,1,0,0,1,0,0.001265,-18,-18,1,0,0,0,65,65,65,1,0,,,,,,,,,,,,,,,,,,,,,
,,,,,,,,,,,,,,,,,,,,,,,,,,,,,,,,,,,,,,,,,,5f07759f859dcb38b8d4c6b5,6068418d036f27812f552542,2021-04-03_13h21.20.106,Colour_Similarity_Experiment,2020.2.10,Win32,60,60674ec340277cd6a308bc9f,17.12817949,16.6656401,16.6948517,16.66496449,16.94588521,16.6948517,,,,,,,,,,,,,,,,,,,,PF,weak,3,,,,,,,,4,2.17913,,,,,,,,,,,,,,,,,,,,,,,,,,,,6,weak,97,-106,1,0,0,response3disk,3,67,18,-8,1,0,0,rectangle,18,-8,1,0,0,1,6,0.00143,18,-8,1,0,0,0,66,66,26,1,0,,,,,,,,,,,,,,,,,,,,,
,,,,,,,,,,,,,,,,,,,,,,,,,,,,,,,,,,,,,,,,,,5f07759f859dcb38b8d4c6b5,6068418d036f27812f552542,2021-04-03_13h21.20.106,Colour_Similarity_Experiment,2020.2.10,Win32,60,60674ec340277cd6a308bc9f,17.12817949,16.6656401,16.6948517,16.66496449,16.94588521,16.6948517,,,,,,,,,,,,,,,,,,,,PF,strong,3,,,,,,,,7,1.2993,,,,,,,,,,,,,,,,,,,,,,,,,,,,2,strong,70,90,1,0,0,response1disk,4,68,13,15,1,0,0,rectangle,13,15,1,0,0,1,7,0.00068,13,15,1,0,0,0,67,67,145,1,0,,,,,,,,,,,,,,,,,,,,,
,,,,,,,,,,,,,,,,,,,,,,,,,,,,,,,,,,,,,,,,,,5f07759f859dcb38b8d4c6b5,6068418d036f27812f552542,2021-04-03_13h21.20.106,Colour_Similarity_Experiment,2020.2.10,Win32,60,60674ec340277cd6a308bc9f,17.12817949,16.6656401,16.6948517,16.66496449,16.94588521,16.6948517,,,,,,,,,,,,,,,,,,,,PF,strong,3,,,,,,,,4,2.133355,,,,,,,,,,,,,,,,,,,,,,,,,,,,4,strong,40,-117,1,0,0,response3disk,9,69,-12,4,1,0,0,rectangle,-12,4,1,0,0,1,5,0.001115,-12,4,1,0,0,0,68,68,90,1,0,,,,,,,,,,,,,,,,,,,,,
,,,,,,,,,,,,,,,,,,,,,,,,,,,,,,,,,,,,,,,,,,5f07759f859dcb38b8d4c6b5,6068418d036f27812f552542,2021-04-03_13h21.20.106,Colour_Similarity_Experiment,2020.2.10,Win32,60,60674ec340277cd6a308bc9f,17.12817949,16.6656401,16.6948517,16.66496449,16.94588521,16.6948517,,,,,,,,,,,,,,,,,,,,PF,strong,3,,,,,,,,4,0.96664,,,,,,,,,,,,,,,,,,,,,,,,,,,,7,strong,29,-104,1,0,0,response3disk,9,70,-6,-3,1,0,0,rectangle,-6,-3,1,0,0,1,3,0.001385,-6,-3,1,0,0,0,69,69,155,1,0,,,,,,,,,,,,,,,,,,,,,
,,,,,,,,,,,,,,,,,,,,,,,,,,,,,,,,,,,,,,,,,,5f07759f859dcb38b8d4c6b5,6068418d036f27812f552542,2021-04-03_13h21.20.106,Colour_Similarity_Experiment,2020.2.10,Win32,60,60674ec340277cd6a308bc9f,17.12817949,16.6656401,16.6948517,16.66496449,16.94588521,16.6948517,,,,,,,,,,,,,,,,,,,,PF,strong,3,,,,,,,,1,1.24996,,,,,,,,,,,,,,,,,,,,,,,,,,,,6,strong,-116,58,1,0,0,response7disk,5,71,-27,4,1,0,0,rectangle,-27,4,1,0,0,1,6,0.00125,-27,4,1,0,0,0,70,70,126,1,0,,,,,,,,,,,,,,,,,,,,,
,,,,,,,,,,,,,,,,,,,,,,,,,,,,,,,,,,,,,,,,,,5f07759f859dcb38b8d4c6b5,6068418d036f27812f552542,2021-04-03_13h21.20.106,Colour_Similarity_Experiment,2020.2.10,Win32,60,60674ec340277cd6a308bc9f,17.12817949,16.6656401,16.6948517,16.66496449,16.94588521,16.6948517,,,,,,,,,,,,,,,,,,,,PF,weak,3,,,,,,,,7,1.150095,,,,,,,,,,,,,,,,,,,,,,,,,,,,3,weak,57,91,1,0,0,response1disk,3,72,28,11,1,0,0,rectangle,28,11,1,0,0,1,6,9.5E-05,28,11,1,0,0,0,71,71,4,1,0,,,,,,,,,,,,,,,,,,,,,
,,,,,,,,,,,,,,,,,,,,,,,,,,,,,,,,,,,,,,,,,,5f07759f859dcb38b8d4c6b5,6068418d036f27812f552542,2021-04-03_13h21.20.106,Colour_Similarity_Experiment,2020.2.10,Win32,60,60674ec340277cd6a308bc9f,17.12817949,16.6656401,16.6948517,16.66496449,16.94588521,16.6948517,,,,,,,,,,,,,,,,,,,,PF,weak,3,,,,,,,,0,1.299915,,,,,,,,,,,,,,,,,,,,,,,,,,,,9,weak,-42,95,1,0,0,response7disk,6,73,0,-7,1,0,0,rectangle,0,-7,1,0,0,1,4,0.001305,0,-7,1,0,0,0,72,72,148,1,0,,,,,,,,,,,,,,,,,,,,,
,,,,,,,,,,,,,,,,,,,,,,,,,,,,,,,,,,,,,,,,,,5f07759f859dcb38b8d4c6b5,6068418d036f27812f552542,2021-04-03_13h21.20.106,Colour_Similarity_Experiment,2020.2.10,Win32,60,60674ec340277cd6a308bc9f,17.12817949,16.6656401,16.6948517,16.66496449,16.94588521,16.6948517,,,,,,,,,,,,,,,,,,,,PF,weak,3,,,,,,,,7,1.066555,,,,,,,,,,,,,,,,,,,,,,,,,,,,2,weak,58,87,1,0,0,response1disk,2,74,21,19,1,0,0,rectangle,21,19,1,0,0,6,0,0.001255,21,19,1,0,0,0,73,73,14,1,0,,,,,,,,,,,,,,,,,,,,,
,,,,,,,,,,,,,,,,,,,,,,,,,,,,,,,,,,,,,,,,,,5f07759f859dcb38b8d4c6b5,6068418d036f27812f552542,2021-04-03_13h21.20.106,Colour_Similarity_Experiment,2020.2.10,Win32,60,60674ec340277cd6a308bc9f,17.12817949,16.6656401,16.6948517,16.66496449,16.94588521,16.6948517,,,,,,,,,,,,,,,,,,,,PF,strong,3,,,,,,,,2,1.833195,,,,,,,,,,,,,,,,,,,,,,,,,,,,3,strong,-85,-43,1,0,0,response5disk,1,75,-13,19,1,0,0,rectangle,-13,19,1,0,0,6,7,0.00113,-13,19,1,0,0,0,74,74,125,1,0,,,,,,,,,,,,,,,,,,,,,
,,,,,,,,,,,,,,,,,,,,,,,,,,,,,,,,,,,,,,,,,,5f07759f859dcb38b8d4c6b5,6068418d036f27812f552542,2021-04-03_13h21.20.106,Colour_Similarity_Experiment,2020.2.10,Win32,60,60674ec340277cd6a308bc9f,17.12817949,16.6656401,16.6948517,16.66496449,16.94588521,16.6948517,,,,,,,,,,,,,,,,,,,,PF,strong,3,,,,,,,,1,0.966545,,,,,,,,,,,,,,,,,,,,,,,,,,,,3,strong,-91,47,1,0,0,response7disk,2,76,-25,11,1,0,0,rectangle,-25,11,1,0,0,6,5,0.001015,-25,11,1,0,0,0,75,75,93,1,0,,,,,,,,,,,,,,,,,,,,,
,,,,,,,,,,,,,,,,,,,,,,,,,,,,,,,,,,,,,,,,,,5f07759f859dcb38b8d4c6b5,6068418d036f27812f552542,2021-04-03_13h21.20.106,Colour_Similarity_Experiment,2020.2.10,Win32,60,60674ec340277cd6a308bc9f,17.12817949,16.6656401,16.6948517,16.66496449,16.94588521,16.6948517,,,,,,,,,,,,,,,,,,,,PF,weak,3,,,,,,,,2,3.35003,,,,,,,,,,,,,,,,,,,,,,,,,,,,2,weak,-103,-37,1,0,0,response5disk,9,77,4,-2,1,0,0,rectangle,4,-2,1,0,0,6,2,0.0021,4,-2,1,0,0,0,76,76,39,1,0,,,,,,,,,,,,,,,,,,,,,
,,,,,,,,,,,,,,,,,,,,,,,,,,,,,,,,,,,,,,,,,,5f07759f859dcb38b8d4c6b5,6068418d036f27812f552542,2021-04-03_13h21.20.106,Colour_Similarity_Experiment,2020.2.10,Win32,60,60674ec340277cd6a308bc9f,17.12817949,16.6656401,16.6948517,16.66496449,16.94588521,16.6948517,,,,,,,,,,,,,,,,,,,,PF,strong,3,,,,,,,,0,1.5832,,,,,,,,,,,,,,,,,,,,,,,,,,,,9,strong,-48,76,1,0,0,response7disk,5,78,-9,-3,1,0,0,rectangle,-9,-3,1,0,0,6,6,0.00198,-9,-3,1,0,0,0,77,77,128,1,0,,,,,,,,,,,,,,,,,,,,,
,,,,,,,,,,,,,,,,,,,,,,,,,,,,,,,,,,,,,,,,,,5f07759f859dcb38b8d4c6b5,6068418d036f27812f552542,2021-04-03_13h21.20.106,Colour_Similarity_Experiment,2020.2.10,Win32,60,60674ec340277cd6a308bc9f,17.12817949,16.6656401,16.6948517,16.66496449,16.94588521,16.6948517,,,,,,,,,,,,,,,,,,,,PF,strong,3,,,,,,,,1,2.266755,,,,,,,,,,,,,,,,,,,,,,,,,,,,4,strong,-76,52,1,0,0,response7disk,7,79,9,0,1,0,0,rectangle,9,0,1,0,0,6,0,0.003145,9,0,1,0,0,0,78,78,87,1,0,,,,,,,,,,,,,,,,,,,,,
,,,,,,,,,,,,,,,,,,,,,,,,,,,,,,,,,,,,,,,,,,5f07759f859dcb38b8d4c6b5,6068418d036f27812f552542,2021-04-03_13h21.20.106,Colour_Similarity_Experiment,2020.2.10,Win32,60,60674ec340277cd6a308bc9f,17.12817949,16.6656401,16.6948517,16.66496449,16.94588521,16.6948517,,,,,,,,,,,,,,,,,,,,PF,weak,3,,,,,,,,4,1.383325,,,,,,,,,,,,,,,,,,,,,,,,,,,,4,weak,49,-108,1,0,0,response3disk,8,80,4,0,1,0,0,rectangle,4,0,1,0,0,6,3,0.001345,4,0,1,0,0,0,79,79,124,1,0,,,,,,,,,,,,,,,,,,,,,
,,,,,,,,,,,,,,,,,,,,,,,,,,,,,,,,,,,,,,,,,,5f07759f859dcb38b8d4c6b5,6068418d036f27812f552542,2021-04-03_13h21.20.106,Colour_Similarity_Experiment,2020.2.10,Win32,60,60674ec340277cd6a308bc9f,17.12817949,16.6656401,16.6948517,16.66496449,16.94588521,16.6948517,,,,,,,,,,,,,,,,,,,,PF,weak,3,,,,,,,,1,3.399845,,,,,,,,,,,,,,,,,,,,,,,,,,,,8,weak,-77,30,1,0,0,response7disk,1,81,4,0,1,0,0,rectangle,4,0,1,0,0,6,5,0.001725,4,0,1,0,0,0,80,80,57,1,0,,,,,,,,,,,,,,,,,,,,,
,,,,,,,,,,,,,,,,,,,,,,,,,,,,,,,,,,,,,,,,,,5f07759f859dcb38b8d4c6b5,6068418d036f27812f552542,2021-04-03_13h21.20.106,Colour_Similarity_Experiment,2020.2.10,Win32,60,60674ec340277cd6a308bc9f,17.12817949,16.6656401,16.6948517,16.66496449,16.94588521,16.6948517,,,,,,,,,,,,,,,,,,,,PF,weak,3,,,,,,,,1,1.99996,,,,,,,,,,,,,,,,,,,,,,,,,,,,5,weak,-76,32,1,0,0,response7disk,1,82,-7,2,1,0,0,rectangle,41,111,1,0,0,7,7,5.000395,-21,0,1,0,0,0,81,81,159,1,1,response1disk_3,rectangle,,,,,,,,,,,,,,,,,,,
,,,,,,,,,,,,,,,,,,,,,,,,,,,,,,,,,,,,,,,,,,5f07759f859dcb38b8d4c6b5,6068418d036f27812f552542,2021-04-03_13h21.20.106,Colour_Similarity_Experiment,2020.2.10,Win32,60,60674ec340277cd6a308bc9f,17.12817949,16.6656401,16.6948517,16.66496449,16.94588521,16.6948517,,,,,,,,,,,,,,,,,,,,PF,strong,3,,,,,,,,7,1.216625,,,,,,,,,,,,,,,,,,,,,,,,,,,,7,strong,51,105,1,0,0,response1disk,7,83,19,-6,1,0,0,rectangle,19,-6,1,0,0,7,0,0.00118,19,-6,1,0,0,0,82,82,34,1,0,,,,,,,,,,,,,,,,,,,,,
,,,,,,,,,,,,,,,,,,,,,,,,,,,,,,,,,,,,,,,,,,5f07759f859dcb38b8d4c6b5,6068418d036f27812f552542,2021-04-03_13h21.20.106,Colour_Similarity_Experiment,2020.2.10,Win32,60,60674ec340277cd6a308bc9f,17.12817949,16.6656401,16.6948517,16.66496449,16.94588521,16.6948517,,,,,,,,,,,,,,,,,,,,PF,weak,3,,,,,,,,5,1.416685,,,,,,,,,,,,,,,,,,,,,,,,,,,,4,weak,84,-58,1,0,0,response3disk,6,84,33,-11,1,0,0,rectangle,33,-11,1,0,0,7,6,0.00111,33,-11,1,0,0,0,83,83,120,1,0,,,,,,,,,,,,,,,,,,,,,
,,,,,,,,,,,,,,,,,,,,,,,,,,,,,,,,,,,,,,,,,,5f07759f859dcb38b8d4c6b5,6068418d036f27812f552542,2021-04-03_13h21.20.106,Colour_Similarity_Experiment,2020.2.10,Win32,60,60674ec340277cd6a308bc9f,17.12817949,16.6656401,16.6948517,16.66496449,16.94588521,16.6948517,,,,,,,,,,,,,,,,,,,,PF,strong,3,,,,,,,,3,1.39978,,,,,,,,,,,,,,,,,,,,,,,,,,,,1,strong,-56,-95,1,0,0,response5disk,5,85,9,-7,1,0,0,rectangle,9,-7,1,0,0,7,3,0.00101,9,-7,1,0,0,0,84,84,82,1,0,,,,,,,,,,,,,,,,,,,,,
,,,,,,,,,,,,,,,,,,,,,,,,,,,,,,,,,,,,,,,,,,5f07759f859dcb38b8d4c6b5,6068418d036f27812f552542,2021-04-03_13h21.20.106,Colour_Similarity_Experiment,2020.2.10,Win32,60,60674ec340277cd6a308bc9f,17.12817949,16.6656401,16.6948517,16.66496449,16.94588521,16.6948517,,,,,,,,,,,,,,,,,,,,PF,weak,3,,,,,,,,3,1.850045,,,,,,,,,,,,,,,,,,,,,,,,,,,,1,weak,-32,-98,1,0,0,response5disk,2,86,6,1,1,0,0,rectangle,6,1,1,0,0,7,7,0.001075,6,1,1,0,0,0,85,85,24,1,0,,,,,,,,,,,,,,,,,,,,,
,,,,,,,,,,,,,,,,,,,,,,,,,,,,,,,,,,,,,,,,,,5f07759f859dcb38b8d4c6b5,6068418d036f27812f552542,2021-04-03_13h21.20.106,Colour_Similarity_Experiment,2020.2.10,Win32,60,60674ec340277cd6a308bc9f,17.12817949,16.6656401,16.6948517,16.66496449,16.94588521,16.6948517,,,,,,,,,,,,,,,,,,,,PF,weak,3,,,,,,,,5,1.23326,,,,,,,,,,,,,,,,,,,,,,,,,,,,3,weak,94,-44,1,0,0,response3disk,5,87,8,4,1,0,0,rectangle,8,4,1,0,0,7,7,9E-05,8,4,1,0,0,0,86,86,66,1,0,,,,,,,,,,,,,,,,,,,,,
,,,,,,,,,,,,,,,,,,,,,,,,,,,,,,,,,,,,,,,,,,5f07759f859dcb38b8d4c6b5,6068418d036f27812f552542,2021-04-03_13h21.20.106,Colour_Similarity_Experiment,2020.2.10,Win32,60,60674ec340277cd6a308bc9f,17.12817949,16.6656401,16.6948517,16.66496449,16.94588521,16.6948517,,,,,,,,,,,,,,,,,,,,PF,weak,3,,,,,,,,7,1.049795,,,,,,,,,,,,,,,,,,,,,,,,,,,,8,weak,48,103,1,0,0,response1disk,8,88,-15,5,1,0,0,rectangle,-15,5,1,0,0,7,3,0.001155,-15,5,1,0,0,0,87,87,153,1,0,,,,,,,,,,,,,,,,,,,,,
,,,,,,,,,,,,,,,,,,,,,,,,,,,,,,,,,,,,,,,,,,5f07759f859dcb38b8d4c6b5,6068418d036f27812f552542,2021-04-03_13h21.20.106,Colour_Similarity_Experiment,2020.2.10,Win32,60,60674ec340277cd6a308bc9f,17.12817949,16.6656401,16.6948517,16.66496449,16.94588521,16.6948517,,,,,,,,,,,,,,,,,,,,PF,weak,3,,,,,,,,0,1.0331,,,,,,,,,,,,,,,,,,,,,,,,,,,,7,weak,-52,93,1,0,0,response7disk,9,89,-15,7,1,0,0,rectangle,-15,7,1,0,0,7,7,0.001315,-15,7,1,0,0,0,88,88,10,1,0,,,,,,,,,,,,,,,,,,,,,
,,,,,,,,,,,,,,,,,,,,,,,,,,,,,,,,,,,,,,,,,,5f07759f859dcb38b8d4c6b5,6068418d036f27812f552542,2021-04-03_13h21.20.106,Colour_Similarity_Experiment,2020.2.10,Win32,60,60674ec340277cd6a308bc9f,17.12817949,16.6656401,16.6948517,16.66496449,16.94588521,16.6948517,,,,,,,,,,,,,,,,,,,,PF,weak,3,,,,,,,,1,1.183255,,,,,,,,,,,,,,,,,,,,,,,,,,,,1,weak,-70,32,1,0,0,response7disk,6,90,-17,19,1,0,0,rectangle,-17,19,1,0,0,7,2,0.001425,-17,19,1,0,0,0,89,89,144,1,0,,,,,,,,,,,,,,,,,,,,,
,,,,,,,,,,,,,,,,,,,,,,,,,,,,,,,,,,,,,,,,,,5f07759f859dcb38b8d4c6b5,6068418d036f27812f552542,2021-04-03_13h21.20.106,Colour_Similarity_Experiment,2020.2.10,Win32,60,60674ec340277cd6a308bc9f,17.12817949,16.6656401,16.6948517,16.66496449,16.94588521,16.6948517,,,,,,,,,,,,,,,,,,,,PF,strong,3,,,,,,,,1,1.216585,,,,,,,,,,,,,,,,,,,,,,,,,,,,6,strong,-63,27,1,0,0,response7disk,4,91,-8,1,1,0,0,rectangle,-8,1,1,0,0,7,0,0.00118,-8,1,1,0,0,0,90,90,56,1,0,,,,,,,,,,,,,,,,,,,,,
,,,,,,,,,,,,,,,,,,,,,,,,,,,,,,,,,,,,,,,,,,5f07759f859dcb38b8d4c6b5,6068418d036f27812f552542,2021-04-03_13h21.20.106,Colour_Similarity_Experiment,2020.2.10,Win32,60,60674ec340277cd6a308bc9f,17.12817949,16.6656401,16.6948517,16.66496449,16.94588521,16.6948517,,,,,,,,,,,,,,,,,,,,PF,strong,3,,,,,,,,0,1.9,,,,,,,,,,,,,,,,,,,,,,,,,,,,4,strong,-44,84,1,0,0,response7disk,2,92,-4,-1,1,0,0,rectangle,-4,-1,1,0,0,7,7,0.00113,-4,-1,1,0,0,0,91,91,13,1,0,,,,,,,,,,,,,,,,,,,,,
,,,,,,,,,,,,,,,,,,,,,,,,,,,,,,,,,,,,,,,,,,5f07759f859dcb38b8d4c6b5,6068418d036f27812f552542,2021-04-03_13h21.20.106,Colour_Similarity_Experiment,2020.2.10,Win32,60,60674ec340277cd6a308bc9f,17.12817949,16.6656401,16.6948517,16.66496449,16.94588521,16.6948517,,,,,,,,,,,,,,,,,,,,PF,strong,3,,,,,,,,1,0.966595,,,,,,,,,,,,,,,,,,,,,,,,,,,,2,strong,-92,39,1,0,0,response7disk,3,93,-9,-4,1,0,0,rectangle,-85,-41,1,0,0,7,2,2.28316,-20,-3,1,0,0,0,92,92,104,1,1,response5disk_3,rectangle,,,,,,,,,,,,,,,,,,,
,,,,,,,,,,,,,,,,,,,,,,,,,,,,,,,,,,,,,,,,,,5f07759f859dcb38b8d4c6b5,6068418d036f27812f552542,2021-04-03_13h21.20.106,Colour_Similarity_Experiment,2020.2.10,Win32,60,60674ec340277cd6a308bc9f,17.12817949,16.6656401,16.6948517,16.66496449,16.94588521,16.6948517,,,,,,,,,,,,,,,,,,,,PF,weak,3,,,,,,,,1,0.98333,,,,,,,,,,,,,,,,,,,,,,,,,,,,1,weak,-111,38,1,0,0,response7disk,5,94,-17,0,1,0,0,rectangle,-17,0,1,0,0,7,6,0.001255,-17,0,1,0,0,0,93,93,28,1,0,,,,,,,,,,,,,,,,,,,,,
,,,,,,,,,,,,,,,,,,,,,,,,,,,,,,,,,,,,,,,,,,5f07759f859dcb38b8d4c6b5,6068418d036f27812f552542,2021-04-03_13h21.20.106,Colour_Similarity_Experiment,2020.2.10,Win32,60,60674ec340277cd6a308bc9f,17.12817949,16.6656401,16.6948517,16.66496449,16.94588521,16.6948517,,,,,,,,,,,,,,,,,,,,PF,strong,3,,,,,,,,5,1.899955,,,,,,,,,,,,,,,,,,,,,,,,,,,,7,strong,94,-55,1,0,0,response3disk,4,95,1,10,1,0,0,rectangle,1,10,1,0,0,7,1,0.001435,1,10,1,0,0,0,94,94,158,1,0,,,,,,,,,,,,,,,,,,,,,
,,,,,,,,,,,,,,,,,,,,,,,,,,,,,,,,,,,,,,,,,,5f07759f859dcb38b8d4c6b5,6068418d036f27812f552542,2021-04-03_13h21.20.106,Colour_Similarity_Experiment,2020.2.10,Win32,60,60674ec340277cd6a308bc9f,17.12817949,16.6656401,16.6948517,16.66496449,16.94588521,16.6948517,,,,,,,,,,,,,,,,,,,,PF,weak,3,,,,,,,,5,1.199785,,,,,,,,,,,,,,,,,,,,,,,,,,,,9,weak,91,-44,1,0,0,response3disk,5,96,-18,13,1,0,0,rectangle,-18,13,1,0,0,7,5,0.001135,-18,13,1,0,0,0,95,95,134,1,0,,,,,,,,,,,,,,,,,,,,,
,,,,,,,,,,,,,,,,,,,,,,,,,,,,,,,,,,,,,,,,,,5f07759f859dcb38b8d4c6b5,6068418d036f27812f552542,2021-04-03_13h21.20.106,Colour_Similarity_Experiment,2020.2.10,Win32,60,60674ec340277cd6a308bc9f,17.12817949,16.6656401,16.6948517,16.66496449,16.94588521,16.6948517,,,,,,,,,,,,,,,,,,,,PF,strong,3,,,,,,,,7,1.283285,,,,,,,,,,,,,,,,,,,,,,,,,,,,8,strong,35,90,1,0,0,response1disk,9,97,13,7,1,0,0,rectangle,13,7,1,0,0,7,7,0.00122,13,7,1,0,0,0,96,96,105,1,0,,,,,,,,,,,,,,,,,,,,,
,,,,,,,,,,,,,,,,,,,,,,,,,,,,,,,,,,,,,,,,,,5f07759f859dcb38b8d4c6b5,6068418d036f27812f552542,2021-04-03_13h21.20.106,Colour_Similarity_Experiment,2020.2.10,Win32,60,60674ec340277cd6a308bc9f,17.12817949,16.6656401,16.6948517,16.66496449,16.94588521,16.6948517,,,,,,,,,,,,,,,,,,,,PF,weak,3,,,,,,,,3,6.66621,,,,,,,,,,,,,,,,,,,,,,,,,,,,5,weak,-44,-97,1,0,0,response5disk,4,98,17,0,1,0,0,rectangle,17,0,1,0,0,7,4,0.001325,17,0,1,0,0,0,97,97,54,1,0,,,,,,,,,,,,,,,,,,,,,
,,,,,,,,,,,,,,,,,,,,,,,,,,,,,,,,,,,,,,,,,,5f07759f859dcb38b8d4c6b5,6068418d036f27812f552542,2021-04-03_13h21.20.106,Colour_Similarity_Experiment,2020.2.10,Win32,60,60674ec340277cd6a308bc9f,17.12817949,16.6656401,16.6948517,16.66496449,16.94588521,16.6948517,,,,,,,,,,,,,,,,,,,,PF,weak,3,,,,,,,,4,2.44992,,,,,,,,,,,,,,,,,,,,,,,,,,,,8,weak,39,-101,1,0,0,response3disk,9,99,-16,5,1,0,0,rectangle,-16,5,1,0,0,7,1,0.00333,-16,5,1,0,0,0,98,98,42,1,0,,,,,,,,,,,,,,,,,,,,,
,,,,,,,,,,,,,,,,,,,,,,,,,,,,,,,,,,,,,,,,,,5f07759f859dcb38b8d4c6b5,6068418d036f27812f552542,2021-04-03_13h21.20.106,Colour_Similarity_Experiment,2020.2.10,Win32,60,60674ec340277cd6a308bc9f,17.12817949,16.6656401,16.6948517,16.66496449,16.94588521,16.6948517,,,,,,,,,,,,,,,,,,,,PF,strong,3,,,,,,,,6,1.18427,,,,,,,,,,,,,,,,,,,,,,,,,,,,3,strong,95,42,1,0,0,response1disk,6,100,-6,-11,1,0,0,rectangle,-6,-11,1,0,0,7,3,0.001625,-6,-11,1,0,0,0,99,99,95,1,0,,,,,,,,,,,,,,,,,,,,,
,,,,,,,,,,,,,,,,,,,,,,,,,,,,,,,,,,,,,,,,,,5f07759f859dcb38b8d4c6b5,6068418d036f27812f552542,2021-04-03_13h21.20.106,Colour_Similarity_Experiment,2020.2.10,Win32,60,60674ec340277cd6a308bc9f,17.12817949,16.6656401,16.6948517,16.66496449,16.94588521,16.6948517,,,,,,,,,,,,,,,,,,,,PF,strong,3,,,,,,,,6,1.100095,,,,,,,,,,,,,,,,,,,,,,,,,,,,3,strong,91,49,1,0,0,response1disk,9,101,2,-2,1,0,0,rectangle,2,-2,1,0,0,7,7,0.00122,2,-2,1,0,0,0,100,100,143,1,0,,,,,,,,,,,,,,,,,,,,,
,,,,,,,,,,,,,,,,,,,,,,,,,,,,,,,,,,,,,,,,,,5f07759f859dcb38b8d4c6b5,6068418d036f27812f552542,2021-04-03_13h21.20.106,Colour_Similarity_Experiment,2020.2.10,Win32,60,60674ec340277cd6a308bc9f,17.12817949,16.6656401,16.6948517,16.66496449,16.94588521,16.6948517,,,,,,,,,,,,,,,,,,,,PF,weak,3,,,,,,,,1,1.03341,,,,,,,,,,,,,,,,,,,,,,,,,,,,7,weak,-108,44,1,0,0,response7disk,1,102,-16,7,1,0,0,rectangle,-16,7,1,0,0,7,1,0.001145,-16,7,1,0,0,0,101,101,53,1,0,,,,,,,,,,,,,,,,,,,,,
,,,,,,,,,,,,,,,,,,,,,,,,,,,,,,,,,,,,,,,,,,5f07759f859dcb38b8d4c6b5,6068418d036f27812f552542,2021-04-03_13h21.20.106,Colour_Similarity_Experiment,2020.2.10,Win32,60,60674ec340277cd6a308bc9f,17.12817949,16.6656401,16.6948517,16.66496449,16.94588521,16.6948517,,,,,,,,,,,,,,,,,,,,PF,strong,3,,,,,,,,7,1.049785,,,,,,,,,,,,,,,,,,,,,,,,,,,,6,strong,51,96,1,0,0,response1disk,6,103,20,0,1,0,0,rectangle,20,0,1,0,0,7,6,0.001325,20,0,1,0,0,0,102,102,91,1,0,,,,,,,,,,,,,,,,,,,,,
,,,,,,,,,,,,,,,,,,,,,,,,,,,,,,,,,,,,,,,,,,5f07759f859dcb38b8d4c6b5,6068418d036f27812f552542,2021-04-03_13h21.20.106,Colour_Similarity_Experiment,2020.2.10,Win32,60,60674ec340277cd6a308bc9f,17.12817949,16.6656401,16.6948517,16.66496449,16.94588521,16.6948517,,,,,,,,,,,,,,,,,,,,PF,weak,3,,,,,,,,0,8.616635,,,,,,,,,,,,,,,,,,,,,,,,,,,,8,weak,-69,103,1,0,0,response7disk,2,104,-20,2,1,0,0,rectangle,-20,2,1,0,0,7,5,0.001235,-20,2,1,0,0,0,103,103,83,1,0,,,,,,,,,,,,,,,,,,,,,
,,,,,,,,,,,,,,,,,,,,,,,,,,,,,,,,,,,,,,,,,,5f07759f859dcb38b8d4c6b5,6068418d036f27812f552542,2021-04-03_13h21.20.106,Colour_Similarity_Experiment,2020.2.10,Win32,60,60674ec340277cd6a308bc9f,17.12817949,16.6656401,16.6948517,16.66496449,16.94588521,16.6948517,,,,,,,,,,,,,,,,,,,,PF,strong,3,,,,,,,,6,1.916665,,,,,,,,,,,,,,,,,,,,,,,,,,,,8,strong,89,42,1,0,0,response1disk,5,105,23,-4,1,0,0,rectangle,23,-4,1,0,0,7,2,0.001065,23,-4,1,0,0,0,104,104,152,1,0,,,,,,,,,,,,,,,,,,,,,
,,,,,,,,,,,,,,,,,,,,,,,,,,,,,,,,,,,,,,,,,,5f07759f859dcb38b8d4c6b5,6068418d036f27812f552542,2021-04-03_13h21.20.106,Colour_Similarity_Experiment,2020.2.10,Win32,60,60674ec340277cd6a308bc9f,17.12817949,16.6656401,16.6948517,16.66496449,16.94588521,16.6948517,,,,,,,,,,,,,,,,,,,,PF,weak,3,,,,,,,,4,1.76652,,,,,,,,,,,,,,,,,,,,,,,,,,,,3,weak,64,-131,1,0,0,response3disk,2,106,19,5,1,0,0,rectangle,-109,41,1,0,0,1,1,1.649905,2,-2,1,0,0,0,105,105,36,1,1,response7disk_3,rectangle,,,,,,,,,,,,,,,,,,,
,,,,,,,,,,,,,,,,,,,,,,,,,,,,,,,,,,,,,,,,,,5f07759f859dcb38b8d4c6b5,6068418d036f27812f552542,2021-04-03_13h21.20.106,Colour_Similarity_Experiment,2020.2.10,Win32,60,60674ec340277cd6a308bc9f,17.12817949,16.6656401,16.6948517,16.66496449,16.94588521,16.6948517,,,,,,,,,,,,,,,,,,,,PF,weak,3,,,,,,,,0,1.549935,,,,,,,,,,,,,,,,,,,,,,,,,,,,4,weak,-47,86,1,0,0,response7disk,1,107,-27,7,1,0,0,rectangle,-27,7,1,0,0,1,2,0.00131,-27,7,1,0,0,0,106,106,115,1,0,,,,,,,,,,,,,,,,,,,,,
,,,,,,,,,,,,,,,,,,,,,,,,,,,,,,,,,,,,,,,,,,5f07759f859dcb38b8d4c6b5,6068418d036f27812f552542,2021-04-03_13h21.20.106,Colour_Similarity_Experiment,2020.2.10,Win32,60,60674ec340277cd6a308bc9f,17.12817949,16.6656401,16.6948517,16.66496449,16.94588521,16.6948517,,,,,,,,,,,,,,,,,,,,PF,strong,3,,,,,,,,6,1.5,,,,,,,,,,,,,,,,,,,,,,,,,,,,5,strong,105,45,1,0,0,response1disk,9,108,44,-16,1,0,0,rectangle,44,-16,1,0,0,1,0,0.001125,44,-16,1,0,0,0,107,107,61,1,0,,,,,,,,,,,,,,,,,,,,,
,,,,,,,,,,,,,,,,,,,,,,,,,,,,,,,,,,,,,,,,,,5f07759f859dcb38b8d4c6b5,6068418d036f27812f552542,2021-04-03_13h21.20.106,Colour_Similarity_Experiment,2020.2.10,Win32,60,60674ec340277cd6a308bc9f,17.12817949,16.6656401,16.6948517,16.66496449,16.94588521,16.6948517,,,,,,,,,,,,,,,,,,,,PF,strong,3,,,,,,,,2,1.7668,,,,,,,,,,,,,,,,,,,,,,,,,,,,1,strong,-69,-49,1,0,0,response5disk,1,109,21,-7,1,0,0,rectangle,21,-7,1,0,0,1,7,0.00115,21,-7,1,0,0,0,108,108,151,1,0,,,,,,,,,,,,,,,,,,,,,
,,,,,,,,,,,,,,,,,,,,,,,,,,,,,,,,,,,,,,,,,,5f07759f859dcb38b8d4c6b5,6068418d036f27812f552542,2021-04-03_13h21.20.106,Colour_Similarity_Experiment,2020.2.10,Win32,60,60674ec340277cd6a308bc9f,17.12817949,16.6656401,16.6948517,16.66496449,16.94588521,16.6948517,,,,,,,,,,,,,,,,,,,,PF,weak,3,,,,,,,,0,1.29987,,,,,,,,,,,,,,,,,,,,,,,,,,,,6,weak,-57,97,1,0,0,response7disk,9,110,0,-6,1,0,0,rectangle,0,-6,1,0,0,1,7,7.99999E-05,0,-6,1,0,0,0,109,109,45,1,0,,,,,,,,,,,,,,,,,,,,,
,,,,,,,,,,,,,,,,,,,,,,,,,,,,,,,,,,,,,,,,,,5f07759f859dcb38b8d4c6b5,6068418d036f27812f552542,2021-04-03_13h21.20.106,Colour_Similarity_Experiment,2020.2.10,Win32,60,60674ec340277cd6a308bc9f,17.12817949,16.6656401,16.6948517,16.66496449,16.94588521,16.6948517,,,,,,,,,,,,,,,,,,,,PF,strong,3,,,,,,,,6,1.249955,,,,,,,,,,,,,,,,,,,,,,,,,,,,4,strong,86,52,1,0,0,response1disk,6,111,22,1,1,0,0,rectangle,22,1,1,0,0,1,3,0.001115,22,1,1,0,0,0,110,110,122,1,0,,,,,,,,,,,,,,,,,,,,,
,,,,,,,,,,,,,,,,,,,,,,,,,,,,,,,,,,,,,,,,,,5f07759f859dcb38b8d4c6b5,6068418d036f27812f552542,2021-04-03_13h21.20.106,Colour_Similarity_Experiment,2020.2.10,Win32,60,60674ec340277cd6a308bc9f,17.12817949,16.6656401,16.6948517,16.66496449,16.94588521,16.6948517,,,,,,,,,,,,,,,,,,,,PF,weak,3,,,,,,,,2,1.28334,,,,,,,,,,,,,,,,,,,,,,,,,,,,2,weak,-81,-54,1,0,0,response5disk,8,112,10,-1,1,0,0,rectangle,10,-1,1,0,0,1,3,9.5E-05,10,-1,1,0,0,0,111,111,52,1,0,,,,,,,,,,,,,,,,,,,,,
,,,,,,,,,,,,,,,,,,,,,,,,,,,,,,,,,,,,,,,,,,5f07759f859dcb38b8d4c6b5,6068418d036f27812f552542,2021-04-03_13h21.20.106,Colour_Similarity_Experiment,2020.2.10,Win32,60,60674ec340277cd6a308bc9f,17.12817949,16.6656401,16.6948517,16.66496449,16.94588521,16.6948517,,,,,,,,,,,,,,,,,,,,PF,strong,3,,,,,,,,5,1.466675,,,,,,,,,,,,,,,,,,,,,,,,,,,,5,strong,95,-43,1,0,0,response3disk,1,113,12,-8,1,0,0,rectangle,12,-8,1,0,0,1,3,8.52E-05,12,-8,1,0,0,0,112,112,131,1,0,,,,,,,,,,,,,,,,,,,,,
,,,,,,,,,,,,,,,,,,,,,,,,,,,,,,,,,,,,,,,,,,5f07759f859dcb38b8d4c6b5,6068418d036f27812f552542,2021-04-03_13h21.20.106,Colour_Similarity_Experiment,2020.2.10,Win32,60,60674ec340277cd6a308bc9f,17.12817949,16.6656401,16.6948517,16.66496449,16.94588521,16.6948517,,,,,,,,,,,,,,,,,,,,PF,weak,3,,,,,,,,7,1.166605,,,,,,,,,,,,,,,,,,,,,,,,,,,,2,weak,65,108,1,0,0,response1disk,3,114,30,3,1,0,0,rectangle,30,3,1,0,0,1,4,0.00115,30,3,1,0,0,0,113,113,69,1,0,,,,,,,,,,,,,,,,,,,,,
,,,,,,,,,,,,,,,,,,,,,,,,,,,,,,,,,,,,,,,,,,5f07759f859dcb38b8d4c6b5,6068418d036f27812f552542,2021-04-03_13h21.20.106,Colour_Similarity_Experiment,2020.2.10,Win32,60,60674ec340277cd6a308bc9f,17.12817949,16.6656401,16.6948517,16.66496449,16.94588521,16.6948517,,,,,,,,,,,,,,,,,,,,PF,strong,3,,,,,,,,5,1.216515,,,,,,,,,,,,,,,,,,,,,,,,,,,,2,strong,87,-55,1,0,0,response3disk,8,115,-11,8,1,0,0,rectangle,-11,8,1,0,0,1,6,0.00143,-11,8,1,0,0,0,114,114,62,1,0,,,,,,,,,,,,,,,,,,,,,
,,,,,,,,,,,,,,,,,,,,,,,,,,,,,,,,,,,,,,,,,,5f07759f859dcb38b8d4c6b5,6068418d036f27812f552542,2021-04-03_13h21.20.106,Colour_Similarity_Experiment,2020.2.10,Win32,60,60674ec340277cd6a308bc9f,17.12817949,16.6656401,16.6948517,16.66496449,16.94588521,16.6948517,,,,,,,,,,,,,,,,,,,,PF,strong,3,,,,,,,,5,1.16557,,,,,,,,,,,,,,,,,,,,,,,,,,,,7,strong,84,-23,1,0,0,response3disk,8,116,-10,1,1,0,0,rectangle,-109,-34,1,0,0,1,2,2.266445,5,-1,1,0,0,0,115,115,97,1,1,response5disk_3,rectangle,,,,,,,,,,,,,,,,,,,
,,,,,,,,,,,,,,,,,,,,,,,,,,,,,,,,,,,,,,,,,,5f07759f859dcb38b8d4c6b5,6068418d036f27812f552542,2021-04-03_13h21.20.106,Colour_Similarity_Experiment,2020.2.10,Win32,60,60674ec340277cd6a308bc9f,17.12817949,16.6656401,16.6948517,16.66496449,16.94588521,16.6948517,,,,,,,,,,,,,,,,,,,,PF,strong,3,,,,,,,,5,1.10004,,,,,,,,,,,,,,,,,,,,,,,,,,,,6,strong,94,-49,1,0,0,response3disk,9,117,-13,4,1,0,0,rectangle,-39,120,1,0,0,0,0,1.98306,17,6,1,0,0,0,116,116,160,1,1,response7disk_3,rectangle,,,,,,,,,,,,,,,,,,,
,,,,,,,,,,,,,,,,,,,,,,,,,,,,,,,,,,,,,,,,,,5f07759f859dcb38b8d4c6b5,6068418d036f27812f552542,2021-04-03_13h21.20.106,Colour_Similarity_Experiment,2020.2.10,Win32,60,60674ec340277cd6a308bc9f,17.12817949,16.6656401,16.6948517,16.66496449,16.94588521,16.6948517,,,,,,,,,,,,,,,,,,,,PF,strong,3,,,,,,,,5,1.116435,,,,,,,,,,,,,,,,,,,,,,,,,,,,8,strong,80,-66,1,0,0,response3disk,1,118,24,-17,1,0,0,rectangle,24,-17,1,0,0,0,4,0.00169,24,-17,1,0,0,0,117,117,20,1,0,,,,,,,,,,,,,,,,,,,,,
,,,,,,,,,,,,,,,,,,,,,,,,,,,,,,,,,,,,,,,,,,5f07759f859dcb38b8d4c6b5,6068418d036f27812f552542,2021-04-03_13h21.20.106,Colour_Similarity_Experiment,2020.2.10,Win32,60,60674ec340277cd6a308bc9f,17.12817949,16.6656401,16.6948517,16.66496449,16.94588521,16.6948517,,,,,,,,,,,,,,,,,,,,PF,strong,3,,,,,,,,6,1.083375,,,,,,,,,,,,,,,,,,,,,,,,,,,,3,strong,102,50,1,0,0,response1disk,4,119,24,-11,1,0,0,rectangle,24,-11,1,0,0,0,5,0.001745,24,-11,1,0,0,0,118,118,110,1,0,,,,,,,,,,,,,,,,,,,,,
,,,,,,,,,,,,,,,,,,,,,,,,,,,,,,,,,,,,,,,,,,5f07759f859dcb38b8d4c6b5,6068418d036f27812f552542,2021-04-03_13h21.20.106,Colour_Similarity_Experiment,2020.2.10,Win32,60,60674ec340277cd6a308bc9f,17.12817949,16.6656401,16.6948517,16.66496449,16.94588521,16.6948517,,,,,,,,,,,,,,,,,,,,PF,weak,3,,,,,,,,0,1.666505,,,,,,,,,,,,,,,,,,,,,,,,,,,,8,weak,-29,98,1,0,0,response7disk,5,120,-4,9,1,0,0,rectangle,-4,9,1,0,0,0,4,0.00181,-4,9,1,0,0,0,119,119,98,1,0,,,,,,,,,,,,,,,,,,,,,
,,,,,,,,,,,,,,,,,,,,,,,,,,,,,,,,,,,,,,,,,,5f07759f859dcb38b8d4c6b5,6068418d036f27812f552542,2021-04-03_13h21.20.106,Colour_Similarity_Experiment,2020.2.10,Win32,60,60674ec340277cd6a308bc9f,17.12817949,16.6656401,16.6948517,16.66496449,16.94588521,16.6948517,,,,,,,,,,,,,,,,,,,,PF,weak,3,,,,,,,,7,1.20364,,,,,,,,,,,,,,,,,,,,,,,,,,,,6,weak,77,97,1,0,0,response1disk,6,121,20,-10,1,0,0,rectangle,20,-10,1,0,0,0,1,0.00176,20,-10,1,0,0,0,120,120,0,1,0,,,,,,,,,,,,,,,,,,,,,
,,,,,,,,,,,,,,,,,,,,,,,,,,,,,,,,,,,,,,,,,,5f07759f859dcb38b8d4c6b5,6068418d036f27812f552542,2021-04-03_13h21.20.106,Colour_Similarity_Experiment,2020.2.10,Win32,60,60674ec340277cd6a308bc9f,17.12817949,16.6656401,16.6948517,16.66496449,16.94588521,16.6948517,,,,,,,,,,,,,,,,,,,,PF,weak,3,,,,,,,,0,1.216515,,,,,,,,,,,,,,,,,,,,,,,,,,,,3,weak,-44,97,1,0,0,response7disk,1,122,-3,-1,1,0,0,rectangle,-3,-1,1,0,0,0,7,0.001525,-3,-1,1,0,0,0,121,121,96,1,0,,,,,,,,,,,,,,,,,,,,,
,,,,,,,,,,,,,,,,,,,,,,,,,,,,,,,,,,,,,,,,,,5f07759f859dcb38b8d4c6b5,6068418d036f27812f552542,2021-04-03_13h21.20.106,Colour_Similarity_Experiment,2020.2.10,Win32,60,60674ec340277cd6a308bc9f,17.12817949,16.6656401,16.6948517,16.66496449,16.94588521,16.6948517,,,,,,,,,,,,,,,,,,,,PF,weak,3,,,,,,,,7,1.1665,,,,,,,,,,,,,,,,,,,,,,,,,,,,4,weak,60,105,1,0,0,response1disk,4,123,25,-3,1,0,0,rectangle,25,-3,1,0,0,0,0,0.00192,25,-3,1,0,0,0,122,122,70,1,0,,,,,,,,,,,,,,,,,,,,,
,,,,,,,,,,,,,,,,,,,,,,,,,,,,,,,,,,,,,,,,,,5f07759f859dcb38b8d4c6b5,6068418d036f27812f552542,2021-04-03_13h21.20.106,Colour_Similarity_Experiment,2020.2.10,Win32,60,60674ec340277cd6a308bc9f,17.12817949,16.6656401,16.6948517,16.66496449,16.94588521,16.6948517,,,,,,,,,,,,,,,,,,,,PF,weak,3,,,,,,,,2,1.416605,,,,,,,,,,,,,,,,,,,,,,,,,,,,4,weak,-98,-48,1,0,0,response5disk,9,124,1,-2,1,0,0,rectangle,1,-2,1,0,0,0,7,0.001705,1,-2,1,0,0,0,123,123,75,1,0,,,,,,,,,,,,,,,,,,,,,
,,,,,,,,,,,,,,,,,,,,,,,,,,,,,,,,,,,,,,,,,,5f07759f859dcb38b8d4c6b5,6068418d036f27812f552542,2021-04-03_13h21.20.106,Colour_Similarity_Experiment,2020.2.10,Win32,60,60674ec340277cd6a308bc9f,17.12817949,16.6656401,16.6948517,16.66496449,16.94588521,16.6948517,,,,,,,,,,,,,,,,,,,,PF,strong,3,,,,,,,,6,1.43307,,,,,,,,,,,,,,,,,,,,,,,,,,,,4,strong,119,39,1,0,0,response1disk,4,125,39,-6,1,0,0,rectangle,39,-6,1,0,0,0,1,0.001595,39,-6,1,0,0,0,124,124,84,1,0,,,,,,,,,,,,,,,,,,,,,
,,,,,,,,,,,,,,,,,,,,,,,,,,,,,,,,,,,,,,,,,,5f07759f859dcb38b8d4c6b5,6068418d036f27812f552542,2021-04-03_13h21.20.106,Colour_Similarity_Experiment,2020.2.10,Win32,60,60674ec340277cd6a308bc9f,17.12817949,16.6656401,16.6948517,16.66496449,16.94588521,16.6948517,,,,,,,,,,,,,,,,,,,,PF,strong,3,,,,,,,,7,0.93323,,,,,,,,,,,,,,,,,,,,,,,,,,,,5,strong,57,99,1,0,0,response1disk,5,126,45,13,1,0,0,rectangle,45,13,1,0,0,0,3,0.001685,45,13,1,0,0,0,125,125,19,1,0,,,,,,,,,,,,,,,,,,,,,
,,,,,,,,,,,,,,,,,,,,,,,,,,,,,,,,,,,,,,,,,,5f07759f859dcb38b8d4c6b5,6068418d036f27812f552542,2021-04-03_13h21.20.106,Colour_Similarity_Experiment,2020.2.10,Win32,60,60674ec340277cd6a308bc9f,17.12817949,16.6656401,16.6948517,16.66496449,16.94588521,16.6948517,,,,,,,,,,,,,,,,,,,,PF,strong,3,,,,,,,,4,1.666715,,,,,,,,,,,,,,,,,,,,,,,,,,,,7,strong,51,-111,1,0,0,response3disk,1,127,15,-1,1,0,0,rectangle,15,-1,1,0,0,0,6,0.001585,15,-1,1,0,0,0,126,126,132,1,0,,,,,,,,,,,,,,,,,,,,,
,,,,,,,,,,,,,,,,,,,,,,,,,,,,,,,,,,,,,,,,,,5f07759f859dcb38b8d4c6b5,6068418d036f27812f552542,2021-04-03_13h21.20.106,Colour_Similarity_Experiment,2020.2.10,Win32,60,60674ec340277cd6a308bc9f,17.12817949,16.6656401,16.6948517,16.66496449,16.94588521,16.6948517,,,,,,,,,,,,,,,,,,,,PF,weak,3,,,,,,,,6,1.35004,,,,,,,,,,,,,,,,,,,,,,,,,,,,5,weak,107,37,1,0,0,response1disk,6,128,19,1,1,0,0,rectangle,19,1,1,0,0,0,5,0.00165,19,1,1,0,0,0,127,127,103,1,0,,,,,,,,,,,,,,,,,,,,,
,,,,,,,,,,,,,,,,,,,,,,,,,,,,,,,,,,,,,,,,,,5f07759f859dcb38b8d4c6b5,6068418d036f27812f552542,2021-04-03_13h21.20.106,Colour_Similarity_Experiment,2020.2.10,Win32,60,60674ec340277cd6a308bc9f,17.12817949,16.6656401,16.6948517,16.66496449,16.94588521,16.6948517,,,,,,,,,,,,,,,,,,,,PF,weak,3,,,,,,,,5,1.716465,,,,,,,,,,,,,,,,,,,,,,,,,,,,7,weak,105,-64,1,0,0,response3disk,5,129,33,-1,1,0,0,rectangle,33,-1,1,0,0,0,4,0.001645,33,-1,1,0,0,0,128,128,92,1,0,,,,,,,,,,,,,,,,,,,,,
,,,,,,,,,,,,,,,,,,,,,,,,,,,,,,,,,,,,,,,,,,5f07759f859dcb38b8d4c6b5,6068418d036f27812f552542,2021-04-03_13h21.20.106,Colour_Similarity_Experiment,2020.2.10,Win32,60,60674ec340277cd6a308bc9f,17.12817949,16.6656401,16.6948517,16.66496449,16.94588521,16.6948517,,,,,,,,,,,,,,,,,,,,PF,weak,3,,,,,,,,2,2.64986,,,,,,,,,,,,,,,,,,,,,,,,,,,,3,weak,-71,-51,1,0,0,response5disk,7,130,30,-2,1,0,0,rectangle,30,-2,1,0,0,0,7,0.001565,30,-2,1,0,0,0,129,129,41,1,0,,,,,,,,,,,,,,,,,,,,,
,,,,,,,,,,,,,,,,,,,,,,,,,,,,,,,,,,,,,,,,,,5f07759f859dcb38b8d4c6b5,6068418d036f27812f552542,2021-04-03_13h21.20.106,Colour_Similarity_Experiment,2020.2.10,Win32,60,60674ec340277cd6a308bc9f,17.12817949,16.6656401,16.6948517,16.66496449,16.94588521,16.6948517,,,,,,,,,,,,,,,,,,,,PF,weak,3,,,,,,,,5,1.04977,,,,,,,,,,,,,,,,,,,,,,,,,,,,5,weak,103,-38,1,0,0,response3disk,7,131,-3,15,1,0,0,rectangle,-3,15,1,0,0,0,1,0.002025,-3,15,1,0,0,0,130,130,146,1,0,,,,,,,,,,,,,,,,,,,,,
,,,,,,,,,,,,,,,,,,,,,,,,,,,,,,,,,,,,,,,,,,5f07759f859dcb38b8d4c6b5,6068418d036f27812f552542,2021-04-03_13h21.20.106,Colour_Similarity_Experiment,2020.2.10,Win32,60,60674ec340277cd6a308bc9f,17.12817949,16.6656401,16.6948517,16.66496449,16.94588521,16.6948517,,,,,,,,,,,,,,,,,,,,PF,strong,3,,,,,,,,6,0.81653,,,,,,,,,,,,,,,,,,,,,,,,,,,,5,strong,109,46,1,0,0,response1disk,7,132,19,-3,1,0,0,rectangle,19,-3,1,0,0,0,2,0.001835,19,-3,1,0,0,0,131,131,7,1,0,,,,,,,,,,,,,,,,,,,,,
,,,,,,,,,,,,,,,,,,,,,,,,,,,,,,,,,,,,,,,,,,5f07759f859dcb38b8d4c6b5,6068418d036f27812f552542,2021-04-03_13h21.20.106,Colour_Similarity_Experiment,2020.2.10,Win32,60,60674ec340277cd6a308bc9f,17.12817949,16.6656401,16.6948517,16.66496449,16.94588521,16.6948517,,,,,,,,,,,,,,,,,,,,PF,strong,3,,,,,,,,1,0.98508,,,,,,,,,,,,,,,,,,,,,,,,,,,,4,strong,-66,37,1,0,0,response7disk,1,133,9,-6,1,0,0,rectangle,9,-6,1,0,0,0,6,0.00166,9,-6,1,0,0,0,132,132,102,1,0,,,,,,,,,,,,,,,,,,,,,
,,,,,,,,,,,,,,,,,,,,,,,,,,,,,,,,,,,,,,,,,,5f07759f859dcb38b8d4c6b5,6068418d036f27812f552542,2021-04-03_13h21.20.106,Colour_Similarity_Experiment,2020.2.10,Win32,60,60674ec340277cd6a308bc9f,17.12817949,16.6656401,16.6948517,16.66496449,16.94588521,16.6948517,,,,,,,,,,,,,,,,,,,,PF,weak,3,,,,,,,,0,0.91645,,,,,,,,,,,,,,,,,,,,,,,,,,,,6,weak,-44,85,1,0,0,response7disk,2,134,-10,15,1,0,0,rectangle,-10,15,1,0,0,0,6,0.0001,-10,15,1,0,0,0,133,133,130,1,0,,,,,,,,,,,,,,,,,,,,,
,,,,,,,,,,,,,,,,,,,,,,,,,,,,,,,,,,,,,,,,,,5f07759f859dcb38b8d4c6b5,6068418d036f27812f552542,2021-04-03_13h21.20.106,Colour_Similarity_Experiment,2020.2.10,Win32,60,60674ec340277cd6a308bc9f,17.12817949,16.6656401,16.6948517,16.66496449,16.94588521,16.6948517,,,,,,,,,,,,,,,,,,,,PF,strong,3,,,,,,,,4,1.49957,,,,,,,,,,,,,,,,,,,,,,,,,,,,4,strong,43,-106,1,0,0,response3disk,8,135,19,0,1,0,0,rectangle,19,0,1,0,0,0,6,9.49998E-05,19,0,1,0,0,0,134,134,35,1,0,,,,,,,,,,,,,,,,,,,,,
,,,,,,,,,,,,,,,,,,,,,,,,,,,,,,,,,,,,,,,,,,5f07759f859dcb38b8d4c6b5,6068418d036f27812f552542,2021-04-03_13h21.20.106,Colour_Similarity_Experiment,2020.2.10,Win32,60,60674ec340277cd6a308bc9f,17.12817949,16.6656401,16.6948517,16.66496449,16.94588521,16.6948517,,,,,,,,,,,,,,,,,,,,PF,weak,3,,,,,,,,5,1.766535,,,,,,,,,,,,,,,,,,,,,,,,,,,,2,weak,95,-35,1,0,0,response3disk,1,136,17,6,1,0,0,rectangle,17,6,1,0,0,0,1,0.00178,17,6,1,0,0,0,135,135,9,1,0,,,,,,,,,,,,,,,,,,,,,
,,,,,,,,,,,,,,,,,,,,,,,,,,,,,,,,,,,,,,,,,,5f07759f859dcb38b8d4c6b5,6068418d036f27812f552542,2021-04-03_13h21.20.106,Colour_Similarity_Experiment,2020.2.10,Win32,60,60674ec340277cd6a308bc9f,17.12817949,16.6656401,16.6948517,16.66496449,16.94588521,16.6948517,,,,,,,,,,,,,,,,,,,,PF,weak,3,,,,,,,,1,1.14998,,,,,,,,,,,,,,,,,,,,,,,,,,,,9,weak,-91,49,1,0,0,response7disk,7,137,16,-9,1,0,0,rectangle,16,-9,1,0,0,0,1,0.0001,16,-9,1,0,0,0,136,136,121,1,0,,,,,,,,,,,,,,,,,,,,,
,,,,,,,,,,,,,,,,,,,,,,,,,,,,,,,,,,,,,,,,,,5f07759f859dcb38b8d4c6b5,6068418d036f27812f552542,2021-04-03_13h21.20.106,Colour_Similarity_Experiment,2020.2.10,Win32,60,60674ec340277cd6a308bc9f,17.12817949,16.6656401,16.6948517,16.66496449,16.94588521,16.6948517,,,,,,,,,,,,,,,,,,,,PF,strong,3,,,,,,,,0,1.416505,,,,,,,,,,,,,,,,,,,,,,,,,,,,8,strong,-46,79,1,0,0,response7disk,6,138,-16,8,1,0,0,rectangle,-16,8,1,0,0,0,3,0.001955,-16,8,1,0,0,0,137,137,37,1,0,,,,,,,,,,,,,,,,,,,,,
,,,,,,,,,,,,,,,,,,,,,,,,,,,,,,,,,,,,,,,,,,5f07759f859dcb38b8d4c6b5,6068418d036f27812f552542,2021-04-03_13h21.20.106,Colour_Similarity_Experiment,2020.2.10,Win32,60,60674ec340277cd6a308bc9f,17.12817949,16.6656401,16.6948517,16.66496449,16.94588521,16.6948517,,,,,,,,,,,,,,,,,,,,PF,weak,3,,,,,,,,5,1.382935,,,,,,,,,,,,,,,,,,,,,,,,,,,,5,weak,85,-34,1,0,0,response3disk,3,139,25,2,1,0,0,rectangle,25,2,1,0,0,0,5,0.00146,25,2,1,0,0,0,138,138,109,1,0,,,,,,,,,,,,,,,,,,,,,
,,,,,,,,,,,,,,,,,,,,,,,,,,,,,,,,,,,,,,,,,,5f07759f859dcb38b8d4c6b5,6068418d036f27812f552542,2021-04-03_13h21.20.106,Colour_Similarity_Experiment,2020.2.10,Win32,60,60674ec340277cd6a308bc9f,17.12817949,16.6656401,16.6948517,16.66496449,16.94588521,16.6948517,,,,,,,,,,,,,,,,,,,,PF,weak,3,,,,,,,,1,1.716435,,,,,,,,,,,,,,,,,,,,,,,,,,,,2,weak,-93,53,1,0,0,response7disk,4,140,-9,-12,1,0,0,rectangle,-9,-12,1,0,0,0,2,0.00171,-9,-12,1,0,0,0,139,139,127,1,0,,,,,,,,,,,,,,,,,,,,,
,,,,,,,,,,,,,,,,,,,,,,,,,,,,,,,,,,,,,,,,,,5f07759f859dcb38b8d4c6b5,6068418d036f27812f552542,2021-04-03_13h21.20.106,Colour_Similarity_Experiment,2020.2.10,Win32,60,60674ec340277cd6a308bc9f,17.12817949,16.6656401,16.6948517,16.66496449,16.94588521,16.6948517,,,,,,,,,,,,,,,,,,,,PF,weak,3,,,,,,,,6,1.416525,,,,,,,,,,,,,,,,,,,,,,,,,,,,9,weak,101,29,1,0,0,response1disk,2,141,37,-3,1,0,0,rectangle,37,-3,1,0,0,0,2,0.000185,37,-3,1,0,0,0,140,140,157,1,0,,,,,,,,,,,,,,,,,,,,,
,,,,,,,,,,,,,,,,,,,,,,,,,,,,,,,,,,,,,,,,,,5f07759f859dcb38b8d4c6b5,6068418d036f27812f552542,2021-04-03_13h21.20.106,Colour_Similarity_Experiment,2020.2.10,Win32,60,60674ec340277cd6a308bc9f,17.12817949,16.6656401,16.6948517,16.66496449,16.94588521,16.6948517,,,,,,,,,,,,,,,,,,,,PF,strong,3,,,,,,,,5,1.54993,,,,,,,,,,,,,,,,,,,,,,,,,,,,9,strong,98,-67,1,0,0,response3disk,3,142,10,-10,1,0,0,rectangle,10,-10,1,0,0,0,4,0.001665,10,-10,1,0,0,0,141,141,141,1,0,,,,,,,,,,,,,,,,,,,,,
,,,,,,,,,,,,,,,,,,,,,,,,,,,,,,,,,,,,,,,,,,5f07759f859dcb38b8d4c6b5,6068418d036f27812f552542,2021-04-03_13h21.20.106,Colour_Similarity_Experiment,2020.2.10,Win32,60,60674ec340277cd6a308bc9f,17.12817949,16.6656401,16.6948517,16.66496449,16.94588521,16.6948517,,,,,,,,,,,,,,,,,,,,PF,weak,3,,,,,,,,0,1.29988,,,,,,,,,,,,,,,,,,,,,,,,,,,,7,weak,-36,95,1,0,0,response7disk,2,143,-4,-12,1,0,0,rectangle,-4,-12,1,0,0,0,4,0.000215,-4,-12,1,0,0,0,142,142,32,1,0,,,,,,,,,,,,,,,,,,,,,
,,,,,,,,,,,,,,,,,,,,,,,,,,,,,,,,,,,,,,,,,,5f07759f859dcb38b8d4c6b5,6068418d036f27812f552542,2021-04-03_13h21.20.106,Colour_Similarity_Experiment,2020.2.10,Win32,60,60674ec340277cd6a308bc9f,17.12817949,16.6656401,16.6948517,16.66496449,16.94588521,16.6948517,,,,,,,,,,,,,,,,,,,,PF,weak,3,,,,,,,,0,1.316535,,,,,,,,,,,,,,,,,,,,,,,,,,,,4,weak,-43,78,1,0,0,response7disk,2,144,11,2,1,0,0,rectangle,11,2,1,0,0,0,4,0.0001,11,2,1,0,0,0,143,143,108,1,0,,,,,,,,,,,,,,,,,,,,,
,,,,,,,,,,,,,,,,,,,,,,,,,,,,,,,,,,,,,,,,,,5f07759f859dcb38b8d4c6b5,6068418d036f27812f552542,2021-04-03_13h21.20.106,Colour_Similarity_Experiment,2020.2.10,Win32,60,60674ec340277cd6a308bc9f,17.12817949,16.6656401,16.6948517,16.66496449,16.94588521,16.6948517,,,,,,,,,,,,,,,,,,,,PF,weak,3,,,,,,,,1,1.38322,,,,,,,,,,,,,,,,,,,,,,,,,,,,6,weak,-93,48,1,0,0,response7disk,4,145,46,-16,1,0,0,rectangle,46,-16,1,0,0,0,4,0.00015,46,-16,1,0,0,0,144,144,33,1,0,,,,,,,,,,,,,,,,,,,,,
,,,,,,,,,,,,,,,,,,,,,,,,,,,,,,,,,,,,,,,,,,5f07759f859dcb38b8d4c6b5,6068418d036f27812f552542,2021-04-03_13h21.20.106,Colour_Similarity_Experiment,2020.2.10,Win32,60,60674ec340277cd6a308bc9f,17.12817949,16.6656401,16.6948517,16.66496449,16.94588521,16.6948517,,,,,,,,,,,,,,,,,,,,PF,weak,3,,,,,,,,4,1.76582,,,,,,,,,,,,,,,,,,,,,,,,,,,,4,weak,45,-102,1,0,0,response3disk,5,146,27,-4,1,0,0,rectangle,27,-4,1,0,0,0,5,0.00127,27,-4,1,0,0,0,145,145,49,1,0,,,,,,,,,,,,,,,,,,,,,
,,,,,,,,,,,,,,,,,,,,,,,,,,,,,,,,,,,,,,,,,,5f07759f859dcb38b8d4c6b5,6068418d036f27812f552542,2021-04-03_13h21.20.106,Colour_Similarity_Experiment,2020.2.10,Win32,60,60674ec340277cd6a308bc9f,17.12817949,16.6656401,16.6948517,16.66496449,16.94588521,16.6948517,,,,,,,,,,,,,,,,,,,,PF,weak,3,,,,,,,,3,1.699995,,,,,,,,,,,,,,,,,,,,,,,,,,,,3,weak,-46,-98,1,0,0,response5disk,9,147,17,-7,1,0,0,rectangle,17,-7,1,0,0,0,2,0.00104,17,-7,1,0,0,0,146,146,79,1,0,,,,,,,,,,,,,,,,,,,,,
,,,,,,,,,,,,,,,,,,,,,,,,,,,,,,,,,,,,,,,,,,5f07759f859dcb38b8d4c6b5,6068418d036f27812f552542,2021-04-03_13h21.20.106,Colour_Similarity_Experiment,2020.2.10,Win32,60,60674ec340277cd6a308bc9f,17.12817949,16.6656401,16.6948517,16.66496449,16.94588521,16.6948517,,,,,,,,,,,,,,,,,,,,PF,strong,3,,,,,,,,5,1.09823,,,,,,,,,,,,,,,,,,,,,,,,,,,,2,strong,97,-45,1,0,0,response3disk,9,148,26,4,1,0,0,rectangle,26,4,1,0,0,0,7,0.000675,26,4,1,0,0,0,147,147,72,1,0,,,,,,,,,,,,,,,,,,,,,
,,,,,,,,,,,,,,,,,,,,,,,,,,,,,,,,,,,,,,,,,,5f07759f859dcb38b8d4c6b5,6068418d036f27812f552542,2021-04-03_13h21.20.106,Colour_Similarity_Experiment,2020.2.10,Win32,60,60674ec340277cd6a308bc9f,17.12817949,16.6656401,16.6948517,16.66496449,16.94588521,16.6948517,,,,,,,,,,,,,,,,,,,,PF,strong,3,,,,,,,,4,1.429375,,,,,,,,,,,,,,,,,,,,,,,,,,,,1,strong,46,-112,1,0,0,response3disk,9,149,12,-12,1,0,0,rectangle,12,-12,1,0,0,0,1,0.00164,12,-12,1,0,0,0,148,148,123,1,0,,,,,,,,,,,,,,,,,,,,,
,,,,,,,,,,,,,,,,,,,,,,,,,,,,,,,,,,,,,,,,,,5f07759f859dcb38b8d4c6b5,6068418d036f27812f552542,2021-04-03_13h21.20.106,Colour_Similarity_Experiment,2020.2.10,Win32,60,60674ec340277cd6a308bc9f,17.12817949,16.6656401,16.6948517,16.66496449,16.94588521,16.6948517,,,,,,,,,,,,,,,,,,,,PF,strong,3,,,,,,,,3,1.60075,,,,,,,,,,,,,,,,,,,,,,,,,,,,9,strong,-42,-100,1,0,0,response5disk,2,150,30,-7,1,0,0,rectangle,-41,122,1,0,0,0,0,1.88435,4,9,1,0,0,0,149,149,11,1,1,response7disk_3,rectangle,,,,,,,,,,,,,,,,,,,
,,,,,,,,,,,,,,,,,,,,,,,,,,,,,,,,,,,,,,,,,,5f07759f859dcb38b8d4c6b5,6068418d036f27812f552542,2021-04-03_13h21.20.106,Colour_Similarity_Experiment,2020.2.10,Win32,60,60674ec340277cd6a308bc9f,17.12817949,16.6656401,16.6948517,16.66496449,16.94588521,16.6948517,,,,,,,,,,,,,,,,,,,,PF,strong,3,,,,,,,,6,0.94581,,,,,,,,,,,,,,,,,,,,,,,,,,,,5,strong,75,44,1,0,0,response1disk,6,151,21,3,1,0,0,rectangle,21,3,1,0,0,0,5,0.00092,21,3,1,0,0,0,150,150,12,1,0,,,,,,,,,,,,,,,,,,,,,
,,,,,,,,,,,,,,,,,,,,,,,,,,,,,,,,,,,,,,,,,,5f07759f859dcb38b8d4c6b5,6068418d036f27812f552542,2021-04-03_13h21.20.106,Colour_Similarity_Experiment,2020.2.10,Win32,60,60674ec340277cd6a308bc9f,17.12817949,16.6656401,16.6948517,16.66496449,16.94588521,16.6948517,,,,,,,,,,,,,,,,,,,,PF,weak,3,,,,,,,,2,1.761885,,,,,,,,,,,,,,,,,,,,,,,,,,,,1,weak,-92,-57,1,0,0,response5disk,4,152,0,-15,1,0,0,rectangle,0,-15,1,0,0,0,3,0.00139,0,-15,1,0,0,0,151,151,139,1,0,,,,,,,,,,,,,,,,,,,,,
,,,,,,,,,,,,,,,,,,,,,,,,,,,,,,,,,,,,,,,,,,5f07759f859dcb38b8d4c6b5,6068418d036f27812f552542,2021-04-03_13h21.20.106,Colour_Similarity_Experiment,2020.2.10,Win32,60,60674ec340277cd6a308bc9f,17.12817949,16.6656401,16.6948517,16.66496449,16.94588521,16.6948517,,,,,,,,,,,,,,,,,,,,PF,strong,3,,,,,,,,2,2.099845,,,,,,,,,,,,,,,,,,,,,,,,,,,,2,strong,-116,-43,1,0,0,response5disk,7,153,41,8,1,0,0,rectangle,41,8,1,0,0,0,0,0.00213,41,8,1,0,0,0,152,152,63,1,0,,,,,,,,,,,,,,,,,,,,,
,,,,,,,,,,,,,,,,,,,,,,,,,,,,,,,,,,,,,,,,,,5f07759f859dcb38b8d4c6b5,6068418d036f27812f552542,2021-04-03_13h21.20.106,Colour_Similarity_Experiment,2020.2.10,Win32,60,60674ec340277cd6a308bc9f,17.12817949,16.6656401,16.6948517,16.66496449,16.94588521,16.6948517,,,,,,,,,,,,,,,,,,,,PF,weak,3,,,,,,,,1,1.54974,,,,,,,,,,,,,,,,,,,,,,,,,,,,5,weak,-80,41,1,0,0,response7disk,8,154,14,3,1,0,0,rectangle,14,3,1,0,0,0,1,0.00332,14,3,1,0,0,0,153,153,149,1,0,,,,,,,,,,,,,,,,,,,,,
,,,,,,,,,,,,,,,,,,,,,,,,,,,,,,,,,,,,,,,,,,5f07759f859dcb38b8d4c6b5,6068418d036f27812f552542,2021-04-03_13h21.20.106,Colour_Similarity_Experiment,2020.2.10,Win32,60,60674ec340277cd6a308bc9f,17.12817949,16.6656401,16.6948517,16.66496449,16.94588521,16.6948517,,,,,,,,,,,,,,,,,,,,PF,weak,3,,,,,,,,1,1.383015,,,,,,,,,,,,,,,,,,,,,,,,,,,,8,weak,-91,43,1,0,0,response7disk,3,155,-23,-8,1,0,0,rectangle,-23,-8,1,0,0,0,3,0.00208,-23,-8,1,0,0,0,154,154,71,1,0,,,,,,,,,,,,,,,,,,,,,
,,,,,,,,,,,,,,,,,,,,,,,,,,,,,,,,,,,,,,,,,,5f07759f859dcb38b8d4c6b5,6068418d036f27812f552542,2021-04-03_13h21.20.106,Colour_Similarity_Experiment,2020.2.10,Win32,60,60674ec340277cd6a308bc9f,17.12817949,16.6656401,16.6948517,16.66496449,16.94588521,16.6948517,,,,,,,,,,,,,,,,,,,,PF,strong,3,,,,,,,,0,1.39987,,,,,,,,,,,,,,,,,,,,,,,,,,,,7,strong,-37,101,1,0,0,response7disk,2,156,-8,-5,1,0,0,rectangle,-8,-5,1,0,0,0,6,0.002035,-8,-5,1,0,0,0,155,155,138,1,0,,,,,,,,,,,,,,,,,,,,,
,,,,,,,,,,,,,,,,,,,,,,,,,,,,,,,,,,,,,,,,,,5f07759f859dcb38b8d4c6b5,6068418d036f27812f552542,2021-04-03_13h21.20.106,Colour_Similarity_Experiment,2020.2.10,Win32,60,60674ec340277cd6a308bc9f,17.12817949,16.6656401,16.6948517,16.66496449,16.94588521,16.6948517,,,,,,,,,,,,,,,,,,,,PF,strong,3,,,,,,,,3,1.199745,,,,,,,,,,,,,,,,,,,,,,,,,,,,1,strong,-30,-115,1,0,0,response5disk,3,157,14,-1,1,0,0,rectangle,14,-1,1,0,0,0,3,0.001695,14,-1,1,0,0,0,156,156,99,1,0,,,,,,,,,,,,,,,,,,,,,
,,,,,,,,,,,,,,,,,,,,,,,,,,,,,,,,,,,,,,,,,,5f07759f859dcb38b8d4c6b5,6068418d036f27812f552542,2021-04-03_13h21.20.106,Colour_Similarity_Experiment,2020.2.10,Win32,60,60674ec340277cd6a308bc9f,17.12817949,16.6656401,16.6948517,16.66496449,16.94588521,16.6948517,,,,,,,,,,,,,,,,,,,,PF,weak,3,,,,,,,,7,1.18283,,,,,,,,,,,,,,,,,,,,,,,,,,,,1,weak,69,103,1,0,0,response1disk,1,158,25,8,1,0,0,rectangle,-111,-39,1,0,0,0,2,1.9998,-25,-4,1,0,0,0,157,157,76,1,1,response5disk_3,rectangle,,,,,,,,,,,,,,,,,,,
,,,,,,,,,,,,,,,,,,,,,,,,,,,,,,,,,,,,,,,,,,5f07759f859dcb38b8d4c6b5,6068418d036f27812f552542,2021-04-03_13h21.20.106,Colour_Similarity_Experiment,2020.2.10,Win32,60,60674ec340277cd6a308bc9f,17.12817949,16.6656401,16.6948517,16.66496449,16.94588521,16.6948517,,,,,,,,,,,,,,,,,,,,PF,weak,3,,,,,,,,0,1.19984,,,,,,,,,,,,,,,,,,,,,,,,,,,,8,weak,-41,79,1,0,0,response7disk,6,159,-13,4,1,0,0,rectangle,-38,115,1,0,0,0,0,2.316125,16,-9,1,0,0,0,158,158,161,1,1,response7disk_3,rectangle,,,,,,,,,,,,,,,,,,,
,,,,,,,,,,,,,,,,,,,,,,,,,,,,,,,,,,,,,,,,,,5f07759f859dcb38b8d4c6b5,6068418d036f27812f552542,2021-04-03_13h21.20.106,Colour_Similarity_Experiment,2020.2.10,Win32,60,60674ec340277cd6a308bc9f,17.12817949,16.6656401,16.6948517,16.66496449,16.94588521,16.6948517,,,,,,,,,,,,,,,,,,,,PF,weak,3,,,,,,,,7,1.016425,,,,,,,,,,,,,,,,,,,,,,,,,,,,5,weak,46,111,1,0,0,response1disk,5,160,44,15,1,0,0,rectangle,44,15,1,0,0,0,7,0.001635,44,15,1,0,0,0,159,159,94,1,0,,,,,,,,,,,,,,,,,,,,,
,,,,,,,,,,,,,,,,,,,,,,,,,,,,,,,,,,,,,,,,,,5f07759f859dcb38b8d4c6b5,6068418d036f27812f552542,2021-04-03_13h21.20.106,Colour_Similarity_Experiment,2020.2.10,Win32,60,60674ec340277cd6a308bc9f,17.12817949,16.6656401,16.6948517,16.66496449,16.94588521,16.6948517,,,,,,,,,,,,,,,,,,,,PF,weak,3,,,,,,,,3,1.11651,,,,,,,,,,,,,,,,,,,,,,,,,,,,9,weak,-48,-90,1,0,0,response5disk,1,161,18,0,1,0,0,rectangle,18,0,1,0,0,0,0,0.001585,18,0,1,0,0,0,160,160,74,1,0,,,,,,,,,,,,,,,,,,,,,
,,,,,,,,,,,,,,,,,,,,,,,,,,,,,,,,,,,,,,,,,,5f07759f859dcb38b8d4c6b5,6068418d036f27812f552542,2021-04-03_13h21.20.106,Colour_Similarity_Experiment,2020.2.10,Win32,60,60674ec340277cd6a308bc9f,17.12817949,16.6656401,16.6948517,16.66496449,16.94588521,16.6948517,,,,,,,,,,,,,,,,,,,,PF,weak,3,,,,,,,,7,0.933385,,,,,,,,,,,,,,,,,,,,,,,,,,,,4,weak,53,93,1,0,0,response1disk,3,162,47,-16,1,0,0,rectangle,47,-16,1,0,0,0,2,0.001775,47,-16,1,0,0,0,161,161,89,1,0,,,,,,,,,,,,,,,,,,,,,
,,,,,,,,,,,,,,,,,,,,,,,,,,,,,,,,,,,,,,,,,,5f07759f859dcb38b8d4c6b5,6068418d036f27812f552542,2021-04-03_13h21.20.106,Colour_Similarity_Experiment,2020.2.10,Win32,60,60674ec340277cd6a308bc9f,17.12817949,16.6656401,16.6948517,16.66496449,16.94588521,16.6948517,,,,,,,,,,,,,,,,,,,,,,,,,,,,,,,,,,,,,,,,,,,,,,,,,,,,,,,,,,,,,,,,,,,,,,,,,,,,,,,,,,,,,,,,,,,,,,,,0,0,0,0,1,,,,,,,,,,,,,,
,,,,,,,,,,,,,,,,,,,,,,,,,,,,,,,,,,,,,,,,,,5f07759f859dcb38b8d4c6b5,6068418d036f27812f552542,2021-04-03_13h21.20.106,Colour_Similarity_Experiment,2020.2.10,Win32,60,60674ec340277cd6a308bc9f,17.12817949,16.6656401,16.6948517,16.66496449,16.94588521,16.6948517,,,,,,,,,,,,,,,,,,,,PF,strong,3,,,,,,,,1,1.1489,,,,,,,,,,,,,,,,,,,,,,,,,,,,8,strong,-94,48,1,0,0,response7disk,7,163,33,-6,1,0,0,rectangle,33,-6,1,0,0,0,6,0.001565,33,-6,1,0,0,0,0,0,86,1,0,,,,,,,,,,,,,,,,,,,,,
,,,,,,,,,,,,,,,,,,,,,,,,,,,,,,,,,,,,,,,,,,5f07759f859dcb38b8d4c6b5,6068418d036f27812f552542,2021-04-03_13h21.20.106,Colour_Similarity_Experiment,2020.2.10,Win32,60,60674ec340277cd6a308bc9f,17.12817949,16.6656401,16.6948517,16.66496449,16.94588521,16.6948517,,,,,,,,,,,,,,,,,,,,PF,weak,3,,,,,,,,5,1.166245,,,,,,,,,,,,,,,,,,,,,,,,,,,,7,weak,104,-54,1,0,0,response3disk,6,164,-13,-2,1,0,0,rectangle,-13,-2,1,0,0,0,6,0.000215,-13,-2,1,0,0,0,1,1,29,1,0,,,,,,,,,,,,,,,,,,,,,
,,,,,,,,,,,,,,,,,,,,,,,,,,,,,,,,,,,,,,,,,,5f07759f859dcb38b8d4c6b5,6068418d036f27812f552542,2021-04-03_13h21.20.106,Colour_Similarity_Experiment,2020.2.10,Win32,60,60674ec340277cd6a308bc9f,17.12817949,16.6656401,16.6948517,16.66496449,16.94588521,16.6948517,,,,,,,,,,,,,,,,,,,,PF,strong,3,,,,,,,,4,1.16681,,,,,,,,,,,,,,,,,,,,,,,,,,,,9,strong,49,-97,1,0,0,response3disk,8,165,16,-10,1,0,0,rectangle,16,-10,1,0,0,0,1,0.00187,16,-10,1,0,0,0,2,2,6,1,0,,,,,,,,,,,,,,,,,,,,,
,,,,,,,,,,,,,,,,,,,,,,,,,,,,,,,,,,,,,,,,,,5f07759f859dcb38b8d4c6b5,6068418d036f27812f552542,2021-04-03_13h21.20.106,Colour_Similarity_Experiment,2020.2.10,Win32,60,60674ec340277cd6a308bc9f,17.12817949,16.6656401,16.6948517,16.66496449,16.94588521,16.6948517,,,,,,,,,,,,,,,,,,,,PF,strong,3,,,,,,,,3,1.161975,,,,,,,,,,,,,,,,,,,,,,,,,,,,6,strong,-43,-101,1,0,0,response5disk,3,166,6,1,1,0,0,rectangle,6,1,1,0,0,0,0,0.001305,6,1,1,0,0,0,3,3,21,1,0,,,,,,,,,,,,,,,,,,,,,
,,,,,,,,,,,,,,,,,,,,,,,,,,,,,,,,,,,,,,,,,,5f07759f859dcb38b8d4c6b5,6068418d036f27812f552542,2021-04-03_13h21.20.106,Colour_Similarity_Experiment,2020.2.10,Win32,60,60674ec340277cd6a308bc9f,17.12817949,16.6656401,16.6948517,16.66496449,16.94588521,16.6948517,,,,,,,,,,,,,,,,,,,,PF,weak,3,,,,,,,,6,1.099815,,,,,,,,,,,,,,,,,,,,,,,,,,,,6,weak,89,44,1,0,0,response1disk,7,167,23,7,1,0,0,rectangle,23,7,1,0,0,0,5,0.00093,23,7,1,0,0,0,4,4,50,1,0,,,,,,,,,,,,,,,,,,,,,
,,,,,,,,,,,,,,,,,,,,,,,,,,,,,,,,,,,,,,,,,,5f07759f859dcb38b8d4c6b5,6068418d036f27812f552542,2021-04-03_13h21.20.106,Colour_Similarity_Experiment,2020.2.10,Win32,60,60674ec340277cd6a308bc9f,17.12817949,16.6656401,16.6948517,16.66496449,16.94588521,16.6948517,,,,,,,,,,,,,,,,,,,,PF,weak,3,,,,,,,,5,1.18342,,,,,,,,,,,,,,,,,,,,,,,,,,,,9,weak,97,-44,1,0,0,response3disk,8,168,-4,17,1,0,0,rectangle,-4,17,1,0,0,0,5,8.00001E-05,-4,17,1,0,0,0,5,5,67,1,0,,,,,,,,,,,,,,,,,,,,,
,,,,,,,,,,,,,,,,,,,,,,,,,,,,,,,,,,,,,,,,,,5f07759f859dcb38b8d4c6b5,6068418d036f27812f552542,2021-04-03_13h21.20.106,Colour_Similarity_Experiment,2020.2.10,Win32,60,60674ec340277cd6a308bc9f,17.12817949,16.6656401,16.6948517,16.66496449,16.94588521,16.6948517,,,,,,,,,,,,,,,,,,,,PF,weak,3,,,,,,,,1,0.94981,,,,,,,,,,,,,,,,,,,,,,,,,,,,6,weak,-102,55,1,0,0,response7disk,8,169,-25,8,1,0,0,rectangle,-25,8,1,0,0,0,5,0.0001,-25,8,1,0,0,0,6,6,64,1,0,,,,,,,,,,,,,,,,,,,,,
,,,,,,,,,,,,,,,,,,,,,,,,,,,,,,,,,,,,,,,,,,5f07759f859dcb38b8d4c6b5,6068418d036f27812f552542,2021-04-03_13h21.20.106,Colour_Similarity_Experiment,2020.2.10,Win32,60,60674ec340277cd6a308bc9f,17.12817949,16.6656401,16.6948517,16.66496449,16.94588521,16.6948517,,,,,,,,,,,,,,,,,,,,PF,strong,3,,,,,,,,0,1.33346,,,,,,,,,,,,,,,,,,,,,,,,,,,,6,strong,-64,109,1,0,0,response7disk,1,170,18,11,1,0,0,rectangle,18,11,1,0,0,0,5,0.00014,18,11,1,0,0,0,7,7,5,1,0,,,,,,,,,,,,,,,,,,,,,
,,,,,,,,,,,,,,,,,,,,,,,,,,,,,,,,,,,,,,,,,,5f07759f859dcb38b8d4c6b5,6068418d036f27812f552542,2021-04-03_13h21.20.106,Colour_Similarity_Experiment,2020.2.10,Win32,60,60674ec340277cd6a308bc9f,17.12817949,16.6656401,16.6948517,16.66496449,16.94588521,16.6948517,,,,,,,,,,,,,,,,,,,,PF,weak,3,,,,,,,,0,0.899975,,,,,,,,,,,,,,,,,,,,,,,,,,,,5,weak,-50,99,1,0,0,response7disk,9,171,18,4,1,0,0,rectangle,48,131,1,0,0,7,7,1.716555,-3,1,1,0,0,0,8,8,136,1,1,response1disk_3,rectangle,,,,,,,,,,,,,,,,,,,
,,,,,,,,,,,,,,,,,,,,,,,,,,,,,,,,,,,,,,,,,,5f07759f859dcb38b8d4c6b5,6068418d036f27812f552542,2021-04-03_13h21.20.106,Colour_Similarity_Experiment,2020.2.10,Win32,60,60674ec340277cd6a308bc9f,17.12817949,16.6656401,16.6948517,16.66496449,16.94588521,16.6948517,,,,,,,,,,,,,,,,,,,,PF,strong,3,,,,,,,,5,0.949935,,,,,,,,,,,,,,,,,,,,,,,,,,,,5,strong,92,-50,1,0,0,response3disk,8,172,11,-5,1,0,0,rectangle,11,-5,1,0,0,7,2,0.001105,11,-5,1,0,0,0,9,9,16,1,0,,,,,,,,,,,,,,,,,,,,,
,,,,,,,,,,,,,,,,,,,,,,,,,,,,,,,,,,,,,,,,,,5f07759f859dcb38b8d4c6b5,6068418d036f27812f552542,2021-04-03_13h21.20.106,Colour_Similarity_Experiment,2020.2.10,Win32,60,60674ec340277cd6a308bc9f,17.12817949,16.6656401,16.6948517,16.66496449,16.94588521,16.6948517,,,,,,,,,,,,,,,,,,,,PF,strong,3,,,,,,,,6,1.183335,,,,,,,,,,,,,,,,,,,,,,,,,,,,8,strong,80,50,1,0,0,response1disk,2,173,21,6,1,0,0,rectangle,21,6,1,0,0,7,2,0.0001,21,6,1,0,0,0,10,10,22,1,0,,,,,,,,,,,,,,,,,,,,,
,,,,,,,,,,,,,,,,,,,,,,,,,,,,,,,,,,,,,,,,,,5f07759f859dcb38b8d4c6b5,6068418d036f27812f552542,2021-04-03_13h21.20.106,Colour_Similarity_Experiment,2020.2.10,Win32,60,60674ec340277cd6a308bc9f,17.12817949,16.6656401,16.6948517,16.66496449,16.94588521,16.6948517,,,,,,,,,,,,,,,,,,,,PF,strong,3,,,,,,,,0,2.178795,,,,,,,,,,,,,,,,,,,,,,,,,,,,5,strong,-48,111,1,0,0,response7disk,2,174,7,18,1,0,0,rectangle,-109,31,1,0,0,1,1,1.683135,5,-16,1,0,0,0,11,11,55,1,1,response7disk_3,rectangle,,,,,,,,,,,,,,,,,,,
,,,,,,,,,,,,,,,,,,,,,,,,,,,,,,,,,,,,,,,,,,5f07759f859dcb38b8d4c6b5,6068418d036f27812f552542,2021-04-03_13h21.20.106,Colour_Similarity_Experiment,2020.2.10,Win32,60,60674ec340277cd6a308bc9f,17.12817949,16.6656401,16.6948517,16.66496449,16.94588521,16.6948517,,,,,,,,,,,,,,,,,,,,PF,strong,3,,,,,,,,5,1.26655,,,,,,,,,,,,,,,,,,,,,,,,,,,,6,strong,93,-48,1,0,0,response3disk,8,175,1,8,1,0,0,rectangle,1,8,1,0,0,1,0,0.002385,1,8,1,0,0,0,12,12,133,1,0,,,,,,,,,,,,,,,,,,,,,
,,,,,,,,,,,,,,,,,,,,,,,,,,,,,,,,,,,,,,,,,,5f07759f859dcb38b8d4c6b5,6068418d036f27812f552542,2021-04-03_13h21.20.106,Colour_Similarity_Experiment,2020.2.10,Win32,60,60674ec340277cd6a308bc9f,17.12817949,16.6656401,16.6948517,16.66496449,16.94588521,16.6948517,,,,,,,,,,,,,,,,,,,,PF,strong,3,,,,,,,,0,2.25003,,,,,,,,,,,,,,,,,,,,,,,,,,,,5,strong,-86,113,1,0,0,response7disk,3,176,-42,6,1,0,0,rectangle,-42,6,1,0,0,1,3,0.00151,-42,6,1,0,0,0,13,13,25,1,0,,,,,,,,,,,,,,,,,,,,,
,,,,,,,,,,,,,,,,,,,,,,,,,,,,,,,,,,,,,,,,,,5f07759f859dcb38b8d4c6b5,6068418d036f27812f552542,2021-04-03_13h21.20.106,Colour_Similarity_Experiment,2020.2.10,Win32,60,60674ec340277cd6a308bc9f,17.12817949,16.6656401,16.6948517,16.66496449,16.94588521,16.6948517,,,,,,,,,,,,,,,,,,,,PF,weak,3,,,,,,,,4,1.33279,,,,,,,,,,,,,,,,,,,,,,,,,,,,8,weak,50,-101,1,0,0,response3disk,7,177,5,8,1,0,0,rectangle,5,8,1,0,0,1,6,0.00123,5,8,1,0,0,0,14,14,23,1,0,,,,,,,,,,,,,,,,,,,,,
,,,,,,,,,,,,,,,,,,,,,,,,,,,,,,,,,,,,,,,,,,5f07759f859dcb38b8d4c6b5,6068418d036f27812f552542,2021-04-03_13h21.20.106,Colour_Similarity_Experiment,2020.2.10,Win32,60,60674ec340277cd6a308bc9f,17.12817949,16.6656401,16.6948517,16.66496449,16.94588521,16.6948517,,,,,,,,,,,,,,,,,,,,PF,weak,3,,,,,,,,2,1.44992,,,,,,,,,,,,,,,,,,,,,,,,,,,,8,weak,-90,-40,1,0,0,response5disk,4,178,-10,-6,1,0,0,rectangle,-10,-6,1,0,0,1,7,0.001115,-10,-6,1,0,0,0,15,15,78,1,0,,,,,,,,,,,,,,,,,,,,,
,,,,,,,,,,,,,,,,,,,,,,,,,,,,,,,,,,,,,,,,,,5f07759f859dcb38b8d4c6b5,6068418d036f27812f552542,2021-04-03_13h21.20.106,Colour_Similarity_Experiment,2020.2.10,Win32,60,60674ec340277cd6a308bc9f,17.12817949,16.6656401,16.6948517,16.66496449,16.94588521,16.6948517,,,,,,,,,,,,,,,,,,,,PF,weak,3,,,,,,,,6,1.19994,,,,,,,,,,,,,,,,,,,,,,,,,,,,1,weak,96,44,1,0,0,response1disk,9,179,46,-4,1,0,0,rectangle,46,-4,1,0,0,1,6,0.001165,46,-4,1,0,0,0,16,16,15,1,0,,,,,,,,,,,,,,,,,,,,,
,,,,,,,,,,,,,,,,,,,,,,,,,,,,,,,,,,,,,,,,,,5f07759f859dcb38b8d4c6b5,6068418d036f27812f552542,2021-04-03_13h21.20.106,Colour_Similarity_Experiment,2020.2.10,Win32,60,60674ec340277cd6a308bc9f,17.12817949,16.6656401,16.6948517,16.66496449,16.94588521,16.6948517,,,,,,,,,,,,,,,,,,,,PF,strong,3,,,,,,,,5,0.94998,,,,,,,,,,,,,,,,,,,,,,,,,,,,2,strong,94,-58,1,0,0,response3disk,5,180,-16,1,1,0,0,rectangle,-16,1,1,0,0,1,1,0.00105,-16,1,1,0,0,0,17,17,80,1,0,,,,,,,,,,,,,,,,,,,,,
,,,,,,,,,,,,,,,,,,,,,,,,,,,,,,,,,,,,,,,,,,5f07759f859dcb38b8d4c6b5,6068418d036f27812f552542,2021-04-03_13h21.20.106,Colour_Similarity_Experiment,2020.2.10,Win32,60,60674ec340277cd6a308bc9f,17.12817949,16.6656401,16.6948517,16.66496449,16.94588521,16.6948517,,,,,,,,,,,,,,,,,,,,PF,strong,3,,,,,,,,1,0.949935,,,,,,,,,,,,,,,,,,,,,,,,,,,,6,strong,-67,26,1,0,0,response7disk,7,181,22,-19,1,0,0,rectangle,22,-19,1,0,0,5,6,0.00097,22,-19,1,0,0,0,18,18,18,1,0,,,,,,,,,,,,,,,,,,,,,
,,,,,,,,,,,,,,,,,,,,,,,,,,,,,,,,,,,,,,,,,,5f07759f859dcb38b8d4c6b5,6068418d036f27812f552542,2021-04-03_13h21.20.106,Colour_Similarity_Experiment,2020.2.10,Win32,60,60674ec340277cd6a308bc9f,17.12817949,16.6656401,16.6948517,16.66496449,16.94588521,16.6948517,,,,,,,,,,,,,,,,,,,,PF,weak,3,,,,,,,,0,1.13326,,,,,,,,,,,,,,,,,,,,,,,,,,,,9,weak,-64,112,1,0,0,response7disk,3,182,-25,11,1,0,0,rectangle,-25,11,1,0,0,5,0,0.001125,-25,11,1,0,0,0,19,19,119,1,0,,,,,,,,,,,,,,,,,,,,,
,,,,,,,,,,,,,,,,,,,,,,,,,,,,,,,,,,,,,,,,,,5f07759f859dcb38b8d4c6b5,6068418d036f27812f552542,2021-04-03_13h21.20.106,Colour_Similarity_Experiment,2020.2.10,Win32,60,60674ec340277cd6a308bc9f,17.12817949,16.6656401,16.6948517,16.66496449,16.94588521,16.6948517,,,,,,,,,,,,,,,,,,,,PF,strong,3,,,,,,,,1,1.19989,,,,,,,,,,,,,,,,,,,,,,,,,,,,2,strong,-82,45,1,0,0,response7disk,1,183,-9,-6,1,0,0,rectangle,-9,-6,1,0,0,5,3,0.00103,-9,-6,1,0,0,0,20,20,85,1,0,,,,,,,,,,,,,,,,,,,,,
,,,,,,,,,,,,,,,,,,,,,,,,,,,,,,,,,,,,,,,,,,5f07759f859dcb38b8d4c6b5,6068418d036f27812f552542,2021-04-03_13h21.20.106,Colour_Similarity_Experiment,2020.2.10,Win32,60,60674ec340277cd6a308bc9f,17.12817949,16.6656401,16.6948517,16.66496449,16.94588521,16.6948517,,,,,,,,,,,,,,,,,,,,PF,strong,3,,,,,,,,5,1.29998,,,,,,,,,,,,,,,,,,,,,,,,,,,,9,strong,94,-47,1,0,0,response3disk,7,184,1,2,1,0,0,rectangle,1,2,1,0,0,5,6,0.00106,1,2,1,0,0,0,21,21,100,1,0,,,,,,,,,,,,,,,,,,,,,
,,,,,,,,,,,,,,,,,,,,,,,,,,,,,,,,,,,,,,,,,,5f07759f859dcb38b8d4c6b5,6068418d036f27812f552542,2021-04-03_13h21.20.106,Colour_Similarity_Experiment,2020.2.10,Win32,60,60674ec340277cd6a308bc9f,17.12817949,16.6656401,16.6948517,16.66496449,16.94588521,16.6948517,,,,,,,,,,,,,,,,,,,,PF,strong,3,,,,,,,,2,0.999835,,,,,,,,,,,,,,,,,,,,,,,,,,,,7,strong,-78,-36,1,0,0,response5disk,5,185,12,1,1,0,0,rectangle,12,1,1,0,0,5,2,0.000925,12,1,1,0,0,0,22,22,156,1,0,,,,,,,,,,,,,,,,,,,,,
,,,,,,,,,,,,,,,,,,,,,,,,,,,,,,,,,,,,,,,,,,5f07759f859dcb38b8d4c6b5,6068418d036f27812f552542,2021-04-03_13h21.20.106,Colour_Similarity_Experiment,2020.2.10,Win32,60,60674ec340277cd6a308bc9f,17.12817949,16.6656401,16.6948517,16.66496449,16.94588521,16.6948517,,,,,,,,,,,,,,,,,,,,PF,strong,3,,,,,,,,5,1.24986,,,,,,,,,,,,,,,,,,,,,,,,,,,,9,strong,87,-49,1,0,0,response3disk,9,186,25,1,1,0,0,rectangle,25,1,1,0,0,5,1,0.00089,25,1,1,0,0,0,23,23,17,1,0,,,,,,,,,,,,,,,,,,,,,
,,,,,,,,,,,,,,,,,,,,,,,,,,,,,,,,,,,,,,,,,,5f07759f859dcb38b8d4c6b5,6068418d036f27812f552542,2021-04-03_13h21.20.106,Colour_Similarity_Experiment,2020.2.10,Win32,60,60674ec340277cd6a308bc9f,17.12817949,16.6656401,16.6948517,16.66496449,16.94588521,16.6948517,,,,,,,,,,,,,,,,,,,,PF,weak,3,,,,,,,,0,1.10002,,,,,,,,,,,,,,,,,,,,,,,,,,,,1,weak,-63,113,1,0,0,response7disk,7,187,-15,9,1,0,0,rectangle,-15,9,1,0,0,5,1,0.00034,-15,9,1,0,0,0,24,24,150,1,0,,,,,,,,,,,,,,,,,,,,,
,,,,,,,,,,,,,,,,,,,,,,,,,,,,,,,,,,,,,,,,,,5f07759f859dcb38b8d4c6b5,6068418d036f27812f552542,2021-04-03_13h21.20.106,Colour_Similarity_Experiment,2020.2.10,Win32,60,60674ec340277cd6a308bc9f,17.12817949,16.6656401,16.6948517,16.66496449,16.94588521,16.6948517,,,,,,,,,,,,,,,,,,,,PF,strong,3,,,,,,,,3,1.93329,,,,,,,,,,,,,,,,,,,,,,,,,,,,1,strong,-34,-106,1,0,0,response5disk,7,188,3,-16,1,0,0,rectangle,3,-16,1,0,0,5,3,0.00117,3,-16,1,0,0,0,25,25,137,1,0,,,,,,,,,,,,,,,,,,,,,
,,,,,,,,,,,,,,,,,,,,,,,,,,,,,,,,,,,,,,,,,,5f07759f859dcb38b8d4c6b5,6068418d036f27812f552542,2021-04-03_13h21.20.106,Colour_Similarity_Experiment,2020.2.10,Win32,60,60674ec340277cd6a308bc9f,17.12817949,16.6656401,16.6948517,16.66496449,16.94588521,16.6948517,,,,,,,,,,,,,,,,,,,,PF,strong,3,,,,,,,,4,1.30503,,,,,,,,,,,,,,,,,,,,,,,,,,,,8,strong,53,-116,1,0,0,response3disk,4,189,28,1,1,0,0,rectangle,28,1,1,0,0,5,1,0.00152,28,1,1,0,0,0,26,26,88,1,0,,,,,,,,,,,,,,,,,,,,,
,,,,,,,,,,,,,,,,,,,,,,,,,,,,,,,,,,,,,,,,,,5f07759f859dcb38b8d4c6b5,6068418d036f27812f552542,2021-04-03_13h21.20.106,Colour_Similarity_Experiment,2020.2.10,Win32,60,60674ec340277cd6a308bc9f,17.12817949,16.6656401,16.6948517,16.66496449,16.94588521,16.6948517,,,,,,,,,,,,,,,,,,,,PF,weak,3,,,,,,,,1,1.31233,,,,,,,,,,,,,,,,,,,,,,,,,,,,3,weak,-125,54,1,0,0,response7disk,8,190,4,-13,1,0,0,rectangle,4,-13,1,0,0,5,7,0.00076,4,-13,1,0,0,0,27,27,3,1,0,,,,,,,,,,,,,,,,,,,,,
,,,,,,,,,,,,,,,,,,,,,,,,,,,,,,,,,,,,,,,,,,5f07759f859dcb38b8d4c6b5,6068418d036f27812f552542,2021-04-03_13h21.20.106,Colour_Similarity_Experiment,2020.2.10,Win32,60,60674ec340277cd6a308bc9f,17.12817949,16.6656401,16.6948517,16.66496449,16.94588521,16.6948517,,,,,,,,,,,,,,,,,,,,PF,strong,3,,,,,,,,3,1.3494,,,,,,,,,,,,,,,,,,,,,,,,,,,,1,strong,-41,-106,1,0,0,response5disk,6,191,27,-6,1,0,0,rectangle,27,-6,1,0,0,5,2,0.001665,27,-6,1,0,0,0,28,28,58,1,0,,,,,,,,,,,,,,,,,,,,,
,,,,,,,,,,,,,,,,,,,,,,,,,,,,,,,,,,,,,,,,,,5f07759f859dcb38b8d4c6b5,6068418d036f27812f552542,2021-04-03_13h21.20.106,Colour_Similarity_Experiment,2020.2.10,Win32,60,60674ec340277cd6a308bc9f,17.12817949,16.6656401,16.6948517,16.66496449,16.94588521,16.6948517,,,,,,,,,,,,,,,,,,,,PF,strong,3,,,,,,,,6,1.249805,,,,,,,,,,,,,,,,,,,,,,,,,,,,3,strong,100,34,1,0,0,response1disk,8,192,44,-15,1,0,0,rectangle,44,-15,1,0,0,5,6,0.001685,44,-15,1,0,0,0,29,29,44,1,0,,,,,,,,,,,,,,,,,,,,,
,,,,,,,,,,,,,,,,,,,,,,,,,,,,,,,,,,,,,,,,,,5f07759f859dcb38b8d4c6b5,6068418d036f27812f552542,2021-04-03_13h21.20.106,Colour_Similarity_Experiment,2020.2.10,Win32,60,60674ec340277cd6a308bc9f,17.12817949,16.6656401,16.6948517,16.66496449,16.94588521,16.6948517,,,,,,,,,,,,,,,,,,,,PF,strong,3,,,,,,,,0,1.399955,,,,,,,,,,,,,,,,,,,,,,,,,,,,9,strong,-39,116,1,0,0,response7disk,4,193,-10,5,1,0,0,rectangle,-10,5,1,0,0,5,6,0.0001,-10,5,1,0,0,0,30,30,60,1,0,,,,,,,,,,,,,,,,,,,,,
,,,,,,,,,,,,,,,,,,,,,,,,,,,,,,,,,,,,,,,,,,5f07759f859dcb38b8d4c6b5,6068418d036f27812f552542,2021-04-03_13h21.20.106,Colour_Similarity_Experiment,2020.2.10,Win32,60,60674ec340277cd6a308bc9f,17.12817949,16.6656401,16.6948517,16.66496449,16.94588521,16.6948517,,,,,,,,,,,,,,,,,,,,PF,weak,3,,,,,,,,1,1.516325,,,,,,,,,,,,,,,,,,,,,,,,,,,,2,weak,-116,48,1,0,0,response7disk,7,194,-18,-14,1,0,0,rectangle,-18,-14,1,0,0,5,5,0.001555,-18,-14,1,0,0,0,31,31,107,1,0,,,,,,,,,,,,,,,,,,,,,
,,,,,,,,,,,,,,,,,,,,,,,,,,,,,,,,,,,,,,,,,,5f07759f859dcb38b8d4c6b5,6068418d036f27812f552542,2021-04-03_13h21.20.106,Colour_Similarity_Experiment,2020.2.10,Win32,60,60674ec340277cd6a308bc9f,17.12817949,16.6656401,16.6948517,16.66496449,16.94588521,16.6948517,,,,,,,,,,,,,,,,,,,,PF,weak,3,,,,,,,,7,0.74969,,,,,,,,,,,,,,,,,,,,,,,,,,,,7,weak,61,103,1,0,0,response1disk,7,195,29,4,1,0,0,rectangle,29,4,1,0,0,5,4,0.001035,29,4,1,0,0,0,32,32,51,1,0,,,,,,,,,,,,,,,,,,,,,
