key_resp.keys,key_resp.rt,key_resp_16.keys,key_resp_16.rt,key_resp_2.keys,key_resp_2.rt,X Scale,ratio_pxpermm,screen_size_x,screen_size_y,testsize,key_resp_3.keys,key_resp_3.rt,key_resp_4.keys,key_resp_4.rt,line_size,key_resp_5.keys,key_resp_5.rt,key_resp_6.keys,key_resp_6.rt,key_resp_8.keys,key_resp_8.rt,key_resp_7.keys,key_resp_7.rt,key_resp_12.keys,key_resp_12.rt,key_resp_11.keys,key_resp_11.rt,key_resp_18.keys,key_resp_18.rt,key_resp_21.keys,key_resp_21.rt,key_resp_13.keys,key_resp_13.rt,key_resp_19.keys,key_resp_19.rt,ballposx,viewer_distance,trials.thisRepN,trials.thisTrialN,trials.thisN,trials.thisIndex,trials.ran,participant,session,date,expName,psychopyVersion,OS,frameRate,study_id,realFrameRate1,realFrameRate2,realFrameRate3,realFrameRate4,realFrameRate5,realFrameRate,viewerdistancecm,DVA_to_distance,radius_F,radius_P,r_F,R_P,key_resp_20.keys,key_resp_20.rt,key_resp_14.keys,key_resp_14.rt,key_resp_15.keys,key_resp_15.rt,key_resp_17.keys,key_resp_17.rt,key_resp_9.keys,key_resp_9.rt,key_resp_10.keys,key_resp_10.rt,Colour_1,Ecc,maskCon,mask_frames,mouse_5.x,mouse_5.y,mouse_5.leftButton,mouse_5.midButton,mouse_5.rightButton,mouse_5.clicked_name,Colour_2,similarity,response_time,mouse_10.x,mouse_10.y,mouse_10.leftButton,mouse_10.midButton,mouse_10.rightButton,mouse_10.clicked_name,mouse_7.x,mouse_7.y,mouse_7.leftButton,mouse_7.midButton,mouse_7.rightButton,catchnumberprac,mouse_6.x,mouse_6.y,mouse_6.leftButton,mouse_6.midButton,mouse_6.rightButton,duringprac.thisRepN,duringprac.thisTrialN,duringprac.thisN,duringprac.thisIndex,duringprac.ran,mouse_7.clicked_name,mouse_6.clicked_name,key_resp_22.keys,key_resp_22.rt,Colour1,maskCon1,mouse.x,mouse.y,mouse.leftButton,mouse.midButton,mouse.rightButton,mouse.clicked_name,Colour2,trialnumber,mouse_2.x,mouse_2.y,mouse_2.leftButton,mouse_2.midButton,mouse_2.rightButton,mouse_2.clicked_name,mouse_3.x,mouse_3.y,mouse_3.leftButton,mouse_3.midButton,mouse_3.rightButton,catchresponse,catchnumber,response_time_catch,mouse_11.x,mouse_11.y,mouse_11.leftButton,mouse_11.midButton,mouse_11.rightButton,trials_2.thisRepN,trials_2.thisTrialN,trials_2.thisN,trials_2.thisIndex,trials_2.ran,Catch,mouse_3.clicked_name,mouse_11.clicked_name,trials_3.thisRepN,trials_3.thisTrialN,trials_3.thisN,trials_3.thisIndex,trials_3.ran,answer1,rt1,answer2,rt2,answer3,rt3,answer4,rt4,answer5,rt5,answer6,rt6,answer7,rt7
space,4.181195,space,4.83285,space,0.470105,36.6,3.66,524.5901639,295.0819672,1920,space,2.29374,space,5.09585,73.2,space,1.10496,space,4.29506,space,0.308905,space,0.413295,space,1.39828,space,4.729905,space,3.64578,space,0.89629,space,34.32533,return,2.86539,218.88,624.9317647,0,0,0,0,1,5f2af6dc1a903c46dd0e53bd,606841dfeca58d8ce30b3590,2021-04-03_11h35.01.199,Colour_Similarity_Experiment,2020.2.10,Win32,60,60674ec340277cd6a308bc9f,16.76002703,16.66116438,17.97225,16.76164495,16.64829787,16.76002703,,,,,,,,,,,,,,,,,,,,,,,,,,,,,,,,,,,,,,,,,,,,,,,,,,,,,,,,,,,,,,,,,,,,,,,,,,,,,,,,,,,,,,,,,,,,,,,,,,,,,,,,,,,,,,,,,
,,,,,,,,,,,,,,,,,,,,,,,,,,,,,,,,,,return,2.907775,216,628.2093788,1,0,1,0,1,5f2af6dc1a903c46dd0e53bd,606841dfeca58d8ce30b3590,2021-04-03_11h35.01.199,Colour_Similarity_Experiment,2020.2.10,Win32,60,60674ec340277cd6a308bc9f,16.76002703,16.66116438,17.97225,16.76164495,16.64829787,16.76002703,,,,,,,,,,,,,,,,,,,,,,,,,,,,,,,,,,,,,,,,,,,,,,,,,,,,,,,,,,,,,,,,,,,,,,,,,,,,,,,,,,,,,,,,,,,,,,,,,,,,,,,,,,,,,,,,,
,,,,,,,,,,,,,,,,,,,,,,,,,,,,,,,,,,return,2.86304,224.64,618.3765364,2,0,2,0,1,5f2af6dc1a903c46dd0e53bd,606841dfeca58d8ce30b3590,2021-04-03_11h35.01.199,Colour_Similarity_Experiment,2020.2.10,Win32,60,60674ec340277cd6a308bc9f,16.76002703,16.66116438,17.97225,16.76164495,16.64829787,16.76002703,,,,,,,,,,,,,,,,,,,,,,,,,,,,,,,,,,,,,,,,,,,,,,,,,,,,,,,,,,,,,,,,,,,,,,,,,,,,,,,,,,,,,,,,,,,,,,,,,,,,,,,,,,,,,,,,,
,,,,,,,,,,,,,,,,,,,,,,,,,,,,,,,,,,return,3.21052,164.16,687.2064335,3,0,3,0,1,5f2af6dc1a903c46dd0e53bd,606841dfeca58d8ce30b3590,2021-04-03_11h35.01.199,Colour_Similarity_Experiment,2020.2.10,Win32,60,60674ec340277cd6a308bc9f,16.76002703,16.66116438,17.97225,16.76164495,16.64829787,16.76002703,,,,,,,,,,,,,,,,,,,,,,,,,,,,,,,,,,,,,,,,,,,,,,,,,,,,,,,,,,,,,,,,,,,,,,,,,,,,,,,,,,,,,,,,,,,,,,,,,,,,,,,,,,,,,,,,,
,,,,,,,,,,,,,,,,,,,,,,,,,,,,,,,,,,return,2.927985,213.12,631.486993,4,0,4,0,1,5f2af6dc1a903c46dd0e53bd,606841dfeca58d8ce30b3590,2021-04-03_11h35.01.199,Colour_Similarity_Experiment,2020.2.10,Win32,60,60674ec340277cd6a308bc9f,16.76002703,16.66116438,17.97225,16.76164495,16.64829787,16.76002703,,,,,,,,,,,,,,,,,,,,,,,,,,,,,,,,,,,,,,,,,,,,,,,,,,,,,,,,,,,,,,,,,,,,,,,,,,,,,,,,,,,,,,,,,,,,,,,,,,,,,,,,,,,,,,,,,
,,,,,,,,,,,,,,,,,,,,,,,,,,,,,,,,,,,,,,,,,,,5f2af6dc1a903c46dd0e53bd,606841dfeca58d8ce30b3590,2021-04-03_11h35.01.199,Colour_Similarity_Experiment,2020.2.10,Win32,60,60674ec340277cd6a308bc9f,16.76002703,16.66116438,17.97225,16.76164495,16.64829787,16.76002703,63,10.99668697,60.37181148,402.4787432,40.24787432,181.1154344,space,3.704555,space,14.204515,space,533.78983,space,22.36259,space,4.845245,space,9.03198,8,PF,weak,3,117,-69,1,0,0,response3disk_5,1,5,14.942535,10,3,1,0,0,rectangle_8,10,3,1,0,0,2,10,3,1,0,0,0,0,0,4,1,,,,,,,,,,,,,,,,,,,,,,,,,,,,,,,,,,,,,,,,,,,,,,,,,,,,,,,,,,,,
,,,,,,,,,,,,,,,,,,,,,,,,,,,,,,,,,,,,,,,,,,,5f2af6dc1a903c46dd0e53bd,606841dfeca58d8ce30b3590,2021-04-03_11h35.01.199,Colour_Similarity_Experiment,2020.2.10,Win32,60,60674ec340277cd6a308bc9f,16.76002703,16.66116438,17.97225,16.76164495,16.64829787,16.76002703,,,,,,,,,,,,,,,,,,,4,PF,strong,3,-65,108,1,0,0,response7disk_5,4,0,4.78275,-4,-7,1,0,0,rectangle_8,-4,-7,1,0,0,2,-4,-7,1,0,0,0,1,1,0,1,,,,,,,,,,,,,,,,,,,,,,,,,,,,,,,,,,,,,,,,,,,,,,,,,,,,,,,,,,,,
,,,,,,,,,,,,,,,,,,,,,,,,,,,,,,,,,,,,,,,,,,,5f2af6dc1a903c46dd0e53bd,606841dfeca58d8ce30b3590,2021-04-03_11h35.01.199,Colour_Similarity_Experiment,2020.2.10,Win32,60,60674ec340277cd6a308bc9f,16.76002703,16.66116438,17.97225,16.76164495,16.64829787,16.76002703,,,,,,,,,,,,,,,,,,,6,PF,weak,3,69,147,1,0,0,response1disk_5,4,7,3.36748,0,0,1,0,0,rectangle_8,0,0,1,0,0,2,0,0,1,0,0,0,2,2,6,1,,,,,,,,,,,,,,,,,,,,,,,,,,,,,,,,,,,,,,,,,,,,,,,,,,,,,,,,,,,,
,,,,,,,,,,,,,,,,,,,,,,,,,,,,,,,,,,,,,,,,,,,5f2af6dc1a903c46dd0e53bd,606841dfeca58d8ce30b3590,2021-04-03_11h35.01.199,Colour_Similarity_Experiment,2020.2.10,Win32,60,60674ec340277cd6a308bc9f,16.76002703,16.66116438,17.97225,16.76164495,16.64829787,16.76002703,,,,,,,,,,,,,,,,,,,4,PF,weak,3,-105,65,1,0,0,response7disk_5,3,1,12.93091,1,-2,1,0,0,rectangle_8,-139,-61,1,0,0,2,-4,4,1,0,0,0,3,3,5,1,response5disk_7,rectangle_4,,,,,,,,,,,,,,,,,,,,,,,,,,,,,,,,,,,,,,,,,,,,,,,,,,,,,,,,,,
,,,,,,,,,,,,,,,,,,,,,,,,,,,,,,,,,,,,,,,,,,,5f2af6dc1a903c46dd0e53bd,606841dfeca58d8ce30b3590,2021-04-03_11h35.01.199,Colour_Similarity_Experiment,2020.2.10,Win32,60,60674ec340277cd6a308bc9f,16.76002703,16.66116438,17.97225,16.76164495,16.64829787,16.76002703,,,,,,,,,,,,,,,,,,,5,PF,weak,3,-65,-119,1,0,0,response5disk_5,5,3,10.016945,-6,-1,1,0,0,rectangle_8,-119,-50,1,0,0,2,0,-3,1,0,0,0,4,4,1,1,response5disk_7,rectangle_4,,,,,,,,,,,,,,,,,,,,,,,,,,,,,,,,,,,,,,,,,,,,,,,,,,,,,,,,,,
,,,,,,,,,,,,,,,,,,,,,,,,,,,,,,,,,,,,,,,,,,,5f2af6dc1a903c46dd0e53bd,606841dfeca58d8ce30b3590,2021-04-03_11h35.01.199,Colour_Similarity_Experiment,2020.2.10,Win32,60,60674ec340277cd6a308bc9f,16.76002703,16.66116438,17.97225,16.76164495,16.64829787,16.76002703,,,,,,,,,,,,,,,,,,,2,PF,strong,3,64,-146,1,0,0,response3disk_5,5,4,4.13392,-7,-6,1,0,0,rectangle_8,-7,-6,1,0,0,2,-7,-6,1,0,0,0,5,5,3,1,,,,,,,,,,,,,,,,,,,,,,,,,,,,,,,,,,,,,,,,,,,,,,,,,,,,,,,,,,,,
,,,,,,,,,,,,,,,,,,,,,,,,,,,,,,,,,,,,,,,,,,,5f2af6dc1a903c46dd0e53bd,606841dfeca58d8ce30b3590,2021-04-03_11h35.01.199,Colour_Similarity_Experiment,2020.2.10,Win32,60,60674ec340277cd6a308bc9f,16.76002703,16.66116438,17.97225,16.76164495,16.64829787,16.76002703,,,,,,,,,,,,,,,,,,,2,PF,strong,3,74,148,1,0,0,response1disk_5,9,7,5.333865,1,-3,1,0,0,rectangle_8,1,-3,1,0,0,2,1,-3,1,0,0,0,6,6,2,1,,,,,,,,,,,,,,,,,,,,,,,,,,,,,,,,,,,,,,,,,,,,,,,,,,,,,,,,,,,,
,,,,,,,,,,,,,,,,,,,,,,,,,,,,,,,,,,,,,,,,,,,5f2af6dc1a903c46dd0e53bd,606841dfeca58d8ce30b3590,2021-04-03_11h35.01.199,Colour_Similarity_Experiment,2020.2.10,Win32,60,60674ec340277cd6a308bc9f,16.76002703,16.66116438,17.97225,16.76164495,16.64829787,16.76002703,,,,,,,,,,,,,,,,,,,,PF,strong,3,,,,,,,,3,16.31549,,,,,,,,,,,,,,,,,,,,,,,,,space,16.456525,7,strong,-67,-118,1,0,0,response5disk,4,1,-1,-2,1,0,0,rectangle,-1,-2,1,0,0,,2,0.004285,-1,-2,1,0,0,0,0,0,158,1,0,,,,,,,,,,,,,,,,,,,,,
,,,,,,,,,,,,,,,,,,,,,,,,,,,,,,,,,,,,,,,,,,,5f2af6dc1a903c46dd0e53bd,606841dfeca58d8ce30b3590,2021-04-03_11h35.01.199,Colour_Similarity_Experiment,2020.2.10,Win32,60,60674ec340277cd6a308bc9f,16.76002703,16.66116438,17.97225,16.76164495,16.64829787,16.76002703,,,,,,,,,,,,,,,,,,,,PF,strong,3,,,,,,,,7,2.90063,,,,,,,,,,,,,,,,,,,,,,,,,,,3,strong,51,117,1,0,0,response1disk,3,2,7,-2,1,0,0,rectangle,7,-2,1,0,0,,4,0.002325,7,-2,1,0,0,0,1,1,68,1,0,,,,,,,,,,,,,,,,,,,,,
,,,,,,,,,,,,,,,,,,,,,,,,,,,,,,,,,,,,,,,,,,,5f2af6dc1a903c46dd0e53bd,606841dfeca58d8ce30b3590,2021-04-03_11h35.01.199,Colour_Similarity_Experiment,2020.2.10,Win32,60,60674ec340277cd6a308bc9f,16.76002703,16.66116438,17.97225,16.76164495,16.64829787,16.76002703,,,,,,,,,,,,,,,,,,,,PF,weak,3,,,,,,,,4,6.233735,,,,,,,,,,,,,,,,,,,,,,,,,,,6,weak,74,-136,1,0,0,response3disk,5,3,-4,1,1,0,0,rectangle,-4,1,1,0,0,,7,0.001915,-4,1,1,0,0,0,2,2,59,1,0,,,,,,,,,,,,,,,,,,,,,
,,,,,,,,,,,,,,,,,,,,,,,,,,,,,,,,,,,,,,,,,,,5f2af6dc1a903c46dd0e53bd,606841dfeca58d8ce30b3590,2021-04-03_11h35.01.199,Colour_Similarity_Experiment,2020.2.10,Win32,60,60674ec340277cd6a308bc9f,16.76002703,16.66116438,17.97225,16.76164495,16.64829787,16.76002703,,,,,,,,,,,,,,,,,,,,PF,weak,3,,,,,,,,7,2.650715,,,,,,,,,,,,,,,,,,,,,,,,,,,2,weak,53,148,1,0,0,response1disk,7,4,-7,-1,1,0,0,rectangle,-7,-1,1,0,0,,6,0.001825,-7,-1,1,0,0,0,3,3,107,1,0,,,,,,,,,,,,,,,,,,,,,
,,,,,,,,,,,,,,,,,,,,,,,,,,,,,,,,,,,,,,,,,,,5f2af6dc1a903c46dd0e53bd,606841dfeca58d8ce30b3590,2021-04-03_11h35.01.199,Colour_Similarity_Experiment,2020.2.10,Win32,60,60674ec340277cd6a308bc9f,16.76002703,16.66116438,17.97225,16.76164495,16.64829787,16.76002703,,,,,,,,,,,,,,,,,,,,PF,strong,3,,,,,,,,7,6.564645,,,,,,,,,,,,,,,,,,,,,,,,,,,7,strong,63,119,1,0,0,response1disk,8,5,-7,-3,1,0,0,rectangle,-69,141,1,0,0,0,0,2.89971,-5,3,1,0,0,0,4,4,97,1,1,response7disk_3,rectangle,,,,,,,,,,,,,,,,,,,
,,,,,,,,,,,,,,,,,,,,,,,,,,,,,,,,,,,,,,,,,,,5f2af6dc1a903c46dd0e53bd,606841dfeca58d8ce30b3590,2021-04-03_11h35.01.199,Colour_Similarity_Experiment,2020.2.10,Win32,60,60674ec340277cd6a308bc9f,16.76002703,16.66116438,17.97225,16.76164495,16.64829787,16.76002703,,,,,,,,,,,,,,,,,,,,PF,strong,3,,,,,,,,7,3.20059,,,,,,,,,,,,,,,,,,,,,,,,,,,5,strong,68,116,1,0,0,response1disk,2,6,-3,-7,1,0,0,rectangle,-36,133,1,0,0,0,0,2.03348,-6,3,1,0,0,0,5,5,55,1,1,response7disk_3,rectangle,,,,,,,,,,,,,,,,,,,
,,,,,,,,,,,,,,,,,,,,,,,,,,,,,,,,,,,,,,,,,,,5f2af6dc1a903c46dd0e53bd,606841dfeca58d8ce30b3590,2021-04-03_11h35.01.199,Colour_Similarity_Experiment,2020.2.10,Win32,60,60674ec340277cd6a308bc9f,16.76002703,16.66116438,17.97225,16.76164495,16.64829787,16.76002703,,,,,,,,,,,,,,,,,,,,PF,weak,3,,,,,,,,2,7.300945,,,,,,,,,,,,,,,,,,,,,,,,,,,5,weak,-104,-60,1,0,0,response5disk,7,7,-4,4,1,0,0,rectangle,-4,4,1,0,0,0,4,0.00192,-4,4,1,0,0,0,6,6,146,1,0,,,,,,,,,,,,,,,,,,,,,
,,,,,,,,,,,,,,,,,,,,,,,,,,,,,,,,,,,,,,,,,,,5f2af6dc1a903c46dd0e53bd,606841dfeca58d8ce30b3590,2021-04-03_11h35.01.199,Colour_Similarity_Experiment,2020.2.10,Win32,60,60674ec340277cd6a308bc9f,16.76002703,16.66116438,17.97225,16.76164495,16.64829787,16.76002703,,,,,,,,,,,,,,,,,,,,PF,strong,3,,,,,,,,3,9.41688,,,,,,,,,,,,,,,,,,,,,,,,,,,5,strong,-50,-116,1,0,0,response5disk,4,8,-4,-8,1,0,0,rectangle,-4,-8,1,0,0,0,7,0.00203,-4,-8,1,0,0,0,7,7,8,1,0,,,,,,,,,,,,,,,,,,,,,
,,,,,,,,,,,,,,,,,,,,,,,,,,,,,,,,,,,,,,,,,,,5f2af6dc1a903c46dd0e53bd,606841dfeca58d8ce30b3590,2021-04-03_11h35.01.199,Colour_Similarity_Experiment,2020.2.10,Win32,60,60674ec340277cd6a308bc9f,16.76002703,16.66116438,17.97225,16.76164495,16.64829787,16.76002703,,,,,,,,,,,,,,,,,,,,PF,weak,3,,,,,,,,4,5.05045,,,,,,,,,,,,,,,,,,,,,,,,,,,6,weak,61,-125,1,0,0,response3disk,8,9,-4,-4,1,0,0,rectangle,-4,-4,1,0,0,0,0,0.00177,-4,-4,1,0,0,0,8,8,64,1,0,,,,,,,,,,,,,,,,,,,,,
,,,,,,,,,,,,,,,,,,,,,,,,,,,,,,,,,,,,,,,,,,,5f2af6dc1a903c46dd0e53bd,606841dfeca58d8ce30b3590,2021-04-03_11h35.01.199,Colour_Similarity_Experiment,2020.2.10,Win32,60,60674ec340277cd6a308bc9f,16.76002703,16.66116438,17.97225,16.76164495,16.64829787,16.76002703,,,,,,,,,,,,,,,,,,,,PF,weak,3,,,,,,,,0,3.28074,,,,,,,,,,,,,,,,,,,,,,,,,,,9,weak,-55,134,1,0,0,response7disk,9,10,-9,0,1,0,0,rectangle,-9,0,1,0,0,0,5,0.002285,-9,0,1,0,0,0,9,9,106,1,0,,,,,,,,,,,,,,,,,,,,,
,,,,,,,,,,,,,,,,,,,,,,,,,,,,,,,,,,,,,,,,,,,5f2af6dc1a903c46dd0e53bd,606841dfeca58d8ce30b3590,2021-04-03_11h35.01.199,Colour_Similarity_Experiment,2020.2.10,Win32,60,60674ec340277cd6a308bc9f,16.76002703,16.66116438,17.97225,16.76164495,16.64829787,16.76002703,,,,,,,,,,,,,,,,,,,,PF,weak,3,,,,,,,,1,5.383775,,,,,,,,,,,,,,,,,,,,,,,,,,,7,weak,-129,58,1,0,0,response7disk,6,11,-5,-13,1,0,0,rectangle,-5,-13,1,0,0,0,5,0.00026,-5,-13,1,0,0,0,10,10,29,1,0,,,,,,,,,,,,,,,,,,,,,
,,,,,,,,,,,,,,,,,,,,,,,,,,,,,,,,,,,,,,,,,,,5f2af6dc1a903c46dd0e53bd,606841dfeca58d8ce30b3590,2021-04-03_11h35.01.199,Colour_Similarity_Experiment,2020.2.10,Win32,60,60674ec340277cd6a308bc9f,16.76002703,16.66116438,17.97225,16.76164495,16.64829787,16.76002703,,,,,,,,,,,,,,,,,,,,PF,strong,3,,,,,,,,7,2.400615,,,,,,,,,,,,,,,,,,,,,,,,,,,4,strong,61,143,1,0,0,response1disk,9,12,-1,-1,1,0,0,rectangle,-1,-1,1,0,0,0,2,0.00177,-1,-1,1,0,0,0,11,11,90,1,0,,,,,,,,,,,,,,,,,,,,,
,,,,,,,,,,,,,,,,,,,,,,,,,,,,,,,,,,,,,,,,,,,5f2af6dc1a903c46dd0e53bd,606841dfeca58d8ce30b3590,2021-04-03_11h35.01.199,Colour_Similarity_Experiment,2020.2.10,Win32,60,60674ec340277cd6a308bc9f,16.76002703,16.66116438,17.97225,16.76164495,16.64829787,16.76002703,,,,,,,,,,,,,,,,,,,,PF,weak,3,,,,,,,,7,2.31729,,,,,,,,,,,,,,,,,,,,,,,,,,,6,weak,59,125,1,0,0,response1disk,9,13,-6,-6,1,0,0,rectangle,-6,-6,1,0,0,0,2,0.000295,-6,-6,1,0,0,0,12,12,45,1,0,,,,,,,,,,,,,,,,,,,,,
,,,,,,,,,,,,,,,,,,,,,,,,,,,,,,,,,,,,,,,,,,,5f2af6dc1a903c46dd0e53bd,606841dfeca58d8ce30b3590,2021-04-03_11h35.01.199,Colour_Similarity_Experiment,2020.2.10,Win32,60,60674ec340277cd6a308bc9f,16.76002703,16.66116438,17.97225,16.76164495,16.64829787,16.76002703,,,,,,,,,,,,,,,,,,,,PF,weak,3,,,,,,,,3,4.46626,,,,,,,,,,,,,,,,,,,,,,,,,,,7,weak,-59,-121,1,0,0,response5disk,8,14,-3,2,1,0,0,rectangle,-3,2,1,0,0,0,7,0.00178,-3,2,1,0,0,0,13,13,140,1,0,,,,,,,,,,,,,,,,,,,,,
,,,,,,,,,,,,,,,,,,,,,,,,,,,,,,,,,,,,,,,,,,,5f2af6dc1a903c46dd0e53bd,606841dfeca58d8ce30b3590,2021-04-03_11h35.01.199,Colour_Similarity_Experiment,2020.2.10,Win32,60,60674ec340277cd6a308bc9f,16.76002703,16.66116438,17.97225,16.76164495,16.64829787,16.76002703,,,,,,,,,,,,,,,,,,,,PF,strong,3,,,,,,,,7,2.500035,,,,,,,,,,,,,,,,,,,,,,,,,,,1,strong,46,113,1,0,0,response1disk,4,15,-11,-4,1,0,0,rectangle,-11,-4,1,0,0,0,0,0.004055,-11,-4,1,0,0,0,14,14,135,1,0,,,,,,,,,,,,,,,,,,,,,
,,,,,,,,,,,,,,,,,,,,,,,,,,,,,,,,,,,,,,,,,,,5f2af6dc1a903c46dd0e53bd,606841dfeca58d8ce30b3590,2021-04-03_11h35.01.199,Colour_Similarity_Experiment,2020.2.10,Win32,60,60674ec340277cd6a308bc9f,16.76002703,16.66116438,17.97225,16.76164495,16.64829787,16.76002703,,,,,,,,,,,,,,,,,,,,PF,weak,3,,,,,,,,7,3.450655,,,,,,,,,,,,,,,,,,,,,,,,,,,7,weak,58,132,1,0,0,response1disk,3,16,-13,-1,1,0,0,rectangle,-13,-1,1,0,0,0,6,0.00179,-13,-1,1,0,0,0,15,15,81,1,0,,,,,,,,,,,,,,,,,,,,,
,,,,,,,,,,,,,,,,,,,,,,,,,,,,,,,,,,,,,,,,,,,5f2af6dc1a903c46dd0e53bd,606841dfeca58d8ce30b3590,2021-04-03_11h35.01.199,Colour_Similarity_Experiment,2020.2.10,Win32,60,60674ec340277cd6a308bc9f,16.76002703,16.66116438,17.97225,16.76164495,16.64829787,16.76002703,,,,,,,,,,,,,,,,,,,,PF,strong,3,,,,,,,,7,1.817315,,,,,,,,,,,,,,,,,,,,,,,,,,,7,strong,52,118,1,0,0,response1disk,9,17,1,3,1,0,0,rectangle,1,3,1,0,0,0,3,0.001775,1,3,1,0,0,0,16,16,155,1,0,,,,,,,,,,,,,,,,,,,,,
,,,,,,,,,,,,,,,,,,,,,,,,,,,,,,,,,,,,,,,,,,,5f2af6dc1a903c46dd0e53bd,606841dfeca58d8ce30b3590,2021-04-03_11h35.01.199,Colour_Similarity_Experiment,2020.2.10,Win32,60,60674ec340277cd6a308bc9f,16.76002703,16.66116438,17.97225,16.76164495,16.64829787,16.76002703,,,,,,,,,,,,,,,,,,,,PF,weak,3,,,,,,,,7,1.233285,,,,,,,,,,,,,,,,,,,,,,,,,,,2,weak,45,131,1,0,0,response1disk,5,18,-1,6,1,0,0,rectangle,-1,6,1,0,0,0,4,0.001755,-1,6,1,0,0,0,17,17,147,1,0,,,,,,,,,,,,,,,,,,,,,
,,,,,,,,,,,,,,,,,,,,,,,,,,,,,,,,,,,,,,,,,,,5f2af6dc1a903c46dd0e53bd,606841dfeca58d8ce30b3590,2021-04-03_11h35.01.199,Colour_Similarity_Experiment,2020.2.10,Win32,60,60674ec340277cd6a308bc9f,16.76002703,16.66116438,17.97225,16.76164495,16.64829787,16.76002703,,,,,,,,,,,,,,,,,,,,PF,weak,3,,,,,,,,4,2.900585,,,,,,,,,,,,,,,,,,,,,,,,,,,5,weak,75,-135,1,0,0,response3disk,3,19,-4,1,1,0,0,rectangle,-4,1,1,0,0,0,1,0.0018,-4,1,1,0,0,0,18,18,109,1,0,,,,,,,,,,,,,,,,,,,,,
,,,,,,,,,,,,,,,,,,,,,,,,,,,,,,,,,,,,,,,,,,,5f2af6dc1a903c46dd0e53bd,606841dfeca58d8ce30b3590,2021-04-03_11h35.01.199,Colour_Similarity_Experiment,2020.2.10,Win32,60,60674ec340277cd6a308bc9f,16.76002703,16.66116438,17.97225,16.76164495,16.64829787,16.76002703,,,,,,,,,,,,,,,,,,,,PF,weak,3,,,,,,,,7,1.21728,,,,,,,,,,,,,,,,,,,,,,,,,,,2,weak,72,127,1,0,0,response1disk,9,20,-2,0,1,0,0,rectangle,-2,0,1,0,0,0,3,0.001735,-2,0,1,0,0,0,19,19,39,1,0,,,,,,,,,,,,,,,,,,,,,
,,,,,,,,,,,,,,,,,,,,,,,,,,,,,,,,,,,,,,,,,,,5f2af6dc1a903c46dd0e53bd,606841dfeca58d8ce30b3590,2021-04-03_11h35.01.199,Colour_Similarity_Experiment,2020.2.10,Win32,60,60674ec340277cd6a308bc9f,16.76002703,16.66116438,17.97225,16.76164495,16.64829787,16.76002703,,,,,,,,,,,,,,,,,,,,PF,weak,3,,,,,,,,7,1.683115,,,,,,,,,,,,,,,,,,,,,,,,,,,8,weak,52,124,1,0,0,response1disk,6,21,1,1,1,0,0,rectangle,-32,131,1,0,0,0,0,1.79962,0,2,1,0,0,0,20,20,161,1,1,response7disk_3,rectangle,,,,,,,,,,,,,,,,,,,
,,,,,,,,,,,,,,,,,,,,,,,,,,,,,,,,,,,,,,,,,,,5f2af6dc1a903c46dd0e53bd,606841dfeca58d8ce30b3590,2021-04-03_11h35.01.199,Colour_Similarity_Experiment,2020.2.10,Win32,60,60674ec340277cd6a308bc9f,16.76002703,16.66116438,17.97225,16.76164495,16.64829787,16.76002703,,,,,,,,,,,,,,,,,,,,PF,weak,3,,,,,,,,7,1.649885,,,,,,,,,,,,,,,,,,,,,,,,,,,9,weak,60,140,1,0,0,response1disk,7,22,-3,-2,1,0,0,rectangle,-3,-2,1,0,0,0,4,0.001835,-3,-2,1,0,0,0,21,21,121,1,0,,,,,,,,,,,,,,,,,,,,,
,,,,,,,,,,,,,,,,,,,,,,,,,,,,,,,,,,,,,,,,,,,5f2af6dc1a903c46dd0e53bd,606841dfeca58d8ce30b3590,2021-04-03_11h35.01.199,Colour_Similarity_Experiment,2020.2.10,Win32,60,60674ec340277cd6a308bc9f,16.76002703,16.66116438,17.97225,16.76164495,16.64829787,16.76002703,,,,,,,,,,,,,,,,,,,,PF,strong,3,,,,,,,,7,1.283975,,,,,,,,,,,,,,,,,,,,,,,,,,,4,strong,53,141,1,0,0,response1disk,1,23,3,-7,1,0,0,rectangle,3,-7,1,0,0,0,7,0.001715,3,-7,1,0,0,0,22,22,102,1,0,,,,,,,,,,,,,,,,,,,,,
,,,,,,,,,,,,,,,,,,,,,,,,,,,,,,,,,,,,,,,,,,,5f2af6dc1a903c46dd0e53bd,606841dfeca58d8ce30b3590,2021-04-03_11h35.01.199,Colour_Similarity_Experiment,2020.2.10,Win32,60,60674ec340277cd6a308bc9f,16.76002703,16.66116438,17.97225,16.76164495,16.64829787,16.76002703,,,,,,,,,,,,,,,,,,,,PF,strong,3,,,,,,,,5,3.100695,,,,,,,,,,,,,,,,,,,,,,,,,,,5,strong,122,-48,1,0,0,response3disk,3,24,1,0,1,0,0,rectangle,1,0,1,0,0,0,0,0.001755,1,0,1,0,0,0,23,23,25,1,0,,,,,,,,,,,,,,,,,,,,,
,,,,,,,,,,,,,,,,,,,,,,,,,,,,,,,,,,,,,,,,,,,5f2af6dc1a903c46dd0e53bd,606841dfeca58d8ce30b3590,2021-04-03_11h35.01.199,Colour_Similarity_Experiment,2020.2.10,Win32,60,60674ec340277cd6a308bc9f,16.76002703,16.66116438,17.97225,16.76164495,16.64829787,16.76002703,,,,,,,,,,,,,,,,,,,,PF,weak,3,,,,,,,,1,2.750425,,,,,,,,,,,,,,,,,,,,,,,,,,,4,weak,-100,75,1,0,0,response7disk,4,25,4,1,1,0,0,rectangle,4,1,1,0,0,0,3,0.00178,4,1,1,0,0,0,24,24,70,1,0,,,,,,,,,,,,,,,,,,,,,
,,,,,,,,,,,,,,,,,,,,,,,,,,,,,,,,,,,,,,,,,,,5f2af6dc1a903c46dd0e53bd,606841dfeca58d8ce30b3590,2021-04-03_11h35.01.199,Colour_Similarity_Experiment,2020.2.10,Win32,60,60674ec340277cd6a308bc9f,16.76002703,16.66116438,17.97225,16.76164495,16.64829787,16.76002703,,,,,,,,,,,,,,,,,,,,PF,weak,3,,,,,,,,7,1.150645,,,,,,,,,,,,,,,,,,,,,,,,,,,4,weak,64,138,1,0,0,response1disk,8,26,2,-4,1,0,0,rectangle,2,-4,1,0,0,0,3,0.000305,2,-4,1,0,0,0,25,25,124,1,0,,,,,,,,,,,,,,,,,,,,,
,,,,,,,,,,,,,,,,,,,,,,,,,,,,,,,,,,,,,,,,,,,5f2af6dc1a903c46dd0e53bd,606841dfeca58d8ce30b3590,2021-04-03_11h35.01.199,Colour_Similarity_Experiment,2020.2.10,Win32,60,60674ec340277cd6a308bc9f,16.76002703,16.66116438,17.97225,16.76164495,16.64829787,16.76002703,,,,,,,,,,,,,,,,,,,,PF,strong,3,,,,,,,,7,1.332995,,,,,,,,,,,,,,,,,,,,,,,,,,,3,strong,47,120,1,0,0,response1disk,6,27,4,5,1,0,0,rectangle,4,5,1,0,0,0,6,0.00073,4,5,1,0,0,0,26,26,95,1,0,,,,,,,,,,,,,,,,,,,,,
,,,,,,,,,,,,,,,,,,,,,,,,,,,,,,,,,,,,,,,,,,,5f2af6dc1a903c46dd0e53bd,606841dfeca58d8ce30b3590,2021-04-03_11h35.01.199,Colour_Similarity_Experiment,2020.2.10,Win32,60,60674ec340277cd6a308bc9f,16.76002703,16.66116438,17.97225,16.76164495,16.64829787,16.76002703,,,,,,,,,,,,,,,,,,,,PF,strong,3,,,,,,,,5,3.433035,,,,,,,,,,,,,,,,,,,,,,,,,,,6,strong,103,-74,1,0,0,response3disk,5,28,4,2,1,0,0,rectangle,4,2,1,0,0,0,5,0.00183,4,2,1,0,0,0,27,27,126,1,0,,,,,,,,,,,,,,,,,,,,,
,,,,,,,,,,,,,,,,,,,,,,,,,,,,,,,,,,,,,,,,,,,5f2af6dc1a903c46dd0e53bd,606841dfeca58d8ce30b3590,2021-04-03_11h35.01.199,Colour_Similarity_Experiment,2020.2.10,Win32,60,60674ec340277cd6a308bc9f,16.76002703,16.66116438,17.97225,16.76164495,16.64829787,16.76002703,,,,,,,,,,,,,,,,,,,,PF,weak,3,,,,,,,,7,0.96726,,,,,,,,,,,,,,,,,,,,,,,,,,,1,weak,49,135,1,0,0,response1disk,4,29,-3,-5,1,0,0,rectangle,-3,-5,1,0,0,0,6,0.00184,-3,-5,1,0,0,0,28,28,139,1,0,,,,,,,,,,,,,,,,,,,,,
,,,,,,,,,,,,,,,,,,,,,,,,,,,,,,,,,,,,,,,,,,,5f2af6dc1a903c46dd0e53bd,606841dfeca58d8ce30b3590,2021-04-03_11h35.01.199,Colour_Similarity_Experiment,2020.2.10,Win32,60,60674ec340277cd6a308bc9f,16.76002703,16.66116438,17.97225,16.76164495,16.64829787,16.76002703,,,,,,,,,,,,,,,,,,,,PF,weak,3,,,,,,,,0,2.0344,,,,,,,,,,,,,,,,,,,,,,,,,,,2,weak,-79,124,1,0,0,response7disk,2,30,-1,-6,1,0,0,rectangle,-1,-6,1,0,0,0,1,0.001795,-1,-6,1,0,0,0,29,29,14,1,0,,,,,,,,,,,,,,,,,,,,,
,,,,,,,,,,,,,,,,,,,,,,,,,,,,,,,,,,,,,,,,,,,5f2af6dc1a903c46dd0e53bd,606841dfeca58d8ce30b3590,2021-04-03_11h35.01.199,Colour_Similarity_Experiment,2020.2.10,Win32,60,60674ec340277cd6a308bc9f,16.76002703,16.66116438,17.97225,16.76164495,16.64829787,16.76002703,,,,,,,,,,,,,,,,,,,,PF,strong,3,,,,,,,,7,1.81617,,,,,,,,,,,,,,,,,,,,,,,,,,,1,strong,64,131,1,0,0,response1disk,8,31,-8,7,1,0,0,rectangle,-8,7,1,0,0,0,3,0.001865,-8,7,1,0,0,0,30,30,27,1,0,,,,,,,,,,,,,,,,,,,,,
,,,,,,,,,,,,,,,,,,,,,,,,,,,,,,,,,,,,,,,,,,,5f2af6dc1a903c46dd0e53bd,606841dfeca58d8ce30b3590,2021-04-03_11h35.01.199,Colour_Similarity_Experiment,2020.2.10,Win32,60,60674ec340277cd6a308bc9f,16.76002703,16.66116438,17.97225,16.76164495,16.64829787,16.76002703,,,,,,,,,,,,,,,,,,,,PF,strong,3,,,,,,,,7,1.534145,,,,,,,,,,,,,,,,,,,,,,,,,,,9,strong,73,133,1,0,0,response1disk,6,32,1,1,1,0,0,rectangle,1,1,1,0,0,0,4,0.001735,1,1,1,0,0,0,31,31,117,1,0,,,,,,,,,,,,,,,,,,,,,
,,,,,,,,,,,,,,,,,,,,,,,,,,,,,,,,,,,,,,,,,,,5f2af6dc1a903c46dd0e53bd,606841dfeca58d8ce30b3590,2021-04-03_11h35.01.199,Colour_Similarity_Experiment,2020.2.10,Win32,60,60674ec340277cd6a308bc9f,16.76002703,16.66116438,17.97225,16.76164495,16.64829787,16.76002703,,,,,,,,,,,,,,,,,,,,PF,weak,3,,,,,,,,7,1.05089,,,,,,,,,,,,,,,,,,,,,,,,,,,7,weak,30,123,1,0,0,response1disk,4,33,5,9,1,0,0,rectangle,5,9,1,0,0,0,6,0.001705,5,9,1,0,0,0,32,32,43,1,0,,,,,,,,,,,,,,,,,,,,,
,,,,,,,,,,,,,,,,,,,,,,,,,,,,,,,,,,,,,,,,,,,5f2af6dc1a903c46dd0e53bd,606841dfeca58d8ce30b3590,2021-04-03_11h35.01.199,Colour_Similarity_Experiment,2020.2.10,Win32,60,60674ec340277cd6a308bc9f,16.76002703,16.66116438,17.97225,16.76164495,16.64829787,16.76002703,,,,,,,,,,,,,,,,,,,,PF,strong,3,,,,,,,,7,1.13319,,,,,,,,,,,,,,,,,,,,,,,,,,,3,strong,64,117,1,0,0,response1disk,7,34,10,-10,1,0,0,rectangle,10,-10,1,0,0,0,3,0.0006,10,-10,1,0,0,0,33,33,118,1,0,,,,,,,,,,,,,,,,,,,,,
,,,,,,,,,,,,,,,,,,,,,,,,,,,,,,,,,,,,,,,,,,,5f2af6dc1a903c46dd0e53bd,606841dfeca58d8ce30b3590,2021-04-03_11h35.01.199,Colour_Similarity_Experiment,2020.2.10,Win32,60,60674ec340277cd6a308bc9f,16.76002703,16.66116438,17.97225,16.76164495,16.64829787,16.76002703,,,,,,,,,,,,,,,,,,,,PF,strong,3,,,,,,,,7,1.180715,,,,,,,,,,,,,,,,,,,,,,,,,,,5,strong,49,109,1,0,0,response1disk,7,35,11,1,1,0,0,rectangle,11,1,1,0,0,0,7,0.00174,11,1,1,0,0,0,34,34,7,1,0,,,,,,,,,,,,,,,,,,,,,
,,,,,,,,,,,,,,,,,,,,,,,,,,,,,,,,,,,,,,,,,,,5f2af6dc1a903c46dd0e53bd,606841dfeca58d8ce30b3590,2021-04-03_11h35.01.199,Colour_Similarity_Experiment,2020.2.10,Win32,60,60674ec340277cd6a308bc9f,16.76002703,16.66116438,17.97225,16.76164495,16.64829787,16.76002703,,,,,,,,,,,,,,,,,,,,PF,weak,3,,,,,,,,0,1.25088,,,,,,,,,,,,,,,,,,,,,,,,,,,6,weak,-77,126,1,0,0,response7disk,7,36,3,9,1,0,0,rectangle,3,9,1,0,0,0,7,6.5E-05,3,9,1,0,0,0,35,35,50,1,0,,,,,,,,,,,,,,,,,,,,,
,,,,,,,,,,,,,,,,,,,,,,,,,,,,,,,,,,,,,,,,,,,5f2af6dc1a903c46dd0e53bd,606841dfeca58d8ce30b3590,2021-04-03_11h35.01.199,Colour_Similarity_Experiment,2020.2.10,Win32,60,60674ec340277cd6a308bc9f,16.76002703,16.66116438,17.97225,16.76164495,16.64829787,16.76002703,,,,,,,,,,,,,,,,,,,,PF,strong,3,,,,,,,,7,1.434025,,,,,,,,,,,,,,,,,,,,,,,,,,,9,strong,59,137,1,0,0,response1disk,9,37,2,-1,1,0,0,rectangle,2,-1,1,0,0,0,4,0.001725,2,-1,1,0,0,0,36,36,17,1,0,,,,,,,,,,,,,,,,,,,,,
,,,,,,,,,,,,,,,,,,,,,,,,,,,,,,,,,,,,,,,,,,,5f2af6dc1a903c46dd0e53bd,606841dfeca58d8ce30b3590,2021-04-03_11h35.01.199,Colour_Similarity_Experiment,2020.2.10,Win32,60,60674ec340277cd6a308bc9f,16.76002703,16.66116438,17.97225,16.76164495,16.64829787,16.76002703,,,,,,,,,,,,,,,,,,,,PF,strong,3,,,,,,,,7,1.85047,,,,,,,,,,,,,,,,,,,,,,,,,,,2,strong,48,130,1,0,0,response1disk,7,38,2,-4,1,0,0,rectangle,2,-4,1,0,0,0,5,0.00177,2,-4,1,0,0,0,37,37,63,1,0,,,,,,,,,,,,,,,,,,,,,
,,,,,,,,,,,,,,,,,,,,,,,,,,,,,,,,,,,,,,,,,,,5f2af6dc1a903c46dd0e53bd,606841dfeca58d8ce30b3590,2021-04-03_11h35.01.199,Colour_Similarity_Experiment,2020.2.10,Win32,60,60674ec340277cd6a308bc9f,16.76002703,16.66116438,17.97225,16.76164495,16.64829787,16.76002703,,,,,,,,,,,,,,,,,,,,PF,strong,3,,,,,,,,3,1.9506,,,,,,,,,,,,,,,,,,,,,,,,,,,9,strong,-44,-85,1,0,0,response5disk,4,39,1,5,1,0,0,rectangle,1,5,1,0,0,0,0,0.00183,1,5,1,0,0,0,38,38,60,1,0,,,,,,,,,,,,,,,,,,,,,
,,,,,,,,,,,,,,,,,,,,,,,,,,,,,,,,,,,,,,,,,,,5f2af6dc1a903c46dd0e53bd,606841dfeca58d8ce30b3590,2021-04-03_11h35.01.199,Colour_Similarity_Experiment,2020.2.10,Win32,60,60674ec340277cd6a308bc9f,16.76002703,16.66116438,17.97225,16.76164495,16.64829787,16.76002703,,,,,,,,,,,,,,,,,,,,PF,weak,3,,,,,,,,7,0.884025,,,,,,,,,,,,,,,,,,,,,,,,,,,9,weak,68,146,1,0,0,response1disk,4,40,3,-5,1,0,0,rectangle,3,-5,1,0,0,0,4,0.00047,3,-5,1,0,0,0,39,39,114,1,0,,,,,,,,,,,,,,,,,,,,,
,,,,,,,,,,,,,,,,,,,,,,,,,,,,,,,,,,,,,,,,,,,5f2af6dc1a903c46dd0e53bd,606841dfeca58d8ce30b3590,2021-04-03_11h35.01.199,Colour_Similarity_Experiment,2020.2.10,Win32,60,60674ec340277cd6a308bc9f,16.76002703,16.66116438,17.97225,16.76164495,16.64829787,16.76002703,,,,,,,,,,,,,,,,,,,,PF,strong,3,,,,,,,,3,2.15049,,,,,,,,,,,,,,,,,,,,,,,,,,,9,strong,-64,-112,1,0,0,response5disk,8,41,1,1,1,0,0,rectangle,1,1,1,0,0,0,1,0.00178,1,1,1,0,0,0,40,40,6,1,0,,,,,,,,,,,,,,,,,,,,,
,,,,,,,,,,,,,,,,,,,,,,,,,,,,,,,,,,,,,,,,,,,5f2af6dc1a903c46dd0e53bd,606841dfeca58d8ce30b3590,2021-04-03_11h35.01.199,Colour_Similarity_Experiment,2020.2.10,Win32,60,60674ec340277cd6a308bc9f,16.76002703,16.66116438,17.97225,16.76164495,16.64829787,16.76002703,,,,,,,,,,,,,,,,,,,,PF,strong,3,,,,,,,,1,4.70012,,,,,,,,,,,,,,,,,,,,,,,,,,,3,strong,-122,61,1,0,0,response7disk,4,42,-2,-3,1,0,0,rectangle,-2,-3,1,0,0,0,1,0.000295,-2,-3,1,0,0,0,41,41,110,1,0,,,,,,,,,,,,,,,,,,,,,
,,,,,,,,,,,,,,,,,,,,,,,,,,,,,,,,,,,,,,,,,,,5f2af6dc1a903c46dd0e53bd,606841dfeca58d8ce30b3590,2021-04-03_11h35.01.199,Colour_Similarity_Experiment,2020.2.10,Win32,60,60674ec340277cd6a308bc9f,16.76002703,16.66116438,17.97225,16.76164495,16.64829787,16.76002703,,,,,,,,,,,,,,,,,,,,PF,strong,3,,,,,,,,0,1.0506,,,,,,,,,,,,,,,,,,,,,,,,,,,4,strong,-52,124,1,0,0,response7disk,4,43,-4,8,1,0,0,rectangle,-4,8,1,0,0,0,7,0.001755,-4,8,1,0,0,0,42,42,84,1,0,,,,,,,,,,,,,,,,,,,,,
,,,,,,,,,,,,,,,,,,,,,,,,,,,,,,,,,,,,,,,,,,,5f2af6dc1a903c46dd0e53bd,606841dfeca58d8ce30b3590,2021-04-03_11h35.01.199,Colour_Similarity_Experiment,2020.2.10,Win32,60,60674ec340277cd6a308bc9f,16.76002703,16.66116438,17.97225,16.76164495,16.64829787,16.76002703,,,,,,,,,,,,,,,,,,,,PF,strong,3,,,,,,,,7,1.18397,,,,,,,,,,,,,,,,,,,,,,,,,,,9,strong,57,116,1,0,0,response1disk,7,44,-6,-2,1,0,0,rectangle,-6,-2,1,0,0,0,4,0.00171,-6,-2,1,0,0,0,43,43,100,1,0,,,,,,,,,,,,,,,,,,,,,
,,,,,,,,,,,,,,,,,,,,,,,,,,,,,,,,,,,,,,,,,,,5f2af6dc1a903c46dd0e53bd,606841dfeca58d8ce30b3590,2021-04-03_11h35.01.199,Colour_Similarity_Experiment,2020.2.10,Win32,60,60674ec340277cd6a308bc9f,16.76002703,16.66116438,17.97225,16.76164495,16.64829787,16.76002703,,,,,,,,,,,,,,,,,,,,PF,weak,3,,,,,,,,7,1.00066,,,,,,,,,,,,,,,,,,,,,,,,,,,3,weak,49,113,1,0,0,response1disk,6,45,-3,4,1,0,0,rectangle,-3,4,1,0,0,0,6,0.00175,-3,4,1,0,0,0,44,44,47,1,0,,,,,,,,,,,,,,,,,,,,,
,,,,,,,,,,,,,,,,,,,,,,,,,,,,,,,,,,,,,,,,,,,5f2af6dc1a903c46dd0e53bd,606841dfeca58d8ce30b3590,2021-04-03_11h35.01.199,Colour_Similarity_Experiment,2020.2.10,Win32,60,60674ec340277cd6a308bc9f,16.76002703,16.66116438,17.97225,16.76164495,16.64829787,16.76002703,,,,,,,,,,,,,,,,,,,,PF,strong,3,,,,,,,,4,1.780645,,,,,,,,,,,,,,,,,,,,,,,,,,,1,strong,72,-113,1,0,0,response3disk,1,46,-1,3,1,0,0,rectangle,-1,3,1,0,0,0,2,0.001825,-1,3,1,0,0,0,45,45,151,1,0,,,,,,,,,,,,,,,,,,,,,
,,,,,,,,,,,,,,,,,,,,,,,,,,,,,,,,,,,,,,,,,,,5f2af6dc1a903c46dd0e53bd,606841dfeca58d8ce30b3590,2021-04-03_11h35.01.199,Colour_Similarity_Experiment,2020.2.10,Win32,60,60674ec340277cd6a308bc9f,16.76002703,16.66116438,17.97225,16.76164495,16.64829787,16.76002703,,,,,,,,,,,,,,,,,,,,PF,weak,3,,,,,,,,7,0.849425,,,,,,,,,,,,,,,,,,,,,,,,,,,2,weak,56,121,1,0,0,response1disk,6,47,1,-2,1,0,0,rectangle,1,-2,1,0,0,0,1,0.001745,1,-2,1,0,0,0,46,46,113,1,0,,,,,,,,,,,,,,,,,,,,,
,,,,,,,,,,,,,,,,,,,,,,,,,,,,,,,,,,,,,,,,,,,5f2af6dc1a903c46dd0e53bd,606841dfeca58d8ce30b3590,2021-04-03_11h35.01.199,Colour_Similarity_Experiment,2020.2.10,Win32,60,60674ec340277cd6a308bc9f,16.76002703,16.66116438,17.97225,16.76164495,16.64829787,16.76002703,,,,,,,,,,,,,,,,,,,,PF,strong,3,,,,,,,,7,1.25051,,,,,,,,,,,,,,,,,,,,,,,,,,,6,strong,32,110,1,0,0,response1disk,7,48,1,-12,1,0,0,rectangle,1,-12,1,0,0,0,1,0.000285,1,-12,1,0,0,0,47,47,18,1,0,,,,,,,,,,,,,,,,,,,,,
,,,,,,,,,,,,,,,,,,,,,,,,,,,,,,,,,,,,,,,,,,,5f2af6dc1a903c46dd0e53bd,606841dfeca58d8ce30b3590,2021-04-03_11h35.01.199,Colour_Similarity_Experiment,2020.2.10,Win32,60,60674ec340277cd6a308bc9f,16.76002703,16.66116438,17.97225,16.76164495,16.64829787,16.76002703,,,,,,,,,,,,,,,,,,,,PF,strong,3,,,,,,,,7,1.130745,,,,,,,,,,,,,,,,,,,,,,,,,,,3,strong,54,122,1,0,0,response1disk,8,49,7,5,1,0,0,rectangle,7,5,1,0,0,0,2,0.00045,7,5,1,0,0,0,48,48,44,1,0,,,,,,,,,,,,,,,,,,,,,
,,,,,,,,,,,,,,,,,,,,,,,,,,,,,,,,,,,,,,,,,,,5f2af6dc1a903c46dd0e53bd,606841dfeca58d8ce30b3590,2021-04-03_11h35.01.199,Colour_Similarity_Experiment,2020.2.10,Win32,60,60674ec340277cd6a308bc9f,16.76002703,16.66116438,17.97225,16.76164495,16.64829787,16.76002703,,,,,,,,,,,,,,,,,,,,PF,strong,3,,,,,,,,2,2.43085,,,,,,,,,,,,,,,,,,,,,,,,,,,8,strong,-116,-71,1,0,0,response5disk,8,50,-12,7,1,0,0,rectangle,-12,7,1,0,0,0,5,0.001685,-12,7,1,0,0,0,49,49,48,1,0,,,,,,,,,,,,,,,,,,,,,
,,,,,,,,,,,,,,,,,,,,,,,,,,,,,,,,,,,,,,,,,,,5f2af6dc1a903c46dd0e53bd,606841dfeca58d8ce30b3590,2021-04-03_11h35.01.199,Colour_Similarity_Experiment,2020.2.10,Win32,60,60674ec340277cd6a308bc9f,16.76002703,16.66116438,17.97225,16.76164495,16.64829787,16.76002703,,,,,,,,,,,,,,,,,,,,PF,strong,3,,,,,,,,7,1.564205,,,,,,,,,,,,,,,,,,,,,,,,,,,2,strong,39,115,1,0,0,response1disk,2,51,-2,-3,1,0,0,rectangle,-2,-3,1,0,0,0,1,0.00172,-2,-3,1,0,0,0,50,50,142,1,0,,,,,,,,,,,,,,,,,,,,,
,,,,,,,,,,,,,,,,,,,,,,,,,,,,,,,,,,,,,,,,,,,5f2af6dc1a903c46dd0e53bd,606841dfeca58d8ce30b3590,2021-04-03_11h35.01.199,Colour_Similarity_Experiment,2020.2.10,Win32,60,60674ec340277cd6a308bc9f,16.76002703,16.66116438,17.97225,16.76164495,16.64829787,16.76002703,,,,,,,,,,,,,,,,,,,,PF,weak,3,,,,,,,,7,0.797315,,,,,,,,,,,,,,,,,,,,,,,,,,,9,weak,58,138,1,0,0,response1disk,2,52,3,6,1,0,0,rectangle,3,6,1,0,0,0,1,0.000265,3,6,1,0,0,0,51,51,157,1,0,,,,,,,,,,,,,,,,,,,,,
,,,,,,,,,,,,,,,,,,,,,,,,,,,,,,,,,,,,,,,,,,,5f2af6dc1a903c46dd0e53bd,606841dfeca58d8ce30b3590,2021-04-03_11h35.01.199,Colour_Similarity_Experiment,2020.2.10,Win32,60,60674ec340277cd6a308bc9f,16.76002703,16.66116438,17.97225,16.76164495,16.64829787,16.76002703,,,,,,,,,,,,,,,,,,,,PF,strong,3,,,,,,,,7,1.91416,,,,,,,,,,,,,,,,,,,,,,,,,,,8,strong,42,121,1,0,0,response1disk,3,53,-9,3,1,0,0,rectangle,-9,3,1,0,0,0,0,0.00169,-9,3,1,0,0,0,52,52,154,1,0,,,,,,,,,,,,,,,,,,,,,
,,,,,,,,,,,,,,,,,,,,,,,,,,,,,,,,,,,,,,,,,,,5f2af6dc1a903c46dd0e53bd,606841dfeca58d8ce30b3590,2021-04-03_11h35.01.199,Colour_Similarity_Experiment,2020.2.10,Win32,60,60674ec340277cd6a308bc9f,16.76002703,16.66116438,17.97225,16.76164495,16.64829787,16.76002703,,,,,,,,,,,,,,,,,,,,PF,weak,3,,,,,,,,7,0.91731,,,,,,,,,,,,,,,,,,,,,,,,,,,1,weak,64,120,1,0,0,response1disk,3,54,-1,0,1,0,0,rectangle,-1,0,1,0,0,0,0,0.000265,-1,0,1,0,0,0,53,53,1,1,0,,,,,,,,,,,,,,,,,,,,,
,,,,,,,,,,,,,,,,,,,,,,,,,,,,,,,,,,,,,,,,,,,5f2af6dc1a903c46dd0e53bd,606841dfeca58d8ce30b3590,2021-04-03_11h35.01.199,Colour_Similarity_Experiment,2020.2.10,Win32,60,60674ec340277cd6a308bc9f,16.76002703,16.66116438,17.97225,16.76164495,16.64829787,16.76002703,,,,,,,,,,,,,,,,,,,,PF,strong,3,,,,,,,,7,1.051085,,,,,,,,,,,,,,,,,,,,,,,,,,,5,strong,59,121,1,0,0,response1disk,1,55,-6,7,1,0,0,rectangle,-6,7,1,0,0,0,7,0.00169,-6,7,1,0,0,0,54,54,131,1,0,,,,,,,,,,,,,,,,,,,,,
,,,,,,,,,,,,,,,,,,,,,,,,,,,,,,,,,,,,,,,,,,,5f2af6dc1a903c46dd0e53bd,606841dfeca58d8ce30b3590,2021-04-03_11h35.01.199,Colour_Similarity_Experiment,2020.2.10,Win32,60,60674ec340277cd6a308bc9f,16.76002703,16.66116438,17.97225,16.76164495,16.64829787,16.76002703,,,,,,,,,,,,,,,,,,,,PF,strong,3,,,,,,,,7,1.78395,,,,,,,,,,,,,,,,,,,,,,,,,,,2,strong,36,90,1,0,0,response1disk,6,56,-9,-3,1,0,0,rectangle,-9,-3,1,0,0,0,0,0.00168,-9,-3,1,0,0,0,55,55,40,1,0,,,,,,,,,,,,,,,,,,,,,
,,,,,,,,,,,,,,,,,,,,,,,,,,,,,,,,,,,,,,,,,,,5f2af6dc1a903c46dd0e53bd,606841dfeca58d8ce30b3590,2021-04-03_11h35.01.199,Colour_Similarity_Experiment,2020.2.10,Win32,60,60674ec340277cd6a308bc9f,16.76002703,16.66116438,17.97225,16.76164495,16.64829787,16.76002703,,,,,,,,,,,,,,,,,,,,PF,strong,3,,,,,,,,4,3.11721,,,,,,,,,,,,,,,,,,,,,,,,,,,5,strong,85,-114,1,0,0,response3disk,5,57,-3,7,1,0,0,rectangle,-3,7,1,0,0,0,1,0.002865,-3,7,1,0,0,0,56,56,19,1,0,,,,,,,,,,,,,,,,,,,,,
,,,,,,,,,,,,,,,,,,,,,,,,,,,,,,,,,,,,,,,,,,,5f2af6dc1a903c46dd0e53bd,606841dfeca58d8ce30b3590,2021-04-03_11h35.01.199,Colour_Similarity_Experiment,2020.2.10,Win32,60,60674ec340277cd6a308bc9f,16.76002703,16.66116438,17.97225,16.76164495,16.64829787,16.76002703,,,,,,,,,,,,,,,,,,,,PF,strong,3,,,,,,,,7,1.20058,,,,,,,,,,,,,,,,,,,,,,,,,,,4,strong,53,126,1,0,0,response1disk,6,58,-1,-3,1,0,0,rectangle,-1,-3,1,0,0,0,7,0.001935,-1,-3,1,0,0,0,57,57,122,1,0,,,,,,,,,,,,,,,,,,,,,
,,,,,,,,,,,,,,,,,,,,,,,,,,,,,,,,,,,,,,,,,,,5f2af6dc1a903c46dd0e53bd,606841dfeca58d8ce30b3590,2021-04-03_11h35.01.199,Colour_Similarity_Experiment,2020.2.10,Win32,60,60674ec340277cd6a308bc9f,16.76002703,16.66116438,17.97225,16.76164495,16.64829787,16.76002703,,,,,,,,,,,,,,,,,,,,PF,strong,3,,,,,,,,7,1.70179,,,,,,,,,,,,,,,,,,,,,,,,,,,8,strong,43,112,1,0,0,response1disk,2,59,-6,9,1,0,0,rectangle,-6,9,1,0,0,0,2,0.00042,-6,9,1,0,0,0,58,58,22,1,0,,,,,,,,,,,,,,,,,,,,,
,,,,,,,,,,,,,,,,,,,,,,,,,,,,,,,,,,,,,,,,,,,5f2af6dc1a903c46dd0e53bd,606841dfeca58d8ce30b3590,2021-04-03_11h35.01.199,Colour_Similarity_Experiment,2020.2.10,Win32,60,60674ec340277cd6a308bc9f,16.76002703,16.66116438,17.97225,16.76164495,16.64829787,16.76002703,,,,,,,,,,,,,,,,,,,,PF,weak,3,,,,,,,,7,1.449835,,,,,,,,,,,,,,,,,,,,,,,,,,,5,weak,57,130,1,0,0,response1disk,2,60,-9,8,1,0,0,rectangle,-9,8,1,0,0,0,2,6E-05,-9,8,1,0,0,0,59,59,129,1,0,,,,,,,,,,,,,,,,,,,,,
,,,,,,,,,,,,,,,,,,,,,,,,,,,,,,,,,,,,,,,,,,,5f2af6dc1a903c46dd0e53bd,606841dfeca58d8ce30b3590,2021-04-03_11h35.01.199,Colour_Similarity_Experiment,2020.2.10,Win32,60,60674ec340277cd6a308bc9f,16.76002703,16.66116438,17.97225,16.76164495,16.64829787,16.76002703,,,,,,,,,,,,,,,,,,,,PF,weak,3,,,,,,,,1,2.88301,,,,,,,,,,,,,,,,,,,,,,,,,,,4,weak,-114,75,1,0,0,response7disk,3,61,2,4,1,0,0,rectangle,2,4,1,0,0,0,4,0.00042,2,4,1,0,0,0,60,60,89,1,0,,,,,,,,,,,,,,,,,,,,,
,,,,,,,,,,,,,,,,,,,,,,,,,,,,,,,,,,,,,,,,,,,5f2af6dc1a903c46dd0e53bd,606841dfeca58d8ce30b3590,2021-04-03_11h35.01.199,Colour_Similarity_Experiment,2020.2.10,Win32,60,60674ec340277cd6a308bc9f,16.76002703,16.66116438,17.97225,16.76164495,16.64829787,16.76002703,,,,,,,,,,,,,,,,,,,,PF,weak,3,,,,,,,,0,1.06647,,,,,,,,,,,,,,,,,,,,,,,,,,,5,weak,-64,137,1,0,0,response7disk,5,62,-5,9,1,0,0,rectangle,-5,9,1,0,0,0,3,0.00042,-5,9,1,0,0,0,61,61,94,1,0,,,,,,,,,,,,,,,,,,,,,
,,,,,,,,,,,,,,,,,,,,,,,,,,,,,,,,,,,,,,,,,,,5f2af6dc1a903c46dd0e53bd,606841dfeca58d8ce30b3590,2021-04-03_11h35.01.199,Colour_Similarity_Experiment,2020.2.10,Win32,60,60674ec340277cd6a308bc9f,16.76002703,16.66116438,17.97225,16.76164495,16.64829787,16.76002703,,,,,,,,,,,,,,,,,,,,PF,weak,3,,,,,,,,0,0.916325,,,,,,,,,,,,,,,,,,,,,,,,,,,3,weak,-66,118,1,0,0,response7disk,4,63,-7,8,1,0,0,rectangle,-7,8,1,0,0,0,2,0.00042,-7,8,1,0,0,0,62,62,30,1,0,,,,,,,,,,,,,,,,,,,,,
,,,,,,,,,,,,,,,,,,,,,,,,,,,,,,,,,,,,,,,,,,,5f2af6dc1a903c46dd0e53bd,606841dfeca58d8ce30b3590,2021-04-03_11h35.01.199,Colour_Similarity_Experiment,2020.2.10,Win32,60,60674ec340277cd6a308bc9f,16.76002703,16.66116438,17.97225,16.76164495,16.64829787,16.76002703,,,,,,,,,,,,,,,,,,,,PF,strong,3,,,,,,,,2,2.566365,,,,,,,,,,,,,,,,,,,,,,,,,,,7,strong,-108,-60,1,0,0,response5disk,6,64,15,13,1,0,0,rectangle,15,13,1,0,0,0,0,0.000445,15,13,1,0,0,0,63,63,31,1,0,,,,,,,,,,,,,,,,,,,,,
,,,,,,,,,,,,,,,,,,,,,,,,,,,,,,,,,,,,,,,,,,,5f2af6dc1a903c46dd0e53bd,606841dfeca58d8ce30b3590,2021-04-03_11h35.01.199,Colour_Similarity_Experiment,2020.2.10,Win32,60,60674ec340277cd6a308bc9f,16.76002703,16.66116438,17.97225,16.76164495,16.64829787,16.76002703,,,,,,,,,,,,,,,,,,,,PF,weak,3,,,,,,,,7,0.749705,,,,,,,,,,,,,,,,,,,,,,,,,,,9,weak,51,121,1,0,0,response1disk,3,65,5,-4,1,0,0,rectangle,5,-4,1,0,0,0,7,0.000415,5,-4,1,0,0,0,64,64,119,1,0,,,,,,,,,,,,,,,,,,,,,
,,,,,,,,,,,,,,,,,,,,,,,,,,,,,,,,,,,,,,,,,,,5f2af6dc1a903c46dd0e53bd,606841dfeca58d8ce30b3590,2021-04-03_11h35.01.199,Colour_Similarity_Experiment,2020.2.10,Win32,60,60674ec340277cd6a308bc9f,16.76002703,16.66116438,17.97225,16.76164495,16.64829787,16.76002703,,,,,,,,,,,,,,,,,,,,PF,weak,3,,,,,,,,7,1.033135,,,,,,,,,,,,,,,,,,,,,,,,,,,5,weak,43,123,1,0,0,response1disk,9,66,-6,7,1,0,0,rectangle,-42,112,1,0,0,0,0,1.650125,2,6,1,0,0,0,65,65,136,1,1,response7disk_3,rectangle,,,,,,,,,,,,,,,,,,,
,,,,,,,,,,,,,,,,,,,,,,,,,,,,,,,,,,,,,,,,,,,5f2af6dc1a903c46dd0e53bd,606841dfeca58d8ce30b3590,2021-04-03_11h35.01.199,Colour_Similarity_Experiment,2020.2.10,Win32,60,60674ec340277cd6a308bc9f,16.76002703,16.66116438,17.97225,16.76164495,16.64829787,16.76002703,,,,,,,,,,,,,,,,,,,,PF,strong,3,,,,,,,,3,1.43261,,,,,,,,,,,,,,,,,,,,,,,,,,,3,strong,-47,-125,1,0,0,response5disk,5,67,-8,4,1,0,0,rectangle,-8,4,1,0,0,0,6,0.000465,-8,4,1,0,0,0,66,66,101,1,0,,,,,,,,,,,,,,,,,,,,,
,,,,,,,,,,,,,,,,,,,,,,,,,,,,,,,,,,,,,,,,,,,5f2af6dc1a903c46dd0e53bd,606841dfeca58d8ce30b3590,2021-04-03_11h35.01.199,Colour_Similarity_Experiment,2020.2.10,Win32,60,60674ec340277cd6a308bc9f,16.76002703,16.66116438,17.97225,16.76164495,16.64829787,16.76002703,,,,,,,,,,,,,,,,,,,,PF,weak,3,,,,,,,,7,0.833145,,,,,,,,,,,,,,,,,,,,,,,,,,,8,weak,53,135,1,0,0,response1disk,5,68,5,2,1,0,0,rectangle,5,2,1,0,0,0,1,0.000435,5,2,1,0,0,0,67,67,98,1,0,,,,,,,,,,,,,,,,,,,,,
,,,,,,,,,,,,,,,,,,,,,,,,,,,,,,,,,,,,,,,,,,,5f2af6dc1a903c46dd0e53bd,606841dfeca58d8ce30b3590,2021-04-03_11h35.01.199,Colour_Similarity_Experiment,2020.2.10,Win32,60,60674ec340277cd6a308bc9f,16.76002703,16.66116438,17.97225,16.76164495,16.64829787,16.76002703,,,,,,,,,,,,,,,,,,,,PF,weak,3,,,,,,,,7,0.96649,,,,,,,,,,,,,,,,,,,,,,,,,,,8,weak,46,140,1,0,0,response1disk,7,69,-1,11,1,0,0,rectangle,-1,11,1,0,0,0,5,0.000455,-1,11,1,0,0,0,68,68,23,1,0,,,,,,,,,,,,,,,,,,,,,
,,,,,,,,,,,,,,,,,,,,,,,,,,,,,,,,,,,,,,,,,,,5f2af6dc1a903c46dd0e53bd,606841dfeca58d8ce30b3590,2021-04-03_11h35.01.199,Colour_Similarity_Experiment,2020.2.10,Win32,60,60674ec340277cd6a308bc9f,16.76002703,16.66116438,17.97225,16.76164495,16.64829787,16.76002703,,,,,,,,,,,,,,,,,,,,PF,weak,3,,,,,,,,7,1.016465,,,,,,,,,,,,,,,,,,,,,,,,,,,2,weak,64,135,1,0,0,response1disk,4,70,-5,2,1,0,0,rectangle,-5,2,1,0,0,0,2,0.00047,-5,2,1,0,0,0,69,69,127,1,0,,,,,,,,,,,,,,,,,,,,,
,,,,,,,,,,,,,,,,,,,,,,,,,,,,,,,,,,,,,,,,,,,5f2af6dc1a903c46dd0e53bd,606841dfeca58d8ce30b3590,2021-04-03_11h35.01.199,Colour_Similarity_Experiment,2020.2.10,Win32,60,60674ec340277cd6a308bc9f,16.76002703,16.66116438,17.97225,16.76164495,16.64829787,16.76002703,,,,,,,,,,,,,,,,,,,,PF,strong,3,,,,,,,,7,1.232815,,,,,,,,,,,,,,,,,,,,,,,,,,,1,strong,51,125,1,0,0,response1disk,5,71,2,-5,1,0,0,rectangle,2,-5,1,0,0,0,1,0.00043,2,-5,1,0,0,0,70,70,82,1,0,,,,,,,,,,,,,,,,,,,,,
,,,,,,,,,,,,,,,,,,,,,,,,,,,,,,,,,,,,,,,,,,,5f2af6dc1a903c46dd0e53bd,606841dfeca58d8ce30b3590,2021-04-03_11h35.01.199,Colour_Similarity_Experiment,2020.2.10,Win32,60,60674ec340277cd6a308bc9f,16.76002703,16.66116438,17.97225,16.76164495,16.64829787,16.76002703,,,,,,,,,,,,,,,,,,,,PF,strong,3,,,,,,,,7,1.59969,,,,,,,,,,,,,,,,,,,,,,,,,,,1,strong,32,114,1,0,0,response1disk,6,72,-4,0,1,0,0,rectangle,-4,0,1,0,0,0,1,5.52E-05,-4,0,1,0,0,0,71,71,58,1,0,,,,,,,,,,,,,,,,,,,,,
,,,,,,,,,,,,,,,,,,,,,,,,,,,,,,,,,,,,,,,,,,,5f2af6dc1a903c46dd0e53bd,606841dfeca58d8ce30b3590,2021-04-03_11h35.01.199,Colour_Similarity_Experiment,2020.2.10,Win32,60,60674ec340277cd6a308bc9f,16.76002703,16.66116438,17.97225,16.76164495,16.64829787,16.76002703,,,,,,,,,,,,,,,,,,,,PF,weak,3,,,,,,,,7,0.883075,,,,,,,,,,,,,,,,,,,,,,,,,,,8,weak,59,124,1,0,0,response1disk,3,73,5,0,1,0,0,rectangle,5,0,1,0,0,0,3,0.000435,5,0,1,0,0,0,72,72,71,1,0,,,,,,,,,,,,,,,,,,,,,
,,,,,,,,,,,,,,,,,,,,,,,,,,,,,,,,,,,,,,,,,,,5f2af6dc1a903c46dd0e53bd,606841dfeca58d8ce30b3590,2021-04-03_11h35.01.199,Colour_Similarity_Experiment,2020.2.10,Win32,60,60674ec340277cd6a308bc9f,16.76002703,16.66116438,17.97225,16.76164495,16.64829787,16.76002703,,,,,,,,,,,,,,,,,,,,PF,strong,3,,,,,,,,7,0.933025,,,,,,,,,,,,,,,,,,,,,,,,,,,4,strong,50,113,1,0,0,response1disk,3,74,-7,2,1,0,0,rectangle,-7,2,1,0,0,0,3,6E-05,-7,2,1,0,0,0,73,73,77,1,0,,,,,,,,,,,,,,,,,,,,,
,,,,,,,,,,,,,,,,,,,,,,,,,,,,,,,,,,,,,,,,,,,5f2af6dc1a903c46dd0e53bd,606841dfeca58d8ce30b3590,2021-04-03_11h35.01.199,Colour_Similarity_Experiment,2020.2.10,Win32,60,60674ec340277cd6a308bc9f,16.76002703,16.66116438,17.97225,16.76164495,16.64829787,16.76002703,,,,,,,,,,,,,,,,,,,,PF,strong,3,,,,,,,,7,1.613345,,,,,,,,,,,,,,,,,,,,,,,,,,,1,strong,48,78,1,0,0,response1disk,3,75,-1,5,1,0,0,rectangle,-1,5,1,0,0,0,2,0.00043,-1,5,1,0,0,0,74,74,99,1,0,,,,,,,,,,,,,,,,,,,,,
,,,,,,,,,,,,,,,,,,,,,,,,,,,,,,,,,,,,,,,,,,,5f2af6dc1a903c46dd0e53bd,606841dfeca58d8ce30b3590,2021-04-03_11h35.01.199,Colour_Similarity_Experiment,2020.2.10,Win32,60,60674ec340277cd6a308bc9f,16.76002703,16.66116438,17.97225,16.76164495,16.64829787,16.76002703,,,,,,,,,,,,,,,,,,,,PF,weak,3,,,,,,,,7,1.2162,,,,,,,,,,,,,,,,,,,,,,,,,,,3,weak,40,136,1,0,0,response1disk,1,76,-2,6,1,0,0,rectangle,-2,6,1,0,0,0,2,5.52E-05,-2,6,1,0,0,0,75,75,96,1,0,,,,,,,,,,,,,,,,,,,,,
,,,,,,,,,,,,,,,,,,,,,,,,,,,,,,,,,,,,,,,,,,,5f2af6dc1a903c46dd0e53bd,606841dfeca58d8ce30b3590,2021-04-03_11h35.01.199,Colour_Similarity_Experiment,2020.2.10,Win32,60,60674ec340277cd6a308bc9f,16.76002703,16.66116438,17.97225,16.76164495,16.64829787,16.76002703,,,,,,,,,,,,,,,,,,,,PF,strong,3,,,,,,,,0,1.34964,,,,,,,,,,,,,,,,,,,,,,,,,,,7,strong,-65,121,1,0,0,response7disk,7,77,-6,-7,1,0,0,rectangle,-6,-7,1,0,0,0,6,0.000425,-6,-7,1,0,0,0,76,76,34,1,0,,,,,,,,,,,,,,,,,,,,,
,,,,,,,,,,,,,,,,,,,,,,,,,,,,,,,,,,,,,,,,,,,5f2af6dc1a903c46dd0e53bd,606841dfeca58d8ce30b3590,2021-04-03_11h35.01.199,Colour_Similarity_Experiment,2020.2.10,Win32,60,60674ec340277cd6a308bc9f,16.76002703,16.66116438,17.97225,16.76164495,16.64829787,16.76002703,,,,,,,,,,,,,,,,,,,,PF,strong,3,,,,,,,,7,1.332975,,,,,,,,,,,,,,,,,,,,,,,,,,,8,strong,58,122,1,0,0,response1disk,4,78,1,1,1,0,0,rectangle,1,1,1,0,0,0,3,0.00045,1,1,1,0,0,0,77,77,88,1,0,,,,,,,,,,,,,,,,,,,,,
,,,,,,,,,,,,,,,,,,,,,,,,,,,,,,,,,,,,,,,,,,,5f2af6dc1a903c46dd0e53bd,606841dfeca58d8ce30b3590,2021-04-03_11h35.01.199,Colour_Similarity_Experiment,2020.2.10,Win32,60,60674ec340277cd6a308bc9f,16.76002703,16.66116438,17.97225,16.76164495,16.64829787,16.76002703,,,,,,,,,,,,,,,,,,,,PF,weak,3,,,,,,,,7,1.016245,,,,,,,,,,,,,,,,,,,,,,,,,,,3,weak,37,91,1,0,0,response1disk,8,79,-1,-8,1,0,0,rectangle,-1,-8,1,0,0,0,6,0.000415,-1,-8,1,0,0,0,78,78,3,1,0,,,,,,,,,,,,,,,,,,,,,
,,,,,,,,,,,,,,,,,,,,,,,,,,,,,,,,,,,,,,,,,,,5f2af6dc1a903c46dd0e53bd,606841dfeca58d8ce30b3590,2021-04-03_11h35.01.199,Colour_Similarity_Experiment,2020.2.10,Win32,60,60674ec340277cd6a308bc9f,16.76002703,16.66116438,17.97225,16.76164495,16.64829787,16.76002703,,,,,,,,,,,,,,,,,,,,PF,strong,3,,,,,,,,7,1.932945,,,,,,,,,,,,,,,,,,,,,,,,,,,5,strong,57,129,1,0,0,response1disk,6,80,-5,5,1,0,0,rectangle,-5,5,1,0,0,0,0,0.00044,-5,5,1,0,0,0,79,79,12,1,0,,,,,,,,,,,,,,,,,,,,,
,,,,,,,,,,,,,,,,,,,,,,,,,,,,,,,,,,,,,,,,,,,5f2af6dc1a903c46dd0e53bd,606841dfeca58d8ce30b3590,2021-04-03_11h35.01.199,Colour_Similarity_Experiment,2020.2.10,Win32,60,60674ec340277cd6a308bc9f,16.76002703,16.66116438,17.97225,16.76164495,16.64829787,16.76002703,,,,,,,,,,,,,,,,,,,,PF,weak,3,,,,,,,,7,0.899815,,,,,,,,,,,,,,,,,,,,,,,,,,,3,weak,50,117,1,0,0,response1disk,7,81,-6,-5,1,0,0,rectangle,-6,-5,1,0,0,0,0,6E-05,-6,-5,1,0,0,0,80,80,41,1,0,,,,,,,,,,,,,,,,,,,,,
,,,,,,,,,,,,,,,,,,,,,,,,,,,,,,,,,,,,,,,,,,,5f2af6dc1a903c46dd0e53bd,606841dfeca58d8ce30b3590,2021-04-03_11h35.01.199,Colour_Similarity_Experiment,2020.2.10,Win32,60,60674ec340277cd6a308bc9f,16.76002703,16.66116438,17.97225,16.76164495,16.64829787,16.76002703,,,,,,,,,,,,,,,,,,,,PF,strong,3,,,,,,,,7,1.48275,,,,,,,,,,,,,,,,,,,,,,,,,,,8,strong,55,128,1,0,0,response1disk,7,82,5,5,1,0,0,rectangle,5,5,1,0,0,0,1,0.002185,5,5,1,0,0,0,81,81,86,1,0,,,,,,,,,,,,,,,,,,,,,
,,,,,,,,,,,,,,,,,,,,,,,,,,,,,,,,,,,,,,,,,,,5f2af6dc1a903c46dd0e53bd,606841dfeca58d8ce30b3590,2021-04-03_11h35.01.199,Colour_Similarity_Experiment,2020.2.10,Win32,60,60674ec340277cd6a308bc9f,16.76002703,16.66116438,17.97225,16.76164495,16.64829787,16.76002703,,,,,,,,,,,,,,,,,,,,PF,weak,3,,,,,,,,3,1.916365,,,,,,,,,,,,,,,,,,,,,,,,,,,8,weak,-73,-104,1,0,0,response5disk,9,83,-11,12,1,0,0,rectangle,-11,12,1,0,0,0,5,0.00042,-11,12,1,0,0,0,82,82,42,1,0,,,,,,,,,,,,,,,,,,,,,
,,,,,,,,,,,,,,,,,,,,,,,,,,,,,,,,,,,,,,,,,,,5f2af6dc1a903c46dd0e53bd,606841dfeca58d8ce30b3590,2021-04-03_11h35.01.199,Colour_Similarity_Experiment,2020.2.10,Win32,60,60674ec340277cd6a308bc9f,16.76002703,16.66116438,17.97225,16.76164495,16.64829787,16.76002703,,,,,,,,,,,,,,,,,,,,PF,weak,3,,,,,,,,7,0.84975,,,,,,,,,,,,,,,,,,,,,,,,,,,1,weak,69,134,1,0,0,response1disk,7,84,-6,6,1,0,0,rectangle,-6,6,1,0,0,0,1,0.000445,-6,6,1,0,0,0,83,83,150,1,0,,,,,,,,,,,,,,,,,,,,,
,,,,,,,,,,,,,,,,,,,,,,,,,,,,,,,,,,,,,,,,,,,5f2af6dc1a903c46dd0e53bd,606841dfeca58d8ce30b3590,2021-04-03_11h35.01.199,Colour_Similarity_Experiment,2020.2.10,Win32,60,60674ec340277cd6a308bc9f,16.76002703,16.66116438,17.97225,16.76164495,16.64829787,16.76002703,,,,,,,,,,,,,,,,,,,,PF,weak,3,,,,,,,,7,1.249875,,,,,,,,,,,,,,,,,,,,,,,,,,,7,weak,62,129,1,0,0,response1disk,1,85,-4,11,1,0,0,rectangle,-4,11,1,0,0,0,2,0.000415,-4,11,1,0,0,0,84,84,53,1,0,,,,,,,,,,,,,,,,,,,,,
,,,,,,,,,,,,,,,,,,,,,,,,,,,,,,,,,,,,,,,,,,,5f2af6dc1a903c46dd0e53bd,606841dfeca58d8ce30b3590,2021-04-03_11h35.01.199,Colour_Similarity_Experiment,2020.2.10,Win32,60,60674ec340277cd6a308bc9f,16.76002703,16.66116438,17.97225,16.76164495,16.64829787,16.76002703,,,,,,,,,,,,,,,,,,,,PF,strong,3,,,,,,,,7,2.86631,,,,,,,,,,,,,,,,,,,,,,,,,,,8,strong,51,119,1,0,0,response1disk,6,86,1,-2,1,0,0,rectangle,1,-2,1,0,0,0,7,0.000415,1,-2,1,0,0,0,85,85,37,1,0,,,,,,,,,,,,,,,,,,,,,
,,,,,,,,,,,,,,,,,,,,,,,,,,,,,,,,,,,,,,,,,,,5f2af6dc1a903c46dd0e53bd,606841dfeca58d8ce30b3590,2021-04-03_11h35.01.199,Colour_Similarity_Experiment,2020.2.10,Win32,60,60674ec340277cd6a308bc9f,16.76002703,16.66116438,17.97225,16.76164495,16.64829787,16.76002703,,,,,,,,,,,,,,,,,,,,PF,weak,3,,,,,,,,3,2.916205,,,,,,,,,,,,,,,,,,,,,,,,,,,7,weak,-52,-132,1,0,0,response5disk,5,87,0,4,1,0,0,rectangle,0,4,1,0,0,0,1,0.000415,0,4,1,0,0,0,86,86,92,1,0,,,,,,,,,,,,,,,,,,,,,
,,,,,,,,,,,,,,,,,,,,,,,,,,,,,,,,,,,,,,,,,,,5f2af6dc1a903c46dd0e53bd,606841dfeca58d8ce30b3590,2021-04-03_11h35.01.199,Colour_Similarity_Experiment,2020.2.10,Win32,60,60674ec340277cd6a308bc9f,16.76002703,16.66116438,17.97225,16.76164495,16.64829787,16.76002703,,,,,,,,,,,,,,,,,,,,PF,strong,3,,,,,,,,7,2.183095,,,,,,,,,,,,,,,,,,,,,,,,,,,2,strong,47,123,1,0,0,response1disk,5,88,-11,-6,1,0,0,rectangle,-11,-6,1,0,0,0,6,0.00043,-11,-6,1,0,0,0,87,87,80,1,0,,,,,,,,,,,,,,,,,,,,,
,,,,,,,,,,,,,,,,,,,,,,,,,,,,,,,,,,,,,,,,,,,5f2af6dc1a903c46dd0e53bd,606841dfeca58d8ce30b3590,2021-04-03_11h35.01.199,Colour_Similarity_Experiment,2020.2.10,Win32,60,60674ec340277cd6a308bc9f,16.76002703,16.66116438,17.97225,16.76164495,16.64829787,16.76002703,,,,,,,,,,,,,,,,,,,,PF,weak,3,,,,,,,,7,1.01651,,,,,,,,,,,,,,,,,,,,,,,,,,,7,weak,37,106,1,0,0,response1disk,9,89,1,7,1,0,0,rectangle,1,7,1,0,0,0,1,0.00045,1,7,1,0,0,0,88,88,10,1,0,,,,,,,,,,,,,,,,,,,,,
,,,,,,,,,,,,,,,,,,,,,,,,,,,,,,,,,,,,,,,,,,,5f2af6dc1a903c46dd0e53bd,606841dfeca58d8ce30b3590,2021-04-03_11h35.01.199,Colour_Similarity_Experiment,2020.2.10,Win32,60,60674ec340277cd6a308bc9f,16.76002703,16.66116438,17.97225,16.76164495,16.64829787,16.76002703,,,,,,,,,,,,,,,,,,,,PF,strong,3,,,,,,,,7,1.216375,,,,,,,,,,,,,,,,,,,,,,,,,,,2,strong,57,107,1,0,0,response1disk,4,90,5,-3,1,0,0,rectangle,5,-3,1,0,0,0,6,0.000425,5,-3,1,0,0,0,89,89,145,1,0,,,,,,,,,,,,,,,,,,,,,
,,,,,,,,,,,,,,,,,,,,,,,,,,,,,,,,,,,,,,,,,,,5f2af6dc1a903c46dd0e53bd,606841dfeca58d8ce30b3590,2021-04-03_11h35.01.199,Colour_Similarity_Experiment,2020.2.10,Win32,60,60674ec340277cd6a308bc9f,16.76002703,16.66116438,17.97225,16.76164495,16.64829787,16.76002703,,,,,,,,,,,,,,,,,,,,PF,strong,3,,,,,,,,7,1.66639,,,,,,,,,,,,,,,,,,,,,,,,,,,7,strong,41,107,1,0,0,response1disk,3,91,-6,-8,1,0,0,rectangle,-6,-8,1,0,0,0,6,6.5E-05,-6,-8,1,0,0,0,90,90,73,1,0,,,,,,,,,,,,,,,,,,,,,
,,,,,,,,,,,,,,,,,,,,,,,,,,,,,,,,,,,,,,,,,,,5f2af6dc1a903c46dd0e53bd,606841dfeca58d8ce30b3590,2021-04-03_11h35.01.199,Colour_Similarity_Experiment,2020.2.10,Win32,60,60674ec340277cd6a308bc9f,16.76002703,16.66116438,17.97225,16.76164495,16.64829787,16.76002703,,,,,,,,,,,,,,,,,,,,PF,weak,3,,,,,,,,7,1.182955,,,,,,,,,,,,,,,,,,,,,,,,,,,5,weak,41,100,1,0,0,response1disk,8,92,0,-3,1,0,0,rectangle,0,-3,1,0,0,0,4,0.000575,0,-3,1,0,0,0,91,91,149,1,0,,,,,,,,,,,,,,,,,,,,,
,,,,,,,,,,,,,,,,,,,,,,,,,,,,,,,,,,,,,,,,,,,5f2af6dc1a903c46dd0e53bd,606841dfeca58d8ce30b3590,2021-04-03_11h35.01.199,Colour_Similarity_Experiment,2020.2.10,Win32,60,60674ec340277cd6a308bc9f,16.76002703,16.66116438,17.97225,16.76164495,16.64829787,16.76002703,,,,,,,,,,,,,,,,,,,,PF,weak,3,,,,,,,,3,3.166285,,,,,,,,,,,,,,,,,,,,,,,,,,,3,weak,-63,-131,1,0,0,response5disk,5,93,-1,2,1,0,0,rectangle,-1,2,1,0,0,0,6,0.00042,-1,2,1,0,0,0,92,92,66,1,0,,,,,,,,,,,,,,,,,,,,,
,,,,,,,,,,,,,,,,,,,,,,,,,,,,,,,,,,,,,,,,,,,5f2af6dc1a903c46dd0e53bd,606841dfeca58d8ce30b3590,2021-04-03_11h35.01.199,Colour_Similarity_Experiment,2020.2.10,Win32,60,60674ec340277cd6a308bc9f,16.76002703,16.66116438,17.97225,16.76164495,16.64829787,16.76002703,,,,,,,,,,,,,,,,,,,,PF,weak,3,,,,,,,,7,0.81635,,,,,,,,,,,,,,,,,,,,,,,,,,,1,weak,38,88,1,0,0,response1disk,8,94,-2,-17,1,0,0,rectangle,-2,-17,1,0,0,0,4,0.00042,-2,-17,1,0,0,0,93,93,65,1,0,,,,,,,,,,,,,,,,,,,,,
,,,,,,,,,,,,,,,,,,,,,,,,,,,,,,,,,,,,,,,,,,,5f2af6dc1a903c46dd0e53bd,606841dfeca58d8ce30b3590,2021-04-03_11h35.01.199,Colour_Similarity_Experiment,2020.2.10,Win32,60,60674ec340277cd6a308bc9f,16.76002703,16.66116438,17.97225,16.76164495,16.64829787,16.76002703,,,,,,,,,,,,,,,,,,,,PF,weak,3,,,,,,,,4,3.24991,,,,,,,,,,,,,,,,,,,,,,,,,,,9,weak,90,-127,1,0,0,response3disk,1,95,6,5,1,0,0,rectangle,6,5,1,0,0,0,5,0.00042,6,5,1,0,0,0,94,94,74,1,0,,,,,,,,,,,,,,,,,,,,,
,,,,,,,,,,,,,,,,,,,,,,,,,,,,,,,,,,,,,,,,,,,5f2af6dc1a903c46dd0e53bd,606841dfeca58d8ce30b3590,2021-04-03_11h35.01.199,Colour_Similarity_Experiment,2020.2.10,Win32,60,60674ec340277cd6a308bc9f,16.76002703,16.66116438,17.97225,16.76164495,16.64829787,16.76002703,,,,,,,,,,,,,,,,,,,,PF,strong,3,,,,,,,,7,1.049615,,,,,,,,,,,,,,,,,,,,,,,,,,,4,strong,41,86,1,0,0,response1disk,7,96,-12,-9,1,0,0,rectangle,-12,-9,1,0,0,0,3,0.00042,-12,-9,1,0,0,0,95,95,87,1,0,,,,,,,,,,,,,,,,,,,,,
,,,,,,,,,,,,,,,,,,,,,,,,,,,,,,,,,,,,,,,,,,,5f2af6dc1a903c46dd0e53bd,606841dfeca58d8ce30b3590,2021-04-03_11h35.01.199,Colour_Similarity_Experiment,2020.2.10,Win32,60,60674ec340277cd6a308bc9f,16.76002703,16.66116438,17.97225,16.76164495,16.64829787,16.76002703,,,,,,,,,,,,,,,,,,,,PF,weak,3,,,,,,,,7,0.849425,,,,,,,,,,,,,,,,,,,,,,,,,,,6,weak,59,129,1,0,0,response1disk,2,97,7,3,1,0,0,rectangle,7,3,1,0,0,0,3,6E-05,7,3,1,0,0,0,96,96,130,1,0,,,,,,,,,,,,,,,,,,,,,
,,,,,,,,,,,,,,,,,,,,,,,,,,,,,,,,,,,,,,,,,,,5f2af6dc1a903c46dd0e53bd,606841dfeca58d8ce30b3590,2021-04-03_11h35.01.199,Colour_Similarity_Experiment,2020.2.10,Win32,60,60674ec340277cd6a308bc9f,16.76002703,16.66116438,17.97225,16.76164495,16.64829787,16.76002703,,,,,,,,,,,,,,,,,,,,PF,weak,3,,,,,,,,1,2.566255,,,,,,,,,,,,,,,,,,,,,,,,,,,6,weak,-126,50,1,0,0,response7disk,6,98,-5,4,1,0,0,rectangle,-5,4,1,0,0,0,4,0.00043,-5,4,1,0,0,0,97,97,0,1,0,,,,,,,,,,,,,,,,,,,,,
,,,,,,,,,,,,,,,,,,,,,,,,,,,,,,,,,,,,,,,,,,,5f2af6dc1a903c46dd0e53bd,606841dfeca58d8ce30b3590,2021-04-03_11h35.01.199,Colour_Similarity_Experiment,2020.2.10,Win32,60,60674ec340277cd6a308bc9f,16.76002703,16.66116438,17.97225,16.76164495,16.64829787,16.76002703,,,,,,,,,,,,,,,,,,,,PF,strong,3,,,,,,,,7,1.24971,,,,,,,,,,,,,,,,,,,,,,,,,,,7,strong,62,137,1,0,0,response1disk,2,99,-5,1,1,0,0,rectangle,-5,1,1,0,0,0,2,0.000425,-5,1,1,0,0,0,98,98,138,1,0,,,,,,,,,,,,,,,,,,,,,
,,,,,,,,,,,,,,,,,,,,,,,,,,,,,,,,,,,,,,,,,,,5f2af6dc1a903c46dd0e53bd,606841dfeca58d8ce30b3590,2021-04-03_11h35.01.199,Colour_Similarity_Experiment,2020.2.10,Win32,60,60674ec340277cd6a308bc9f,16.76002703,16.66116438,17.97225,16.76164495,16.64829787,16.76002703,,,,,,,,,,,,,,,,,,,,PF,strong,3,,,,,,,,7,1.28311,,,,,,,,,,,,,,,,,,,,,,,,,,,6,strong,47,120,1,0,0,response1disk,4,100,2,-6,1,0,0,rectangle,2,-6,1,0,0,0,6,0.0005,2,-6,1,0,0,0,99,99,56,1,0,,,,,,,,,,,,,,,,,,,,,
,,,,,,,,,,,,,,,,,,,,,,,,,,,,,,,,,,,,,,,,,,,5f2af6dc1a903c46dd0e53bd,606841dfeca58d8ce30b3590,2021-04-03_11h35.01.199,Colour_Similarity_Experiment,2020.2.10,Win32,60,60674ec340277cd6a308bc9f,16.76002703,16.66116438,17.97225,16.76164495,16.64829787,16.76002703,,,,,,,,,,,,,,,,,,,,PF,weak,3,,,,,,,,7,1.033025,,,,,,,,,,,,,,,,,,,,,,,,,,,4,weak,47,110,1,0,0,response1disk,7,101,1,-8,1,0,0,rectangle,1,-8,1,0,0,0,1,0.000415,1,-8,1,0,0,0,100,100,38,1,0,,,,,,,,,,,,,,,,,,,,,
,,,,,,,,,,,,,,,,,,,,,,,,,,,,,,,,,,,,,,,,,,,5f2af6dc1a903c46dd0e53bd,606841dfeca58d8ce30b3590,2021-04-03_11h35.01.199,Colour_Similarity_Experiment,2020.2.10,Win32,60,60674ec340277cd6a308bc9f,16.76002703,16.66116438,17.97225,16.76164495,16.64829787,16.76002703,,,,,,,,,,,,,,,,,,,,PF,strong,3,,,,,,,,7,1.199705,,,,,,,,,,,,,,,,,,,,,,,,,,,2,strong,44,127,1,0,0,response1disk,8,102,-13,-4,1,0,0,rectangle,-13,-4,1,0,0,0,1,6E-05,-13,-4,1,0,0,0,101,101,62,1,0,,,,,,,,,,,,,,,,,,,,,
,,,,,,,,,,,,,,,,,,,,,,,,,,,,,,,,,,,,,,,,,,,5f2af6dc1a903c46dd0e53bd,606841dfeca58d8ce30b3590,2021-04-03_11h35.01.199,Colour_Similarity_Experiment,2020.2.10,Win32,60,60674ec340277cd6a308bc9f,16.76002703,16.66116438,17.97225,16.76164495,16.64829787,16.76002703,,,,,,,,,,,,,,,,,,,,PF,strong,3,,,,,,,,7,1.33296,,,,,,,,,,,,,,,,,,,,,,,,,,,6,strong,38,112,1,0,0,response1disk,8,103,-2,-2,1,0,0,rectangle,-2,-2,1,0,0,0,2,0.00043,-2,-2,1,0,0,0,102,102,133,1,0,,,,,,,,,,,,,,,,,,,,,
,,,,,,,,,,,,,,,,,,,,,,,,,,,,,,,,,,,,,,,,,,,5f2af6dc1a903c46dd0e53bd,606841dfeca58d8ce30b3590,2021-04-03_11h35.01.199,Colour_Similarity_Experiment,2020.2.10,Win32,60,60674ec340277cd6a308bc9f,16.76002703,16.66116438,17.97225,16.76164495,16.64829787,16.76002703,,,,,,,,,,,,,,,,,,,,PF,weak,3,,,,,,,,7,6.616315,,,,,,,,,,,,,,,,,,,,,,,,,,,4,weak,59,123,1,0,0,response1disk,2,104,-1,-2,1,0,0,rectangle,-1,-2,1,0,0,0,7,0.000415,-1,-2,1,0,0,0,103,103,108,1,0,,,,,,,,,,,,,,,,,,,,,
,,,,,,,,,,,,,,,,,,,,,,,,,,,,,,,,,,,,,,,,,,,5f2af6dc1a903c46dd0e53bd,606841dfeca58d8ce30b3590,2021-04-03_11h35.01.199,Colour_Similarity_Experiment,2020.2.10,Win32,60,60674ec340277cd6a308bc9f,16.76002703,16.66116438,17.97225,16.76164495,16.64829787,16.76002703,,,,,,,,,,,,,,,,,,,,PF,strong,3,,,,,,,,7,1.19975,,,,,,,,,,,,,,,,,,,,,,,,,,,4,strong,43,117,1,0,0,response1disk,8,105,-3,-4,1,0,0,rectangle,-3,-4,1,0,0,0,2,0.00043,-3,-4,1,0,0,0,104,104,35,1,0,,,,,,,,,,,,,,,,,,,,,
,,,,,,,,,,,,,,,,,,,,,,,,,,,,,,,,,,,,,,,,,,,5f2af6dc1a903c46dd0e53bd,606841dfeca58d8ce30b3590,2021-04-03_11h35.01.199,Colour_Similarity_Experiment,2020.2.10,Win32,60,60674ec340277cd6a308bc9f,16.76002703,16.66116438,17.97225,16.76164495,16.64829787,16.76002703,,,,,,,,,,,,,,,,,,,,PF,strong,3,,,,,,,,7,1.56626,,,,,,,,,,,,,,,,,,,,,,,,,,,2,strong,35,92,1,0,0,response1disk,3,106,-5,-6,1,0,0,rectangle,45,157,1,0,0,7,7,1.950205,1,-3,1,0,0,0,105,105,104,1,1,response1disk_3,rectangle,,,,,,,,,,,,,,,,,,,
,,,,,,,,,,,,,,,,,,,,,,,,,,,,,,,,,,,,,,,,,,,5f2af6dc1a903c46dd0e53bd,606841dfeca58d8ce30b3590,2021-04-03_11h35.01.199,Colour_Similarity_Experiment,2020.2.10,Win32,60,60674ec340277cd6a308bc9f,16.76002703,16.66116438,17.97225,16.76164495,16.64829787,16.76002703,,,,,,,,,,,,,,,,,,,,PF,strong,3,,,,,,,,2,1.53308,,,,,,,,,,,,,,,,,,,,,,,,,,,8,strong,-112,-63,1,0,0,response5disk,9,107,1,-1,1,0,0,rectangle,1,-1,1,0,0,7,5,0.00042,1,-1,1,0,0,0,106,106,105,1,0,,,,,,,,,,,,,,,,,,,,,
,,,,,,,,,,,,,,,,,,,,,,,,,,,,,,,,,,,,,,,,,,,5f2af6dc1a903c46dd0e53bd,606841dfeca58d8ce30b3590,2021-04-03_11h35.01.199,Colour_Similarity_Experiment,2020.2.10,Win32,60,60674ec340277cd6a308bc9f,16.76002703,16.66116438,17.97225,16.76164495,16.64829787,16.76002703,,,,,,,,,,,,,,,,,,,,PF,weak,3,,,,,,,,0,1.383095,,,,,,,,,,,,,,,,,,,,,,,,,,,1,weak,-56,138,1,0,0,response7disk,1,108,-6,8,1,0,0,rectangle,126,63,1,0,0,6,6,1.75019,-10,-1,1,0,0,0,107,107,76,1,1,response1disk_3,rectangle,,,,,,,,,,,,,,,,,,,
,,,,,,,,,,,,,,,,,,,,,,,,,,,,,,,,,,,,,,,,,,,5f2af6dc1a903c46dd0e53bd,606841dfeca58d8ce30b3590,2021-04-03_11h35.01.199,Colour_Similarity_Experiment,2020.2.10,Win32,60,60674ec340277cd6a308bc9f,16.76002703,16.66116438,17.97225,16.76164495,16.64829787,16.76002703,,,,,,,,,,,,,,,,,,,,PF,weak,3,,,,,,,,7,0.883275,,,,,,,,,,,,,,,,,,,,,,,,,,,2,weak,53,146,1,0,0,response1disk,8,109,-4,3,1,0,0,rectangle,-4,3,1,0,0,6,0,0.000435,-4,3,1,0,0,0,108,108,52,1,0,,,,,,,,,,,,,,,,,,,,,
,,,,,,,,,,,,,,,,,,,,,,,,,,,,,,,,,,,,,,,,,,,5f2af6dc1a903c46dd0e53bd,606841dfeca58d8ce30b3590,2021-04-03_11h35.01.199,Colour_Similarity_Experiment,2020.2.10,Win32,60,60674ec340277cd6a308bc9f,16.76002703,16.66116438,17.97225,16.76164495,16.64829787,16.76002703,,,,,,,,,,,,,,,,,,,,PF,strong,3,,,,,,,,7,2.39974,,,,,,,,,,,,,,,,,,,,,,,,,,,1,strong,47,124,1,0,0,response1disk,9,110,-8,-10,1,0,0,rectangle,-8,-10,1,0,0,6,4,0.000425,-8,-10,1,0,0,0,109,109,123,1,0,,,,,,,,,,,,,,,,,,,,,
,,,,,,,,,,,,,,,,,,,,,,,,,,,,,,,,,,,,,,,,,,,5f2af6dc1a903c46dd0e53bd,606841dfeca58d8ce30b3590,2021-04-03_11h35.01.199,Colour_Similarity_Experiment,2020.2.10,Win32,60,60674ec340277cd6a308bc9f,16.76002703,16.66116438,17.97225,16.76164495,16.64829787,16.76002703,,,,,,,,,,,,,,,,,,,,PF,strong,3,,,,,,,,7,2.249505,,,,,,,,,,,,,,,,,,,,,,,,,,,3,strong,56,106,1,0,0,response1disk,9,111,-1,4,1,0,0,rectangle,-1,4,1,0,0,6,2,0.000415,-1,4,1,0,0,0,110,110,143,1,0,,,,,,,,,,,,,,,,,,,,,
,,,,,,,,,,,,,,,,,,,,,,,,,,,,,,,,,,,,,,,,,,,5f2af6dc1a903c46dd0e53bd,606841dfeca58d8ce30b3590,2021-04-03_11h35.01.199,Colour_Similarity_Experiment,2020.2.10,Win32,60,60674ec340277cd6a308bc9f,16.76002703,16.66116438,17.97225,16.76164495,16.64829787,16.76002703,,,,,,,,,,,,,,,,,,,,PF,weak,3,,,,,,,,7,0.999715,,,,,,,,,,,,,,,,,,,,,,,,,,,3,weak,32,110,1,0,0,response1disk,9,112,-4,4,1,0,0,rectangle,-4,4,1,0,0,6,0,0.000435,-4,4,1,0,0,0,111,111,79,1,0,,,,,,,,,,,,,,,,,,,,,
,,,,,,,,,,,,,,,,,,,,,,,,,,,,,,,,,,,,,,,,,,,5f2af6dc1a903c46dd0e53bd,606841dfeca58d8ce30b3590,2021-04-03_11h35.01.199,Colour_Similarity_Experiment,2020.2.10,Win32,60,60674ec340277cd6a308bc9f,16.76002703,16.66116438,17.97225,16.76164495,16.64829787,16.76002703,,,,,,,,,,,,,,,,,,,,PF,strong,3,,,,,,,,5,2.782695,,,,,,,,,,,,,,,,,,,,,,,,,,,9,strong,132,-67,1,0,0,response3disk,1,113,-5,-5,1,0,0,rectangle,-5,-5,1,0,0,6,5,0.000415,-5,-5,1,0,0,0,112,112,111,1,0,,,,,,,,,,,,,,,,,,,,,
,,,,,,,,,,,,,,,,,,,,,,,,,,,,,,,,,,,,,,,,,,,5f2af6dc1a903c46dd0e53bd,606841dfeca58d8ce30b3590,2021-04-03_11h35.01.199,Colour_Similarity_Experiment,2020.2.10,Win32,60,60674ec340277cd6a308bc9f,16.76002703,16.66116438,17.97225,16.76164495,16.64829787,16.76002703,,,,,,,,,,,,,,,,,,,,PF,weak,3,,,,,,,,1,1.483235,,,,,,,,,,,,,,,,,,,,,,,,,,,3,weak,-107,54,1,0,0,response7disk,3,114,0,-5,1,0,0,rectangle,0,-5,1,0,0,6,2,0.002705,0,-5,1,0,0,0,113,113,4,1,0,,,,,,,,,,,,,,,,,,,,,
,,,,,,,,,,,,,,,,,,,,,,,,,,,,,,,,,,,,,,,,,,,5f2af6dc1a903c46dd0e53bd,606841dfeca58d8ce30b3590,2021-04-03_11h35.01.199,Colour_Similarity_Experiment,2020.2.10,Win32,60,60674ec340277cd6a308bc9f,16.76002703,16.66116438,17.97225,16.76164495,16.64829787,16.76002703,,,,,,,,,,,,,,,,,,,,PF,weak,3,,,,,,,,3,1.54964,,,,,,,,,,,,,,,,,,,,,,,,,,,5,weak,-60,-101,1,0,0,response5disk,4,115,-3,4,1,0,0,rectangle,-3,4,1,0,0,6,0,0.00041,-3,4,1,0,0,0,114,114,54,1,0,,,,,,,,,,,,,,,,,,,,,
,,,,,,,,,,,,,,,,,,,,,,,,,,,,,,,,,,,,,,,,,,,5f2af6dc1a903c46dd0e53bd,606841dfeca58d8ce30b3590,2021-04-03_11h35.01.199,Colour_Similarity_Experiment,2020.2.10,Win32,60,60674ec340277cd6a308bc9f,16.76002703,16.66116438,17.97225,16.76164495,16.64829787,16.76002703,,,,,,,,,,,,,,,,,,,,PF,weak,3,,,,,,,,7,1.01615,,,,,,,,,,,,,,,,,,,,,,,,,,,3,weak,55,124,1,0,0,response1disk,2,116,-1,-5,1,0,0,rectangle,-107,37,1,0,0,1,1,1.500105,-2,5,1,0,0,0,115,115,36,1,1,response7disk_3,rectangle,,,,,,,,,,,,,,,,,,,
,,,,,,,,,,,,,,,,,,,,,,,,,,,,,,,,,,,,,,,,,,,5f2af6dc1a903c46dd0e53bd,606841dfeca58d8ce30b3590,2021-04-03_11h35.01.199,Colour_Similarity_Experiment,2020.2.10,Win32,60,60674ec340277cd6a308bc9f,16.76002703,16.66116438,17.97225,16.76164495,16.64829787,16.76002703,,,,,,,,,,,,,,,,,,,,PF,weak,3,,,,,,,,7,1.016555,,,,,,,,,,,,,,,,,,,,,,,,,,,9,weak,49,129,1,0,0,response1disk,5,117,-6,3,1,0,0,rectangle,-6,3,1,0,0,1,6,0.000435,-6,3,1,0,0,0,116,116,134,1,0,,,,,,,,,,,,,,,,,,,,,
,,,,,,,,,,,,,,,,,,,,,,,,,,,,,,,,,,,,,,,,,,,5f2af6dc1a903c46dd0e53bd,606841dfeca58d8ce30b3590,2021-04-03_11h35.01.199,Colour_Similarity_Experiment,2020.2.10,Win32,60,60674ec340277cd6a308bc9f,16.76002703,16.66116438,17.97225,16.76164495,16.64829787,16.76002703,,,,,,,,,,,,,,,,,,,,PF,weak,3,,,,,,,,5,2.06635,,,,,,,,,,,,,,,,,,,,,,,,,,,8,weak,111,-55,1,0,0,response3disk,1,118,-10,-1,1,0,0,rectangle,-10,-1,1,0,0,1,5,0.0004,-10,-1,1,0,0,0,117,117,57,1,0,,,,,,,,,,,,,,,,,,,,,
,,,,,,,,,,,,,,,,,,,,,,,,,,,,,,,,,,,,,,,,,,,5f2af6dc1a903c46dd0e53bd,606841dfeca58d8ce30b3590,2021-04-03_11h35.01.199,Colour_Similarity_Experiment,2020.2.10,Win32,60,60674ec340277cd6a308bc9f,16.76002703,16.66116438,17.97225,16.76164495,16.64829787,16.76002703,,,,,,,,,,,,,,,,,,,,PF,strong,3,,,,,,,,7,1.583095,,,,,,,,,,,,,,,,,,,,,,,,,,,3,strong,49,114,1,0,0,response1disk,1,119,-11,-7,1,0,0,rectangle,-11,-7,1,0,0,1,6,0.00041,-11,-7,1,0,0,0,118,118,125,1,0,,,,,,,,,,,,,,,,,,,,,
,,,,,,,,,,,,,,,,,,,,,,,,,,,,,,,,,,,,,,,,,,,5f2af6dc1a903c46dd0e53bd,606841dfeca58d8ce30b3590,2021-04-03_11h35.01.199,Colour_Similarity_Experiment,2020.2.10,Win32,60,60674ec340277cd6a308bc9f,16.76002703,16.66116438,17.97225,16.76164495,16.64829787,16.76002703,,,,,,,,,,,,,,,,,,,,PF,strong,3,,,,,,,,5,2.48274,,,,,,,,,,,,,,,,,,,,,,,,,,,4,strong,96,-66,1,0,0,response3disk,5,120,5,-5,1,0,0,rectangle,5,-5,1,0,0,1,1,0.00042,5,-5,1,0,0,0,119,119,116,1,0,,,,,,,,,,,,,,,,,,,,,
,,,,,,,,,,,,,,,,,,,,,,,,,,,,,,,,,,,,,,,,,,,5f2af6dc1a903c46dd0e53bd,606841dfeca58d8ce30b3590,2021-04-03_11h35.01.199,Colour_Similarity_Experiment,2020.2.10,Win32,60,60674ec340277cd6a308bc9f,16.76002703,16.66116438,17.97225,16.76164495,16.64829787,16.76002703,,,,,,,,,,,,,,,,,,,,PF,weak,3,,,,,,,,3,1.99956,,,,,,,,,,,,,,,,,,,,,,,,,,,4,weak,-50,-129,1,0,0,response5disk,5,121,10,8,1,0,0,rectangle,10,8,1,0,0,1,7,0.00041,10,8,1,0,0,0,120,120,49,1,0,,,,,,,,,,,,,,,,,,,,,
,,,,,,,,,,,,,,,,,,,,,,,,,,,,,,,,,,,,,,,,,,,5f2af6dc1a903c46dd0e53bd,606841dfeca58d8ce30b3590,2021-04-03_11h35.01.199,Colour_Similarity_Experiment,2020.2.10,Win32,60,60674ec340277cd6a308bc9f,16.76002703,16.66116438,17.97225,16.76164495,16.64829787,16.76002703,,,,,,,,,,,,,,,,,,,,PF,strong,3,,,,,,,,7,1.516415,,,,,,,,,,,,,,,,,,,,,,,,,,,9,strong,58,123,1,0,0,response1disk,5,122,0,0,1,0,0,rectangle,0,0,1,0,0,1,4,0.00041,0,0,1,0,0,0,121,121,128,1,0,,,,,,,,,,,,,,,,,,,,,
,,,,,,,,,,,,,,,,,,,,,,,,,,,,,,,,,,,,,,,,,,,5f2af6dc1a903c46dd0e53bd,606841dfeca58d8ce30b3590,2021-04-03_11h35.01.199,Colour_Similarity_Experiment,2020.2.10,Win32,60,60674ec340277cd6a308bc9f,16.76002703,16.66116438,17.97225,16.76164495,16.64829787,16.76002703,,,,,,,,,,,,,,,,,,,,PF,weak,3,,,,,,,,7,0.86642,,,,,,,,,,,,,,,,,,,,,,,,,,,7,weak,57,148,1,0,0,response1disk,2,123,9,9,1,0,0,rectangle,9,9,1,0,0,1,4,6.5E-05,9,9,1,0,0,0,122,122,32,1,0,,,,,,,,,,,,,,,,,,,,,
,,,,,,,,,,,,,,,,,,,,,,,,,,,,,,,,,,,,,,,,,,,5f2af6dc1a903c46dd0e53bd,606841dfeca58d8ce30b3590,2021-04-03_11h35.01.199,Colour_Similarity_Experiment,2020.2.10,Win32,60,60674ec340277cd6a308bc9f,16.76002703,16.66116438,17.97225,16.76164495,16.64829787,16.76002703,,,,,,,,,,,,,,,,,,,,PF,weak,3,,,,,,,,7,0.916535,,,,,,,,,,,,,,,,,,,,,,,,,,,4,weak,55,107,1,0,0,response1disk,9,124,1,1,1,0,0,rectangle,1,1,1,0,0,1,6,0.000415,1,1,1,0,0,0,123,123,75,1,0,,,,,,,,,,,,,,,,,,,,,
,,,,,,,,,,,,,,,,,,,,,,,,,,,,,,,,,,,,,,,,,,,5f2af6dc1a903c46dd0e53bd,606841dfeca58d8ce30b3590,2021-04-03_11h35.01.199,Colour_Similarity_Experiment,2020.2.10,Win32,60,60674ec340277cd6a308bc9f,16.76002703,16.66116438,17.97225,16.76164495,16.64829787,16.76002703,,,,,,,,,,,,,,,,,,,,PF,weak,3,,,,,,,,4,2.883005,,,,,,,,,,,,,,,,,,,,,,,,,,,1,weak,93,-126,1,0,0,response3disk,9,125,-2,12,1,0,0,rectangle,-2,12,1,0,0,1,5,0.00042,-2,12,1,0,0,0,124,124,15,1,0,,,,,,,,,,,,,,,,,,,,,
,,,,,,,,,,,,,,,,,,,,,,,,,,,,,,,,,,,,,,,,,,,5f2af6dc1a903c46dd0e53bd,606841dfeca58d8ce30b3590,2021-04-03_11h35.01.199,Colour_Similarity_Experiment,2020.2.10,Win32,60,60674ec340277cd6a308bc9f,16.76002703,16.66116438,17.97225,16.76164495,16.64829787,16.76002703,,,,,,,,,,,,,,,,,,,,PF,strong,3,,,,,,,,7,1.54983,,,,,,,,,,,,,,,,,,,,,,,,,,,5,strong,33,91,1,0,0,response1disk,8,126,-11,-9,1,0,0,rectangle,-11,-9,1,0,0,1,7,0.00043,-11,-9,1,0,0,0,125,125,16,1,0,,,,,,,,,,,,,,,,,,,,,
,,,,,,,,,,,,,,,,,,,,,,,,,,,,,,,,,,,,,,,,,,,5f2af6dc1a903c46dd0e53bd,606841dfeca58d8ce30b3590,2021-04-03_11h35.01.199,Colour_Similarity_Experiment,2020.2.10,Win32,60,60674ec340277cd6a308bc9f,16.76002703,16.66116438,17.97225,16.76164495,16.64829787,16.76002703,,,,,,,,,,,,,,,,,,,,PF,weak,3,,,,,,,,7,0.88305,,,,,,,,,,,,,,,,,,,,,,,,,,,1,weak,53,129,1,0,0,response1disk,6,127,3,6,1,0,0,rectangle,3,6,1,0,0,1,2,0.000425,3,6,1,0,0,0,126,126,144,1,0,,,,,,,,,,,,,,,,,,,,,
,,,,,,,,,,,,,,,,,,,,,,,,,,,,,,,,,,,,,,,,,,,5f2af6dc1a903c46dd0e53bd,606841dfeca58d8ce30b3590,2021-04-03_11h35.01.199,Colour_Similarity_Experiment,2020.2.10,Win32,60,60674ec340277cd6a308bc9f,16.76002703,16.66116438,17.97225,16.76164495,16.64829787,16.76002703,,,,,,,,,,,,,,,,,,,,PF,strong,3,,,,,,,,7,1.549755,,,,,,,,,,,,,,,,,,,,,,,,,,,6,strong,48,136,1,0,0,response1disk,1,128,6,12,1,0,0,rectangle,6,12,1,0,0,1,5,0.00041,6,12,1,0,0,0,127,127,5,1,0,,,,,,,,,,,,,,,,,,,,,
,,,,,,,,,,,,,,,,,,,,,,,,,,,,,,,,,,,,,,,,,,,5f2af6dc1a903c46dd0e53bd,606841dfeca58d8ce30b3590,2021-04-03_11h35.01.199,Colour_Similarity_Experiment,2020.2.10,Win32,60,60674ec340277cd6a308bc9f,16.76002703,16.66116438,17.97225,16.76164495,16.64829787,16.76002703,,,,,,,,,,,,,,,,,,,,PF,strong,3,,,,,,,,7,2.465985,,,,,,,,,,,,,,,,,,,,,,,,,,,8,strong,51,123,1,0,0,response1disk,1,129,16,-2,1,0,0,rectangle,16,-2,1,0,0,1,0,0.00042,16,-2,1,0,0,0,128,128,20,1,0,,,,,,,,,,,,,,,,,,,,,
,,,,,,,,,,,,,,,,,,,,,,,,,,,,,,,,,,,,,,,,,,,5f2af6dc1a903c46dd0e53bd,606841dfeca58d8ce30b3590,2021-04-03_11h35.01.199,Colour_Similarity_Experiment,2020.2.10,Win32,60,60674ec340277cd6a308bc9f,16.76002703,16.66116438,17.97225,16.76164495,16.64829787,16.76002703,,,,,,,,,,,,,,,,,,,,PF,weak,3,,,,,,,,7,1.71651,,,,,,,,,,,,,,,,,,,,,,,,,,,2,weak,53,124,1,0,0,response1disk,1,130,-8,-14,1,0,0,rectangle,-8,-14,1,0,0,1,5,0.000415,-8,-14,1,0,0,0,129,129,9,1,0,,,,,,,,,,,,,,,,,,,,,
,,,,,,,,,,,,,,,,,,,,,,,,,,,,,,,,,,,,,,,,,,,5f2af6dc1a903c46dd0e53bd,606841dfeca58d8ce30b3590,2021-04-03_11h35.01.199,Colour_Similarity_Experiment,2020.2.10,Win32,60,60674ec340277cd6a308bc9f,16.76002703,16.66116438,17.97225,16.76164495,16.64829787,16.76002703,,,,,,,,,,,,,,,,,,,,PF,strong,3,,,,,,,,7,1.282925,,,,,,,,,,,,,,,,,,,,,,,,,,,4,strong,44,129,1,0,0,response1disk,2,131,-2,-1,1,0,0,rectangle,-2,-1,1,0,0,1,2,0.00046,-2,-1,1,0,0,0,130,130,13,1,0,,,,,,,,,,,,,,,,,,,,,
,,,,,,,,,,,,,,,,,,,,,,,,,,,,,,,,,,,,,,,,,,,5f2af6dc1a903c46dd0e53bd,606841dfeca58d8ce30b3590,2021-04-03_11h35.01.199,Colour_Similarity_Experiment,2020.2.10,Win32,60,60674ec340277cd6a308bc9f,16.76002703,16.66116438,17.97225,16.76164495,16.64829787,16.76002703,,,,,,,,,,,,,,,,,,,,PF,strong,3,,,,,,,,7,1.33278,,,,,,,,,,,,,,,,,,,,,,,,,,,6,strong,53,114,1,0,0,response1disk,2,132,-2,-17,1,0,0,rectangle,-2,-17,1,0,0,1,1,0.000835,-2,-17,1,0,0,0,131,131,112,1,0,,,,,,,,,,,,,,,,,,,,,
,,,,,,,,,,,,,,,,,,,,,,,,,,,,,,,,,,,,,,,,,,,5f2af6dc1a903c46dd0e53bd,606841dfeca58d8ce30b3590,2021-04-03_11h35.01.199,Colour_Similarity_Experiment,2020.2.10,Win32,60,60674ec340277cd6a308bc9f,16.76002703,16.66116438,17.97225,16.76164495,16.64829787,16.76002703,,,,,,,,,,,,,,,,,,,,PF,strong,3,,,,,,,,7,2.69762,,,,,,,,,,,,,,,,,,,,,,,,,,,1,strong,49,96,1,0,0,response1disk,2,133,4,-4,1,0,0,rectangle,4,-4,1,0,0,1,3,0.00043,4,-4,1,0,0,0,132,132,2,1,0,,,,,,,,,,,,,,,,,,,,,
,,,,,,,,,,,,,,,,,,,,,,,,,,,,,,,,,,,,,,,,,,,5f2af6dc1a903c46dd0e53bd,606841dfeca58d8ce30b3590,2021-04-03_11h35.01.199,Colour_Similarity_Experiment,2020.2.10,Win32,60,60674ec340277cd6a308bc9f,16.76002703,16.66116438,17.97225,16.76164495,16.64829787,16.76002703,,,,,,,,,,,,,,,,,,,,PF,weak,3,,,,,,,,7,1.3166,,,,,,,,,,,,,,,,,,,,,,,,,,,6,weak,61,107,1,0,0,response1disk,3,134,6,4,1,0,0,rectangle,6,4,1,0,0,1,3,5.5E-05,6,4,1,0,0,0,133,133,26,1,0,,,,,,,,,,,,,,,,,,,,,
,,,,,,,,,,,,,,,,,,,,,,,,,,,,,,,,,,,,,,,,,,,5f2af6dc1a903c46dd0e53bd,606841dfeca58d8ce30b3590,2021-04-03_11h35.01.199,Colour_Similarity_Experiment,2020.2.10,Win32,60,60674ec340277cd6a308bc9f,16.76002703,16.66116438,17.97225,16.76164495,16.64829787,16.76002703,,,,,,,,,,,,,,,,,,,,PF,weak,3,,,,,,,,7,2.04981,,,,,,,,,,,,,,,,,,,,,,,,,,,4,weak,56,87,1,0,0,response1disk,6,135,-5,-2,1,0,0,rectangle,-5,-2,1,0,0,1,1,0.000405,-5,-2,1,0,0,0,134,134,120,1,0,,,,,,,,,,,,,,,,,,,,,
,,,,,,,,,,,,,,,,,,,,,,,,,,,,,,,,,,,,,,,,,,,5f2af6dc1a903c46dd0e53bd,606841dfeca58d8ce30b3590,2021-04-03_11h35.01.199,Colour_Similarity_Experiment,2020.2.10,Win32,60,60674ec340277cd6a308bc9f,16.76002703,16.66116438,17.97225,16.76164495,16.64829787,16.76002703,,,,,,,,,,,,,,,,,,,,PF,strong,3,,,,,,,,7,2.39967,,,,,,,,,,,,,,,,,,,,,,,,,,,5,strong,31,118,1,0,0,response1disk,9,136,-1,5,1,0,0,rectangle,-1,5,1,0,0,1,3,0.000415,-1,5,1,0,0,0,135,135,61,1,0,,,,,,,,,,,,,,,,,,,,,
,,,,,,,,,,,,,,,,,,,,,,,,,,,,,,,,,,,,,,,,,,,5f2af6dc1a903c46dd0e53bd,606841dfeca58d8ce30b3590,2021-04-03_11h35.01.199,Colour_Similarity_Experiment,2020.2.10,Win32,60,60674ec340277cd6a308bc9f,16.76002703,16.66116438,17.97225,16.76164495,16.64829787,16.76002703,,,,,,,,,,,,,,,,,,,,PF,strong,3,,,,,,,,7,1.399745,,,,,,,,,,,,,,,,,,,,,,,,,,,8,strong,37,106,1,0,0,response1disk,5,137,4,14,1,0,0,rectangle,4,14,1,0,0,1,0,0.000405,4,14,1,0,0,0,136,136,152,1,0,,,,,,,,,,,,,,,,,,,,,
,,,,,,,,,,,,,,,,,,,,,,,,,,,,,,,,,,,,,,,,,,,5f2af6dc1a903c46dd0e53bd,606841dfeca58d8ce30b3590,2021-04-03_11h35.01.199,Colour_Similarity_Experiment,2020.2.10,Win32,60,60674ec340277cd6a308bc9f,16.76002703,16.66116438,17.97225,16.76164495,16.64829787,16.76002703,,,,,,,,,,,,,,,,,,,,PF,weak,3,,,,,,,,0,1.13296,,,,,,,,,,,,,,,,,,,,,,,,,,,7,weak,-81,128,1,0,0,response7disk,7,138,-1,1,1,0,0,rectangle,-1,1,1,0,0,1,6,0.00042,-1,1,1,0,0,0,137,137,51,1,0,,,,,,,,,,,,,,,,,,,,,
,,,,,,,,,,,,,,,,,,,,,,,,,,,,,,,,,,,,,,,,,,,5f2af6dc1a903c46dd0e53bd,606841dfeca58d8ce30b3590,2021-04-03_11h35.01.199,Colour_Similarity_Experiment,2020.2.10,Win32,60,60674ec340277cd6a308bc9f,16.76002703,16.66116438,17.97225,16.76164495,16.64829787,16.76002703,,,,,,,,,,,,,,,,,,,,PF,strong,3,,,,,,,,4,2.86643,,,,,,,,,,,,,,,,,,,,,,,,,,,6,strong,55,-131,1,0,0,response3disk,3,139,-7,14,1,0,0,rectangle,-7,14,1,0,0,1,3,0.00041,-7,14,1,0,0,0,138,138,21,1,0,,,,,,,,,,,,,,,,,,,,,
,,,,,,,,,,,,,,,,,,,,,,,,,,,,,,,,,,,,,,,,,,,5f2af6dc1a903c46dd0e53bd,606841dfeca58d8ce30b3590,2021-04-03_11h35.01.199,Colour_Similarity_Experiment,2020.2.10,Win32,60,60674ec340277cd6a308bc9f,16.76002703,16.66116438,17.97225,16.76164495,16.64829787,16.76002703,,,,,,,,,,,,,,,,,,,,PF,weak,3,,,,,,,,7,1.283095,,,,,,,,,,,,,,,,,,,,,,,,,,,8,weak,44,123,1,0,0,response1disk,4,140,-4,5,1,0,0,rectangle,-4,5,1,0,0,1,7,0.0004,-4,5,1,0,0,0,139,139,78,1,0,,,,,,,,,,,,,,,,,,,,,
,,,,,,,,,,,,,,,,,,,,,,,,,,,,,,,,,,,,,,,,,,,5f2af6dc1a903c46dd0e53bd,606841dfeca58d8ce30b3590,2021-04-03_11h35.01.199,Colour_Similarity_Experiment,2020.2.10,Win32,60,60674ec340277cd6a308bc9f,16.76002703,16.66116438,17.97225,16.76164495,16.64829787,16.76002703,,,,,,,,,,,,,,,,,,,,PF,strong,3,,,,,,,,7,1.249495,,,,,,,,,,,,,,,,,,,,,,,,,,,6,strong,40,82,1,0,0,response1disk,9,141,-2,-10,1,0,0,rectangle,-132,-57,1,0,0,1,2,2.08362,-1,6,1,0,0,0,140,140,160,1,1,response5disk_3,rectangle,,,,,,,,,,,,,,,,,,,
,,,,,,,,,,,,,,,,,,,,,,,,,,,,,,,,,,,,,,,,,,,5f2af6dc1a903c46dd0e53bd,606841dfeca58d8ce30b3590,2021-04-03_11h35.01.199,Colour_Similarity_Experiment,2020.2.10,Win32,60,60674ec340277cd6a308bc9f,16.76002703,16.66116438,17.97225,16.76164495,16.64829787,16.76002703,,,,,,,,,,,,,,,,,,,,PF,strong,3,,,,,,,,7,1.28303,,,,,,,,,,,,,,,,,,,,,,,,,,,9,strong,50,106,1,0,0,response1disk,3,142,-7,5,1,0,0,rectangle,-7,5,1,0,0,1,2,6E-05,-7,5,1,0,0,0,141,141,141,1,0,,,,,,,,,,,,,,,,,,,,,
,,,,,,,,,,,,,,,,,,,,,,,,,,,,,,,,,,,,,,,,,,,5f2af6dc1a903c46dd0e53bd,606841dfeca58d8ce30b3590,2021-04-03_11h35.01.199,Colour_Similarity_Experiment,2020.2.10,Win32,60,60674ec340277cd6a308bc9f,16.76002703,16.66116438,17.97225,16.76164495,16.64829787,16.76002703,,,,,,,,,,,,,,,,,,,,PF,strong,3,,,,,,,,2,1.633055,,,,,,,,,,,,,,,,,,,,,,,,,,,6,strong,-117,-36,1,0,0,response5disk,6,143,-1,1,1,0,0,rectangle,-1,1,1,0,0,1,5,0.000785,-1,1,1,0,0,0,142,142,91,1,0,,,,,,,,,,,,,,,,,,,,,
,,,,,,,,,,,,,,,,,,,,,,,,,,,,,,,,,,,,,,,,,,,5f2af6dc1a903c46dd0e53bd,606841dfeca58d8ce30b3590,2021-04-03_11h35.01.199,Colour_Similarity_Experiment,2020.2.10,Win32,60,60674ec340277cd6a308bc9f,16.76002703,16.66116438,17.97225,16.76164495,16.64829787,16.76002703,,,,,,,,,,,,,,,,,,,,PF,strong,3,,,,,,,,7,1.749925,,,,,,,,,,,,,,,,,,,,,,,,,,,7,strong,44,119,1,0,0,response1disk,1,144,-13,-7,1,0,0,rectangle,-13,-7,1,0,0,1,5,7.00001E-05,-13,-7,1,0,0,0,143,143,132,1,0,,,,,,,,,,,,,,,,,,,,,
,,,,,,,,,,,,,,,,,,,,,,,,,,,,,,,,,,,,,,,,,,,5f2af6dc1a903c46dd0e53bd,606841dfeca58d8ce30b3590,2021-04-03_11h35.01.199,Colour_Similarity_Experiment,2020.2.10,Win32,60,60674ec340277cd6a308bc9f,16.76002703,16.66116438,17.97225,16.76164495,16.64829787,16.76002703,,,,,,,,,,,,,,,,,,,,PF,strong,3,,,,,,,,4,4.799695,,,,,,,,,,,,,,,,,,,,,,,,,,,2,strong,75,-118,1,0,0,response3disk,9,145,0,0,1,0,0,rectangle,0,0,1,0,0,1,2,0.00041,0,0,1,0,0,0,144,144,72,1,0,,,,,,,,,,,,,,,,,,,,,
,,,,,,,,,,,,,,,,,,,,,,,,,,,,,,,,,,,,,,,,,,,5f2af6dc1a903c46dd0e53bd,606841dfeca58d8ce30b3590,2021-04-03_11h35.01.199,Colour_Similarity_Experiment,2020.2.10,Win32,60,60674ec340277cd6a308bc9f,16.76002703,16.66116438,17.97225,16.76164495,16.64829787,16.76002703,,,,,,,,,,,,,,,,,,,,PF,weak,3,,,,,,,,7,0.98303,,,,,,,,,,,,,,,,,,,,,,,,,,,6,weak,56,128,1,0,0,response1disk,1,146,-1,1,1,0,0,rectangle,-1,1,1,0,0,1,6,0.00043,-1,1,1,0,0,0,145,145,46,1,0,,,,,,,,,,,,,,,,,,,,,
,,,,,,,,,,,,,,,,,,,,,,,,,,,,,,,,,,,,,,,,,,,5f2af6dc1a903c46dd0e53bd,606841dfeca58d8ce30b3590,2021-04-03_11h35.01.199,Colour_Similarity_Experiment,2020.2.10,Win32,60,60674ec340277cd6a308bc9f,16.76002703,16.66116438,17.97225,16.76164495,16.64829787,16.76002703,,,,,,,,,,,,,,,,,,,,PF,weak,3,,,,,,,,7,1.183115,,,,,,,,,,,,,,,,,,,,,,,,,,,4,weak,60,124,1,0,0,response1disk,1,147,-4,-4,1,0,0,rectangle,-4,-4,1,0,0,1,6,6E-05,-4,-4,1,0,0,0,146,146,115,1,0,,,,,,,,,,,,,,,,,,,,,
,,,,,,,,,,,,,,,,,,,,,,,,,,,,,,,,,,,,,,,,,,,5f2af6dc1a903c46dd0e53bd,606841dfeca58d8ce30b3590,2021-04-03_11h35.01.199,Colour_Similarity_Experiment,2020.2.10,Win32,60,60674ec340277cd6a308bc9f,16.76002703,16.66116438,17.97225,16.76164495,16.64829787,16.76002703,,,,,,,,,,,,,,,,,,,,PF,strong,3,,,,,,,,7,2.96629,,,,,,,,,,,,,,,,,,,,,,,,,,,2,strong,42,87,1,0,0,response1disk,1,148,-1,-4,1,0,0,rectangle,-1,-4,1,0,0,1,2,0.00041,-1,-4,1,0,0,0,147,147,85,1,0,,,,,,,,,,,,,,,,,,,,,
,,,,,,,,,,,,,,,,,,,,,,,,,,,,,,,,,,,,,,,,,,,5f2af6dc1a903c46dd0e53bd,606841dfeca58d8ce30b3590,2021-04-03_11h35.01.199,Colour_Similarity_Experiment,2020.2.10,Win32,60,60674ec340277cd6a308bc9f,16.76002703,16.66116438,17.97225,16.76164495,16.64829787,16.76002703,,,,,,,,,,,,,,,,,,,,PF,weak,3,,,,,,,,3,2.449685,,,,,,,,,,,,,,,,,,,,,,,,,,,9,weak,-57,-131,1,0,0,response5disk,8,149,-1,3,1,0,0,rectangle,-1,3,1,0,0,1,2,5.5E-05,-1,3,1,0,0,0,148,148,67,1,0,,,,,,,,,,,,,,,,,,,,,
,,,,,,,,,,,,,,,,,,,,,,,,,,,,,,,,,,,,,,,,,,,5f2af6dc1a903c46dd0e53bd,606841dfeca58d8ce30b3590,2021-04-03_11h35.01.199,Colour_Similarity_Experiment,2020.2.10,Win32,60,60674ec340277cd6a308bc9f,16.76002703,16.66116438,17.97225,16.76164495,16.64829787,16.76002703,,,,,,,,,,,,,,,,,,,,PF,weak,3,,,,,,,,0,0.93313,,,,,,,,,,,,,,,,,,,,,,,,,,,8,weak,-47,143,1,0,0,response7disk,8,150,-1,-2,1,0,0,rectangle,-1,-2,1,0,0,1,5,0.0004,-1,-2,1,0,0,0,149,149,153,1,0,,,,,,,,,,,,,,,,,,,,,
,,,,,,,,,,,,,,,,,,,,,,,,,,,,,,,,,,,,,,,,,,,5f2af6dc1a903c46dd0e53bd,606841dfeca58d8ce30b3590,2021-04-03_11h35.01.199,Colour_Similarity_Experiment,2020.2.10,Win32,60,60674ec340277cd6a308bc9f,16.76002703,16.66116438,17.97225,16.76164495,16.64829787,16.76002703,,,,,,,,,,,,,,,,,,,,PF,weak,3,,,,,,,,7,1.46647,,,,,,,,,,,,,,,,,,,,,,,,,,,2,weak,33,133,1,0,0,response1disk,3,151,-3,1,1,0,0,rectangle,-3,1,1,0,0,1,4,0.00042,-3,1,1,0,0,0,150,150,69,1,0,,,,,,,,,,,,,,,,,,,,,
,,,,,,,,,,,,,,,,,,,,,,,,,,,,,,,,,,,,,,,,,,,5f2af6dc1a903c46dd0e53bd,606841dfeca58d8ce30b3590,2021-04-03_11h35.01.199,Colour_Similarity_Experiment,2020.2.10,Win32,60,60674ec340277cd6a308bc9f,16.76002703,16.66116438,17.97225,16.76164495,16.64829787,16.76002703,,,,,,,,,,,,,,,,,,,,PF,weak,3,,,,,,,,7,1.08309,,,,,,,,,,,,,,,,,,,,,,,,,,,8,weak,42,98,1,0,0,response1disk,2,152,1,-1,1,0,0,rectangle,1,-1,1,0,0,1,6,0.0004,1,-1,1,0,0,0,151,151,83,1,0,,,,,,,,,,,,,,,,,,,,,
,,,,,,,,,,,,,,,,,,,,,,,,,,,,,,,,,,,,,,,,,,,5f2af6dc1a903c46dd0e53bd,606841dfeca58d8ce30b3590,2021-04-03_11h35.01.199,Colour_Similarity_Experiment,2020.2.10,Win32,60,60674ec340277cd6a308bc9f,16.76002703,16.66116438,17.97225,16.76164495,16.64829787,16.76002703,,,,,,,,,,,,,,,,,,,,PF,weak,3,,,,,,,,7,2.399925,,,,,,,,,,,,,,,,,,,,,,,,,,,9,weak,73,125,1,0,0,response1disk,6,153,15,1,1,0,0,rectangle,15,1,1,0,0,1,4,0.00041,15,1,1,0,0,0,152,152,148,1,0,,,,,,,,,,,,,,,,,,,,,
,,,,,,,,,,,,,,,,,,,,,,,,,,,,,,,,,,,,,,,,,,,5f2af6dc1a903c46dd0e53bd,606841dfeca58d8ce30b3590,2021-04-03_11h35.01.199,Colour_Similarity_Experiment,2020.2.10,Win32,60,60674ec340277cd6a308bc9f,16.76002703,16.66116438,17.97225,16.76164495,16.64829787,16.76002703,,,,,,,,,,,,,,,,,,,,PF,weak,3,,,,,,,,4,1.79974,,,,,,,,,,,,,,,,,,,,,,,,,,,1,weak,74,-152,1,0,0,response3disk,2,154,-1,5,1,0,0,rectangle,-1,5,1,0,0,1,5,0.0004,-1,5,1,0,0,0,153,153,24,1,0,,,,,,,,,,,,,,,,,,,,,
,,,,,,,,,,,,,,,,,,,,,,,,,,,,,,,,,,,,,,,,,,,5f2af6dc1a903c46dd0e53bd,606841dfeca58d8ce30b3590,2021-04-03_11h35.01.199,Colour_Similarity_Experiment,2020.2.10,Win32,60,60674ec340277cd6a308bc9f,16.76002703,16.66116438,17.97225,16.76164495,16.64829787,16.76002703,,,,,,,,,,,,,,,,,,,,PF,strong,3,,,,,,,,7,1.849615,,,,,,,,,,,,,,,,,,,,,,,,,,,9,strong,75,143,1,0,0,response1disk,2,155,-2,0,1,0,0,rectangle,49,151,1,0,0,7,7,2.15014,5,4,1,0,0,0,154,154,11,1,1,response1disk_3,rectangle,,,,,,,,,,,,,,,,,,,
,,,,,,,,,,,,,,,,,,,,,,,,,,,,,,,,,,,,,,,,,,,5f2af6dc1a903c46dd0e53bd,606841dfeca58d8ce30b3590,2021-04-03_11h35.01.199,Colour_Similarity_Experiment,2020.2.10,Win32,60,60674ec340277cd6a308bc9f,16.76002703,16.66116438,17.97225,16.76164495,16.64829787,16.76002703,,,,,,,,,,,,,,,,,,,,PF,weak,3,,,,,,,,7,1.199395,,,,,,,,,,,,,,,,,,,,,,,,,,,6,weak,66,123,1,0,0,response1disk,4,156,2,4,1,0,0,rectangle,2,4,1,0,0,7,2,0.00042,2,4,1,0,0,0,155,155,33,1,0,,,,,,,,,,,,,,,,,,,,,
,,,,,,,,,,,,,,,,,,,,,,,,,,,,,,,,,,,,,,,,,,,5f2af6dc1a903c46dd0e53bd,606841dfeca58d8ce30b3590,2021-04-03_11h35.01.199,Colour_Similarity_Experiment,2020.2.10,Win32,60,60674ec340277cd6a308bc9f,16.76002703,16.66116438,17.97225,16.76164495,16.64829787,16.76002703,,,,,,,,,,,,,,,,,,,,PF,strong,3,,,,,,,,7,1.883185,,,,,,,,,,,,,,,,,,,,,,,,,,,3,strong,55,136,1,0,0,response1disk,2,157,1,5,1,0,0,rectangle,1,5,1,0,0,7,0,0.0004,1,5,1,0,0,0,156,156,93,1,0,,,,,,,,,,,,,,,,,,,,,
,,,,,,,,,,,,,,,,,,,,,,,,,,,,,,,,,,,,,,,,,,,5f2af6dc1a903c46dd0e53bd,606841dfeca58d8ce30b3590,2021-04-03_11h35.01.199,Colour_Similarity_Experiment,2020.2.10,Win32,60,60674ec340277cd6a308bc9f,16.76002703,16.66116438,17.97225,16.76164495,16.64829787,16.76002703,,,,,,,,,,,,,,,,,,,,PF,weak,3,,,,,,,,4,1.883035,,,,,,,,,,,,,,,,,,,,,,,,,,,5,weak,75,-125,1,0,0,response3disk,6,158,0,6,1,0,0,rectangle,0,6,1,0,0,7,1,0.0004,0,6,1,0,0,0,157,157,103,1,0,,,,,,,,,,,,,,,,,,,,,
,,,,,,,,,,,,,,,,,,,,,,,,,,,,,,,,,,,,,,,,,,,5f2af6dc1a903c46dd0e53bd,606841dfeca58d8ce30b3590,2021-04-03_11h35.01.199,Colour_Similarity_Experiment,2020.2.10,Win32,60,60674ec340277cd6a308bc9f,16.76002703,16.66116438,17.97225,16.76164495,16.64829787,16.76002703,,,,,,,,,,,,,,,,,,,,PF,weak,3,,,,,,,,7,1.199695,,,,,,,,,,,,,,,,,,,,,,,,,,,5,weak,47,113,1,0,0,response1disk,1,159,4,2,1,0,0,rectangle,-42,130,1,0,0,0,0,1.350185,-3,7,1,0,0,0,158,158,159,1,1,response7disk_3,rectangle,,,,,,,,,,,,,,,,,,,
,,,,,,,,,,,,,,,,,,,,,,,,,,,,,,,,,,,,,,,,,,,5f2af6dc1a903c46dd0e53bd,606841dfeca58d8ce30b3590,2021-04-03_11h35.01.199,Colour_Similarity_Experiment,2020.2.10,Win32,60,60674ec340277cd6a308bc9f,16.76002703,16.66116438,17.97225,16.76164495,16.64829787,16.76002703,,,,,,,,,,,,,,,,,,,,PF,weak,3,,,,,,,,7,1.199715,,,,,,,,,,,,,,,,,,,,,,,,,,,1,weak,62,119,1,0,0,response1disk,5,160,-5,-4,1,0,0,rectangle,-5,-4,1,0,0,0,4,0.00043,-5,-4,1,0,0,0,159,159,28,1,0,,,,,,,,,,,,,,,,,,,,,
,,,,,,,,,,,,,,,,,,,,,,,,,,,,,,,,,,,,,,,,,,,5f2af6dc1a903c46dd0e53bd,606841dfeca58d8ce30b3590,2021-04-03_11h35.01.199,Colour_Similarity_Experiment,2020.2.10,Win32,60,60674ec340277cd6a308bc9f,16.76002703,16.66116438,17.97225,16.76164495,16.64829787,16.76002703,,,,,,,,,,,,,,,,,,,,PF,strong,3,,,,,,,,7,1.9001,,,,,,,,,,,,,,,,,,,,,,,,,,,7,strong,44,123,1,0,0,response1disk,5,161,-4,-4,1,0,0,rectangle,-4,-4,1,0,0,0,1,0.0004,-4,-4,1,0,0,0,160,160,156,1,0,,,,,,,,,,,,,,,,,,,,,
,,,,,,,,,,,,,,,,,,,,,,,,,,,,,,,,,,,,,,,,,,,5f2af6dc1a903c46dd0e53bd,606841dfeca58d8ce30b3590,2021-04-03_11h35.01.199,Colour_Similarity_Experiment,2020.2.10,Win32,60,60674ec340277cd6a308bc9f,16.76002703,16.66116438,17.97225,16.76164495,16.64829787,16.76002703,,,,,,,,,,,,,,,,,,,,PF,strong,3,,,,,,,,7,1.766275,,,,,,,,,,,,,,,,,,,,,,,,,,,1,strong,53,110,1,0,0,response1disk,7,162,0,-15,1,0,0,rectangle,0,-15,1,0,0,0,6,0.00041,0,-15,1,0,0,0,161,161,137,1,0,,,,,,,,,,,,,,,,,,,,,
,,,,,,,,,,,,,,,,,,,,,,,,,,,,,,,,,,,,,,,,,,,5f2af6dc1a903c46dd0e53bd,606841dfeca58d8ce30b3590,2021-04-03_11h35.01.199,Colour_Similarity_Experiment,2020.2.10,Win32,60,60674ec340277cd6a308bc9f,16.76002703,16.66116438,17.97225,16.76164495,16.64829787,16.76002703,,,,,,,,,,,,,,,,,,,,,,,,,,,,,,,,,,,,,,,,,,,,,,,,,,,,,,,,,,,,,,,,,,,,,,,,,,,,,,,,,,,,,,,,,,,,,,,0,0,0,0,1,,,,,,,,,,,,,,
,,,,,,,,,,,,,,,,,,,,,,,,,,,,,,,,,,,,,,,,,,,5f2af6dc1a903c46dd0e53bd,606841dfeca58d8ce30b3590,2021-04-03_11h35.01.199,Colour_Similarity_Experiment,2020.2.10,Win32,60,60674ec340277cd6a308bc9f,16.76002703,16.66116438,17.97225,16.76164495,16.64829787,16.76002703,,,,,,,,,,,,,,,,,,,,PF,strong,3,,,,,,,,4,1.81735,,,,,,,,,,,,,,,,,,,,,,,,,,,7,strong,58,-118,1,0,0,response3disk,4,163,1,10,1,0,0,rectangle,1,10,1,0,0,0,2,0.00161,1,10,1,0,0,0,0,0,158,1,0,,,,,,,,,,,,,,,,,,,,,
,,,,,,,,,,,,,,,,,,,,,,,,,,,,,,,,,,,,,,,,,,,5f2af6dc1a903c46dd0e53bd,606841dfeca58d8ce30b3590,2021-04-03_11h35.01.199,Colour_Similarity_Experiment,2020.2.10,Win32,60,60674ec340277cd6a308bc9f,16.76002703,16.66116438,17.97225,16.76164495,16.64829787,16.76002703,,,,,,,,,,,,,,,,,,,,PF,strong,3,,,,,,,,1,1.18385,,,,,,,,,,,,,,,,,,,,,,,,,,,3,strong,-124,55,1,0,0,response7disk,3,164,0,4,1,0,0,rectangle,0,4,1,0,0,0,4,0.001515,0,4,1,0,0,0,1,1,68,1,0,,,,,,,,,,,,,,,,,,,,,
,,,,,,,,,,,,,,,,,,,,,,,,,,,,,,,,,,,,,,,,,,,5f2af6dc1a903c46dd0e53bd,606841dfeca58d8ce30b3590,2021-04-03_11h35.01.199,Colour_Similarity_Experiment,2020.2.10,Win32,60,60674ec340277cd6a308bc9f,16.76002703,16.66116438,17.97225,16.76164495,16.64829787,16.76002703,,,,,,,,,,,,,,,,,,,,PF,weak,3,,,,,,,,3,2.48388,,,,,,,,,,,,,,,,,,,,,,,,,,,6,weak,-70,-103,1,0,0,response5disk,5,165,1,4,1,0,0,rectangle,1,4,1,0,0,0,7,0.00152,1,4,1,0,0,0,2,2,59,1,0,,,,,,,,,,,,,,,,,,,,,
,,,,,,,,,,,,,,,,,,,,,,,,,,,,,,,,,,,,,,,,,,,5f2af6dc1a903c46dd0e53bd,606841dfeca58d8ce30b3590,2021-04-03_11h35.01.199,Colour_Similarity_Experiment,2020.2.10,Win32,60,60674ec340277cd6a308bc9f,16.76002703,16.66116438,17.97225,16.76164495,16.64829787,16.76002703,,,,,,,,,,,,,,,,,,,,PF,weak,3,,,,,,,,7,0.917245,,,,,,,,,,,,,,,,,,,,,,,,,,,2,weak,45,126,1,0,0,response1disk,7,166,-3,8,1,0,0,rectangle,-3,8,1,0,0,0,6,0.001595,-3,8,1,0,0,0,3,3,107,1,0,,,,,,,,,,,,,,,,,,,,,
,,,,,,,,,,,,,,,,,,,,,,,,,,,,,,,,,,,,,,,,,,,5f2af6dc1a903c46dd0e53bd,606841dfeca58d8ce30b3590,2021-04-03_11h35.01.199,Colour_Similarity_Experiment,2020.2.10,Win32,60,60674ec340277cd6a308bc9f,16.76002703,16.66116438,17.97225,16.76164495,16.64829787,16.76002703,,,,,,,,,,,,,,,,,,,,PF,strong,3,,,,,,,,7,1.150665,,,,,,,,,,,,,,,,,,,,,,,,,,,7,strong,56,122,1,0,0,response1disk,8,167,0,6,1,0,0,rectangle,-39,121,1,0,0,0,0,1.36632,0,1,1,0,0,0,4,4,97,1,1,response7disk_3,rectangle,,,,,,,,,,,,,,,,,,,
,,,,,,,,,,,,,,,,,,,,,,,,,,,,,,,,,,,,,,,,,,,5f2af6dc1a903c46dd0e53bd,606841dfeca58d8ce30b3590,2021-04-03_11h35.01.199,Colour_Similarity_Experiment,2020.2.10,Win32,60,60674ec340277cd6a308bc9f,16.76002703,16.66116438,17.97225,16.76164495,16.64829787,16.76002703,,,,,,,,,,,,,,,,,,,,PF,strong,3,,,,,,,,7,1.450565,,,,,,,,,,,,,,,,,,,,,,,,,,,5,strong,50,108,1,0,0,response1disk,2,168,-6,-11,1,0,0,rectangle,-40,139,1,0,0,0,0,1.283455,-3,12,1,0,0,0,5,5,55,1,1,response7disk_3,rectangle,,,,,,,,,,,,,,,,,,,
,,,,,,,,,,,,,,,,,,,,,,,,,,,,,,,,,,,,,,,,,,,5f2af6dc1a903c46dd0e53bd,606841dfeca58d8ce30b3590,2021-04-03_11h35.01.199,Colour_Similarity_Experiment,2020.2.10,Win32,60,60674ec340277cd6a308bc9f,16.76002703,16.66116438,17.97225,16.76164495,16.64829787,16.76002703,,,,,,,,,,,,,,,,,,,,PF,weak,3,,,,,,,,3,2.30053,,,,,,,,,,,,,,,,,,,,,,,,,,,5,weak,-49,-126,1,0,0,response5disk,7,169,-6,-1,1,0,0,rectangle,-6,-1,1,0,0,0,4,0.00163,-6,-1,1,0,0,0,6,6,146,1,0,,,,,,,,,,,,,,,,,,,,,
,,,,,,,,,,,,,,,,,,,,,,,,,,,,,,,,,,,,,,,,,,,5f2af6dc1a903c46dd0e53bd,606841dfeca58d8ce30b3590,2021-04-03_11h35.01.199,Colour_Similarity_Experiment,2020.2.10,Win32,60,60674ec340277cd6a308bc9f,16.76002703,16.66116438,17.97225,16.76164495,16.64829787,16.76002703,,,,,,,,,,,,,,,,,,,,PF,strong,3,,,,,,,,2,1.716965,,,,,,,,,,,,,,,,,,,,,,,,,,,5,strong,-138,-78,1,0,0,response5disk,4,170,5,-3,1,0,0,rectangle,5,-3,1,0,0,0,7,0.00156,5,-3,1,0,0,0,7,7,8,1,0,,,,,,,,,,,,,,,,,,,,,
,,,,,,,,,,,,,,,,,,,,,,,,,,,,,,,,,,,,,,,,,,,5f2af6dc1a903c46dd0e53bd,606841dfeca58d8ce30b3590,2021-04-03_11h35.01.199,Colour_Similarity_Experiment,2020.2.10,Win32,60,60674ec340277cd6a308bc9f,16.76002703,16.66116438,17.97225,16.76164495,16.64829787,16.76002703,,,,,,,,,,,,,,,,,,,,PF,weak,3,,,,,,,,7,0.9673,,,,,,,,,,,,,,,,,,,,,,,,,,,6,weak,72,159,1,0,0,response1disk,8,171,7,7,1,0,0,rectangle,7,7,1,0,0,0,0,0.001555,7,7,1,0,0,0,8,8,64,1,0,,,,,,,,,,,,,,,,,,,,,
,,,,,,,,,,,,,,,,,,,,,,,,,,,,,,,,,,,,,,,,,,,5f2af6dc1a903c46dd0e53bd,606841dfeca58d8ce30b3590,2021-04-03_11h35.01.199,Colour_Similarity_Experiment,2020.2.10,Win32,60,60674ec340277cd6a308bc9f,16.76002703,16.66116438,17.97225,16.76164495,16.64829787,16.76002703,,,,,,,,,,,,,,,,,,,,PF,weak,3,,,,,,,,0,1.03393,,,,,,,,,,,,,,,,,,,,,,,,,,,9,weak,-63,101,1,0,0,response7disk,9,172,-4,0,1,0,0,rectangle,-4,0,1,0,0,0,5,0.00172,-4,0,1,0,0,0,9,9,106,1,0,,,,,,,,,,,,,,,,,,,,,
,,,,,,,,,,,,,,,,,,,,,,,,,,,,,,,,,,,,,,,,,,,5f2af6dc1a903c46dd0e53bd,606841dfeca58d8ce30b3590,2021-04-03_11h35.01.199,Colour_Similarity_Experiment,2020.2.10,Win32,60,60674ec340277cd6a308bc9f,16.76002703,16.66116438,17.97225,16.76164495,16.64829787,16.76002703,,,,,,,,,,,,,,,,,,,,PF,weak,3,,,,,,,,2,1.43399,,,,,,,,,,,,,,,,,,,,,,,,,,,7,weak,-111,-40,1,0,0,response5disk,6,173,5,1,1,0,0,rectangle,5,1,1,0,0,0,5,0.00027,5,1,1,0,0,0,10,10,29,1,0,,,,,,,,,,,,,,,,,,,,,
,,,,,,,,,,,,,,,,,,,,,,,,,,,,,,,,,,,,,,,,,,,5f2af6dc1a903c46dd0e53bd,606841dfeca58d8ce30b3590,2021-04-03_11h35.01.199,Colour_Similarity_Experiment,2020.2.10,Win32,60,60674ec340277cd6a308bc9f,16.76002703,16.66116438,17.97225,16.76164495,16.64829787,16.76002703,,,,,,,,,,,,,,,,,,,,PF,strong,3,,,,,,,,7,0.934075,,,,,,,,,,,,,,,,,,,,,,,,,,,4,strong,61,141,1,0,0,response1disk,9,174,-6,8,1,0,0,rectangle,-6,8,1,0,0,0,2,0.000455,-6,8,1,0,0,0,11,11,90,1,0,,,,,,,,,,,,,,,,,,,,,
,,,,,,,,,,,,,,,,,,,,,,,,,,,,,,,,,,,,,,,,,,,5f2af6dc1a903c46dd0e53bd,606841dfeca58d8ce30b3590,2021-04-03_11h35.01.199,Colour_Similarity_Experiment,2020.2.10,Win32,60,60674ec340277cd6a308bc9f,16.76002703,16.66116438,17.97225,16.76164495,16.64829787,16.76002703,,,,,,,,,,,,,,,,,,,,PF,weak,3,,,,,,,,7,0.90051,,,,,,,,,,,,,,,,,,,,,,,,,,,6,weak,41,107,1,0,0,response1disk,9,175,0,2,1,0,0,rectangle,0,2,1,0,0,0,2,0.00021,0,2,1,0,0,0,12,12,45,1,0,,,,,,,,,,,,,,,,,,,,,
,,,,,,,,,,,,,,,,,,,,,,,,,,,,,,,,,,,,,,,,,,,5f2af6dc1a903c46dd0e53bd,606841dfeca58d8ce30b3590,2021-04-03_11h35.01.199,Colour_Similarity_Experiment,2020.2.10,Win32,60,60674ec340277cd6a308bc9f,16.76002703,16.66116438,17.97225,16.76164495,16.64829787,16.76002703,,,,,,,,,,,,,,,,,,,,PF,weak,3,,,,,,,,4,3.39996,,,,,,,,,,,,,,,,,,,,,,,,,,,7,weak,78,-131,1,0,0,response3disk,8,176,-3,-2,1,0,0,rectangle,-3,-2,1,0,0,0,7,0.001565,-3,-2,1,0,0,0,13,13,140,1,0,,,,,,,,,,,,,,,,,,,,,
,,,,,,,,,,,,,,,,,,,,,,,,,,,,,,,,,,,,,,,,,,,5f2af6dc1a903c46dd0e53bd,606841dfeca58d8ce30b3590,2021-04-03_11h35.01.199,Colour_Similarity_Experiment,2020.2.10,Win32,60,60674ec340277cd6a308bc9f,16.76002703,16.66116438,17.97225,16.76164495,16.64829787,16.76002703,,,,,,,,,,,,,,,,,,,,PF,strong,3,,,,,,,,7,1.250565,,,,,,,,,,,,,,,,,,,,,,,,,,,1,strong,70,134,1,0,0,response1disk,4,177,2,2,1,0,0,rectangle,2,2,1,0,0,0,0,0.00162,2,2,1,0,0,0,14,14,135,1,0,,,,,,,,,,,,,,,,,,,,,
,,,,,,,,,,,,,,,,,,,,,,,,,,,,,,,,,,,,,,,,,,,5f2af6dc1a903c46dd0e53bd,606841dfeca58d8ce30b3590,2021-04-03_11h35.01.199,Colour_Similarity_Experiment,2020.2.10,Win32,60,60674ec340277cd6a308bc9f,16.76002703,16.66116438,17.97225,16.76164495,16.64829787,16.76002703,,,,,,,,,,,,,,,,,,,,PF,weak,3,,,,,,,,5,2.933865,,,,,,,,,,,,,,,,,,,,,,,,,,,7,weak,110,-53,1,0,0,response3disk,3,178,0,4,1,0,0,rectangle,0,4,1,0,0,0,6,0.001625,0,4,1,0,0,0,15,15,81,1,0,,,,,,,,,,,,,,,,,,,,,
,,,,,,,,,,,,,,,,,,,,,,,,,,,,,,,,,,,,,,,,,,,5f2af6dc1a903c46dd0e53bd,606841dfeca58d8ce30b3590,2021-04-03_11h35.01.199,Colour_Similarity_Experiment,2020.2.10,Win32,60,60674ec340277cd6a308bc9f,16.76002703,16.66116438,17.97225,16.76164495,16.64829787,16.76002703,,,,,,,,,,,,,,,,,,,,PF,strong,3,,,,,,,,7,0.917205,,,,,,,,,,,,,,,,,,,,,,,,,,,7,strong,61,129,1,0,0,response1disk,9,179,0,0,1,0,0,rectangle,0,0,1,0,0,0,3,0.001595,0,0,1,0,0,0,16,16,155,1,0,,,,,,,,,,,,,,,,,,,,,
,,,,,,,,,,,,,,,,,,,,,,,,,,,,,,,,,,,,,,,,,,,5f2af6dc1a903c46dd0e53bd,606841dfeca58d8ce30b3590,2021-04-03_11h35.01.199,Colour_Similarity_Experiment,2020.2.10,Win32,60,60674ec340277cd6a308bc9f,16.76002703,16.66116438,17.97225,16.76164495,16.64829787,16.76002703,,,,,,,,,,,,,,,,,,,,PF,weak,3,,,,,,,,7,0.933845,,,,,,,,,,,,,,,,,,,,,,,,,,,2,weak,54,120,1,0,0,response1disk,5,180,4,-1,1,0,0,rectangle,4,-1,1,0,0,0,4,0.00152,4,-1,1,0,0,0,17,17,147,1,0,,,,,,,,,,,,,,,,,,,,,
,,,,,,,,,,,,,,,,,,,,,,,,,,,,,,,,,,,,,,,,,,,5f2af6dc1a903c46dd0e53bd,606841dfeca58d8ce30b3590,2021-04-03_11h35.01.199,Colour_Similarity_Experiment,2020.2.10,Win32,60,60674ec340277cd6a308bc9f,16.76002703,16.66116438,17.97225,16.76164495,16.64829787,16.76002703,,,,,,,,,,,,,,,,,,,,PF,weak,3,,,,,,,,2,2.430745,,,,,,,,,,,,,,,,,,,,,,,,,,,5,weak,-127,-69,1,0,0,response5disk,3,181,0,2,1,0,0,rectangle,0,2,1,0,0,0,1,0.001565,0,2,1,0,0,0,18,18,109,1,0,,,,,,,,,,,,,,,,,,,,,
,,,,,,,,,,,,,,,,,,,,,,,,,,,,,,,,,,,,,,,,,,,5f2af6dc1a903c46dd0e53bd,606841dfeca58d8ce30b3590,2021-04-03_11h35.01.199,Colour_Similarity_Experiment,2020.2.10,Win32,60,60674ec340277cd6a308bc9f,16.76002703,16.66116438,17.97225,16.76164495,16.64829787,16.76002703,,,,,,,,,,,,,,,,,,,,PF,weak,3,,,,,,,,7,0.91429,,,,,,,,,,,,,,,,,,,,,,,,,,,2,weak,51,122,1,0,0,response1disk,9,182,-2,-6,1,0,0,rectangle,-2,-6,1,0,0,0,3,0.002165,-2,-6,1,0,0,0,19,19,39,1,0,,,,,,,,,,,,,,,,,,,,,
,,,,,,,,,,,,,,,,,,,,,,,,,,,,,,,,,,,,,,,,,,,5f2af6dc1a903c46dd0e53bd,606841dfeca58d8ce30b3590,2021-04-03_11h35.01.199,Colour_Similarity_Experiment,2020.2.10,Win32,60,60674ec340277cd6a308bc9f,16.76002703,16.66116438,17.97225,16.76164495,16.64829787,16.76002703,,,,,,,,,,,,,,,,,,,,PF,weak,3,,,,,,,,7,0.867335,,,,,,,,,,,,,,,,,,,,,,,,,,,8,weak,43,119,1,0,0,response1disk,6,183,0,3,1,0,0,rectangle,-56,112,1,0,0,0,0,1.23316,0,5,1,0,0,0,20,20,161,1,1,response7disk_3,rectangle,,,,,,,,,,,,,,,,,,,
,,,,,,,,,,,,,,,,,,,,,,,,,,,,,,,,,,,,,,,,,,,5f2af6dc1a903c46dd0e53bd,606841dfeca58d8ce30b3590,2021-04-03_11h35.01.199,Colour_Similarity_Experiment,2020.2.10,Win32,60,60674ec340277cd6a308bc9f,16.76002703,16.66116438,17.97225,16.76164495,16.64829787,16.76002703,,,,,,,,,,,,,,,,,,,,PF,weak,3,,,,,,,,7,0.83323,,,,,,,,,,,,,,,,,,,,,,,,,,,9,weak,45,123,1,0,0,response1disk,7,184,10,-1,1,0,0,rectangle,10,-1,1,0,0,0,4,0.00272,10,-1,1,0,0,0,21,21,121,1,0,,,,,,,,,,,,,,,,,,,,,
,,,,,,,,,,,,,,,,,,,,,,,,,,,,,,,,,,,,,,,,,,,5f2af6dc1a903c46dd0e53bd,606841dfeca58d8ce30b3590,2021-04-03_11h35.01.199,Colour_Similarity_Experiment,2020.2.10,Win32,60,60674ec340277cd6a308bc9f,16.76002703,16.66116438,17.97225,16.76164495,16.64829787,16.76002703,,,,,,,,,,,,,,,,,,,,PF,strong,3,,,,,,,,7,0.783275,,,,,,,,,,,,,,,,,,,,,,,,,,,4,strong,43,129,1,0,0,response1disk,1,185,-2,3,1,0,0,rectangle,-2,3,1,0,0,0,7,0.00079,-2,3,1,0,0,0,22,22,102,1,0,,,,,,,,,,,,,,,,,,,,,
,,,,,,,,,,,,,,,,,,,,,,,,,,,,,,,,,,,,,,,,,,,5f2af6dc1a903c46dd0e53bd,606841dfeca58d8ce30b3590,2021-04-03_11h35.01.199,Colour_Similarity_Experiment,2020.2.10,Win32,60,60674ec340277cd6a308bc9f,16.76002703,16.66116438,17.97225,16.76164495,16.64829787,16.76002703,,,,,,,,,,,,,,,,,,,,PF,strong,3,,,,,,,,4,1.867365,,,,,,,,,,,,,,,,,,,,,,,,,,,5,strong,68,-157,1,0,0,response3disk,3,186,-3,15,1,0,0,rectangle,-3,15,1,0,0,0,0,0.001715,-3,15,1,0,0,0,23,23,25,1,0,,,,,,,,,,,,,,,,,,,,,
,,,,,,,,,,,,,,,,,,,,,,,,,,,,,,,,,,,,,,,,,,,5f2af6dc1a903c46dd0e53bd,606841dfeca58d8ce30b3590,2021-04-03_11h35.01.199,Colour_Similarity_Experiment,2020.2.10,Win32,60,60674ec340277cd6a308bc9f,16.76002703,16.66116438,17.97225,16.76164495,16.64829787,16.76002703,,,,,,,,,,,,,,,,,,,,PF,weak,3,,,,,,,,0,1.01607,,,,,,,,,,,,,,,,,,,,,,,,,,,4,weak,-59,139,1,0,0,response7disk,4,187,1,2,1,0,0,rectangle,1,2,1,0,0,0,3,0.001555,1,2,1,0,0,0,24,24,70,1,0,,,,,,,,,,,,,,,,,,,,,
,,,,,,,,,,,,,,,,,,,,,,,,,,,,,,,,,,,,,,,,,,,5f2af6dc1a903c46dd0e53bd,606841dfeca58d8ce30b3590,2021-04-03_11h35.01.199,Colour_Similarity_Experiment,2020.2.10,Win32,60,60674ec340277cd6a308bc9f,16.76002703,16.66116438,17.97225,16.76164495,16.64829787,16.76002703,,,,,,,,,,,,,,,,,,,,PF,weak,3,,,,,,,,7,0.85232,,,,,,,,,,,,,,,,,,,,,,,,,,,4,weak,67,142,1,0,0,response1disk,8,188,-1,0,1,0,0,rectangle,-1,0,1,0,0,0,3,0.000275,-1,0,1,0,0,0,25,25,124,1,0,,,,,,,,,,,,,,,,,,,,,
,,,,,,,,,,,,,,,,,,,,,,,,,,,,,,,,,,,,,,,,,,,5f2af6dc1a903c46dd0e53bd,606841dfeca58d8ce30b3590,2021-04-03_11h35.01.199,Colour_Similarity_Experiment,2020.2.10,Win32,60,60674ec340277cd6a308bc9f,16.76002703,16.66116438,17.97225,16.76164495,16.64829787,16.76002703,,,,,,,,,,,,,,,,,,,,PF,strong,3,,,,,,,,7,1.017225,,,,,,,,,,,,,,,,,,,,,,,,,,,3,strong,62,136,1,0,0,response1disk,6,189,6,2,1,0,0,rectangle,6,2,1,0,0,0,6,0.001565,6,2,1,0,0,0,26,26,95,1,0,,,,,,,,,,,,,,,,,,,,,
,,,,,,,,,,,,,,,,,,,,,,,,,,,,,,,,,,,,,,,,,,,5f2af6dc1a903c46dd0e53bd,606841dfeca58d8ce30b3590,2021-04-03_11h35.01.199,Colour_Similarity_Experiment,2020.2.10,Win32,60,60674ec340277cd6a308bc9f,16.76002703,16.66116438,17.97225,16.76164495,16.64829787,16.76002703,,,,,,,,,,,,,,,,,,,,PF,strong,3,,,,,,,,6,1.750035,,,,,,,,,,,,,,,,,,,,,,,,,,,6,strong,102,64,1,0,0,response1disk,5,190,0,9,1,0,0,rectangle,0,9,1,0,0,0,5,0.00152,0,9,1,0,0,0,27,27,126,1,0,,,,,,,,,,,,,,,,,,,,,
,,,,,,,,,,,,,,,,,,,,,,,,,,,,,,,,,,,,,,,,,,,5f2af6dc1a903c46dd0e53bd,606841dfeca58d8ce30b3590,2021-04-03_11h35.01.199,Colour_Similarity_Experiment,2020.2.10,Win32,60,60674ec340277cd6a308bc9f,16.76002703,16.66116438,17.97225,16.76164495,16.64829787,16.76002703,,,,,,,,,,,,,,,,,,,,PF,weak,3,,,,,,,,7,0.71732,,,,,,,,,,,,,,,,,,,,,,,,,,,1,weak,60,132,1,0,0,response1disk,4,191,10,2,1,0,0,rectangle,10,2,1,0,0,0,6,0.001,10,2,1,0,0,0,28,28,139,1,0,,,,,,,,,,,,,,,,,,,,,
,,,,,,,,,,,,,,,,,,,,,,,,,,,,,,,,,,,,,,,,,,,5f2af6dc1a903c46dd0e53bd,606841dfeca58d8ce30b3590,2021-04-03_11h35.01.199,Colour_Similarity_Experiment,2020.2.10,Win32,60,60674ec340277cd6a308bc9f,16.76002703,16.66116438,17.97225,16.76164495,16.64829787,16.76002703,,,,,,,,,,,,,,,,,,,,PF,weak,3,,,,,,,,0,1.0506,,,,,,,,,,,,,,,,,,,,,,,,,,,2,weak,-58,111,1,0,0,response7disk,2,192,3,4,1,0,0,rectangle,3,4,1,0,0,0,1,0.003415,3,4,1,0,0,0,29,29,14,1,0,,,,,,,,,,,,,,,,,,,,,
,,,,,,,,,,,,,,,,,,,,,,,,,,,,,,,,,,,,,,,,,,,5f2af6dc1a903c46dd0e53bd,606841dfeca58d8ce30b3590,2021-04-03_11h35.01.199,Colour_Similarity_Experiment,2020.2.10,Win32,60,60674ec340277cd6a308bc9f,16.76002703,16.66116438,17.97225,16.76164495,16.64829787,16.76002703,,,,,,,,,,,,,,,,,,,,PF,strong,3,,,,,,,,4,1.78317,,,,,,,,,,,,,,,,,,,,,,,,,,,1,strong,48,-126,1,0,0,response3disk,8,193,-4,-8,1,0,0,rectangle,-4,-8,1,0,0,0,3,0.001515,-4,-8,1,0,0,0,30,30,27,1,0,,,,,,,,,,,,,,,,,,,,,
,,,,,,,,,,,,,,,,,,,,,,,,,,,,,,,,,,,,,,,,,,,5f2af6dc1a903c46dd0e53bd,606841dfeca58d8ce30b3590,2021-04-03_11h35.01.199,Colour_Similarity_Experiment,2020.2.10,Win32,60,60674ec340277cd6a308bc9f,16.76002703,16.66116438,17.97225,16.76164495,16.64829787,16.76002703,,,,,,,,,,,,,,,,,,,,PF,strong,3,,,,,,,,7,1.083685,,,,,,,,,,,,,,,,,,,,,,,,,,,9,strong,50,113,1,0,0,response1disk,6,194,-10,-12,1,0,0,rectangle,-10,-12,1,0,0,0,4,0.00146,-10,-12,1,0,0,0,31,31,117,1,0,,,,,,,,,,,,,,,,,,,,,
,,,,,,,,,,,,,,,,,,,,,,,,,,,,,,,,,,,,,,,,,,,5f2af6dc1a903c46dd0e53bd,606841dfeca58d8ce30b3590,2021-04-03_11h35.01.199,Colour_Similarity_Experiment,2020.2.10,Win32,60,60674ec340277cd6a308bc9f,16.76002703,16.66116438,17.97225,16.76164495,16.64829787,16.76002703,,,,,,,,,,,,,,,,,,,,PF,weak,3,,,,,,,,7,1.90044,,,,,,,,,,,,,,,,,,,,,,,,,,,7,weak,68,135,1,0,0,response1disk,4,195,-6,-3,1,0,0,rectangle,-6,-3,1,0,0,0,6,0.00169,-6,-3,1,0,0,0,32,32,43,1,0,,,,,,,,,,,,,,,,,,,,,
