key_resp.keys,key_resp.rt,key_resp_16.keys,key_resp_16.rt,key_resp_2.keys,key_resp_2.rt,X Scale,ratio_pxpermm,screen_size_x,screen_size_y,testsize,key_resp_3.keys,key_resp_4.keys,key_resp_4.rt,line_size,key_resp_5.keys,key_resp_5.rt,key_resp_6.keys,key_resp_6.rt,key_resp_8.keys,key_resp_8.rt,key_resp_7.keys,key_resp_7.rt,key_resp_12.keys,key_resp_12.rt,key_resp_11.keys,key_resp_11.rt,key_resp_18.keys,key_resp_18.rt,key_resp_21.keys,key_resp_21.rt,key_resp_13.keys,key_resp_13.rt,key_resp_19.keys,key_resp_19.rt,ballposx,viewer_distance,trials.thisRepN,trials.thisTrialN,trials.thisN,trials.thisIndex,trials.ran,participant,session,date,expName,psychopyVersion,OS,frameRate,study_id,realFrameRate1,realFrameRate2,realFrameRate3,realFrameRate4,realFrameRate5,realFrameRate,viewerdistancecm,DVA_to_distance,radius_F,radius_P,r_F,R_P,key_resp_20.keys,key_resp_20.rt,key_resp_14.keys,key_resp_14.rt,key_resp_15.keys,key_resp_15.rt,key_resp_17.keys,key_resp_17.rt,key_resp_9.keys,key_resp_9.rt,key_resp_10.keys,key_resp_10.rt,Colour_1,Ecc,maskCon,mask_frames,mouse_5.x,mouse_5.y,mouse_5.leftButton,mouse_5.midButton,mouse_5.rightButton,mouse_5.clicked_name,Colour_2,similarity,response_time,mouse_10.x,mouse_10.y,mouse_10.leftButton,mouse_10.midButton,mouse_10.rightButton,mouse_10.clicked_name,mouse_7.x,mouse_7.y,mouse_7.leftButton,mouse_7.midButton,mouse_7.rightButton,mouse_7.clicked_name,catchprac,catchnumberprac,mouse_6.x,mouse_6.y,mouse_6.leftButton,mouse_6.midButton,mouse_6.rightButton,mouse_6.clicked_name,duringprac.thisRepN,duringprac.thisTrialN,duringprac.thisN,duringprac.thisIndex,duringprac.ran,key_resp_22.keys,key_resp_22.rt,Colour1,maskCon1,mouse.x,mouse.y,mouse.leftButton,mouse.midButton,mouse.rightButton,mouse.clicked_name,Colour2,trialnumber,mouse_2.x,mouse_2.y,mouse_2.leftButton,mouse_2.midButton,mouse_2.rightButton,mouse_2.clicked_name,mouse_3.x,mouse_3.y,mouse_3.leftButton,mouse_3.midButton,mouse_3.rightButton,catchresponse,catchnumber,response_time_catch,mouse_11.x,mouse_11.y,mouse_11.leftButton,mouse_11.midButton,mouse_11.rightButton,trials_2.thisRepN,trials_2.thisTrialN,trials_2.thisN,trials_2.thisIndex,trials_2.ran,Catch,mouse_3.clicked_name,mouse_11.clicked_name,trials_3.thisRepN,trials_3.thisTrialN,trials_3.thisN,trials_3.thisIndex,trials_3.ran,answer1,rt1,answer2,rt2,answer3,rt3,answer4,rt4,answer5,rt5,answer6,rt6,answer7,rt7
space,2.769545,space,17.78013,space,8.623285,45.3,4.53,339.0728477,190.7284768,1536,,space,12.737105,90.6,space,17.581145,space,5.77545,space,3.2187,space,53.29222,space,7.099935,space,9.54041,space,9.23237,space,15.513265,space,39.75451,return,10.1366,-829.44,1327.600144,0,0,0,0,1,5f5a901b8b9d7015f013b024,606841bbc950b9940bdb75e6,2021-04-03_12h22.00.856,Colour_Similarity_Experiment,2020.2.10,Win32,60,60674ec340277cd6a308bc9f,17.06841637,16.7083552,16.70903605,16.70214379,16.67420918,16.7083552,,,,,,,,,,,,,,,,,,,,,,,,,,,,,,,,,,,,,,,,,,,,,,,,,,,,,,,,,,,,,,,,,,,,,,,,,,,,,,,,,,,,,,,,,,,,,,,,,,,,,,,,,,,,,,,,,,
,,,,,,,,,,,,,,,,,,,,,,,,,,,,,,,,,return,9.71246,-769.536,1272.518861,1,0,1,0,1,5f5a901b8b9d7015f013b024,606841bbc950b9940bdb75e6,2021-04-03_12h22.00.856,Colour_Similarity_Experiment,2020.2.10,Win32,60,60674ec340277cd6a308bc9f,17.06841637,16.7083552,16.70903605,16.70214379,16.67420918,16.7083552,,,,,,,,,,,,,,,,,,,,,,,,,,,,,,,,,,,,,,,,,,,,,,,,,,,,,,,,,,,,,,,,,,,,,,,,,,,,,,,,,,,,,,,,,,,,,,,,,,,,,,,,,,,,,,,,,,
,,,,,,,,,,,,,,,,,,,,,,,,,,,,,,,,,return,10.143315,-829.44,1327.600144,2,0,2,0,1,5f5a901b8b9d7015f013b024,606841bbc950b9940bdb75e6,2021-04-03_12h22.00.856,Colour_Similarity_Experiment,2020.2.10,Win32,60,60674ec340277cd6a308bc9f,17.06841637,16.7083552,16.70903605,16.70214379,16.67420918,16.7083552,,,,,,,,,,,,,,,,,,,,,,,,,,,,,,,,,,,,,,,,,,,,,,,,,,,,,,,,,,,,,,,,,,,,,,,,,,,,,,,,,,,,,,,,,,,,,,,,,,,,,,,,,,,,,,,,,,
,,,,,,,,,,,,,,,,,,,,,,,,,,,,,,,,,return,5.387525,-170.496,721.7060357,3,0,3,0,1,5f5a901b8b9d7015f013b024,606841bbc950b9940bdb75e6,2021-04-03_12h22.00.856,Colour_Similarity_Experiment,2020.2.10,Win32,60,60674ec340277cd6a308bc9f,17.06841637,16.7083552,16.70903605,16.70214379,16.67420918,16.7083552,,,,,,,,,,,,,,,,,,,,,,,,,,,,,,,,,,,,,,,,,,,,,,,,,,,,,,,,,,,,,,,,,,,,,,,,,,,,,,,,,,,,,,,,,,,,,,,,,,,,,,,,,,,,,,,,,,
,,,,,,,,,,,,,,,,,,,,,,,,,,,,,,,,,return,4.611915,-64.512,624.2545358,4,0,4,0,1,5f5a901b8b9d7015f013b024,606841bbc950b9940bdb75e6,2021-04-03_12h22.00.856,Colour_Similarity_Experiment,2020.2.10,Win32,60,60674ec340277cd6a308bc9f,17.06841637,16.7083552,16.70903605,16.70214379,16.67420918,16.7083552,,,,,,,,,,,,,,,,,,,,,,,,,,,,,,,,,,,,,,,,,,,,,,,,,,,,,,,,,,,,,,,,,,,,,,,,,,,,,,,,,,,,,,,,,,,,,,,,,,,,,,,,,,,,,,,,,,
,,,,,,,,,,,,,,,,,,,,,,,,,,,,,,,,,,,,,,,,,,5f5a901b8b9d7015f013b024,606841bbc950b9940bdb75e6,2021-04-03_12h22.00.856,Colour_Similarity_Experiment,2020.2.10,Win32,60,60674ec340277cd6a308bc9f,17.06841637,16.7083552,16.70903605,16.70214379,16.67420918,16.7083552,133,23.21522805,157.7474746,1051.649831,105.1649831,473.2424238,space,4.69453,space,23.727085,space,43.04932,space,5.58131,space,3.374455,space,6.54423,7,PF,weak,3,43.20001209,95.19997057,1,0,0,response1disk_5,1,7,20.179175,8.800011575,5.599993646,1,0,0,rectangle_8,85.60001272,-45.60000712,1,0,0,response3disk_7,5,5,-2.399939764,2.399993598,1,0,0,rectangle_4,0,0,0,4,1,,,,,,,,,,,,,,,,,,,,,,,,,,,,,,,,,,,,,,,,,,,,,,,,,,,,,,,,,,
,,,,,,,,,,,,,,,,,,,,,,,,,,,,,,,,,,,,,,,,,,5f5a901b8b9d7015f013b024,606841bbc950b9940bdb75e6,2021-04-03_12h22.00.856,Colour_Similarity_Experiment,2020.2.10,Win32,60,60674ec340277cd6a308bc9f,17.06841637,16.7083552,16.70903605,16.70214379,16.67420918,16.7083552,,,,,,,,,,,,,,,,,,,5,PF,strong,3,-40.79998916,-72.80000752,1,0,0,response5disk_5,7,3,13.69714,-3.999988616,-5.600006521,1,0,0,rectangle_8,-3.999988616,-5.600006521,1,0,0,,,5,-3.999988616,-5.600006521,1,0,0,,0,1,1,0,1,,,,,,,,,,,,,,,,,,,,,,,,,,,,,,,,,,,,,,,,,,,,,,,,,,,,,,,,,,
,,,,,,,,,,,,,,,,,,,,,,,,,,,,,,,,,,,,,,,,,,5f5a901b8b9d7015f013b024,606841bbc950b9940bdb75e6,2021-04-03_12h22.00.856,Colour_Similarity_Experiment,2020.2.10,Win32,60,60674ec340277cd6a308bc9f,17.06841637,16.7083552,16.70903605,16.70214379,16.67420918,16.7083552,,,,,,,,,,,,,,,,,,,5,PF,weak,3,41.60006089,-89.6000566,1,0,0,response3disk_5,7,4,8.665755,5.600060356,-4.800006509,1,0,0,rectangle_8,5.600060356,-4.800006509,1,0,0,,,5,5.600060356,-4.800006509,1,0,0,,0,2,2,6,1,,,,,,,,,,,,,,,,,,,,,,,,,,,,,,,,,,,,,,,,,,,,,,,,,,,,,,,,,,
,,,,,,,,,,,,,,,,,,,,,,,,,,,,,,,,,,,,,,,,,,5f5a901b8b9d7015f013b024,606841bbc950b9940bdb75e6,2021-04-03_12h22.00.856,Colour_Similarity_Experiment,2020.2.10,Win32,60,60674ec340277cd6a308bc9f,17.06841637,16.7083552,16.70903605,16.70214379,16.67420918,16.7083552,,,,,,,,,,,,,,,,,,,8,PF,weak,3,49.60006101,88.79999489,1,0,0,response1disk_5,3,7,3.446695,12.00001162,2.399993598,1,0,0,rectangle_8,12.00001162,2.399993598,1,0,0,,,5,12.00001162,2.399993598,1,0,0,,0,3,3,5,1,,,,,,,,,,,,,,,,,,,,,,,,,,,,,,,,,,,,,,,,,,,,,,,,,,,,,,,,,,
,,,,,,,,,,,,,,,,,,,,,,,,,,,,,,,,,,,,,,,,,,5f5a901b8b9d7015f013b024,606841bbc950b9940bdb75e6,2021-04-03_12h22.00.856,Colour_Similarity_Experiment,2020.2.10,Win32,60,60674ec340277cd6a308bc9f,17.06841637,16.7083552,16.70903605,16.70214379,16.67420918,16.7083552,,,,,,,,,,,,,,,,,,,2,PF,strong,3,107.200013,28.79999399,1,0,0,response1disk_5,2,6,4.26218,-7.999988675,-8.000006557,1,0,0,rectangle_8,-7.999988675,-8.000006557,1,0,0,,,5,-7.999988675,-8.000006557,1,0,0,,0,4,4,2,1,,,,,,,,,,,,,,,,,,,,,,,,,,,,,,,,,,,,,,,,,,,,,,,,,,,,,,,,,,
,,,,,,,,,,,,,,,,,,,,,,,,,,,,,,,,,,,,,,,,,,5f5a901b8b9d7015f013b024,606841bbc950b9940bdb75e6,2021-04-03_12h22.00.856,Colour_Similarity_Experiment,2020.2.10,Win32,60,60674ec340277cd6a308bc9f,17.06841637,16.7083552,16.70903605,16.70214379,16.67420918,16.7083552,,,,,,,,,,,,,,,,,,,5,PF,strong,3,-31.19998902,-87.20000774,1,0,0,response5disk_5,7,3,4.36352,-2.399939764,-3.200006485,1,0,0,rectangle_8,95.20001286,-40.80000705,1,0,0,response3disk_7,5,5,1.600060296,-2.400006473,1,0,0,rectangle_4,0,5,5,3,1,,,,,,,,,,,,,,,,,,,,,,,,,,,,,,,,,,,,,,,,,,,,,,,,,,,,,,,,,,
,,,,,,,,,,,,,,,,,,,,,,,,,,,,,,,,,,,,,,,,,,5f5a901b8b9d7015f013b024,606841bbc950b9940bdb75e6,2021-04-03_12h22.00.856,Colour_Similarity_Experiment,2020.2.10,Win32,60,60674ec340277cd6a308bc9f,17.06841637,16.7083552,16.70903605,16.70214379,16.67420918,16.7083552,,,,,,,,,,,,,,,,,,,5,PF,weak,3,108.8000131,26.39999396,1,0,0,response1disk_5,8,6,6.15654,3.200011492,3.999993622,1,0,0,rectangle_8,3.200011492,3.999993622,1,0,0,,,5,3.200011492,3.999993622,1,0,0,,0,6,6,1,1,,,,,,,,,,,,,,,,,,,,,,,,,,,,,,,,,,,,,,,,,,,,,,,,,,,,,,,,,,
,,,,,,,,,,,,,,,,,,,,,,,,,,,,,,,,,,,,,,,,,,5f5a901b8b9d7015f013b024,606841bbc950b9940bdb75e6,2021-04-03_12h22.00.856,Colour_Similarity_Experiment,2020.2.10,Win32,60,60674ec340277cd6a308bc9f,17.06841637,16.7083552,16.70903605,16.70214379,16.67420918,16.7083552,,,,,,,,,,,,,,,,,,,,PF,weak,3,,,,,,,,6,2.84938,,,,,,,,,,,,,,,,,,,,,,,,,,space,4.64361,4,weak,88.80001277,31.19996961,1,0,0,response1disk,8,1,1.600060296,-6.4373E-06,1,0,0,rectangle,1.600060296,-6.4373E-06,1,0,0,,6,0.00452,1.600060296,-6.4373E-06,1,0,0,0,0,0,124,1,0,,,,,,,,,,,,,,,,,,,,,
,,,,,,,,,,,,,,,,,,,,,,,,,,,,,,,,,,,,,,,,,,5f5a901b8b9d7015f013b024,606841bbc950b9940bdb75e6,2021-04-03_12h22.00.856,Colour_Similarity_Experiment,2020.2.10,Win32,60,60674ec340277cd6a308bc9f,17.06841637,16.7083552,16.70903605,16.70214379,16.67420918,16.7083552,,,,,,,,,,,,,,,,,,,,PF,strong,3,,,,,,,,7,2.696695,,,,,,,,,,,,,,,,,,,,,,,,,,,,1,strong,69.60001248,83.99999481,1,0,0,response1disk,3,2,-3.199988604,6.399993658,1,0,0,rectangle,-3.199988604,6.399993658,1,0,0,,6,0.00083,-3.199988604,6.399993658,1,0,0,0,1,1,99,1,0,,,,,,,,,,,,,,,,,,,,,
,,,,,,,,,,,,,,,,,,,,,,,,,,,,,,,,,,,,,,,,,,5f5a901b8b9d7015f013b024,606841bbc950b9940bdb75e6,2021-04-03_12h22.00.856,Colour_Similarity_Experiment,2020.2.10,Win32,60,60674ec340277cd6a308bc9f,17.06841637,16.7083552,16.70903605,16.70214379,16.67420918,16.7083552,,,,,,,,,,,,,,,,,,,,PF,strong,3,,,,,,,,5,2.083875,,,,,,,,,,,,,,,,,,,,,,,,,,,,2,strong,84.80001271,-44.8000071,1,0,0,response3disk,2,3,-2.399939764,-3.200006485,1,0,0,rectangle,-2.399939764,-3.200006485,1,0,0,,0,0.00105,-2.399939764,-3.200006485,1,0,0,0,2,2,142,1,0,,,,,,,,,,,,,,,,,,,,,
,,,,,,,,,,,,,,,,,,,,,,,,,,,,,,,,,,,,,,,,,,5f5a901b8b9d7015f013b024,606841bbc950b9940bdb75e6,2021-04-03_12h22.00.856,Colour_Similarity_Experiment,2020.2.10,Win32,60,60674ec340277cd6a308bc9f,17.06841637,16.7083552,16.70903605,16.70214379,16.67420918,16.7083552,,,,,,,,,,,,,,,,,,,,PF,strong,3,,,,,,,,4,5.16659,,,,,,,,,,,,,,,,,,,,,,,,,,,,7,strong,63.20001239,-105.6000568,1,0,0,response3disk,3,4,6.400011539,2.399993598,1,0,0,rectangle,6.400011539,2.399993598,1,0,0,,0,0.000475,6.400011539,2.399993598,1,0,0,0,3,3,73,1,0,,,,,,,,,,,,,,,,,,,,,
,,,,,,,,,,,,,,,,,,,,,,,,,,,,,,,,,,,,,,,,,,5f5a901b8b9d7015f013b024,606841bbc950b9940bdb75e6,2021-04-03_12h22.00.856,Colour_Similarity_Experiment,2020.2.10,Win32,60,60674ec340277cd6a308bc9f,17.06841637,16.7083552,16.70903605,16.70214379,16.67420918,16.7083552,,,,,,,,,,,,,,,,,,,,PF,weak,3,,,,,,,,3,1.98475,,,,,,,,,,,,,,,,,,,,,,,,,,,,8,weak,-43.99998921,-103.200008,1,0,0,response5disk,6,5,3.200011492,3.19999361,1,0,0,rectangle,-42.39994036,-98.4000079,1,0,0,3,3,2.6358,1.600060296,1.599993587,1,0,0,0,4,4,161,1,1,response5disk_3,rectangle,,,,,,,,,,,,,,,,,,,
,,,,,,,,,,,,,,,,,,,,,,,,,,,,,,,,,,,,,,,,,,5f5a901b8b9d7015f013b024,606841bbc950b9940bdb75e6,2021-04-03_12h22.00.856,Colour_Similarity_Experiment,2020.2.10,Win32,60,60674ec340277cd6a308bc9f,17.06841637,16.7083552,16.70903605,16.70214379,16.67420918,16.7083552,,,,,,,,,,,,,,,,,,,,PF,weak,3,,,,,,,,7,1.283885,,,,,,,,,,,,,,,,,,,,,,,,,,,,5,weak,34.40001196,86.39999485,1,0,0,response1disk,1,6,8.800011575,2.399993598,1,0,0,rectangle,48.80001217,109.5999952,1,0,0,7,7,2.032545,-3.199988604,10.39999372,1,0,0,0,5,5,159,1,1,response1disk_3,rectangle,,,,,,,,,,,,,,,,,,,
,,,,,,,,,,,,,,,,,,,,,,,,,,,,,,,,,,,,,,,,,,5f5a901b8b9d7015f013b024,606841bbc950b9940bdb75e6,2021-04-03_12h22.00.856,Colour_Similarity_Experiment,2020.2.10,Win32,60,60674ec340277cd6a308bc9f,17.06841637,16.7083552,16.70903605,16.70214379,16.67420918,16.7083552,,,,,,,,,,,,,,,,,,,,PF,weak,3,,,,,,,,7,1.50035,,,,,,,,,,,,,,,,,,,,,,,,,,,,4,weak,52.00001222,83.99999481,1,0,0,response1disk,9,7,2.40001148,1.599993587,1,0,0,rectangle,2.40001148,1.599993587,1,0,0,7,7,0.000585,2.40001148,1.599993587,1,0,0,0,6,6,75,1,0,,,,,,,,,,,,,,,,,,,,,
,,,,,,,,,,,,,,,,,,,,,,,,,,,,,,,,,,,,,,,,,,5f5a901b8b9d7015f013b024,606841bbc950b9940bdb75e6,2021-04-03_12h22.00.856,Colour_Similarity_Experiment,2020.2.10,Win32,60,60674ec340277cd6a308bc9f,17.06841637,16.7083552,16.70903605,16.70214379,16.67420918,16.7083552,,,,,,,,,,,,,,,,,,,,PF,strong,3,,,,,,,,1,1.89965,,,,,,,,,,,,,,,,,,,,,,,,,,,,3,strong,-90.39994107,54.39999437,1,0,0,response7disk,5,8,-7.999988675,-0.800006449,1,0,0,rectangle,-7.999988675,-0.800006449,1,0,0,7,2,0.00243,-7.999988675,-0.800006449,1,0,0,0,7,7,101,1,0,,,,,,,,,,,,,,,,,,,,,
,,,,,,,,,,,,,,,,,,,,,,,,,,,,,,,,,,,,,,,,,,5f5a901b8b9d7015f013b024,606841bbc950b9940bdb75e6,2021-04-03_12h22.00.856,Colour_Similarity_Experiment,2020.2.10,Win32,60,60674ec340277cd6a308bc9f,17.06841637,16.7083552,16.70903605,16.70214379,16.67420918,16.7083552,,,,,,,,,,,,,,,,,,,,PF,weak,3,,,,,,,,3,1.67103,,,,,,,,,,,,,,,,,,,,,,,,,,,,6,weak,-46.39994042,-81.60005648,1,0,0,response5disk,8,9,1.14441E-05,-6.400006533,1,0,0,rectangle,1.14441E-05,-6.400006533,1,0,0,7,7,0.00204,1.14441E-05,-6.400006533,1,0,0,0,8,8,64,1,0,,,,,,,,,,,,,,,,,,,,,
,,,,,,,,,,,,,,,,,,,,,,,,,,,,,,,,,,,,,,,,,,5f5a901b8b9d7015f013b024,606841bbc950b9940bdb75e6,2021-04-03_12h22.00.856,Colour_Similarity_Experiment,2020.2.10,Win32,60,60674ec340277cd6a308bc9f,17.06841637,16.7083552,16.70903605,16.70214379,16.67420918,16.7083552,,,,,,,,,,,,,,,,,,,,PF,strong,3,,,,,,,,2,1.682895,,,,,,,,,,,,,,,,,,,,,,,,,,,,6,strong,-78.3999409,-41.60000706,1,0,0,response5disk,5,10,-2.399939764,-6.4373E-06,1,0,0,rectangle,-2.399939764,-6.4373E-06,1,0,0,7,4,0.002865,-2.399939764,-6.4373E-06,1,0,0,0,9,9,126,1,0,,,,,,,,,,,,,,,,,,,,,
,,,,,,,,,,,,,,,,,,,,,,,,,,,,,,,,,,,,,,,,,,5f5a901b8b9d7015f013b024,606841bbc950b9940bdb75e6,2021-04-03_12h22.00.856,Colour_Similarity_Experiment,2020.2.10,Win32,60,60674ec340277cd6a308bc9f,17.06841637,16.7083552,16.70903605,16.70214379,16.67420918,16.7083552,,,,,,,,,,,,,,,,,,,,PF,weak,3,,,,,,,,3,1.88482,,,,,,,,,,,,,,,,,,,,,,,,,,,,8,weak,-49.5999893,-83.20000768,1,0,0,response5disk,7,11,-4.799988627,2.399993598,1,0,0,rectangle,-4.799988627,2.399993598,1,0,0,7,5,0.002115,-4.799988627,2.399993598,1,0,0,0,10,10,23,1,0,,,,,,,,,,,,,,,,,,,,,
,,,,,,,,,,,,,,,,,,,,,,,,,,,,,,,,,,,,,,,,,,5f5a901b8b9d7015f013b024,606841bbc950b9940bdb75e6,2021-04-03_12h22.00.856,Colour_Similarity_Experiment,2020.2.10,Win32,60,60674ec340277cd6a308bc9f,17.06841637,16.7083552,16.70903605,16.70214379,16.67420918,16.7083552,,,,,,,,,,,,,,,,,,,,PF,weak,3,,,,,,,,1,1.615845,,,,,,,,,,,,,,,,,,,,,,,,,,,,5,weak,-81.59998977,62.39999449,1,0,0,response7disk,3,12,1.14441E-05,-2.400006473,1,0,0,rectangle,1.14441E-05,-2.400006473,1,0,0,7,5,0.00017,1.14441E-05,-2.400006473,1,0,0,0,11,11,109,1,0,,,,,,,,,,,,,,,,,,,,,
,,,,,,,,,,,,,,,,,,,,,,,,,,,,,,,,,,,,,,,,,,5f5a901b8b9d7015f013b024,606841bbc950b9940bdb75e6,2021-04-03_12h22.00.856,Colour_Similarity_Experiment,2020.2.10,Win32,60,60674ec340277cd6a308bc9f,17.06841637,16.7083552,16.70903605,16.70214379,16.67420918,16.7083552,,,,,,,,,,,,,,,,,,,,PF,strong,3,,,,,,,,1,1.56656,,,,,,,,,,,,,,,,,,,,,,,,,,,,9,strong,-102.3999413,63.99999452,1,0,0,response7disk,8,13,-11.19998872,-1.600006461,1,0,0,rectangle,-11.19998872,-1.600006461,1,0,0,7,4,0.00254,-11.19998872,-1.600006461,1,0,0,0,12,12,6,1,0,,,,,,,,,,,,,,,,,,,,,
,,,,,,,,,,,,,,,,,,,,,,,,,,,,,,,,,,,,,,,,,,5f5a901b8b9d7015f013b024,606841bbc950b9940bdb75e6,2021-04-03_12h22.00.856,Colour_Similarity_Experiment,2020.2.10,Win32,60,60674ec340277cd6a308bc9f,17.06841637,16.7083552,16.70903605,16.70214379,16.67420918,16.7083552,,,,,,,,,,,,,,,,,,,,PF,weak,3,,,,,,,,4,1.99939,,,,,,,,,,,,,,,,,,,,,,,,,,,,4,weak,27.20001185,-109.6000569,1,0,0,response3disk,7,14,-9.599988699,-8.000006557,1,0,0,rectangle,-9.599988699,-8.000006557,1,0,0,7,6,0.00415,-9.599988699,-8.000006557,1,0,0,0,13,13,38,1,0,,,,,,,,,,,,,,,,,,,,,
,,,,,,,,,,,,,,,,,,,,,,,,,,,,,,,,,,,,,,,,,,5f5a901b8b9d7015f013b024,606841bbc950b9940bdb75e6,2021-04-03_12h22.00.856,Colour_Similarity_Experiment,2020.2.10,Win32,60,60674ec340277cd6a308bc9f,17.06841637,16.7083552,16.70903605,16.70214379,16.67420918,16.7083552,,,,,,,,,,,,,,,,,,,,PF,strong,3,,,,,,,,4,1.832935,,,,,,,,,,,,,,,,,,,,,,,,,,,,7,strong,55.20001227,-103.200008,1,0,0,response3disk,4,15,-4.799988627,3.19999361,1,0,0,rectangle,-4.799988627,3.19999361,1,0,0,7,2,0.00339,-4.799988627,3.19999361,1,0,0,0,14,14,158,1,0,,,,,,,,,,,,,,,,,,,,,
,,,,,,,,,,,,,,,,,,,,,,,,,,,,,,,,,,,,,,,,,,5f5a901b8b9d7015f013b024,606841bbc950b9940bdb75e6,2021-04-03_12h22.00.856,Colour_Similarity_Experiment,2020.2.10,Win32,60,60674ec340277cd6a308bc9f,17.06841637,16.7083552,16.70903605,16.70214379,16.67420918,16.7083552,,,,,,,,,,,,,,,,,,,,PF,weak,3,,,,,,,,6,1.31676,,,,,,,,,,,,,,,,,,,,,,,,,,,,1,weak,94.40001285,47.99999428,1,0,0,response1disk,6,16,10.4000116,4.799993634,1,0,0,rectangle,10.4000116,4.799993634,1,0,0,7,1,0.00286,10.4000116,4.799993634,1,0,0,0,15,15,144,1,0,,,,,,,,,,,,,,,,,,,,,
,,,,,,,,,,,,,,,,,,,,,,,,,,,,,,,,,,,,,,,,,,5f5a901b8b9d7015f013b024,606841bbc950b9940bdb75e6,2021-04-03_12h22.00.856,Colour_Similarity_Experiment,2020.2.10,Win32,60,60674ec340277cd6a308bc9f,17.06841637,16.7083552,16.70903605,16.70214379,16.67420918,16.7083552,,,,,,,,,,,,,,,,,,,,PF,strong,3,,,,,,,,1,1.617265,,,,,,,,,,,,,,,,,,,,,,,,,,,,2,strong,-81.59998977,63.99999452,1,0,0,response7disk,3,17,-17.59998882,11.99999374,1,0,0,rectangle,-52.79998934,-100.8000079,1,0,0,3,3,2.331285,1.14441E-05,3.19999361,1,0,0,0,16,16,104,1,1,response5disk_3,rectangle,,,,,,,,,,,,,,,,,,,
,,,,,,,,,,,,,,,,,,,,,,,,,,,,,,,,,,,,,,,,,,5f5a901b8b9d7015f013b024,606841bbc950b9940bdb75e6,2021-04-03_12h22.00.856,Colour_Similarity_Experiment,2020.2.10,Win32,60,60674ec340277cd6a308bc9f,17.06841637,16.7083552,16.70903605,16.70214379,16.67420918,16.7083552,,,,,,,,,,,,,,,,,,,,PF,weak,3,,,,,,,,0,1.001015,,,,,,,,,,,,,,,,,,,,,,,,,,,,3,weak,-55.19998938,112.7999952,1,0,0,response7disk,3,18,-8.799988687,-0.800006449,1,0,0,rectangle,-8.799988687,-0.800006449,1,0,0,3,0,0.00307,-8.799988687,-0.800006449,1,0,0,0,17,17,4,1,0,,,,,,,,,,,,,,,,,,,,,
,,,,,,,,,,,,,,,,,,,,,,,,,,,,,,,,,,,,,,,,,,5f5a901b8b9d7015f013b024,606841bbc950b9940bdb75e6,2021-04-03_12h22.00.856,Colour_Similarity_Experiment,2020.2.10,Win32,60,60674ec340277cd6a308bc9f,17.06841637,16.7083552,16.70903605,16.70214379,16.67420918,16.7083552,,,,,,,,,,,,,,,,,,,,PF,strong,3,,,,,,,,5,2.483115,,,,,,,,,,,,,,,,,,,,,,,,,,,,1,strong,95.20001286,-55.20000726,1,0,0,response3disk,9,19,-5.599988639,12.79999375,1,0,0,rectangle,-5.599988639,12.79999375,1,0,0,3,5,0.00238,-5.599988639,12.79999375,1,0,0,0,18,18,123,1,0,,,,,,,,,,,,,,,,,,,,,
,,,,,,,,,,,,,,,,,,,,,,,,,,,,,,,,,,,,,,,,,,5f5a901b8b9d7015f013b024,606841bbc950b9940bdb75e6,2021-04-03_12h22.00.856,Colour_Similarity_Experiment,2020.2.10,Win32,60,60674ec340277cd6a308bc9f,17.06841637,16.7083552,16.70903605,16.70214379,16.67420918,16.7083552,,,,,,,,,,,,,,,,,,,,PF,weak,3,,,,,,,,5,1.36765,,,,,,,,,,,,,,,,,,,,,,,,,,,,9,weak,97.6000129,-52.00000721,1,0,0,response3disk,6,20,-9.599988699,0.799993575,1,0,0,rectangle,-9.599988699,0.799993575,1,0,0,3,4,0.00242,-9.599988699,0.799993575,1,0,0,0,19,19,148,1,0,,,,,,,,,,,,,,,,,,,,,
,,,,,,,,,,,,,,,,,,,,,,,,,,,,,,,,,,,,,,,,,,5f5a901b8b9d7015f013b024,606841bbc950b9940bdb75e6,2021-04-03_12h22.00.856,Colour_Similarity_Experiment,2020.2.10,Win32,60,60674ec340277cd6a308bc9f,17.06841637,16.7083552,16.70903605,16.70214379,16.67420918,16.7083552,,,,,,,,,,,,,,,,,,,,PF,strong,3,,,,,,,,6,1.850325,,,,,,,,,,,,,,,,,,,,,,,,,,,,9,strong,114.4000131,56.79999441,1,0,0,response1disk,6,21,-0.799988568,-6.4373E-06,1,0,0,rectangle,-0.799988568,-6.4373E-06,1,0,0,3,1,0.00297,-0.799988568,-6.4373E-06,1,0,0,0,20,20,117,1,0,,,,,,,,,,,,,,,,,,,,,
,,,,,,,,,,,,,,,,,,,,,,,,,,,,,,,,,,,,,,,,,,5f5a901b8b9d7015f013b024,606841bbc950b9940bdb75e6,2021-04-03_12h22.00.856,Colour_Similarity_Experiment,2020.2.10,Win32,60,60674ec340277cd6a308bc9f,17.06841637,16.7083552,16.70903605,16.70214379,16.67420918,16.7083552,,,,,,,,,,,,,,,,,,,,PF,weak,3,,,,,,,,0,1.417025,,,,,,,,,,,,,,,,,,,,,,,,,,,,3,weak,-54.39994054,104.7999951,1,0,0,response7disk,4,22,2.40001148,-1.600006461,1,0,0,rectangle,2.40001148,-1.600006461,1,0,0,3,6,0.003055,2.40001148,-1.600006461,1,0,0,0,21,21,30,1,0,,,,,,,,,,,,,,,,,,,,,
,,,,,,,,,,,,,,,,,,,,,,,,,,,,,,,,,,,,,,,,,,5f5a901b8b9d7015f013b024,606841bbc950b9940bdb75e6,2021-04-03_12h22.00.856,Colour_Similarity_Experiment,2020.2.10,Win32,60,60674ec340277cd6a308bc9f,17.06841637,16.7083552,16.70903605,16.70214379,16.67420918,16.7083552,,,,,,,,,,,,,,,,,,,,PF,weak,3,,,,,,,,1,1.01621,,,,,,,,,,,,,,,,,,,,,,,,,,,,4,weak,-95.19998997,39.99999416,1,0,0,response7disk,5,23,1.600060296,-2.400006473,1,0,0,rectangle,1.600060296,-2.400006473,1,0,0,3,4,0.00223,1.600060296,-2.400006473,1,0,0,0,22,22,49,1,0,,,,,,,,,,,,,,,,,,,,,
,,,,,,,,,,,,,,,,,,,,,,,,,,,,,,,,,,,,,,,,,,5f5a901b8b9d7015f013b024,606841bbc950b9940bdb75e6,2021-04-03_12h22.00.856,Colour_Similarity_Experiment,2020.2.10,Win32,60,60674ec340277cd6a308bc9f,17.06841637,16.7083552,16.70903605,16.70214379,16.67420918,16.7083552,,,,,,,,,,,,,,,,,,,,PF,weak,3,,,,,,,,5,1.58067,,,,,,,,,,,,,,,,,,,,,,,,,,,,5,weak,90.40001279,-53.60000724,1,0,0,response3disk,2,24,0.800011456,-6.4373E-06,1,0,0,rectangle,0.800011456,-6.4373E-06,1,0,0,3,2,0.00244,0.800011456,-6.4373E-06,1,0,0,0,23,23,129,1,0,,,,,,,,,,,,,,,,,,,,,
,,,,,,,,,,,,,,,,,,,,,,,,,,,,,,,,,,,,,,,,,,5f5a901b8b9d7015f013b024,606841bbc950b9940bdb75e6,2021-04-03_12h22.00.856,Colour_Similarity_Experiment,2020.2.10,Win32,60,60674ec340277cd6a308bc9f,17.06841637,16.7083552,16.70903605,16.70214379,16.67420918,16.7083552,,,,,,,,,,,,,,,,,,,,PF,strong,3,,,,,,,,5,1.614175,,,,,,,,,,,,,,,,,,,,,,,,,,,,7,strong,111.2000131,-36.80000699,1,0,0,response3disk,9,25,4.000011504,3.19999361,1,0,0,rectangle,4.000011504,3.19999361,1,0,0,3,5,0.00258,4.000011504,3.19999361,1,0,0,0,24,24,155,1,0,,,,,,,,,,,,,,,,,,,,,
,,,,,,,,,,,,,,,,,,,,,,,,,,,,,,,,,,,,,,,,,,5f5a901b8b9d7015f013b024,606841bbc950b9940bdb75e6,2021-04-03_12h22.00.856,Colour_Similarity_Experiment,2020.2.10,Win32,60,60674ec340277cd6a308bc9f,17.06841637,16.7083552,16.70903605,16.70214379,16.67420918,16.7083552,,,,,,,,,,,,,,,,,,,,PF,strong,3,,,,,,,,7,1.850165,,,,,,,,,,,,,,,,,,,,,,,,,,,,6,strong,63.20001239,105.5999951,1,0,0,response1disk,2,26,-2.399939764,-6.400006533,1,0,0,rectangle,-2.399939764,-6.400006533,1,0,0,3,1,0.002485,-2.399939764,-6.400006533,1,0,0,0,25,25,112,1,0,,,,,,,,,,,,,,,,,,,,,
,,,,,,,,,,,,,,,,,,,,,,,,,,,,,,,,,,,,,,,,,,5f5a901b8b9d7015f013b024,606841bbc950b9940bdb75e6,2021-04-03_12h22.00.856,Colour_Similarity_Experiment,2020.2.10,Win32,60,60674ec340277cd6a308bc9f,17.06841637,16.7083552,16.70903605,16.70214379,16.67420918,16.7083552,,,,,,,,,,,,,,,,,,,,PF,weak,3,,,,,,,,7,1.43382,,,,,,,,,,,,,,,,,,,,,,,,,,,,8,weak,57.6000123,113.5999953,1,0,0,response1disk,2,27,10.4000116,-5.600006521,1,0,0,rectangle,10.4000116,-5.600006521,1,0,0,3,2,0.002595,10.4000116,-5.600006521,1,0,0,0,26,26,83,1,0,,,,,,,,,,,,,,,,,,,,,
,,,,,,,,,,,,,,,,,,,,,,,,,,,,,,,,,,,,,,,,,,5f5a901b8b9d7015f013b024,606841bbc950b9940bdb75e6,2021-04-03_12h22.00.856,Colour_Similarity_Experiment,2020.2.10,Win32,60,60674ec340277cd6a308bc9f,17.06841637,16.7083552,16.70903605,16.70214379,16.67420918,16.7083552,,,,,,,,,,,,,,,,,,,,PF,strong,3,,,,,,,,7,1.100225,,,,,,,,,,,,,,,,,,,,,,,,,,,,7,strong,48.80001217,91.19997051,1,0,0,response1disk,2,28,5.600060356,-5.600006521,1,0,0,rectangle,5.600060356,-5.600006521,1,0,0,3,2,0.000315,5.600060356,-5.600006521,1,0,0,0,27,27,138,1,0,,,,,,,,,,,,,,,,,,,,,
,,,,,,,,,,,,,,,,,,,,,,,,,,,,,,,,,,,,,,,,,,5f5a901b8b9d7015f013b024,606841bbc950b9940bdb75e6,2021-04-03_12h22.00.856,Colour_Similarity_Experiment,2020.2.10,Win32,60,60674ec340277cd6a308bc9f,17.06841637,16.7083552,16.70903605,16.70214379,16.67420918,16.7083552,,,,,,,,,,,,,,,,,,,,PF,weak,3,,,,,,,,6,1.08381,,,,,,,,,,,,,,,,,,,,,,,,,,,,7,weak,89.60001278,41.59999418,1,0,0,response1disk,9,29,16.00001168,1.599993587,1,0,0,rectangle,16.00001168,1.599993587,1,0,0,3,3,0.00505,16.00001168,1.599993587,1,0,0,0,28,28,10,1,0,,,,,,,,,,,,,,,,,,,,,
,,,,,,,,,,,,,,,,,,,,,,,,,,,,,,,,,,,,,,,,,,5f5a901b8b9d7015f013b024,606841bbc950b9940bdb75e6,2021-04-03_12h22.00.856,Colour_Similarity_Experiment,2020.2.10,Win32,60,60674ec340277cd6a308bc9f,17.06841637,16.7083552,16.70903605,16.70214379,16.67420918,16.7083552,,,,,,,,,,,,,,,,,,,,PF,strong,3,,,,,,,,4,5.74896,,,,,,,,,,,,,,,,,,,,,,,,,,,,8,strong,42.40001208,-92.00000781,1,0,0,response3disk,5,30,3.200011492,5.599993646,1,0,0,rectangle,3.200011492,5.599993646,1,0,0,3,0,0.00267,3.200011492,5.599993646,1,0,0,0,29,29,152,1,0,,,,,,,,,,,,,,,,,,,,,
,,,,,,,,,,,,,,,,,,,,,,,,,,,,,,,,,,,,,,,,,,5f5a901b8b9d7015f013b024,606841bbc950b9940bdb75e6,2021-04-03_12h22.00.856,Colour_Similarity_Experiment,2020.2.10,Win32,60,60674ec340277cd6a308bc9f,17.06841637,16.7083552,16.70903605,16.70214379,16.67420918,16.7083552,,,,,,,,,,,,,,,,,,,,PF,strong,3,,,,,,,,2,4.564585,,,,,,,,,,,,,,,,,,,,,,,,,,,,4,strong,-70.39994078,-41.60000706,1,0,0,response5disk,3,31,6.400011539,4.799993634,1,0,0,rectangle,6.400011539,4.799993634,1,0,0,3,2,0.00211,6.400011539,4.799993634,1,0,0,0,30,30,77,1,0,,,,,,,,,,,,,,,,,,,,,
,,,,,,,,,,,,,,,,,,,,,,,,,,,,,,,,,,,,,,,,,,5f5a901b8b9d7015f013b024,606841bbc950b9940bdb75e6,2021-04-03_12h22.00.856,Colour_Similarity_Experiment,2020.2.10,Win32,60,60674ec340277cd6a308bc9f,17.06841637,16.7083552,16.70903605,16.70214379,16.67420918,16.7083552,,,,,,,,,,,,,,,,,,,,PF,strong,3,,,,,,,,7,1.179045,,,,,,,,,,,,,,,,,,,,,,,,,,,,6,strong,65.60001242,104.7999951,1,0,0,response1disk,1,32,11.20001161,-5.600006521,1,0,0,rectangle,11.20001161,-5.600006521,1,0,0,3,3,0.00203,11.20001161,-5.600006521,1,0,0,0,31,31,5,1,0,,,,,,,,,,,,,,,,,,,,,
,,,,,,,,,,,,,,,,,,,,,,,,,,,,,,,,,,,,,,,,,,5f5a901b8b9d7015f013b024,606841bbc950b9940bdb75e6,2021-04-03_12h22.00.856,Colour_Similarity_Experiment,2020.2.10,Win32,60,60674ec340277cd6a308bc9f,17.06841637,16.7083552,16.70903605,16.70214379,16.67420918,16.7083552,,,,,,,,,,,,,,,,,,,,PF,strong,3,,,,,,,,7,1.066985,,,,,,,,,,,,,,,,,,,,,,,,,,,,5,strong,54.40001225,92.79999495,1,0,0,response1disk,9,33,5.600060356,4.799993634,1,0,0,rectangle,5.600060356,4.799993634,1,0,0,3,7,0.002095,5.600060356,4.799993634,1,0,0,0,32,32,61,1,0,,,,,,,,,,,,,,,,,,,,,
,,,,,,,,,,,,,,,,,,,,,,,,,,,,,,,,,,,,,,,,,,5f5a901b8b9d7015f013b024,606841bbc950b9940bdb75e6,2021-04-03_12h22.00.856,Colour_Similarity_Experiment,2020.2.10,Win32,60,60674ec340277cd6a308bc9f,17.06841637,16.7083552,16.70903605,16.70214379,16.67420918,16.7083552,,,,,,,,,,,,,,,,,,,,PF,weak,3,,,,,,,,6,1.299535,,,,,,,,,,,,,,,,,,,,,,,,,,,,8,weak,88.80001277,44.79999423,1,0,0,response1disk,1,34,4.000011504,3.19999361,1,0,0,rectangle,4.000011504,3.19999361,1,0,0,3,7,0.000365,4.000011504,3.19999361,1,0,0,0,33,33,57,1,0,,,,,,,,,,,,,,,,,,,,,
,,,,,,,,,,,,,,,,,,,,,,,,,,,,,,,,,,,,,,,,,,5f5a901b8b9d7015f013b024,606841bbc950b9940bdb75e6,2021-04-03_12h22.00.856,Colour_Similarity_Experiment,2020.2.10,Win32,60,60674ec340277cd6a308bc9f,17.06841637,16.7083552,16.70903605,16.70214379,16.67420918,16.7083552,,,,,,,,,,,,,,,,,,,,PF,weak,3,,,,,,,,0,1.06721,,,,,,,,,,,,,,,,,,,,,,,,,,,,6,weak,-42.39994036,82.39999479,1,0,0,response7disk,5,35,-6.399939823,-1.600006461,1,0,0,rectangle,-6.399939823,-1.600006461,1,0,0,3,1,0.00533,-6.399939823,-1.600006461,1,0,0,0,34,34,59,1,0,,,,,,,,,,,,,,,,,,,,,
,,,,,,,,,,,,,,,,,,,,,,,,,,,,,,,,,,,,,,,,,,5f5a901b8b9d7015f013b024,606841bbc950b9940bdb75e6,2021-04-03_12h22.00.856,Colour_Similarity_Experiment,2020.2.10,Win32,60,60674ec340277cd6a308bc9f,17.06841637,16.7083552,16.70903605,16.70214379,16.67420918,16.7083552,,,,,,,,,,,,,,,,,,,,PF,weak,3,,,,,,,,6,1.78375,,,,,,,,,,,,,,,,,,,,,,,,,,,,7,weak,100.0000129,37.59999412,1,0,0,response1disk,2,36,-2.399939764,-5.600006521,1,0,0,rectangle,-2.399939764,-5.600006521,1,0,0,3,7,0.00273,-2.399939764,-5.600006521,1,0,0,0,35,35,32,1,0,,,,,,,,,,,,,,,,,,,,,
,,,,,,,,,,,,,,,,,,,,,,,,,,,,,,,,,,,,,,,,,,5f5a901b8b9d7015f013b024,606841bbc950b9940bdb75e6,2021-04-03_12h22.00.856,Colour_Similarity_Experiment,2020.2.10,Win32,60,60674ec340277cd6a308bc9f,17.06841637,16.7083552,16.70903605,16.70214379,16.67420918,16.7083552,,,,,,,,,,,,,,,,,,,,PF,weak,3,,,,,,,,2,1.730275,,,,,,,,,,,,,,,,,,,,,,,,,,,,4,weak,-81.59998977,-54.40000725,1,0,0,response5disk,6,37,-6.399939823,-8.800006568,1,0,0,rectangle,-6.399939823,-8.800006568,1,0,0,3,6,0.002195,-6.399939823,-8.800006568,1,0,0,0,36,36,120,1,0,,,,,,,,,,,,,,,,,,,,,
,,,,,,,,,,,,,,,,,,,,,,,,,,,,,,,,,,,,,,,,,,5f5a901b8b9d7015f013b024,606841bbc950b9940bdb75e6,2021-04-03_12h22.00.856,Colour_Similarity_Experiment,2020.2.10,Win32,60,60674ec340277cd6a308bc9f,17.06841637,16.7083552,16.70903605,16.70214379,16.67420918,16.7083552,,,,,,,,,,,,,,,,,,,,PF,weak,3,,,,,,,,0,1.000425,,,,,,,,,,,,,,,,,,,,,,,,,,,,4,weak,-43.1999892,83.19997039,1,0,0,response7disk,4,38,-7.999988675,-0.800006449,1,0,0,rectangle,-7.999988675,-0.800006449,1,0,0,3,3,0.002225,-7.999988675,-0.800006449,1,0,0,0,37,37,70,1,0,,,,,,,,,,,,,,,,,,,,,
,,,,,,,,,,,,,,,,,,,,,,,,,,,,,,,,,,,,,,,,,,5f5a901b8b9d7015f013b024,606841bbc950b9940bdb75e6,2021-04-03_12h22.00.856,Colour_Similarity_Experiment,2020.2.10,Win32,60,60674ec340277cd6a308bc9f,17.06841637,16.7083552,16.70903605,16.70214379,16.67420918,16.7083552,,,,,,,,,,,,,,,,,,,,PF,strong,3,,,,,,,,6,1.300445,,,,,,,,,,,,,,,,,,,,,,,,,,,,1,strong,116.8000132,62.39999449,1,0,0,response1disk,2,39,16.00001168,4.799993634,1,0,0,rectangle,16.00001168,4.799993634,1,0,0,3,4,0.002285,16.00001168,4.799993634,1,0,0,0,38,38,2,1,0,,,,,,,,,,,,,,,,,,,,,
,,,,,,,,,,,,,,,,,,,,,,,,,,,,,,,,,,,,,,,,,,5f5a901b8b9d7015f013b024,606841bbc950b9940bdb75e6,2021-04-03_12h22.00.856,Colour_Similarity_Experiment,2020.2.10,Win32,60,60674ec340277cd6a308bc9f,17.06841637,16.7083552,16.70903605,16.70214379,16.67420918,16.7083552,,,,,,,,,,,,,,,,,,,,PF,weak,3,,,,,,,,3,2.448945,,,,,,,,,,,,,,,,,,,,,,,,,,,,2,weak,-55.19998938,-74.40000755,1,0,0,response5disk,1,40,-18.39994,-1.600006461,1,0,0,rectangle,-18.39994,-1.600006461,1,0,0,3,7,0.001985,-18.39994,-1.600006461,1,0,0,0,39,39,9,1,0,,,,,,,,,,,,,,,,,,,,,
,,,,,,,,,,,,,,,,,,,,,,,,,,,,,,,,,,,,,,,,,,5f5a901b8b9d7015f013b024,606841bbc950b9940bdb75e6,2021-04-03_12h22.00.856,Colour_Similarity_Experiment,2020.2.10,Win32,60,60674ec340277cd6a308bc9f,17.06841637,16.7083552,16.70903605,16.70214379,16.67420918,16.7083552,,,,,,,,,,,,,,,,,,,,PF,weak,3,,,,,,,,3,1.16464,,,,,,,,,,,,,,,,,,,,,,,,,,,,5,weak,-23.1999889,-64.8000074,1,0,0,response5disk,6,41,11.20001161,-9.60000658,1,0,0,rectangle,11.20001161,-9.60000658,1,0,0,3,6,0.00207,11.20001161,-9.60000658,1,0,0,0,40,40,103,1,0,,,,,,,,,,,,,,,,,,,,,
,,,,,,,,,,,,,,,,,,,,,,,,,,,,,,,,,,,,,,,,,,5f5a901b8b9d7015f013b024,606841bbc950b9940bdb75e6,2021-04-03_12h22.00.856,Colour_Similarity_Experiment,2020.2.10,Win32,60,60674ec340277cd6a308bc9f,17.06841637,16.7083552,16.70903605,16.70214379,16.67420918,16.7083552,,,,,,,,,,,,,,,,,,,,PF,weak,3,,,,,,,,7,1.14743,,,,,,,,,,,,,,,,,,,,,,,,,,,,3,weak,65.60001242,93.59999496,1,0,0,response1disk,9,42,13.60006047,0.799993575,1,0,0,rectangle,13.60006047,0.799993575,1,0,0,3,6,0.000345,13.60006047,0.799993575,1,0,0,0,41,41,79,1,0,,,,,,,,,,,,,,,,,,,,,
,,,,,,,,,,,,,,,,,,,,,,,,,,,,,,,,,,,,,,,,,,5f5a901b8b9d7015f013b024,606841bbc950b9940bdb75e6,2021-04-03_12h22.00.856,Colour_Similarity_Experiment,2020.2.10,Win32,60,60674ec340277cd6a308bc9f,17.06841637,16.7083552,16.70903605,16.70214379,16.67420918,16.7083552,,,,,,,,,,,,,,,,,,,,PF,weak,3,,,,,,,,7,1.16718,,,,,,,,,,,,,,,,,,,,,,,,,,,,8,weak,53.60001224,111.1999708,1,0,0,response1disk,3,43,13.60006047,-5.600006521,1,0,0,rectangle,13.60006047,-5.600006521,1,0,0,3,2,0.002285,13.60006047,-5.600006521,1,0,0,0,42,42,71,1,0,,,,,,,,,,,,,,,,,,,,,
,,,,,,,,,,,,,,,,,,,,,,,,,,,,,,,,,,,,,,,,,,5f5a901b8b9d7015f013b024,606841bbc950b9940bdb75e6,2021-04-03_12h22.00.856,Colour_Similarity_Experiment,2020.2.10,Win32,60,60674ec340277cd6a308bc9f,17.06841637,16.7083552,16.70903605,16.70214379,16.67420918,16.7083552,,,,,,,,,,,,,,,,,,,,PF,strong,3,,,,,,,,5,2.15009,,,,,,,,,,,,,,,,,,,,,,,,,,,,4,strong,86.40001273,-32.80000693,1,0,0,response3disk,2,44,21.60006059,-6.4373E-06,1,0,0,rectangle,21.60006059,-6.4373E-06,1,0,0,3,0,0.00256,21.60006059,-6.4373E-06,1,0,0,0,43,43,13,1,0,,,,,,,,,,,,,,,,,,,,,
,,,,,,,,,,,,,,,,,,,,,,,,,,,,,,,,,,,,,,,,,,5f5a901b8b9d7015f013b024,606841bbc950b9940bdb75e6,2021-04-03_12h22.00.856,Colour_Similarity_Experiment,2020.2.10,Win32,60,60674ec340277cd6a308bc9f,17.06841637,16.7083552,16.70903605,16.70214379,16.67420918,16.7083552,,,,,,,,,,,,,,,,,,,,PF,strong,3,,,,,,,,3,1.89761,,,,,,,,,,,,,,,,,,,,,,,,,,,,4,strong,-38.3999403,-84.00000769,1,0,0,response5disk,4,45,1.600060296,4.799993634,1,0,0,rectangle,1.600060296,4.799993634,1,0,0,3,3,0.00109,1.600060296,4.799993634,1,0,0,0,44,44,84,1,0,,,,,,,,,,,,,,,,,,,,,
,,,,,,,,,,,,,,,,,,,,,,,,,,,,,,,,,,,,,,,,,,5f5a901b8b9d7015f013b024,606841bbc950b9940bdb75e6,2021-04-03_12h22.00.856,Colour_Similarity_Experiment,2020.2.10,Win32,60,60674ec340277cd6a308bc9f,17.06841637,16.7083552,16.70903605,16.70214379,16.67420918,16.7083552,,,,,,,,,,,,,,,,,,,,PF,strong,3,,,,,,,,3,1.848795,,,,,,,,,,,,,,,,,,,,,,,,,,,,1,strong,-42.39994036,-98.4000079,1,0,0,response5disk,5,46,1.14441E-05,1.599993587,1,0,0,rectangle,1.14441E-05,1.599993587,1,0,0,3,4,0.002225,1.14441E-05,1.599993587,1,0,0,0,45,45,82,1,0,,,,,,,,,,,,,,,,,,,,,
,,,,,,,,,,,,,,,,,,,,,,,,,,,,,,,,,,,,,,,,,,5f5a901b8b9d7015f013b024,606841bbc950b9940bdb75e6,2021-04-03_12h22.00.856,Colour_Similarity_Experiment,2020.2.10,Win32,60,60674ec340277cd6a308bc9f,17.06841637,16.7083552,16.70903605,16.70214379,16.67420918,16.7083552,,,,,,,,,,,,,,,,,,,,PF,weak,3,,,,,,,,3,0.96364,,,,,,,,,,,,,,,,,,,,,,,,,,,,3,weak,-49.5999893,-98.4000079,1,0,0,response5disk,5,47,0.800011456,-4.000006497,1,0,0,rectangle,0.800011456,-4.000006497,1,0,0,3,2,0.00211,0.800011456,-4.000006497,1,0,0,0,46,46,66,1,0,,,,,,,,,,,,,,,,,,,,,
,,,,,,,,,,,,,,,,,,,,,,,,,,,,,,,,,,,,,,,,,,5f5a901b8b9d7015f013b024,606841bbc950b9940bdb75e6,2021-04-03_12h22.00.856,Colour_Similarity_Experiment,2020.2.10,Win32,60,60674ec340277cd6a308bc9f,17.06841637,16.7083552,16.70903605,16.70214379,16.67420918,16.7083552,,,,,,,,,,,,,,,,,,,,PF,weak,3,,,,,,,,4,1.584225,,,,,,,,,,,,,,,,,,,,,,,,,,,,6,weak,47.20001215,-98.4000079,1,0,0,response3disk,4,48,0.800011456,-7.200006545,1,0,0,rectangle,0.800011456,-7.200006545,1,0,0,3,4,0.000715,0.800011456,-7.200006545,1,0,0,0,47,47,33,1,0,,,,,,,,,,,,,,,,,,,,,
,,,,,,,,,,,,,,,,,,,,,,,,,,,,,,,,,,,,,,,,,,5f5a901b8b9d7015f013b024,606841bbc950b9940bdb75e6,2021-04-03_12h22.00.856,Colour_Similarity_Experiment,2020.2.10,Win32,60,60674ec340277cd6a308bc9f,17.06841637,16.7083552,16.70903605,16.70214379,16.67420918,16.7083552,,,,,,,,,,,,,,,,,,,,PF,strong,3,,,,,,,,5,2.13366,,,,,,,,,,,,,,,,,,,,,,,,,,,,6,strong,92.80001283,-46.40000713,1,0,0,response3disk,9,49,8.800011575,4.799993634,1,0,0,rectangle,99.20001292,-44.00000709,1,0,0,5,5,1.45049,-4.799988627,-2.400006473,1,0,0,0,48,48,160,1,1,response3disk_3,rectangle,,,,,,,,,,,,,,,,,,,
,,,,,,,,,,,,,,,,,,,,,,,,,,,,,,,,,,,,,,,,,,5f5a901b8b9d7015f013b024,606841bbc950b9940bdb75e6,2021-04-03_12h22.00.856,Colour_Similarity_Experiment,2020.2.10,Win32,60,60674ec340277cd6a308bc9f,17.06841637,16.7083552,16.70903605,16.70214379,16.67420918,16.7083552,,,,,,,,,,,,,,,,,,,,PF,weak,3,,,,,,,,7,0.93388,,,,,,,,,,,,,,,,,,,,,,,,,,,,2,weak,55.20001227,99.19997063,1,0,0,response1disk,2,50,-1.59998858,-2.400006473,1,0,0,rectangle,-1.59998858,-2.400006473,1,0,0,5,4,0.00295,-1.59998858,-2.400006473,1,0,0,0,49,49,14,1,0,,,,,,,,,,,,,,,,,,,,,
,,,,,,,,,,,,,,,,,,,,,,,,,,,,,,,,,,,,,,,,,,5f5a901b8b9d7015f013b024,606841bbc950b9940bdb75e6,2021-04-03_12h22.00.856,Colour_Similarity_Experiment,2020.2.10,Win32,60,60674ec340277cd6a308bc9f,17.06841637,16.7083552,16.70903605,16.70214379,16.67420918,16.7083552,,,,,,,,,,,,,,,,,,,,PF,weak,3,,,,,,,,7,0.817475,,,,,,,,,,,,,,,,,,,,,,,,,,,,7,weak,55.20001227,122.3999954,1,0,0,response1disk,1,51,-2.399939764,-6.4373E-06,1,0,0,rectangle,-2.399939764,-6.4373E-06,1,0,0,5,5,0.00263,-2.399939764,-6.4373E-06,1,0,0,0,50,50,53,1,0,,,,,,,,,,,,,,,,,,,,,
,,,,,,,,,,,,,,,,,,,,,,,,,,,,,,,,,,,,,,,,,,5f5a901b8b9d7015f013b024,606841bbc950b9940bdb75e6,2021-04-03_12h22.00.856,Colour_Similarity_Experiment,2020.2.10,Win32,60,60674ec340277cd6a308bc9f,17.06841637,16.7083552,16.70903605,16.70214379,16.67420918,16.7083552,,,,,,,,,,,,,,,,,,,,PF,weak,3,,,,,,,,1,1.91673,,,,,,,,,,,,,,,,,,,,,,,,,,,,6,weak,-79.99998975,39.99999416,1,0,0,response7disk,7,52,4.000011504,6.399993658,1,0,0,rectangle,4.000011504,6.399993658,1,0,0,5,1,0.000575,4.000011504,6.399993658,1,0,0,0,51,51,50,1,0,,,,,,,,,,,,,,,,,,,,,
,,,,,,,,,,,,,,,,,,,,,,,,,,,,,,,,,,,,,,,,,,5f5a901b8b9d7015f013b024,606841bbc950b9940bdb75e6,2021-04-03_12h22.00.856,Colour_Similarity_Experiment,2020.2.10,Win32,60,60674ec340277cd6a308bc9f,17.06841637,16.7083552,16.70903605,16.70214379,16.67420918,16.7083552,,,,,,,,,,,,,,,,,,,,PF,weak,3,,,,,,,,5,1.70095,,,,,,,,,,,,,,,,,,,,,,,,,,,,7,weak,73.60001254,-31.2000069,1,0,0,response3disk,4,53,6.400011539,-6.4373E-06,1,0,0,rectangle,6.400011539,-6.4373E-06,1,0,0,5,2,0.00255,6.400011539,-6.4373E-06,1,0,0,0,52,52,43,1,0,,,,,,,,,,,,,,,,,,,,,
,,,,,,,,,,,,,,,,,,,,,,,,,,,,,,,,,,,,,,,,,,5f5a901b8b9d7015f013b024,606841bbc950b9940bdb75e6,2021-04-03_12h22.00.856,Colour_Similarity_Experiment,2020.2.10,Win32,60,60674ec340277cd6a308bc9f,17.06841637,16.7083552,16.70903605,16.70214379,16.67420918,16.7083552,,,,,,,,,,,,,,,,,,,,PF,weak,3,,,,,,,,5,1.64639,,,,,,,,,,,,,,,,,,,,,,,,,,,,6,weak,85.60001272,-48.00000715,1,0,0,response3disk,3,54,20.80001175,-5.600006521,1,0,0,rectangle,20.80001175,-5.600006521,1,0,0,5,1,0.002015,20.80001175,-5.600006521,1,0,0,0,53,53,26,1,0,,,,,,,,,,,,,,,,,,,,,
,,,,,,,,,,,,,,,,,,,,,,,,,,,,,,,,,,,,,,,,,,5f5a901b8b9d7015f013b024,606841bbc950b9940bdb75e6,2021-04-03_12h22.00.856,Colour_Similarity_Experiment,2020.2.10,Win32,60,60674ec340277cd6a308bc9f,17.06841637,16.7083552,16.70903605,16.70214379,16.67420918,16.7083552,,,,,,,,,,,,,,,,,,,,PF,weak,3,,,,,,,,7,0.934095,,,,,,,,,,,,,,,,,,,,,,,,,,,,3,weak,64.0000124,111.9999952,1,0,0,response1disk,1,55,0.800011456,-4.000006497,1,0,0,rectangle,0.800011456,-4.000006497,1,0,0,5,6,0.000695,0.800011456,-4.000006497,1,0,0,0,54,54,96,1,0,,,,,,,,,,,,,,,,,,,,,
,,,,,,,,,,,,,,,,,,,,,,,,,,,,,,,,,,,,,,,,,,5f5a901b8b9d7015f013b024,606841bbc950b9940bdb75e6,2021-04-03_12h22.00.856,Colour_Similarity_Experiment,2020.2.10,Win32,60,60674ec340277cd6a308bc9f,17.06841637,16.7083552,16.70903605,16.70214379,16.67420918,16.7083552,,,,,,,,,,,,,,,,,,,,PF,strong,3,,,,,,,,4,3.08293,,,,,,,,,,,,,,,,,,,,,,,,,,,,8,strong,36.80001199,-100.8000079,1,0,0,response3disk,9,56,-8.799988687,0.799993575,1,0,0,rectangle,-8.799988687,0.799993575,1,0,0,5,6,7E-05,-8.799988687,0.799993575,1,0,0,0,55,55,105,1,0,,,,,,,,,,,,,,,,,,,,,
,,,,,,,,,,,,,,,,,,,,,,,,,,,,,,,,,,,,,,,,,,5f5a901b8b9d7015f013b024,606841bbc950b9940bdb75e6,2021-04-03_12h22.00.856,Colour_Similarity_Experiment,2020.2.10,Win32,60,60674ec340277cd6a308bc9f,17.06841637,16.7083552,16.70903605,16.70214379,16.67420918,16.7083552,,,,,,,,,,,,,,,,,,,,PF,weak,3,,,,,,,,4,1.40038,,,,,,,,,,,,,,,,,,,,,,,,,,,,9,weak,40.00001204,-88.00000775,1,0,0,response3disk,2,57,8.800011575,13.59999377,1,0,0,rectangle,8.800011575,13.59999377,1,0,0,5,2,0.00222,8.800011575,13.59999377,1,0,0,0,56,56,157,1,0,,,,,,,,,,,,,,,,,,,,,
,,,,,,,,,,,,,,,,,,,,,,,,,,,,,,,,,,,,,,,,,,5f5a901b8b9d7015f013b024,606841bbc950b9940bdb75e6,2021-04-03_12h22.00.856,Colour_Similarity_Experiment,2020.2.10,Win32,60,60674ec340277cd6a308bc9f,17.06841637,16.7083552,16.70903605,16.70214379,16.67420918,16.7083552,,,,,,,,,,,,,,,,,,,,PF,weak,3,,,,,,,,7,1.03374,,,,,,,,,,,,,,,,,,,,,,,,,,,,1,weak,49.60006101,95.19997057,1,0,0,response1disk,5,58,2.40001148,3.19999361,1,0,0,rectangle,2.40001148,3.19999361,1,0,0,5,4,0.002165,2.40001148,3.19999361,1,0,0,0,57,57,28,1,0,,,,,,,,,,,,,,,,,,,,,
,,,,,,,,,,,,,,,,,,,,,,,,,,,,,,,,,,,,,,,,,,5f5a901b8b9d7015f013b024,606841bbc950b9940bdb75e6,2021-04-03_12h22.00.856,Colour_Similarity_Experiment,2020.2.10,Win32,60,60674ec340277cd6a308bc9f,17.06841637,16.7083552,16.70903605,16.70214379,16.67420918,16.7083552,,,,,,,,,,,,,,,,,,,,PF,strong,3,,,,,,,,0,1.25072,,,,,,,,,,,,,,,,,,,,,,,,,,,,5,strong,-41.59998918,101.5999951,1,0,0,response7disk,5,59,-6.399939823,1.599993587,1,0,0,rectangle,-6.399939823,1.599993587,1,0,0,5,6,0.002035,-6.399939823,1.599993587,1,0,0,0,58,58,19,1,0,,,,,,,,,,,,,,,,,,,,,
,,,,,,,,,,,,,,,,,,,,,,,,,,,,,,,,,,,,,,,,,,5f5a901b8b9d7015f013b024,606841bbc950b9940bdb75e6,2021-04-03_12h22.00.856,Colour_Similarity_Experiment,2020.2.10,Win32,60,60674ec340277cd6a308bc9f,17.06841637,16.7083552,16.70903605,16.70214379,16.67420918,16.7083552,,,,,,,,,,,,,,,,,,,,PF,strong,3,,,,,,,,4,2.249125,,,,,,,,,,,,,,,,,,,,,,,,,,,,5,strong,32.80001193,-85.60005654,1,0,0,response3disk,2,60,2.40001148,-6.4373E-06,1,0,0,rectangle,53.60001224,-101.6000568,1,0,0,4,4,1.98292,-16.79998881,2.399993598,1,0,0,0,59,59,55,1,1,response3disk_3,rectangle,,,,,,,,,,,,,,,,,,,
,,,,,,,,,,,,,,,,,,,,,,,,,,,,,,,,,,,,,,,,,,5f5a901b8b9d7015f013b024,606841bbc950b9940bdb75e6,2021-04-03_12h22.00.856,Colour_Similarity_Experiment,2020.2.10,Win32,60,60674ec340277cd6a308bc9f,17.06841637,16.7083552,16.70903605,16.70214379,16.67420918,16.7083552,,,,,,,,,,,,,,,,,,,,PF,strong,3,,,,,,,,1,2.53376,,,,,,,,,,,,,,,,,,,,,,,,,,,,5,strong,-97.59999001,30.39999402,1,0,0,response7disk,6,61,-8.799988687,-4.800006509,1,0,0,rectangle,-8.799988687,-4.800006509,1,0,0,4,7,0.002385,-8.799988687,-4.800006509,1,0,0,0,60,60,12,1,0,,,,,,,,,,,,,,,,,,,,,
,,,,,,,,,,,,,,,,,,,,,,,,,,,,,,,,,,,,,,,,,,5f5a901b8b9d7015f013b024,606841bbc950b9940bdb75e6,2021-04-03_12h22.00.856,Colour_Similarity_Experiment,2020.2.10,Win32,60,60674ec340277cd6a308bc9f,17.06841637,16.7083552,16.70903605,16.70214379,16.67420918,16.7083552,,,,,,,,,,,,,,,,,,,,PF,weak,3,,,,,,,,4,2.516765,,,,,,,,,,,,,,,,,,,,,,,,,,,,1,weak,29.60006071,-99.20000792,1,0,0,response3disk,8,62,-4.799988627,-4.000006497,1,0,0,rectangle,-4.799988627,-4.000006497,1,0,0,4,4,0.0023,-4.799988627,-4.000006497,1,0,0,0,61,61,65,1,0,,,,,,,,,,,,,,,,,,,,,
,,,,,,,,,,,,,,,,,,,,,,,,,,,,,,,,,,,,,,,,,,5f5a901b8b9d7015f013b024,606841bbc950b9940bdb75e6,2021-04-03_12h22.00.856,Colour_Similarity_Experiment,2020.2.10,Win32,60,60674ec340277cd6a308bc9f,17.06841637,16.7083552,16.70903605,16.70214379,16.67420918,16.7083552,,,,,,,,,,,,,,,,,,,,PF,strong,3,,,,,,,,4,1.2505,,,,,,,,,,,,,,,,,,,,,,,,,,,,4,strong,44.0000121,-85.60005654,1,0,0,response3disk,6,63,-5.599988639,7.19999367,1,0,0,rectangle,-5.599988639,7.19999367,1,0,0,4,3,0.00183,-5.599988639,7.19999367,1,0,0,0,62,62,122,1,0,,,,,,,,,,,,,,,,,,,,,
,,,,,,,,,,,,,,,,,,,,,,,,,,,,,,,,,,,,,,,,,,5f5a901b8b9d7015f013b024,606841bbc950b9940bdb75e6,2021-04-03_12h22.00.856,Colour_Similarity_Experiment,2020.2.10,Win32,60,60674ec340277cd6a308bc9f,17.06841637,16.7083552,16.70903605,16.70214379,16.67420918,16.7083552,,,,,,,,,,,,,,,,,,,,PF,strong,3,,,,,,,,3,2.66689,,,,,,,,,,,,,,,,,,,,,,,,,,,,1,strong,-31.99998903,-86.40000772,1,0,0,response5disk,7,64,-2.399939764,-8.000006557,1,0,0,rectangle,-2.399939764,-8.000006557,1,0,0,4,2,0.002255,-2.399939764,-8.000006557,1,0,0,0,63,63,137,1,0,,,,,,,,,,,,,,,,,,,,,
,,,,,,,,,,,,,,,,,,,,,,,,,,,,,,,,,,,,,,,,,,5f5a901b8b9d7015f013b024,606841bbc950b9940bdb75e6,2021-04-03_12h22.00.856,Colour_Similarity_Experiment,2020.2.10,Win32,60,60674ec340277cd6a308bc9f,17.06841637,16.7083552,16.70903605,16.70214379,16.67420918,16.7083552,,,,,,,,,,,,,,,,,,,,PF,strong,3,,,,,,,,5,1.33418,,,,,,,,,,,,,,,,,,,,,,,,,,,,9,strong,68.00001246,-37.600007,1,0,0,response3disk,2,65,-5.599988639,7.19999367,1,0,0,rectangle,-32.79998904,-79.20000762,1,0,0,3,3,1.88246,-0.799988568,-4.000006497,1,0,0,0,64,64,11,1,1,response5disk_3,rectangle,,,,,,,,,,,,,,,,,,,
,,,,,,,,,,,,,,,,,,,,,,,,,,,,,,,,,,,,,,,,,,5f5a901b8b9d7015f013b024,606841bbc950b9940bdb75e6,2021-04-03_12h22.00.856,Colour_Similarity_Experiment,2020.2.10,Win32,60,60674ec340277cd6a308bc9f,17.06841637,16.7083552,16.70903605,16.70214379,16.67420918,16.7083552,,,,,,,,,,,,,,,,,,,,PF,strong,3,,,,,,,,0,1.100805,,,,,,,,,,,,,,,,,,,,,,,,,,,,3,strong,-59.19998944,104.7999951,1,0,0,response7disk,3,66,-3.999988616,6.399993658,1,0,0,rectangle,-3.999988616,6.399993658,1,0,0,3,5,0.002495,-3.999988616,6.399993658,1,0,0,0,65,65,68,1,0,,,,,,,,,,,,,,,,,,,,,
,,,,,,,,,,,,,,,,,,,,,,,,,,,,,,,,,,,,,,,,,,5f5a901b8b9d7015f013b024,606841bbc950b9940bdb75e6,2021-04-03_12h22.00.856,Colour_Similarity_Experiment,2020.2.10,Win32,60,60674ec340277cd6a308bc9f,17.06841637,16.7083552,16.70903605,16.70214379,16.67420918,16.7083552,,,,,,,,,,,,,,,,,,,,PF,weak,3,,,,,,,,5,2.483365,,,,,,,,,,,,,,,,,,,,,,,,,,,,5,weak,75.20001256,-56.00000727,1,0,0,response3disk,8,67,-11.99998873,8.799993694,1,0,0,rectangle,-11.99998873,8.799993694,1,0,0,3,0,0.00224,-11.99998873,8.799993694,1,0,0,0,66,66,149,1,0,,,,,,,,,,,,,,,,,,,,,
,,,,,,,,,,,,,,,,,,,,,,,,,,,,,,,,,,,,,,,,,,5f5a901b8b9d7015f013b024,606841bbc950b9940bdb75e6,2021-04-03_12h22.00.856,Colour_Similarity_Experiment,2020.2.10,Win32,60,60674ec340277cd6a308bc9f,17.06841637,16.7083552,16.70903605,16.70214379,16.67420918,16.7083552,,,,,,,,,,,,,,,,,,,,PF,weak,3,,,,,,,,4,1.416615,,,,,,,,,,,,,,,,,,,,,,,,,,,,4,weak,28.00001186,-85.60005654,1,0,0,response3disk,2,68,10.4000116,3.999993622,1,0,0,rectangle,10.4000116,3.999993622,1,0,0,3,0,0.00029,10.4000116,3.999993622,1,0,0,0,67,67,108,1,0,,,,,,,,,,,,,,,,,,,,,
,,,,,,,,,,,,,,,,,,,,,,,,,,,,,,,,,,,,,,,,,,5f5a901b8b9d7015f013b024,606841bbc950b9940bdb75e6,2021-04-03_12h22.00.856,Colour_Similarity_Experiment,2020.2.10,Win32,60,60674ec340277cd6a308bc9f,17.06841637,16.7083552,16.70903605,16.70214379,16.67420918,16.7083552,,,,,,,,,,,,,,,,,,,,PF,weak,3,,,,,,,,4,0.90036,,,,,,,,,,,,,,,,,,,,,,,,,,,,2,weak,48.00001216,-85.60005654,1,0,0,response3disk,3,69,4.800011516,3.999993622,1,0,0,rectangle,4.800011516,3.999993622,1,0,0,3,7,0.00248,4.800011516,3.999993622,1,0,0,0,68,68,69,1,0,,,,,,,,,,,,,,,,,,,,,
,,,,,,,,,,,,,,,,,,,,,,,,,,,,,,,,,,,,,,,,,,5f5a901b8b9d7015f013b024,606841bbc950b9940bdb75e6,2021-04-03_12h22.00.856,Colour_Similarity_Experiment,2020.2.10,Win32,60,60674ec340277cd6a308bc9f,17.06841637,16.7083552,16.70903605,16.70214379,16.67420918,16.7083552,,,,,,,,,,,,,,,,,,,,PF,weak,3,,,,,,,,0,1.050485,,,,,,,,,,,,,,,,,,,,,,,,,,,,9,weak,-57.59998941,99.99999505,1,0,0,response7disk,9,70,-2.399939764,5.599993646,1,0,0,rectangle,-2.399939764,5.599993646,1,0,0,3,1,0.00264,-2.399939764,5.599993646,1,0,0,0,69,69,106,1,0,,,,,,,,,,,,,,,,,,,,,
,,,,,,,,,,,,,,,,,,,,,,,,,,,,,,,,,,,,,,,,,,5f5a901b8b9d7015f013b024,606841bbc950b9940bdb75e6,2021-04-03_12h22.00.856,Colour_Similarity_Experiment,2020.2.10,Win32,60,60674ec340277cd6a308bc9f,17.06841637,16.7083552,16.70903605,16.70214379,16.67420918,16.7083552,,,,,,,,,,,,,,,,,,,,PF,weak,3,,,,,,,,0,1.06682,,,,,,,,,,,,,,,,,,,,,,,,,,,,1,weak,-33.59998906,101.5999951,1,0,0,response7disk,2,71,-6.399939823,8.799993694,1,0,0,rectangle,-6.399939823,8.799993694,1,0,0,3,4,0.000865,-6.399939823,8.799993694,1,0,0,0,70,70,24,1,0,,,,,,,,,,,,,,,,,,,,,
,,,,,,,,,,,,,,,,,,,,,,,,,,,,,,,,,,,,,,,,,,5f5a901b8b9d7015f013b024,606841bbc950b9940bdb75e6,2021-04-03_12h22.00.856,Colour_Similarity_Experiment,2020.2.10,Win32,60,60674ec340277cd6a308bc9f,17.06841637,16.7083552,16.70903605,16.70214379,16.67420918,16.7083552,,,,,,,,,,,,,,,,,,,,PF,weak,3,,,,,,,,7,0.949925,,,,,,,,,,,,,,,,,,,,,,,,,,,,6,weak,46.40001214,95.99999499,1,0,0,response1disk,1,72,9.600060415,-10.40000659,1,0,0,rectangle,9.600060415,-10.40000659,1,0,0,3,7,0.001985,9.600060415,-10.40000659,1,0,0,0,71,71,46,1,0,,,,,,,,,,,,,,,,,,,,,
,,,,,,,,,,,,,,,,,,,,,,,,,,,,,,,,,,,,,,,,,,5f5a901b8b9d7015f013b024,606841bbc950b9940bdb75e6,2021-04-03_12h22.00.856,Colour_Similarity_Experiment,2020.2.10,Win32,60,60674ec340277cd6a308bc9f,17.06841637,16.7083552,16.70903605,16.70214379,16.67420918,16.7083552,,,,,,,,,,,,,,,,,,,,PF,weak,3,,,,,,,,0,1.000985,,,,,,,,,,,,,,,,,,,,,,,,,,,,4,weak,-35.99998909,116.7999953,1,0,0,response7disk,3,73,3.200011492,13.59999377,1,0,0,rectangle,3.200011492,13.59999377,1,0,0,3,1,0.002095,3.200011492,13.59999377,1,0,0,0,72,72,89,1,0,,,,,,,,,,,,,,,,,,,,,
,,,,,,,,,,,,,,,,,,,,,,,,,,,,,,,,,,,,,,,,,,5f5a901b8b9d7015f013b024,606841bbc950b9940bdb75e6,2021-04-03_12h22.00.856,Colour_Similarity_Experiment,2020.2.10,Win32,60,60674ec340277cd6a308bc9f,17.06841637,16.7083552,16.70903605,16.70214379,16.67420918,16.7083552,,,,,,,,,,,,,,,,,,,,PF,strong,3,,,,,,,,7,1.20024,,,,,,,,,,,,,,,,,,,,,,,,,,,,1,strong,48.80001217,111.9999952,1,0,0,response1disk,4,74,6.400011539,-4.000006497,1,0,0,rectangle,6.400011539,-4.000006497,1,0,0,3,0,0.002525,6.400011539,-4.000006497,1,0,0,0,73,73,135,1,0,,,,,,,,,,,,,,,,,,,,,
,,,,,,,,,,,,,,,,,,,,,,,,,,,,,,,,,,,,,,,,,,5f5a901b8b9d7015f013b024,606841bbc950b9940bdb75e6,2021-04-03_12h22.00.856,Colour_Similarity_Experiment,2020.2.10,Win32,60,60674ec340277cd6a308bc9f,17.06841637,16.7083552,16.70903605,16.70214379,16.67420918,16.7083552,,,,,,,,,,,,,,,,,,,,PF,strong,3,,,,,,,,7,0.983655,,,,,,,,,,,,,,,,,,,,,,,,,,,,4,strong,45.60006095,103.9999951,1,0,0,response1disk,9,75,18.40001172,3.19999361,1,0,0,rectangle,18.40001172,3.19999361,1,0,0,3,2,0.002405,18.40001172,3.19999361,1,0,0,0,74,74,90,1,0,,,,,,,,,,,,,,,,,,,,,
,,,,,,,,,,,,,,,,,,,,,,,,,,,,,,,,,,,,,,,,,,5f5a901b8b9d7015f013b024,606841bbc950b9940bdb75e6,2021-04-03_12h22.00.856,Colour_Similarity_Experiment,2020.2.10,Win32,60,60674ec340277cd6a308bc9f,17.06841637,16.7083552,16.70903605,16.70214379,16.67420918,16.7083552,,,,,,,,,,,,,,,,,,,,PF,strong,3,,,,,,,,1,1.266775,,,,,,,,,,,,,,,,,,,,,,,,,,,,5,strong,-87.19998986,54.39999437,1,0,0,response7disk,3,76,1.14441E-05,0.799993575,1,0,0,rectangle,1.14441E-05,0.799993575,1,0,0,3,7,0.002085,1.14441E-05,0.799993575,1,0,0,0,75,75,25,1,0,,,,,,,,,,,,,,,,,,,,,
,,,,,,,,,,,,,,,,,,,,,,,,,,,,,,,,,,,,,,,,,,5f5a901b8b9d7015f013b024,606841bbc950b9940bdb75e6,2021-04-03_12h22.00.856,Colour_Similarity_Experiment,2020.2.10,Win32,60,60674ec340277cd6a308bc9f,17.06841637,16.7083552,16.70903605,16.70214379,16.67420918,16.7083552,,,,,,,,,,,,,,,,,,,,PF,strong,3,,,,,,,,7,1.46519,,,,,,,,,,,,,,,,,,,,,,,,,,,,5,strong,51.20001221,119.1999709,1,0,0,response1disk,1,77,-5.599988639,7.19999367,1,0,0,rectangle,-5.599988639,7.19999367,1,0,0,3,6,0.002915,-5.599988639,7.19999367,1,0,0,0,76,76,131,1,0,,,,,,,,,,,,,,,,,,,,,
,,,,,,,,,,,,,,,,,,,,,,,,,,,,,,,,,,,,,,,,,,5f5a901b8b9d7015f013b024,606841bbc950b9940bdb75e6,2021-04-03_12h22.00.856,Colour_Similarity_Experiment,2020.2.10,Win32,60,60674ec340277cd6a308bc9f,17.06841637,16.7083552,16.70903605,16.70214379,16.67420918,16.7083552,,,,,,,,,,,,,,,,,,,,PF,strong,3,,,,,,,,0,1.080925,,,,,,,,,,,,,,,,,,,,,,,,,,,,9,strong,-31.99998903,103.9999951,1,0,0,response7disk,9,78,6.400011539,5.599993646,1,0,0,rectangle,6.400011539,5.599993646,1,0,0,3,6,0.00035,6.400011539,5.599993646,1,0,0,0,77,77,17,1,0,,,,,,,,,,,,,,,,,,,,,
,,,,,,,,,,,,,,,,,,,,,,,,,,,,,,,,,,,,,,,,,,5f5a901b8b9d7015f013b024,606841bbc950b9940bdb75e6,2021-04-03_12h22.00.856,Colour_Similarity_Experiment,2020.2.10,Win32,60,60674ec340277cd6a308bc9f,17.06841637,16.7083552,16.70903605,16.70214379,16.67420918,16.7083552,,,,,,,,,,,,,,,,,,,,PF,strong,3,,,,,,,,0,2.096815,,,,,,,,,,,,,,,,,,,,,,,,,,,,6,strong,-51.19998932,106.3999951,1,0,0,response7disk,4,79,12.80001163,-6.400006533,1,0,0,rectangle,12.80001163,-6.400006533,1,0,0,3,4,0.002355,12.80001163,-6.400006533,1,0,0,0,78,78,56,1,0,,,,,,,,,,,,,,,,,,,,,
,,,,,,,,,,,,,,,,,,,,,,,,,,,,,,,,,,,,,,,,,,5f5a901b8b9d7015f013b024,606841bbc950b9940bdb75e6,2021-04-03_12h22.00.856,Colour_Similarity_Experiment,2020.2.10,Win32,60,60674ec340277cd6a308bc9f,17.06841637,16.7083552,16.70903605,16.70214379,16.67420918,16.7083552,,,,,,,,,,,,,,,,,,,,PF,weak,3,,,,,,,,7,0.86754,,,,,,,,,,,,,,,,,,,,,,,,,,,,8,weak,40.00001204,88.79999489,1,0,0,response1disk,4,80,15.20001167,-4.800006509,1,0,0,rectangle,15.20001167,-4.800006509,1,0,0,3,7,0.0024,15.20001167,-4.800006509,1,0,0,0,79,79,78,1,0,,,,,,,,,,,,,,,,,,,,,
,,,,,,,,,,,,,,,,,,,,,,,,,,,,,,,,,,,,,,,,,,5f5a901b8b9d7015f013b024,606841bbc950b9940bdb75e6,2021-04-03_12h22.00.856,Colour_Similarity_Experiment,2020.2.10,Win32,60,60674ec340277cd6a308bc9f,17.06841637,16.7083552,16.70903605,16.70214379,16.67420918,16.7083552,,,,,,,,,,,,,,,,,,,,PF,strong,3,,,,,,,,3,1.683725,,,,,,,,,,,,,,,,,,,,,,,,,,,,7,strong,-44.79998922,-82.40000767,1,0,0,response5disk,8,81,-7.199988663,2.399993598,1,0,0,rectangle,46.40001214,103.1999707,1,0,0,7,7,1.766135,1.14441E-05,5.599993646,1,0,0,0,80,80,97,1,1,response1disk_3,rectangle,,,,,,,,,,,,,,,,,,,
,,,,,,,,,,,,,,,,,,,,,,,,,,,,,,,,,,,,,,,,,,5f5a901b8b9d7015f013b024,606841bbc950b9940bdb75e6,2021-04-03_12h22.00.856,Colour_Similarity_Experiment,2020.2.10,Win32,60,60674ec340277cd6a308bc9f,17.06841637,16.7083552,16.70903605,16.70214379,16.67420918,16.7083552,,,,,,,,,,,,,,,,,,,,PF,strong,3,,,,,,,,1,1.267205,,,,,,,,,,,,,,,,,,,,,,,,,,,,2,strong,-79.19998974,27.19996955,1,0,0,response7disk,4,82,-1.59998858,4.799993634,1,0,0,rectangle,-1.59998858,4.799993634,1,0,0,7,0,0.003335,-1.59998858,4.799993634,1,0,0,0,81,81,145,1,0,,,,,,,,,,,,,,,,,,,,,
,,,,,,,,,,,,,,,,,,,,,,,,,,,,,,,,,,,,,,,,,,5f5a901b8b9d7015f013b024,606841bbc950b9940bdb75e6,2021-04-03_12h22.00.856,Colour_Similarity_Experiment,2020.2.10,Win32,60,60674ec340277cd6a308bc9f,17.06841637,16.7083552,16.70903605,16.70214379,16.67420918,16.7083552,,,,,,,,,,,,,,,,,,,,PF,strong,3,,,,,,,,6,3.43276,,,,,,,,,,,,,,,,,,,,,,,,,,,,5,strong,58.40001231,42.39999419,1,0,0,response1disk,7,83,4.000011504,-1.600006461,1,0,0,rectangle,4.000011504,-1.600006461,1,0,0,7,5,0.00212,4.000011504,-1.600006461,1,0,0,0,82,82,7,1,0,,,,,,,,,,,,,,,,,,,,,
,,,,,,,,,,,,,,,,,,,,,,,,,,,,,,,,,,,,,,,,,,5f5a901b8b9d7015f013b024,606841bbc950b9940bdb75e6,2021-04-03_12h22.00.856,Colour_Similarity_Experiment,2020.2.10,Win32,60,60674ec340277cd6a308bc9f,17.06841637,16.7083552,16.70903605,16.70214379,16.67420918,16.7083552,,,,,,,,,,,,,,,,,,,,PF,strong,3,,,,,,,,5,2.09908,,,,,,,,,,,,,,,,,,,,,,,,,,,,3,strong,94.40001285,-64.8000074,1,0,0,response3disk,6,84,-1.59998858,-6.400006533,1,0,0,rectangle,-1.59998858,-6.400006533,1,0,0,7,2,0.00245,-1.59998858,-6.400006533,1,0,0,0,83,83,95,1,0,,,,,,,,,,,,,,,,,,,,,
,,,,,,,,,,,,,,,,,,,,,,,,,,,,,,,,,,,,,,,,,,5f5a901b8b9d7015f013b024,606841bbc950b9940bdb75e6,2021-04-03_12h22.00.856,Colour_Similarity_Experiment,2020.2.10,Win32,60,60674ec340277cd6a308bc9f,17.06841637,16.7083552,16.70903605,16.70214379,16.67420918,16.7083552,,,,,,,,,,,,,,,,,,,,PF,weak,3,,,,,,,,5,1.28275,,,,,,,,,,,,,,,,,,,,,,,,,,,,7,weak,104.000013,-57.6000073,1,0,0,response3disk,3,85,0.800011456,1.599993587,1,0,0,rectangle,0.800011456,1.599993587,1,0,0,7,0,0.00057,0.800011456,1.599993587,1,0,0,0,84,84,81,1,0,,,,,,,,,,,,,,,,,,,,,
,,,,,,,,,,,,,,,,,,,,,,,,,,,,,,,,,,,,,,,,,,5f5a901b8b9d7015f013b024,606841bbc950b9940bdb75e6,2021-04-03_12h22.00.856,Colour_Similarity_Experiment,2020.2.10,Win32,60,60674ec340277cd6a308bc9f,17.06841637,16.7083552,16.70903605,16.70214379,16.67420918,16.7083552,,,,,,,,,,,,,,,,,,,,PF,weak,3,,,,,,,,2,1.6504,,,,,,,,,,,,,,,,,,,,,,,,,,,,9,weak,-76.7999897,-56.00000727,1,0,0,response5disk,8,86,-19.19998884,3.999993622,1,0,0,rectangle,-19.19998884,3.999993622,1,0,0,7,1,0.002615,-19.19998884,3.999993622,1,0,0,0,85,85,67,1,0,,,,,,,,,,,,,,,,,,,,,
,,,,,,,,,,,,,,,,,,,,,,,,,,,,,,,,,,,,,,,,,,5f5a901b8b9d7015f013b024,606841bbc950b9940bdb75e6,2021-04-03_12h22.00.856,Colour_Similarity_Experiment,2020.2.10,Win32,60,60674ec340277cd6a308bc9f,17.06841637,16.7083552,16.70903605,16.70214379,16.67420918,16.7083552,,,,,,,,,,,,,,,,,,,,PF,weak,3,,,,,,,,5,1.617,,,,,,,,,,,,,,,,,,,,,,,,,,,,3,weak,119.2000132,-44.00000709,1,0,0,response3disk,7,87,18.40001172,-4.000006497,1,0,0,rectangle,18.40001172,-4.000006497,1,0,0,7,6,0.00236,18.40001172,-4.000006497,1,0,0,0,86,86,41,1,0,,,,,,,,,,,,,,,,,,,,,
,,,,,,,,,,,,,,,,,,,,,,,,,,,,,,,,,,,,,,,,,,5f5a901b8b9d7015f013b024,606841bbc950b9940bdb75e6,2021-04-03_12h22.00.856,Colour_Similarity_Experiment,2020.2.10,Win32,60,60674ec340277cd6a308bc9f,17.06841637,16.7083552,16.70903605,16.70214379,16.67420918,16.7083552,,,,,,,,,,,,,,,,,,,,PF,strong,3,,,,,,,,5,1.283065,,,,,,,,,,,,,,,,,,,,,,,,,,,,1,strong,93.60001284,-36.80000699,1,0,0,response3disk,8,88,-8.799988687,9.599993706,1,0,0,rectangle,-8.799988687,9.599993706,1,0,0,7,4,0.002915,-8.799988687,9.599993706,1,0,0,0,87,87,27,1,0,,,,,,,,,,,,,,,,,,,,,
,,,,,,,,,,,,,,,,,,,,,,,,,,,,,,,,,,,,,,,,,,5f5a901b8b9d7015f013b024,606841bbc950b9940bdb75e6,2021-04-03_12h22.00.856,Colour_Similarity_Experiment,2020.2.10,Win32,60,60674ec340277cd6a308bc9f,17.06841637,16.7083552,16.70903605,16.70214379,16.67420918,16.7083552,,,,,,,,,,,,,,,,,,,,PF,weak,3,,,,,,,,5,1.383545,,,,,,,,,,,,,,,,,,,,,,,,,,,,8,weak,99.20001292,-29.60000688,1,0,0,response3disk,5,89,-3.199988604,-2.400006473,1,0,0,rectangle,-3.199988604,-2.400006473,1,0,0,7,2,0.00192,-3.199988604,-2.400006473,1,0,0,0,88,88,98,1,0,,,,,,,,,,,,,,,,,,,,,
,,,,,,,,,,,,,,,,,,,,,,,,,,,,,,,,,,,,,,,,,,5f5a901b8b9d7015f013b024,606841bbc950b9940bdb75e6,2021-04-03_12h22.00.856,Colour_Similarity_Experiment,2020.2.10,Win32,60,60674ec340277cd6a308bc9f,17.06841637,16.7083552,16.70903605,16.70214379,16.67420918,16.7083552,,,,,,,,,,,,,,,,,,,,PF,strong,3,,,,,,,,6,1.083285,,,,,,,,,,,,,,,,,,,,,,,,,,,,9,strong,84.80001271,43.19996979,1,0,0,response1disk,5,90,5.600060356,-9.60000658,1,0,0,rectangle,5.600060356,-9.60000658,1,0,0,7,4,0.00224,5.600060356,-9.60000658,1,0,0,0,89,89,128,1,0,,,,,,,,,,,,,,,,,,,,,
,,,,,,,,,,,,,,,,,,,,,,,,,,,,,,,,,,,,,,,,,,5f5a901b8b9d7015f013b024,606841bbc950b9940bdb75e6,2021-04-03_12h22.00.856,Colour_Similarity_Experiment,2020.2.10,Win32,60,60674ec340277cd6a308bc9f,17.06841637,16.7083552,16.70903605,16.70214379,16.67420918,16.7083552,,,,,,,,,,,,,,,,,,,,PF,strong,3,,,,,,,,5,2.149985,,,,,,,,,,,,,,,,,,,,,,,,,,,,9,strong,74.40001255,-28.00000685,1,0,0,response3disk,1,91,8.000011563,7.19999367,1,0,0,rectangle,8.000011563,7.19999367,1,0,0,7,7,0.00212,8.000011563,7.19999367,1,0,0,0,90,90,111,1,0,,,,,,,,,,,,,,,,,,,,,
,,,,,,,,,,,,,,,,,,,,,,,,,,,,,,,,,,,,,,,,,,5f5a901b8b9d7015f013b024,606841bbc950b9940bdb75e6,2021-04-03_12h22.00.856,Colour_Similarity_Experiment,2020.2.10,Win32,60,60674ec340277cd6a308bc9f,17.06841637,16.7083552,16.70903605,16.70214379,16.67420918,16.7083552,,,,,,,,,,,,,,,,,,,,PF,weak,3,,,,,,,,5,1.03367,,,,,,,,,,,,,,,,,,,,,,,,,,,,3,weak,60.80001235,-47.20000714,1,0,0,response3disk,6,92,-1.59998858,-7.200006545,1,0,0,rectangle,-1.59998858,-7.200006545,1,0,0,7,3,0.00198,-1.59998858,-7.200006545,1,0,0,0,91,91,47,1,0,,,,,,,,,,,,,,,,,,,,,
,,,,,,,,,,,,,,,,,,,,,,,,,,,,,,,,,,,,,,,,,,5f5a901b8b9d7015f013b024,606841bbc950b9940bdb75e6,2021-04-03_12h22.00.856,Colour_Similarity_Experiment,2020.2.10,Win32,60,60674ec340277cd6a308bc9f,17.06841637,16.7083552,16.70903605,16.70214379,16.67420918,16.7083552,,,,,,,,,,,,,,,,,,,,PF,strong,3,,,,,,,,1,1.76591,,,,,,,,,,,,,,,,,,,,,,,,,,,,7,strong,-98.39994119,34.39999408,1,0,0,response7disk,6,93,-5.599988639,-6.4373E-06,1,0,0,rectangle,-5.599988639,-6.4373E-06,1,0,0,7,7,0.00199,-5.599988639,-6.4373E-06,1,0,0,0,92,92,31,1,0,,,,,,,,,,,,,,,,,,,,,
,,,,,,,,,,,,,,,,,,,,,,,,,,,,,,,,,,,,,,,,,,5f5a901b8b9d7015f013b024,606841bbc950b9940bdb75e6,2021-04-03_12h22.00.856,Colour_Similarity_Experiment,2020.2.10,Win32,60,60674ec340277cd6a308bc9f,17.06841637,16.7083552,16.70903605,16.70214379,16.67420918,16.7083552,,,,,,,,,,,,,,,,,,,,PF,weak,3,,,,,,,,5,1.781845,,,,,,,,,,,,,,,,,,,,,,,,,,,,2,weak,108.8000131,-70.40000749,1,0,0,response3disk,9,94,20.00001174,0.799993575,1,0,0,rectangle,20.00001174,0.799993575,1,0,0,7,0,0.002005,20.00001174,0.799993575,1,0,0,0,93,93,39,1,0,,,,,,,,,,,,,,,,,,,,,
,,,,,,,,,,,,,,,,,,,,,,,,,,,,,,,,,,,,,,,,,,5f5a901b8b9d7015f013b024,606841bbc950b9940bdb75e6,2021-04-03_12h22.00.856,Colour_Similarity_Experiment,2020.2.10,Win32,60,60674ec340277cd6a308bc9f,17.06841637,16.7083552,16.70903605,16.70214379,16.67420918,16.7083552,,,,,,,,,,,,,,,,,,,,PF,strong,3,,,,,,,,5,1.653595,,,,,,,,,,,,,,,,,,,,,,,,,,,,9,strong,96.00001287,-53.60000724,1,0,0,response3disk,4,95,12.80001163,-7.200006545,1,0,0,rectangle,12.80001163,-7.200006545,1,0,0,7,2,0.00184,12.80001163,-7.200006545,1,0,0,0,94,94,60,1,0,,,,,,,,,,,,,,,,,,,,,
,,,,,,,,,,,,,,,,,,,,,,,,,,,,,,,,,,,,,,,,,,5f5a901b8b9d7015f013b024,606841bbc950b9940bdb75e6,2021-04-03_12h22.00.856,Colour_Similarity_Experiment,2020.2.10,Win32,60,60674ec340277cd6a308bc9f,17.06841637,16.7083552,16.70903605,16.70214379,16.67420918,16.7083552,,,,,,,,,,,,,,,,,,,,PF,strong,3,,,,,,,,7,1.51727,,,,,,,,,,,,,,,,,,,,,,,,,,,,3,strong,44.80001211,102.3999951,1,0,0,response1disk,8,96,18.40001172,1.599993587,1,0,0,rectangle,18.40001172,1.599993587,1,0,0,7,4,0.002425,18.40001172,1.599993587,1,0,0,0,95,95,44,1,0,,,,,,,,,,,,,,,,,,,,,
,,,,,,,,,,,,,,,,,,,,,,,,,,,,,,,,,,,,,,,,,,5f5a901b8b9d7015f013b024,606841bbc950b9940bdb75e6,2021-04-03_12h22.00.856,Colour_Similarity_Experiment,2020.2.10,Win32,60,60674ec340277cd6a308bc9f,17.06841637,16.7083552,16.70903605,16.70214379,16.67420918,16.7083552,,,,,,,,,,,,,,,,,,,,PF,strong,3,,,,,,,,7,1.06679,,,,,,,,,,,,,,,,,,,,,,,,,,,,4,strong,47.20001215,107.1999707,1,0,0,response1disk,1,97,17.60006053,7.19999367,1,0,0,rectangle,17.60006053,7.19999367,1,0,0,7,6,0.001985,17.60006053,7.19999367,1,0,0,0,96,96,102,1,0,,,,,,,,,,,,,,,,,,,,,
,,,,,,,,,,,,,,,,,,,,,,,,,,,,,,,,,,,,,,,,,,5f5a901b8b9d7015f013b024,606841bbc950b9940bdb75e6,2021-04-03_12h22.00.856,Colour_Similarity_Experiment,2020.2.10,Win32,60,60674ec340277cd6a308bc9f,17.06841637,16.7083552,16.70903605,16.70214379,16.67420918,16.7083552,,,,,,,,,,,,,,,,,,,,PF,weak,3,,,,,,,,7,0.91674,,,,,,,,,,,,,,,,,,,,,,,,,,,,1,weak,44.80001211,96.79999501,1,0,0,response1disk,4,98,5.600060356,-2.400006473,1,0,0,rectangle,5.600060356,-2.400006473,1,0,0,7,3,0.00087,5.600060356,-2.400006473,1,0,0,0,97,97,139,1,0,,,,,,,,,,,,,,,,,,,,,
,,,,,,,,,,,,,,,,,,,,,,,,,,,,,,,,,,,,,,,,,,5f5a901b8b9d7015f013b024,606841bbc950b9940bdb75e6,2021-04-03_12h22.00.856,Colour_Similarity_Experiment,2020.2.10,Win32,60,60674ec340277cd6a308bc9f,17.06841637,16.7083552,16.70903605,16.70214379,16.67420918,16.7083552,,,,,,,,,,,,,,,,,,,,PF,strong,3,,,,,,,,2,1.770075,,,,,,,,,,,,,,,,,,,,,,,,,,,,6,strong,-83.1999898,-36.00000697,1,0,0,response5disk,7,99,19.20001173,3.999993622,1,0,0,rectangle,19.20001173,3.999993622,1,0,0,7,5,0.002435,19.20001173,3.999993622,1,0,0,0,98,98,18,1,0,,,,,,,,,,,,,,,,,,,,,
,,,,,,,,,,,,,,,,,,,,,,,,,,,,,,,,,,,,,,,,,,5f5a901b8b9d7015f013b024,606841bbc950b9940bdb75e6,2021-04-03_12h22.00.856,Colour_Similarity_Experiment,2020.2.10,Win32,60,60674ec340277cd6a308bc9f,17.06841637,16.7083552,16.70903605,16.70214379,16.67420918,16.7083552,,,,,,,,,,,,,,,,,,,,PF,strong,3,,,,,,,,4,2.30097,,,,,,,,,,,,,,,,,,,,,,,,,,,,3,strong,37.60006083,-92.00000781,1,0,0,response3disk,2,100,10.4000116,-13.60000664,1,0,0,rectangle,10.4000116,-13.60000664,1,0,0,7,4,0.002075,10.4000116,-13.60000664,1,0,0,0,99,99,93,1,0,,,,,,,,,,,,,,,,,,,,,
,,,,,,,,,,,,,,,,,,,,,,,,,,,,,,,,,,,,,,,,,,5f5a901b8b9d7015f013b024,606841bbc950b9940bdb75e6,2021-04-03_12h22.00.856,Colour_Similarity_Experiment,2020.2.10,Win32,60,60674ec340277cd6a308bc9f,17.06841637,16.7083552,16.70903605,16.70214379,16.67420918,16.7083552,,,,,,,,,,,,,,,,,,,,PF,weak,3,,,,,,,,4,0.929795,,,,,,,,,,,,,,,,,,,,,,,,,,,,7,weak,52.80001223,-63.20000738,1,0,0,response3disk,8,101,20.80001175,-4.800006509,1,0,0,rectangle,20.80001175,-4.800006509,1,0,0,7,5,0.00199,20.80001175,-4.800006509,1,0,0,0,100,100,140,1,0,,,,,,,,,,,,,,,,,,,,,
,,,,,,,,,,,,,,,,,,,,,,,,,,,,,,,,,,,,,,,,,,5f5a901b8b9d7015f013b024,606841bbc950b9940bdb75e6,2021-04-03_12h22.00.856,Colour_Similarity_Experiment,2020.2.10,Win32,60,60674ec340277cd6a308bc9f,17.06841637,16.7083552,16.70903605,16.70214379,16.67420918,16.7083552,,,,,,,,,,,,,,,,,,,,PF,strong,3,,,,,,,,7,1.166755,,,,,,,,,,,,,,,,,,,,,,,,,,,,3,strong,45.60006095,131.9999955,1,0,0,response1disk,1,102,15.20001167,-6.4373E-06,1,0,0,rectangle,15.20001167,-6.4373E-06,1,0,0,7,6,0.00237,15.20001167,-6.4373E-06,1,0,0,0,101,101,125,1,0,,,,,,,,,,,,,,,,,,,,,
,,,,,,,,,,,,,,,,,,,,,,,,,,,,,,,,,,,,,,,,,,5f5a901b8b9d7015f013b024,606841bbc950b9940bdb75e6,2021-04-03_12h22.00.856,Colour_Similarity_Experiment,2020.2.10,Win32,60,60674ec340277cd6a308bc9f,17.06841637,16.7083552,16.70903605,16.70214379,16.67420918,16.7083552,,,,,,,,,,,,,,,,,,,,PF,weak,3,,,,,,,,0,1.363615,,,,,,,,,,,,,,,,,,,,,,,,,,,,8,weak,-38.3999403,94.39999497,1,0,0,response7disk,9,103,-19.99998885,-12.80000663,1,0,0,rectangle,-19.99998885,-12.80000663,1,0,0,7,6,0.00031,-19.99998885,-12.80000663,1,0,0,0,102,102,42,1,0,,,,,,,,,,,,,,,,,,,,,
,,,,,,,,,,,,,,,,,,,,,,,,,,,,,,,,,,,,,,,,,,5f5a901b8b9d7015f013b024,606841bbc950b9940bdb75e6,2021-04-03_12h22.00.856,Colour_Similarity_Experiment,2020.2.10,Win32,60,60674ec340277cd6a308bc9f,17.06841637,16.7083552,16.70903605,16.70214379,16.67420918,16.7083552,,,,,,,,,,,,,,,,,,,,PF,strong,3,,,,,,,,1,1.400055,,,,,,,,,,,,,,,,,,,,,,,,,,,,4,strong,-83.99998981,44.79999423,1,0,0,response7disk,5,104,8.000011563,-0.800006449,1,0,0,rectangle,8.000011563,-0.800006449,1,0,0,7,3,0.00332,8.000011563,-0.800006449,1,0,0,0,103,103,116,1,0,,,,,,,,,,,,,,,,,,,,,
,,,,,,,,,,,,,,,,,,,,,,,,,,,,,,,,,,,,,,,,,,5f5a901b8b9d7015f013b024,606841bbc950b9940bdb75e6,2021-04-03_12h22.00.856,Colour_Similarity_Experiment,2020.2.10,Win32,60,60674ec340277cd6a308bc9f,17.06841637,16.7083552,16.70903605,16.70214379,16.67420918,16.7083552,,,,,,,,,,,,,,,,,,,,PF,weak,3,,,,,,,,2,1.199815,,,,,,,,,,,,,,,,,,,,,,,,,,,,3,weak,-69.59998959,-43.20000708,1,0,0,response5disk,2,105,8.800011575,-4.800006509,1,0,0,rectangle,-39.99998915,106.3999951,1,0,0,0,0,1.549495,4.800011516,7.999993682,1,0,0,0,104,104,36,1,1,response7disk_3,rectangle,,,,,,,,,,,,,,,,,,,
,,,,,,,,,,,,,,,,,,,,,,,,,,,,,,,,,,,,,,,,,,5f5a901b8b9d7015f013b024,606841bbc950b9940bdb75e6,2021-04-03_12h22.00.856,Colour_Similarity_Experiment,2020.2.10,Win32,60,60674ec340277cd6a308bc9f,17.06841637,16.7083552,16.70903605,16.70214379,16.67420918,16.7083552,,,,,,,,,,,,,,,,,,,,PF,weak,3,,,,,,,,4,1.40042,,,,,,,,,,,,,,,,,,,,,,,,,,,,2,weak,42.40001208,-63.20000738,1,0,0,response3disk,4,106,5.600060356,2.399993598,1,0,0,rectangle,5.600060356,2.399993598,1,0,0,0,6,0.002605,5.600060356,2.399993598,1,0,0,0,105,105,127,1,0,,,,,,,,,,,,,,,,,,,,,
,,,,,,,,,,,,,,,,,,,,,,,,,,,,,,,,,,,,,,,,,,5f5a901b8b9d7015f013b024,606841bbc950b9940bdb75e6,2021-04-03_12h22.00.856,Colour_Similarity_Experiment,2020.2.10,Win32,60,60674ec340277cd6a308bc9f,17.06841637,16.7083552,16.70903605,16.70214379,16.67420918,16.7083552,,,,,,,,,,,,,,,,,,,,PF,weak,3,,,,,,,,7,1.534095,,,,,,,,,,,,,,,,,,,,,,,,,,,,1,weak,57.6000123,94.39999497,1,0,0,response1disk,7,107,18.40001172,-1.600006461,1,0,0,rectangle,18.40001172,-1.600006461,1,0,0,0,5,0.002235,18.40001172,-1.600006461,1,0,0,0,106,106,150,1,0,,,,,,,,,,,,,,,,,,,,,
,,,,,,,,,,,,,,,,,,,,,,,,,,,,,,,,,,,,,,,,,,5f5a901b8b9d7015f013b024,606841bbc950b9940bdb75e6,2021-04-03_12h22.00.856,Colour_Similarity_Experiment,2020.2.10,Win32,60,60674ec340277cd6a308bc9f,17.06841637,16.7083552,16.70903605,16.70214379,16.67420918,16.7083552,,,,,,,,,,,,,,,,,,,,PF,strong,3,,,,,,,,7,1.09941,,,,,,,,,,,,,,,,,,,,,,,,,,,,1,strong,48.00001216,65.59999454,1,0,0,response1disk,1,108,16.80001169,3.19999361,1,0,0,rectangle,16.80001169,3.19999361,1,0,0,0,3,0.00192,16.80001169,3.19999361,1,0,0,0,107,107,151,1,0,,,,,,,,,,,,,,,,,,,,,
,,,,,,,,,,,,,,,,,,,,,,,,,,,,,,,,,,,,,,,,,,5f5a901b8b9d7015f013b024,606841bbc950b9940bdb75e6,2021-04-03_12h22.00.856,Colour_Similarity_Experiment,2020.2.10,Win32,60,60674ec340277cd6a308bc9f,17.06841637,16.7083552,16.70903605,16.70214379,16.67420918,16.7083552,,,,,,,,,,,,,,,,,,,,PF,strong,3,,,,,,,,2,2.06662,,,,,,,,,,,,,,,,,,,,,,,,,,,,8,strong,-89.59998989,-40.00000703,1,0,0,response5disk,4,109,-2.399939764,9.599993706,1,0,0,rectangle,-2.399939764,9.599993706,1,0,0,0,6,0.002355,-2.399939764,9.599993706,1,0,0,0,108,108,88,1,0,,,,,,,,,,,,,,,,,,,,,
,,,,,,,,,,,,,,,,,,,,,,,,,,,,,,,,,,,,,,,,,,5f5a901b8b9d7015f013b024,606841bbc950b9940bdb75e6,2021-04-03_12h22.00.856,Colour_Similarity_Experiment,2020.2.10,Win32,60,60674ec340277cd6a308bc9f,17.06841637,16.7083552,16.70903605,16.70214379,16.67420918,16.7083552,,,,,,,,,,,,,,,,,,,,PF,weak,3,,,,,,,,2,1.096805,,,,,,,,,,,,,,,,,,,,,,,,,,,,7,weak,-85.59998983,-51.2000072,1,0,0,response5disk,5,110,20.00001174,3.999993622,1,0,0,rectangle,20.00001174,3.999993622,1,0,0,0,6,0.000305,20.00001174,3.999993622,1,0,0,0,109,109,92,1,0,,,,,,,,,,,,,,,,,,,,,
,,,,,,,,,,,,,,,,,,,,,,,,,,,,,,,,,,,,,,,,,,5f5a901b8b9d7015f013b024,606841bbc950b9940bdb75e6,2021-04-03_12h22.00.856,Colour_Similarity_Experiment,2020.2.10,Win32,60,60674ec340277cd6a308bc9f,17.06841637,16.7083552,16.70903605,16.70214379,16.67420918,16.7083552,,,,,,,,,,,,,,,,,,,,PF,weak,3,,,,,,,,5,1.11666,,,,,,,,,,,,,,,,,,,,,,,,,,,,1,weak,71.20001251,-49.60000718,1,0,0,response3disk,3,111,6.400011539,-5.600006521,1,0,0,rectangle,6.400011539,-5.600006521,1,0,0,0,6,0.00037,6.400011539,-5.600006521,1,0,0,0,110,110,1,1,0,,,,,,,,,,,,,,,,,,,,,
,,,,,,,,,,,,,,,,,,,,,,,,,,,,,,,,,,,,,,,,,,5f5a901b8b9d7015f013b024,606841bbc950b9940bdb75e6,2021-04-03_12h22.00.856,Colour_Similarity_Experiment,2020.2.10,Win32,60,60674ec340277cd6a308bc9f,17.06841637,16.7083552,16.70903605,16.70214379,16.67420918,16.7083552,,,,,,,,,,,,,,,,,,,,PF,strong,3,,,,,,,,1,1.267015,,,,,,,,,,,,,,,,,,,,,,,,,,,,7,strong,-70.39994078,49.5999943,1,0,0,response7disk,7,112,-14.39993994,6.399993658,1,0,0,rectangle,-14.39993994,6.399993658,1,0,0,0,5,0.00094,-14.39993994,6.399993658,1,0,0,0,111,111,34,1,0,,,,,,,,,,,,,,,,,,,,,
,,,,,,,,,,,,,,,,,,,,,,,,,,,,,,,,,,,,,,,,,,5f5a901b8b9d7015f013b024,606841bbc950b9940bdb75e6,2021-04-03_12h22.00.856,Colour_Similarity_Experiment,2020.2.10,Win32,60,60674ec340277cd6a308bc9f,17.06841637,16.7083552,16.70903605,16.70214379,16.67420918,16.7083552,,,,,,,,,,,,,,,,,,,,PF,strong,3,,,,,,,,0,0.967035,,,,,,,,,,,,,,,,,,,,,,,,,,,,3,strong,-55.19998938,106.3999951,1,0,0,response7disk,4,113,-3.999988616,-6.4373E-06,1,0,0,rectangle,-3.999988616,-6.4373E-06,1,0,0,0,2,0.0021,-3.999988616,-6.4373E-06,1,0,0,0,112,112,110,1,0,,,,,,,,,,,,,,,,,,,,,
,,,,,,,,,,,,,,,,,,,,,,,,,,,,,,,,,,,,,,,,,,5f5a901b8b9d7015f013b024,606841bbc950b9940bdb75e6,2021-04-03_12h22.00.856,Colour_Similarity_Experiment,2020.2.10,Win32,60,60674ec340277cd6a308bc9f,17.06841637,16.7083552,16.70903605,16.70214379,16.67420918,16.7083552,,,,,,,,,,,,,,,,,,,,PF,weak,3,,,,,,,,5,1.63361,,,,,,,,,,,,,,,,,,,,,,,,,,,,9,weak,79.20001262,-52.80000722,1,0,0,response3disk,7,114,-9.599988699,-5.600006521,1,0,0,rectangle,-9.599988699,-5.600006521,1,0,0,0,0,0.00228,-9.599988699,-5.600006521,1,0,0,0,113,113,121,1,0,,,,,,,,,,,,,,,,,,,,,
,,,,,,,,,,,,,,,,,,,,,,,,,,,,,,,,,,,,,,,,,,5f5a901b8b9d7015f013b024,606841bbc950b9940bdb75e6,2021-04-03_12h22.00.856,Colour_Similarity_Experiment,2020.2.10,Win32,60,60674ec340277cd6a308bc9f,17.06841637,16.7083552,16.70903605,16.70214379,16.67420918,16.7083552,,,,,,,,,,,,,,,,,,,,PF,weak,3,,,,,,,,6,1.51308,,,,,,,,,,,,,,,,,,,,,,,,,,,,9,weak,100.0000129,65.59999454,1,0,0,response1disk,3,115,-4.799988627,-4.800006509,1,0,0,rectangle,-4.799988627,-4.800006509,1,0,0,0,5,0.0019,-4.799988627,-4.800006509,1,0,0,0,114,114,119,1,0,,,,,,,,,,,,,,,,,,,,,
,,,,,,,,,,,,,,,,,,,,,,,,,,,,,,,,,,,,,,,,,,5f5a901b8b9d7015f013b024,606841bbc950b9940bdb75e6,2021-04-03_12h22.00.856,Colour_Similarity_Experiment,2020.2.10,Win32,60,60674ec340277cd6a308bc9f,17.06841637,16.7083552,16.70903605,16.70214379,16.67420918,16.7083552,,,,,,,,,,,,,,,,,,,,PF,strong,3,,,,,,,,6,1.632555,,,,,,,,,,,,,,,,,,,,,,,,,,,,3,strong,85.60001272,43.19996979,1,0,0,response1disk,7,116,4.000011504,-9.60000658,1,0,0,rectangle,4.000011504,-9.60000658,1,0,0,0,7,0.001,4.000011504,-9.60000658,1,0,0,0,115,115,118,1,0,,,,,,,,,,,,,,,,,,,,,
,,,,,,,,,,,,,,,,,,,,,,,,,,,,,,,,,,,,,,,,,,5f5a901b8b9d7015f013b024,606841bbc950b9940bdb75e6,2021-04-03_12h22.00.856,Colour_Similarity_Experiment,2020.2.10,Win32,60,60674ec340277cd6a308bc9f,17.06841637,16.7083552,16.70903605,16.70214379,16.67420918,16.7083552,,,,,,,,,,,,,,,,,,,,PF,weak,3,,,,,,,,6,1.1837,,,,,,,,,,,,,,,,,,,,,,,,,,,,6,weak,63.20001239,31.19996961,1,0,0,response1disk,2,117,16.80001169,-0.800006449,1,0,0,rectangle,16.80001169,-0.800006449,1,0,0,0,7,0.002855,16.80001169,-0.800006449,1,0,0,0,116,116,130,1,0,,,,,,,,,,,,,,,,,,,,,
,,,,,,,,,,,,,,,,,,,,,,,,,,,,,,,,,,,,,,,,,,5f5a901b8b9d7015f013b024,606841bbc950b9940bdb75e6,2021-04-03_12h22.00.856,Colour_Similarity_Experiment,2020.2.10,Win32,60,60674ec340277cd6a308bc9f,17.06841637,16.7083552,16.70903605,16.70214379,16.67420918,16.7083552,,,,,,,,,,,,,,,,,,,,PF,strong,3,,,,,,,,6,2.746165,,,,,,,,,,,,,,,,,,,,,,,,,,,,2,strong,82.40001267,58.39999443,1,0,0,response1disk,1,118,2.40001148,7.19999367,1,0,0,rectangle,2.40001148,7.19999367,1,0,0,0,6,0.002005,2.40001148,7.19999367,1,0,0,0,117,117,85,1,0,,,,,,,,,,,,,,,,,,,,,
,,,,,,,,,,,,,,,,,,,,,,,,,,,,,,,,,,,,,,,,,,5f5a901b8b9d7015f013b024,606841bbc950b9940bdb75e6,2021-04-03_12h22.00.856,Colour_Similarity_Experiment,2020.2.10,Win32,60,60674ec340277cd6a308bc9f,17.06841637,16.7083552,16.70903605,16.70214379,16.67420918,16.7083552,,,,,,,,,,,,,,,,,,,,PF,weak,3,,,,,,,,7,1.700715,,,,,,,,,,,,,,,,,,,,,,,,,,,,9,weak,60.00001234,92.79999495,1,0,0,response1disk,5,119,24.0000118,4.799993634,1,0,0,rectangle,24.0000118,4.799993634,1,0,0,0,4,0.001975,24.0000118,4.799993634,1,0,0,0,118,118,134,1,0,,,,,,,,,,,,,,,,,,,,,
,,,,,,,,,,,,,,,,,,,,,,,,,,,,,,,,,,,,,,,,,,5f5a901b8b9d7015f013b024,606841bbc950b9940bdb75e6,2021-04-03_12h22.00.856,Colour_Similarity_Experiment,2020.2.10,Win32,60,60674ec340277cd6a308bc9f,17.06841637,16.7083552,16.70903605,16.70214379,16.67420918,16.7083552,,,,,,,,,,,,,,,,,,,,PF,strong,3,,,,,,,,6,1.74751,,,,,,,,,,,,,,,,,,,,,,,,,,,,2,strong,64.0000124,29.599994,1,0,0,response1disk,9,120,20.00001174,6.399993658,1,0,0,rectangle,20.00001174,6.399993658,1,0,0,0,4,0.00034,20.00001174,6.399993658,1,0,0,0,119,119,72,1,0,,,,,,,,,,,,,,,,,,,,,
,,,,,,,,,,,,,,,,,,,,,,,,,,,,,,,,,,,,,,,,,,5f5a901b8b9d7015f013b024,606841bbc950b9940bdb75e6,2021-04-03_12h22.00.856,Colour_Similarity_Experiment,2020.2.10,Win32,60,60674ec340277cd6a308bc9f,17.06841637,16.7083552,16.70903605,16.70214379,16.67420918,16.7083552,,,,,,,,,,,,,,,,,,,,PF,weak,3,,,,,,,,6,0.95021,,,,,,,,,,,,,,,,,,,,,,,,,,,,2,weak,82.40001267,45.59999424,1,0,0,response1disk,7,121,15.20001167,11.19999373,1,0,0,rectangle,15.20001167,11.19999373,1,0,0,0,3,0.00227,15.20001167,11.19999373,1,0,0,0,120,120,107,1,0,,,,,,,,,,,,,,,,,,,,,
,,,,,,,,,,,,,,,,,,,,,,,,,,,,,,,,,,,,,,,,,,5f5a901b8b9d7015f013b024,606841bbc950b9940bdb75e6,2021-04-03_12h22.00.856,Colour_Similarity_Experiment,2020.2.10,Win32,60,60674ec340277cd6a308bc9f,17.06841637,16.7083552,16.70903605,16.70214379,16.67420918,16.7083552,,,,,,,,,,,,,,,,,,,,PF,weak,3,,,,,,,,7,0.768175,,,,,,,,,,,,,,,,,,,,,,,,,,,,4,weak,55.20001227,101.5999951,1,0,0,response1disk,1,122,8.000011563,-7.200006545,1,0,0,rectangle,8.000011563,-7.200006545,1,0,0,0,0,0.00187,8.000011563,-7.200006545,1,0,0,0,121,121,115,1,0,,,,,,,,,,,,,,,,,,,,,
,,,,,,,,,,,,,,,,,,,,,,,,,,,,,,,,,,,,,,,,,,5f5a901b8b9d7015f013b024,606841bbc950b9940bdb75e6,2021-04-03_12h22.00.856,Colour_Similarity_Experiment,2020.2.10,Win32,60,60674ec340277cd6a308bc9f,17.06841637,16.7083552,16.70903605,16.70214379,16.67420918,16.7083552,,,,,,,,,,,,,,,,,,,,PF,strong,3,,,,,,,,3,1.497215,,,,,,,,,,,,,,,,,,,,,,,,,,,,9,strong,-51.99998933,-80.80000764,1,0,0,response5disk,3,123,-2.399939764,10.39999372,1,0,0,rectangle,-2.399939764,10.39999372,1,0,0,0,7,0.004005,-2.399939764,10.39999372,1,0,0,0,122,122,141,1,0,,,,,,,,,,,,,,,,,,,,,
,,,,,,,,,,,,,,,,,,,,,,,,,,,,,,,,,,,,,,,,,,5f5a901b8b9d7015f013b024,606841bbc950b9940bdb75e6,2021-04-03_12h22.00.856,Colour_Similarity_Experiment,2020.2.10,Win32,60,60674ec340277cd6a308bc9f,17.06841637,16.7083552,16.70903605,16.70214379,16.67420918,16.7083552,,,,,,,,,,,,,,,,,,,,PF,strong,3,,,,,,,,5,1.765835,,,,,,,,,,,,,,,,,,,,,,,,,,,,6,strong,84.80001271,-48.00000715,1,0,0,response3disk,8,124,1.600060296,-6.400006533,1,0,0,rectangle,1.600060296,-6.400006533,1,0,0,0,7,0.000275,1.600060296,-6.400006533,1,0,0,0,123,123,133,1,0,,,,,,,,,,,,,,,,,,,,,
,,,,,,,,,,,,,,,,,,,,,,,,,,,,,,,,,,,,,,,,,,5f5a901b8b9d7015f013b024,606841bbc950b9940bdb75e6,2021-04-03_12h22.00.856,Colour_Similarity_Experiment,2020.2.10,Win32,60,60674ec340277cd6a308bc9f,17.06841637,16.7083552,16.70903605,16.70214379,16.67420918,16.7083552,,,,,,,,,,,,,,,,,,,,PF,strong,3,,,,,,,,7,1.398775,,,,,,,,,,,,,,,,,,,,,,,,,,,,3,strong,49.60006101,78.39999473,1,0,0,response1disk,9,125,4.800011516,-15.20000666,1,0,0,rectangle,4.800011516,-15.20000666,1,0,0,0,5,0.00186,4.800011516,-15.20000666,1,0,0,0,124,124,143,1,0,,,,,,,,,,,,,,,,,,,,,
,,,,,,,,,,,,,,,,,,,,,,,,,,,,,,,,,,,,,,,,,,5f5a901b8b9d7015f013b024,606841bbc950b9940bdb75e6,2021-04-03_12h22.00.856,Colour_Similarity_Experiment,2020.2.10,Win32,60,60674ec340277cd6a308bc9f,17.06841637,16.7083552,16.70903605,16.70214379,16.67420918,16.7083552,,,,,,,,,,,,,,,,,,,,PF,weak,3,,,,,,,,1,1.233905,,,,,,,,,,,,,,,,,,,,,,,,,,,,7,weak,-91.99998993,53.59999436,1,0,0,response7disk,6,126,20.00001174,11.19999373,1,0,0,rectangle,20.00001174,11.19999373,1,0,0,0,5,0.000365,20.00001174,11.19999373,1,0,0,0,125,125,29,1,0,,,,,,,,,,,,,,,,,,,,,
,,,,,,,,,,,,,,,,,,,,,,,,,,,,,,,,,,,,,,,,,,5f5a901b8b9d7015f013b024,606841bbc950b9940bdb75e6,2021-04-03_12h22.00.856,Colour_Similarity_Experiment,2020.2.10,Win32,60,60674ec340277cd6a308bc9f,17.06841637,16.7083552,16.70903605,16.70214379,16.67420918,16.7083552,,,,,,,,,,,,,,,,,,,,PF,weak,3,,,,,,,,1,1.082855,,,,,,,,,,,,,,,,,,,,,,,,,,,,7,weak,-79.19998974,40.79999417,1,0,0,response7disk,7,127,16.00001168,16.79999381,1,0,0,rectangle,16.00001168,16.79999381,1,0,0,0,1,0.00185,16.00001168,16.79999381,1,0,0,0,126,126,51,1,0,,,,,,,,,,,,,,,,,,,,,
,,,,,,,,,,,,,,,,,,,,,,,,,,,,,,,,,,,,,,,,,,5f5a901b8b9d7015f013b024,606841bbc950b9940bdb75e6,2021-04-03_12h22.00.856,Colour_Similarity_Experiment,2020.2.10,Win32,60,60674ec340277cd6a308bc9f,17.06841637,16.7083552,16.70903605,16.70214379,16.67420918,16.7083552,,,,,,,,,,,,,,,,,,,,PF,strong,3,,,,,,,,2,1.55113,,,,,,,,,,,,,,,,,,,,,,,,,,,,8,strong,-60.79998946,-37.600007,1,0,0,response5disk,1,128,-3.199988604,-7.200006545,1,0,0,rectangle,-3.199988604,-7.200006545,1,0,0,0,2,0.0019,-3.199988604,-7.200006545,1,0,0,0,127,127,20,1,0,,,,,,,,,,,,,,,,,,,,,
,,,,,,,,,,,,,,,,,,,,,,,,,,,,,,,,,,,,,,,,,,5f5a901b8b9d7015f013b024,606841bbc950b9940bdb75e6,2021-04-03_12h22.00.856,Colour_Similarity_Experiment,2020.2.10,Win32,60,60674ec340277cd6a308bc9f,17.06841637,16.7083552,16.70903605,16.70214379,16.67420918,16.7083552,,,,,,,,,,,,,,,,,,,,PF,strong,3,,,,,,,,5,1.49994,,,,,,,,,,,,,,,,,,,,,,,,,,,,9,strong,76.80001259,-58.40000731,1,0,0,response3disk,7,129,31.20001191,9.599993706,1,0,0,rectangle,31.20001191,9.599993706,1,0,0,0,3,0.001465,31.20001191,9.599993706,1,0,0,0,128,128,100,1,0,,,,,,,,,,,,,,,,,,,,,
,,,,,,,,,,,,,,,,,,,,,,,,,,,,,,,,,,,,,,,,,,5f5a901b8b9d7015f013b024,606841bbc950b9940bdb75e6,2021-04-03_12h22.00.856,Colour_Similarity_Experiment,2020.2.10,Win32,60,60674ec340277cd6a308bc9f,17.06841637,16.7083552,16.70903605,16.70214379,16.67420918,16.7083552,,,,,,,,,,,,,,,,,,,,PF,weak,3,,,,,,,,7,1.383865,,,,,,,,,,,,,,,,,,,,,,,,,,,,2,weak,48.80001217,88.79999489,1,0,0,response1disk,8,130,12.80001163,7.19999367,1,0,0,rectangle,12.80001163,7.19999367,1,0,0,0,1,0.000505,12.80001163,7.19999367,1,0,0,0,129,129,52,1,0,,,,,,,,,,,,,,,,,,,,,
,,,,,,,,,,,,,,,,,,,,,,,,,,,,,,,,,,,,,,,,,,5f5a901b8b9d7015f013b024,606841bbc950b9940bdb75e6,2021-04-03_12h22.00.856,Colour_Similarity_Experiment,2020.2.10,Win32,60,60674ec340277cd6a308bc9f,17.06841637,16.7083552,16.70903605,16.70214379,16.67420918,16.7083552,,,,,,,,,,,,,,,,,,,,PF,weak,3,,,,,,,,7,0.86715,,,,,,,,,,,,,,,,,,,,,,,,,,,,5,weak,65.60001242,113.5999953,1,0,0,response1disk,9,131,1.14441E-05,-0.800006449,1,0,0,rectangle,85.60001272,-40.00000703,1,0,0,5,5,1.25077,17.60006053,-13.60000664,1,0,0,0,130,130,136,1,1,response3disk_3,rectangle,,,,,,,,,,,,,,,,,,,
,,,,,,,,,,,,,,,,,,,,,,,,,,,,,,,,,,,,,,,,,,5f5a901b8b9d7015f013b024,606841bbc950b9940bdb75e6,2021-04-03_12h22.00.856,Colour_Similarity_Experiment,2020.2.10,Win32,60,60674ec340277cd6a308bc9f,17.06841637,16.7083552,16.70903605,16.70214379,16.67420918,16.7083552,,,,,,,,,,,,,,,,,,,,PF,weak,3,,,,,,,,0,0.883395,,,,,,,,,,,,,,,,,,,,,,,,,,,,5,weak,-63.99998951,77.59999472,1,0,0,response7disk,5,132,16.00001168,-4.800006509,1,0,0,rectangle,16.00001168,-4.800006509,1,0,0,5,5,0.00029,16.00001168,-4.800006509,1,0,0,0,131,131,94,1,0,,,,,,,,,,,,,,,,,,,,,
,,,,,,,,,,,,,,,,,,,,,,,,,,,,,,,,,,,,,,,,,,5f5a901b8b9d7015f013b024,606841bbc950b9940bdb75e6,2021-04-03_12h22.00.856,Colour_Similarity_Experiment,2020.2.10,Win32,60,60674ec340277cd6a308bc9f,17.06841637,16.7083552,16.70903605,16.70214379,16.67420918,16.7083552,,,,,,,,,,,,,,,,,,,,PF,strong,3,,,,,,,,1,1.18381,,,,,,,,,,,,,,,,,,,,,,,,,,,,2,strong,-70.39994078,44.79999423,1,0,0,response7disk,6,133,-8.799988687,3.999993622,1,0,0,rectangle,-8.799988687,3.999993622,1,0,0,5,1,0.001605,-8.799988687,3.999993622,1,0,0,0,132,132,40,1,0,,,,,,,,,,,,,,,,,,,,,
,,,,,,,,,,,,,,,,,,,,,,,,,,,,,,,,,,,,,,,,,,5f5a901b8b9d7015f013b024,606841bbc950b9940bdb75e6,2021-04-03_12h22.00.856,Colour_Similarity_Experiment,2020.2.10,Win32,60,60674ec340277cd6a308bc9f,17.06841637,16.7083552,16.70903605,16.70214379,16.67420918,16.7083552,,,,,,,,,,,,,,,,,,,,PF,strong,3,,,,,,,,1,1.600185,,,,,,,,,,,,,,,,,,,,,,,,,,,,1,strong,-93.59998995,31.19996961,1,0,0,response7disk,6,134,-10.39993988,-3.200006485,1,0,0,rectangle,-10.39993988,-3.200006485,1,0,0,5,1,0.00041,-10.39993988,-3.200006485,1,0,0,0,133,133,58,1,0,,,,,,,,,,,,,,,,,,,,,
,,,,,,,,,,,,,,,,,,,,,,,,,,,,,,,,,,,,,,,,,,5f5a901b8b9d7015f013b024,606841bbc950b9940bdb75e6,2021-04-03_12h22.00.856,Colour_Similarity_Experiment,2020.2.10,Win32,60,60674ec340277cd6a308bc9f,17.06841637,16.7083552,16.70903605,16.70214379,16.67420918,16.7083552,,,,,,,,,,,,,,,,,,,,PF,strong,3,,,,,,,,1,1.300045,,,,,,,,,,,,,,,,,,,,,,,,,,,,2,strong,-70.39994078,44.79999423,1,0,0,response7disk,5,135,3.200011492,8.799993694,1,0,0,rectangle,3.200011492,8.799993694,1,0,0,5,0,0.00264,3.200011492,8.799993694,1,0,0,0,134,134,80,1,0,,,,,,,,,,,,,,,,,,,,,
,,,,,,,,,,,,,,,,,,,,,,,,,,,,,,,,,,,,,,,,,,5f5a901b8b9d7015f013b024,606841bbc950b9940bdb75e6,2021-04-03_12h22.00.856,Colour_Similarity_Experiment,2020.2.10,Win32,60,60674ec340277cd6a308bc9f,17.06841637,16.7083552,16.70903605,16.70214379,16.67420918,16.7083552,,,,,,,,,,,,,,,,,,,,PF,strong,3,,,,,,,,6,1.86365,,,,,,,,,,,,,,,,,,,,,,,,,,,,5,strong,49.60006101,24.79999393,1,0,0,response1disk,8,136,0.800011456,-2.400006473,1,0,0,rectangle,0.800011456,-2.400006473,1,0,0,5,5,0.00121,0.800011456,-2.400006473,1,0,0,0,135,135,16,1,0,,,,,,,,,,,,,,,,,,,,,
,,,,,,,,,,,,,,,,,,,,,,,,,,,,,,,,,,,,,,,,,,5f5a901b8b9d7015f013b024,606841bbc950b9940bdb75e6,2021-04-03_12h22.00.856,Colour_Similarity_Experiment,2020.2.10,Win32,60,60674ec340277cd6a308bc9f,17.06841637,16.7083552,16.70903605,16.70214379,16.67420918,16.7083552,,,,,,,,,,,,,,,,,,,,PF,weak,3,,,,,,,,6,1.01624,,,,,,,,,,,,,,,,,,,,,,,,,,,,3,weak,103.200013,58.39999443,1,0,0,response1disk,8,137,21.60006059,13.59999377,1,0,0,rectangle,21.60006059,13.59999377,1,0,0,5,0,0.00195,21.60006059,13.59999377,1,0,0,0,136,136,3,1,0,,,,,,,,,,,,,,,,,,,,,
,,,,,,,,,,,,,,,,,,,,,,,,,,,,,,,,,,,,,,,,,,5f5a901b8b9d7015f013b024,606841bbc950b9940bdb75e6,2021-04-03_12h22.00.856,Colour_Similarity_Experiment,2020.2.10,Win32,60,60674ec340277cd6a308bc9f,17.06841637,16.7083552,16.70903605,16.70214379,16.67420918,16.7083552,,,,,,,,,,,,,,,,,,,,PF,weak,3,,,,,,,,6,1.21685,,,,,,,,,,,,,,,,,,,,,,,,,,,,5,weak,56.00001228,30.39999402,1,0,0,response1disk,4,138,9.600060415,8.799993694,1,0,0,rectangle,9.600060415,8.799993694,1,0,0,5,1,0.00211,9.600060415,8.799993694,1,0,0,0,137,137,54,1,0,,,,,,,,,,,,,,,,,,,,,
,,,,,,,,,,,,,,,,,,,,,,,,,,,,,,,,,,,,,,,,,,5f5a901b8b9d7015f013b024,606841bbc950b9940bdb75e6,2021-04-03_12h22.00.856,Colour_Similarity_Experiment,2020.2.10,Win32,60,60674ec340277cd6a308bc9f,17.06841637,16.7083552,16.70903605,16.70214379,16.67420918,16.7083552,,,,,,,,,,,,,,,,,,,,PF,strong,3,,,,,,,,3,2.78325,,,,,,,,,,,,,,,,,,,,,,,,,,,,6,strong,-27.99998897,-60.00000733,1,0,0,response5disk,3,139,4.800011516,3.999993622,1,0,0,rectangle,4.800011516,3.999993622,1,0,0,5,5,0.00062,4.800011516,3.999993622,1,0,0,0,138,138,21,1,0,,,,,,,,,,,,,,,,,,,,,
,,,,,,,,,,,,,,,,,,,,,,,,,,,,,,,,,,,,,,,,,,5f5a901b8b9d7015f013b024,606841bbc950b9940bdb75e6,2021-04-03_12h22.00.856,Colour_Similarity_Experiment,2020.2.10,Win32,60,60674ec340277cd6a308bc9f,17.06841637,16.7083552,16.70903605,16.70214379,16.67420918,16.7083552,,,,,,,,,,,,,,,,,,,,PF,strong,3,,,,,,,,7,1.083985,,,,,,,,,,,,,,,,,,,,,,,,,,,,4,strong,32.80001193,76.79999471,1,0,0,response1disk,8,140,8.000011563,4.799993634,1,0,0,rectangle,8.000011563,4.799993634,1,0,0,5,5,7.00001E-05,8.000011563,4.799993634,1,0,0,0,139,139,35,1,0,,,,,,,,,,,,,,,,,,,,,
,,,,,,,,,,,,,,,,,,,,,,,,,,,,,,,,,,,,,,,,,,5f5a901b8b9d7015f013b024,606841bbc950b9940bdb75e6,2021-04-03_12h22.00.856,Colour_Similarity_Experiment,2020.2.10,Win32,60,60674ec340277cd6a308bc9f,17.06841637,16.7083552,16.70903605,16.70214379,16.67420918,16.7083552,,,,,,,,,,,,,,,,,,,,PF,strong,3,,,,,,,,5,6.014585,,,,,,,,,,,,,,,,,,,,,,,,,,,,2,strong,76.00001258,-40.80000705,1,0,0,response3disk,7,141,11.20001161,-5.600006521,1,0,0,rectangle,11.20001161,-5.600006521,1,0,0,5,5,0.000385,11.20001161,-5.600006521,1,0,0,0,140,140,63,1,0,,,,,,,,,,,,,,,,,,,,,
,,,,,,,,,,,,,,,,,,,,,,,,,,,,,,,,,,,,,,,,,,5f5a901b8b9d7015f013b024,606841bbc950b9940bdb75e6,2021-04-03_12h22.00.856,Colour_Similarity_Experiment,2020.2.10,Win32,60,60674ec340277cd6a308bc9f,17.06841637,16.7083552,16.70903605,16.70214379,16.67420918,16.7083552,,,,,,,,,,,,,,,,,,,,PF,weak,3,,,,,,,,7,1.05068,,,,,,,,,,,,,,,,,,,,,,,,,,,,2,weak,48.80001217,83.19997039,1,0,0,response1disk,6,142,22.40001178,-9.60000658,1,0,0,rectangle,22.40001178,-9.60000658,1,0,0,5,0,0.004835,22.40001178,-9.60000658,1,0,0,0,141,141,113,1,0,,,,,,,,,,,,,,,,,,,,,
,,,,,,,,,,,,,,,,,,,,,,,,,,,,,,,,,,,,,,,,,,5f5a901b8b9d7015f013b024,606841bbc950b9940bdb75e6,2021-04-03_12h22.00.856,Colour_Similarity_Experiment,2020.2.10,Win32,60,60674ec340277cd6a308bc9f,17.06841637,16.7083552,16.70903605,16.70214379,16.67420918,16.7083552,,,,,,,,,,,,,,,,,,,,PF,strong,3,,,,,,,,7,1.15013,,,,,,,,,,,,,,,,,,,,,,,,,,,,8,strong,39.20001203,83.99999481,1,0,0,response1disk,6,143,16.00001168,-0.800006449,1,0,0,rectangle,16.00001168,-0.800006449,1,0,0,5,7,0.00191,16.00001168,-0.800006449,1,0,0,0,142,142,37,1,0,,,,,,,,,,,,,,,,,,,,,
,,,,,,,,,,,,,,,,,,,,,,,,,,,,,,,,,,,,,,,,,,5f5a901b8b9d7015f013b024,606841bbc950b9940bdb75e6,2021-04-03_12h22.00.856,Colour_Similarity_Experiment,2020.2.10,Win32,60,60674ec340277cd6a308bc9f,17.06841637,16.7083552,16.70903605,16.70214379,16.67420918,16.7083552,,,,,,,,,,,,,,,,,,,,PF,weak,3,,,,,,,,7,0.80163,,,,,,,,,,,,,,,,,,,,,,,,,,,,9,weak,47.20001215,97.59999502,1,0,0,response1disk,4,144,0.800011456,-6.4373E-06,1,0,0,rectangle,0.800011456,-6.4373E-06,1,0,0,5,2,0.001335,0.800011456,-6.4373E-06,1,0,0,0,143,143,114,1,0,,,,,,,,,,,,,,,,,,,,,
,,,,,,,,,,,,,,,,,,,,,,,,,,,,,,,,,,,,,,,,,,5f5a901b8b9d7015f013b024,606841bbc950b9940bdb75e6,2021-04-03_12h22.00.856,Colour_Similarity_Experiment,2020.2.10,Win32,60,60674ec340277cd6a308bc9f,17.06841637,16.7083552,16.70903605,16.70214379,16.67420918,16.7083552,,,,,,,,,,,,,,,,,,,,PF,strong,3,,,,,,,,7,1.033765,,,,,,,,,,,,,,,,,,,,,,,,,,,,7,strong,48.00001216,87.19997045,1,0,0,response1disk,1,145,11.20001161,-16.00000668,1,0,0,rectangle,11.20001161,-16.00000668,1,0,0,5,0,0.00139,11.20001161,-16.00000668,1,0,0,0,144,144,132,1,0,,,,,,,,,,,,,,,,,,,,,
,,,,,,,,,,,,,,,,,,,,,,,,,,,,,,,,,,,,,,,,,,5f5a901b8b9d7015f013b024,606841bbc950b9940bdb75e6,2021-04-03_12h22.00.856,Colour_Similarity_Experiment,2020.2.10,Win32,60,60674ec340277cd6a308bc9f,17.06841637,16.7083552,16.70903605,16.70214379,16.67420918,16.7083552,,,,,,,,,,,,,,,,,,,,PF,strong,3,,,,,,,,2,1.733215,,,,,,,,,,,,,,,,,,,,,,,,,,,,8,strong,-67.99998957,-36.80000699,1,0,0,response5disk,8,146,0.800011456,-1.600006461,1,0,0,rectangle,0.800011456,-1.600006461,1,0,0,5,0,0.00031,0.800011456,-1.600006461,1,0,0,0,145,145,48,1,0,,,,,,,,,,,,,,,,,,,,,
,,,,,,,,,,,,,,,,,,,,,,,,,,,,,,,,,,,,,,,,,,5f5a901b8b9d7015f013b024,606841bbc950b9940bdb75e6,2021-04-03_12h22.00.856,Colour_Similarity_Experiment,2020.2.10,Win32,60,60674ec340277cd6a308bc9f,17.06841637,16.7083552,16.70903605,16.70214379,16.67420918,16.7083552,,,,,,,,,,,,,,,,,,,,PF,weak,3,,,,,,,,2,2.116515,,,,,,,,,,,,,,,,,,,,,,,,,,,,8,weak,-89.59998989,-34.40000695,1,0,0,response5disk,8,147,0.800011456,-5.600006521,1,0,0,rectangle,0.800011456,-5.600006521,1,0,0,5,6,0.00258,0.800011456,-5.600006521,1,0,0,0,146,146,153,1,0,,,,,,,,,,,,,,,,,,,,,
,,,,,,,,,,,,,,,,,,,,,,,,,,,,,,,,,,,,,,,,,,5f5a901b8b9d7015f013b024,606841bbc950b9940bdb75e6,2021-04-03_12h22.00.856,Colour_Similarity_Experiment,2020.2.10,Win32,60,60674ec340277cd6a308bc9f,17.06841637,16.7083552,16.70903605,16.70214379,16.67420918,16.7083552,,,,,,,,,,,,,,,,,,,,PF,strong,3,,,,,,,,2,0.984525,,,,,,,,,,,,,,,,,,,,,,,,,,,,8,strong,-68.79998958,-38.40000701,1,0,0,response5disk,7,148,-8.799988687,-2.400006473,1,0,0,rectangle,-8.799988687,-2.400006473,1,0,0,5,2,0.001965,-8.799988687,-2.400006473,1,0,0,0,147,147,86,1,0,,,,,,,,,,,,,,,,,,,,,
,,,,,,,,,,,,,,,,,,,,,,,,,,,,,,,,,,,,,,,,,,5f5a901b8b9d7015f013b024,606841bbc950b9940bdb75e6,2021-04-03_12h22.00.856,Colour_Similarity_Experiment,2020.2.10,Win32,60,60674ec340277cd6a308bc9f,17.06841637,16.7083552,16.70903605,16.70214379,16.67420918,16.7083552,,,,,,,,,,,,,,,,,,,,PF,strong,3,,,,,,,,3,1.050505,,,,,,,,,,,,,,,,,,,,,,,,,,,,6,strong,-44.79998922,-76.00000757,1,0,0,response5disk,6,149,-11.99998873,-7.200006545,1,0,0,rectangle,-11.99998873,-7.200006545,1,0,0,5,6,0.001895,-11.99998873,-7.200006545,1,0,0,0,148,148,91,1,0,,,,,,,,,,,,,,,,,,,,,
,,,,,,,,,,,,,,,,,,,,,,,,,,,,,,,,,,,,,,,,,,5f5a901b8b9d7015f013b024,606841bbc950b9940bdb75e6,2021-04-03_12h22.00.856,Colour_Similarity_Experiment,2020.2.10,Win32,60,60674ec340277cd6a308bc9f,17.06841637,16.7083552,16.70903605,16.70214379,16.67420918,16.7083552,,,,,,,,,,,,,,,,,,,,PF,weak,3,,,,,,,,5,1.300835,,,,,,,,,,,,,,,,,,,,,,,,,,,,9,weak,68.80001247,-37.600007,1,0,0,response3disk,1,150,-4.799988627,-4.000006497,1,0,0,rectangle,-4.799988627,-4.000006497,1,0,0,5,3,0.001935,-4.799988627,-4.000006497,1,0,0,0,149,149,74,1,0,,,,,,,,,,,,,,,,,,,,,
,,,,,,,,,,,,,,,,,,,,,,,,,,,,,,,,,,,,,,,,,,5f5a901b8b9d7015f013b024,606841bbc950b9940bdb75e6,2021-04-03_12h22.00.856,Colour_Similarity_Experiment,2020.2.10,Win32,60,60674ec340277cd6a308bc9f,17.06841637,16.7083552,16.70903605,16.70214379,16.67420918,16.7083552,,,,,,,,,,,,,,,,,,,,PF,weak,3,,,,,,,,5,1.166905,,,,,,,,,,,,,,,,,,,,,,,,,,,,1,weak,67.20001245,-34.40000695,1,0,0,response3disk,9,151,-0.799988568,-6.4373E-06,1,0,0,rectangle,-0.799988568,-6.4373E-06,1,0,0,5,0,0.001795,-0.799988568,-6.4373E-06,1,0,0,0,150,150,15,1,0,,,,,,,,,,,,,,,,,,,,,
,,,,,,,,,,,,,,,,,,,,,,,,,,,,,,,,,,,,,,,,,,5f5a901b8b9d7015f013b024,606841bbc950b9940bdb75e6,2021-04-03_12h22.00.856,Colour_Similarity_Experiment,2020.2.10,Win32,60,60674ec340277cd6a308bc9f,17.06841637,16.7083552,16.70903605,16.70214379,16.67420918,16.7083552,,,,,,,,,,,,,,,,,,,,PF,strong,3,,,,,,,,7,1.483505,,,,,,,,,,,,,,,,,,,,,,,,,,,,4,strong,62.40001237,72.79999465,1,0,0,response1disk,7,152,34.40001196,-0.800006449,1,0,0,rectangle,34.40001196,-0.800006449,1,0,0,5,0,0.000315,34.40001196,-0.800006449,1,0,0,0,151,151,87,1,0,,,,,,,,,,,,,,,,,,,,,
,,,,,,,,,,,,,,,,,,,,,,,,,,,,,,,,,,,,,,,,,,5f5a901b8b9d7015f013b024,606841bbc950b9940bdb75e6,2021-04-03_12h22.00.856,Colour_Similarity_Experiment,2020.2.10,Win32,60,60674ec340277cd6a308bc9f,17.06841637,16.7083552,16.70903605,16.70214379,16.67420918,16.7083552,,,,,,,,,,,,,,,,,,,,PF,strong,3,,,,,,,,7,0.91719,,,,,,,,,,,,,,,,,,,,,,,,,,,,2,strong,46.40001214,99.19997063,1,0,0,response1disk,8,153,15.20001167,2.399993598,1,0,0,rectangle,15.20001167,2.399993598,1,0,0,5,1,0.00205,15.20001167,2.399993598,1,0,0,0,152,152,62,1,0,,,,,,,,,,,,,,,,,,,,,
,,,,,,,,,,,,,,,,,,,,,,,,,,,,,,,,,,,,,,,,,,5f5a901b8b9d7015f013b024,606841bbc950b9940bdb75e6,2021-04-03_12h22.00.856,Colour_Similarity_Experiment,2020.2.10,Win32,60,60674ec340277cd6a308bc9f,17.06841637,16.7083552,16.70903605,16.70214379,16.67420918,16.7083552,,,,,,,,,,,,,,,,,,,,PF,strong,3,,,,,,,,7,0.75944,,,,,,,,,,,,,,,,,,,,,,,,,,,,5,strong,68.80001247,90.39999491,1,0,0,response1disk,4,154,7.200011551,4.799993634,1,0,0,rectangle,7.200011551,4.799993634,1,0,0,5,2,0.002505,7.200011551,4.799993634,1,0,0,0,153,153,8,1,0,,,,,,,,,,,,,,,,,,,,,
,,,,,,,,,,,,,,,,,,,,,,,,,,,,,,,,,,,,,,,,,,5f5a901b8b9d7015f013b024,606841bbc950b9940bdb75e6,2021-04-03_12h22.00.856,Colour_Similarity_Experiment,2020.2.10,Win32,60,60674ec340277cd6a308bc9f,17.06841637,16.7083552,16.70903605,16.70214379,16.67420918,16.7083552,,,,,,,,,,,,,,,,,,,,PF,weak,3,,,,,,,,7,1.23397,,,,,,,,,,,,,,,,,,,,,,,,,,,,5,weak,64.80001241,95.99999499,1,0,0,response1disk,7,155,-5.599988639,3.19999361,1,0,0,rectangle,-5.599988639,3.19999361,1,0,0,5,1,0.002995,-5.599988639,3.19999361,1,0,0,0,154,154,146,1,0,,,,,,,,,,,,,,,,,,,,,
,,,,,,,,,,,,,,,,,,,,,,,,,,,,,,,,,,,,,,,,,,5f5a901b8b9d7015f013b024,606841bbc950b9940bdb75e6,2021-04-03_12h22.00.856,Colour_Similarity_Experiment,2020.2.10,Win32,60,60674ec340277cd6a308bc9f,17.06841637,16.7083552,16.70903605,16.70214379,16.67420918,16.7083552,,,,,,,,,,,,,,,,,,,,PF,strong,3,,,,,,,,6,1.81636,,,,,,,,,,,,,,,,,,,,,,,,,,,,8,strong,103.200013,53.59999436,1,0,0,response1disk,2,156,13.60006047,2.399993598,1,0,0,rectangle,13.60006047,2.399993598,1,0,0,5,2,0.00048,13.60006047,2.399993598,1,0,0,0,155,155,22,1,0,,,,,,,,,,,,,,,,,,,,,
,,,,,,,,,,,,,,,,,,,,,,,,,,,,,,,,,,,,,,,,,,5f5a901b8b9d7015f013b024,606841bbc950b9940bdb75e6,2021-04-03_12h22.00.856,Colour_Similarity_Experiment,2020.2.10,Win32,60,60674ec340277cd6a308bc9f,17.06841637,16.7083552,16.70903605,16.70214379,16.67420918,16.7083552,,,,,,,,,,,,,,,,,,,,PF,weak,3,,,,,,,,7,0.833085,,,,,,,,,,,,,,,,,,,,,,,,,,,,6,weak,58.40001231,103.1999707,1,0,0,response1disk,9,157,16.00001168,8.799993694,1,0,0,rectangle,16.00001168,8.799993694,1,0,0,5,0,0.002,16.00001168,8.799993694,1,0,0,0,156,156,45,1,0,,,,,,,,,,,,,,,,,,,,,
,,,,,,,,,,,,,,,,,,,,,,,,,,,,,,,,,,,,,,,,,,5f5a901b8b9d7015f013b024,606841bbc950b9940bdb75e6,2021-04-03_12h22.00.856,Colour_Similarity_Experiment,2020.2.10,Win32,60,60674ec340277cd6a308bc9f,17.06841637,16.7083552,16.70903605,16.70214379,16.67420918,16.7083552,,,,,,,,,,,,,,,,,,,,PF,weak,3,,,,,,,,2,1.266935,,,,,,,,,,,,,,,,,,,,,,,,,,,,1,weak,-85.59998983,-48.00000715,1,0,0,response5disk,1,158,3.200011492,-1.600006461,1,0,0,rectangle,-108.7999902,-52.80000722,1,0,0,5,2,1.68144,5.600060356,2.399993598,1,0,0,0,157,157,76,1,1,response5disk_3,rectangle,,,,,,,,,,,,,,,,,,,
,,,,,,,,,,,,,,,,,,,,,,,,,,,,,,,,,,,,,,,,,,5f5a901b8b9d7015f013b024,606841bbc950b9940bdb75e6,2021-04-03_12h22.00.856,Colour_Similarity_Experiment,2020.2.10,Win32,60,60674ec340277cd6a308bc9f,17.06841637,16.7083552,16.70903605,16.70214379,16.67420918,16.7083552,,,,,,,,,,,,,,,,,,,,PF,strong,3,,,,,,,,7,1.2009,,,,,,,,,,,,,,,,,,,,,,,,,,,,8,strong,53.60001224,83.99999481,1,0,0,response1disk,3,159,9.600060415,6.399993658,1,0,0,rectangle,9.600060415,6.399993658,1,0,0,5,0,0.00213,9.600060415,6.399993658,1,0,0,0,158,158,154,1,0,,,,,,,,,,,,,,,,,,,,,
,,,,,,,,,,,,,,,,,,,,,,,,,,,,,,,,,,,,,,,,,,5f5a901b8b9d7015f013b024,606841bbc950b9940bdb75e6,2021-04-03_12h22.00.856,Colour_Similarity_Experiment,2020.2.10,Win32,60,60674ec340277cd6a308bc9f,17.06841637,16.7083552,16.70903605,16.70214379,16.67420918,16.7083552,,,,,,,,,,,,,,,,,,,,PF,strong,3,,,,,,,,2,1.36658,,,,,,,,,,,,,,,,,,,,,,,,,,,,7,strong,-71.99998963,-41.60000706,1,0,0,response5disk,5,160,-9.599988699,15.19999379,1,0,0,rectangle,-9.599988699,15.19999379,1,0,0,5,4,0.00195,-9.599988699,15.19999379,1,0,0,0,159,159,156,1,0,,,,,,,,,,,,,,,,,,,,,
,,,,,,,,,,,,,,,,,,,,,,,,,,,,,,,,,,,,,,,,,,5f5a901b8b9d7015f013b024,606841bbc950b9940bdb75e6,2021-04-03_12h22.00.856,Colour_Similarity_Experiment,2020.2.10,Win32,60,60674ec340277cd6a308bc9f,17.06841637,16.7083552,16.70903605,16.70214379,16.67420918,16.7083552,,,,,,,,,,,,,,,,,,,,PF,weak,3,,,,,,,,7,1.350925,,,,,,,,,,,,,,,,,,,,,,,,,,,,2,weak,94.40001285,111.9999952,1,0,0,response1disk,5,161,3.200011492,15.9999938,1,0,0,rectangle,3.200011492,15.9999938,1,0,0,5,1,0.002165,3.200011492,15.9999938,1,0,0,0,160,160,147,1,0,,,,,,,,,,,,,,,,,,,,,
,,,,,,,,,,,,,,,,,,,,,,,,,,,,,,,,,,,,,,,,,,5f5a901b8b9d7015f013b024,606841bbc950b9940bdb75e6,2021-04-03_12h22.00.856,Colour_Similarity_Experiment,2020.2.10,Win32,60,60674ec340277cd6a308bc9f,17.06841637,16.7083552,16.70903605,16.70214379,16.67420918,16.7083552,,,,,,,,,,,,,,,,,,,,PF,weak,3,,,,,,,,0,0.949505,,,,,,,,,,,,,,,,,,,,,,,,,,,,6,weak,-40.79998916,91.19997051,1,0,0,response7disk,6,162,2.40001148,3.19999361,1,0,0,rectangle,2.40001148,3.19999361,1,0,0,5,3,0.00262,2.40001148,3.19999361,1,0,0,0,161,161,0,1,0,,,,,,,,,,,,,,,,,,,,,
,,,,,,,,,,,,,,,,,,,,,,,,,,,,,,,,,,,,,,,,,,5f5a901b8b9d7015f013b024,606841bbc950b9940bdb75e6,2021-04-03_12h22.00.856,Colour_Similarity_Experiment,2020.2.10,Win32,60,60674ec340277cd6a308bc9f,17.06841637,16.7083552,16.70903605,16.70214379,16.67420918,16.7083552,,,,,,,,,,,,,,,,,,,,,,,,,,,,,,,,,,,,,,,,,,,,,,,,,,,,,,,,,,,,,,,,,,,,,,,,,,,,,,,,,,,,,,,,,,,,,,,,0,0,0,0,1,,,,,,,,,,,,,,
,,,,,,,,,,,,,,,,,,,,,,,,,,,,,,,,,,,,,,,,,,5f5a901b8b9d7015f013b024,606841bbc950b9940bdb75e6,2021-04-03_12h22.00.856,Colour_Similarity_Experiment,2020.2.10,Win32,60,60674ec340277cd6a308bc9f,17.06841637,16.7083552,16.70903605,16.70214379,16.67420918,16.7083552,,,,,,,,,,,,,,,,,,,,PF,weak,3,,,,,,,,7,0.79735,,,,,,,,,,,,,,,,,,,,,,,,,,,,4,weak,34.40001196,87.99999487,1,0,0,response1disk,8,163,12.00001162,-5.600006521,1,0,0,rectangle,12.00001162,-5.600006521,1,0,0,5,6,0.001745,12.00001162,-5.600006521,1,0,0,0,0,0,124,1,0,,,,,,,,,,,,,,,,,,,,,
,,,,,,,,,,,,,,,,,,,,,,,,,,,,,,,,,,,,,,,,,,5f5a901b8b9d7015f013b024,606841bbc950b9940bdb75e6,2021-04-03_12h22.00.856,Colour_Similarity_Experiment,2020.2.10,Win32,60,60674ec340277cd6a308bc9f,17.06841637,16.7083552,16.70903605,16.70214379,16.67420918,16.7083552,,,,,,,,,,,,,,,,,,,,PF,strong,3,,,,,,,,6,1.983405,,,,,,,,,,,,,,,,,,,,,,,,,,,,1,strong,75.20001256,27.19996955,1,0,0,response1disk,3,164,-23.99998891,10.39999372,1,0,0,rectangle,-23.99998891,10.39999372,1,0,0,5,6,0.00023,-23.99998891,10.39999372,1,0,0,0,1,1,99,1,0,,,,,,,,,,,,,,,,,,,,,
,,,,,,,,,,,,,,,,,,,,,,,,,,,,,,,,,,,,,,,,,,5f5a901b8b9d7015f013b024,606841bbc950b9940bdb75e6,2021-04-03_12h22.00.856,Colour_Similarity_Experiment,2020.2.10,Win32,60,60674ec340277cd6a308bc9f,17.06841637,16.7083552,16.70903605,16.70214379,16.67420918,16.7083552,,,,,,,,,,,,,,,,,,,,PF,strong,3,,,,,,,,7,1.230625,,,,,,,,,,,,,,,,,,,,,,,,,,,,2,strong,44.0000121,74.39999467,1,0,0,response1disk,2,165,1.600060296,9.599993706,1,0,0,rectangle,1.600060296,9.599993706,1,0,0,5,0,0.00196,1.600060296,9.599993706,1,0,0,0,2,2,142,1,0,,,,,,,,,,,,,,,,,,,,,
,,,,,,,,,,,,,,,,,,,,,,,,,,,,,,,,,,,,,,,,,,5f5a901b8b9d7015f013b024,606841bbc950b9940bdb75e6,2021-04-03_12h22.00.856,Colour_Similarity_Experiment,2020.2.10,Win32,60,60674ec340277cd6a308bc9f,17.06841637,16.7083552,16.70903605,16.70214379,16.67420918,16.7083552,,,,,,,,,,,,,,,,,,,,PF,strong,3,,,,,,,,7,1.066825,,,,,,,,,,,,,,,,,,,,,,,,,,,,7,strong,47.20001215,73.59999466,1,0,0,response1disk,3,166,16.80001169,3.19999361,1,0,0,rectangle,16.80001169,3.19999361,1,0,0,5,0,0.000365,16.80001169,3.19999361,1,0,0,0,3,3,73,1,0,,,,,,,,,,,,,,,,,,,,,
,,,,,,,,,,,,,,,,,,,,,,,,,,,,,,,,,,,,,,,,,,5f5a901b8b9d7015f013b024,606841bbc950b9940bdb75e6,2021-04-03_12h22.00.856,Colour_Similarity_Experiment,2020.2.10,Win32,60,60674ec340277cd6a308bc9f,17.06841637,16.7083552,16.70903605,16.70214379,16.67420918,16.7083552,,,,,,,,,,,,,,,,,,,,PF,weak,3,,,,,,,,1,1.64889,,,,,,,,,,,,,,,,,,,,,,,,,,,,8,weak,-75.99998969,46.39999425,1,0,0,response7disk,6,167,3.200011492,6.399993658,1,0,0,rectangle,-49.5999893,-87.20000774,1,0,0,3,3,1.93222,-4.799988627,3.19999361,1,0,0,0,4,4,161,1,1,response5disk_3,rectangle,,,,,,,,,,,,,,,,,,,
