key_resp.keys,key_resp.rt,key_resp_16.keys,key_resp_16.rt,key_resp_2.keys,key_resp_2.rt,X Scale,ratio_pxpermm,screen_size_x,screen_size_y,testsize,key_resp_3.keys,key_resp_4.keys,key_resp_4.rt,line_size,key_resp_5.keys,key_resp_5.rt,key_resp_6.keys,key_resp_6.rt,key_resp_8.keys,key_resp_8.rt,key_resp_7.keys,key_resp_7.rt,key_resp_12.keys,key_resp_12.rt,key_resp_11.keys,key_resp_11.rt,key_resp_18.keys,key_resp_18.rt,key_resp_21.keys,key_resp_21.rt,key_resp_13.keys,key_resp_13.rt,key_resp_19.keys,key_resp_19.rt,ballposx,viewer_distance,trials.thisRepN,trials.thisTrialN,trials.thisN,trials.thisIndex,trials.ran,participant,session,date,expName,psychopyVersion,OS,frameRate,study_id,realFrameRate1,realFrameRate2,realFrameRate3,realFrameRate4,realFrameRate5,realFrameRate,viewerdistancecm,DVA_to_distance,radius_F,radius_P,r_F,R_P,key_resp_20.keys,key_resp_14.keys,key_resp_14.rt,key_resp_15.keys,key_resp_15.rt,key_resp_17.keys,key_resp_17.rt,key_resp_9.keys,key_resp_9.rt,key_resp_10.keys,key_resp_10.rt,Colour_1,Ecc,maskCon,mask_frames,mouse_5.x,mouse_5.y,mouse_5.leftButton,mouse_5.midButton,mouse_5.rightButton,mouse_5.clicked_name,Colour_2,similarity,response_time,mouse_10.x,mouse_10.y,mouse_10.leftButton,mouse_10.midButton,mouse_10.rightButton,mouse_10.clicked_name,mouse_7.x,mouse_7.y,mouse_7.leftButton,mouse_7.midButton,mouse_7.rightButton,catchnumberprac,mouse_6.x,mouse_6.y,mouse_6.leftButton,mouse_6.midButton,mouse_6.rightButton,duringprac.thisRepN,duringprac.thisTrialN,duringprac.thisN,duringprac.thisIndex,duringprac.ran,mouse_7.clicked_name,catchprac,mouse_6.clicked_name,key_resp_22.keys,key_resp_22.rt,Colour1,maskCon1,mouse.x,mouse.y,mouse.leftButton,mouse.midButton,mouse.rightButton,mouse.clicked_name,Colour2,trialnumber,mouse_2.x,mouse_2.y,mouse_2.leftButton,mouse_2.midButton,mouse_2.rightButton,mouse_2.clicked_name,mouse_3.x,mouse_3.y,mouse_3.leftButton,mouse_3.midButton,mouse_3.rightButton,catchresponse,catchnumber,response_time_catch,mouse_11.x,mouse_11.y,mouse_11.leftButton,mouse_11.midButton,mouse_11.rightButton,trials_2.thisRepN,trials_2.thisTrialN,trials_2.thisN,trials_2.thisIndex,trials_2.ran,Catch,mouse_3.clicked_name,mouse_11.clicked_name,trials_3.thisRepN,trials_3.thisTrialN,trials_3.thisN,trials_3.thisIndex,trials_3.ran,answer1,rt1,answer2,rt2,answer3,rt3,answer4,rt4,answer5,rt5,answer6,rt6,answer7,rt7
space,4.839335,space,13.019755,space,2.98752,69.4,6.94,276.6570605,155.6195965,1920,,space,0.214635,138.8,space,1.47314,space,1.02597,space,3.20758,space,3.36179,space,5.24267,space,5.2916,space,4.127775,space,4.16002,space,3.555815,return,16.109775,-3660.48,2657.918382,0,0,0,0,1,5fbeeac30413241531d2a6ab,60684145a7ce64b42b4e022e,2021-04-03_12h19.54.928,Colour_Similarity_Experiment,2020.2.10,Win32,60,60674ec340277cd6a308bc9f,6.99747191,6.98131424,6.953184979,7.758333334,6.943804781,6.98131424,,,,,,,,,,,,,,,,,,,,,,,,,,,,,,,,,,,,,,,,,,,,,,,,,,,,,,,,,,,,,,,,,,,,,,,,,,,,,,,,,,,,,,,,,,,,,,,,,,,,,,,,,,,,,,,,,
,,,,,,,,,,,,,,,,,,,,,,,,,,,,,,,,,return,4.012195,-947.52,1029.633676,1,0,1,0,1,5fbeeac30413241531d2a6ab,60684145a7ce64b42b4e022e,2021-04-03_12h19.54.928,Colour_Similarity_Experiment,2020.2.10,Win32,60,60674ec340277cd6a308bc9f,6.99747191,6.98131424,6.953184979,7.758333334,6.943804781,6.98131424,,,,,,,,,,,,,,,,,,,,,,,,,,,,,,,,,,,,,,,,,,,,,,,,,,,,,,,,,,,,,,,,,,,,,,,,,,,,,,,,,,,,,,,,,,,,,,,,,,,,,,,,,,,,,,,,,
,,,,,,,,,,,,,,,,,,,,,,,,,,,,,,,,,return,1.89531,-69.12,502.428968,2,0,2,0,1,5fbeeac30413241531d2a6ab,60684145a7ce64b42b4e022e,2021-04-03_12h19.54.928,Colour_Similarity_Experiment,2020.2.10,Win32,60,60674ec340277cd6a308bc9f,6.99747191,6.98131424,6.953184979,7.758333334,6.943804781,6.98131424,,,,,,,,,,,,,,,,,,,,,,,,,,,,,,,,,,,,,,,,,,,,,,,,,,,,,,,,,,,,,,,,,,,,,,,,,,,,,,,,,,,,,,,,,,,,,,,,,,,,,,,,,,,,,,,,,
,,,,,,,,,,,,,,,,,,,,,,,,,,,,,,,,,return,0.83522,371.52,237.9623438,3,0,3,0,1,5fbeeac30413241531d2a6ab,60684145a7ce64b42b4e022e,2021-04-03_12h19.54.928,Colour_Similarity_Experiment,2020.2.10,Win32,60,60674ec340277cd6a308bc9f,6.99747191,6.98131424,6.953184979,7.758333334,6.943804781,6.98131424,,,,,,,,,,,,,,,,,,,,,,,,,,,,,,,,,,,,,,,,,,,,,,,,,,,,,,,,,,,,,,,,,,,,,,,,,,,,,,,,,,,,,,,,,,,,,,,,,,,,,,,,,,,,,,,,,
,,,,,,,,,,,,,,,,,,,,,,,,,,,,,,,,,return,0.81875,377.28,234.5052637,4,0,4,0,1,5fbeeac30413241531d2a6ab,60684145a7ce64b42b4e022e,2021-04-03_12h19.54.928,Colour_Similarity_Experiment,2020.2.10,Win32,60,60674ec340277cd6a308bc9f,6.99747191,6.98131424,6.953184979,7.758333334,6.943804781,6.98131424,,,,,,,,,,,,,,,,,,,,,,,,,,,,,,,,,,,,,,,,,,,,,,,,,,,,,,,,,,,,,,,,,,,,,,,,,,,,,,,,,,,,,,,,,,,,,,,,,,,,,,,,,,,,,,,,,
,,,,,,,,,,,,,,,,,,,,,,,,,,,,,,,,,,,,,,,,,,5fbeeac30413241531d2a6ab,60684145a7ce64b42b4e022e,2021-04-03_12h19.54.928,Colour_Similarity_Experiment,2020.2.10,Win32,60,60674ec340277cd6a308bc9f,6.99747191,6.98131424,6.953184979,7.758333334,6.943804781,6.98131424,24,4.189214085,43.60971862,290.7314575,29.07314575,130.8291559,,space,6.55419,space,12.15887,space,7.185005,space,1.882185,space,2.19158,7,PF,strong,7,-96,58,1,0,0,response7disk_5,2,1,3.22153,-30,3,1,0,0,rectangle_8,-30,3,1,0,0,3,-30,3,1,0,0,0,0,0,0,1,,,,,,,,,,,,,,,,,,,,,,,,,,,,,,,,,,,,,,,,,,,,,,,,,,,,,,,,,,,,,
,,,,,,,,,,,,,,,,,,,,,,,,,,,,,,,,,,,,,,,,,,5fbeeac30413241531d2a6ab,60684145a7ce64b42b4e022e,2021-04-03_12h19.54.928,Colour_Similarity_Experiment,2020.2.10,Win32,60,60674ec340277cd6a308bc9f,6.99747191,6.98131424,6.953184979,7.758333334,6.943804781,6.98131424,,,,,,,,,,,,,,,,,,4,PF,weak,7,118,-62,1,0,0,response3disk_5,5,5,4.930265,-5,-6,1,0,0,rectangle_8,-49,-115,1,0,0,3,-6,-4,1,0,0,0,1,1,5,1,response5disk_7,3,rectangle_4,,,,,,,,,,,,,,,,,,,,,,,,,,,,,,,,,,,,,,,,,,,,,,,,,,,,,,,,,,
,,,,,,,,,,,,,,,,,,,,,,,,,,,,,,,,,,,,,,,,,,5fbeeac30413241531d2a6ab,60684145a7ce64b42b4e022e,2021-04-03_12h19.54.928,Colour_Similarity_Experiment,2020.2.10,Win32,60,60674ec340277cd6a308bc9f,6.99747191,6.98131424,6.953184979,7.758333334,6.943804781,6.98131424,,,,,,,,,,,,,,,,,,7,PF,strong,7,-47,-109,1,0,0,response5disk_5,4,3,7.632105,-14,-2,1,0,0,rectangle_8,-14,-2,1,0,0,3,-14,-2,1,0,0,0,2,2,2,1,,,,,,,,,,,,,,,,,,,,,,,,,,,,,,,,,,,,,,,,,,,,,,,,,,,,,,,,,,,,,
,,,,,,,,,,,,,,,,,,,,,,,,,,,,,,,,,,,,,,,,,,5fbeeac30413241531d2a6ab,60684145a7ce64b42b4e022e,2021-04-03_12h19.54.928,Colour_Similarity_Experiment,2020.2.10,Win32,60,60674ec340277cd6a308bc9f,6.99747191,6.98131424,6.953184979,7.758333334,6.943804781,6.98131424,,,,,,,,,,,,,,,,,,2,PF,weak,7,65,85,1,0,0,response1disk_5,4,7,3.993175,3,-7,1,0,0,rectangle_8,3,-7,1,0,0,3,3,-7,1,0,0,0,3,3,1,1,,,,,,,,,,,,,,,,,,,,,,,,,,,,,,,,,,,,,,,,,,,,,,,,,,,,,,,,,,,,,
,,,,,,,,,,,,,,,,,,,,,,,,,,,,,,,,,,,,,,,,,,5fbeeac30413241531d2a6ab,60684145a7ce64b42b4e022e,2021-04-03_12h19.54.928,Colour_Similarity_Experiment,2020.2.10,Win32,60,60674ec340277cd6a308bc9f,6.99747191,6.98131424,6.953184979,7.758333334,6.943804781,6.98131424,,,,,,,,,,,,,,,,,,1,PF,weak,7,85,47,1,0,0,response1disk_5,2,6,6.643865,-3,7,1,0,0,rectangle_8,-57,-113,1,0,0,3,8,5,1,0,0,0,4,4,6,1,response5disk_7,3,rectangle_4,,,,,,,,,,,,,,,,,,,,,,,,,,,,,,,,,,,,,,,,,,,,,,,,,,,,,,,,,,
,,,,,,,,,,,,,,,,,,,,,,,,,,,,,,,,,,,,,,,,,,5fbeeac30413241531d2a6ab,60684145a7ce64b42b4e022e,2021-04-03_12h19.54.928,Colour_Similarity_Experiment,2020.2.10,Win32,60,60674ec340277cd6a308bc9f,6.99747191,6.98131424,6.953184979,7.758333334,6.943804781,6.98131424,,,,,,,,,,,,,,,,,,2,PF,strong,7,75,-45,1,0,0,response3disk_5,5,5,4.553605,4,-1,1,0,0,rectangle_8,4,-1,1,0,0,3,4,-1,1,0,0,0,5,5,3,1,,,,,,,,,,,,,,,,,,,,,,,,,,,,,,,,,,,,,,,,,,,,,,,,,,,,,,,,,,,,,
,,,,,,,,,,,,,,,,,,,,,,,,,,,,,,,,,,,,,,,,,,5fbeeac30413241531d2a6ab,60684145a7ce64b42b4e022e,2021-04-03_12h19.54.928,Colour_Similarity_Experiment,2020.2.10,Win32,60,60674ec340277cd6a308bc9f,6.99747191,6.98131424,6.953184979,7.758333334,6.943804781,6.98131424,,,,,,,,,,,,,,,,,,1,PF,weak,7,41,91,1,0,0,response1disk_5,3,7,2.129835,-4,-18,1,0,0,rectangle_8,-4,-18,1,0,0,3,-4,-18,1,0,0,0,6,6,4,1,,,,,,,,,,,,,,,,,,,,,,,,,,,,,,,,,,,,,,,,,,,,,,,,,,,,,,,,,,,,,
,,,,,,,,,,,,,,,,,,,,,,,,,,,,,,,,,,,,,,,,,,5fbeeac30413241531d2a6ab,60684145a7ce64b42b4e022e,2021-04-03_12h19.54.928,Colour_Similarity_Experiment,2020.2.10,Win32,60,60674ec340277cd6a308bc9f,6.99747191,6.98131424,6.953184979,7.758333334,6.943804781,6.98131424,,,,,,,,,,,,,,,,,,,PF,strong,7,,,,,,,,0,2.281905,,,,,,,,,,,,,,,,,,,,,,,,,,space,4.92744,4,strong,-52,117,1,0,0,response7disk,6,1,-24,5,1,0,0,rectangle,-24,5,1,0,0,,5,0.000785,-24,5,1,0,0,0,0,0,122,1,0,,,,,,,,,,,,,,,,,,,,,
,,,,,,,,,,,,,,,,,,,,,,,,,,,,,,,,,,,,,,,,,,5fbeeac30413241531d2a6ab,60684145a7ce64b42b4e022e,2021-04-03_12h19.54.928,Colour_Similarity_Experiment,2020.2.10,Win32,60,60674ec340277cd6a308bc9f,6.99747191,6.98131424,6.953184979,7.758333334,6.943804781,6.98131424,,,,,,,,,,,,,,,,,,,PF,weak,7,,,,,,,,0,4.102025,,,,,,,,,,,,,,,,,,,,,,,,,,,,7,weak,-59,120,1,0,0,response7disk,6,2,-18,5,1,0,0,rectangle,-18,5,1,0,0,,5,8.5E-05,-18,5,1,0,0,0,1,1,29,1,0,,,,,,,,,,,,,,,,,,,,,
,,,,,,,,,,,,,,,,,,,,,,,,,,,,,,,,,,,,,,,,,,5fbeeac30413241531d2a6ab,60684145a7ce64b42b4e022e,2021-04-03_12h19.54.928,Colour_Similarity_Experiment,2020.2.10,Win32,60,60674ec340277cd6a308bc9f,6.99747191,6.98131424,6.953184979,7.758333334,6.943804781,6.98131424,,,,,,,,,,,,,,,,,,,PF,strong,7,,,,,,,,4,3.527655,,,,,,,,,,,,,,,,,,,,,,,,,,,,8,strong,56,-125,1,0,0,response3disk,4,3,8,-1,1,0,0,rectangle,8,-1,1,0,0,,2,0.00104,8,-1,1,0,0,0,2,2,88,1,0,,,,,,,,,,,,,,,,,,,,,
,,,,,,,,,,,,,,,,,,,,,,,,,,,,,,,,,,,,,,,,,,5fbeeac30413241531d2a6ab,60684145a7ce64b42b4e022e,2021-04-03_12h19.54.928,Colour_Similarity_Experiment,2020.2.10,Win32,60,60674ec340277cd6a308bc9f,6.99747191,6.98131424,6.953184979,7.758333334,6.943804781,6.98131424,,,,,,,,,,,,,,,,,,,PF,strong,7,,,,,,,,7,1.33115,,,,,,,,,,,,,,,,,,,,,,,,,,,,9,strong,40,92,1,0,0,response1disk,4,4,-11,-15,1,0,0,rectangle,-11,-15,1,0,0,,5,0.00045,-11,-15,1,0,0,0,3,3,60,1,0,,,,,,,,,,,,,,,,,,,,,
,,,,,,,,,,,,,,,,,,,,,,,,,,,,,,,,,,,,,,,,,,5fbeeac30413241531d2a6ab,60684145a7ce64b42b4e022e,2021-04-03_12h19.54.928,Colour_Similarity_Experiment,2020.2.10,Win32,60,60674ec340277cd6a308bc9f,6.99747191,6.98131424,6.953184979,7.758333334,6.943804781,6.98131424,,,,,,,,,,,,,,,,,,,PF,strong,7,,,,,,,,7,1.50668,,,,,,,,,,,,,,,,,,,,,,,,,,,,8,strong,57,114,1,0,0,response1disk,1,5,-7,-21,1,0,0,rectangle,-7,-21,1,0,0,,0,0.00044,-7,-21,1,0,0,0,4,4,20,1,0,,,,,,,,,,,,,,,,,,,,,
,,,,,,,,,,,,,,,,,,,,,,,,,,,,,,,,,,,,,,,,,,5fbeeac30413241531d2a6ab,60684145a7ce64b42b4e022e,2021-04-03_12h19.54.928,Colour_Similarity_Experiment,2020.2.10,Win32,60,60674ec340277cd6a308bc9f,6.99747191,6.98131424,6.953184979,7.758333334,6.943804781,6.98131424,,,,,,,,,,,,,,,,,,,PF,strong,7,,,,,,,,7,3.666295,,,,,,,,,,,,,,,,,,,,,,,,,,,,5,strong,55,109,1,0,0,response1disk,3,6,-19,-1,1,0,0,rectangle,-19,-1,1,0,0,,1,0.00044,-19,-1,1,0,0,0,5,5,25,1,0,,,,,,,,,,,,,,,,,,,,,
,,,,,,,,,,,,,,,,,,,,,,,,,,,,,,,,,,,,,,,,,,5fbeeac30413241531d2a6ab,60684145a7ce64b42b4e022e,2021-04-03_12h19.54.928,Colour_Similarity_Experiment,2020.2.10,Win32,60,60674ec340277cd6a308bc9f,6.99747191,6.98131424,6.953184979,7.758333334,6.943804781,6.98131424,,,,,,,,,,,,,,,,,,,PF,strong,7,,,,,,,,0,1.520595,,,,,,,,,,,,,,,,,,,,,,,,,,,,9,strong,-61,103,1,0,0,response7disk,8,7,-12,-5,1,0,0,rectangle,-12,-5,1,0,0,,6,0.00045,-12,-5,1,0,0,0,6,6,6,1,0,,,,,,,,,,,,,,,,,,,,,
,,,,,,,,,,,,,,,,,,,,,,,,,,,,,,,,,,,,,,,,,,5fbeeac30413241531d2a6ab,60684145a7ce64b42b4e022e,2021-04-03_12h19.54.928,Colour_Similarity_Experiment,2020.2.10,Win32,60,60674ec340277cd6a308bc9f,6.99747191,6.98131424,6.953184979,7.758333334,6.943804781,6.98131424,,,,,,,,,,,,,,,,,,,PF,weak,7,,,,,,,,7,1.85904,,,,,,,,,,,,,,,,,,,,,,,,,,,,3,weak,40,99,1,0,0,response1disk,8,8,-10,-10,1,0,0,rectangle,-10,-10,1,0,0,,5,0.00043,-10,-10,1,0,0,0,7,7,3,1,0,,,,,,,,,,,,,,,,,,,,,
,,,,,,,,,,,,,,,,,,,,,,,,,,,,,,,,,,,,,,,,,,5fbeeac30413241531d2a6ab,60684145a7ce64b42b4e022e,2021-04-03_12h19.54.928,Colour_Similarity_Experiment,2020.2.10,Win32,60,60674ec340277cd6a308bc9f,6.99747191,6.98131424,6.953184979,7.758333334,6.943804781,6.98131424,,,,,,,,,,,,,,,,,,,PF,strong,7,,,,,,,,3,1.6368,,,,,,,,,,,,,,,,,,,,,,,,,,,,1,strong,-39,-99,1,0,0,response5disk,3,9,13,17,1,0,0,rectangle,13,17,1,0,0,,4,0.000445,13,17,1,0,0,0,8,8,99,1,0,,,,,,,,,,,,,,,,,,,,,
,,,,,,,,,,,,,,,,,,,,,,,,,,,,,,,,,,,,,,,,,,5fbeeac30413241531d2a6ab,60684145a7ce64b42b4e022e,2021-04-03_12h19.54.928,Colour_Similarity_Experiment,2020.2.10,Win32,60,60674ec340277cd6a308bc9f,6.99747191,6.98131424,6.953184979,7.758333334,6.943804781,6.98131424,,,,,,,,,,,,,,,,,,,PF,weak,7,,,,,,,,3,1.451285,,,,,,,,,,,,,,,,,,,,,,,,,,,,9,weak,-53,-112,1,0,0,response5disk,1,10,19,8,1,0,0,rectangle,19,8,1,0,0,,2,0.000445,19,8,1,0,0,0,9,9,74,1,0,,,,,,,,,,,,,,,,,,,,,
,,,,,,,,,,,,,,,,,,,,,,,,,,,,,,,,,,,,,,,,,,5fbeeac30413241531d2a6ab,60684145a7ce64b42b4e022e,2021-04-03_12h19.54.928,Colour_Similarity_Experiment,2020.2.10,Win32,60,60674ec340277cd6a308bc9f,6.99747191,6.98131424,6.953184979,7.758333334,6.943804781,6.98131424,,,,,,,,,,,,,,,,,,,PF,weak,7,,,,,,,,7,1.80338,,,,,,,,,,,,,,,,,,,,,,,,,,,,4,weak,53,90,1,0,0,response1disk,2,11,1,-2,1,0,0,rectangle,1,-2,1,0,0,,4,0.00044,1,-2,1,0,0,0,10,10,108,1,0,,,,,,,,,,,,,,,,,,,,,
,,,,,,,,,,,,,,,,,,,,,,,,,,,,,,,,,,,,,,,,,,5fbeeac30413241531d2a6ab,60684145a7ce64b42b4e022e,2021-04-03_12h19.54.928,Colour_Similarity_Experiment,2020.2.10,Win32,60,60674ec340277cd6a308bc9f,6.99747191,6.98131424,6.953184979,7.758333334,6.943804781,6.98131424,,,,,,,,,,,,,,,,,,,PF,strong,7,,,,,,,,7,3.956245,,,,,,,,,,,,,,,,,,,,,,,,,,,,2,strong,78,109,1,0,0,response1disk,8,12,17,-14,1,0,0,rectangle,17,-14,1,0,0,,4,6E-05,17,-14,1,0,0,0,11,11,62,1,0,,,,,,,,,,,,,,,,,,,,,
,,,,,,,,,,,,,,,,,,,,,,,,,,,,,,,,,,,,,,,,,,5fbeeac30413241531d2a6ab,60684145a7ce64b42b4e022e,2021-04-03_12h19.54.928,Colour_Similarity_Experiment,2020.2.10,Win32,60,60674ec340277cd6a308bc9f,6.99747191,6.98131424,6.953184979,7.758333334,6.943804781,6.98131424,,,,,,,,,,,,,,,,,,,PF,strong,7,,,,,,,,7,1.518665,,,,,,,,,,,,,,,,,,,,,,,,,,,,5,strong,43,96,1,0,0,response1disk,5,13,-11,-20,1,0,0,rectangle,-11,-20,1,0,0,,1,0.00043,-11,-20,1,0,0,0,12,12,19,1,0,,,,,,,,,,,,,,,,,,,,,
,,,,,,,,,,,,,,,,,,,,,,,,,,,,,,,,,,,,,,,,,,5fbeeac30413241531d2a6ab,60684145a7ce64b42b4e022e,2021-04-03_12h19.54.928,Colour_Similarity_Experiment,2020.2.10,Win32,60,60674ec340277cd6a308bc9f,6.99747191,6.98131424,6.953184979,7.758333334,6.943804781,6.98131424,,,,,,,,,,,,,,,,,,,PF,weak,7,,,,,,,,3,1.353975,,,,,,,,,,,,,,,,,,,,,,,,,,,,3,weak,-53,-111,1,0,0,response5disk,5,14,13,4,1,0,0,rectangle,13,4,1,0,0,,4,0.000435,13,4,1,0,0,0,13,13,66,1,0,,,,,,,,,,,,,,,,,,,,,
,,,,,,,,,,,,,,,,,,,,,,,,,,,,,,,,,,,,,,,,,,5fbeeac30413241531d2a6ab,60684145a7ce64b42b4e022e,2021-04-03_12h19.54.928,Colour_Similarity_Experiment,2020.2.10,Win32,60,60674ec340277cd6a308bc9f,6.99747191,6.98131424,6.953184979,7.758333334,6.943804781,6.98131424,,,,,,,,,,,,,,,,,,,PF,weak,7,,,,,,,,3,1.409505,,,,,,,,,,,,,,,,,,,,,,,,,,,,1,weak,-51,-101,1,0,0,response5disk,2,15,15,17,1,0,0,rectangle,15,17,1,0,0,,3,0.00044,15,17,1,0,0,0,14,14,24,1,0,,,,,,,,,,,,,,,,,,,,,
,,,,,,,,,,,,,,,,,,,,,,,,,,,,,,,,,,,,,,,,,,5fbeeac30413241531d2a6ab,60684145a7ce64b42b4e022e,2021-04-03_12h19.54.928,Colour_Similarity_Experiment,2020.2.10,Win32,60,60674ec340277cd6a308bc9f,6.99747191,6.98131424,6.953184979,7.758333334,6.943804781,6.98131424,,,,,,,,,,,,,,,,,,,PF,weak,7,,,,,,,,7,2.011705,,,,,,,,,,,,,,,,,,,,,,,,,,,,2,weak,48,95,1,0,0,response1disk,9,16,-14,-6,1,0,0,rectangle,-14,-6,1,0,0,,4,0.000435,-14,-6,1,0,0,0,15,15,39,1,0,,,,,,,,,,,,,,,,,,,,,
,,,,,,,,,,,,,,,,,,,,,,,,,,,,,,,,,,,,,,,,,,5fbeeac30413241531d2a6ab,60684145a7ce64b42b4e022e,2021-04-03_12h19.54.928,Colour_Similarity_Experiment,2020.2.10,Win32,60,60674ec340277cd6a308bc9f,6.99747191,6.98131424,6.953184979,7.758333334,6.943804781,6.98131424,,,,,,,,,,,,,,,,,,,PF,strong,7,,,,,,,,7,1.039455,,,,,,,,,,,,,,,,,,,,,,,,,,,,7,strong,49,89,1,0,0,response1disk,7,17,-10,-13,1,0,0,rectangle,-10,-13,1,0,0,,7,0.000445,-10,-13,1,0,0,0,16,16,34,1,0,,,,,,,,,,,,,,,,,,,,,
,,,,,,,,,,,,,,,,,,,,,,,,,,,,,,,,,,,,,,,,,,5fbeeac30413241531d2a6ab,60684145a7ce64b42b4e022e,2021-04-03_12h19.54.928,Colour_Similarity_Experiment,2020.2.10,Win32,60,60674ec340277cd6a308bc9f,6.99747191,6.98131424,6.953184979,7.758333334,6.943804781,6.98131424,,,,,,,,,,,,,,,,,,,PF,weak,7,,,,,,,,7,3.76173,,,,,,,,,,,,,,,,,,,,,,,,,,,,9,weak,58,98,1,0,0,response1disk,3,18,12,-2,1,0,0,rectangle,12,-2,1,0,0,,5,0.00043,12,-2,1,0,0,0,17,17,119,1,0,,,,,,,,,,,,,,,,,,,,,
,,,,,,,,,,,,,,,,,,,,,,,,,,,,,,,,,,,,,,,,,,5fbeeac30413241531d2a6ab,60684145a7ce64b42b4e022e,2021-04-03_12h19.54.928,Colour_Similarity_Experiment,2020.2.10,Win32,60,60674ec340277cd6a308bc9f,6.99747191,6.98131424,6.953184979,7.758333334,6.943804781,6.98131424,,,,,,,,,,,,,,,,,,,PF,weak,7,,,,,,,,7,2.504825,,,,,,,,,,,,,,,,,,,,,,,,,,,,2,weak,52,106,1,0,0,response1disk,4,19,-7,-16,1,0,0,rectangle,-7,-16,1,0,0,,6,0.00048,-7,-16,1,0,0,0,18,18,127,1,0,,,,,,,,,,,,,,,,,,,,,
,,,,,,,,,,,,,,,,,,,,,,,,,,,,,,,,,,,,,,,,,,5fbeeac30413241531d2a6ab,60684145a7ce64b42b4e022e,2021-04-03_12h19.54.928,Colour_Similarity_Experiment,2020.2.10,Win32,60,60674ec340277cd6a308bc9f,6.99747191,6.98131424,6.953184979,7.758333334,6.943804781,6.98131424,,,,,,,,,,,,,,,,,,,PF,weak,7,,,,,,,,4,1.27563,,,,,,,,,,,,,,,,,,,,,,,,,,,,1,weak,22,-118,1,0,0,response3disk,9,20,15,2,1,0,0,rectangle,15,2,1,0,0,,4,0.000445,15,2,1,0,0,0,19,19,15,1,0,,,,,,,,,,,,,,,,,,,,,
,,,,,,,,,,,,,,,,,,,,,,,,,,,,,,,,,,,,,,,,,,5fbeeac30413241531d2a6ab,60684145a7ce64b42b4e022e,2021-04-03_12h19.54.928,Colour_Similarity_Experiment,2020.2.10,Win32,60,60674ec340277cd6a308bc9f,6.99747191,6.98131424,6.953184979,7.758333334,6.943804781,6.98131424,,,,,,,,,,,,,,,,,,,PF,weak,7,,,,,,,,7,2.073785,,,,,,,,,,,,,,,,,,,,,,,,,,,,9,weak,59,126,1,0,0,response1disk,4,21,-16,-6,1,0,0,rectangle,-16,-6,1,0,0,,3,0.000425,-16,-6,1,0,0,0,20,20,114,1,0,,,,,,,,,,,,,,,,,,,,,
,,,,,,,,,,,,,,,,,,,,,,,,,,,,,,,,,,,,,,,,,,5fbeeac30413241531d2a6ab,60684145a7ce64b42b4e022e,2021-04-03_12h19.54.928,Colour_Similarity_Experiment,2020.2.10,Win32,60,60674ec340277cd6a308bc9f,6.99747191,6.98131424,6.953184979,7.758333334,6.943804781,6.98131424,,,,,,,,,,,,,,,,,,,PF,weak,7,,,,,,,,3,1.486015,,,,,,,,,,,,,,,,,,,,,,,,,,,,5,weak,-50,-102,1,0,0,response5disk,5,22,13,18,1,0,0,rectangle,13,18,1,0,0,,3,7E-05,13,18,1,0,0,0,21,21,94,1,0,,,,,,,,,,,,,,,,,,,,,
,,,,,,,,,,,,,,,,,,,,,,,,,,,,,,,,,,,,,,,,,,5fbeeac30413241531d2a6ab,60684145a7ce64b42b4e022e,2021-04-03_12h19.54.928,Colour_Similarity_Experiment,2020.2.10,Win32,60,60674ec340277cd6a308bc9f,6.99747191,6.98131424,6.953184979,7.758333334,6.943804781,6.98131424,,,,,,,,,,,,,,,,,,,PF,strong,7,,,,,,,,7,1.770575,,,,,,,,,,,,,,,,,,,,,,,,,,,,2,strong,55,93,1,0,0,response1disk,3,23,-4,-11,1,0,0,rectangle,-99,41,1,0,0,1,1,2.11852,-22,-1,1,0,0,0,22,22,104,1,1,response7disk_3,rectangle,,,,,,,,,,,,,,,,,,,
,,,,,,,,,,,,,,,,,,,,,,,,,,,,,,,,,,,,,,,,,,5fbeeac30413241531d2a6ab,60684145a7ce64b42b4e022e,2021-04-03_12h19.54.928,Colour_Similarity_Experiment,2020.2.10,Win32,60,60674ec340277cd6a308bc9f,6.99747191,6.98131424,6.953184979,7.758333334,6.943804781,6.98131424,,,,,,,,,,,,,,,,,,,PF,strong,7,,,,,,,,7,1.44888,,,,,,,,,,,,,,,,,,,,,,,,,,,,1,strong,39,86,1,0,0,response1disk,6,24,3,11,1,0,0,rectangle,3,11,1,0,0,1,0,0.000465,3,11,1,0,0,0,23,23,58,1,0,,,,,,,,,,,,,,,,,,,,,
,,,,,,,,,,,,,,,,,,,,,,,,,,,,,,,,,,,,,,,,,,5fbeeac30413241531d2a6ab,60684145a7ce64b42b4e022e,2021-04-03_12h19.54.928,Colour_Similarity_Experiment,2020.2.10,Win32,60,60674ec340277cd6a308bc9f,6.99747191,6.98131424,6.953184979,7.758333334,6.943804781,6.98131424,,,,,,,,,,,,,,,,,,,PF,strong,7,,,,,,,,7,1.275555,,,,,,,,,,,,,,,,,,,,,,,,,,,,6,strong,52,82,1,0,0,response1disk,8,25,-2,-12,1,0,0,rectangle,-2,-12,1,0,0,1,0,7E-05,-2,-12,1,0,0,0,24,24,133,1,0,,,,,,,,,,,,,,,,,,,,,
,,,,,,,,,,,,,,,,,,,,,,,,,,,,,,,,,,,,,,,,,,5fbeeac30413241531d2a6ab,60684145a7ce64b42b4e022e,2021-04-03_12h19.54.928,Colour_Similarity_Experiment,2020.2.10,Win32,60,60674ec340277cd6a308bc9f,6.99747191,6.98131424,6.953184979,7.758333334,6.943804781,6.98131424,,,,,,,,,,,,,,,,,,,PF,strong,7,,,,,,,,7,1.400615,,,,,,,,,,,,,,,,,,,,,,,,,,,,9,strong,40,83,1,0,0,response1disk,3,26,-8,-2,1,0,0,rectangle,-8,-2,1,0,0,1,6,0.00045,-8,-2,1,0,0,0,25,25,141,1,0,,,,,,,,,,,,,,,,,,,,,
,,,,,,,,,,,,,,,,,,,,,,,,,,,,,,,,,,,,,,,,,,5fbeeac30413241531d2a6ab,60684145a7ce64b42b4e022e,2021-04-03_12h19.54.928,Colour_Similarity_Experiment,2020.2.10,Win32,60,60674ec340277cd6a308bc9f,6.99747191,6.98131424,6.953184979,7.758333334,6.943804781,6.98131424,,,,,,,,,,,,,,,,,,,PF,weak,7,,,,,,,,3,2.76875,,,,,,,,,,,,,,,,,,,,,,,,,,,,9,weak,-58,-121,1,0,0,response5disk,2,27,-5,7,1,0,0,rectangle,-5,7,1,0,0,1,6,6E-05,-5,7,1,0,0,0,26,26,157,1,0,,,,,,,,,,,,,,,,,,,,,
,,,,,,,,,,,,,,,,,,,,,,,,,,,,,,,,,,,,,,,,,,5fbeeac30413241531d2a6ab,60684145a7ce64b42b4e022e,2021-04-03_12h19.54.928,Colour_Similarity_Experiment,2020.2.10,Win32,60,60674ec340277cd6a308bc9f,6.99747191,6.98131424,6.953184979,7.758333334,6.943804781,6.98131424,,,,,,,,,,,,,,,,,,,PF,weak,7,,,,,,,,7,1.17838,,,,,,,,,,,,,,,,,,,,,,,,,,,,3,weak,70,92,1,0,0,response1disk,7,28,2,-17,1,0,0,rectangle,2,-17,1,0,0,1,3,0.000445,2,-17,1,0,0,0,27,27,41,1,0,,,,,,,,,,,,,,,,,,,,,
,,,,,,,,,,,,,,,,,,,,,,,,,,,,,,,,,,,,,,,,,,5fbeeac30413241531d2a6ab,60684145a7ce64b42b4e022e,2021-04-03_12h19.54.928,Colour_Similarity_Experiment,2020.2.10,Win32,60,60674ec340277cd6a308bc9f,6.99747191,6.98131424,6.953184979,7.758333334,6.943804781,6.98131424,,,,,,,,,,,,,,,,,,,PF,strong,7,,,,,,,,7,0.963115,,,,,,,,,,,,,,,,,,,,,,,,,,,,8,strong,48,91,1,0,0,response1disk,6,29,1,-7,1,0,0,rectangle,1,-7,1,0,0,1,2,0.000415,1,-7,1,0,0,0,28,28,37,1,0,,,,,,,,,,,,,,,,,,,,,
,,,,,,,,,,,,,,,,,,,,,,,,,,,,,,,,,,,,,,,,,,5fbeeac30413241531d2a6ab,60684145a7ce64b42b4e022e,2021-04-03_12h19.54.928,Colour_Similarity_Experiment,2020.2.10,Win32,60,60674ec340277cd6a308bc9f,6.99747191,6.98131424,6.953184979,7.758333334,6.943804781,6.98131424,,,,,,,,,,,,,,,,,,,PF,weak,7,,,,,,,,7,1.673425,,,,,,,,,,,,,,,,,,,,,,,,,,,,8,weak,48,80,1,0,0,response1disk,3,30,8,-16,1,0,0,rectangle,8,-16,1,0,0,1,0,0.00043,8,-16,1,0,0,0,29,29,71,1,0,,,,,,,,,,,,,,,,,,,,,
,,,,,,,,,,,,,,,,,,,,,,,,,,,,,,,,,,,,,,,,,,5fbeeac30413241531d2a6ab,60684145a7ce64b42b4e022e,2021-04-03_12h19.54.928,Colour_Similarity_Experiment,2020.2.10,Win32,60,60674ec340277cd6a308bc9f,6.99747191,6.98131424,6.953184979,7.758333334,6.943804781,6.98131424,,,,,,,,,,,,,,,,,,,PF,strong,7,,,,,,,,7,1.09507,,,,,,,,,,,,,,,,,,,,,,,,,,,,4,strong,37,78,1,0,0,response1disk,3,31,5,2,1,0,0,rectangle,5,2,1,0,0,1,7,0.000805,5,2,1,0,0,0,30,30,77,1,0,,,,,,,,,,,,,,,,,,,,,
,,,,,,,,,,,,,,,,,,,,,,,,,,,,,,,,,,,,,,,,,,5fbeeac30413241531d2a6ab,60684145a7ce64b42b4e022e,2021-04-03_12h19.54.928,Colour_Similarity_Experiment,2020.2.10,Win32,60,60674ec340277cd6a308bc9f,6.99747191,6.98131424,6.953184979,7.758333334,6.943804781,6.98131424,,,,,,,,,,,,,,,,,,,PF,strong,7,,,,,,,,7,0.90963,,,,,,,,,,,,,,,,,,,,,,,,,,,,5,strong,37,80,1,0,0,response1disk,8,32,8,3,1,0,0,rectangle,8,3,1,0,0,1,6,0.000435,8,3,1,0,0,0,31,31,16,1,0,,,,,,,,,,,,,,,,,,,,,
,,,,,,,,,,,,,,,,,,,,,,,,,,,,,,,,,,,,,,,,,,5fbeeac30413241531d2a6ab,60684145a7ce64b42b4e022e,2021-04-03_12h19.54.928,Colour_Similarity_Experiment,2020.2.10,Win32,60,60674ec340277cd6a308bc9f,6.99747191,6.98131424,6.953184979,7.758333334,6.943804781,6.98131424,,,,,,,,,,,,,,,,,,,PF,strong,7,,,,,,,,7,0.94219,,,,,,,,,,,,,,,,,,,,,,,,,,,,1,strong,46,69,1,0,0,response1disk,2,33,7,-3,1,0,0,rectangle,7,-3,1,0,0,1,2,0.000425,7,-3,1,0,0,0,32,32,2,1,0,,,,,,,,,,,,,,,,,,,,,
,,,,,,,,,,,,,,,,,,,,,,,,,,,,,,,,,,,,,,,,,,5fbeeac30413241531d2a6ab,60684145a7ce64b42b4e022e,2021-04-03_12h19.54.928,Colour_Similarity_Experiment,2020.2.10,Win32,60,60674ec340277cd6a308bc9f,6.99747191,6.98131424,6.953184979,7.758333334,6.943804781,6.98131424,,,,,,,,,,,,,,,,,,,PF,weak,7,,,,,,,,7,3.27751,,,,,,,,,,,,,,,,,,,,,,,,,,,,8,weak,39,85,1,0,0,response1disk,4,34,5,3,1,0,0,rectangle,5,3,1,0,0,1,3,0.000425,5,3,1,0,0,0,33,33,78,1,0,,,,,,,,,,,,,,,,,,,,,
,,,,,,,,,,,,,,,,,,,,,,,,,,,,,,,,,,,,,,,,,,5fbeeac30413241531d2a6ab,60684145a7ce64b42b4e022e,2021-04-03_12h19.54.928,Colour_Similarity_Experiment,2020.2.10,Win32,60,60674ec340277cd6a308bc9f,6.99747191,6.98131424,6.953184979,7.758333334,6.943804781,6.98131424,,,,,,,,,,,,,,,,,,,PF,strong,7,,,,,,,,7,3.213115,,,,,,,,,,,,,,,,,,,,,,,,,,,,5,strong,60,93,1,0,0,response1disk,7,35,25,9,1,0,0,rectangle,25,9,1,0,0,1,1,0.00044,25,9,1,0,0,0,34,34,7,1,0,,,,,,,,,,,,,,,,,,,,,
,,,,,,,,,,,,,,,,,,,,,,,,,,,,,,,,,,,,,,,,,,5fbeeac30413241531d2a6ab,60684145a7ce64b42b4e022e,2021-04-03_12h19.54.928,Colour_Similarity_Experiment,2020.2.10,Win32,60,60674ec340277cd6a308bc9f,6.99747191,6.98131424,6.953184979,7.758333334,6.943804781,6.98131424,,,,,,,,,,,,,,,,,,,PF,strong,7,,,,,,,,3,1.56729,,,,,,,,,,,,,,,,,,,,,,,,,,,,3,strong,-41,-116,1,0,0,response5disk,5,36,26,8,1,0,0,rectangle,26,8,1,0,0,1,1,6E-05,26,8,1,0,0,0,35,35,101,1,0,,,,,,,,,,,,,,,,,,,,,
,,,,,,,,,,,,,,,,,,,,,,,,,,,,,,,,,,,,,,,,,,5fbeeac30413241531d2a6ab,60684145a7ce64b42b4e022e,2021-04-03_12h19.54.928,Colour_Similarity_Experiment,2020.2.10,Win32,60,60674ec340277cd6a308bc9f,6.99747191,6.98131424,6.953184979,7.758333334,6.943804781,6.98131424,,,,,,,,,,,,,,,,,,,PF,weak,7,,,,,,,,0,1.96315,,,,,,,,,,,,,,,,,,,,,,,,,,,,5,weak,-38,97,1,0,0,response7disk,4,37,-23,-7,1,0,0,rectangle,-23,-7,1,0,0,1,2,0.00043,-23,-7,1,0,0,0,36,36,54,1,0,,,,,,,,,,,,,,,,,,,,,
,,,,,,,,,,,,,,,,,,,,,,,,,,,,,,,,,,,,,,,,,,5fbeeac30413241531d2a6ab,60684145a7ce64b42b4e022e,2021-04-03_12h19.54.928,Colour_Similarity_Experiment,2020.2.10,Win32,60,60674ec340277cd6a308bc9f,6.99747191,6.98131424,6.953184979,7.758333334,6.943804781,6.98131424,,,,,,,,,,,,,,,,,,,PF,weak,7,,,,,,,,7,1.10184,,,,,,,,,,,,,,,,,,,,,,,,,,,,7,weak,60,128,1,0,0,response1disk,5,38,8,9,1,0,0,rectangle,8,9,1,0,0,1,5,0.00042,8,9,1,0,0,0,37,37,92,1,0,,,,,,,,,,,,,,,,,,,,,
,,,,,,,,,,,,,,,,,,,,,,,,,,,,,,,,,,,,,,,,,,5fbeeac30413241531d2a6ab,60684145a7ce64b42b4e022e,2021-04-03_12h19.54.928,Colour_Similarity_Experiment,2020.2.10,Win32,60,60674ec340277cd6a308bc9f,6.99747191,6.98131424,6.953184979,7.758333334,6.943804781,6.98131424,,,,,,,,,,,,,,,,,,,PF,strong,7,,,,,,,,7,1.074335,,,,,,,,,,,,,,,,,,,,,,,,,,,,8,strong,45,90,1,0,0,response1disk,2,39,2,-7,1,0,0,rectangle,2,-7,1,0,0,1,0,0.00048,2,-7,1,0,0,0,38,38,22,1,0,,,,,,,,,,,,,,,,,,,,,
,,,,,,,,,,,,,,,,,,,,,,,,,,,,,,,,,,,,,,,,,,5fbeeac30413241531d2a6ab,60684145a7ce64b42b4e022e,2021-04-03_12h19.54.928,Colour_Similarity_Experiment,2020.2.10,Win32,60,60674ec340277cd6a308bc9f,6.99747191,6.98131424,6.953184979,7.758333334,6.943804781,6.98131424,,,,,,,,,,,,,,,,,,,PF,weak,7,,,,,,,,0,1.354025,,,,,,,,,,,,,,,,,,,,,,,,,,,,2,weak,-39,103,1,0,0,response7disk,2,40,-7,8,1,0,0,rectangle,-7,8,1,0,0,1,2,0.00043,-7,8,1,0,0,0,39,39,14,1,0,,,,,,,,,,,,,,,,,,,,,
,,,,,,,,,,,,,,,,,,,,,,,,,,,,,,,,,,,,,,,,,,5fbeeac30413241531d2a6ab,60684145a7ce64b42b4e022e,2021-04-03_12h19.54.928,Colour_Similarity_Experiment,2020.2.10,Win32,60,60674ec340277cd6a308bc9f,6.99747191,6.98131424,6.953184979,7.758333334,6.943804781,6.98131424,,,,,,,,,,,,,,,,,,,PF,strong,7,,,,,,,,0,1.442345,,,,,,,,,,,,,,,,,,,,,,,,,,,,9,strong,-44,88,1,0,0,response7disk,9,41,6,-9,1,0,0,rectangle,6,-9,1,0,0,1,0,0.00044,6,-9,1,0,0,0,40,40,17,1,0,,,,,,,,,,,,,,,,,,,,,
,,,,,,,,,,,,,,,,,,,,,,,,,,,,,,,,,,,,,,,,,,5fbeeac30413241531d2a6ab,60684145a7ce64b42b4e022e,2021-04-03_12h19.54.928,Colour_Similarity_Experiment,2020.2.10,Win32,60,60674ec340277cd6a308bc9f,6.99747191,6.98131424,6.953184979,7.758333334,6.943804781,6.98131424,,,,,,,,,,,,,,,,,,,PF,weak,7,,,,,,,,0,1.298435,,,,,,,,,,,,,,,,,,,,,,,,,,,,7,weak,-39,91,1,0,0,response7disk,7,42,-1,-16,1,0,0,rectangle,-1,-16,1,0,0,1,4,0.000415,-1,-16,1,0,0,0,41,41,51,1,0,,,,,,,,,,,,,,,,,,,,,
,,,,,,,,,,,,,,,,,,,,,,,,,,,,,,,,,,,,,,,,,,5fbeeac30413241531d2a6ab,60684145a7ce64b42b4e022e,2021-04-03_12h19.54.928,Colour_Similarity_Experiment,2020.2.10,Win32,60,60674ec340277cd6a308bc9f,6.99747191,6.98131424,6.953184979,7.758333334,6.943804781,6.98131424,,,,,,,,,,,,,,,,,,,PF,strong,7,,,,,,,,3,1.60404,,,,,,,,,,,,,,,,,,,,,,,,,,,,8,strong,-55,-120,1,0,0,response5disk,5,43,16,15,1,0,0,rectangle,16,15,1,0,0,1,1,0.00042,16,15,1,0,0,0,42,42,152,1,0,,,,,,,,,,,,,,,,,,,,,
,,,,,,,,,,,,,,,,,,,,,,,,,,,,,,,,,,,,,,,,,,5fbeeac30413241531d2a6ab,60684145a7ce64b42b4e022e,2021-04-03_12h19.54.928,Colour_Similarity_Experiment,2020.2.10,Win32,60,60674ec340277cd6a308bc9f,6.99747191,6.98131424,6.953184979,7.758333334,6.943804781,6.98131424,,,,,,,,,,,,,,,,,,,PF,weak,7,,,,,,,,0,3.095045,,,,,,,,,,,,,,,,,,,,,,,,,,,,4,weak,-46,85,1,0,0,response7disk,9,44,-18,-9,1,0,0,rectangle,-18,-9,1,0,0,1,0,0.00042,-18,-9,1,0,0,0,43,43,75,1,0,,,,,,,,,,,,,,,,,,,,,
,,,,,,,,,,,,,,,,,,,,,,,,,,,,,,,,,,,,,,,,,,5fbeeac30413241531d2a6ab,60684145a7ce64b42b4e022e,2021-04-03_12h19.54.928,Colour_Similarity_Experiment,2020.2.10,Win32,60,60674ec340277cd6a308bc9f,6.99747191,6.98131424,6.953184979,7.758333334,6.943804781,6.98131424,,,,,,,,,,,,,,,,,,,PF,weak,7,,,,,,,,3,1.33355,,,,,,,,,,,,,,,,,,,,,,,,,,,,6,weak,-37,-96,1,0,0,response5disk,4,45,3,-4,1,0,0,rectangle,3,-4,1,0,0,1,1,0.00043,3,-4,1,0,0,0,44,44,33,1,0,,,,,,,,,,,,,,,,,,,,,
,,,,,,,,,,,,,,,,,,,,,,,,,,,,,,,,,,,,,,,,,,5fbeeac30413241531d2a6ab,60684145a7ce64b42b4e022e,2021-04-03_12h19.54.928,Colour_Similarity_Experiment,2020.2.10,Win32,60,60674ec340277cd6a308bc9f,6.99747191,6.98131424,6.953184979,7.758333334,6.943804781,6.98131424,,,,,,,,,,,,,,,,,,,PF,strong,7,,,,,,,,3,1.096915,,,,,,,,,,,,,,,,,,,,,,,,,,,,1,strong,-48,-84,1,0,0,response5disk,1,46,2,4,1,0,0,rectangle,2,4,1,0,0,1,0,0.000425,2,4,1,0,0,0,45,45,151,1,0,,,,,,,,,,,,,,,,,,,,,
,,,,,,,,,,,,,,,,,,,,,,,,,,,,,,,,,,,,,,,,,,5fbeeac30413241531d2a6ab,60684145a7ce64b42b4e022e,2021-04-03_12h19.54.928,Colour_Similarity_Experiment,2020.2.10,Win32,60,60674ec340277cd6a308bc9f,6.99747191,6.98131424,6.953184979,7.758333334,6.943804781,6.98131424,,,,,,,,,,,,,,,,,,,PF,weak,7,,,,,,,,0,1.69322,,,,,,,,,,,,,,,,,,,,,,,,,,,,6,weak,-56,82,1,0,0,response7disk,2,47,-4,-1,1,0,0,rectangle,-4,-1,1,0,0,1,5,0.00043,-4,-1,1,0,0,0,46,46,130,1,0,,,,,,,,,,,,,,,,,,,,,
,,,,,,,,,,,,,,,,,,,,,,,,,,,,,,,,,,,,,,,,,,5fbeeac30413241531d2a6ab,60684145a7ce64b42b4e022e,2021-04-03_12h19.54.928,Colour_Similarity_Experiment,2020.2.10,Win32,60,60674ec340277cd6a308bc9f,6.99747191,6.98131424,6.953184979,7.758333334,6.943804781,6.98131424,,,,,,,,,,,,,,,,,,,PF,weak,7,,,,,,,,7,1.768725,,,,,,,,,,,,,,,,,,,,,,,,,,,,9,weak,46,87,1,0,0,response1disk,5,48,7,3,1,0,0,rectangle,7,3,1,0,0,1,5,6E-05,7,3,1,0,0,0,47,47,134,1,0,,,,,,,,,,,,,,,,,,,,,
,,,,,,,,,,,,,,,,,,,,,,,,,,,,,,,,,,,,,,,,,,5fbeeac30413241531d2a6ab,60684145a7ce64b42b4e022e,2021-04-03_12h19.54.928,Colour_Similarity_Experiment,2020.2.10,Win32,60,60674ec340277cd6a308bc9f,6.99747191,6.98131424,6.953184979,7.758333334,6.943804781,6.98131424,,,,,,,,,,,,,,,,,,,PF,strong,7,,,,,,,,4,1.74093,,,,,,,,,,,,,,,,,,,,,,,,,,,,1,strong,44,-104,1,0,0,response3disk,7,49,17,0,1,0,0,rectangle,17,0,1,0,0,1,3,0.000415,17,0,1,0,0,0,48,48,137,1,0,,,,,,,,,,,,,,,,,,,,,
,,,,,,,,,,,,,,,,,,,,,,,,,,,,,,,,,,,,,,,,,,5fbeeac30413241531d2a6ab,60684145a7ce64b42b4e022e,2021-04-03_12h19.54.928,Colour_Similarity_Experiment,2020.2.10,Win32,60,60674ec340277cd6a308bc9f,6.99747191,6.98131424,6.953184979,7.758333334,6.943804781,6.98131424,,,,,,,,,,,,,,,,,,,PF,strong,7,,,,,,,,4,1.074275,,,,,,,,,,,,,,,,,,,,,,,,,,,,7,strong,39,-98,1,0,0,response3disk,6,50,11,-18,1,0,0,rectangle,11,-18,1,0,0,1,4,0.00044,11,-18,1,0,0,0,49,49,31,1,0,,,,,,,,,,,,,,,,,,,,,
,,,,,,,,,,,,,,,,,,,,,,,,,,,,,,,,,,,,,,,,,,5fbeeac30413241531d2a6ab,60684145a7ce64b42b4e022e,2021-04-03_12h19.54.928,Colour_Similarity_Experiment,2020.2.10,Win32,60,60674ec340277cd6a308bc9f,6.99747191,6.98131424,6.953184979,7.758333334,6.943804781,6.98131424,,,,,,,,,,,,,,,,,,,PF,weak,7,,,,,,,,7,1.17839,,,,,,,,,,,,,,,,,,,,,,,,,,,,4,weak,55,90,1,0,0,response1disk,7,51,3,-7,1,0,0,rectangle,3,-7,1,0,0,1,3,0.00043,3,-7,1,0,0,0,50,50,38,1,0,,,,,,,,,,,,,,,,,,,,,
,,,,,,,,,,,,,,,,,,,,,,,,,,,,,,,,,,,,,,,,,,5fbeeac30413241531d2a6ab,60684145a7ce64b42b4e022e,2021-04-03_12h19.54.928,Colour_Similarity_Experiment,2020.2.10,Win32,60,60674ec340277cd6a308bc9f,6.99747191,6.98131424,6.953184979,7.758333334,6.943804781,6.98131424,,,,,,,,,,,,,,,,,,,PF,strong,7,,,,,,,,0,1.284535,,,,,,,,,,,,,,,,,,,,,,,,,,,,3,strong,-48,96,1,0,0,response7disk,3,52,-3,-4,1,0,0,rectangle,-3,-4,1,0,0,1,6,0.000415,-3,-4,1,0,0,0,51,51,68,1,0,,,,,,,,,,,,,,,,,,,,,
,,,,,,,,,,,,,,,,,,,,,,,,,,,,,,,,,,,,,,,,,,5fbeeac30413241531d2a6ab,60684145a7ce64b42b4e022e,2021-04-03_12h19.54.928,Colour_Similarity_Experiment,2020.2.10,Win32,60,60674ec340277cd6a308bc9f,6.99747191,6.98131424,6.953184979,7.758333334,6.943804781,6.98131424,,,,,,,,,,,,,,,,,,,PF,strong,7,,,,,,,,3,2.7062,,,,,,,,,,,,,,,,,,,,,,,,,,,,7,strong,-53,-100,1,0,0,response5disk,2,53,-7,18,1,0,0,rectangle,-7,18,1,0,0,1,0,0.00049,-7,18,1,0,0,0,52,52,138,1,0,,,,,,,,,,,,,,,,,,,,,
,,,,,,,,,,,,,,,,,,,,,,,,,,,,,,,,,,,,,,,,,,5fbeeac30413241531d2a6ab,60684145a7ce64b42b4e022e,2021-04-03_12h19.54.928,Colour_Similarity_Experiment,2020.2.10,Win32,60,60674ec340277cd6a308bc9f,6.99747191,6.98131424,6.953184979,7.758333334,6.943804781,6.98131424,,,,,,,,,,,,,,,,,,,PF,weak,7,,,,,,,,7,1.01368,,,,,,,,,,,,,,,,,,,,,,,,,,,,5,weak,44,81,1,0,0,response1disk,1,54,10,-6,1,0,0,rectangle,-104,47,1,0,0,1,1,1.793985,-2,-5,1,0,0,0,53,53,159,1,1,response7disk_3,rectangle,,,,,,,,,,,,,,,,,,,
,,,,,,,,,,,,,,,,,,,,,,,,,,,,,,,,,,,,,,,,,,5fbeeac30413241531d2a6ab,60684145a7ce64b42b4e022e,2021-04-03_12h19.54.928,Colour_Similarity_Experiment,2020.2.10,Win32,60,60674ec340277cd6a308bc9f,6.99747191,6.98131424,6.953184979,7.758333334,6.943804781,6.98131424,,,,,,,,,,,,,,,,,,,PF,weak,7,,,,,,,,7,1.18724,,,,,,,,,,,,,,,,,,,,,,,,,,,,7,weak,47,96,1,0,0,response1disk,3,55,0,16,1,0,0,rectangle,0,16,1,0,0,1,7,0.00044,0,16,1,0,0,0,54,54,81,1,0,,,,,,,,,,,,,,,,,,,,,
,,,,,,,,,,,,,,,,,,,,,,,,,,,,,,,,,,,,,,,,,,5fbeeac30413241531d2a6ab,60684145a7ce64b42b4e022e,2021-04-03_12h19.54.928,Colour_Similarity_Experiment,2020.2.10,Win32,60,60674ec340277cd6a308bc9f,6.99747191,6.98131424,6.953184979,7.758333334,6.943804781,6.98131424,,,,,,,,,,,,,,,,,,,PF,strong,7,,,,,,,,0,1.19227,,,,,,,,,,,,,,,,,,,,,,,,,,,,2,strong,-56,91,1,0,0,response7disk,7,56,12,9,1,0,0,rectangle,12,9,1,0,0,1,1,0.000445,12,9,1,0,0,0,55,55,63,1,0,,,,,,,,,,,,,,,,,,,,,
,,,,,,,,,,,,,,,,,,,,,,,,,,,,,,,,,,,,,,,,,,5fbeeac30413241531d2a6ab,60684145a7ce64b42b4e022e,2021-04-03_12h19.54.928,Colour_Similarity_Experiment,2020.2.10,Win32,60,60674ec340277cd6a308bc9f,6.99747191,6.98131424,6.953184979,7.758333334,6.943804781,6.98131424,,,,,,,,,,,,,,,,,,,PF,weak,7,,,,,,,,7,1.73374,,,,,,,,,,,,,,,,,,,,,,,,,,,,8,weak,39,97,1,0,0,response1disk,5,57,-6,7,1,0,0,rectangle,-6,7,1,0,0,1,1,6.5E-05,-6,7,1,0,0,0,56,56,98,1,0,,,,,,,,,,,,,,,,,,,,,
,,,,,,,,,,,,,,,,,,,,,,,,,,,,,,,,,,,,,,,,,,5fbeeac30413241531d2a6ab,60684145a7ce64b42b4e022e,2021-04-03_12h19.54.928,Colour_Similarity_Experiment,2020.2.10,Win32,60,60674ec340277cd6a308bc9f,6.99747191,6.98131424,6.953184979,7.758333334,6.943804781,6.98131424,,,,,,,,,,,,,,,,,,,PF,strong,7,,,,,,,,0,1.192235,,,,,,,,,,,,,,,,,,,,,,,,,,,,7,strong,-57,81,1,0,0,response7disk,8,58,13,6,1,0,0,rectangle,118,49,1,0,0,6,6,2.20135,-12,-4,1,0,0,0,57,57,97,1,1,response1disk_3,rectangle,,,,,,,,,,,,,,,,,,,
,,,,,,,,,,,,,,,,,,,,,,,,,,,,,,,,,,,,,,,,,,5fbeeac30413241531d2a6ab,60684145a7ce64b42b4e022e,2021-04-03_12h19.54.928,Colour_Similarity_Experiment,2020.2.10,Win32,60,60674ec340277cd6a308bc9f,6.99747191,6.98131424,6.953184979,7.758333334,6.943804781,6.98131424,,,,,,,,,,,,,,,,,,,PF,weak,7,,,,,,,,0,1.51174,,,,,,,,,,,,,,,,,,,,,,,,,,,,3,weak,-33,91,1,0,0,response7disk,3,59,-8,13,1,0,0,rectangle,-8,13,1,0,0,6,2,0.00045,-8,13,1,0,0,0,58,58,4,1,0,,,,,,,,,,,,,,,,,,,,,
,,,,,,,,,,,,,,,,,,,,,,,,,,,,,,,,,,,,,,,,,,5fbeeac30413241531d2a6ab,60684145a7ce64b42b4e022e,2021-04-03_12h19.54.928,Colour_Similarity_Experiment,2020.2.10,Win32,60,60674ec340277cd6a308bc9f,6.99747191,6.98131424,6.953184979,7.758333334,6.943804781,6.98131424,,,,,,,,,,,,,,,,,,,PF,strong,7,,,,,,,,3,1.33814,,,,,,,,,,,,,,,,,,,,,,,,,,,,6,strong,-60,-84,1,0,0,response5disk,5,60,-1,20,1,0,0,rectangle,-1,20,1,0,0,6,2,6E-05,-1,20,1,0,0,0,59,59,126,1,0,,,,,,,,,,,,,,,,,,,,,
,,,,,,,,,,,,,,,,,,,,,,,,,,,,,,,,,,,,,,,,,,5fbeeac30413241531d2a6ab,60684145a7ce64b42b4e022e,2021-04-03_12h19.54.928,Colour_Similarity_Experiment,2020.2.10,Win32,60,60674ec340277cd6a308bc9f,6.99747191,6.98131424,6.953184979,7.758333334,6.943804781,6.98131424,,,,,,,,,,,,,,,,,,,PF,strong,7,,,,,,,,3,0.999755,,,,,,,,,,,,,,,,,,,,,,,,,,,,7,strong,-45,-92,1,0,0,response5disk,5,61,2,15,1,0,0,rectangle,2,15,1,0,0,6,2,6.5E-05,2,15,1,0,0,0,60,60,156,1,0,,,,,,,,,,,,,,,,,,,,,
,,,,,,,,,,,,,,,,,,,,,,,,,,,,,,,,,,,,,,,,,,5fbeeac30413241531d2a6ab,60684145a7ce64b42b4e022e,2021-04-03_12h19.54.928,Colour_Similarity_Experiment,2020.2.10,Win32,60,60674ec340277cd6a308bc9f,6.99747191,6.98131424,6.953184979,7.758333334,6.943804781,6.98131424,,,,,,,,,,,,,,,,,,,PF,strong,7,,,,,,,,2,1.449185,,,,,,,,,,,,,,,,,,,,,,,,,,,,4,strong,-78,-39,1,0,0,response5disk,4,62,-2,7,1,0,0,rectangle,-2,7,1,0,0,6,7,0.000485,-2,7,1,0,0,0,61,61,84,1,0,,,,,,,,,,,,,,,,,,,,,
,,,,,,,,,,,,,,,,,,,,,,,,,,,,,,,,,,,,,,,,,,5fbeeac30413241531d2a6ab,60684145a7ce64b42b4e022e,2021-04-03_12h19.54.928,Colour_Similarity_Experiment,2020.2.10,Win32,60,60674ec340277cd6a308bc9f,6.99747191,6.98131424,6.953184979,7.758333334,6.943804781,6.98131424,,,,,,,,,,,,,,,,,,,PF,strong,7,,,,,,,,2,1.71307,,,,,,,,,,,,,,,,,,,,,,,,,,,,5,strong,-86,-46,1,0,0,response5disk,6,63,10,8,1,0,0,rectangle,10,8,1,0,0,6,5,0.000425,10,8,1,0,0,0,62,62,12,1,0,,,,,,,,,,,,,,,,,,,,,
,,,,,,,,,,,,,,,,,,,,,,,,,,,,,,,,,,,,,,,,,,5fbeeac30413241531d2a6ab,60684145a7ce64b42b4e022e,2021-04-03_12h19.54.928,Colour_Similarity_Experiment,2020.2.10,Win32,60,60674ec340277cd6a308bc9f,6.99747191,6.98131424,6.953184979,7.758333334,6.943804781,6.98131424,,,,,,,,,,,,,,,,,,,PF,strong,7,,,,,,,,4,2.29651,,,,,,,,,,,,,,,,,,,,,,,,,,,,8,strong,48,-108,1,0,0,response3disk,3,64,10,-7,1,0,0,rectangle,10,-7,1,0,0,6,5,6.5E-05,10,-7,1,0,0,0,63,63,154,1,0,,,,,,,,,,,,,,,,,,,,,
,,,,,,,,,,,,,,,,,,,,,,,,,,,,,,,,,,,,,,,,,,5fbeeac30413241531d2a6ab,60684145a7ce64b42b4e022e,2021-04-03_12h19.54.928,Colour_Similarity_Experiment,2020.2.10,Win32,60,60674ec340277cd6a308bc9f,6.99747191,6.98131424,6.953184979,7.758333334,6.943804781,6.98131424,,,,,,,,,,,,,,,,,,,PF,weak,7,,,,,,,,4,0.89366,,,,,,,,,,,,,,,,,,,,,,,,,,,,4,weak,45,-95,1,0,0,response3disk,1,65,4,-4,1,0,0,rectangle,4,-4,1,0,0,6,3,0.000435,4,-4,1,0,0,0,64,64,115,1,0,,,,,,,,,,,,,,,,,,,,,
,,,,,,,,,,,,,,,,,,,,,,,,,,,,,,,,,,,,,,,,,,5fbeeac30413241531d2a6ab,60684145a7ce64b42b4e022e,2021-04-03_12h19.54.928,Colour_Similarity_Experiment,2020.2.10,Win32,60,60674ec340277cd6a308bc9f,6.99747191,6.98131424,6.953184979,7.758333334,6.943804781,6.98131424,,,,,,,,,,,,,,,,,,,PF,strong,7,,,,,,,,4,1.00689,,,,,,,,,,,,,,,,,,,,,,,,,,,,4,strong,55,-101,1,0,0,response3disk,2,66,6,-6,1,0,0,rectangle,6,-6,1,0,0,6,7,0.00044,6,-6,1,0,0,0,65,65,13,1,0,,,,,,,,,,,,,,,,,,,,,
,,,,,,,,,,,,,,,,,,,,,,,,,,,,,,,,,,,,,,,,,,5fbeeac30413241531d2a6ab,60684145a7ce64b42b4e022e,2021-04-03_12h19.54.928,Colour_Similarity_Experiment,2020.2.10,Win32,60,60674ec340277cd6a308bc9f,6.99747191,6.98131424,6.953184979,7.758333334,6.943804781,6.98131424,,,,,,,,,,,,,,,,,,,PF,weak,7,,,,,,,,2,2.17845,,,,,,,,,,,,,,,,,,,,,,,,,,,,4,weak,-100,-54,1,0,0,response5disk,5,67,3,3,1,0,0,rectangle,3,3,1,0,0,6,4,0.000425,3,3,1,0,0,0,66,66,49,1,0,,,,,,,,,,,,,,,,,,,,,
,,,,,,,,,,,,,,,,,,,,,,,,,,,,,,,,,,,,,,,,,,5fbeeac30413241531d2a6ab,60684145a7ce64b42b4e022e,2021-04-03_12h19.54.928,Colour_Similarity_Experiment,2020.2.10,Win32,60,60674ec340277cd6a308bc9f,6.99747191,6.98131424,6.953184979,7.758333334,6.943804781,6.98131424,,,,,,,,,,,,,,,,,,,PF,weak,7,,,,,,,,5,2.268655,,,,,,,,,,,,,,,,,,,,,,,,,,,,8,weak,86,-71,1,0,0,response3disk,6,68,-9,-3,1,0,0,rectangle,101,44,1,0,0,6,6,1.812435,21,-10,1,0,0,0,67,67,161,1,1,response1disk_3,rectangle,,,,,,,,,,,,,,,,,,,
,,,,,,,,,,,,,,,,,,,,,,,,,,,,,,,,,,,,,,,,,,5fbeeac30413241531d2a6ab,60684145a7ce64b42b4e022e,2021-04-03_12h19.54.928,Colour_Similarity_Experiment,2020.2.10,Win32,60,60674ec340277cd6a308bc9f,6.99747191,6.98131424,6.953184979,7.758333334,6.943804781,6.98131424,,,,,,,,,,,,,,,,,,,PF,strong,7,,,,,,,,4,2.9791,,,,,,,,,,,,,,,,,,,,,,,,,,,,4,strong,58,-97,1,0,0,response3disk,9,69,6,-8,1,0,0,rectangle,6,-8,1,0,0,6,3,0.000455,6,-8,1,0,0,0,68,68,90,1,0,,,,,,,,,,,,,,,,,,,,,
,,,,,,,,,,,,,,,,,,,,,,,,,,,,,,,,,,,,,,,,,,5fbeeac30413241531d2a6ab,60684145a7ce64b42b4e022e,2021-04-03_12h19.54.928,Colour_Similarity_Experiment,2020.2.10,Win32,60,60674ec340277cd6a308bc9f,6.99747191,6.98131424,6.953184979,7.758333334,6.943804781,6.98131424,,,,,,,,,,,,,,,,,,,PF,strong,7,,,,,,,,4,0.77756,,,,,,,,,,,,,,,,,,,,,,,,,,,,7,strong,41,-91,1,0,0,response3disk,3,70,13,-13,1,0,0,rectangle,13,-13,1,0,0,6,3,5.5E-05,13,-13,1,0,0,0,69,69,73,1,0,,,,,,,,,,,,,,,,,,,,,
,,,,,,,,,,,,,,,,,,,,,,,,,,,,,,,,,,,,,,,,,,5fbeeac30413241531d2a6ab,60684145a7ce64b42b4e022e,2021-04-03_12h19.54.928,Colour_Similarity_Experiment,2020.2.10,Win32,60,60674ec340277cd6a308bc9f,6.99747191,6.98131424,6.953184979,7.758333334,6.943804781,6.98131424,,,,,,,,,,,,,,,,,,,PF,strong,7,,,,,,,,4,1.157515,,,,,,,,,,,,,,,,,,,,,,,,,,,,9,strong,48,-106,1,0,0,response3disk,6,71,1,-12,1,0,0,rectangle,1,-12,1,0,0,6,5,0.00044,1,-12,1,0,0,0,70,70,117,1,0,,,,,,,,,,,,,,,,,,,,,
,,,,,,,,,,,,,,,,,,,,,,,,,,,,,,,,,,,,,,,,,,5fbeeac30413241531d2a6ab,60684145a7ce64b42b4e022e,2021-04-03_12h19.54.928,Colour_Similarity_Experiment,2020.2.10,Win32,60,60674ec340277cd6a308bc9f,6.99747191,6.98131424,6.953184979,7.758333334,6.943804781,6.98131424,,,,,,,,,,,,,,,,,,,PF,weak,7,,,,,,,,7,1.650625,,,,,,,,,,,,,,,,,,,,,,,,,,,,2,weak,53,103,1,0,0,response1disk,7,72,4,-5,1,0,0,rectangle,4,-5,1,0,0,6,6,0.00043,4,-5,1,0,0,0,71,71,107,1,0,,,,,,,,,,,,,,,,,,,,,
,,,,,,,,,,,,,,,,,,,,,,,,,,,,,,,,,,,,,,,,,,5fbeeac30413241531d2a6ab,60684145a7ce64b42b4e022e,2021-04-03_12h19.54.928,Colour_Similarity_Experiment,2020.2.10,Win32,60,60674ec340277cd6a308bc9f,6.99747191,6.98131424,6.953184979,7.758333334,6.943804781,6.98131424,,,,,,,,,,,,,,,,,,,PF,weak,7,,,,,,,,1,2.324345,,,,,,,,,,,,,,,,,,,,,,,,,,,,5,weak,-103,59,1,0,0,response7disk,3,73,6,-5,1,0,0,rectangle,6,-5,1,0,0,6,6,6E-05,6,-5,1,0,0,0,72,72,109,1,0,,,,,,,,,,,,,,,,,,,,,
,,,,,,,,,,,,,,,,,,,,,,,,,,,,,,,,,,,,,,,,,,5fbeeac30413241531d2a6ab,60684145a7ce64b42b4e022e,2021-04-03_12h19.54.928,Colour_Similarity_Experiment,2020.2.10,Win32,60,60674ec340277cd6a308bc9f,6.99747191,6.98131424,6.953184979,7.758333334,6.943804781,6.98131424,,,,,,,,,,,,,,,,,,,PF,weak,7,,,,,,,,4,1.985905,,,,,,,,,,,,,,,,,,,,,,,,,,,,6,weak,47,-101,1,0,0,response3disk,8,74,-5,0,1,0,0,rectangle,-5,0,1,0,0,6,3,0.000445,-5,0,1,0,0,0,73,73,64,1,0,,,,,,,,,,,,,,,,,,,,,
,,,,,,,,,,,,,,,,,,,,,,,,,,,,,,,,,,,,,,,,,,5fbeeac30413241531d2a6ab,60684145a7ce64b42b4e022e,2021-04-03_12h19.54.928,Colour_Similarity_Experiment,2020.2.10,Win32,60,60674ec340277cd6a308bc9f,6.99747191,6.98131424,6.953184979,7.758333334,6.943804781,6.98131424,,,,,,,,,,,,,,,,,,,PF,weak,7,,,,,,,,4,1.513695,,,,,,,,,,,,,,,,,,,,,,,,,,,,5,weak,80,-115,1,0,0,response3disk,2,75,15,-1,1,0,0,rectangle,15,-1,1,0,0,6,6,0.00042,15,-1,1,0,0,0,74,74,129,1,0,,,,,,,,,,,,,,,,,,,,,
,,,,,,,,,,,,,,,,,,,,,,,,,,,,,,,,,,,,,,,,,,5fbeeac30413241531d2a6ab,60684145a7ce64b42b4e022e,2021-04-03_12h19.54.928,Colour_Similarity_Experiment,2020.2.10,Win32,60,60674ec340277cd6a308bc9f,6.99747191,6.98131424,6.953184979,7.758333334,6.943804781,6.98131424,,,,,,,,,,,,,,,,,,,PF,weak,7,,,,,,,,7,1.43533,,,,,,,,,,,,,,,,,,,,,,,,,,,,1,weak,63,102,1,0,0,response1disk,3,76,-14,-8,1,0,0,rectangle,-14,-8,1,0,0,6,7,0.000445,-14,-8,1,0,0,0,75,75,1,1,0,,,,,,,,,,,,,,,,,,,,,
,,,,,,,,,,,,,,,,,,,,,,,,,,,,,,,,,,,,,,,,,,5fbeeac30413241531d2a6ab,60684145a7ce64b42b4e022e,2021-04-03_12h19.54.928,Colour_Similarity_Experiment,2020.2.10,Win32,60,60674ec340277cd6a308bc9f,6.99747191,6.98131424,6.953184979,7.758333334,6.943804781,6.98131424,,,,,,,,,,,,,,,,,,,PF,strong,7,,,,,,,,4,1.56735,,,,,,,,,,,,,,,,,,,,,,,,,,,,3,strong,53,-75,1,0,0,response3disk,9,77,20,7,1,0,0,rectangle,20,7,1,0,0,6,0,0.00043,20,7,1,0,0,0,76,76,143,1,0,,,,,,,,,,,,,,,,,,,,,
,,,,,,,,,,,,,,,,,,,,,,,,,,,,,,,,,,,,,,,,,,5fbeeac30413241531d2a6ab,60684145a7ce64b42b4e022e,2021-04-03_12h19.54.928,Colour_Similarity_Experiment,2020.2.10,Win32,60,60674ec340277cd6a308bc9f,6.99747191,6.98131424,6.953184979,7.758333334,6.943804781,6.98131424,,,,,,,,,,,,,,,,,,,PF,strong,7,,,,,,,,3,0.990855,,,,,,,,,,,,,,,,,,,,,,,,,,,,8,strong,-42,-109,1,0,0,response5disk,9,78,-1,-1,1,0,0,rectangle,-1,-1,1,0,0,6,5,0.00042,-1,-1,1,0,0,0,77,77,105,1,0,,,,,,,,,,,,,,,,,,,,,
,,,,,,,,,,,,,,,,,,,,,,,,,,,,,,,,,,,,,,,,,,5fbeeac30413241531d2a6ab,60684145a7ce64b42b4e022e,2021-04-03_12h19.54.928,Colour_Similarity_Experiment,2020.2.10,Win32,60,60674ec340277cd6a308bc9f,6.99747191,6.98131424,6.953184979,7.758333334,6.943804781,6.98131424,,,,,,,,,,,,,,,,,,,PF,weak,7,,,,,,,,2,2.025655,,,,,,,,,,,,,,,,,,,,,,,,,,,,8,weak,-105,-64,1,0,0,response5disk,7,79,13,-3,1,0,0,rectangle,13,-3,1,0,0,6,3,0.00042,13,-3,1,0,0,0,78,78,23,1,0,,,,,,,,,,,,,,,,,,,,,
,,,,,,,,,,,,,,,,,,,,,,,,,,,,,,,,,,,,,,,,,,5fbeeac30413241531d2a6ab,60684145a7ce64b42b4e022e,2021-04-03_12h19.54.928,Colour_Similarity_Experiment,2020.2.10,Win32,60,60674ec340277cd6a308bc9f,6.99747191,6.98131424,6.953184979,7.758333334,6.943804781,6.98131424,,,,,,,,,,,,,,,,,,,PF,strong,7,,,,,,,,2,0.949215,,,,,,,,,,,,,,,,,,,,,,,,,,,,8,strong,-92,-46,1,0,0,response5disk,8,80,1,8,1,0,0,rectangle,1,8,1,0,0,6,4,0.000425,1,8,1,0,0,0,79,79,48,1,0,,,,,,,,,,,,,,,,,,,,,
,,,,,,,,,,,,,,,,,,,,,,,,,,,,,,,,,,,,,,,,,,5fbeeac30413241531d2a6ab,60684145a7ce64b42b4e022e,2021-04-03_12h19.54.928,Colour_Similarity_Experiment,2020.2.10,Win32,60,60674ec340277cd6a308bc9f,6.99747191,6.98131424,6.953184979,7.758333334,6.943804781,6.98131424,,,,,,,,,,,,,,,,,,,PF,strong,7,,,,,,,,2,0.983915,,,,,,,,,,,,,,,,,,,,,,,,,,,,4,strong,-96,-47,1,0,0,response5disk,8,81,-11,4,1,0,0,rectangle,-11,4,1,0,0,6,6,0.000445,-11,4,1,0,0,0,80,80,35,1,0,,,,,,,,,,,,,,,,,,,,,
,,,,,,,,,,,,,,,,,,,,,,,,,,,,,,,,,,,,,,,,,,5fbeeac30413241531d2a6ab,60684145a7ce64b42b4e022e,2021-04-03_12h19.54.928,Colour_Similarity_Experiment,2020.2.10,Win32,60,60674ec340277cd6a308bc9f,6.99747191,6.98131424,6.953184979,7.758333334,6.943804781,6.98131424,,,,,,,,,,,,,,,,,,,PF,strong,7,,,,,,,,7,1.463075,,,,,,,,,,,,,,,,,,,,,,,,,,,,9,strong,29,77,1,0,0,response1disk,5,82,-3,-9,1,0,0,rectangle,-3,-9,1,0,0,6,2,0.00049,-3,-9,1,0,0,0,81,81,128,1,0,,,,,,,,,,,,,,,,,,,,,
,,,,,,,,,,,,,,,,,,,,,,,,,,,,,,,,,,,,,,,,,,5fbeeac30413241531d2a6ab,60684145a7ce64b42b4e022e,2021-04-03_12h19.54.928,Colour_Similarity_Experiment,2020.2.10,Win32,60,60674ec340277cd6a308bc9f,6.99747191,6.98131424,6.953184979,7.758333334,6.943804781,6.98131424,,,,,,,,,,,,,,,,,,,PF,strong,7,,,,,,,,0,1.74783,,,,,,,,,,,,,,,,,,,,,,,,,,,,1,strong,-28,69,1,0,0,response7disk,9,83,15,-20,1,0,0,rectangle,15,-20,1,0,0,6,5,0.00047,15,-20,1,0,0,0,82,82,123,1,0,,,,,,,,,,,,,,,,,,,,,
,,,,,,,,,,,,,,,,,,,,,,,,,,,,,,,,,,,,,,,,,,5fbeeac30413241531d2a6ab,60684145a7ce64b42b4e022e,2021-04-03_12h19.54.928,Colour_Similarity_Experiment,2020.2.10,Win32,60,60674ec340277cd6a308bc9f,6.99747191,6.98131424,6.953184979,7.758333334,6.943804781,6.98131424,,,,,,,,,,,,,,,,,,,PF,strong,7,,,,,,,,0,1.21311,,,,,,,,,,,,,,,,,,,,,,,,,,,,2,strong,-43,89,1,0,0,response7disk,4,84,-4,13,1,0,0,rectangle,-4,13,1,0,0,6,2,0.000425,-4,13,1,0,0,0,83,83,145,1,0,,,,,,,,,,,,,,,,,,,,,
,,,,,,,,,,,,,,,,,,,,,,,,,,,,,,,,,,,,,,,,,,5fbeeac30413241531d2a6ab,60684145a7ce64b42b4e022e,2021-04-03_12h19.54.928,Colour_Similarity_Experiment,2020.2.10,Win32,60,60674ec340277cd6a308bc9f,6.99747191,6.98131424,6.953184979,7.758333334,6.943804781,6.98131424,,,,,,,,,,,,,,,,,,,PF,strong,7,,,,,,,,7,2.86589,,,,,,,,,,,,,,,,,,,,,,,,,,,,7,strong,46,78,1,0,0,response1disk,1,85,3,3,1,0,0,rectangle,3,3,1,0,0,6,2,6.5E-05,3,3,1,0,0,0,84,84,132,1,0,,,,,,,,,,,,,,,,,,,,,
,,,,,,,,,,,,,,,,,,,,,,,,,,,,,,,,,,,,,,,,,,5fbeeac30413241531d2a6ab,60684145a7ce64b42b4e022e,2021-04-03_12h19.54.928,Colour_Similarity_Experiment,2020.2.10,Win32,60,60674ec340277cd6a308bc9f,6.99747191,6.98131424,6.953184979,7.758333334,6.943804781,6.98131424,,,,,,,,,,,,,,,,,,,PF,weak,7,,,,,,,,7,1.275575,,,,,,,,,,,,,,,,,,,,,,,,,,,,2,weak,42,71,1,0,0,response1disk,6,86,17,13,1,0,0,rectangle,17,13,1,0,0,6,4,0.00044,17,13,1,0,0,0,85,85,113,1,0,,,,,,,,,,,,,,,,,,,,,
,,,,,,,,,,,,,,,,,,,,,,,,,,,,,,,,,,,,,,,,,,5fbeeac30413241531d2a6ab,60684145a7ce64b42b4e022e,2021-04-03_12h19.54.928,Colour_Similarity_Experiment,2020.2.10,Win32,60,60674ec340277cd6a308bc9f,6.99747191,6.98131424,6.953184979,7.758333334,6.943804781,6.98131424,,,,,,,,,,,,,,,,,,,PF,strong,7,,,,,,,,7,2.791485,,,,,,,,,,,,,,,,,,,,,,,,,,,,2,strong,64,97,1,0,0,response1disk,1,87,7,14,1,0,0,rectangle,7,14,1,0,0,6,1,0.000435,7,14,1,0,0,0,86,86,85,1,0,,,,,,,,,,,,,,,,,,,,,
,,,,,,,,,,,,,,,,,,,,,,,,,,,,,,,,,,,,,,,,,,5fbeeac30413241531d2a6ab,60684145a7ce64b42b4e022e,2021-04-03_12h19.54.928,Colour_Similarity_Experiment,2020.2.10,Win32,60,60674ec340277cd6a308bc9f,6.99747191,6.98131424,6.953184979,7.758333334,6.943804781,6.98131424,,,,,,,,,,,,,,,,,,,PF,strong,7,,,,,,,,3,0.7965,,,,,,,,,,,,,,,,,,,,,,,,,,,,2,strong,-47,-114,1,0,0,response5disk,9,88,5,-20,1,0,0,rectangle,5,-20,1,0,0,6,4,0.00044,5,-20,1,0,0,0,87,87,72,1,0,,,,,,,,,,,,,,,,,,,,,
,,,,,,,,,,,,,,,,,,,,,,,,,,,,,,,,,,,,,,,,,,5fbeeac30413241531d2a6ab,60684145a7ce64b42b4e022e,2021-04-03_12h19.54.928,Colour_Similarity_Experiment,2020.2.10,Win32,60,60674ec340277cd6a308bc9f,6.99747191,6.98131424,6.953184979,7.758333334,6.943804781,6.98131424,,,,,,,,,,,,,,,,,,,PF,strong,7,,,,,,,,4,0.680385,,,,,,,,,,,,,,,,,,,,,,,,,,,,3,strong,53,-105,1,0,0,response3disk,1,89,4,-5,1,0,0,rectangle,4,-5,1,0,0,6,3,0.00042,4,-5,1,0,0,0,88,88,125,1,0,,,,,,,,,,,,,,,,,,,,,
,,,,,,,,,,,,,,,,,,,,,,,,,,,,,,,,,,,,,,,,,,5fbeeac30413241531d2a6ab,60684145a7ce64b42b4e022e,2021-04-03_12h19.54.928,Colour_Similarity_Experiment,2020.2.10,Win32,60,60674ec340277cd6a308bc9f,6.99747191,6.98131424,6.953184979,7.758333334,6.943804781,6.98131424,,,,,,,,,,,,,,,,,,,PF,weak,7,,,,,,,,7,0.97905,,,,,,,,,,,,,,,,,,,,,,,,,,,,3,weak,56,89,1,0,0,response1disk,9,90,9,-6,1,0,0,rectangle,9,-6,1,0,0,6,7,0.000425,9,-6,1,0,0,0,89,89,79,1,0,,,,,,,,,,,,,,,,,,,,,
,,,,,,,,,,,,,,,,,,,,,,,,,,,,,,,,,,,,,,,,,,5fbeeac30413241531d2a6ab,60684145a7ce64b42b4e022e,2021-04-03_12h19.54.928,Colour_Similarity_Experiment,2020.2.10,Win32,60,60674ec340277cd6a308bc9f,6.99747191,6.98131424,6.953184979,7.758333334,6.943804781,6.98131424,,,,,,,,,,,,,,,,,,,PF,strong,7,,,,,,,,3,1.59502,,,,,,,,,,,,,,,,,,,,,,,,,,,,9,strong,-38,-123,1,0,0,response5disk,2,91,3,6,1,0,0,rectangle,126,-52,1,0,0,5,5,1.75737,-3,-14,1,0,0,0,90,90,11,1,1,response3disk_3,rectangle,,,,,,,,,,,,,,,,,,,
,,,,,,,,,,,,,,,,,,,,,,,,,,,,,,,,,,,,,,,,,,5fbeeac30413241531d2a6ab,60684145a7ce64b42b4e022e,2021-04-03_12h19.54.928,Colour_Similarity_Experiment,2020.2.10,Win32,60,60674ec340277cd6a308bc9f,6.99747191,6.98131424,6.953184979,7.758333334,6.943804781,6.98131424,,,,,,,,,,,,,,,,,,,PF,weak,7,,,,,,,,5,1.32599,,,,,,,,,,,,,,,,,,,,,,,,,,,,6,weak,121,-69,1,0,0,response3disk,6,92,3,8,1,0,0,rectangle,3,8,1,0,0,5,0,0.000435,3,8,1,0,0,0,91,91,0,1,0,,,,,,,,,,,,,,,,,,,,,
,,,,,,,,,,,,,,,,,,,,,,,,,,,,,,,,,,,,,,,,,,5fbeeac30413241531d2a6ab,60684145a7ce64b42b4e022e,2021-04-03_12h19.54.928,Colour_Similarity_Experiment,2020.2.10,Win32,60,60674ec340277cd6a308bc9f,6.99747191,6.98131424,6.953184979,7.758333334,6.943804781,6.98131424,,,,,,,,,,,,,,,,,,,PF,strong,7,,,,,,,,3,0.86579,,,,,,,,,,,,,,,,,,,,,,,,,,,,1,strong,-62,-118,1,0,0,response5disk,5,93,6,12,1,0,0,rectangle,6,12,1,0,0,5,5,0.000425,6,12,1,0,0,0,92,92,82,1,0,,,,,,,,,,,,,,,,,,,,,
,,,,,,,,,,,,,,,,,,,,,,,,,,,,,,,,,,,,,,,,,,5fbeeac30413241531d2a6ab,60684145a7ce64b42b4e022e,2021-04-03_12h19.54.928,Colour_Similarity_Experiment,2020.2.10,Win32,60,60674ec340277cd6a308bc9f,6.99747191,6.98131424,6.953184979,7.758333334,6.943804781,6.98131424,,,,,,,,,,,,,,,,,,,PF,strong,7,,,,,,,,3,0.81714,,,,,,,,,,,,,,,,,,,,,,,,,,,,9,strong,-57,-102,1,0,0,response5disk,1,94,-10,-1,1,0,0,rectangle,-10,-1,1,0,0,5,3,0.00042,-10,-1,1,0,0,0,93,93,111,1,0,,,,,,,,,,,,,,,,,,,,,
,,,,,,,,,,,,,,,,,,,,,,,,,,,,,,,,,,,,,,,,,,5fbeeac30413241531d2a6ab,60684145a7ce64b42b4e022e,2021-04-03_12h19.54.928,Colour_Similarity_Experiment,2020.2.10,Win32,60,60674ec340277cd6a308bc9f,6.99747191,6.98131424,6.953184979,7.758333334,6.943804781,6.98131424,,,,,,,,,,,,,,,,,,,PF,weak,7,,,,,,,,4,0.9215,,,,,,,,,,,,,,,,,,,,,,,,,,,,6,weak,73,-125,1,0,0,response3disk,3,95,17,-18,1,0,0,rectangle,17,-18,1,0,0,5,4,0.00043,17,-18,1,0,0,0,94,94,26,1,0,,,,,,,,,,,,,,,,,,,,,
,,,,,,,,,,,,,,,,,,,,,,,,,,,,,,,,,,,,,,,,,,5fbeeac30413241531d2a6ab,60684145a7ce64b42b4e022e,2021-04-03_12h19.54.928,Colour_Similarity_Experiment,2020.2.10,Win32,60,60674ec340277cd6a308bc9f,6.99747191,6.98131424,6.953184979,7.758333334,6.943804781,6.98131424,,,,,,,,,,,,,,,,,,,PF,weak,7,,,,,,,,7,1.831145,,,,,,,,,,,,,,,,,,,,,,,,,,,,3,weak,41,115,1,0,0,response1disk,2,96,-12,-2,1,0,0,rectangle,51,-127,1,0,0,4,4,1.23816,-14,10,1,0,0,0,95,95,36,1,1,response3disk_3,rectangle,,,,,,,,,,,,,,,,,,,
,,,,,,,,,,,,,,,,,,,,,,,,,,,,,,,,,,,,,,,,,,5fbeeac30413241531d2a6ab,60684145a7ce64b42b4e022e,2021-04-03_12h19.54.928,Colour_Similarity_Experiment,2020.2.10,Win32,60,60674ec340277cd6a308bc9f,6.99747191,6.98131424,6.953184979,7.758333334,6.943804781,6.98131424,,,,,,,,,,,,,,,,,,,PF,weak,7,,,,,,,,7,3.372895,,,,,,,,,,,,,,,,,,,,,,,,,,,,6,weak,48,121,1,0,0,response1disk,1,97,9,17,1,0,0,rectangle,9,17,1,0,0,4,7,0.000435,9,17,1,0,0,0,96,96,46,1,0,,,,,,,,,,,,,,,,,,,,,
,,,,,,,,,,,,,,,,,,,,,,,,,,,,,,,,,,,,,,,,,,5fbeeac30413241531d2a6ab,60684145a7ce64b42b4e022e,2021-04-03_12h19.54.928,Colour_Similarity_Experiment,2020.2.10,Win32,60,60674ec340277cd6a308bc9f,6.99747191,6.98131424,6.953184979,7.758333334,6.943804781,6.98131424,,,,,,,,,,,,,,,,,,,PF,weak,7,,,,,,,,0,1.12979,,,,,,,,,,,,,,,,,,,,,,,,,,,,6,weak,-55,105,1,0,0,response7disk,7,98,-10,5,1,0,0,rectangle,-10,5,1,0,0,4,2,0.00044,-10,5,1,0,0,0,97,97,50,1,0,,,,,,,,,,,,,,,,,,,,,
,,,,,,,,,,,,,,,,,,,,,,,,,,,,,,,,,,,,,,,,,,5fbeeac30413241531d2a6ab,60684145a7ce64b42b4e022e,2021-04-03_12h19.54.928,Colour_Similarity_Experiment,2020.2.10,Win32,60,60674ec340277cd6a308bc9f,6.99747191,6.98131424,6.953184979,7.758333334,6.943804781,6.98131424,,,,,,,,,,,,,,,,,,,PF,weak,7,,,,,,,,0,1.081105,,,,,,,,,,,,,,,,,,,,,,,,,,,,7,weak,-50,87,1,0,0,response7disk,4,99,0,-5,1,0,0,rectangle,0,-5,1,0,0,4,0,0.000425,0,-5,1,0,0,0,98,98,43,1,0,,,,,,,,,,,,,,,,,,,,,
,,,,,,,,,,,,,,,,,,,,,,,,,,,,,,,,,,,,,,,,,,5fbeeac30413241531d2a6ab,60684145a7ce64b42b4e022e,2021-04-03_12h19.54.928,Colour_Similarity_Experiment,2020.2.10,Win32,60,60674ec340277cd6a308bc9f,6.99747191,6.98131424,6.953184979,7.758333334,6.943804781,6.98131424,,,,,,,,,,,,,,,,,,,PF,strong,7,,,,,,,,0,0.69918,,,,,,,,,,,,,,,,,,,,,,,,,,,,4,strong,-51,89,1,0,0,response7disk,1,100,8,5,1,0,0,rectangle,8,5,1,0,0,4,0,6E-05,8,5,1,0,0,0,99,99,102,1,0,,,,,,,,,,,,,,,,,,,,,
,,,,,,,,,,,,,,,,,,,,,,,,,,,,,,,,,,,,,,,,,,5fbeeac30413241531d2a6ab,60684145a7ce64b42b4e022e,2021-04-03_12h19.54.928,Colour_Similarity_Experiment,2020.2.10,Win32,60,60674ec340277cd6a308bc9f,6.99747191,6.98131424,6.953184979,7.758333334,6.943804781,6.98131424,,,,,,,,,,,,,,,,,,,PF,strong,7,,,,,,,,4,1.180375,,,,,,,,,,,,,,,,,,,,,,,,,,,,6,strong,46,-123,1,0,0,response3disk,1,101,-13,1,1,0,0,rectangle,-13,1,1,0,0,4,1,0.00041,-13,1,1,0,0,0,100,100,5,1,0,,,,,,,,,,,,,,,,,,,,,
,,,,,,,,,,,,,,,,,,,,,,,,,,,,,,,,,,,,,,,,,,5fbeeac30413241531d2a6ab,60684145a7ce64b42b4e022e,2021-04-03_12h19.54.928,Colour_Similarity_Experiment,2020.2.10,Win32,60,60674ec340277cd6a308bc9f,6.99747191,6.98131424,6.953184979,7.758333334,6.943804781,6.98131424,,,,,,,,,,,,,,,,,,,PF,strong,7,,,,,,,,4,0.942275,,,,,,,,,,,,,,,,,,,,,,,,,,,,6,strong,57,-92,1,0,0,response3disk,3,102,1,16,1,0,0,rectangle,1,16,1,0,0,4,3,0.000965,1,16,1,0,0,0,101,101,21,1,0,,,,,,,,,,,,,,,,,,,,,
,,,,,,,,,,,,,,,,,,,,,,,,,,,,,,,,,,,,,,,,,,5fbeeac30413241531d2a6ab,60684145a7ce64b42b4e022e,2021-04-03_12h19.54.928,Colour_Similarity_Experiment,2020.2.10,Win32,60,60674ec340277cd6a308bc9f,6.99747191,6.98131424,6.953184979,7.758333334,6.943804781,6.98131424,,,,,,,,,,,,,,,,,,,PF,strong,7,,,,,,,,3,0.643815,,,,,,,,,,,,,,,,,,,,,,,,,,,,5,strong,-40,-83,1,0,0,response5disk,4,103,-7,17,1,0,0,rectangle,-7,17,1,0,0,4,4,0.00042,-7,17,1,0,0,0,102,102,8,1,0,,,,,,,,,,,,,,,,,,,,,
,,,,,,,,,,,,,,,,,,,,,,,,,,,,,,,,,,,,,,,,,,5fbeeac30413241531d2a6ab,60684145a7ce64b42b4e022e,2021-04-03_12h19.54.928,Colour_Similarity_Experiment,2020.2.10,Win32,60,60674ec340277cd6a308bc9f,6.99747191,6.98131424,6.953184979,7.758333334,6.943804781,6.98131424,,,,,,,,,,,,,,,,,,,PF,weak,7,,,,,,,,7,1.025745,,,,,,,,,,,,,,,,,,,,,,,,,,,,1,weak,52,68,1,0,0,response1disk,4,104,7,-12,1,0,0,rectangle,7,-12,1,0,0,4,7,0.000415,7,-12,1,0,0,0,103,103,139,1,0,,,,,,,,,,,,,,,,,,,,,
,,,,,,,,,,,,,,,,,,,,,,,,,,,,,,,,,,,,,,,,,,5fbeeac30413241531d2a6ab,60684145a7ce64b42b4e022e,2021-04-03_12h19.54.928,Colour_Similarity_Experiment,2020.2.10,Win32,60,60674ec340277cd6a308bc9f,6.99747191,6.98131424,6.953184979,7.758333334,6.943804781,6.98131424,,,,,,,,,,,,,,,,,,,PF,weak,7,,,,,,,,7,2.124795,,,,,,,,,,,,,,,,,,,,,,,,,,,,9,weak,44,88,1,0,0,response1disk,6,105,9,6,1,0,0,rectangle,9,6,1,0,0,4,7,6E-05,9,6,1,0,0,0,104,104,148,1,0,,,,,,,,,,,,,,,,,,,,,
,,,,,,,,,,,,,,,,,,,,,,,,,,,,,,,,,,,,,,,,,,5fbeeac30413241531d2a6ab,60684145a7ce64b42b4e022e,2021-04-03_12h19.54.928,Colour_Similarity_Experiment,2020.2.10,Win32,60,60674ec340277cd6a308bc9f,6.99747191,6.98131424,6.953184979,7.758333334,6.943804781,6.98131424,,,,,,,,,,,,,,,,,,,PF,strong,7,,,,,,,,0,1.16468,,,,,,,,,,,,,,,,,,,,,,,,,,,,5,strong,-46,79,1,0,0,response7disk,9,106,-6,5,1,0,0,rectangle,-6,5,1,0,0,4,5,0.00042,-6,5,1,0,0,0,105,105,61,1,0,,,,,,,,,,,,,,,,,,,,,
,,,,,,,,,,,,,,,,,,,,,,,,,,,,,,,,,,,,,,,,,,5fbeeac30413241531d2a6ab,60684145a7ce64b42b4e022e,2021-04-03_12h19.54.928,Colour_Similarity_Experiment,2020.2.10,Win32,60,60674ec340277cd6a308bc9f,6.99747191,6.98131424,6.953184979,7.758333334,6.943804781,6.98131424,,,,,,,,,,,,,,,,,,,PF,strong,7,,,,,,,,0,0.97005,,,,,,,,,,,,,,,,,,,,,,,,,,,,4,strong,-58,84,1,0,0,response7disk,7,107,-1,-2,1,0,0,rectangle,-1,-2,1,0,0,4,4,0.00043,-1,-2,1,0,0,0,106,106,87,1,0,,,,,,,,,,,,,,,,,,,,,
,,,,,,,,,,,,,,,,,,,,,,,,,,,,,,,,,,,,,,,,,,5fbeeac30413241531d2a6ab,60684145a7ce64b42b4e022e,2021-04-03_12h19.54.928,Colour_Similarity_Experiment,2020.2.10,Win32,60,60674ec340277cd6a308bc9f,6.99747191,6.98131424,6.953184979,7.758333334,6.943804781,6.98131424,,,,,,,,,,,,,,,,,,,PF,strong,7,,,,,,,,3,1.01371,,,,,,,,,,,,,,,,,,,,,,,,,,,,6,strong,-48,-94,1,0,0,response5disk,2,108,-6,-2,1,0,0,rectangle,-6,-2,1,0,0,4,5,0.0004,-6,-2,1,0,0,0,107,107,112,1,0,,,,,,,,,,,,,,,,,,,,,
,,,,,,,,,,,,,,,,,,,,,,,,,,,,,,,,,,,,,,,,,,5fbeeac30413241531d2a6ab,60684145a7ce64b42b4e022e,2021-04-03_12h19.54.928,Colour_Similarity_Experiment,2020.2.10,Win32,60,60674ec340277cd6a308bc9f,6.99747191,6.98131424,6.953184979,7.758333334,6.943804781,6.98131424,,,,,,,,,,,,,,,,,,,PF,strong,7,,,,,,,,3,4.914515,,,,,,,,,,,,,,,,,,,,,,,,,,,,3,strong,-53,-82,1,0,0,response5disk,8,109,23,-12,1,0,0,rectangle,23,-12,1,0,0,4,7,0.000885,23,-12,1,0,0,0,108,108,44,1,0,,,,,,,,,,,,,,,,,,,,,
,,,,,,,,,,,,,,,,,,,,,,,,,,,,,,,,,,,,,,,,,,5fbeeac30413241531d2a6ab,60684145a7ce64b42b4e022e,2021-04-03_12h19.54.928,Colour_Similarity_Experiment,2020.2.10,Win32,60,60674ec340277cd6a308bc9f,6.99747191,6.98131424,6.953184979,7.758333334,6.943804781,6.98131424,,,,,,,,,,,,,,,,,,,PF,weak,7,,,,,,,,7,1.05339,,,,,,,,,,,,,,,,,,,,,,,,,,,,1,weak,51,86,1,0,0,response1disk,7,110,18,-1,1,0,0,rectangle,18,-1,1,0,0,4,2,0.00041,18,-1,1,0,0,0,109,109,150,1,0,,,,,,,,,,,,,,,,,,,,,
,,,,,,,,,,,,,,,,,,,,,,,,,,,,,,,,,,,,,,,,,,5fbeeac30413241531d2a6ab,60684145a7ce64b42b4e022e,2021-04-03_12h19.54.928,Colour_Similarity_Experiment,2020.2.10,Win32,60,60674ec340277cd6a308bc9f,6.99747191,6.98131424,6.953184979,7.758333334,6.943804781,6.98131424,,,,,,,,,,,,,,,,,,,PF,weak,7,,,,,,,,1,0.96313,,,,,,,,,,,,,,,,,,,,,,,,,,,,5,weak,-110,44,1,0,0,response7disk,7,111,-12,-3,1,0,0,rectangle,-12,-3,1,0,0,4,5,0.002525,-12,-3,1,0,0,0,110,110,146,1,0,,,,,,,,,,,,,,,,,,,,,
,,,,,,,,,,,,,,,,,,,,,,,,,,,,,,,,,,,,,,,,,,5fbeeac30413241531d2a6ab,60684145a7ce64b42b4e022e,2021-04-03_12h19.54.928,Colour_Similarity_Experiment,2020.2.10,Win32,60,60674ec340277cd6a308bc9f,6.99747191,6.98131424,6.953184979,7.758333334,6.943804781,6.98131424,,,,,,,,,,,,,,,,,,,PF,strong,7,,,,,,,,4,1.58808,,,,,,,,,,,,,,,,,,,,,,,,,,,,2,strong,60,-113,1,0,0,response3disk,5,112,-4,-11,1,0,0,rectangle,-4,-11,1,0,0,4,3,0.0004,-4,-11,1,0,0,0,111,111,80,1,0,,,,,,,,,,,,,,,,,,,,,
,,,,,,,,,,,,,,,,,,,,,,,,,,,,,,,,,,,,,,,,,,5fbeeac30413241531d2a6ab,60684145a7ce64b42b4e022e,2021-04-03_12h19.54.928,Colour_Similarity_Experiment,2020.2.10,Win32,60,60674ec340277cd6a308bc9f,6.99747191,6.98131424,6.953184979,7.758333334,6.943804781,6.98131424,,,,,,,,,,,,,,,,,,,PF,weak,7,,,,,,,,7,2.199255,,,,,,,,,,,,,,,,,,,,,,,,,,,,1,weak,22,119,1,0,0,response1disk,6,113,-4,5,1,0,0,rectangle,-4,5,1,0,0,4,4,0.000495,-4,5,1,0,0,0,112,112,144,1,0,,,,,,,,,,,,,,,,,,,,,
,,,,,,,,,,,,,,,,,,,,,,,,,,,,,,,,,,,,,,,,,,5fbeeac30413241531d2a6ab,60684145a7ce64b42b4e022e,2021-04-03_12h19.54.928,Colour_Similarity_Experiment,2020.2.10,Win32,60,60674ec340277cd6a308bc9f,6.99747191,6.98131424,6.953184979,7.758333334,6.943804781,6.98131424,,,,,,,,,,,,,,,,,,,PF,strong,7,,,,,,,,7,0.78257,,,,,,,,,,,,,,,,,,,,,,,,,,,,9,strong,50,75,1,0,0,response1disk,7,114,6,-1,1,0,0,rectangle,6,-1,1,0,0,4,3,0.000405,6,-1,1,0,0,0,113,113,100,1,0,,,,,,,,,,,,,,,,,,,,,
,,,,,,,,,,,,,,,,,,,,,,,,,,,,,,,,,,,,,,,,,,5fbeeac30413241531d2a6ab,60684145a7ce64b42b4e022e,2021-04-03_12h19.54.928,Colour_Similarity_Experiment,2020.2.10,Win32,60,60674ec340277cd6a308bc9f,6.99747191,6.98131424,6.953184979,7.758333334,6.943804781,6.98131424,,,,,,,,,,,,,,,,,,,PF,weak,7,,,,,,,,4,0.442245,,,,,,,,,,,,,,,,,,,,,,,,,,,,8,weak,73,-101,1,0,0,response3disk,8,115,0,2,1,0,0,rectangle,0,2,1,0,0,4,2,0.000445,0,2,1,0,0,0,114,114,153,1,0,,,,,,,,,,,,,,,,,,,,,
,,,,,,,,,,,,,,,,,,,,,,,,,,,,,,,,,,,,,,,,,,5fbeeac30413241531d2a6ab,60684145a7ce64b42b4e022e,2021-04-03_12h19.54.928,Colour_Similarity_Experiment,2020.2.10,Win32,60,60674ec340277cd6a308bc9f,6.99747191,6.98131424,6.953184979,7.758333334,6.943804781,6.98131424,,,,,,,,,,,,,,,,,,,PF,weak,7,,,,,,,,4,0.77752,,,,,,,,,,,,,,,,,,,,,,,,,,,,2,weak,53,-90,1,0,0,response3disk,3,116,20,2,1,0,0,rectangle,20,2,1,0,0,4,6,0.00042,20,2,1,0,0,0,115,115,69,1,0,,,,,,,,,,,,,,,,,,,,,
,,,,,,,,,,,,,,,,,,,,,,,,,,,,,,,,,,,,,,,,,,5fbeeac30413241531d2a6ab,60684145a7ce64b42b4e022e,2021-04-03_12h19.54.928,Colour_Similarity_Experiment,2020.2.10,Win32,60,60674ec340277cd6a308bc9f,6.99747191,6.98131424,6.953184979,7.758333334,6.943804781,6.98131424,,,,,,,,,,,,,,,,,,,PF,strong,7,,,,,,,,3,0.3033,,,,,,,,,,,,,,,,,,,,,,,,,,,,5,strong,-75,-97,1,0,0,response5disk,2,117,-13,-16,1,0,0,rectangle,60,88,1,0,0,7,7,1.29388,13,-6,1,0,0,0,116,116,55,1,1,response1disk_3,rectangle,,,,,,,,,,,,,,,,,,,
,,,,,,,,,,,,,,,,,,,,,,,,,,,,,,,,,,,,,,,,,,5fbeeac30413241531d2a6ab,60684145a7ce64b42b4e022e,2021-04-03_12h19.54.928,Colour_Similarity_Experiment,2020.2.10,Win32,60,60674ec340277cd6a308bc9f,6.99747191,6.98131424,6.953184979,7.758333334,6.943804781,6.98131424,,,,,,,,,,,,,,,,,,,PF,weak,7,,,,,,,,4,2.03258,,,,,,,,,,,,,,,,,,,,,,,,,,,,5,weak,74,-123,1,0,0,response3disk,8,118,37,-3,1,0,0,rectangle,37,-3,1,0,0,7,7,5.5E-05,37,-3,1,0,0,0,117,117,149,1,0,,,,,,,,,,,,,,,,,,,,,
,,,,,,,,,,,,,,,,,,,,,,,,,,,,,,,,,,,,,,,,,,5fbeeac30413241531d2a6ab,60684145a7ce64b42b4e022e,2021-04-03_12h19.54.928,Colour_Similarity_Experiment,2020.2.10,Win32,60,60674ec340277cd6a308bc9f,6.99747191,6.98131424,6.953184979,7.758333334,6.943804781,6.98131424,,,,,,,,,,,,,,,,,,,PF,weak,7,,,,,,,,3,3.449315,,,,,,,,,,,,,,,,,,,,,,,,,,,,2,weak,-49,-124,1,0,0,response5disk,1,119,-6,12,1,0,0,rectangle,-6,12,1,0,0,7,2,0.000425,-6,12,1,0,0,0,118,118,9,1,0,,,,,,,,,,,,,,,,,,,,,
,,,,,,,,,,,,,,,,,,,,,,,,,,,,,,,,,,,,,,,,,,5fbeeac30413241531d2a6ab,60684145a7ce64b42b4e022e,2021-04-03_12h19.54.928,Colour_Similarity_Experiment,2020.2.10,Win32,60,60674ec340277cd6a308bc9f,6.99747191,6.98131424,6.953184979,7.758333334,6.943804781,6.98131424,,,,,,,,,,,,,,,,,,,PF,strong,7,,,,,,,,3,3.22694,,,,,,,,,,,,,,,,,,,,,,,,,,,,2,strong,-36,-103,1,0,0,response5disk,6,120,-13,0,1,0,0,rectangle,-13,0,1,0,0,7,2,6.5E-05,-13,0,1,0,0,0,119,119,40,1,0,,,,,,,,,,,,,,,,,,,,,
,,,,,,,,,,,,,,,,,,,,,,,,,,,,,,,,,,,,,,,,,,5fbeeac30413241531d2a6ab,60684145a7ce64b42b4e022e,2021-04-03_12h19.54.928,Colour_Similarity_Experiment,2020.2.10,Win32,60,60674ec340277cd6a308bc9f,6.99747191,6.98131424,6.953184979,7.758333334,6.943804781,6.98131424,,,,,,,,,,,,,,,,,,,PF,strong,7,,,,,,,,4,0.81704,,,,,,,,,,,,,,,,,,,,,,,,,,,,2,strong,55,-111,1,0,0,response3disk,2,121,-6,-1,1,0,0,rectangle,-6,-1,1,0,0,7,6,0.00042,-6,-1,1,0,0,0,120,120,142,1,0,,,,,,,,,,,,,,,,,,,,,
,,,,,,,,,,,,,,,,,,,,,,,,,,,,,,,,,,,,,,,,,,5fbeeac30413241531d2a6ab,60684145a7ce64b42b4e022e,2021-04-03_12h19.54.928,Colour_Similarity_Experiment,2020.2.10,Win32,60,60674ec340277cd6a308bc9f,6.99747191,6.98131424,6.953184979,7.758333334,6.943804781,6.98131424,,,,,,,,,,,,,,,,,,,PF,weak,7,,,,,,,,4,0.34496,,,,,,,,,,,,,,,,,,,,,,,,,,,,4,weak,47,-83,1,0,0,response3disk,4,122,-5,-10,1,0,0,rectangle,-5,-10,1,0,0,7,1,0.00042,-5,-10,1,0,0,0,121,121,70,1,0,,,,,,,,,,,,,,,,,,,,,
,,,,,,,,,,,,,,,,,,,,,,,,,,,,,,,,,,,,,,,,,,5fbeeac30413241531d2a6ab,60684145a7ce64b42b4e022e,2021-04-03_12h19.54.928,Colour_Similarity_Experiment,2020.2.10,Win32,60,60674ec340277cd6a308bc9f,6.99747191,6.98131424,6.953184979,7.758333334,6.943804781,6.98131424,,,,,,,,,,,,,,,,,,,PF,strong,7,,,,,,,,7,0.735615,,,,,,,,,,,,,,,,,,,,,,,,,,,,1,strong,46,119,1,0,0,response1disk,8,123,10,-4,1,0,0,rectangle,10,-4,1,0,0,7,4,0.000475,10,-4,1,0,0,0,122,122,27,1,0,,,,,,,,,,,,,,,,,,,,,
,,,,,,,,,,,,,,,,,,,,,,,,,,,,,,,,,,,,,,,,,,5fbeeac30413241531d2a6ab,60684145a7ce64b42b4e022e,2021-04-03_12h19.54.928,Colour_Similarity_Experiment,2020.2.10,Win32,60,60674ec340277cd6a308bc9f,6.99747191,6.98131424,6.953184979,7.758333334,6.943804781,6.98131424,,,,,,,,,,,,,,,,,,,PF,weak,7,,,,,,,,0,1.206095,,,,,,,,,,,,,,,,,,,,,,,,,,,,9,weak,-48,87,1,0,0,response7disk,9,124,5,-11,1,0,0,rectangle,5,-11,1,0,0,7,1,0.00042,5,-11,1,0,0,0,123,123,106,1,0,,,,,,,,,,,,,,,,,,,,,
,,,,,,,,,,,,,,,,,,,,,,,,,,,,,,,,,,,,,,,,,,5fbeeac30413241531d2a6ab,60684145a7ce64b42b4e022e,2021-04-03_12h19.54.928,Colour_Similarity_Experiment,2020.2.10,Win32,60,60674ec340277cd6a308bc9f,6.99747191,6.98131424,6.953184979,7.758333334,6.943804781,6.98131424,,,,,,,,,,,,,,,,,,,PF,weak,7,,,,,,,,0,2.26868,,,,,,,,,,,,,,,,,,,,,,,,,,,,7,weak,-60,95,1,0,0,response7disk,8,125,-9,-5,1,0,0,rectangle,-9,-5,1,0,0,7,2,0.00042,-9,-5,1,0,0,0,124,124,140,1,0,,,,,,,,,,,,,,,,,,,,,
,,,,,,,,,,,,,,,,,,,,,,,,,,,,,,,,,,,,,,,,,,5fbeeac30413241531d2a6ab,60684145a7ce64b42b4e022e,2021-04-03_12h19.54.928,Colour_Similarity_Experiment,2020.2.10,Win32,60,60674ec340277cd6a308bc9f,6.99747191,6.98131424,6.953184979,7.758333334,6.943804781,6.98131424,,,,,,,,,,,,,,,,,,,PF,strong,7,,,,,,,,4,1.298325,,,,,,,,,,,,,,,,,,,,,,,,,,,,7,strong,37,-98,1,0,0,response3disk,4,126,6,2,1,0,0,rectangle,6,2,1,0,0,7,1,0.000415,6,2,1,0,0,0,125,125,158,1,0,,,,,,,,,,,,,,,,,,,,,
,,,,,,,,,,,,,,,,,,,,,,,,,,,,,,,,,,,,,,,,,,5fbeeac30413241531d2a6ab,60684145a7ce64b42b4e022e,2021-04-03_12h19.54.928,Colour_Similarity_Experiment,2020.2.10,Win32,60,60674ec340277cd6a308bc9f,6.99747191,6.98131424,6.953184979,7.758333334,6.943804781,6.98131424,,,,,,,,,,,,,,,,,,,PF,weak,7,,,,,,,,3,0.2407,,,,,,,,,,,,,,,,,,,,,,,,,,,,7,weak,-54,-91,1,0,0,response5disk,2,127,0,11,1,0,0,rectangle,0,11,1,0,0,7,2,0.00042,0,11,1,0,0,0,126,126,32,1,0,,,,,,,,,,,,,,,,,,,,,
,,,,,,,,,,,,,,,,,,,,,,,,,,,,,,,,,,,,,,,,,,5fbeeac30413241531d2a6ab,60684145a7ce64b42b4e022e,2021-04-03_12h19.54.928,Colour_Similarity_Experiment,2020.2.10,Win32,60,60674ec340277cd6a308bc9f,6.99747191,6.98131424,6.953184979,7.758333334,6.943804781,6.98131424,,,,,,,,,,,,,,,,,,,PF,weak,7,,,,,,,,7,0.29635,,,,,,,,,,,,,,,,,,,,,,,,,,,,9,weak,38,46,1,0,0,response1disk,7,128,11,-10,1,0,0,rectangle,11,-10,1,0,0,7,4,0.00041,11,-10,1,0,0,0,127,127,121,1,0,,,,,,,,,,,,,,,,,,,,,
,,,,,,,,,,,,,,,,,,,,,,,,,,,,,,,,,,,,,,,,,,5fbeeac30413241531d2a6ab,60684145a7ce64b42b4e022e,2021-04-03_12h19.54.928,Colour_Similarity_Experiment,2020.2.10,Win32,60,60674ec340277cd6a308bc9f,6.99747191,6.98131424,6.953184979,7.758333334,6.943804781,6.98131424,,,,,,,,,,,,,,,,,,,PF,strong,7,,,,,,,,7,1.062465,,,,,,,,,,,,,,,,,,,,,,,,,,,,6,strong,48,101,1,0,0,response1disk,9,129,11,11,1,0,0,rectangle,102,-59,1,0,0,5,5,1.32635,12,0,1,0,0,0,128,128,160,1,1,response3disk_3,rectangle,,,,,,,,,,,,,,,,,,,
,,,,,,,,,,,,,,,,,,,,,,,,,,,,,,,,,,,,,,,,,,5fbeeac30413241531d2a6ab,60684145a7ce64b42b4e022e,2021-04-03_12h19.54.928,Colour_Similarity_Experiment,2020.2.10,Win32,60,60674ec340277cd6a308bc9f,6.99747191,6.98131424,6.953184979,7.758333334,6.943804781,6.98131424,,,,,,,,,,,,,,,,,,,PF,weak,7,,,,,,,,7,0.914425,,,,,,,,,,,,,,,,,,,,,,,,,,,,6,weak,78,89,1,0,0,response1disk,9,130,23,-12,1,0,0,rectangle,23,-12,1,0,0,5,2,0.00044,23,-12,1,0,0,0,129,129,45,1,0,,,,,,,,,,,,,,,,,,,,,
,,,,,,,,,,,,,,,,,,,,,,,,,,,,,,,,,,,,,,,,,,5fbeeac30413241531d2a6ab,60684145a7ce64b42b4e022e,2021-04-03_12h19.54.928,Colour_Similarity_Experiment,2020.2.10,Win32,60,60674ec340277cd6a308bc9f,6.99747191,6.98131424,6.953184979,7.758333334,6.943804781,6.98131424,,,,,,,,,,,,,,,,,,,PF,weak,7,,,,,,,,4,0.40754,,,,,,,,,,,,,,,,,,,,,,,,,,,,3,weak,34,-116,1,0,0,response3disk,6,131,-2,-17,1,0,0,rectangle,-2,-17,1,0,0,5,3,0.000635,-2,-17,1,0,0,0,130,130,47,1,0,,,,,,,,,,,,,,,,,,,,,
,,,,,,,,,,,,,,,,,,,,,,,,,,,,,,,,,,,,,,,,,,5fbeeac30413241531d2a6ab,60684145a7ce64b42b4e022e,2021-04-03_12h19.54.928,Colour_Similarity_Experiment,2020.2.10,Win32,60,60674ec340277cd6a308bc9f,6.99747191,6.98131424,6.953184979,7.758333334,6.943804781,6.98131424,,,,,,,,,,,,,,,,,,,PF,weak,7,,,,,,,,2,1.666605,,,,,,,,,,,,,,,,,,,,,,,,,,,,8,weak,-113,-52,1,0,0,response5disk,9,132,-11,-3,1,0,0,rectangle,-11,-3,1,0,0,5,4,0.000405,-11,-3,1,0,0,0,131,131,42,1,0,,,,,,,,,,,,,,,,,,,,,
,,,,,,,,,,,,,,,,,,,,,,,,,,,,,,,,,,,,,,,,,,5fbeeac30413241531d2a6ab,60684145a7ce64b42b4e022e,2021-04-03_12h19.54.928,Colour_Similarity_Experiment,2020.2.10,Win32,60,60674ec340277cd6a308bc9f,6.99747191,6.98131424,6.953184979,7.758333334,6.943804781,6.98131424,,,,,,,,,,,,,,,,,,,PF,weak,7,,,,,,,,0,0.958095,,,,,,,,,,,,,,,,,,,,,,,,,,,,1,weak,-59,102,1,0,0,response7disk,1,133,-17,15,1,0,0,rectangle,119,29,1,0,0,6,6,1.425445,-35,-21,1,0,0,0,132,132,76,1,1,response1disk_3,rectangle,,,,,,,,,,,,,,,,,,,
,,,,,,,,,,,,,,,,,,,,,,,,,,,,,,,,,,,,,,,,,,5fbeeac30413241531d2a6ab,60684145a7ce64b42b4e022e,2021-04-03_12h19.54.928,Colour_Similarity_Experiment,2020.2.10,Win32,60,60674ec340277cd6a308bc9f,6.99747191,6.98131424,6.953184979,7.758333334,6.943804781,6.98131424,,,,,,,,,,,,,,,,,,,PF,weak,7,,,,,,,,7,1.17313,,,,,,,,,,,,,,,,,,,,,,,,,,,,7,weak,62,107,1,0,0,response1disk,1,134,12,6,1,0,0,rectangle,12,6,1,0,0,6,0,0.000415,12,6,1,0,0,0,133,133,53,1,0,,,,,,,,,,,,,,,,,,,,,
,,,,,,,,,,,,,,,,,,,,,,,,,,,,,,,,,,,,,,,,,,5fbeeac30413241531d2a6ab,60684145a7ce64b42b4e022e,2021-04-03_12h19.54.928,Colour_Similarity_Experiment,2020.2.10,Win32,60,60674ec340277cd6a308bc9f,6.99747191,6.98131424,6.953184979,7.758333334,6.943804781,6.98131424,,,,,,,,,,,,,,,,,,,PF,strong,7,,,,,,,,7,0.67142,,,,,,,,,,,,,,,,,,,,,,,,,,,,6,strong,60,100,1,0,0,response1disk,6,135,8,-6,1,0,0,rectangle,8,-6,1,0,0,6,6,0.000425,8,-6,1,0,0,0,134,134,91,1,0,,,,,,,,,,,,,,,,,,,,,
,,,,,,,,,,,,,,,,,,,,,,,,,,,,,,,,,,,,,,,,,,5fbeeac30413241531d2a6ab,60684145a7ce64b42b4e022e,2021-04-03_12h19.54.928,Colour_Similarity_Experiment,2020.2.10,Win32,60,60674ec340277cd6a308bc9f,6.99747191,6.98131424,6.953184979,7.758333334,6.943804781,6.98131424,,,,,,,,,,,,,,,,,,,PF,weak,7,,,,,,,,7,0.838145,,,,,,,,,,,,,,,,,,,,,,,,,,,,8,weak,56,91,1,0,0,response1disk,2,136,-7,2,1,0,0,rectangle,-7,2,1,0,0,6,7,0.000435,-7,2,1,0,0,0,135,135,83,1,0,,,,,,,,,,,,,,,,,,,,,
,,,,,,,,,,,,,,,,,,,,,,,,,,,,,,,,,,,,,,,,,,5fbeeac30413241531d2a6ab,60684145a7ce64b42b4e022e,2021-04-03_12h19.54.928,Colour_Similarity_Experiment,2020.2.10,Win32,60,60674ec340277cd6a308bc9f,6.99747191,6.98131424,6.953184979,7.758333334,6.943804781,6.98131424,,,,,,,,,,,,,,,,,,,PF,weak,7,,,,,,,,7,0.701415,,,,,,,,,,,,,,,,,,,,,,,,,,,,8,weak,40,84,1,0,0,response1disk,1,137,5,-5,1,0,0,rectangle,5,-5,1,0,0,6,2,0.000395,5,-5,1,0,0,0,136,136,57,1,0,,,,,,,,,,,,,,,,,,,,,
,,,,,,,,,,,,,,,,,,,,,,,,,,,,,,,,,,,,,,,,,,5fbeeac30413241531d2a6ab,60684145a7ce64b42b4e022e,2021-04-03_12h19.54.928,Colour_Similarity_Experiment,2020.2.10,Win32,60,60674ec340277cd6a308bc9f,6.99747191,6.98131424,6.953184979,7.758333334,6.943804781,6.98131424,,,,,,,,,,,,,,,,,,,PF,weak,7,,,,,,,,7,0.569435,,,,,,,,,,,,,,,,,,,,,,,,,,,,5,weak,51,71,1,0,0,response1disk,6,138,18,-4,1,0,0,rectangle,18,-4,1,0,0,6,2,6E-05,18,-4,1,0,0,0,137,137,103,1,0,,,,,,,,,,,,,,,,,,,,,
,,,,,,,,,,,,,,,,,,,,,,,,,,,,,,,,,,,,,,,,,,5fbeeac30413241531d2a6ab,60684145a7ce64b42b4e022e,2021-04-03_12h19.54.928,Colour_Similarity_Experiment,2020.2.10,Win32,60,60674ec340277cd6a308bc9f,6.99747191,6.98131424,6.953184979,7.758333334,6.943804781,6.98131424,,,,,,,,,,,,,,,,,,,PF,weak,7,,,,,,,,0,0.96308,,,,,,,,,,,,,,,,,,,,,,,,,,,,9,weak,-48,86,1,0,0,response7disk,8,139,-7,7,1,0,0,rectangle,-7,7,1,0,0,6,7,0.000435,-7,7,1,0,0,0,138,138,67,1,0,,,,,,,,,,,,,,,,,,,,,
,,,,,,,,,,,,,,,,,,,,,,,,,,,,,,,,,,,,,,,,,,5fbeeac30413241531d2a6ab,60684145a7ce64b42b4e022e,2021-04-03_12h19.54.928,Colour_Similarity_Experiment,2020.2.10,Win32,60,60674ec340277cd6a308bc9f,6.99747191,6.98131424,6.953184979,7.758333334,6.943804781,6.98131424,,,,,,,,,,,,,,,,,,,PF,strong,7,,,,,,,,0,0.99779,,,,,,,,,,,,,,,,,,,,,,,,,,,,3,strong,-64,85,1,0,0,response7disk,6,140,-2,-2,1,0,0,rectangle,-2,-2,1,0,0,6,4,0.00041,-2,-2,1,0,0,0,139,139,95,1,0,,,,,,,,,,,,,,,,,,,,,
,,,,,,,,,,,,,,,,,,,,,,,,,,,,,,,,,,,,,,,,,,5fbeeac30413241531d2a6ab,60684145a7ce64b42b4e022e,2021-04-03_12h19.54.928,Colour_Similarity_Experiment,2020.2.10,Win32,60,60674ec340277cd6a308bc9f,6.99747191,6.98131424,6.953184979,7.758333334,6.943804781,6.98131424,,,,,,,,,,,,,,,,,,,PF,weak,7,,,,,,,,0,0.678255,,,,,,,,,,,,,,,,,,,,,,,,,,,,6,weak,-41,79,1,0,0,response7disk,5,141,-3,2,1,0,0,rectangle,-3,2,1,0,0,6,2,0.000425,-3,2,1,0,0,0,140,140,59,1,0,,,,,,,,,,,,,,,,,,,,,
,,,,,,,,,,,,,,,,,,,,,,,,,,,,,,,,,,,,,,,,,,5fbeeac30413241531d2a6ab,60684145a7ce64b42b4e022e,2021-04-03_12h19.54.928,Colour_Similarity_Experiment,2020.2.10,Win32,60,60674ec340277cd6a308bc9f,6.99747191,6.98131424,6.953184979,7.758333334,6.943804781,6.98131424,,,,,,,,,,,,,,,,,,,PF,strong,7,,,,,,,,0,0.62292,,,,,,,,,,,,,,,,,,,,,,,,,,,,5,strong,-49,99,1,0,0,response7disk,1,142,-3,14,1,0,0,rectangle,-3,14,1,0,0,6,6,0.00042,-3,14,1,0,0,0,141,141,131,1,0,,,,,,,,,,,,,,,,,,,,,
,,,,,,,,,,,,,,,,,,,,,,,,,,,,,,,,,,,,,,,,,,5fbeeac30413241531d2a6ab,60684145a7ce64b42b4e022e,2021-04-03_12h19.54.928,Colour_Similarity_Experiment,2020.2.10,Win32,60,60674ec340277cd6a308bc9f,6.99747191,6.98131424,6.953184979,7.758333334,6.943804781,6.98131424,,,,,,,,,,,,,,,,,,,PF,weak,7,,,,,,,,0,1.296425,,,,,,,,,,,,,,,,,,,,,,,,,,,,4,weak,-52,86,1,0,0,response7disk,3,143,-6,6,1,0,0,rectangle,-6,6,1,0,0,6,0,0.00041,-6,6,1,0,0,0,142,142,89,1,0,,,,,,,,,,,,,,,,,,,,,
,,,,,,,,,,,,,,,,,,,,,,,,,,,,,,,,,,,,,,,,,,5fbeeac30413241531d2a6ab,60684145a7ce64b42b4e022e,2021-04-03_12h19.54.928,Colour_Similarity_Experiment,2020.2.10,Win32,60,60674ec340277cd6a308bc9f,6.99747191,6.98131424,6.953184979,7.758333334,6.943804781,6.98131424,,,,,,,,,,,,,,,,,,,PF,weak,7,,,,,,,,7,0.90935,,,,,,,,,,,,,,,,,,,,,,,,,,,,2,weak,58,87,1,0,0,response1disk,8,144,3,5,1,0,0,rectangle,3,5,1,0,0,6,3,0.0004,3,5,1,0,0,0,143,143,52,1,0,,,,,,,,,,,,,,,,,,,,,
,,,,,,,,,,,,,,,,,,,,,,,,,,,,,,,,,,,,,,,,,,5fbeeac30413241531d2a6ab,60684145a7ce64b42b4e022e,2021-04-03_12h19.54.928,Colour_Similarity_Experiment,2020.2.10,Win32,60,60674ec340277cd6a308bc9f,6.99747191,6.98131424,6.953184979,7.758333334,6.943804781,6.98131424,,,,,,,,,,,,,,,,,,,PF,strong,7,,,,,,,,0,0.923445,,,,,,,,,,,,,,,,,,,,,,,,,,,,4,strong,-54,82,1,0,0,response7disk,5,145,2,14,1,0,0,rectangle,2,14,1,0,0,6,3,5.5E-05,2,14,1,0,0,0,144,144,116,1,0,,,,,,,,,,,,,,,,,,,,,
,,,,,,,,,,,,,,,,,,,,,,,,,,,,,,,,,,,,,,,,,,5fbeeac30413241531d2a6ab,60684145a7ce64b42b4e022e,2021-04-03_12h19.54.928,Colour_Similarity_Experiment,2020.2.10,Win32,60,60674ec340277cd6a308bc9f,6.99747191,6.98131424,6.953184979,7.758333334,6.943804781,6.98131424,,,,,,,,,,,,,,,,,,,PF,strong,7,,,,,,,,4,0.78458,,,,,,,,,,,,,,,,,,,,,,,,,,,,6,strong,47,-112,1,0,0,response3disk,4,146,-6,0,1,0,0,rectangle,-6,0,1,0,0,6,7,0.000415,-6,0,1,0,0,0,145,145,56,1,0,,,,,,,,,,,,,,,,,,,,,
,,,,,,,,,,,,,,,,,,,,,,,,,,,,,,,,,,,,,,,,,,5fbeeac30413241531d2a6ab,60684145a7ce64b42b4e022e,2021-04-03_12h19.54.928,Colour_Similarity_Experiment,2020.2.10,Win32,60,60674ec340277cd6a308bc9f,6.99747191,6.98131424,6.953184979,7.758333334,6.943804781,6.98131424,,,,,,,,,,,,,,,,,,,PF,strong,7,,,,,,,,3,0.721965,,,,,,,,,,,,,,,,,,,,,,,,,,,,8,strong,-41,-86,1,0,0,response5disk,7,147,-24,9,1,0,0,rectangle,-24,9,1,0,0,6,1,0.00042,-24,9,1,0,0,0,146,146,86,1,0,,,,,,,,,,,,,,,,,,,,,
,,,,,,,,,,,,,,,,,,,,,,,,,,,,,,,,,,,,,,,,,,5fbeeac30413241531d2a6ab,60684145a7ce64b42b4e022e,2021-04-03_12h19.54.928,Colour_Similarity_Experiment,2020.2.10,Win32,60,60674ec340277cd6a308bc9f,6.99747191,6.98131424,6.953184979,7.758333334,6.943804781,6.98131424,,,,,,,,,,,,,,,,,,,PF,weak,7,,,,,,,,3,0.99088,,,,,,,,,,,,,,,,,,,,,,,,,,,,5,weak,-64,-99,1,0,0,response5disk,9,148,-20,-4,1,0,0,rectangle,-108,31,1,0,0,1,1,1.59727,1,-17,1,0,0,0,147,147,136,1,1,response7disk_3,rectangle,,,,,,,,,,,,,,,,,,,
,,,,,,,,,,,,,,,,,,,,,,,,,,,,,,,,,,,,,,,,,,5fbeeac30413241531d2a6ab,60684145a7ce64b42b4e022e,2021-04-03_12h19.54.928,Colour_Similarity_Experiment,2020.2.10,Win32,60,60674ec340277cd6a308bc9f,6.99747191,6.98131424,6.953184979,7.758333334,6.943804781,6.98131424,,,,,,,,,,,,,,,,,,,PF,weak,7,,,,,,,,7,1.56234,,,,,,,,,,,,,,,,,,,,,,,,,,,,7,weak,55,93,1,0,0,response1disk,9,149,2,7,1,0,0,rectangle,2,7,1,0,0,1,1,5.5E-05,2,7,1,0,0,0,148,148,10,1,0,,,,,,,,,,,,,,,,,,,,,
,,,,,,,,,,,,,,,,,,,,,,,,,,,,,,,,,,,,,,,,,,5fbeeac30413241531d2a6ab,60684145a7ce64b42b4e022e,2021-04-03_12h19.54.928,Colour_Similarity_Experiment,2020.2.10,Win32,60,60674ec340277cd6a308bc9f,6.99747191,6.98131424,6.953184979,7.758333334,6.943804781,6.98131424,,,,,,,,,,,,,,,,,,,PF,weak,7,,,,,,,,7,3.194385,,,,,,,,,,,,,,,,,,,,,,,,,,,,2,weak,51,80,1,0,0,response1disk,5,150,6,5,1,0,0,rectangle,6,5,1,0,0,1,2,0.00067,6,5,1,0,0,0,149,149,147,1,0,,,,,,,,,,,,,,,,,,,,,
,,,,,,,,,,,,,,,,,,,,,,,,,,,,,,,,,,,,,,,,,,5fbeeac30413241531d2a6ab,60684145a7ce64b42b4e022e,2021-04-03_12h19.54.928,Colour_Similarity_Experiment,2020.2.10,Win32,60,60674ec340277cd6a308bc9f,6.99747191,6.98131424,6.953184979,7.758333334,6.943804781,6.98131424,,,,,,,,,,,,,,,,,,,PF,strong,7,,,,,,,,4,0.96309,,,,,,,,,,,,,,,,,,,,,,,,,,,,3,strong,59,-106,1,0,0,response3disk,2,151,18,-1,1,0,0,rectangle,18,-1,1,0,0,1,6,0.00041,18,-1,1,0,0,0,150,150,93,1,0,,,,,,,,,,,,,,,,,,,,,
,,,,,,,,,,,,,,,,,,,,,,,,,,,,,,,,,,,,,,,,,,5fbeeac30413241531d2a6ab,60684145a7ce64b42b4e022e,2021-04-03_12h19.54.928,Colour_Similarity_Experiment,2020.2.10,Win32,60,60674ec340277cd6a308bc9f,6.99747191,6.98131424,6.953184979,7.758333334,6.943804781,6.98131424,,,,,,,,,,,,,,,,,,,PF,weak,7,,,,,,,,7,1.25473,,,,,,,,,,,,,,,,,,,,,,,,,,,,1,weak,37,77,1,0,0,response1disk,8,152,1,-13,1,0,0,rectangle,1,-13,1,0,0,1,3,0.00041,1,-13,1,0,0,0,151,151,65,1,0,,,,,,,,,,,,,,,,,,,,,
,,,,,,,,,,,,,,,,,,,,,,,,,,,,,,,,,,,,,,,,,,5fbeeac30413241531d2a6ab,60684145a7ce64b42b4e022e,2021-04-03_12h19.54.928,Colour_Similarity_Experiment,2020.2.10,Win32,60,60674ec340277cd6a308bc9f,6.99747191,6.98131424,6.953184979,7.758333334,6.943804781,6.98131424,,,,,,,,,,,,,,,,,,,PF,strong,7,,,,,,,,3,2.567855,,,,,,,,,,,,,,,,,,,,,,,,,,,,3,strong,-57,-111,1,0,0,response5disk,7,153,-19,6,1,0,0,rectangle,-19,6,1,0,0,1,5,0.00041,-19,6,1,0,0,0,152,152,118,1,0,,,,,,,,,,,,,,,,,,,,,
,,,,,,,,,,,,,,,,,,,,,,,,,,,,,,,,,,,,,,,,,,5fbeeac30413241531d2a6ab,60684145a7ce64b42b4e022e,2021-04-03_12h19.54.928,Colour_Similarity_Experiment,2020.2.10,Win32,60,60674ec340277cd6a308bc9f,6.99747191,6.98131424,6.953184979,7.758333334,6.943804781,6.98131424,,,,,,,,,,,,,,,,,,,PF,strong,7,,,,,,,,3,0.706,,,,,,,,,,,,,,,,,,,,,,,,,,,,6,strong,-51,-113,1,0,0,response5disk,7,154,-19,-3,1,0,0,rectangle,-19,-3,1,0,0,1,3,0.000405,-19,-3,1,0,0,0,153,153,18,1,0,,,,,,,,,,,,,,,,,,,,,
,,,,,,,,,,,,,,,,,,,,,,,,,,,,,,,,,,,,,,,,,,5fbeeac30413241531d2a6ab,60684145a7ce64b42b4e022e,2021-04-03_12h19.54.928,Colour_Similarity_Experiment,2020.2.10,Win32,60,60674ec340277cd6a308bc9f,6.99747191,6.98131424,6.953184979,7.758333334,6.943804781,6.98131424,,,,,,,,,,,,,,,,,,,PF,weak,7,,,,,,,,7,1.102,,,,,,,,,,,,,,,,,,,,,,,,,,,,4,weak,46,98,1,0,0,response1disk,8,155,8,9,1,0,0,rectangle,8,9,1,0,0,1,1,0.000405,8,9,1,0,0,0,154,154,124,1,0,,,,,,,,,,,,,,,,,,,,,
,,,,,,,,,,,,,,,,,,,,,,,,,,,,,,,,,,,,,,,,,,5fbeeac30413241531d2a6ab,60684145a7ce64b42b4e022e,2021-04-03_12h19.54.928,Colour_Similarity_Experiment,2020.2.10,Win32,60,60674ec340277cd6a308bc9f,6.99747191,6.98131424,6.953184979,7.758333334,6.943804781,6.98131424,,,,,,,,,,,,,,,,,,,PF,weak,7,,,,,,,,7,0.831165,,,,,,,,,,,,,,,,,,,,,,,,,,,,4,weak,63,103,1,0,0,response1disk,6,156,10,20,1,0,0,rectangle,10,20,1,0,0,1,0,0.000405,10,20,1,0,0,0,155,155,120,1,0,,,,,,,,,,,,,,,,,,,,,
,,,,,,,,,,,,,,,,,,,,,,,,,,,,,,,,,,,,,,,,,,5fbeeac30413241531d2a6ab,60684145a7ce64b42b4e022e,2021-04-03_12h19.54.928,Colour_Similarity_Experiment,2020.2.10,Win32,60,60674ec340277cd6a308bc9f,6.99747191,6.98131424,6.953184979,7.758333334,6.943804781,6.98131424,,,,,,,,,,,,,,,,,,,PF,strong,7,,,,,,,,7,0.78265,,,,,,,,,,,,,,,,,,,,,,,,,,,,7,strong,57,81,1,0,0,response1disk,9,157,8,-2,1,0,0,rectangle,8,-2,1,0,0,1,0,5.5E-05,8,-2,1,0,0,0,156,156,155,1,0,,,,,,,,,,,,,,,,,,,,,
,,,,,,,,,,,,,,,,,,,,,,,,,,,,,,,,,,,,,,,,,,5fbeeac30413241531d2a6ab,60684145a7ce64b42b4e022e,2021-04-03_12h19.54.928,Colour_Similarity_Experiment,2020.2.10,Win32,60,60674ec340277cd6a308bc9f,6.99747191,6.98131424,6.953184979,7.758333334,6.943804781,6.98131424,,,,,,,,,,,,,,,,,,,PF,weak,7,,,,,,,,7,0.763695,,,,,,,,,,,,,,,,,,,,,,,,,,,,1,weak,61,93,1,0,0,response1disk,5,158,11,12,1,0,0,rectangle,11,12,1,0,0,1,5,0.000395,11,12,1,0,0,0,157,157,28,1,0,,,,,,,,,,,,,,,,,,,,,
,,,,,,,,,,,,,,,,,,,,,,,,,,,,,,,,,,,,,,,,,,5fbeeac30413241531d2a6ab,60684145a7ce64b42b4e022e,2021-04-03_12h19.54.928,Colour_Similarity_Experiment,2020.2.10,Win32,60,60674ec340277cd6a308bc9f,6.99747191,6.98131424,6.953184979,7.758333334,6.943804781,6.98131424,,,,,,,,,,,,,,,,,,,PF,strong,7,,,,,,,,0,1.22901,,,,,,,,,,,,,,,,,,,,,,,,,,,,1,strong,-73,112,1,0,0,response7disk,4,159,-4,-4,1,0,0,rectangle,-4,-4,1,0,0,1,0,0.000415,-4,-4,1,0,0,0,158,158,135,1,0,,,,,,,,,,,,,,,,,,,,,
,,,,,,,,,,,,,,,,,,,,,,,,,,,,,,,,,,,,,,,,,,5fbeeac30413241531d2a6ab,60684145a7ce64b42b4e022e,2021-04-03_12h19.54.928,Colour_Similarity_Experiment,2020.2.10,Win32,60,60674ec340277cd6a308bc9f,6.99747191,6.98131424,6.953184979,7.758333334,6.943804781,6.98131424,,,,,,,,,,,,,,,,,,,PF,strong,7,,,,,,,,2,6.12492,,,,,,,,,,,,,,,,,,,,,,,,,,,,3,strong,-86,-30,1,0,0,response5disk,4,160,8,13,1,0,0,rectangle,8,13,1,0,0,1,4,0.00041,8,13,1,0,0,0,159,159,110,1,0,,,,,,,,,,,,,,,,,,,,,
,,,,,,,,,,,,,,,,,,,,,,,,,,,,,,,,,,,,,,,,,,5fbeeac30413241531d2a6ab,60684145a7ce64b42b4e022e,2021-04-03_12h19.54.928,Colour_Similarity_Experiment,2020.2.10,Win32,60,60674ec340277cd6a308bc9f,6.99747191,6.98131424,6.953184979,7.758333334,6.943804781,6.98131424,,,,,,,,,,,,,,,,,,,PF,weak,7,,,,,,,,7,2.78257,,,,,,,,,,,,,,,,,,,,,,,,,,,,3,weak,43,90,1,0,0,response1disk,1,161,-1,2,1,0,0,rectangle,-1,2,1,0,0,1,5,0.0004,-1,2,1,0,0,0,160,160,96,1,0,,,,,,,,,,,,,,,,,,,,,
,,,,,,,,,,,,,,,,,,,,,,,,,,,,,,,,,,,,,,,,,,5fbeeac30413241531d2a6ab,60684145a7ce64b42b4e022e,2021-04-03_12h19.54.928,Colour_Similarity_Experiment,2020.2.10,Win32,60,60674ec340277cd6a308bc9f,6.99747191,6.98131424,6.953184979,7.758333334,6.943804781,6.98131424,,,,,,,,,,,,,,,,,,,PF,weak,7,,,,,,,,7,3.303445,,,,,,,,,,,,,,,,,,,,,,,,,,,,3,weak,34,69,1,0,0,response1disk,4,162,5,6,1,0,0,rectangle,5,6,1,0,0,1,2,0.00042,5,6,1,0,0,0,161,161,30,1,0,,,,,,,,,,,,,,,,,,,,,
,,,,,,,,,,,,,,,,,,,,,,,,,,,,,,,,,,,,,,,,,,5fbeeac30413241531d2a6ab,60684145a7ce64b42b4e022e,2021-04-03_12h19.54.928,Colour_Similarity_Experiment,2020.2.10,Win32,60,60674ec340277cd6a308bc9f,6.99747191,6.98131424,6.953184979,7.758333334,6.943804781,6.98131424,,,,,,,,,,,,,,,,,,,,,,,,,,,,,,,,,,,,,,,,,,,,,,,,,,,,,,,,,,,,,,,,,,,,,,,,,,,,,,,,,,,,,,,,,,,,,,,0,0,0,0,1,,,,,,,,,,,,,,
,,,,,,,,,,,,,,,,,,,,,,,,,,,,,,,,,,,,,,,,,,5fbeeac30413241531d2a6ab,60684145a7ce64b42b4e022e,2021-04-03_12h19.54.928,Colour_Similarity_Experiment,2020.2.10,Win32,60,60674ec340277cd6a308bc9f,6.99747191,6.98131424,6.953184979,7.758333334,6.943804781,6.98131424,,,,,,,,,,,,,,,,,,,PF,strong,7,,,,,,,,3,3.111255,,,,,,,,,,,,,,,,,,,,,,,,,,,,4,strong,-63,-98,1,0,0,response5disk,6,163,-6,-3,1,0,0,rectangle,-6,-3,1,0,0,1,5,0.00041,-6,-3,1,0,0,0,0,0,122,1,0,,,,,,,,,,,,,,,,,,,,,
,,,,,,,,,,,,,,,,,,,,,,,,,,,,,,,,,,,,,,,,,,5fbeeac30413241531d2a6ab,60684145a7ce64b42b4e022e,2021-04-03_12h19.54.928,Colour_Similarity_Experiment,2020.2.10,Win32,60,60674ec340277cd6a308bc9f,6.99747191,6.98131424,6.953184979,7.758333334,6.943804781,6.98131424,,,,,,,,,,,,,,,,,,,PF,weak,7,,,,,,,,0,1.757515,,,,,,,,,,,,,,,,,,,,,,,,,,,,7,weak,-40,90,1,0,0,response7disk,6,164,7,-12,1,0,0,rectangle,7,-12,1,0,0,1,5,6.5E-05,7,-12,1,0,0,0,1,1,29,1,0,,,,,,,,,,,,,,,,,,,,,
,,,,,,,,,,,,,,,,,,,,,,,,,,,,,,,,,,,,,,,,,,5fbeeac30413241531d2a6ab,60684145a7ce64b42b4e022e,2021-04-03_12h19.54.928,Colour_Similarity_Experiment,2020.2.10,Win32,60,60674ec340277cd6a308bc9f,6.99747191,6.98131424,6.953184979,7.758333334,6.943804781,6.98131424,,,,,,,,,,,,,,,,,,,PF,strong,7,,,,,,,,0,1.368125,,,,,,,,,,,,,,,,,,,,,,,,,,,,8,strong,-40,75,1,0,0,response7disk,4,165,-3,-7,1,0,0,rectangle,-3,-7,1,0,0,1,2,0.000945,-3,-7,1,0,0,0,2,2,88,1,0,,,,,,,,,,,,,,,,,,,,,
,,,,,,,,,,,,,,,,,,,,,,,,,,,,,,,,,,,,,,,,,,5fbeeac30413241531d2a6ab,60684145a7ce64b42b4e022e,2021-04-03_12h19.54.928,Colour_Similarity_Experiment,2020.2.10,Win32,60,60674ec340277cd6a308bc9f,6.99747191,6.98131424,6.953184979,7.758333334,6.943804781,6.98131424,,,,,,,,,,,,,,,,,,,PF,strong,7,,,,,,,,0,0.84729,,,,,,,,,,,,,,,,,,,,,,,,,,,,9,strong,-36,75,1,0,0,response7disk,4,166,10,-4,1,0,0,rectangle,10,-4,1,0,0,1,5,0.00041,10,-4,1,0,0,0,3,3,60,1,0,,,,,,,,,,,,,,,,,,,,,
,,,,,,,,,,,,,,,,,,,,,,,,,,,,,,,,,,,,,,,,,,5fbeeac30413241531d2a6ab,60684145a7ce64b42b4e022e,2021-04-03_12h19.54.928,Colour_Similarity_Experiment,2020.2.10,Win32,60,60674ec340277cd6a308bc9f,6.99747191,6.98131424,6.953184979,7.758333334,6.943804781,6.98131424,,,,,,,,,,,,,,,,,,,PF,strong,7,,,,,,,,7,0.97226,,,,,,,,,,,,,,,,,,,,,,,,,,,,8,strong,54,77,1,0,0,response1disk,1,167,3,8,1,0,0,rectangle,3,8,1,0,0,1,0,0.000405,3,8,1,0,0,0,4,4,20,1,0,,,,,,,,,,,,,,,,,,,,,
,,,,,,,,,,,,,,,,,,,,,,,,,,,,,,,,,,,,,,,,,,5fbeeac30413241531d2a6ab,60684145a7ce64b42b4e022e,2021-04-03_12h19.54.928,Colour_Similarity_Experiment,2020.2.10,Win32,60,60674ec340277cd6a308bc9f,6.99747191,6.98131424,6.953184979,7.758333334,6.943804781,6.98131424,,,,,,,,,,,,,,,,,,,PF,strong,7,,,,,,,,0,0.87508,,,,,,,,,,,,,,,,,,,,,,,,,,,,5,strong,-42,70,1,0,0,response7disk,3,168,-9,4,1,0,0,rectangle,-9,4,1,0,0,1,1,0.000405,-9,4,1,0,0,0,5,5,25,1,0,,,,,,,,,,,,,,,,,,,,,
,,,,,,,,,,,,,,,,,,,,,,,,,,,,,,,,,,,,,,,,,,5fbeeac30413241531d2a6ab,60684145a7ce64b42b4e022e,2021-04-03_12h19.54.928,Colour_Similarity_Experiment,2020.2.10,Win32,60,60674ec340277cd6a308bc9f,6.99747191,6.98131424,6.953184979,7.758333334,6.943804781,6.98131424,,,,,,,,,,,,,,,,,,,PF,strong,7,,,,,,,,3,0.97966,,,,,,,,,,,,,,,,,,,,,,,,,,,,9,strong,-35,-100,1,0,0,response5disk,8,169,-4,1,1,0,0,rectangle,-4,1,1,0,0,1,6,0.000455,-4,1,1,0,0,0,6,6,6,1,0,,,,,,,,,,,,,,,,,,,,,
,,,,,,,,,,,,,,,,,,,,,,,,,,,,,,,,,,,,,,,,,,5fbeeac30413241531d2a6ab,60684145a7ce64b42b4e022e,2021-04-03_12h19.54.928,Colour_Similarity_Experiment,2020.2.10,Win32,60,60674ec340277cd6a308bc9f,6.99747191,6.98131424,6.953184979,7.758333334,6.943804781,6.98131424,,,,,,,,,,,,,,,,,,,PF,weak,7,,,,,,,,7,1.090335,,,,,,,,,,,,,,,,,,,,,,,,,,,,3,weak,60,80,1,0,0,response1disk,8,170,8,3,1,0,0,rectangle,8,3,1,0,0,1,5,0.00043,8,3,1,0,0,0,7,7,3,1,0,,,,,,,,,,,,,,,,,,,,,
,,,,,,,,,,,,,,,,,,,,,,,,,,,,,,,,,,,,,,,,,,5fbeeac30413241531d2a6ab,60684145a7ce64b42b4e022e,2021-04-03_12h19.54.928,Colour_Similarity_Experiment,2020.2.10,Win32,60,60674ec340277cd6a308bc9f,6.99747191,6.98131424,6.953184979,7.758333334,6.943804781,6.98131424,,,,,,,,,,,,,,,,,,,PF,strong,7,,,,,,,,0,1.152825,,,,,,,,,,,,,,,,,,,,,,,,,,,,1,strong,-30,69,1,0,0,response7disk,3,171,6,4,1,0,0,rectangle,6,4,1,0,0,1,4,0.000405,6,4,1,0,0,0,8,8,99,1,0,,,,,,,,,,,,,,,,,,,,,
,,,,,,,,,,,,,,,,,,,,,,,,,,,,,,,,,,,,,,,,,,5fbeeac30413241531d2a6ab,60684145a7ce64b42b4e022e,2021-04-03_12h19.54.928,Colour_Similarity_Experiment,2020.2.10,Win32,60,60674ec340277cd6a308bc9f,6.99747191,6.98131424,6.953184979,7.758333334,6.943804781,6.98131424,,,,,,,,,,,,,,,,,,,PF,weak,7,,,,,,,,7,0.81247,,,,,,,,,,,,,,,,,,,,,,,,,,,,9,weak,67,103,1,0,0,response1disk,1,172,21,5,1,0,0,rectangle,21,5,1,0,0,1,2,0.00041,21,5,1,0,0,0,9,9,74,1,0,,,,,,,,,,,,,,,,,,,,,
,,,,,,,,,,,,,,,,,,,,,,,,,,,,,,,,,,,,,,,,,,5fbeeac30413241531d2a6ab,60684145a7ce64b42b4e022e,2021-04-03_12h19.54.928,Colour_Similarity_Experiment,2020.2.10,Win32,60,60674ec340277cd6a308bc9f,6.99747191,6.98131424,6.953184979,7.758333334,6.943804781,6.98131424,,,,,,,,,,,,,,,,,,,PF,weak,7,,,,,,,,4,0.826605,,,,,,,,,,,,,,,,,,,,,,,,,,,,4,weak,57,-91,1,0,0,response3disk,2,173,22,-8,1,0,0,rectangle,22,-8,1,0,0,1,4,0.0004,22,-8,1,0,0,0,10,10,108,1,0,,,,,,,,,,,,,,,,,,,,,
,,,,,,,,,,,,,,,,,,,,,,,,,,,,,,,,,,,,,,,,,,5fbeeac30413241531d2a6ab,60684145a7ce64b42b4e022e,2021-04-03_12h19.54.928,Colour_Similarity_Experiment,2020.2.10,Win32,60,60674ec340277cd6a308bc9f,6.99747191,6.98131424,6.953184979,7.758333334,6.943804781,6.98131424,,,,,,,,,,,,,,,,,,,PF,strong,7,,,,,,,,4,0.839465,,,,,,,,,,,,,,,,,,,,,,,,,,,,2,strong,33,-92,1,0,0,response3disk,8,174,18,-12,1,0,0,rectangle,18,-12,1,0,0,1,4,5.5E-05,18,-12,1,0,0,0,11,11,62,1,0,,,,,,,,,,,,,,,,,,,,,
,,,,,,,,,,,,,,,,,,,,,,,,,,,,,,,,,,,,,,,,,,5fbeeac30413241531d2a6ab,60684145a7ce64b42b4e022e,2021-04-03_12h19.54.928,Colour_Similarity_Experiment,2020.2.10,Win32,60,60674ec340277cd6a308bc9f,6.99747191,6.98131424,6.953184979,7.758333334,6.943804781,6.98131424,,,,,,,,,,,,,,,,,,,PF,strong,7,,,,,,,,0,1.324175,,,,,,,,,,,,,,,,,,,,,,,,,,,,5,strong,-30,68,1,0,0,response7disk,5,175,6,1,1,0,0,rectangle,6,1,1,0,0,1,1,0.000435,6,1,1,0,0,0,12,12,19,1,0,,,,,,,,,,,,,,,,,,,,,
,,,,,,,,,,,,,,,,,,,,,,,,,,,,,,,,,,,,,,,,,,5fbeeac30413241531d2a6ab,60684145a7ce64b42b4e022e,2021-04-03_12h19.54.928,Colour_Similarity_Experiment,2020.2.10,Win32,60,60674ec340277cd6a308bc9f,6.99747191,6.98131424,6.953184979,7.758333334,6.943804781,6.98131424,,,,,,,,,,,,,,,,,,,PF,weak,7,,,,,,,,0,0.84706,,,,,,,,,,,,,,,,,,,,,,,,,,,,3,weak,-49,92,1,0,0,response7disk,5,176,-5,6,1,0,0,rectangle,-5,6,1,0,0,1,4,0.0004,-5,6,1,0,0,0,13,13,66,1,0,,,,,,,,,,,,,,,,,,,,,
,,,,,,,,,,,,,,,,,,,,,,,,,,,,,,,,,,,,,,,,,,5fbeeac30413241531d2a6ab,60684145a7ce64b42b4e022e,2021-04-03_12h19.54.928,Colour_Similarity_Experiment,2020.2.10,Win32,60,60674ec340277cd6a308bc9f,6.99747191,6.98131424,6.953184979,7.758333334,6.943804781,6.98131424,,,,,,,,,,,,,,,,,,,PF,weak,7,,,,,,,,7,0.805235,,,,,,,,,,,,,,,,,,,,,,,,,,,,1,weak,48,89,1,0,0,response1disk,2,177,-4,-4,1,0,0,rectangle,-4,-4,1,0,0,1,3,0.0004,-4,-4,1,0,0,0,14,14,24,1,0,,,,,,,,,,,,,,,,,,,,,
,,,,,,,,,,,,,,,,,,,,,,,,,,,,,,,,,,,,,,,,,,5fbeeac30413241531d2a6ab,60684145a7ce64b42b4e022e,2021-04-03_12h19.54.928,Colour_Similarity_Experiment,2020.2.10,Win32,60,60674ec340277cd6a308bc9f,6.99747191,6.98131424,6.953184979,7.758333334,6.943804781,6.98131424,,,,,,,,,,,,,,,,,,,PF,weak,7,,,,,,,,4,0.685325,,,,,,,,,,,,,,,,,,,,,,,,,,,,2,weak,43,-94,1,0,0,response3disk,9,178,5,-20,1,0,0,rectangle,5,-20,1,0,0,1,4,0.000405,5,-20,1,0,0,0,15,15,39,1,0,,,,,,,,,,,,,,,,,,,,,
,,,,,,,,,,,,,,,,,,,,,,,,,,,,,,,,,,,,,,,,,,5fbeeac30413241531d2a6ab,60684145a7ce64b42b4e022e,2021-04-03_12h19.54.928,Colour_Similarity_Experiment,2020.2.10,Win32,60,60674ec340277cd6a308bc9f,6.99747191,6.98131424,6.953184979,7.758333334,6.943804781,6.98131424,,,,,,,,,,,,,,,,,,,PF,strong,7,,,,,,,,3,0.722115,,,,,,,,,,,,,,,,,,,,,,,,,,,,7,strong,-48,-122,1,0,0,response5disk,7,179,4,-9,1,0,0,rectangle,4,-9,1,0,0,1,7,0.00042,4,-9,1,0,0,0,16,16,34,1,0,,,,,,,,,,,,,,,,,,,,,
,,,,,,,,,,,,,,,,,,,,,,,,,,,,,,,,,,,,,,,,,,5fbeeac30413241531d2a6ab,60684145a7ce64b42b4e022e,2021-04-03_12h19.54.928,Colour_Similarity_Experiment,2020.2.10,Win32,60,60674ec340277cd6a308bc9f,6.99747191,6.98131424,6.953184979,7.758333334,6.943804781,6.98131424,,,,,,,,,,,,,,,,,,,PF,weak,7,,,,,,,,7,0.97003,,,,,,,,,,,,,,,,,,,,,,,,,,,,9,weak,52,80,1,0,0,response1disk,3,180,-1,-1,1,0,0,rectangle,-1,-1,1,0,0,1,5,0.00042,-1,-1,1,0,0,0,17,17,119,1,0,,,,,,,,,,,,,,,,,,,,,
,,,,,,,,,,,,,,,,,,,,,,,,,,,,,,,,,,,,,,,,,,5fbeeac30413241531d2a6ab,60684145a7ce64b42b4e022e,2021-04-03_12h19.54.928,Colour_Similarity_Experiment,2020.2.10,Win32,60,60674ec340277cd6a308bc9f,6.99747191,6.98131424,6.953184979,7.758333334,6.943804781,6.98131424,,,,,,,,,,,,,,,,,,,PF,weak,7,,,,,,,,2,0.71503,,,,,,,,,,,,,,,,,,,,,,,,,,,,2,weak,-85,-45,1,0,0,response5disk,4,181,8,1,1,0,0,rectangle,8,1,1,0,0,1,6,0.00043,8,1,1,0,0,0,18,18,127,1,0,,,,,,,,,,,,,,,,,,,,,
,,,,,,,,,,,,,,,,,,,,,,,,,,,,,,,,,,,,,,,,,,5fbeeac30413241531d2a6ab,60684145a7ce64b42b4e022e,2021-04-03_12h19.54.928,Colour_Similarity_Experiment,2020.2.10,Win32,60,60674ec340277cd6a308bc9f,6.99747191,6.98131424,6.953184979,7.758333334,6.943804781,6.98131424,,,,,,,,,,,,,,,,,,,PF,weak,7,,,,,,,,0,1.42817,,,,,,,,,,,,,,,,,,,,,,,,,,,,1,weak,-55,78,1,0,0,response7disk,9,182,-5,1,1,0,0,rectangle,-5,1,1,0,0,1,4,0.000405,-5,1,1,0,0,0,19,19,15,1,0,,,,,,,,,,,,,,,,,,,,,
,,,,,,,,,,,,,,,,,,,,,,,,,,,,,,,,,,,,,,,,,,5fbeeac30413241531d2a6ab,60684145a7ce64b42b4e022e,2021-04-03_12h19.54.928,Colour_Similarity_Experiment,2020.2.10,Win32,60,60674ec340277cd6a308bc9f,6.99747191,6.98131424,6.953184979,7.758333334,6.943804781,6.98131424,,,,,,,,,,,,,,,,,,,PF,weak,7,,,,,,,,3,0.643645,,,,,,,,,,,,,,,,,,,,,,,,,,,,9,weak,-43,-109,1,0,0,response5disk,4,183,-22,-6,1,0,0,rectangle,-22,-6,1,0,0,1,3,0.00041,-22,-6,1,0,0,0,20,20,114,1,0,,,,,,,,,,,,,,,,,,,,,
,,,,,,,,,,,,,,,,,,,,,,,,,,,,,,,,,,,,,,,,,,5fbeeac30413241531d2a6ab,60684145a7ce64b42b4e022e,2021-04-03_12h19.54.928,Colour_Similarity_Experiment,2020.2.10,Win32,60,60674ec340277cd6a308bc9f,6.99747191,6.98131424,6.953184979,7.758333334,6.943804781,6.98131424,,,,,,,,,,,,,,,,,,,PF,weak,7,,,,,,,,5,1.01864,,,,,,,,,,,,,,,,,,,,,,,,,,,,5,weak,96,-89,1,0,0,response3disk,5,184,-25,-11,1,0,0,rectangle,-25,-11,1,0,0,1,3,5.5E-05,-25,-11,1,0,0,0,21,21,94,1,0,,,,,,,,,,,,,,,,,,,,,
,,,,,,,,,,,,,,,,,,,,,,,,,,,,,,,,,,,,,,,,,,5fbeeac30413241531d2a6ab,60684145a7ce64b42b4e022e,2021-04-03_12h19.54.928,Colour_Similarity_Experiment,2020.2.10,Win32,60,60674ec340277cd6a308bc9f,6.99747191,6.98131424,6.953184979,7.758333334,6.943804781,6.98131424,,,,,,,,,,,,,,,,,,,PF,strong,7,,,,,,,,3,0.59699,,,,,,,,,,,,,,,,,,,,,,,,,,,,2,strong,-66,-114,1,0,0,response5disk,3,185,-13,-2,1,0,0,rectangle,-103,32,1,0,0,1,1,1.743465,7,-12,1,0,0,0,22,22,104,1,1,response7disk_3,rectangle,,,,,,,,,,,,,,,,,,,
,,,,,,,,,,,,,,,,,,,,,,,,,,,,,,,,,,,,,,,,,,5fbeeac30413241531d2a6ab,60684145a7ce64b42b4e022e,2021-04-03_12h19.54.928,Colour_Similarity_Experiment,2020.2.10,Win32,60,60674ec340277cd6a308bc9f,6.99747191,6.98131424,6.953184979,7.758333334,6.943804781,6.98131424,,,,,,,,,,,,,,,,,,,PF,strong,7,,,,,,,,3,1.463135,,,,,,,,,,,,,,,,,,,,,,,,,,,,1,strong,-46,-95,1,0,0,response5disk,6,186,2,3,1,0,0,rectangle,2,3,1,0,0,1,0,0.000405,2,3,1,0,0,0,23,23,58,1,0,,,,,,,,,,,,,,,,,,,,,
,,,,,,,,,,,,,,,,,,,,,,,,,,,,,,,,,,,,,,,,,,5fbeeac30413241531d2a6ab,60684145a7ce64b42b4e022e,2021-04-03_12h19.54.928,Colour_Similarity_Experiment,2020.2.10,Win32,60,60674ec340277cd6a308bc9f,6.99747191,6.98131424,6.953184979,7.758333334,6.943804781,6.98131424,,,,,,,,,,,,,,,,,,,PF,strong,7,,,,,,,,0,1.24777,,,,,,,,,,,,,,,,,,,,,,,,,,,,6,strong,-41,89,1,0,0,response7disk,8,187,12,-14,1,0,0,rectangle,12,-14,1,0,0,1,0,6E-05,12,-14,1,0,0,0,24,24,133,1,0,,,,,,,,,,,,,,,,,,,,,
,,,,,,,,,,,,,,,,,,,,,,,,,,,,,,,,,,,,,,,,,,5fbeeac30413241531d2a6ab,60684145a7ce64b42b4e022e,2021-04-03_12h19.54.928,Colour_Similarity_Experiment,2020.2.10,Win32,60,60674ec340277cd6a308bc9f,6.99747191,6.98131424,6.953184979,7.758333334,6.943804781,6.98131424,,,,,,,,,,,,,,,,,,,PF,strong,7,,,,,,,,3,0.62483,,,,,,,,,,,,,,,,,,,,,,,,,,,,9,strong,-41,-98,1,0,0,response5disk,3,188,5,-14,1,0,0,rectangle,5,-14,1,0,0,1,6,0.000415,5,-14,1,0,0,0,25,25,141,1,0,,,,,,,,,,,,,,,,,,,,,
,,,,,,,,,,,,,,,,,,,,,,,,,,,,,,,,,,,,,,,,,,5fbeeac30413241531d2a6ab,60684145a7ce64b42b4e022e,2021-04-03_12h19.54.928,Colour_Similarity_Experiment,2020.2.10,Win32,60,60674ec340277cd6a308bc9f,6.99747191,6.98131424,6.953184979,7.758333334,6.943804781,6.98131424,,,,,,,,,,,,,,,,,,,PF,weak,7,,,,,,,,4,0.49298,,,,,,,,,,,,,,,,,,,,,,,,,,,,9,weak,48,-113,1,0,0,response3disk,2,189,-8,8,1,0,0,rectangle,-8,8,1,0,0,1,6,6E-05,-8,8,1,0,0,0,26,26,157,1,0,,,,,,,,,,,,,,,,,,,,,
,,,,,,,,,,,,,,,,,,,,,,,,,,,,,,,,,,,,,,,,,,5fbeeac30413241531d2a6ab,60684145a7ce64b42b4e022e,2021-04-03_12h19.54.928,Colour_Similarity_Experiment,2020.2.10,Win32,60,60674ec340277cd6a308bc9f,6.99747191,6.98131424,6.953184979,7.758333334,6.943804781,6.98131424,,,,,,,,,,,,,,,,,,,PF,weak,7,,,,,,,,7,3.034375,,,,,,,,,,,,,,,,,,,,,,,,,,,,3,weak,63,97,1,0,0,response1disk,7,190,3,2,1,0,0,rectangle,3,2,1,0,0,1,3,0.000405,3,2,1,0,0,0,27,27,41,1,0,,,,,,,,,,,,,,,,,,,,,
,,,,,,,,,,,,,,,,,,,,,,,,,,,,,,,,,,,,,,,,,,5fbeeac30413241531d2a6ab,60684145a7ce64b42b4e022e,2021-04-03_12h19.54.928,Colour_Similarity_Experiment,2020.2.10,Win32,60,60674ec340277cd6a308bc9f,6.99747191,6.98131424,6.953184979,7.758333334,6.943804781,6.98131424,,,,,,,,,,,,,,,,,,,PF,strong,7,,,,,,,,4,0.706015,,,,,,,,,,,,,,,,,,,,,,,,,,,,8,strong,48,-124,1,0,0,response3disk,6,191,-16,4,1,0,0,rectangle,-16,4,1,0,0,1,2,0.000405,-16,4,1,0,0,0,28,28,37,1,0,,,,,,,,,,,,,,,,,,,,,
,,,,,,,,,,,,,,,,,,,,,,,,,,,,,,,,,,,,,,,,,,5fbeeac30413241531d2a6ab,60684145a7ce64b42b4e022e,2021-04-03_12h19.54.928,Colour_Similarity_Experiment,2020.2.10,Win32,60,60674ec340277cd6a308bc9f,6.99747191,6.98131424,6.953184979,7.758333334,6.943804781,6.98131424,,,,,,,,,,,,,,,,,,,PF,weak,7,,,,,,,,0,1.504735,,,,,,,,,,,,,,,,,,,,,,,,,,,,8,weak,-39,84,1,0,0,response7disk,3,192,-5,-8,1,0,0,rectangle,-5,-8,1,0,0,1,0,0.00044,-5,-8,1,0,0,0,29,29,71,1,0,,,,,,,,,,,,,,,,,,,,,
,,,,,,,,,,,,,,,,,,,,,,,,,,,,,,,,,,,,,,,,,,5fbeeac30413241531d2a6ab,60684145a7ce64b42b4e022e,2021-04-03_12h19.54.928,Colour_Similarity_Experiment,2020.2.10,Win32,60,60674ec340277cd6a308bc9f,6.99747191,6.98131424,6.953184979,7.758333334,6.943804781,6.98131424,,,,,,,,,,,,,,,,,,,PF,strong,7,,,,,,,,0,1.19917,,,,,,,,,,,,,,,,,,,,,,,,,,,,4,strong,-45,75,1,0,0,response7disk,3,193,5,-19,1,0,0,rectangle,5,-19,1,0,0,1,7,0.00044,5,-19,1,0,0,0,30,30,77,1,0,,,,,,,,,,,,,,,,,,,,,
,,,,,,,,,,,,,,,,,,,,,,,,,,,,,,,,,,,,,,,,,,5fbeeac30413241531d2a6ab,60684145a7ce64b42b4e022e,2021-04-03_12h19.54.928,Colour_Similarity_Experiment,2020.2.10,Win32,60,60674ec340277cd6a308bc9f,6.99747191,6.98131424,6.953184979,7.758333334,6.943804781,6.98131424,,,,,,,,,,,,,,,,,,,PF,strong,7,,,,,,,,7,1.06029,,,,,,,,,,,,,,,,,,,,,,,,,,,,5,strong,56,72,1,0,0,response1disk,8,194,15,-2,1,0,0,rectangle,15,-2,1,0,0,1,6,0.00072,15,-2,1,0,0,0,31,31,16,1,0,,,,,,,,,,,,,,,,,,,,,
,,,,,,,,,,,,,,,,,,,,,,,,,,,,,,,,,,,,,,,,,,5fbeeac30413241531d2a6ab,60684145a7ce64b42b4e022e,2021-04-03_12h19.54.928,Colour_Similarity_Experiment,2020.2.10,Win32,60,60674ec340277cd6a308bc9f,6.99747191,6.98131424,6.953184979,7.758333334,6.943804781,6.98131424,,,,,,,,,,,,,,,,,,,PF,strong,7,,,,,,,,3,0.715095,,,,,,,,,,,,,,,,,,,,,,,,,,,,1,strong,-67,-122,1,0,0,response5disk,2,195,-29,-1,1,0,0,rectangle,-29,-1,1,0,0,1,2,0.00045,-29,-1,1,0,0,0,32,32,2,1,0,,,,,,,,,,,,,,,,,,,,,
,,,,,,,,,,,,,,,,,,,,,,,,,,,,,,,,,,,,,,,,,,5fbeeac30413241531d2a6ab,60684145a7ce64b42b4e022e,2021-04-03_12h19.54.928,Colour_Similarity_Experiment,2020.2.10,Win32,60,60674ec340277cd6a308bc9f,6.99747191,6.98131424,6.953184979,7.758333334,6.943804781,6.98131424,,,,,,,,,,,,,,,,,,,PF,weak,7,,,,,,,,3,0.70609,,,,,,,,,,,,,,,,,,,,,,,,,,,,8,weak,-55,-111,1,0,0,response5disk,4,196,-7,6,1,0,0,rectangle,-7,6,1,0,0,1,3,0.00041,-7,6,1,0,0,0,33,33,78,1,0,,,,,,,,,,,,,,,,,,,,,
