key_resp.keys,key_resp.rt,key_resp_16.keys,key_resp_16.rt,key_resp_2.keys,key_resp_2.rt,X Scale,ratio_pxpermm,screen_size_x,screen_size_y,testsize,key_resp_3.keys,key_resp_4.keys,key_resp_4.rt,line_size,key_resp_5.keys,key_resp_5.rt,key_resp_6.keys,key_resp_6.rt,key_resp_8.keys,key_resp_8.rt,key_resp_7.keys,key_resp_7.rt,key_resp_12.keys,key_resp_12.rt,key_resp_11.keys,key_resp_11.rt,key_resp_18.keys,key_resp_18.rt,key_resp_21.keys,key_resp_21.rt,key_resp_13.keys,key_resp_13.rt,key_resp_19.keys,key_resp_19.rt,ballposx,viewer_distance,trials.thisRepN,trials.thisTrialN,trials.thisN,trials.thisIndex,trials.ran,participant,session,date,expName,psychopyVersion,OS,frameRate,study_id,realFrameRate1,realFrameRate2,realFrameRate3,realFrameRate4,realFrameRate5,realFrameRate,viewerdistancecm,DVA_to_distance,radius_F,radius_P,r_F,R_P,key_resp_20.keys,key_resp_20.rt,key_resp_14.keys,key_resp_14.rt,key_resp_15.keys,key_resp_15.rt,key_resp_17.keys,key_resp_17.rt,key_resp_9.keys,key_resp_9.rt,key_resp_10.keys,key_resp_10.rt,Colour_1,Ecc,maskCon,mask_frames,mouse_5.x,mouse_5.y,mouse_5.leftButton,mouse_5.midButton,mouse_5.rightButton,mouse_5.clicked_name,Colour_2,similarity,response_time,mouse_10.x,mouse_10.y,mouse_10.leftButton,mouse_10.midButton,mouse_10.rightButton,mouse_10.clicked_name,mouse_7.x,mouse_7.y,mouse_7.leftButton,mouse_7.midButton,mouse_7.rightButton,catchnumberprac,mouse_6.x,mouse_6.y,mouse_6.leftButton,mouse_6.midButton,mouse_6.rightButton,duringprac.thisRepN,duringprac.thisTrialN,duringprac.thisN,duringprac.thisIndex,duringprac.ran,mouse_7.clicked_name,catchprac,mouse_6.clicked_name,key_resp_22.keys,key_resp_22.rt,Colour1,maskCon1,mouse.x,mouse.y,mouse.leftButton,mouse.midButton,mouse.rightButton,mouse.clicked_name,Colour2,trialnumber,mouse_2.x,mouse_2.y,mouse_2.leftButton,mouse_2.midButton,mouse_2.rightButton,mouse_2.clicked_name,mouse_3.x,mouse_3.y,mouse_3.leftButton,mouse_3.midButton,mouse_3.rightButton,catchresponse,catchnumber,response_time_catch,mouse_11.x,mouse_11.y,mouse_11.leftButton,mouse_11.midButton,mouse_11.rightButton,trials_2.thisRepN,trials_2.thisTrialN,trials_2.thisN,trials_2.thisIndex,trials_2.ran,Catch,mouse_3.clicked_name,mouse_11.clicked_name,trials_3.thisRepN,trials_3.thisTrialN,trials_3.thisN,trials_3.thisIndex,trials_3.ran,answer1,rt1,answer2,rt2,answer3,rt3,answer4,rt4,answer5,rt5,answer6,rt6,answer7,rt7
space,2.15977,space,4.047385,space,5.01328,36.8,3.68,521.7391304,293.4782609,1920,,space,14.668105,73.6,space,11.569675,space,2.26799,space,1.39816,space,3.66582,space,7.906375,space,5.426335,space,13.73529,space,12.502845,space,15.37511,return,2.956345,74.88,784.5254479,0,0,0,0,1,5fd2416e5061f30735e202e9,60685fd2ed5255dfaa9f6a9c,2021-04-03_14h30.31.483,Colour_Similarity_Experiment,2020.2.10,Win32,60,60674ec340277cd6a308bc9f,13.51288026,13.46198675,13.33349146,13.33191924,13.33196762,13.33349146,,,,,,,,,,,,,,,,,,,,,,,,,,,,,,,,,,,,,,,,,,,,,,,,,,,,,,,,,,,,,,,,,,,,,,,,,,,,,,,,,,,,,,,,,,,,,,,,,,,,,,,,,,,,,,,,,,
,,,,,,,,,,,,,,,,,,,,,,,,,,,,,,,,,return,3.024015,63.36,797.564652,1,0,1,0,1,5fd2416e5061f30735e202e9,60685fd2ed5255dfaa9f6a9c,2021-04-03_14h30.31.483,Colour_Similarity_Experiment,2020.2.10,Win32,60,60674ec340277cd6a308bc9f,13.51288026,13.46198675,13.33349146,13.33191924,13.33196762,13.33349146,,,,,,,,,,,,,,,,,,,,,,,,,,,,,,,,,,,,,,,,,,,,,,,,,,,,,,,,,,,,,,,,,,,,,,,,,,,,,,,,,,,,,,,,,,,,,,,,,,,,,,,,,,,,,,,,,,
,,,,,,,,,,,,,,,,,,,,,,,,,,,,,,,,,return,3.04498,60.48,800.824453,2,0,2,0,1,5fd2416e5061f30735e202e9,60685fd2ed5255dfaa9f6a9c,2021-04-03_14h30.31.483,Colour_Similarity_Experiment,2020.2.10,Win32,60,60674ec340277cd6a308bc9f,13.51288026,13.46198675,13.33349146,13.33191924,13.33196762,13.33349146,,,,,,,,,,,,,,,,,,,,,,,,,,,,,,,,,,,,,,,,,,,,,,,,,,,,,,,,,,,,,,,,,,,,,,,,,,,,,,,,,,,,,,,,,,,,,,,,,,,,,,,,,,,,,,,,,,
,,,,,,,,,,,,,,,,,,,,,,,,,,,,,,,,,return,2.95859,77.76,781.2656468,3,0,3,0,1,5fd2416e5061f30735e202e9,60685fd2ed5255dfaa9f6a9c,2021-04-03_14h30.31.483,Colour_Similarity_Experiment,2020.2.10,Win32,60,60674ec340277cd6a308bc9f,13.51288026,13.46198675,13.33349146,13.33191924,13.33196762,13.33349146,,,,,,,,,,,,,,,,,,,,,,,,,,,,,,,,,,,,,,,,,,,,,,,,,,,,,,,,,,,,,,,,,,,,,,,,,,,,,,,,,,,,,,,,,,,,,,,,,,,,,,,,,,,,,,,,,,
,,,,,,,,,,,,,,,,,,,,,,,,,,,,,,,,,return,2.78778,115.2,738.8882335,4,0,4,0,1,5fd2416e5061f30735e202e9,60685fd2ed5255dfaa9f6a9c,2021-04-03_14h30.31.483,Colour_Similarity_Experiment,2020.2.10,Win32,60,60674ec340277cd6a308bc9f,13.51288026,13.46198675,13.33349146,13.33191924,13.33196762,13.33349146,,,,,,,,,,,,,,,,,,,,,,,,,,,,,,,,,,,,,,,,,,,,,,,,,,,,,,,,,,,,,,,,,,,,,,,,,,,,,,,,,,,,,,,,,,,,,,,,,,,,,,,,,,,,,,,,,,
,,,,,,,,,,,,,,,,,,,,,,,,,,,,,,,,,,,,,,,,,,5fd2416e5061f30735e202e9,60685fd2ed5255dfaa9f6a9c,2021-04-03_14h30.31.483,Colour_Similarity_Experiment,2020.2.10,Win32,60,60674ec340277cd6a308bc9f,13.51288026,13.46198675,13.33349146,13.33191924,13.33196762,13.33349146,78,13.61494577,75.15450068,501.0300045,50.10300045,225.463502,space,5.227005,space,13.06782,space,23.10687,space,6.630405,space,2.78853,space,5.515625,3,PF,weak,4,-85,54,1,0,0,response7disk_5,2,1,14.66567,9,-2,1,0,0,rectangle_8,9,-2,1,0,0,3,9,-2,1,0,0,0,0,0,5,1,,,,,,,,,,,,,,,,,,,,,,,,,,,,,,,,,,,,,,,,,,,,,,,,,,,,,,,,,,,,,
,,,,,,,,,,,,,,,,,,,,,,,,,,,,,,,,,,,,,,,,,,5fd2416e5061f30735e202e9,60685fd2ed5255dfaa9f6a9c,2021-04-03_14h30.31.483,Colour_Similarity_Experiment,2020.2.10,Win32,60,60674ec340277cd6a308bc9f,13.51288026,13.46198675,13.33349146,13.33191924,13.33196762,13.33349146,,,,,,,,,,,,,,,,,,,7,PF,strong,4,-97,62,1,0,0,response7disk_5,9,1,4.94652,15,-8,1,0,0,rectangle_8,15,-8,1,0,0,3,15,-8,1,0,0,0,1,1,3,1,,,,,,,,,,,,,,,,,,,,,,,,,,,,,,,,,,,,,,,,,,,,,,,,,,,,,,,,,,,,,
,,,,,,,,,,,,,,,,,,,,,,,,,,,,,,,,,,,,,,,,,,5fd2416e5061f30735e202e9,60685fd2ed5255dfaa9f6a9c,2021-04-03_14h30.31.483,Colour_Similarity_Experiment,2020.2.10,Win32,60,60674ec340277cd6a308bc9f,13.51288026,13.46198675,13.33349146,13.33191924,13.33196762,13.33349146,,,,,,,,,,,,,,,,,,,4,PF,strong,4,-43,127,1,0,0,response7disk_5,8,0,3.506615,26,-6,1,0,0,rectangle_8,26,-6,1,0,0,3,26,-6,1,0,0,0,2,2,0,1,,,,,,,,,,,,,,,,,,,,,,,,,,,,,,,,,,,,,,,,,,,,,,,,,,,,,,,,,,,,,
,,,,,,,,,,,,,,,,,,,,,,,,,,,,,,,,,,,,,,,,,,5fd2416e5061f30735e202e9,60685fd2ed5255dfaa9f6a9c,2021-04-03_14h30.31.483,Colour_Similarity_Experiment,2020.2.10,Win32,60,60674ec340277cd6a308bc9f,13.51288026,13.46198675,13.33349146,13.33191924,13.33196762,13.33349146,,,,,,,,,,,,,,,,,,,4,PF,weak,4,-37,92,1,0,0,response7disk_5,1,0,1.4657,18,-4,1,0,0,rectangle_8,-57,-120,1,0,0,3,8,-4,1,0,0,0,3,3,6,1,response5disk_7,3,rectangle_4,,,,,,,,,,,,,,,,,,,,,,,,,,,,,,,,,,,,,,,,,,,,,,,,,,,,,,,,,,
,,,,,,,,,,,,,,,,,,,,,,,,,,,,,,,,,,,,,,,,,,5fd2416e5061f30735e202e9,60685fd2ed5255dfaa9f6a9c,2021-04-03_14h30.31.483,Colour_Similarity_Experiment,2020.2.10,Win32,60,60674ec340277cd6a308bc9f,13.51288026,13.46198675,13.33349146,13.33191924,13.33196762,13.33349146,,,,,,,,,,,,,,,,,,,2,PF,weak,4,108,-68,1,0,0,response3disk_5,1,5,13.99742,19,-11,1,0,0,rectangle_8,19,-11,1,0,0,3,19,-11,1,0,0,0,4,4,4,1,,,,,,,,,,,,,,,,,,,,,,,,,,,,,,,,,,,,,,,,,,,,,,,,,,,,,,,,,,,,,
,,,,,,,,,,,,,,,,,,,,,,,,,,,,,,,,,,,,,,,,,,5fd2416e5061f30735e202e9,60685fd2ed5255dfaa9f6a9c,2021-04-03_14h30.31.483,Colour_Similarity_Experiment,2020.2.10,Win32,60,60674ec340277cd6a308bc9f,13.51288026,13.46198675,13.33349146,13.33191924,13.33196762,13.33349146,,,,,,,,,,,,,,,,,,,8,PF,weak,4,-115,-70,1,0,0,response5disk_5,8,2,5.504545,-8,-7,1,0,0,rectangle_8,-8,-7,1,0,0,3,-8,-7,1,0,0,0,5,5,1,1,,,,,,,,,,,,,,,,,,,,,,,,,,,,,,,,,,,,,,,,,,,,,,,,,,,,,,,,,,,,,
,,,,,,,,,,,,,,,,,,,,,,,,,,,,,,,,,,,,,,,,,,5fd2416e5061f30735e202e9,60685fd2ed5255dfaa9f6a9c,2021-04-03_14h30.31.483,Colour_Similarity_Experiment,2020.2.10,Win32,60,60674ec340277cd6a308bc9f,13.51288026,13.46198675,13.33349146,13.33191924,13.33196762,13.33349146,,,,,,,,,,,,,,,,,,,3,PF,strong,4,36,-124,1,0,0,response3disk_5,2,4,2.706555,-1,-6,1,0,0,rectangle_8,-1,-6,1,0,0,3,-1,-6,1,0,0,0,6,6,2,1,,,,,,,,,,,,,,,,,,,,,,,,,,,,,,,,,,,,,,,,,,,,,,,,,,,,,,,,,,,,,
,,,,,,,,,,,,,,,,,,,,,,,,,,,,,,,,,,,,,,,,,,5fd2416e5061f30735e202e9,60685fd2ed5255dfaa9f6a9c,2021-04-03_14h30.31.483,Colour_Similarity_Experiment,2020.2.10,Win32,60,60674ec340277cd6a308bc9f,13.51288026,13.46198675,13.33349146,13.33191924,13.33196762,13.33349146,,,,,,,,,,,,,,,,,,,,PF,weak,4,,,,,,,,6,3.958755,,,,,,,,,,,,,,,,,,,,,,,,,,space,5.50166,7,weak,109,33,1,0,0,response1disk,3,1,18,-1,1,0,0,rectangle,18,-1,1,0,0,,3,0.00085,18,-1,1,0,0,0,0,0,81,1,0,,,,,,,,,,,,,,,,,,,,,
,,,,,,,,,,,,,,,,,,,,,,,,,,,,,,,,,,,,,,,,,,5fd2416e5061f30735e202e9,60685fd2ed5255dfaa9f6a9c,2021-04-03_14h30.31.483,Colour_Similarity_Experiment,2020.2.10,Win32,60,60674ec340277cd6a308bc9f,13.51288026,13.46198675,13.33349146,13.33191924,13.33196762,13.33349146,,,,,,,,,,,,,,,,,,,,PF,weak,4,,,,,,,,3,1.946465,,,,,,,,,,,,,,,,,,,,,,,,,,,,8,weak,-45,-95,1,0,0,response5disk,7,2,21,-6,1,0,0,rectangle,21,-6,1,0,0,,1,0.001145,21,-6,1,0,0,0,1,1,23,1,0,,,,,,,,,,,,,,,,,,,,,
,,,,,,,,,,,,,,,,,,,,,,,,,,,,,,,,,,,,,,,,,,5fd2416e5061f30735e202e9,60685fd2ed5255dfaa9f6a9c,2021-04-03_14h30.31.483,Colour_Similarity_Experiment,2020.2.10,Win32,60,60674ec340277cd6a308bc9f,13.51288026,13.46198675,13.33349146,13.33191924,13.33196762,13.33349146,,,,,,,,,,,,,,,,,,,,PF,strong,4,,,,,,,,5,2.227085,,,,,,,,,,,,,,,,,,,,,,,,,,,,8,strong,97,-64,1,0,0,response3disk,6,3,17,-9,1,0,0,rectangle,17,-9,1,0,0,,3,0.000565,17,-9,1,0,0,0,2,2,37,1,0,,,,,,,,,,,,,,,,,,,,,
,,,,,,,,,,,,,,,,,,,,,,,,,,,,,,,,,,,,,,,,,,5fd2416e5061f30735e202e9,60685fd2ed5255dfaa9f6a9c,2021-04-03_14h30.31.483,Colour_Similarity_Experiment,2020.2.10,Win32,60,60674ec340277cd6a308bc9f,13.51288026,13.46198675,13.33349146,13.33191924,13.33196762,13.33349146,,,,,,,,,,,,,,,,,,,,PF,strong,4,,,,,,,,6,2.11982,,,,,,,,,,,,,,,,,,,,,,,,,,,,1,strong,130,88,1,0,0,response1disk,8,4,15,-12,1,0,0,rectangle,15,-12,1,0,0,,3,0.000105,15,-12,1,0,0,0,3,3,27,1,0,,,,,,,,,,,,,,,,,,,,,
,,,,,,,,,,,,,,,,,,,,,,,,,,,,,,,,,,,,,,,,,,5fd2416e5061f30735e202e9,60685fd2ed5255dfaa9f6a9c,2021-04-03_14h30.31.483,Colour_Similarity_Experiment,2020.2.10,Win32,60,60674ec340277cd6a308bc9f,13.51288026,13.46198675,13.33349146,13.33191924,13.33196762,13.33349146,,,,,,,,,,,,,,,,,,,,PF,strong,4,,,,,,,,4,1.99987,,,,,,,,,,,,,,,,,,,,,,,,,,,,7,strong,33,-65,1,0,0,response3disk,7,5,22,-5,1,0,0,rectangle,22,-5,1,0,0,,2,0.000515,22,-5,1,0,0,0,4,4,34,1,0,,,,,,,,,,,,,,,,,,,,,
,,,,,,,,,,,,,,,,,,,,,,,,,,,,,,,,,,,,,,,,,,5fd2416e5061f30735e202e9,60685fd2ed5255dfaa9f6a9c,2021-04-03_14h30.31.483,Colour_Similarity_Experiment,2020.2.10,Win32,60,60674ec340277cd6a308bc9f,13.51288026,13.46198675,13.33349146,13.33191924,13.33196762,13.33349146,,,,,,,,,,,,,,,,,,,,PF,strong,4,,,,,,,,3,5.66646,,,,,,,,,,,,,,,,,,,,,,,,,,,,7,strong,-41,-112,1,0,0,response5disk,2,6,26,-5,1,0,0,rectangle,26,-5,1,0,0,,4,0.000525,26,-5,1,0,0,0,5,5,138,1,0,,,,,,,,,,,,,,,,,,,,,
,,,,,,,,,,,,,,,,,,,,,,,,,,,,,,,,,,,,,,,,,,5fd2416e5061f30735e202e9,60685fd2ed5255dfaa9f6a9c,2021-04-03_14h30.31.483,Colour_Similarity_Experiment,2020.2.10,Win32,60,60674ec340277cd6a308bc9f,13.51288026,13.46198675,13.33349146,13.33191924,13.33196762,13.33349146,,,,,,,,,,,,,,,,,,,,PF,weak,4,,,,,,,,7,1.613215,,,,,,,,,,,,,,,,,,,,,,,,,,,,9,weak,91,108,1,0,0,response1disk,3,7,24,-10,1,0,0,rectangle,24,-10,1,0,0,,5,0.000585,24,-10,1,0,0,0,6,6,119,1,0,,,,,,,,,,,,,,,,,,,,,
,,,,,,,,,,,,,,,,,,,,,,,,,,,,,,,,,,,,,,,,,,5fd2416e5061f30735e202e9,60685fd2ed5255dfaa9f6a9c,2021-04-03_14h30.31.483,Colour_Similarity_Experiment,2020.2.10,Win32,60,60674ec340277cd6a308bc9f,13.51288026,13.46198675,13.33349146,13.33191924,13.33196762,13.33349146,,,,,,,,,,,,,,,,,,,,PF,weak,4,,,,,,,,4,1.560045,,,,,,,,,,,,,,,,,,,,,,,,,,,,6,weak,26,-96,1,0,0,response3disk,8,8,31,3,1,0,0,rectangle,31,3,1,0,0,,3,0.000595,31,3,1,0,0,0,7,7,64,1,0,,,,,,,,,,,,,,,,,,,,,
,,,,,,,,,,,,,,,,,,,,,,,,,,,,,,,,,,,,,,,,,,5fd2416e5061f30735e202e9,60685fd2ed5255dfaa9f6a9c,2021-04-03_14h30.31.483,Colour_Similarity_Experiment,2020.2.10,Win32,60,60674ec340277cd6a308bc9f,13.51288026,13.46198675,13.33349146,13.33191924,13.33196762,13.33349146,,,,,,,,,,,,,,,,,,,,PF,strong,4,,,,,,,,5,2.98645,,,,,,,,,,,,,,,,,,,,,,,,,,,,3,strong,112,-41,1,0,0,response3disk,6,9,12,5,1,0,0,rectangle,12,5,1,0,0,,0,0.000535,12,5,1,0,0,0,8,8,95,1,0,,,,,,,,,,,,,,,,,,,,,
,,,,,,,,,,,,,,,,,,,,,,,,,,,,,,,,,,,,,,,,,,5fd2416e5061f30735e202e9,60685fd2ed5255dfaa9f6a9c,2021-04-03_14h30.31.483,Colour_Similarity_Experiment,2020.2.10,Win32,60,60674ec340277cd6a308bc9f,13.51288026,13.46198675,13.33349146,13.33191924,13.33196762,13.33349146,,,,,,,,,,,,,,,,,,,,PF,strong,4,,,,,,,,6,1.37324,,,,,,,,,,,,,,,,,,,,,,,,,,,,5,strong,117,58,1,0,0,response1disk,8,10,19,-14,1,0,0,rectangle,19,-14,1,0,0,,5,0.00049,19,-14,1,0,0,0,9,9,16,1,0,,,,,,,,,,,,,,,,,,,,,
,,,,,,,,,,,,,,,,,,,,,,,,,,,,,,,,,,,,,,,,,,5fd2416e5061f30735e202e9,60685fd2ed5255dfaa9f6a9c,2021-04-03_14h30.31.483,Colour_Similarity_Experiment,2020.2.10,Win32,60,60674ec340277cd6a308bc9f,13.51288026,13.46198675,13.33349146,13.33191924,13.33196762,13.33349146,,,,,,,,,,,,,,,,,,,,PF,weak,4,,,,,,,,6,1.35986,,,,,,,,,,,,,,,,,,,,,,,,,,,,7,weak,115,85,1,0,0,response1disk,4,11,16,-11,1,0,0,rectangle,16,-11,1,0,0,,6,0.000535,16,-11,1,0,0,0,10,10,43,1,0,,,,,,,,,,,,,,,,,,,,,
,,,,,,,,,,,,,,,,,,,,,,,,,,,,,,,,,,,,,,,,,,5fd2416e5061f30735e202e9,60685fd2ed5255dfaa9f6a9c,2021-04-03_14h30.31.483,Colour_Similarity_Experiment,2020.2.10,Win32,60,60674ec340277cd6a308bc9f,13.51288026,13.46198675,13.33349146,13.33191924,13.33196762,13.33349146,,,,,,,,,,,,,,,,,,,,PF,strong,4,,,,,,,,1,2.67987,,,,,,,,,,,,,,,,,,,,,,,,,,,,6,strong,-72,33,1,0,0,response7disk,9,12,1,13,1,0,0,rectangle,36,-124,1,0,0,4,4,2.45301,2,-3,1,0,0,0,11,11,160,1,1,response3disk_3,rectangle,,,,,,,,,,,,,,,,,,,
,,,,,,,,,,,,,,,,,,,,,,,,,,,,,,,,,,,,,,,,,,5fd2416e5061f30735e202e9,60685fd2ed5255dfaa9f6a9c,2021-04-03_14h30.31.483,Colour_Similarity_Experiment,2020.2.10,Win32,60,60674ec340277cd6a308bc9f,13.51288026,13.46198675,13.33349146,13.33191924,13.33196762,13.33349146,,,,,,,,,,,,,,,,,,,,PF,weak,4,,,,,,,,4,2.47778,,,,,,,,,,,,,,,,,,,,,,,,,,,,5,weak,58,-106,1,0,0,response3disk,6,13,10,-4,1,0,0,rectangle,10,-4,1,0,0,4,6,0.000645,10,-4,1,0,0,0,12,12,103,1,0,,,,,,,,,,,,,,,,,,,,,
,,,,,,,,,,,,,,,,,,,,,,,,,,,,,,,,,,,,,,,,,,5fd2416e5061f30735e202e9,60685fd2ed5255dfaa9f6a9c,2021-04-03_14h30.31.483,Colour_Similarity_Experiment,2020.2.10,Win32,60,60674ec340277cd6a308bc9f,13.51288026,13.46198675,13.33349146,13.33191924,13.33196762,13.33349146,,,,,,,,,,,,,,,,,,,,PF,strong,4,,,,,,,,6,2.545715,,,,,,,,,,,,,,,,,,,,,,,,,,,,4,strong,103,42,1,0,0,response1disk,2,14,24,-5,1,0,0,rectangle,24,-5,1,0,0,4,6,8E-05,24,-5,1,0,0,0,13,13,13,1,0,,,,,,,,,,,,,,,,,,,,,
,,,,,,,,,,,,,,,,,,,,,,,,,,,,,,,,,,,,,,,,,,5fd2416e5061f30735e202e9,60685fd2ed5255dfaa9f6a9c,2021-04-03_14h30.31.483,Colour_Similarity_Experiment,2020.2.10,Win32,60,60674ec340277cd6a308bc9f,13.51288026,13.46198675,13.33349146,13.33191924,13.33196762,13.33349146,,,,,,,,,,,,,,,,,,,,PF,weak,4,,,,,,,,2,3.344455,,,,,,,,,,,,,,,,,,,,,,,,,,,,7,weak,-103,-71,1,0,0,response5disk,6,15,2,6,1,0,0,rectangle,2,6,1,0,0,4,0,0.00057,2,6,1,0,0,0,14,14,29,1,0,,,,,,,,,,,,,,,,,,,,,
,,,,,,,,,,,,,,,,,,,,,,,,,,,,,,,,,,,,,,,,,,5fd2416e5061f30735e202e9,60685fd2ed5255dfaa9f6a9c,2021-04-03_14h30.31.483,Colour_Similarity_Experiment,2020.2.10,Win32,60,60674ec340277cd6a308bc9f,13.51288026,13.46198675,13.33349146,13.33191924,13.33196762,13.33349146,,,,,,,,,,,,,,,,,,,,PF,weak,4,,,,,,,,3,1.585895,,,,,,,,,,,,,,,,,,,,,,,,,,,,7,weak,-50,-75,1,0,0,response5disk,8,16,5,4,1,0,0,rectangle,5,4,1,0,0,4,4,0.00048,5,4,1,0,0,0,15,15,140,1,0,,,,,,,,,,,,,,,,,,,,,
,,,,,,,,,,,,,,,,,,,,,,,,,,,,,,,,,,,,,,,,,,5fd2416e5061f30735e202e9,60685fd2ed5255dfaa9f6a9c,2021-04-03_14h30.31.483,Colour_Similarity_Experiment,2020.2.10,Win32,60,60674ec340277cd6a308bc9f,13.51288026,13.46198675,13.33349146,13.33191924,13.33196762,13.33349146,,,,,,,,,,,,,,,,,,,,PF,strong,4,,,,,,,,6,1.69252,,,,,,,,,,,,,,,,,,,,,,,,,,,,2,strong,95,46,1,0,0,response1disk,2,17,14,-9,1,0,0,rectangle,14,-9,1,0,0,4,1,0.000505,14,-9,1,0,0,0,16,16,142,1,0,,,,,,,,,,,,,,,,,,,,,
,,,,,,,,,,,,,,,,,,,,,,,,,,,,,,,,,,,,,,,,,,5fd2416e5061f30735e202e9,60685fd2ed5255dfaa9f6a9c,2021-04-03_14h30.31.483,Colour_Similarity_Experiment,2020.2.10,Win32,60,60674ec340277cd6a308bc9f,13.51288026,13.46198675,13.33349146,13.33191924,13.33196762,13.33349146,,,,,,,,,,,,,,,,,,,,PF,weak,4,,,,,,,,1,1.57279,,,,,,,,,,,,,,,,,,,,,,,,,,,,6,weak,-91,35,1,0,0,response7disk,9,18,-4,5,1,0,0,rectangle,-4,5,1,0,0,4,5,0.000505,-4,5,1,0,0,0,17,17,45,1,0,,,,,,,,,,,,,,,,,,,,,
,,,,,,,,,,,,,,,,,,,,,,,,,,,,,,,,,,,,,,,,,,5fd2416e5061f30735e202e9,60685fd2ed5255dfaa9f6a9c,2021-04-03_14h30.31.483,Colour_Similarity_Experiment,2020.2.10,Win32,60,60674ec340277cd6a308bc9f,13.51288026,13.46198675,13.33349146,13.33191924,13.33196762,13.33349146,,,,,,,,,,,,,,,,,,,,PF,strong,4,,,,,,,,3,4.13251,,,,,,,,,,,,,,,,,,,,,,,,,,,,9,strong,-45,-81,1,0,0,response5disk,6,19,-3,-4,1,0,0,rectangle,-3,-4,1,0,0,4,3,0.00047,-3,-4,1,0,0,0,18,18,117,1,0,,,,,,,,,,,,,,,,,,,,,
,,,,,,,,,,,,,,,,,,,,,,,,,,,,,,,,,,,,,,,,,,5fd2416e5061f30735e202e9,60685fd2ed5255dfaa9f6a9c,2021-04-03_14h30.31.483,Colour_Similarity_Experiment,2020.2.10,Win32,60,60674ec340277cd6a308bc9f,13.51288026,13.46198675,13.33349146,13.33191924,13.33196762,13.33349146,,,,,,,,,,,,,,,,,,,,PF,strong,4,,,,,,,,4,2.185855,,,,,,,,,,,,,,,,,,,,,,,,,,,,3,strong,39,-66,1,0,0,response3disk,7,20,0,7,1,0,0,rectangle,0,7,1,0,0,4,5,0.0005,0,7,1,0,0,0,19,19,118,1,0,,,,,,,,,,,,,,,,,,,,,
,,,,,,,,,,,,,,,,,,,,,,,,,,,,,,,,,,,,,,,,,,5fd2416e5061f30735e202e9,60685fd2ed5255dfaa9f6a9c,2021-04-03_14h30.31.483,Colour_Similarity_Experiment,2020.2.10,Win32,60,60674ec340277cd6a308bc9f,13.51288026,13.46198675,13.33349146,13.33191924,13.33196762,13.33349146,,,,,,,,,,,,,,,,,,,,PF,weak,4,,,,,,,,2,2.211405,,,,,,,,,,,,,,,,,,,,,,,,,,,,4,weak,-106,-44,1,0,0,response5disk,5,21,8,0,1,0,0,rectangle,8,0,1,0,0,4,1,0.000715,8,0,1,0,0,0,20,20,49,1,0,,,,,,,,,,,,,,,,,,,,,
,,,,,,,,,,,,,,,,,,,,,,,,,,,,,,,,,,,,,,,,,,5fd2416e5061f30735e202e9,60685fd2ed5255dfaa9f6a9c,2021-04-03_14h30.31.483,Colour_Similarity_Experiment,2020.2.10,Win32,60,60674ec340277cd6a308bc9f,13.51288026,13.46198675,13.33349146,13.33191924,13.33196762,13.33349146,,,,,,,,,,,,,,,,,,,,PF,strong,4,,,,,,,,5,4.185255,,,,,,,,,,,,,,,,,,,,,,,,,,,,9,strong,106,-60,1,0,0,response3disk,7,22,17,3,1,0,0,rectangle,17,3,1,0,0,4,5,0.000495,17,3,1,0,0,0,21,21,100,1,0,,,,,,,,,,,,,,,,,,,,,
,,,,,,,,,,,,,,,,,,,,,,,,,,,,,,,,,,,,,,,,,,5fd2416e5061f30735e202e9,60685fd2ed5255dfaa9f6a9c,2021-04-03_14h30.31.483,Colour_Similarity_Experiment,2020.2.10,Win32,60,60674ec340277cd6a308bc9f,13.51288026,13.46198675,13.33349146,13.33191924,13.33196762,13.33349146,,,,,,,,,,,,,,,,,,,,PF,weak,4,,,,,,,,0,2.384655,,,,,,,,,,,,,,,,,,,,,,,,,,,,7,weak,-55,88,1,0,0,response7disk,7,23,-3,-11,1,0,0,rectangle,-3,-11,1,0,0,4,6,0.000585,-3,-11,1,0,0,0,22,22,51,1,0,,,,,,,,,,,,,,,,,,,,,
,,,,,,,,,,,,,,,,,,,,,,,,,,,,,,,,,,,,,,,,,,5fd2416e5061f30735e202e9,60685fd2ed5255dfaa9f6a9c,2021-04-03_14h30.31.483,Colour_Similarity_Experiment,2020.2.10,Win32,60,60674ec340277cd6a308bc9f,13.51288026,13.46198675,13.33349146,13.33191924,13.33196762,13.33349146,,,,,,,,,,,,,,,,,,,,PF,strong,4,,,,,,,,4,1.826075,,,,,,,,,,,,,,,,,,,,,,,,,,,,5,strong,28,-83,1,0,0,response3disk,6,24,14,-2,1,0,0,rectangle,14,-2,1,0,0,4,0,0.0005,14,-2,1,0,0,0,23,23,12,1,0,,,,,,,,,,,,,,,,,,,,,
,,,,,,,,,,,,,,,,,,,,,,,,,,,,,,,,,,,,,,,,,,5fd2416e5061f30735e202e9,60685fd2ed5255dfaa9f6a9c,2021-04-03_14h30.31.483,Colour_Similarity_Experiment,2020.2.10,Win32,60,60674ec340277cd6a308bc9f,13.51288026,13.46198675,13.33349146,13.33191924,13.33196762,13.33349146,,,,,,,,,,,,,,,,,,,,PF,weak,4,,,,,,,,7,1.425695,,,,,,,,,,,,,,,,,,,,,,,,,,,,5,weak,75,112,1,0,0,response1disk,8,25,16,7,1,0,0,rectangle,16,7,1,0,0,4,5,0.00054,16,7,1,0,0,0,24,24,149,1,0,,,,,,,,,,,,,,,,,,,,,
,,,,,,,,,,,,,,,,,,,,,,,,,,,,,,,,,,,,,,,,,,5fd2416e5061f30735e202e9,60685fd2ed5255dfaa9f6a9c,2021-04-03_14h30.31.483,Colour_Similarity_Experiment,2020.2.10,Win32,60,60674ec340277cd6a308bc9f,13.51288026,13.46198675,13.33349146,13.33191924,13.33196762,13.33349146,,,,,,,,,,,,,,,,,,,,PF,weak,4,,,,,,,,7,1.025625,,,,,,,,,,,,,,,,,,,,,,,,,,,,2,weak,39,82,1,0,0,response1disk,7,26,9,3,1,0,0,rectangle,9,3,1,0,0,4,2,0.00049,9,3,1,0,0,0,25,25,107,1,0,,,,,,,,,,,,,,,,,,,,,
,,,,,,,,,,,,,,,,,,,,,,,,,,,,,,,,,,,,,,,,,,5fd2416e5061f30735e202e9,60685fd2ed5255dfaa9f6a9c,2021-04-03_14h30.31.483,Colour_Similarity_Experiment,2020.2.10,Win32,60,60674ec340277cd6a308bc9f,13.51288026,13.46198675,13.33349146,13.33191924,13.33196762,13.33349146,,,,,,,,,,,,,,,,,,,,PF,strong,4,,,,,,,,3,3.144485,,,,,,,,,,,,,,,,,,,,,,,,,,,,1,strong,-51,-99,1,0,0,response5disk,1,27,5,4,1,0,0,rectangle,5,4,1,0,0,4,4,0.0005,5,4,1,0,0,0,26,26,151,1,0,,,,,,,,,,,,,,,,,,,,,
,,,,,,,,,,,,,,,,,,,,,,,,,,,,,,,,,,,,,,,,,,5fd2416e5061f30735e202e9,60685fd2ed5255dfaa9f6a9c,2021-04-03_14h30.31.483,Colour_Similarity_Experiment,2020.2.10,Win32,60,60674ec340277cd6a308bc9f,13.51288026,13.46198675,13.33349146,13.33191924,13.33196762,13.33349146,,,,,,,,,,,,,,,,,,,,PF,weak,4,,,,,,,,7,1.091235,,,,,,,,,,,,,,,,,,,,,,,,,,,,8,weak,22,70,1,0,0,response1disk,4,28,3,-15,1,0,0,rectangle,3,-15,1,0,0,4,1,0.000585,3,-15,1,0,0,0,27,27,78,1,0,,,,,,,,,,,,,,,,,,,,,
,,,,,,,,,,,,,,,,,,,,,,,,,,,,,,,,,,,,,,,,,,5fd2416e5061f30735e202e9,60685fd2ed5255dfaa9f6a9c,2021-04-03_14h30.31.483,Colour_Similarity_Experiment,2020.2.10,Win32,60,60674ec340277cd6a308bc9f,13.51288026,13.46198675,13.33349146,13.33191924,13.33196762,13.33349146,,,,,,,,,,,,,,,,,,,,PF,strong,4,,,,,,,,1,1.625875,,,,,,,,,,,,,,,,,,,,,,,,,,,,6,strong,-88,37,1,0,0,response7disk,4,29,0,-6,1,0,0,rectangle,0,-6,1,0,0,4,5,0.00097,0,-6,1,0,0,0,28,28,56,1,0,,,,,,,,,,,,,,,,,,,,,
,,,,,,,,,,,,,,,,,,,,,,,,,,,,,,,,,,,,,,,,,,5fd2416e5061f30735e202e9,60685fd2ed5255dfaa9f6a9c,2021-04-03_14h30.31.483,Colour_Similarity_Experiment,2020.2.10,Win32,60,60674ec340277cd6a308bc9f,13.51288026,13.46198675,13.33349146,13.33191924,13.33196762,13.33349146,,,,,,,,,,,,,,,,,,,,PF,weak,4,,,,,,,,5,2.61255,,,,,,,,,,,,,,,,,,,,,,,,,,,,6,weak,100,-65,1,0,0,response3disk,3,30,2,0,1,0,0,rectangle,2,0,1,0,0,4,0,0.000575,2,0,1,0,0,0,29,29,26,1,0,,,,,,,,,,,,,,,,,,,,,
,,,,,,,,,,,,,,,,,,,,,,,,,,,,,,,,,,,,,,,,,,5fd2416e5061f30735e202e9,60685fd2ed5255dfaa9f6a9c,2021-04-03_14h30.31.483,Colour_Similarity_Experiment,2020.2.10,Win32,60,60674ec340277cd6a308bc9f,13.51288026,13.46198675,13.33349146,13.33191924,13.33196762,13.33349146,,,,,,,,,,,,,,,,,,,,PF,weak,4,,,,,,,,6,2.679175,,,,,,,,,,,,,,,,,,,,,,,,,,,,4,weak,109,65,1,0,0,response1disk,8,31,20,9,1,0,0,rectangle,20,9,1,0,0,4,6,0.000475,20,9,1,0,0,0,30,30,124,1,0,,,,,,,,,,,,,,,,,,,,,
,,,,,,,,,,,,,,,,,,,,,,,,,,,,,,,,,,,,,,,,,,5fd2416e5061f30735e202e9,60685fd2ed5255dfaa9f6a9c,2021-04-03_14h30.31.483,Colour_Similarity_Experiment,2020.2.10,Win32,60,60674ec340277cd6a308bc9f,13.51288026,13.46198675,13.33349146,13.33191924,13.33196762,13.33349146,,,,,,,,,,,,,,,,,,,,PF,strong,4,,,,,,,,4,2.224505,,,,,,,,,,,,,,,,,,,,,,,,,,,,7,strong,32,-119,1,0,0,response3disk,6,32,-1,2,1,0,0,rectangle,-1,2,1,0,0,4,4,0.00052,-1,2,1,0,0,0,31,31,31,1,0,,,,,,,,,,,,,,,,,,,,,
,,,,,,,,,,,,,,,,,,,,,,,,,,,,,,,,,,,,,,,,,,5fd2416e5061f30735e202e9,60685fd2ed5255dfaa9f6a9c,2021-04-03_14h30.31.483,Colour_Similarity_Experiment,2020.2.10,Win32,60,60674ec340277cd6a308bc9f,13.51288026,13.46198675,13.33349146,13.33191924,13.33196762,13.33349146,,,,,,,,,,,,,,,,,,,,PF,strong,4,,,,,,,,4,1.599095,,,,,,,,,,,,,,,,,,,,,,,,,,,,2,strong,38,-57,1,0,0,response3disk,6,33,23,6,1,0,0,rectangle,23,6,1,0,0,4,7,0.000505,23,6,1,0,0,0,32,32,40,1,0,,,,,,,,,,,,,,,,,,,,,
,,,,,,,,,,,,,,,,,,,,,,,,,,,,,,,,,,,,,,,,,,5fd2416e5061f30735e202e9,60685fd2ed5255dfaa9f6a9c,2021-04-03_14h30.31.483,Colour_Similarity_Experiment,2020.2.10,Win32,60,60674ec340277cd6a308bc9f,13.51288026,13.46198675,13.33349146,13.33191924,13.33196762,13.33349146,,,,,,,,,,,,,,,,,,,,PF,strong,4,,,,,,,,2,1.464905,,,,,,,,,,,,,,,,,,,,,,,,,,,,6,strong,-85,-66,1,0,0,response5disk,3,34,13,-2,1,0,0,rectangle,13,-2,1,0,0,4,5,0.00042,13,-2,1,0,0,0,33,33,21,1,0,,,,,,,,,,,,,,,,,,,,,
,,,,,,,,,,,,,,,,,,,,,,,,,,,,,,,,,,,,,,,,,,5fd2416e5061f30735e202e9,60685fd2ed5255dfaa9f6a9c,2021-04-03_14h30.31.483,Colour_Similarity_Experiment,2020.2.10,Win32,60,60674ec340277cd6a308bc9f,13.51288026,13.46198675,13.33349146,13.33191924,13.33196762,13.33349146,,,,,,,,,,,,,,,,,,,,PF,strong,4,,,,,,,,4,1.704515,,,,,,,,,,,,,,,,,,,,,,,,,,,,6,strong,33,-102,1,0,0,response3disk,2,35,20,8,1,0,0,rectangle,20,8,1,0,0,4,2,0.000495,20,8,1,0,0,0,34,34,112,1,0,,,,,,,,,,,,,,,,,,,,,
,,,,,,,,,,,,,,,,,,,,,,,,,,,,,,,,,,,,,,,,,,5fd2416e5061f30735e202e9,60685fd2ed5255dfaa9f6a9c,2021-04-03_14h30.31.483,Colour_Similarity_Experiment,2020.2.10,Win32,60,60674ec340277cd6a308bc9f,13.51288026,13.46198675,13.33349146,13.33191924,13.33196762,13.33349146,,,,,,,,,,,,,,,,,,,,PF,weak,4,,,,,,,,6,2.144275,,,,,,,,,,,,,,,,,,,,,,,,,,,,7,weak,112,41,1,0,0,response1disk,2,36,17,7,1,0,0,rectangle,17,7,1,0,0,4,4,0.000425,17,7,1,0,0,0,35,35,32,1,0,,,,,,,,,,,,,,,,,,,,,
,,,,,,,,,,,,,,,,,,,,,,,,,,,,,,,,,,,,,,,,,,5fd2416e5061f30735e202e9,60685fd2ed5255dfaa9f6a9c,2021-04-03_14h30.31.483,Colour_Similarity_Experiment,2020.2.10,Win32,60,60674ec340277cd6a308bc9f,13.51288026,13.46198675,13.33349146,13.33191924,13.33196762,13.33349146,,,,,,,,,,,,,,,,,,,,PF,strong,4,,,,,,,,1,1.397825,,,,,,,,,,,,,,,,,,,,,,,,,,,,9,strong,-91,49,1,0,0,response7disk,4,37,12,2,1,0,0,rectangle,12,2,1,0,0,4,3,0.000525,12,2,1,0,0,0,36,36,60,1,0,,,,,,,,,,,,,,,,,,,,,
,,,,,,,,,,,,,,,,,,,,,,,,,,,,,,,,,,,,,,,,,,5fd2416e5061f30735e202e9,60685fd2ed5255dfaa9f6a9c,2021-04-03_14h30.31.483,Colour_Similarity_Experiment,2020.2.10,Win32,60,60674ec340277cd6a308bc9f,13.51288026,13.46198675,13.33349146,13.33191924,13.33196762,13.33349146,,,,,,,,,,,,,,,,,,,,PF,weak,4,,,,,,,,5,1.664505,,,,,,,,,,,,,,,,,,,,,,,,,,,,2,weak,90,-72,1,0,0,response3disk,8,38,7,1,1,0,0,rectangle,7,1,1,0,0,4,3,0.000115,7,1,1,0,0,0,37,37,52,1,0,,,,,,,,,,,,,,,,,,,,,
,,,,,,,,,,,,,,,,,,,,,,,,,,,,,,,,,,,,,,,,,,5fd2416e5061f30735e202e9,60685fd2ed5255dfaa9f6a9c,2021-04-03_14h30.31.483,Colour_Similarity_Experiment,2020.2.10,Win32,60,60674ec340277cd6a308bc9f,13.51288026,13.46198675,13.33349146,13.33191924,13.33196762,13.33349146,,,,,,,,,,,,,,,,,,,,PF,weak,4,,,,,,,,2,1.905025,,,,,,,,,,,,,,,,,,,,,,,,,,,,9,weak,-97,-59,1,0,0,response5disk,1,39,-10,1,1,0,0,rectangle,-10,1,1,0,0,4,1,0.000515,-10,1,1,0,0,0,38,38,74,1,0,,,,,,,,,,,,,,,,,,,,,
,,,,,,,,,,,,,,,,,,,,,,,,,,,,,,,,,,,,,,,,,,5fd2416e5061f30735e202e9,60685fd2ed5255dfaa9f6a9c,2021-04-03_14h30.31.483,Colour_Similarity_Experiment,2020.2.10,Win32,60,60674ec340277cd6a308bc9f,13.51288026,13.46198675,13.33349146,13.33191924,13.33196762,13.33349146,,,,,,,,,,,,,,,,,,,,PF,weak,4,,,,,,,,7,1.23909,,,,,,,,,,,,,,,,,,,,,,,,,,,,4,weak,61,92,1,0,0,response1disk,9,40,10,-1,1,0,0,rectangle,10,-1,1,0,0,4,6,0.000625,10,-1,1,0,0,0,39,39,75,1,0,,,,,,,,,,,,,,,,,,,,,
,,,,,,,,,,,,,,,,,,,,,,,,,,,,,,,,,,,,,,,,,,5fd2416e5061f30735e202e9,60685fd2ed5255dfaa9f6a9c,2021-04-03_14h30.31.483,Colour_Similarity_Experiment,2020.2.10,Win32,60,60674ec340277cd6a308bc9f,13.51288026,13.46198675,13.33349146,13.33191924,13.33196762,13.33349146,,,,,,,,,,,,,,,,,,,,PF,weak,4,,,,,,,,7,1.77258,,,,,,,,,,,,,,,,,,,,,,,,,,,,3,weak,50,78,1,0,0,response1disk,8,41,11,-8,1,0,0,rectangle,11,-8,1,0,0,4,3,0.00054,11,-8,1,0,0,0,40,40,3,1,0,,,,,,,,,,,,,,,,,,,,,
,,,,,,,,,,,,,,,,,,,,,,,,,,,,,,,,,,,,,,,,,,5fd2416e5061f30735e202e9,60685fd2ed5255dfaa9f6a9c,2021-04-03_14h30.31.483,Colour_Similarity_Experiment,2020.2.10,Win32,60,60674ec340277cd6a308bc9f,13.51288026,13.46198675,13.33349146,13.33191924,13.33196762,13.33349146,,,,,,,,,,,,,,,,,,,,PF,weak,4,,,,,,,,5,1.81236,,,,,,,,,,,,,,,,,,,,,,,,,,,,6,weak,73,-40,1,0,0,response3disk,2,42,17,1,1,0,0,rectangle,17,1,1,0,0,4,2,0.00049,17,1,1,0,0,0,41,41,130,1,0,,,,,,,,,,,,,,,,,,,,,
,,,,,,,,,,,,,,,,,,,,,,,,,,,,,,,,,,,,,,,,,,5fd2416e5061f30735e202e9,60685fd2ed5255dfaa9f6a9c,2021-04-03_14h30.31.483,Colour_Similarity_Experiment,2020.2.10,Win32,60,60674ec340277cd6a308bc9f,13.51288026,13.46198675,13.33349146,13.33191924,13.33196762,13.33349146,,,,,,,,,,,,,,,,,,,,PF,weak,4,,,,,,,,1,1.225605,,,,,,,,,,,,,,,,,,,,,,,,,,,,5,weak,-90,38,1,0,0,response7disk,3,43,9,5,1,0,0,rectangle,9,5,1,0,0,4,3,0.00049,9,5,1,0,0,0,42,42,109,1,0,,,,,,,,,,,,,,,,,,,,,
,,,,,,,,,,,,,,,,,,,,,,,,,,,,,,,,,,,,,,,,,,5fd2416e5061f30735e202e9,60685fd2ed5255dfaa9f6a9c,2021-04-03_14h30.31.483,Colour_Similarity_Experiment,2020.2.10,Win32,60,60674ec340277cd6a308bc9f,13.51288026,13.46198675,13.33349146,13.33191924,13.33196762,13.33349146,,,,,,,,,,,,,,,,,,,,PF,weak,4,,,,,,,,6,1.078935,,,,,,,,,,,,,,,,,,,,,,,,,,,,9,weak,64,47,1,0,0,response1disk,2,44,-5,10,1,0,0,rectangle,-5,10,1,0,0,4,7,0.00052,-5,10,1,0,0,0,43,43,157,1,0,,,,,,,,,,,,,,,,,,,,,
,,,,,,,,,,,,,,,,,,,,,,,,,,,,,,,,,,,,,,,,,,5fd2416e5061f30735e202e9,60685fd2ed5255dfaa9f6a9c,2021-04-03_14h30.31.483,Colour_Similarity_Experiment,2020.2.10,Win32,60,60674ec340277cd6a308bc9f,13.51288026,13.46198675,13.33349146,13.33191924,13.33196762,13.33349146,,,,,,,,,,,,,,,,,,,,PF,strong,4,,,,,,,,4,1.69125,,,,,,,,,,,,,,,,,,,,,,,,,,,,5,strong,47,-107,1,0,0,response3disk,5,45,5,10,1,0,0,rectangle,5,10,1,0,0,4,6,0.000485,5,10,1,0,0,0,44,44,19,1,0,,,,,,,,,,,,,,,,,,,,,
,,,,,,,,,,,,,,,,,,,,,,,,,,,,,,,,,,,,,,,,,,5fd2416e5061f30735e202e9,60685fd2ed5255dfaa9f6a9c,2021-04-03_14h30.31.483,Colour_Similarity_Experiment,2020.2.10,Win32,60,60674ec340277cd6a308bc9f,13.51288026,13.46198675,13.33349146,13.33191924,13.33196762,13.33349146,,,,,,,,,,,,,,,,,,,,PF,weak,4,,,,,,,,6,1.411035,,,,,,,,,,,,,,,,,,,,,,,,,,,,2,weak,92,69,1,0,0,response1disk,6,46,23,9,1,0,0,rectangle,23,9,1,0,0,4,5,0.0005,23,9,1,0,0,0,45,45,113,1,0,,,,,,,,,,,,,,,,,,,,,
,,,,,,,,,,,,,,,,,,,,,,,,,,,,,,,,,,,,,,,,,,5fd2416e5061f30735e202e9,60685fd2ed5255dfaa9f6a9c,2021-04-03_14h30.31.483,Colour_Similarity_Experiment,2020.2.10,Win32,60,60674ec340277cd6a308bc9f,13.51288026,13.46198675,13.33349146,13.33191924,13.33196762,13.33349146,,,,,,,,,,,,,,,,,,,,PF,strong,4,,,,,,,,4,1.65104,,,,,,,,,,,,,,,,,,,,,,,,,,,,4,strong,36,-71,1,0,0,response3disk,6,47,18,2,1,0,0,rectangle,18,2,1,0,0,4,5,6.5E-05,18,2,1,0,0,0,46,46,122,1,0,,,,,,,,,,,,,,,,,,,,,
,,,,,,,,,,,,,,,,,,,,,,,,,,,,,,,,,,,,,,,,,,5fd2416e5061f30735e202e9,60685fd2ed5255dfaa9f6a9c,2021-04-03_14h30.31.483,Colour_Similarity_Experiment,2020.2.10,Win32,60,60674ec340277cd6a308bc9f,13.51288026,13.46198675,13.33349146,13.33191924,13.33196762,13.33349146,,,,,,,,,,,,,,,,,,,,PF,strong,4,,,,,,,,7,1.304355,,,,,,,,,,,,,,,,,,,,,,,,,,,,9,strong,38,82,1,0,0,response1disk,1,48,5,-2,1,0,0,rectangle,5,-2,1,0,0,4,6,0.000635,5,-2,1,0,0,0,47,47,111,1,0,,,,,,,,,,,,,,,,,,,,,
,,,,,,,,,,,,,,,,,,,,,,,,,,,,,,,,,,,,,,,,,,5fd2416e5061f30735e202e9,60685fd2ed5255dfaa9f6a9c,2021-04-03_14h30.31.483,Colour_Similarity_Experiment,2020.2.10,Win32,60,60674ec340277cd6a308bc9f,13.51288026,13.46198675,13.33349146,13.33191924,13.33196762,13.33349146,,,,,,,,,,,,,,,,,,,,PF,strong,4,,,,,,,,4,1.437745,,,,,,,,,,,,,,,,,,,,,,,,,,,,1,strong,41,-81,1,0,0,response3disk,2,49,19,-12,1,0,0,rectangle,19,-12,1,0,0,4,1,0.000525,19,-12,1,0,0,0,48,48,2,1,0,,,,,,,,,,,,,,,,,,,,,
,,,,,,,,,,,,,,,,,,,,,,,,,,,,,,,,,,,,,,,,,,5fd2416e5061f30735e202e9,60685fd2ed5255dfaa9f6a9c,2021-04-03_14h30.31.483,Colour_Similarity_Experiment,2020.2.10,Win32,60,60674ec340277cd6a308bc9f,13.51288026,13.46198675,13.33349146,13.33191924,13.33196762,13.33349146,,,,,,,,,,,,,,,,,,,,PF,strong,4,,,,,,,,1,1.451265,,,,,,,,,,,,,,,,,,,,,,,,,,,,7,strong,-79,36,1,0,0,response7disk,9,50,-6,5,1,0,0,rectangle,-6,5,1,0,0,4,4,0.000495,-6,5,1,0,0,0,49,49,155,1,0,,,,,,,,,,,,,,,,,,,,,
,,,,,,,,,,,,,,,,,,,,,,,,,,,,,,,,,,,,,,,,,,5fd2416e5061f30735e202e9,60685fd2ed5255dfaa9f6a9c,2021-04-03_14h30.31.483,Colour_Similarity_Experiment,2020.2.10,Win32,60,60674ec340277cd6a308bc9f,13.51288026,13.46198675,13.33349146,13.33191924,13.33196762,13.33349146,,,,,,,,,,,,,,,,,,,,PF,weak,4,,,,,,,,1,1.277745,,,,,,,,,,,,,,,,,,,,,,,,,,,,8,weak,-98,46,1,0,0,response7disk,8,51,-13,0,1,0,0,rectangle,-13,0,1,0,0,4,6,0.00057,-13,0,1,0,0,0,50,50,153,1,0,,,,,,,,,,,,,,,,,,,,,
,,,,,,,,,,,,,,,,,,,,,,,,,,,,,,,,,,,,,,,,,,5fd2416e5061f30735e202e9,60685fd2ed5255dfaa9f6a9c,2021-04-03_14h30.31.483,Colour_Similarity_Experiment,2020.2.10,Win32,60,60674ec340277cd6a308bc9f,13.51288026,13.46198675,13.33349146,13.33191924,13.33196762,13.33349146,,,,,,,,,,,,,,,,,,,,PF,weak,4,,,,,,,,4,1.30658,,,,,,,,,,,,,,,,,,,,,,,,,,,,1,weak,60,-120,1,0,0,response3disk,8,52,5,-7,1,0,0,rectangle,5,-7,1,0,0,4,1,0.000595,5,-7,1,0,0,0,51,51,65,1,0,,,,,,,,,,,,,,,,,,,,,
,,,,,,,,,,,,,,,,,,,,,,,,,,,,,,,,,,,,,,,,,,5fd2416e5061f30735e202e9,60685fd2ed5255dfaa9f6a9c,2021-04-03_14h30.31.483,Colour_Similarity_Experiment,2020.2.10,Win32,60,60674ec340277cd6a308bc9f,13.51288026,13.46198675,13.33349146,13.33191924,13.33196762,13.33349146,,,,,,,,,,,,,,,,,,,,PF,strong,4,,,,,,,,1,1.34649,,,,,,,,,,,,,,,,,,,,,,,,,,,,7,strong,-104,38,1,0,0,response7disk,4,53,-10,-3,1,0,0,rectangle,-10,-3,1,0,0,4,6,0.0006,-10,-3,1,0,0,0,52,52,158,1,0,,,,,,,,,,,,,,,,,,,,,
,,,,,,,,,,,,,,,,,,,,,,,,,,,,,,,,,,,,,,,,,,5fd2416e5061f30735e202e9,60685fd2ed5255dfaa9f6a9c,2021-04-03_14h30.31.483,Colour_Similarity_Experiment,2020.2.10,Win32,60,60674ec340277cd6a308bc9f,13.51288026,13.46198675,13.33349146,13.33191924,13.33196762,13.33349146,,,,,,,,,,,,,,,,,,,,PF,weak,4,,,,,,,,4,1.17322,,,,,,,,,,,,,,,,,,,,,,,,,,,,4,weak,37,-76,1,0,0,response3disk,7,54,20,6,1,0,0,rectangle,20,6,1,0,0,4,5,0.000495,20,6,1,0,0,0,53,53,38,1,0,,,,,,,,,,,,,,,,,,,,,
,,,,,,,,,,,,,,,,,,,,,,,,,,,,,,,,,,,,,,,,,,5fd2416e5061f30735e202e9,60685fd2ed5255dfaa9f6a9c,2021-04-03_14h30.31.483,Colour_Similarity_Experiment,2020.2.10,Win32,60,60674ec340277cd6a308bc9f,13.51288026,13.46198675,13.33349146,13.33191924,13.33196762,13.33349146,,,,,,,,,,,,,,,,,,,,PF,strong,4,,,,,,,,3,1.613085,,,,,,,,,,,,,,,,,,,,,,,,,,,,1,strong,-30,-89,1,0,0,response5disk,6,55,19,-1,1,0,0,rectangle,19,-1,1,0,0,4,0,0.00051,19,-1,1,0,0,0,54,54,58,1,0,,,,,,,,,,,,,,,,,,,,,
,,,,,,,,,,,,,,,,,,,,,,,,,,,,,,,,,,,,,,,,,,5fd2416e5061f30735e202e9,60685fd2ed5255dfaa9f6a9c,2021-04-03_14h30.31.483,Colour_Similarity_Experiment,2020.2.10,Win32,60,60674ec340277cd6a308bc9f,13.51288026,13.46198675,13.33349146,13.33191924,13.33196762,13.33349146,,,,,,,,,,,,,,,,,,,,PF,weak,4,,,,,,,,0,1.15981,,,,,,,,,,,,,,,,,,,,,,,,,,,,2,weak,-60,100,1,0,0,response7disk,2,56,-9,-12,1,0,0,rectangle,-9,-12,1,0,0,4,6,0.00063,-9,-12,1,0,0,0,55,55,14,1,0,,,,,,,,,,,,,,,,,,,,,
,,,,,,,,,,,,,,,,,,,,,,,,,,,,,,,,,,,,,,,,,,5fd2416e5061f30735e202e9,60685fd2ed5255dfaa9f6a9c,2021-04-03_14h30.31.483,Colour_Similarity_Experiment,2020.2.10,Win32,60,60674ec340277cd6a308bc9f,13.51288026,13.46198675,13.33349146,13.33191924,13.33196762,13.33349146,,,,,,,,,,,,,,,,,,,,PF,weak,4,,,,,,,,5,1.43996,,,,,,,,,,,,,,,,,,,,,,,,,,,,8,weak,96,-59,1,0,0,response3disk,3,57,4,-5,1,0,0,rectangle,4,-5,1,0,0,4,1,0.000895,4,-5,1,0,0,0,56,56,71,1,0,,,,,,,,,,,,,,,,,,,,,
,,,,,,,,,,,,,,,,,,,,,,,,,,,,,,,,,,,,,,,,,,5fd2416e5061f30735e202e9,60685fd2ed5255dfaa9f6a9c,2021-04-03_14h30.31.483,Colour_Similarity_Experiment,2020.2.10,Win32,60,60674ec340277cd6a308bc9f,13.51288026,13.46198675,13.33349146,13.33191924,13.33196762,13.33349146,,,,,,,,,,,,,,,,,,,,PF,strong,4,,,,,,,,2,1.71996,,,,,,,,,,,,,,,,,,,,,,,,,,,,4,strong,-73,-31,1,0,0,response5disk,3,58,-14,-3,1,0,0,rectangle,-14,-3,1,0,0,4,4,0.000575,-14,-3,1,0,0,0,57,57,77,1,0,,,,,,,,,,,,,,,,,,,,,
,,,,,,,,,,,,,,,,,,,,,,,,,,,,,,,,,,,,,,,,,,5fd2416e5061f30735e202e9,60685fd2ed5255dfaa9f6a9c,2021-04-03_14h30.31.483,Colour_Similarity_Experiment,2020.2.10,Win32,60,60674ec340277cd6a308bc9f,13.51288026,13.46198675,13.33349146,13.33191924,13.33196762,13.33349146,,,,,,,,,,,,,,,,,,,,PF,weak,4,,,,,,,,2,1.719975,,,,,,,,,,,,,,,,,,,,,,,,,,,,6,weak,-80,-32,1,0,0,response5disk,5,59,-19,-8,1,0,0,rectangle,-19,-8,1,0,0,4,2,0.000535,-19,-8,1,0,0,0,58,58,59,1,0,,,,,,,,,,,,,,,,,,,,,
,,,,,,,,,,,,,,,,,,,,,,,,,,,,,,,,,,,,,,,,,,5fd2416e5061f30735e202e9,60685fd2ed5255dfaa9f6a9c,2021-04-03_14h30.31.483,Colour_Similarity_Experiment,2020.2.10,Win32,60,60674ec340277cd6a308bc9f,13.51288026,13.46198675,13.33349146,13.33191924,13.33196762,13.33349146,,,,,,,,,,,,,,,,,,,,PF,strong,4,,,,,,,,2,1.079975,,,,,,,,,,,,,,,,,,,,,,,,,,,,2,strong,-66,-36,1,0,0,response5disk,5,60,-10,-10,1,0,0,rectangle,-10,-10,1,0,0,4,2,8E-05,-10,-10,1,0,0,0,59,59,80,1,0,,,,,,,,,,,,,,,,,,,,,
,,,,,,,,,,,,,,,,,,,,,,,,,,,,,,,,,,,,,,,,,,5fd2416e5061f30735e202e9,60685fd2ed5255dfaa9f6a9c,2021-04-03_14h30.31.483,Colour_Similarity_Experiment,2020.2.10,Win32,60,60674ec340277cd6a308bc9f,13.51288026,13.46198675,13.33349146,13.33191924,13.33196762,13.33349146,,,,,,,,,,,,,,,,,,,,PF,weak,4,,,,,,,,6,1.41324,,,,,,,,,,,,,,,,,,,,,,,,,,,,1,weak,145,38,1,0,0,response1disk,7,61,17,-7,1,0,0,rectangle,17,-7,1,0,0,4,6,0.000545,17,-7,1,0,0,0,60,60,150,1,0,,,,,,,,,,,,,,,,,,,,,
,,,,,,,,,,,,,,,,,,,,,,,,,,,,,,,,,,,,,,,,,,5fd2416e5061f30735e202e9,60685fd2ed5255dfaa9f6a9c,2021-04-03_14h30.31.483,Colour_Similarity_Experiment,2020.2.10,Win32,60,60674ec340277cd6a308bc9f,13.51288026,13.46198675,13.33349146,13.33191924,13.33196762,13.33349146,,,,,,,,,,,,,,,,,,,,PF,weak,4,,,,,,,,7,1.07994,,,,,,,,,,,,,,,,,,,,,,,,,,,,9,weak,76,88,1,0,0,response1disk,4,62,26,6,1,0,0,rectangle,26,6,1,0,0,4,3,0.0005,26,6,1,0,0,0,61,61,114,1,0,,,,,,,,,,,,,,,,,,,,,
,,,,,,,,,,,,,,,,,,,,,,,,,,,,,,,,,,,,,,,,,,5fd2416e5061f30735e202e9,60685fd2ed5255dfaa9f6a9c,2021-04-03_14h30.31.483,Colour_Similarity_Experiment,2020.2.10,Win32,60,60674ec340277cd6a308bc9f,13.51288026,13.46198675,13.33349146,13.33191924,13.33196762,13.33349146,,,,,,,,,,,,,,,,,,,,PF,weak,4,,,,,,,,4,1.26662,,,,,,,,,,,,,,,,,,,,,,,,,,,,3,weak,25,-53,1,0,0,response3disk,2,63,24,0,1,0,0,rectangle,-42,-98,1,0,0,3,3,3.26755,27,9,1,0,0,0,62,62,36,1,1,response5disk_3,rectangle,,,,,,,,,,,,,,,,,,,
,,,,,,,,,,,,,,,,,,,,,,,,,,,,,,,,,,,,,,,,,,5fd2416e5061f30735e202e9,60685fd2ed5255dfaa9f6a9c,2021-04-03_14h30.31.483,Colour_Similarity_Experiment,2020.2.10,Win32,60,60674ec340277cd6a308bc9f,13.51288026,13.46198675,13.33349146,13.33191924,13.33196762,13.33349146,,,,,,,,,,,,,,,,,,,,PF,weak,4,,,,,,,,3,1.46655,,,,,,,,,,,,,,,,,,,,,,,,,,,,1,weak,-46,-82,1,0,0,response5disk,4,64,-7,-10,1,0,0,rectangle,-7,-10,1,0,0,3,5,0.00104,-7,-10,1,0,0,0,63,63,139,1,0,,,,,,,,,,,,,,,,,,,,,
,,,,,,,,,,,,,,,,,,,,,,,,,,,,,,,,,,,,,,,,,,5fd2416e5061f30735e202e9,60685fd2ed5255dfaa9f6a9c,2021-04-03_14h30.31.483,Colour_Similarity_Experiment,2020.2.10,Win32,60,60674ec340277cd6a308bc9f,13.51288026,13.46198675,13.33349146,13.33191924,13.33196762,13.33349146,,,,,,,,,,,,,,,,,,,,PF,weak,4,,,,,,,,3,2.59989,,,,,,,,,,,,,,,,,,,,,,,,,,,,5,weak,-40,-92,1,0,0,response5disk,7,65,1,-9,1,0,0,rectangle,1,-9,1,0,0,3,0,0.000485,1,-9,1,0,0,0,64,64,146,1,0,,,,,,,,,,,,,,,,,,,,,
,,,,,,,,,,,,,,,,,,,,,,,,,,,,,,,,,,,,,,,,,,5fd2416e5061f30735e202e9,60685fd2ed5255dfaa9f6a9c,2021-04-03_14h30.31.483,Colour_Similarity_Experiment,2020.2.10,Win32,60,60674ec340277cd6a308bc9f,13.51288026,13.46198675,13.33349146,13.33191924,13.33196762,13.33349146,,,,,,,,,,,,,,,,,,,,PF,strong,4,,,,,,,,6,1.46658,,,,,,,,,,,,,,,,,,,,,,,,,,,,8,strong,85,48,1,0,0,response1disk,1,66,22,3,1,0,0,rectangle,22,3,1,0,0,3,5,0.000535,22,3,1,0,0,0,65,65,20,1,0,,,,,,,,,,,,,,,,,,,,,
,,,,,,,,,,,,,,,,,,,,,,,,,,,,,,,,,,,,,,,,,,5fd2416e5061f30735e202e9,60685fd2ed5255dfaa9f6a9c,2021-04-03_14h30.31.483,Colour_Similarity_Experiment,2020.2.10,Win32,60,60674ec340277cd6a308bc9f,13.51288026,13.46198675,13.33349146,13.33191924,13.33196762,13.33349146,,,,,,,,,,,,,,,,,,,,PF,weak,4,,,,,,,,5,1.29313,,,,,,,,,,,,,,,,,,,,,,,,,,,,9,weak,98,-75,1,0,0,response3disk,7,67,19,-14,1,0,0,rectangle,19,-14,1,0,0,3,6,0.00063,19,-14,1,0,0,0,66,66,121,1,0,,,,,,,,,,,,,,,,,,,,,
,,,,,,,,,,,,,,,,,,,,,,,,,,,,,,,,,,,,,,,,,,5fd2416e5061f30735e202e9,60685fd2ed5255dfaa9f6a9c,2021-04-03_14h30.31.483,Colour_Similarity_Experiment,2020.2.10,Win32,60,60674ec340277cd6a308bc9f,13.51288026,13.46198675,13.33349146,13.33191924,13.33196762,13.33349146,,,,,,,,,,,,,,,,,,,,PF,weak,4,,,,,,,,4,1.30671,,,,,,,,,,,,,,,,,,,,,,,,,,,,4,weak,35,-65,1,0,0,response3disk,2,68,27,-2,1,0,0,rectangle,27,-2,1,0,0,3,2,0.000525,27,-2,1,0,0,0,67,67,108,1,0,,,,,,,,,,,,,,,,,,,,,
,,,,,,,,,,,,,,,,,,,,,,,,,,,,,,,,,,,,,,,,,,5fd2416e5061f30735e202e9,60685fd2ed5255dfaa9f6a9c,2021-04-03_14h30.31.483,Colour_Similarity_Experiment,2020.2.10,Win32,60,60674ec340277cd6a308bc9f,13.51288026,13.46198675,13.33349146,13.33191924,13.33196762,13.33349146,,,,,,,,,,,,,,,,,,,,PF,strong,4,,,,,,,,4,1.0799,,,,,,,,,,,,,,,,,,,,,,,,,,,,9,strong,31,-71,1,0,0,response3disk,2,69,28,1,1,0,0,rectangle,32,117,1,0,0,7,7,1.6797,4,-11,1,0,0,0,68,68,11,1,1,response1disk_3,rectangle,,,,,,,,,,,,,,,,,,,
,,,,,,,,,,,,,,,,,,,,,,,,,,,,,,,,,,,,,,,,,,5fd2416e5061f30735e202e9,60685fd2ed5255dfaa9f6a9c,2021-04-03_14h30.31.483,Colour_Similarity_Experiment,2020.2.10,Win32,60,60674ec340277cd6a308bc9f,13.51288026,13.46198675,13.33349146,13.33191924,13.33196762,13.33349146,,,,,,,,,,,,,,,,,,,,PF,strong,4,,,,,,,,1,1.373215,,,,,,,,,,,,,,,,,,,,,,,,,,,,4,strong,-70,55,1,0,0,response7disk,5,70,-1,9,1,0,0,rectangle,-1,9,1,0,0,7,4,0.00074,-1,9,1,0,0,0,69,69,116,1,0,,,,,,,,,,,,,,,,,,,,,
,,,,,,,,,,,,,,,,,,,,,,,,,,,,,,,,,,,,,,,,,,5fd2416e5061f30735e202e9,60685fd2ed5255dfaa9f6a9c,2021-04-03_14h30.31.483,Colour_Similarity_Experiment,2020.2.10,Win32,60,60674ec340277cd6a308bc9f,13.51288026,13.46198675,13.33349146,13.33191924,13.33196762,13.33349146,,,,,,,,,,,,,,,,,,,,PF,weak,4,,,,,,,,4,0.95993,,,,,,,,,,,,,,,,,,,,,,,,,,,,1,weak,35,-78,1,0,0,response3disk,5,71,27,6,1,0,0,rectangle,27,6,1,0,0,7,3,0.00054,27,6,1,0,0,0,70,70,28,1,0,,,,,,,,,,,,,,,,,,,,,
,,,,,,,,,,,,,,,,,,,,,,,,,,,,,,,,,,,,,,,,,,5fd2416e5061f30735e202e9,60685fd2ed5255dfaa9f6a9c,2021-04-03_14h30.31.483,Colour_Similarity_Experiment,2020.2.10,Win32,60,60674ec340277cd6a308bc9f,13.51288026,13.46198675,13.33349146,13.33191924,13.33196762,13.33349146,,,,,,,,,,,,,,,,,,,,PF,weak,4,,,,,,,,5,1.799905,,,,,,,,,,,,,,,,,,,,,,,,,,,,4,weak,84,-65,1,0,0,response3disk,1,72,31,-4,1,0,0,rectangle,31,-4,1,0,0,7,2,0.000535,31,-4,1,0,0,0,71,71,115,1,0,,,,,,,,,,,,,,,,,,,,,
,,,,,,,,,,,,,,,,,,,,,,,,,,,,,,,,,,,,,,,,,,5fd2416e5061f30735e202e9,60685fd2ed5255dfaa9f6a9c,2021-04-03_14h30.31.483,Colour_Similarity_Experiment,2020.2.10,Win32,60,60674ec340277cd6a308bc9f,13.51288026,13.46198675,13.33349146,13.33191924,13.33196762,13.33349146,,,,,,,,,,,,,,,,,,,,PF,strong,4,,,,,,,,4,1.399905,,,,,,,,,,,,,,,,,,,,,,,,,,,,8,strong,38,-70,1,0,0,response3disk,2,73,24,3,1,0,0,rectangle,24,3,1,0,0,7,7,0.00046,24,3,1,0,0,0,72,72,22,1,0,,,,,,,,,,,,,,,,,,,,,
,,,,,,,,,,,,,,,,,,,,,,,,,,,,,,,,,,,,,,,,,,5fd2416e5061f30735e202e9,60685fd2ed5255dfaa9f6a9c,2021-04-03_14h30.31.483,Colour_Similarity_Experiment,2020.2.10,Win32,60,60674ec340277cd6a308bc9f,13.51288026,13.46198675,13.33349146,13.33191924,13.33196762,13.33349146,,,,,,,,,,,,,,,,,,,,PF,strong,4,,,,,,,,1,1.21328,,,,,,,,,,,,,,,,,,,,,,,,,,,,3,strong,-84,38,1,0,0,response7disk,9,74,-3,-7,1,0,0,rectangle,-3,-7,1,0,0,7,7,7E-05,-3,-7,1,0,0,0,73,73,143,1,0,,,,,,,,,,,,,,,,,,,,,
,,,,,,,,,,,,,,,,,,,,,,,,,,,,,,,,,,,,,,,,,,5fd2416e5061f30735e202e9,60685fd2ed5255dfaa9f6a9c,2021-04-03_14h30.31.483,Colour_Similarity_Experiment,2020.2.10,Win32,60,60674ec340277cd6a308bc9f,13.51288026,13.46198675,13.33349146,13.33191924,13.33196762,13.33349146,,,,,,,,,,,,,,,,,,,,PF,strong,4,,,,,,,,3,2.026595,,,,,,,,,,,,,,,,,,,,,,,,,,,,2,strong,-24,-81,1,0,0,response5disk,8,75,11,-10,1,0,0,rectangle,11,-10,1,0,0,7,1,0.00062,11,-10,1,0,0,0,74,74,62,1,0,,,,,,,,,,,,,,,,,,,,,
,,,,,,,,,,,,,,,,,,,,,,,,,,,,,,,,,,,,,,,,,,5fd2416e5061f30735e202e9,60685fd2ed5255dfaa9f6a9c,2021-04-03_14h30.31.483,Colour_Similarity_Experiment,2020.2.10,Win32,60,60674ec340277cd6a308bc9f,13.51288026,13.46198675,13.33349146,13.33191924,13.33196762,13.33349146,,,,,,,,,,,,,,,,,,,,PF,weak,4,,,,,,,,3,1.74663,,,,,,,,,,,,,,,,,,,,,,,,,,,,8,weak,-50,-76,1,0,0,response5disk,1,76,5,-1,1,0,0,rectangle,5,-1,1,0,0,7,5,0.00052,5,-1,1,0,0,0,75,75,57,1,0,,,,,,,,,,,,,,,,,,,,,
,,,,,,,,,,,,,,,,,,,,,,,,,,,,,,,,,,,,,,,,,,5fd2416e5061f30735e202e9,60685fd2ed5255dfaa9f6a9c,2021-04-03_14h30.31.483,Colour_Similarity_Experiment,2020.2.10,Win32,60,60674ec340277cd6a308bc9f,13.51288026,13.46198675,13.33349146,13.33191924,13.33196762,13.33349146,,,,,,,,,,,,,,,,,,,,PF,strong,4,,,,,,,,4,1.43986,,,,,,,,,,,,,,,,,,,,,,,,,,,,4,strong,46,-77,1,0,0,response3disk,7,77,10,-1,1,0,0,rectangle,10,-1,1,0,0,7,7,0.00052,10,-1,1,0,0,0,76,76,87,1,0,,,,,,,,,,,,,,,,,,,,,
,,,,,,,,,,,,,,,,,,,,,,,,,,,,,,,,,,,,,,,,,,5fd2416e5061f30735e202e9,60685fd2ed5255dfaa9f6a9c,2021-04-03_14h30.31.483,Colour_Similarity_Experiment,2020.2.10,Win32,60,60674ec340277cd6a308bc9f,13.51288026,13.46198675,13.33349146,13.33191924,13.33196762,13.33349146,,,,,,,,,,,,,,,,,,,,PF,weak,4,,,,,,,,3,2.6399,,,,,,,,,,,,,,,,,,,,,,,,,,,,8,weak,-39,-68,1,0,0,response5disk,6,78,11,-7,1,0,0,rectangle,-97,-47,1,0,0,7,2,1.95972,6,-15,1,0,0,0,77,77,161,1,1,response5disk_3,rectangle,,,,,,,,,,,,,,,,,,,
,,,,,,,,,,,,,,,,,,,,,,,,,,,,,,,,,,,,,,,,,,5fd2416e5061f30735e202e9,60685fd2ed5255dfaa9f6a9c,2021-04-03_14h30.31.483,Colour_Similarity_Experiment,2020.2.10,Win32,60,60674ec340277cd6a308bc9f,13.51288026,13.46198675,13.33349146,13.33191924,13.33196762,13.33349146,,,,,,,,,,,,,,,,,,,,PF,weak,4,,,,,,,,3,1.99919,,,,,,,,,,,,,,,,,,,,,,,,,,,,6,weak,-35,-90,1,0,0,response5disk,6,79,10,-14,1,0,0,rectangle,10,-14,1,0,0,7,4,0.000595,10,-14,1,0,0,0,78,78,0,1,0,,,,,,,,,,,,,,,,,,,,,
,,,,,,,,,,,,,,,,,,,,,,,,,,,,,,,,,,,,,,,,,,5fd2416e5061f30735e202e9,60685fd2ed5255dfaa9f6a9c,2021-04-03_14h30.31.483,Colour_Similarity_Experiment,2020.2.10,Win32,60,60674ec340277cd6a308bc9f,13.51288026,13.46198675,13.33349146,13.33191924,13.33196762,13.33349146,,,,,,,,,,,,,,,,,,,,PF,weak,4,,,,,,,,6,1.26579,,,,,,,,,,,,,,,,,,,,,,,,,,,,5,weak,92,45,1,0,0,response1disk,9,80,25,1,1,0,0,rectangle,82,-36,1,0,0,5,5,1.73318,18,-2,1,0,0,0,79,79,136,1,1,response3disk_3,rectangle,,,,,,,,,,,,,,,,,,,
,,,,,,,,,,,,,,,,,,,,,,,,,,,,,,,,,,,,,,,,,,5fd2416e5061f30735e202e9,60685fd2ed5255dfaa9f6a9c,2021-04-03_14h30.31.483,Colour_Similarity_Experiment,2020.2.10,Win32,60,60674ec340277cd6a308bc9f,13.51288026,13.46198675,13.33349146,13.33191924,13.33196762,13.33349146,,,,,,,,,,,,,,,,,,,,PF,weak,4,,,,,,,,0,1.1046,,,,,,,,,,,,,,,,,,,,,,,,,,,,5,weak,-51,105,1,0,0,response7disk,5,81,17,-21,1,0,0,rectangle,17,-21,1,0,0,5,0,0.00052,17,-21,1,0,0,0,80,80,94,1,0,,,,,,,,,,,,,,,,,,,,,
,,,,,,,,,,,,,,,,,,,,,,,,,,,,,,,,,,,,,,,,,,5fd2416e5061f30735e202e9,60685fd2ed5255dfaa9f6a9c,2021-04-03_14h30.31.483,Colour_Similarity_Experiment,2020.2.10,Win32,60,60674ec340277cd6a308bc9f,13.51288026,13.46198675,13.33349146,13.33191924,13.33196762,13.33349146,,,,,,,,,,,,,,,,,,,,PF,strong,4,,,,,,,,1,1.26463,,,,,,,,,,,,,,,,,,,,,,,,,,,,4,strong,-58,29,1,0,0,response7disk,9,82,9,14,1,0,0,rectangle,9,14,1,0,0,5,7,0.000435,9,14,1,0,0,0,81,81,90,1,0,,,,,,,,,,,,,,,,,,,,,
,,,,,,,,,,,,,,,,,,,,,,,,,,,,,,,,,,,,,,,,,,5fd2416e5061f30735e202e9,60685fd2ed5255dfaa9f6a9c,2021-04-03_14h30.31.483,Colour_Similarity_Experiment,2020.2.10,Win32,60,60674ec340277cd6a308bc9f,13.51288026,13.46198675,13.33349146,13.33191924,13.33196762,13.33349146,,,,,,,,,,,,,,,,,,,,PF,strong,4,,,,,,,,3,1.5456,,,,,,,,,,,,,,,,,,,,,,,,,,,,2,strong,-42,-59,1,0,0,response5disk,7,83,-3,-5,1,0,0,rectangle,-3,-5,1,0,0,5,4,0.00045,-3,-5,1,0,0,0,82,82,63,1,0,,,,,,,,,,,,,,,,,,,,,
,,,,,,,,,,,,,,,,,,,,,,,,,,,,,,,,,,,,,,,,,,5fd2416e5061f30735e202e9,60685fd2ed5255dfaa9f6a9c,2021-04-03_14h30.31.483,Colour_Similarity_Experiment,2020.2.10,Win32,60,60674ec340277cd6a308bc9f,13.51288026,13.46198675,13.33349146,13.33191924,13.33196762,13.33349146,,,,,,,,,,,,,,,,,,,,PF,weak,4,,,,,,,,5,1.571275,,,,,,,,,,,,,,,,,,,,,,,,,,,,1,weak,135,-42,1,0,0,response3disk,3,84,33,-6,1,0,0,rectangle,33,-6,1,0,0,5,4,6.5E-05,33,-6,1,0,0,0,83,83,1,1,0,,,,,,,,,,,,,,,,,,,,,
,,,,,,,,,,,,,,,,,,,,,,,,,,,,,,,,,,,,,,,,,,5fd2416e5061f30735e202e9,60685fd2ed5255dfaa9f6a9c,2021-04-03_14h30.31.483,Colour_Similarity_Experiment,2020.2.10,Win32,60,60674ec340277cd6a308bc9f,13.51288026,13.46198675,13.33349146,13.33191924,13.33196762,13.33349146,,,,,,,,,,,,,,,,,,,,PF,weak,4,,,,,,,,5,1.372565,,,,,,,,,,,,,,,,,,,,,,,,,,,,6,weak,109,-49,1,0,0,response3disk,1,85,23,-2,1,0,0,rectangle,23,-2,1,0,0,5,0,0.00055,23,-2,1,0,0,0,84,84,46,1,0,,,,,,,,,,,,,,,,,,,,,
,,,,,,,,,,,,,,,,,,,,,,,,,,,,,,,,,,,,,,,,,,5fd2416e5061f30735e202e9,60685fd2ed5255dfaa9f6a9c,2021-04-03_14h30.31.483,Colour_Similarity_Experiment,2020.2.10,Win32,60,60674ec340277cd6a308bc9f,13.51288026,13.46198675,13.33349146,13.33191924,13.33196762,13.33349146,,,,,,,,,,,,,,,,,,,,PF,strong,4,,,,,,,,2,1.611245,,,,,,,,,,,,,,,,,,,,,,,,,,,,1,strong,-69,-49,1,0,0,response5disk,3,86,19,-4,1,0,0,rectangle,19,-4,1,0,0,5,2,0.00058,19,-4,1,0,0,0,85,85,99,1,0,,,,,,,,,,,,,,,,,,,,,
,,,,,,,,,,,,,,,,,,,,,,,,,,,,,,,,,,,,,,,,,,5fd2416e5061f30735e202e9,60685fd2ed5255dfaa9f6a9c,2021-04-03_14h30.31.483,Colour_Similarity_Experiment,2020.2.10,Win32,60,60674ec340277cd6a308bc9f,13.51288026,13.46198675,13.33349146,13.33191924,13.33196762,13.33349146,,,,,,,,,,,,,,,,,,,,PF,strong,4,,,,,,,,2,1.21123,,,,,,,,,,,,,,,,,,,,,,,,,,,,6,strong,-62,-48,1,0,0,response5disk,5,87,3,-11,1,0,0,rectangle,3,-11,1,0,0,5,5,0.000495,3,-11,1,0,0,0,86,86,126,1,0,,,,,,,,,,,,,,,,,,,,,
,,,,,,,,,,,,,,,,,,,,,,,,,,,,,,,,,,,,,,,,,,5fd2416e5061f30735e202e9,60685fd2ed5255dfaa9f6a9c,2021-04-03_14h30.31.483,Colour_Similarity_Experiment,2020.2.10,Win32,60,60674ec340277cd6a308bc9f,13.51288026,13.46198675,13.33349146,13.33191924,13.33196762,13.33349146,,,,,,,,,,,,,,,,,,,,PF,strong,4,,,,,,,,3,1.9191,,,,,,,,,,,,,,,,,,,,,,,,,,,,8,strong,-38,-82,1,0,0,response5disk,7,88,0,-5,1,0,0,rectangle,0,-5,1,0,0,5,4,0.00047,0,-5,1,0,0,0,87,87,86,1,0,,,,,,,,,,,,,,,,,,,,,
,,,,,,,,,,,,,,,,,,,,,,,,,,,,,,,,,,,,,,,,,,5fd2416e5061f30735e202e9,60685fd2ed5255dfaa9f6a9c,2021-04-03_14h30.31.483,Colour_Similarity_Experiment,2020.2.10,Win32,60,60674ec340277cd6a308bc9f,13.51288026,13.46198675,13.33349146,13.33191924,13.33196762,13.33349146,,,,,,,,,,,,,,,,,,,,PF,strong,4,,,,,,,,1,1.598555,,,,,,,,,,,,,,,,,,,,,,,,,,,,4,strong,-88,38,1,0,0,response7disk,8,89,0,5,1,0,0,rectangle,0,5,1,0,0,5,4,6.5E-05,0,5,1,0,0,0,88,88,35,1,0,,,,,,,,,,,,,,,,,,,,,
,,,,,,,,,,,,,,,,,,,,,,,,,,,,,,,,,,,,,,,,,,5fd2416e5061f30735e202e9,60685fd2ed5255dfaa9f6a9c,2021-04-03_14h30.31.483,Colour_Similarity_Experiment,2020.2.10,Win32,60,60674ec340277cd6a308bc9f,13.51288026,13.46198675,13.33349146,13.33191924,13.33196762,13.33349146,,,,,,,,,,,,,,,,,,,,PF,strong,4,,,,,,,,2,1.18456,,,,,,,,,,,,,,,,,,,,,,,,,,,,7,strong,-52,-33,1,0,0,response5disk,3,90,-3,-4,1,0,0,rectangle,-3,-4,1,0,0,5,6,0.00048,-3,-4,1,0,0,0,89,89,73,1,0,,,,,,,,,,,,,,,,,,,,,
,,,,,,,,,,,,,,,,,,,,,,,,,,,,,,,,,,,,,,,,,,5fd2416e5061f30735e202e9,60685fd2ed5255dfaa9f6a9c,2021-04-03_14h30.31.483,Colour_Similarity_Experiment,2020.2.10,Win32,60,60674ec340277cd6a308bc9f,13.51288026,13.46198675,13.33349146,13.33191924,13.33196762,13.33349146,,,,,,,,,,,,,,,,,,,,PF,weak,4,,,,,,,,6,1.37113,,,,,,,,,,,,,,,,,,,,,,,,,,,,3,weak,113,40,1,0,0,response1disk,9,91,10,7,1,0,0,rectangle,10,7,1,0,0,5,2,0.00049,10,7,1,0,0,0,90,90,79,1,0,,,,,,,,,,,,,,,,,,,,,
,,,,,,,,,,,,,,,,,,,,,,,,,,,,,,,,,,,,,,,,,,5fd2416e5061f30735e202e9,60685fd2ed5255dfaa9f6a9c,2021-04-03_14h30.31.483,Colour_Similarity_Experiment,2020.2.10,Win32,60,60674ec340277cd6a308bc9f,13.51288026,13.46198675,13.33349146,13.33191924,13.33196762,13.33349146,,,,,,,,,,,,,,,,,,,,PF,weak,4,,,,,,,,1,1.99918,,,,,,,,,,,,,,,,,,,,,,,,,,,,9,weak,-92,34,1,0,0,response7disk,9,92,-18,-11,1,0,0,rectangle,-18,-11,1,0,0,5,1,0.00046,-18,-11,1,0,0,0,91,91,106,1,0,,,,,,,,,,,,,,,,,,,,,
,,,,,,,,,,,,,,,,,,,,,,,,,,,,,,,,,,,,,,,,,,5fd2416e5061f30735e202e9,60685fd2ed5255dfaa9f6a9c,2021-04-03_14h30.31.483,Colour_Similarity_Experiment,2020.2.10,Win32,60,60674ec340277cd6a308bc9f,13.51288026,13.46198675,13.33349146,13.33191924,13.33196762,13.33349146,,,,,,,,,,,,,,,,,,,,PF,strong,4,,,,,,,,2,1.13117,,,,,,,,,,,,,,,,,,,,,,,,,,,,8,strong,-63,-30,1,0,0,response5disk,4,93,-1,-4,1,0,0,rectangle,-1,-4,1,0,0,5,2,0.0005,-1,-4,1,0,0,0,92,92,88,1,0,,,,,,,,,,,,,,,,,,,,,
,,,,,,,,,,,,,,,,,,,,,,,,,,,,,,,,,,,,,,,,,,5fd2416e5061f30735e202e9,60685fd2ed5255dfaa9f6a9c,2021-04-03_14h30.31.483,Colour_Similarity_Experiment,2020.2.10,Win32,60,60674ec340277cd6a308bc9f,13.51288026,13.46198675,13.33349146,13.33191924,13.33196762,13.33349146,,,,,,,,,,,,,,,,,,,,PF,strong,4,,,,,,,,6,1.372605,,,,,,,,,,,,,,,,,,,,,,,,,,,,7,strong,139,46,1,0,0,response1disk,1,94,24,3,1,0,0,rectangle,24,3,1,0,0,5,5,0.00042,24,3,1,0,0,0,93,93,132,1,0,,,,,,,,,,,,,,,,,,,,,
,,,,,,,,,,,,,,,,,,,,,,,,,,,,,,,,,,,,,,,,,,5fd2416e5061f30735e202e9,60685fd2ed5255dfaa9f6a9c,2021-04-03_14h30.31.483,Colour_Similarity_Experiment,2020.2.10,Win32,60,60674ec340277cd6a308bc9f,13.51288026,13.46198675,13.33349146,13.33191924,13.33196762,13.33349146,,,,,,,,,,,,,,,,,,,,PF,weak,4,,,,,,,,4,1.318865,,,,,,,,,,,,,,,,,,,,,,,,,,,,6,weak,40,-89,1,0,0,response3disk,4,95,19,4,1,0,0,rectangle,19,4,1,0,0,5,0,0.000485,19,4,1,0,0,0,94,94,33,1,0,,,,,,,,,,,,,,,,,,,,,
,,,,,,,,,,,,,,,,,,,,,,,,,,,,,,,,,,,,,,,,,,5fd2416e5061f30735e202e9,60685fd2ed5255dfaa9f6a9c,2021-04-03_14h30.31.483,Colour_Similarity_Experiment,2020.2.10,Win32,60,60674ec340277cd6a308bc9f,13.51288026,13.46198675,13.33349146,13.33191924,13.33196762,13.33349146,,,,,,,,,,,,,,,,,,,,PF,weak,4,,,,,,,,5,1.198045,,,,,,,,,,,,,,,,,,,,,,,,,,,,8,weak,117,-71,1,0,0,response3disk,2,96,-3,-9,1,0,0,rectangle,-3,-9,1,0,0,5,0,6E-05,-3,-9,1,0,0,0,95,95,83,1,0,,,,,,,,,,,,,,,,,,,,,
,,,,,,,,,,,,,,,,,,,,,,,,,,,,,,,,,,,,,,,,,,5fd2416e5061f30735e202e9,60685fd2ed5255dfaa9f6a9c,2021-04-03_14h30.31.483,Colour_Similarity_Experiment,2020.2.10,Win32,60,60674ec340277cd6a308bc9f,13.51288026,13.46198675,13.33349146,13.33191924,13.33196762,13.33349146,,,,,,,,,,,,,,,,,,,,PF,strong,4,,,,,,,,3,1.184925,,,,,,,,,,,,,,,,,,,,,,,,,,,,5,strong,-27,-66,1,0,0,response5disk,9,97,20,-4,1,0,0,rectangle,20,-4,1,0,0,5,1,0.000565,20,-4,1,0,0,0,96,96,61,1,0,,,,,,,,,,,,,,,,,,,,,
,,,,,,,,,,,,,,,,,,,,,,,,,,,,,,,,,,,,,,,,,,5fd2416e5061f30735e202e9,60685fd2ed5255dfaa9f6a9c,2021-04-03_14h30.31.483,Colour_Similarity_Experiment,2020.2.10,Win32,60,60674ec340277cd6a308bc9f,13.51288026,13.46198675,13.33349146,13.33191924,13.33196762,13.33349146,,,,,,,,,,,,,,,,,,,,PF,weak,4,,,,,,,,4,0.971235,,,,,,,,,,,,,,,,,,,,,,,,,,,,4,weak,29,-52,1,0,0,response3disk,6,98,23,-2,1,0,0,rectangle,23,-2,1,0,0,5,3,0.000665,23,-2,1,0,0,0,97,97,120,1,0,,,,,,,,,,,,,,,,,,,,,
,,,,,,,,,,,,,,,,,,,,,,,,,,,,,,,,,,,,,,,,,,5fd2416e5061f30735e202e9,60685fd2ed5255dfaa9f6a9c,2021-04-03_14h30.31.483,Colour_Similarity_Experiment,2020.2.10,Win32,60,60674ec340277cd6a308bc9f,13.51288026,13.46198675,13.33349146,13.33191924,13.33196762,13.33349146,,,,,,,,,,,,,,,,,,,,PF,weak,4,,,,,,,,1,1.33235,,,,,,,,,,,,,,,,,,,,,,,,,,,,5,weak,-75,47,1,0,0,response7disk,4,99,-8,12,1,0,0,rectangle,-8,12,1,0,0,5,7,0.000525,-8,12,1,0,0,0,98,98,54,1,0,,,,,,,,,,,,,,,,,,,,,
,,,,,,,,,,,,,,,,,,,,,,,,,,,,,,,,,,,,,,,,,,5fd2416e5061f30735e202e9,60685fd2ed5255dfaa9f6a9c,2021-04-03_14h30.31.483,Colour_Similarity_Experiment,2020.2.10,Win32,60,60674ec340277cd6a308bc9f,13.51288026,13.46198675,13.33349146,13.33191924,13.33196762,13.33349146,,,,,,,,,,,,,,,,,,,,PF,strong,4,,,,,,,,5,1.877885,,,,,,,,,,,,,,,,,,,,,,,,,,,,3,strong,71,-34,1,0,0,response3disk,1,100,-12,5,1,0,0,rectangle,-12,5,1,0,0,5,0,0.0004,-12,5,1,0,0,0,99,99,125,1,0,,,,,,,,,,,,,,,,,,,,,
,,,,,,,,,,,,,,,,,,,,,,,,,,,,,,,,,,,,,,,,,,5fd2416e5061f30735e202e9,60685fd2ed5255dfaa9f6a9c,2021-04-03_14h30.31.483,Colour_Similarity_Experiment,2020.2.10,Win32,60,60674ec340277cd6a308bc9f,13.51288026,13.46198675,13.33349146,13.33191924,13.33196762,13.33349146,,,,,,,,,,,,,,,,,,,,PF,weak,4,,,,,,,,4,1.19917,,,,,,,,,,,,,,,,,,,,,,,,,,,,8,weak,52,-87,1,0,0,response3disk,5,101,19,1,1,0,0,rectangle,19,1,1,0,0,5,3,0.0005,19,1,1,0,0,0,100,100,98,1,0,,,,,,,,,,,,,,,,,,,,,
,,,,,,,,,,,,,,,,,,,,,,,,,,,,,,,,,,,,,,,,,,5fd2416e5061f30735e202e9,60685fd2ed5255dfaa9f6a9c,2021-04-03_14h30.31.483,Colour_Similarity_Experiment,2020.2.10,Win32,60,60674ec340277cd6a308bc9f,13.51288026,13.46198675,13.33349146,13.33191924,13.33196762,13.33349146,,,,,,,,,,,,,,,,,,,,PF,weak,4,,,,,,,,3,1.091345,,,,,,,,,,,,,,,,,,,,,,,,,,,,7,weak,-27,-79,1,0,0,response5disk,5,102,6,-8,1,0,0,rectangle,6,-8,1,0,0,5,1,0.00053,6,-8,1,0,0,0,101,101,92,1,0,,,,,,,,,,,,,,,,,,,,,
,,,,,,,,,,,,,,,,,,,,,,,,,,,,,,,,,,,,,,,,,,5fd2416e5061f30735e202e9,60685fd2ed5255dfaa9f6a9c,2021-04-03_14h30.31.483,Colour_Similarity_Experiment,2020.2.10,Win32,60,60674ec340277cd6a308bc9f,13.51288026,13.46198675,13.33349146,13.33191924,13.33196762,13.33349146,,,,,,,,,,,,,,,,,,,,PF,weak,4,,,,,,,,2,2.158015,,,,,,,,,,,,,,,,,,,,,,,,,,,,1,weak,-98,-41,1,0,0,response5disk,2,103,-7,-3,1,0,0,rectangle,-7,-3,1,0,0,5,6,0.000475,-7,-3,1,0,0,0,102,102,24,1,0,,,,,,,,,,,,,,,,,,,,,
,,,,,,,,,,,,,,,,,,,,,,,,,,,,,,,,,,,,,,,,,,5fd2416e5061f30735e202e9,60685fd2ed5255dfaa9f6a9c,2021-04-03_14h30.31.483,Colour_Similarity_Experiment,2020.2.10,Win32,60,60674ec340277cd6a308bc9f,13.51288026,13.46198675,13.33349146,13.33191924,13.33196762,13.33349146,,,,,,,,,,,,,,,,,,,,PF,weak,4,,,,,,,,1,1.05223,,,,,,,,,,,,,,,,,,,,,,,,,,,,3,weak,-84,57,1,0,0,response7disk,3,104,-4,6,1,0,0,rectangle,-4,6,1,0,0,5,5,0.000415,-4,6,1,0,0,0,103,103,4,1,0,,,,,,,,,,,,,,,,,,,,,
,,,,,,,,,,,,,,,,,,,,,,,,,,,,,,,,,,,,,,,,,,5fd2416e5061f30735e202e9,60685fd2ed5255dfaa9f6a9c,2021-04-03_14h30.31.483,Colour_Similarity_Experiment,2020.2.10,Win32,60,60674ec340277cd6a308bc9f,13.51288026,13.46198675,13.33349146,13.33191924,13.33196762,13.33349146,,,,,,,,,,,,,,,,,,,,PF,strong,4,,,,,,,,1,2.75899,,,,,,,,,,,,,,,,,,,,,,,,,,,,2,strong,-74,36,1,0,0,response7disk,1,105,-8,17,1,0,0,rectangle,-8,17,1,0,0,5,7,0.000425,-8,17,1,0,0,0,104,104,85,1,0,,,,,,,,,,,,,,,,,,,,,
,,,,,,,,,,,,,,,,,,,,,,,,,,,,,,,,,,,,,,,,,,5fd2416e5061f30735e202e9,60685fd2ed5255dfaa9f6a9c,2021-04-03_14h30.31.483,Colour_Similarity_Experiment,2020.2.10,Win32,60,60674ec340277cd6a308bc9f,13.51288026,13.46198675,13.33349146,13.33191924,13.33196762,13.33349146,,,,,,,,,,,,,,,,,,,,PF,strong,4,,,,,,,,2,6.87773,,,,,,,,,,,,,,,,,,,,,,,,,,,,1,strong,-98,-53,1,0,0,response5disk,9,106,13,0,1,0,0,rectangle,13,0,1,0,0,5,0,0.00048,13,0,1,0,0,0,105,105,123,1,0,,,,,,,,,,,,,,,,,,,,,
,,,,,,,,,,,,,,,,,,,,,,,,,,,,,,,,,,,,,,,,,,5fd2416e5061f30735e202e9,60685fd2ed5255dfaa9f6a9c,2021-04-03_14h30.31.483,Colour_Similarity_Experiment,2020.2.10,Win32,60,60674ec340277cd6a308bc9f,13.51288026,13.46198675,13.33349146,13.33191924,13.33196762,13.33349146,,,,,,,,,,,,,,,,,,,,PF,strong,4,,,,,,,,2,1.237925,,,,,,,,,,,,,,,,,,,,,,,,,,,,9,strong,-82,-47,1,0,0,response5disk,9,107,9,-16,1,0,0,rectangle,9,-16,1,0,0,5,3,0.00053,9,-16,1,0,0,0,106,106,17,1,0,,,,,,,,,,,,,,,,,,,,,
,,,,,,,,,,,,,,,,,,,,,,,,,,,,,,,,,,,,,,,,,,5fd2416e5061f30735e202e9,60685fd2ed5255dfaa9f6a9c,2021-04-03_14h30.31.483,Colour_Similarity_Experiment,2020.2.10,Win32,60,60674ec340277cd6a308bc9f,13.51288026,13.46198675,13.33349146,13.33191924,13.33196762,13.33349146,,,,,,,,,,,,,,,,,,,,PF,strong,4,,,,,,,,3,0.93136,,,,,,,,,,,,,,,,,,,,,,,,,,,,5,strong,-37,-68,1,0,0,response5disk,2,108,11,-4,1,0,0,rectangle,42,108,1,0,0,7,7,1.705715,-2,-3,1,0,0,0,107,107,55,1,1,response1disk_3,rectangle,,,,,,,,,,,,,,,,,,,
,,,,,,,,,,,,,,,,,,,,,,,,,,,,,,,,,,,,,,,,,,5fd2416e5061f30735e202e9,60685fd2ed5255dfaa9f6a9c,2021-04-03_14h30.31.483,Colour_Similarity_Experiment,2020.2.10,Win32,60,60674ec340277cd6a308bc9f,13.51288026,13.46198675,13.33349146,13.33191924,13.33196762,13.33349146,,,,,,,,,,,,,,,,,,,,PF,weak,4,,,,,,,,1,1.01125,,,,,,,,,,,,,,,,,,,,,,,,,,,,4,weak,-81,49,1,0,0,response7disk,4,109,-4,11,1,0,0,rectangle,-4,11,1,0,0,7,6,0.00065,-4,11,1,0,0,0,108,108,70,1,0,,,,,,,,,,,,,,,,,,,,,
,,,,,,,,,,,,,,,,,,,,,,,,,,,,,,,,,,,,,,,,,,5fd2416e5061f30735e202e9,60685fd2ed5255dfaa9f6a9c,2021-04-03_14h30.31.483,Colour_Similarity_Experiment,2020.2.10,Win32,60,60674ec340277cd6a308bc9f,13.51288026,13.46198675,13.33349146,13.33191924,13.33196762,13.33349146,,,,,,,,,,,,,,,,,,,,PF,strong,4,,,,,,,,3,0.85284,,,,,,,,,,,,,,,,,,,,,,,,,,,,5,strong,-50,-73,1,0,0,response5disk,3,110,9,9,1,0,0,rectangle,9,9,1,0,0,7,3,0.000505,9,9,1,0,0,0,109,109,25,1,0,,,,,,,,,,,,,,,,,,,,,
,,,,,,,,,,,,,,,,,,,,,,,,,,,,,,,,,,,,,,,,,,5fd2416e5061f30735e202e9,60685fd2ed5255dfaa9f6a9c,2021-04-03_14h30.31.483,Colour_Similarity_Experiment,2020.2.10,Win32,60,60674ec340277cd6a308bc9f,13.51288026,13.46198675,13.33349146,13.33191924,13.33196762,13.33349146,,,,,,,,,,,,,,,,,,,,PF,weak,4,,,,,,,,2,1.357905,,,,,,,,,,,,,,,,,,,,,,,,,,,,1,weak,-105,-29,1,0,0,response5disk,9,111,-3,11,1,0,0,rectangle,-3,11,1,0,0,7,6,0.000495,-3,11,1,0,0,0,110,110,15,1,0,,,,,,,,,,,,,,,,,,,,,
,,,,,,,,,,,,,,,,,,,,,,,,,,,,,,,,,,,,,,,,,,5fd2416e5061f30735e202e9,60685fd2ed5255dfaa9f6a9c,2021-04-03_14h30.31.483,Colour_Similarity_Experiment,2020.2.10,Win32,60,60674ec340277cd6a308bc9f,13.51288026,13.46198675,13.33349146,13.33191924,13.33196762,13.33349146,,,,,,,,,,,,,,,,,,,,PF,weak,4,,,,,,,,3,1.03742,,,,,,,,,,,,,,,,,,,,,,,,,,,,3,weak,-51,-61,1,0,0,response5disk,5,112,11,10,1,0,0,rectangle,11,10,1,0,0,7,6,7.5E-05,11,10,1,0,0,0,111,111,66,1,0,,,,,,,,,,,,,,,,,,,,,
,,,,,,,,,,,,,,,,,,,,,,,,,,,,,,,,,,,,,,,,,,5fd2416e5061f30735e202e9,60685fd2ed5255dfaa9f6a9c,2021-04-03_14h30.31.483,Colour_Similarity_Experiment,2020.2.10,Win32,60,60674ec340277cd6a308bc9f,13.51288026,13.46198675,13.33349146,13.33191924,13.33196762,13.33349146,,,,,,,,,,,,,,,,,,,,PF,weak,4,,,,,,,,3,0.98577,,,,,,,,,,,,,,,,,,,,,,,,,,,,3,weak,-50,-82,1,0,0,response5disk,6,113,8,0,1,0,0,rectangle,8,0,1,0,0,7,4,0.00047,8,0,1,0,0,0,112,112,47,1,0,,,,,,,,,,,,,,,,,,,,,
,,,,,,,,,,,,,,,,,,,,,,,,,,,,,,,,,,,,,,,,,,5fd2416e5061f30735e202e9,60685fd2ed5255dfaa9f6a9c,2021-04-03_14h30.31.483,Colour_Similarity_Experiment,2020.2.10,Win32,60,60674ec340277cd6a308bc9f,13.51288026,13.46198675,13.33349146,13.33191924,13.33196762,13.33349146,,,,,,,,,,,,,,,,,,,,PF,strong,4,,,,,,,,2,0.945915,,,,,,,,,,,,,,,,,,,,,,,,,,,,7,strong,-102,-60,1,0,0,response5disk,5,114,7,-3,1,0,0,rectangle,7,-3,1,0,0,7,7,0.0004,7,-3,1,0,0,0,113,113,156,1,0,,,,,,,,,,,,,,,,,,,,,
,,,,,,,,,,,,,,,,,,,,,,,,,,,,,,,,,,,,,,,,,,5fd2416e5061f30735e202e9,60685fd2ed5255dfaa9f6a9c,2021-04-03_14h30.31.483,Colour_Similarity_Experiment,2020.2.10,Win32,60,60674ec340277cd6a308bc9f,13.51288026,13.46198675,13.33349146,13.33191924,13.33196762,13.33349146,,,,,,,,,,,,,,,,,,,,PF,strong,4,,,,,,,,2,0.839335,,,,,,,,,,,,,,,,,,,,,,,,,,,,3,strong,-77,-56,1,0,0,response5disk,4,115,-7,-12,1,0,0,rectangle,-7,-12,1,0,0,7,7,9.5E-05,-7,-12,1,0,0,0,114,114,110,1,0,,,,,,,,,,,,,,,,,,,,,
,,,,,,,,,,,,,,,,,,,,,,,,,,,,,,,,,,,,,,,,,,5fd2416e5061f30735e202e9,60685fd2ed5255dfaa9f6a9c,2021-04-03_14h30.31.483,Colour_Similarity_Experiment,2020.2.10,Win32,60,60674ec340277cd6a308bc9f,13.51288026,13.46198675,13.33349146,13.33191924,13.33196762,13.33349146,,,,,,,,,,,,,,,,,,,,PF,weak,4,,,,,,,,1,0.94465,,,,,,,,,,,,,,,,,,,,,,,,,,,,6,weak,-110,44,1,0,0,response7disk,7,116,12,-2,1,0,0,rectangle,12,-2,1,0,0,7,7,0.00012,12,-2,1,0,0,0,115,115,50,1,0,,,,,,,,,,,,,,,,,,,,,
,,,,,,,,,,,,,,,,,,,,,,,,,,,,,,,,,,,,,,,,,,5fd2416e5061f30735e202e9,60685fd2ed5255dfaa9f6a9c,2021-04-03_14h30.31.483,Colour_Similarity_Experiment,2020.2.10,Win32,60,60674ec340277cd6a308bc9f,13.51288026,13.46198675,13.33349146,13.33191924,13.33196762,13.33349146,,,,,,,,,,,,,,,,,,,,PF,strong,4,,,,,,,,2,1.117745,,,,,,,,,,,,,,,,,,,,,,,,,,,,6,strong,-88,-66,1,0,0,response5disk,6,117,-1,-11,1,0,0,rectangle,-1,-11,1,0,0,7,7,0.00017,-1,-11,1,0,0,0,116,116,91,1,0,,,,,,,,,,,,,,,,,,,,,
,,,,,,,,,,,,,,,,,,,,,,,,,,,,,,,,,,,,,,,,,,5fd2416e5061f30735e202e9,60685fd2ed5255dfaa9f6a9c,2021-04-03_14h30.31.483,Colour_Similarity_Experiment,2020.2.10,Win32,60,60674ec340277cd6a308bc9f,13.51288026,13.46198675,13.33349146,13.33191924,13.33196762,13.33349146,,,,,,,,,,,,,,,,,,,,PF,weak,4,,,,,,,,6,1.09192,,,,,,,,,,,,,,,,,,,,,,,,,,,,9,weak,118,34,1,0,0,response1disk,5,118,-3,2,1,0,0,rectangle,-3,2,1,0,0,7,0,0.00041,-3,2,1,0,0,0,117,117,134,1,0,,,,,,,,,,,,,,,,,,,,,
,,,,,,,,,,,,,,,,,,,,,,,,,,,,,,,,,,,,,,,,,,5fd2416e5061f30735e202e9,60685fd2ed5255dfaa9f6a9c,2021-04-03_14h30.31.483,Colour_Similarity_Experiment,2020.2.10,Win32,60,60674ec340277cd6a308bc9f,13.51288026,13.46198675,13.33349146,13.33191924,13.33196762,13.33349146,,,,,,,,,,,,,,,,,,,,PF,weak,4,,,,,,,,5,1.47791,,,,,,,,,,,,,,,,,,,,,,,,,,,,1,weak,102,-59,1,0,0,response3disk,6,119,0,1,1,0,0,rectangle,0,1,1,0,0,7,6,0.000455,0,1,1,0,0,0,118,118,144,1,0,,,,,,,,,,,,,,,,,,,,,
,,,,,,,,,,,,,,,,,,,,,,,,,,,,,,,,,,,,,,,,,,5fd2416e5061f30735e202e9,60685fd2ed5255dfaa9f6a9c,2021-04-03_14h30.31.483,Colour_Similarity_Experiment,2020.2.10,Win32,60,60674ec340277cd6a308bc9f,13.51288026,13.46198675,13.33349146,13.33191924,13.33196762,13.33349146,,,,,,,,,,,,,,,,,,,,PF,weak,4,,,,,,,,0,1.34565,,,,,,,,,,,,,,,,,,,,,,,,,,,,8,weak,-34,82,1,0,0,response7disk,9,120,18,-8,1,0,0,rectangle,18,-8,1,0,0,7,1,0.00041,18,-8,1,0,0,0,119,119,42,1,0,,,,,,,,,,,,,,,,,,,,,
,,,,,,,,,,,,,,,,,,,,,,,,,,,,,,,,,,,,,,,,,,5fd2416e5061f30735e202e9,60685fd2ed5255dfaa9f6a9c,2021-04-03_14h30.31.483,Colour_Similarity_Experiment,2020.2.10,Win32,60,60674ec340277cd6a308bc9f,13.51288026,13.46198675,13.33349146,13.33191924,13.33196762,13.33349146,,,,,,,,,,,,,,,,,,,,PF,strong,4,,,,,,,,5,1.839045,,,,,,,,,,,,,,,,,,,,,,,,,,,,4,strong,99,-21,1,0,0,response3disk,1,121,11,4,1,0,0,rectangle,11,4,1,0,0,7,0,0.00094,11,4,1,0,0,0,120,120,102,1,0,,,,,,,,,,,,,,,,,,,,,
,,,,,,,,,,,,,,,,,,,,,,,,,,,,,,,,,,,,,,,,,,5fd2416e5061f30735e202e9,60685fd2ed5255dfaa9f6a9c,2021-04-03_14h30.31.483,Colour_Similarity_Experiment,2020.2.10,Win32,60,60674ec340277cd6a308bc9f,13.51288026,13.46198675,13.33349146,13.33191924,13.33196762,13.33349146,,,,,,,,,,,,,,,,,,,,PF,weak,4,,,,,,,,2,1.105765,,,,,,,,,,,,,,,,,,,,,,,,,,,,2,weak,-108,-32,1,0,0,response5disk,1,122,-4,-3,1,0,0,rectangle,-4,-3,1,0,0,7,0,6.5E-05,-4,-3,1,0,0,0,121,121,9,1,0,,,,,,,,,,,,,,,,,,,,,
,,,,,,,,,,,,,,,,,,,,,,,,,,,,,,,,,,,,,,,,,,5fd2416e5061f30735e202e9,60685fd2ed5255dfaa9f6a9c,2021-04-03_14h30.31.483,Colour_Similarity_Experiment,2020.2.10,Win32,60,60674ec340277cd6a308bc9f,13.51288026,13.46198675,13.33349146,13.33191924,13.33196762,13.33349146,,,,,,,,,,,,,,,,,,,,PF,strong,4,,,,,,,,5,1.398705,,,,,,,,,,,,,,,,,,,,,,,,,,,,2,strong,79,-41,1,0,0,response3disk,9,123,22,-8,1,0,0,rectangle,22,-8,1,0,0,7,2,0.000935,22,-8,1,0,0,0,122,122,72,1,0,,,,,,,,,,,,,,,,,,,,,
,,,,,,,,,,,,,,,,,,,,,,,,,,,,,,,,,,,,,,,,,,5fd2416e5061f30735e202e9,60685fd2ed5255dfaa9f6a9c,2021-04-03_14h30.31.483,Colour_Similarity_Experiment,2020.2.10,Win32,60,60674ec340277cd6a308bc9f,13.51288026,13.46198675,13.33349146,13.33191924,13.33196762,13.33349146,,,,,,,,,,,,,,,,,,,,PF,strong,4,,,,,,,,3,1.584585,,,,,,,,,,,,,,,,,,,,,,,,,,,,1,strong,-47,-66,1,0,0,response5disk,5,124,19,4,1,0,0,rectangle,19,4,1,0,0,7,3,0.000485,19,4,1,0,0,0,123,123,82,1,0,,,,,,,,,,,,,,,,,,,,,
,,,,,,,,,,,,,,,,,,,,,,,,,,,,,,,,,,,,,,,,,,5fd2416e5061f30735e202e9,60685fd2ed5255dfaa9f6a9c,2021-04-03_14h30.31.483,Colour_Similarity_Experiment,2020.2.10,Win32,60,60674ec340277cd6a308bc9f,13.51288026,13.46198675,13.33349146,13.33191924,13.33196762,13.33349146,,,,,,,,,,,,,,,,,,,,PF,strong,4,,,,,,,,2,1.41246,,,,,,,,,,,,,,,,,,,,,,,,,,,,5,strong,-71,-44,1,0,0,response5disk,4,125,18,-10,1,0,0,rectangle,18,-10,1,0,0,7,2,0.00049,18,-10,1,0,0,0,124,124,8,1,0,,,,,,,,,,,,,,,,,,,,,
,,,,,,,,,,,,,,,,,,,,,,,,,,,,,,,,,,,,,,,,,,5fd2416e5061f30735e202e9,60685fd2ed5255dfaa9f6a9c,2021-04-03_14h30.31.483,Colour_Similarity_Experiment,2020.2.10,Win32,60,60674ec340277cd6a308bc9f,13.51288026,13.46198675,13.33349146,13.33191924,13.33196762,13.33349146,,,,,,,,,,,,,,,,,,,,PF,strong,4,,,,,,,,0,1.34454,,,,,,,,,,,,,,,,,,,,,,,,,,,,3,strong,-34,108,1,0,0,response7disk,5,126,8,-2,1,0,0,rectangle,8,-2,1,0,0,7,7,0.00041,8,-2,1,0,0,0,125,125,101,1,0,,,,,,,,,,,,,,,,,,,,,
,,,,,,,,,,,,,,,,,,,,,,,,,,,,,,,,,,,,,,,,,,5fd2416e5061f30735e202e9,60685fd2ed5255dfaa9f6a9c,2021-04-03_14h30.31.483,Colour_Similarity_Experiment,2020.2.10,Win32,60,60674ec340277cd6a308bc9f,13.51288026,13.46198675,13.33349146,13.33191924,13.33196762,13.33349146,,,,,,,,,,,,,,,,,,,,PF,strong,4,,,,,,,,0,1.13245,,,,,,,,,,,,,,,,,,,,,,,,,,,,4,strong,-31,106,1,0,0,response7disk,4,127,19,-15,1,0,0,rectangle,19,-15,1,0,0,7,0,0.000895,19,-15,1,0,0,0,126,126,84,1,0,,,,,,,,,,,,,,,,,,,,,
,,,,,,,,,,,,,,,,,,,,,,,,,,,,,,,,,,,,,,,,,,5fd2416e5061f30735e202e9,60685fd2ed5255dfaa9f6a9c,2021-04-03_14h30.31.483,Colour_Similarity_Experiment,2020.2.10,Win32,60,60674ec340277cd6a308bc9f,13.51288026,13.46198675,13.33349146,13.33191924,13.33196762,13.33349146,,,,,,,,,,,,,,,,,,,,PF,weak,4,,,,,,,,4,1.292475,,,,,,,,,,,,,,,,,,,,,,,,,,,,5,weak,58,-113,1,0,0,response3disk,2,128,5,-3,1,0,0,rectangle,5,-3,1,0,0,7,5,0.000485,5,-3,1,0,0,0,127,127,129,1,0,,,,,,,,,,,,,,,,,,,,,
,,,,,,,,,,,,,,,,,,,,,,,,,,,,,,,,,,,,,,,,,,5fd2416e5061f30735e202e9,60685fd2ed5255dfaa9f6a9c,2021-04-03_14h30.31.483,Colour_Similarity_Experiment,2020.2.10,Win32,60,60674ec340277cd6a308bc9f,13.51288026,13.46198675,13.33349146,13.33191924,13.33196762,13.33349146,,,,,,,,,,,,,,,,,,,,PF,strong,4,,,,,,,,2,0.959065,,,,,,,,,,,,,,,,,,,,,,,,,,,,9,strong,-92,-61,1,0,0,response5disk,3,129,-6,0,1,0,0,rectangle,-6,0,1,0,0,7,2,0.00042,-6,0,1,0,0,0,128,128,141,1,0,,,,,,,,,,,,,,,,,,,,,
,,,,,,,,,,,,,,,,,,,,,,,,,,,,,,,,,,,,,,,,,,5fd2416e5061f30735e202e9,60685fd2ed5255dfaa9f6a9c,2021-04-03_14h30.31.483,Colour_Similarity_Experiment,2020.2.10,Win32,60,60674ec340277cd6a308bc9f,13.51288026,13.46198675,13.33349146,13.33191924,13.33196762,13.33349146,,,,,,,,,,,,,,,,,,,,PF,strong,4,,,,,,,,4,1.43781,,,,,,,,,,,,,,,,,,,,,,,,,,,,5,strong,50,-84,1,0,0,response3disk,1,130,16,0,1,0,0,rectangle,16,0,1,0,0,7,6,0.000465,16,0,1,0,0,0,129,129,131,1,0,,,,,,,,,,,,,,,,,,,,,
,,,,,,,,,,,,,,,,,,,,,,,,,,,,,,,,,,,,,,,,,,5fd2416e5061f30735e202e9,60685fd2ed5255dfaa9f6a9c,2021-04-03_14h30.31.483,Colour_Similarity_Experiment,2020.2.10,Win32,60,60674ec340277cd6a308bc9f,13.51288026,13.46198675,13.33349146,13.33191924,13.33196762,13.33349146,,,,,,,,,,,,,,,,,,,,PF,strong,4,,,,,,,,4,2.210805,,,,,,,,,,,,,,,,,,,,,,,,,,,,5,strong,65,-81,1,0,0,response3disk,7,131,31,-6,1,0,0,rectangle,31,-6,1,0,0,7,4,0.000875,31,-6,1,0,0,0,130,130,7,1,0,,,,,,,,,,,,,,,,,,,,,
,,,,,,,,,,,,,,,,,,,,,,,,,,,,,,,,,,,,,,,,,,5fd2416e5061f30735e202e9,60685fd2ed5255dfaa9f6a9c,2021-04-03_14h30.31.483,Colour_Similarity_Experiment,2020.2.10,Win32,60,60674ec340277cd6a308bc9f,13.51288026,13.46198675,13.33349146,13.33191924,13.33196762,13.33349146,,,,,,,,,,,,,,,,,,,,PF,strong,4,,,,,,,,1,0.94452,,,,,,,,,,,,,,,,,,,,,,,,,,,,3,strong,-84,52,1,0,0,response7disk,3,132,28,-7,1,0,0,rectangle,28,-7,1,0,0,7,6,0.000465,28,-7,1,0,0,0,131,131,68,1,0,,,,,,,,,,,,,,,,,,,,,
,,,,,,,,,,,,,,,,,,,,,,,,,,,,,,,,,,,,,,,,,,5fd2416e5061f30735e202e9,60685fd2ed5255dfaa9f6a9c,2021-04-03_14h30.31.483,Colour_Similarity_Experiment,2020.2.10,Win32,60,60674ec340277cd6a308bc9f,13.51288026,13.46198675,13.33349146,13.33191924,13.33196762,13.33349146,,,,,,,,,,,,,,,,,,,,PF,strong,4,,,,,,,,3,1.29119,,,,,,,,,,,,,,,,,,,,,,,,,,,,3,strong,-32,-90,1,0,0,response5disk,2,133,9,5,1,0,0,rectangle,9,5,1,0,0,7,0,0.00051,9,5,1,0,0,0,132,132,93,1,0,,,,,,,,,,,,,,,,,,,,,
,,,,,,,,,,,,,,,,,,,,,,,,,,,,,,,,,,,,,,,,,,5fd2416e5061f30735e202e9,60685fd2ed5255dfaa9f6a9c,2021-04-03_14h30.31.483,Colour_Similarity_Experiment,2020.2.10,Win32,60,60674ec340277cd6a308bc9f,13.51288026,13.46198675,13.33349146,13.33191924,13.33196762,13.33349146,,,,,,,,,,,,,,,,,,,,PF,weak,4,,,,,,,,5,1.331395,,,,,,,,,,,,,,,,,,,,,,,,,,,,7,weak,97,-56,1,0,0,response3disk,1,134,13,2,1,0,0,rectangle,13,2,1,0,0,7,1,0.000465,13,2,1,0,0,0,133,133,53,1,0,,,,,,,,,,,,,,,,,,,,,
,,,,,,,,,,,,,,,,,,,,,,,,,,,,,,,,,,,,,,,,,,5fd2416e5061f30735e202e9,60685fd2ed5255dfaa9f6a9c,2021-04-03_14h30.31.483,Colour_Similarity_Experiment,2020.2.10,Win32,60,60674ec340277cd6a308bc9f,13.51288026,13.46198675,13.33349146,13.33191924,13.33196762,13.33349146,,,,,,,,,,,,,,,,,,,,PF,strong,4,,,,,,,,6,1.785695,,,,,,,,,,,,,,,,,,,,,,,,,,,,8,strong,94,42,1,0,0,response1disk,9,135,14,6,1,0,0,rectangle,14,6,1,0,0,7,3,0.000425,14,6,1,0,0,0,134,134,105,1,0,,,,,,,,,,,,,,,,,,,,,
,,,,,,,,,,,,,,,,,,,,,,,,,,,,,,,,,,,,,,,,,,5fd2416e5061f30735e202e9,60685fd2ed5255dfaa9f6a9c,2021-04-03_14h30.31.483,Colour_Similarity_Experiment,2020.2.10,Win32,60,60674ec340277cd6a308bc9f,13.51288026,13.46198675,13.33349146,13.33191924,13.33196762,13.33349146,,,,,,,,,,,,,,,,,,,,PF,weak,4,,,,,,,,0,0.99907,,,,,,,,,,,,,,,,,,,,,,,,,,,,4,weak,-53,104,1,0,0,response7disk,3,136,-7,-11,1,0,0,rectangle,-7,-11,1,0,0,7,7,0.000535,-7,-11,1,0,0,0,135,135,89,1,0,,,,,,,,,,,,,,,,,,,,,
,,,,,,,,,,,,,,,,,,,,,,,,,,,,,,,,,,,,,,,,,,5fd2416e5061f30735e202e9,60685fd2ed5255dfaa9f6a9c,2021-04-03_14h30.31.483,Colour_Similarity_Experiment,2020.2.10,Win32,60,60674ec340277cd6a308bc9f,13.51288026,13.46198675,13.33349146,13.33191924,13.33196762,13.33349146,,,,,,,,,,,,,,,,,,,,PF,strong,4,,,,,,,,0,1.19918,,,,,,,,,,,,,,,,,,,,,,,,,,,,9,strong,-41,85,1,0,0,response7disk,5,137,15,10,1,0,0,rectangle,15,10,1,0,0,7,1,0.00047,15,10,1,0,0,0,136,136,128,1,0,,,,,,,,,,,,,,,,,,,,,
,,,,,,,,,,,,,,,,,,,,,,,,,,,,,,,,,,,,,,,,,,5fd2416e5061f30735e202e9,60685fd2ed5255dfaa9f6a9c,2021-04-03_14h30.31.483,Colour_Similarity_Experiment,2020.2.10,Win32,60,60674ec340277cd6a308bc9f,13.51288026,13.46198675,13.33349146,13.33191924,13.33196762,13.33349146,,,,,,,,,,,,,,,,,,,,PF,weak,4,,,,,,,,6,2.237905,,,,,,,,,,,,,,,,,,,,,,,,,,,,9,weak,61,39,1,0,0,response1disk,6,138,1,5,1,0,0,rectangle,1,5,1,0,0,7,2,0.00058,1,5,1,0,0,0,137,137,148,1,0,,,,,,,,,,,,,,,,,,,,,
,,,,,,,,,,,,,,,,,,,,,,,,,,,,,,,,,,,,,,,,,,5fd2416e5061f30735e202e9,60685fd2ed5255dfaa9f6a9c,2021-04-03_14h30.31.483,Colour_Similarity_Experiment,2020.2.10,Win32,60,60674ec340277cd6a308bc9f,13.51288026,13.46198675,13.33349146,13.33191924,13.33196762,13.33349146,,,,,,,,,,,,,,,,,,,,PF,weak,4,,,,,,,,3,2.051085,,,,,,,,,,,,,,,,,,,,,,,,,,,,7,weak,-50,-92,1,0,0,response5disk,9,139,11,-1,1,0,0,rectangle,11,-1,1,0,0,7,2,0.000415,11,-1,1,0,0,0,138,138,10,1,0,,,,,,,,,,,,,,,,,,,,,
,,,,,,,,,,,,,,,,,,,,,,,,,,,,,,,,,,,,,,,,,,5fd2416e5061f30735e202e9,60685fd2ed5255dfaa9f6a9c,2021-04-03_14h30.31.483,Colour_Similarity_Experiment,2020.2.10,Win32,60,60674ec340277cd6a308bc9f,13.51288026,13.46198675,13.33349146,13.33191924,13.33196762,13.33349146,,,,,,,,,,,,,,,,,,,,PF,strong,4,,,,,,,,6,1.784575,,,,,,,,,,,,,,,,,,,,,,,,,,,,7,strong,125,48,1,0,0,response1disk,8,140,12,9,1,0,0,rectangle,119,-44,1,0,0,5,5,1.441685,5,-3,1,0,0,0,139,139,97,1,1,response3disk_3,rectangle,,,,,,,,,,,,,,,,,,,
,,,,,,,,,,,,,,,,,,,,,,,,,,,,,,,,,,,,,,,,,,5fd2416e5061f30735e202e9,60685fd2ed5255dfaa9f6a9c,2021-04-03_14h30.31.483,Colour_Similarity_Experiment,2020.2.10,Win32,60,60674ec340277cd6a308bc9f,13.51288026,13.46198675,13.33349146,13.33191924,13.33196762,13.33349146,,,,,,,,,,,,,,,,,,,,PF,strong,4,,,,,,,,3,1.412235,,,,,,,,,,,,,,,,,,,,,,,,,,,,6,strong,-41,-69,1,0,0,response5disk,1,141,5,-13,1,0,0,rectangle,5,-13,1,0,0,5,5,6.5E-05,5,-13,1,0,0,0,140,140,5,1,0,,,,,,,,,,,,,,,,,,,,,
,,,,,,,,,,,,,,,,,,,,,,,,,,,,,,,,,,,,,,,,,,5fd2416e5061f30735e202e9,60685fd2ed5255dfaa9f6a9c,2021-04-03_14h30.31.483,Colour_Similarity_Experiment,2020.2.10,Win32,60,60674ec340277cd6a308bc9f,13.51288026,13.46198675,13.33349146,13.33191924,13.33196762,13.33349146,,,,,,,,,,,,,,,,,,,,PF,strong,4,,,,,,,,1,1.344465,,,,,,,,,,,,,,,,,,,,,,,,,,,,8,strong,-63,36,1,0,0,response7disk,3,142,-7,1,1,0,0,rectangle,-7,1,1,0,0,5,6,0.000505,-7,1,1,0,0,0,141,141,154,1,0,,,,,,,,,,,,,,,,,,,,,
,,,,,,,,,,,,,,,,,,,,,,,,,,,,,,,,,,,,,,,,,,5fd2416e5061f30735e202e9,60685fd2ed5255dfaa9f6a9c,2021-04-03_14h30.31.483,Colour_Similarity_Experiment,2020.2.10,Win32,60,60674ec340277cd6a308bc9f,13.51288026,13.46198675,13.33349146,13.33191924,13.33196762,13.33349146,,,,,,,,,,,,,,,,,,,,PF,weak,4,,,,,,,,4,0.97125,,,,,,,,,,,,,,,,,,,,,,,,,,,,2,weak,36,-107,1,0,0,response3disk,9,143,15,-5,1,0,0,rectangle,15,-5,1,0,0,5,1,0.000425,15,-5,1,0,0,0,142,142,39,1,0,,,,,,,,,,,,,,,,,,,,,
,,,,,,,,,,,,,,,,,,,,,,,,,,,,,,,,,,,,,,,,,,5fd2416e5061f30735e202e9,60685fd2ed5255dfaa9f6a9c,2021-04-03_14h30.31.483,Colour_Similarity_Experiment,2020.2.10,Win32,60,60674ec340277cd6a308bc9f,13.51288026,13.46198675,13.33349146,13.33191924,13.33196762,13.33349146,,,,,,,,,,,,,,,,,,,,PF,strong,4,,,,,,,,1,1.531215,,,,,,,,,,,,,,,,,,,,,,,,,,,,8,strong,-98,26,1,0,0,response7disk,8,144,-1,-16,1,0,0,rectangle,-1,-16,1,0,0,5,2,0.000495,-1,-16,1,0,0,0,143,143,48,1,0,,,,,,,,,,,,,,,,,,,,,
,,,,,,,,,,,,,,,,,,,,,,,,,,,,,,,,,,,,,,,,,,5fd2416e5061f30735e202e9,60685fd2ed5255dfaa9f6a9c,2021-04-03_14h30.31.483,Colour_Similarity_Experiment,2020.2.10,Win32,60,60674ec340277cd6a308bc9f,13.51288026,13.46198675,13.33349146,13.33191924,13.33196762,13.33349146,,,,,,,,,,,,,,,,,,,,PF,strong,4,,,,,,,,0,1.117925,,,,,,,,,,,,,,,,,,,,,,,,,,,,2,strong,-53,102,1,0,0,response7disk,4,145,11,-1,1,0,0,rectangle,11,-1,1,0,0,5,1,0.00076,11,-1,1,0,0,0,144,144,145,1,0,,,,,,,,,,,,,,,,,,,,,
,,,,,,,,,,,,,,,,,,,,,,,,,,,,,,,,,,,,,,,,,,5fd2416e5061f30735e202e9,60685fd2ed5255dfaa9f6a9c,2021-04-03_14h30.31.483,Colour_Similarity_Experiment,2020.2.10,Win32,60,60674ec340277cd6a308bc9f,13.51288026,13.46198675,13.33349146,13.33191924,13.33196762,13.33349146,,,,,,,,,,,,,,,,,,,,PF,weak,4,,,,,,,,6,1.117815,,,,,,,,,,,,,,,,,,,,,,,,,,,,3,weak,116,60,1,0,0,response1disk,1,146,17,-19,1,0,0,rectangle,17,-19,1,0,0,5,1,7.5E-05,17,-19,1,0,0,0,145,145,96,1,0,,,,,,,,,,,,,,,,,,,,,
,,,,,,,,,,,,,,,,,,,,,,,,,,,,,,,,,,,,,,,,,,5fd2416e5061f30735e202e9,60685fd2ed5255dfaa9f6a9c,2021-04-03_14h30.31.483,Colour_Similarity_Experiment,2020.2.10,Win32,60,60674ec340277cd6a308bc9f,13.51288026,13.46198675,13.33349146,13.33191924,13.33196762,13.33349146,,,,,,,,,,,,,,,,,,,,PF,weak,4,,,,,,,,4,1.317795,,,,,,,,,,,,,,,,,,,,,,,,,,,,2,weak,47,-110,1,0,0,response3disk,5,147,0,17,1,0,0,rectangle,0,17,1,0,0,5,4,0.0004,0,17,1,0,0,0,146,146,147,1,0,,,,,,,,,,,,,,,,,,,,,
,,,,,,,,,,,,,,,,,,,,,,,,,,,,,,,,,,,,,,,,,,5fd2416e5061f30735e202e9,60685fd2ed5255dfaa9f6a9c,2021-04-03_14h30.31.483,Colour_Similarity_Experiment,2020.2.10,Win32,60,60674ec340277cd6a308bc9f,13.51288026,13.46198675,13.33349146,13.33191924,13.33196762,13.33349146,,,,,,,,,,,,,,,,,,,,PF,strong,4,,,,,,,,7,1.38459,,,,,,,,,,,,,,,,,,,,,,,,,,,,9,strong,90,133,1,0,0,response1disk,8,148,24,16,1,0,0,rectangle,24,16,1,0,0,5,1,0.00047,24,16,1,0,0,0,147,147,6,1,0,,,,,,,,,,,,,,,,,,,,,
,,,,,,,,,,,,,,,,,,,,,,,,,,,,,,,,,,,,,,,,,,5fd2416e5061f30735e202e9,60685fd2ed5255dfaa9f6a9c,2021-04-03_14h30.31.483,Colour_Similarity_Experiment,2020.2.10,Win32,60,60674ec340277cd6a308bc9f,13.51288026,13.46198675,13.33349146,13.33191924,13.33196762,13.33349146,,,,,,,,,,,,,,,,,,,,PF,strong,4,,,,,,,,0,1.079125,,,,,,,,,,,,,,,,,,,,,,,,,,,,1,strong,-30,107,1,0,0,response7disk,4,149,-1,8,1,0,0,rectangle,-1,8,1,0,0,5,4,0.000485,-1,8,1,0,0,0,148,148,135,1,0,,,,,,,,,,,,,,,,,,,,,
,,,,,,,,,,,,,,,,,,,,,,,,,,,,,,,,,,,,,,,,,,5fd2416e5061f30735e202e9,60685fd2ed5255dfaa9f6a9c,2021-04-03_14h30.31.483,Colour_Similarity_Experiment,2020.2.10,Win32,60,60674ec340277cd6a308bc9f,13.51288026,13.46198675,13.33349146,13.33191924,13.33196762,13.33349146,,,,,,,,,,,,,,,,,,,,PF,weak,4,,,,,,,,4,1.425735,,,,,,,,,,,,,,,,,,,,,,,,,,,,2,weak,58,-84,1,0,0,response3disk,3,150,11,13,1,0,0,rectangle,11,13,1,0,0,5,4,5.5E-05,11,13,1,0,0,0,149,149,69,1,0,,,,,,,,,,,,,,,,,,,,,
,,,,,,,,,,,,,,,,,,,,,,,,,,,,,,,,,,,,,,,,,,5fd2416e5061f30735e202e9,60685fd2ed5255dfaa9f6a9c,2021-04-03_14h30.31.483,Colour_Similarity_Experiment,2020.2.10,Win32,60,60674ec340277cd6a308bc9f,13.51288026,13.46198675,13.33349146,13.33191924,13.33196762,13.33349146,,,,,,,,,,,,,,,,,,,,PF,strong,4,,,,,,,,1,1.15927,,,,,,,,,,,,,,,,,,,,,,,,,,,,2,strong,-92,45,1,0,0,response7disk,3,151,-4,-4,1,0,0,rectangle,-96,52,1,0,0,1,1,1.38652,1,-9,1,0,0,0,150,150,104,1,1,response7disk_3,rectangle,,,,,,,,,,,,,,,,,,,
,,,,,,,,,,,,,,,,,,,,,,,,,,,,,,,,,,,,,,,,,,5fd2416e5061f30735e202e9,60685fd2ed5255dfaa9f6a9c,2021-04-03_14h30.31.483,Colour_Similarity_Experiment,2020.2.10,Win32,60,60674ec340277cd6a308bc9f,13.51288026,13.46198675,13.33349146,13.33191924,13.33196762,13.33349146,,,,,,,,,,,,,,,,,,,,PF,weak,4,,,,,,,,4,1.825745,,,,,,,,,,,,,,,,,,,,,,,,,,,,9,weak,40,-86,1,0,0,response3disk,8,152,8,-7,1,0,0,rectangle,8,-7,1,0,0,1,0,0.000615,8,-7,1,0,0,0,151,151,67,1,0,,,,,,,,,,,,,,,,,,,,,
,,,,,,,,,,,,,,,,,,,,,,,,,,,,,,,,,,,,,,,,,,5fd2416e5061f30735e202e9,60685fd2ed5255dfaa9f6a9c,2021-04-03_14h30.31.483,Colour_Similarity_Experiment,2020.2.10,Win32,60,60674ec340277cd6a308bc9f,13.51288026,13.46198675,13.33349146,13.33191924,13.33196762,13.33349146,,,,,,,,,,,,,,,,,,,,PF,strong,4,,,,,,,,1,0.77248,,,,,,,,,,,,,,,,,,,,,,,,,,,,8,strong,-89,36,1,0,0,response7disk,5,153,7,-15,1,0,0,rectangle,7,-15,1,0,0,1,7,0.00046,7,-15,1,0,0,0,152,152,152,1,0,,,,,,,,,,,,,,,,,,,,,
,,,,,,,,,,,,,,,,,,,,,,,,,,,,,,,,,,,,,,,,,,5fd2416e5061f30735e202e9,60685fd2ed5255dfaa9f6a9c,2021-04-03_14h30.31.483,Colour_Similarity_Experiment,2020.2.10,Win32,60,60674ec340277cd6a308bc9f,13.51288026,13.46198675,13.33349146,13.33191924,13.33196762,13.33349146,,,,,,,,,,,,,,,,,,,,PF,strong,4,,,,,,,,6,0.54563,,,,,,,,,,,,,,,,,,,,,,,,,,,,6,strong,79,48,1,0,0,response1disk,8,154,17,3,1,0,0,rectangle,17,3,1,0,0,1,1,0.00048,17,3,1,0,0,0,153,153,133,1,0,,,,,,,,,,,,,,,,,,,,,
,,,,,,,,,,,,,,,,,,,,,,,,,,,,,,,,,,,,,,,,,,5fd2416e5061f30735e202e9,60685fd2ed5255dfaa9f6a9c,2021-04-03_14h30.31.483,Colour_Similarity_Experiment,2020.2.10,Win32,60,60674ec340277cd6a308bc9f,13.51288026,13.46198675,13.33349146,13.33191924,13.33196762,13.33349146,,,,,,,,,,,,,,,,,,,,PF,strong,4,,,,,,,,1,0.278015,,,,,,,,,,,,,,,,,,,,,,,,,,,,6,strong,-51,43,1,0,0,response7disk,7,155,-9,1,1,0,0,rectangle,-9,1,1,0,0,1,1,7.5E-05,-9,1,1,0,0,0,154,154,18,1,0,,,,,,,,,,,,,,,,,,,,,
,,,,,,,,,,,,,,,,,,,,,,,,,,,,,,,,,,,,,,,,,,5fd2416e5061f30735e202e9,60685fd2ed5255dfaa9f6a9c,2021-04-03_14h30.31.483,Colour_Similarity_Experiment,2020.2.10,Win32,60,60674ec340277cd6a308bc9f,13.51288026,13.46198675,13.33349146,13.33191924,13.33196762,13.33349146,,,,,,,,,,,,,,,,,,,,PF,weak,4,,,,,,,,3,0.865835,,,,,,,,,,,,,,,,,,,,,,,,,,,,1,weak,-50,-64,1,0,0,response5disk,1,156,7,0,1,0,0,rectangle,-29,110,1,0,0,0,0,1.733335,16,7,1,0,0,0,155,155,76,1,1,response7disk_3,rectangle,,,,,,,,,,,,,,,,,,,
,,,,,,,,,,,,,,,,,,,,,,,,,,,,,,,,,,,,,,,,,,5fd2416e5061f30735e202e9,60685fd2ed5255dfaa9f6a9c,2021-04-03_14h30.31.483,Colour_Similarity_Experiment,2020.2.10,Win32,60,60674ec340277cd6a308bc9f,13.51288026,13.46198675,13.33349146,13.33191924,13.33196762,13.33349146,,,,,,,,,,,,,,,,,,,,PF,weak,4,,,,,,,,1,0.984445,,,,,,,,,,,,,,,,,,,,,,,,,,,,3,weak,-96,48,1,0,0,response7disk,4,157,7,7,1,0,0,rectangle,7,7,1,0,0,0,7,0.000525,7,7,1,0,0,0,156,156,30,1,0,,,,,,,,,,,,,,,,,,,,,
,,,,,,,,,,,,,,,,,,,,,,,,,,,,,,,,,,,,,,,,,,5fd2416e5061f30735e202e9,60685fd2ed5255dfaa9f6a9c,2021-04-03_14h30.31.483,Colour_Similarity_Experiment,2020.2.10,Win32,60,60674ec340277cd6a308bc9f,13.51288026,13.46198675,13.33349146,13.33191924,13.33196762,13.33349146,,,,,,,,,,,,,,,,,,,,PF,strong,4,,,,,,,,3,1.01121,,,,,,,,,,,,,,,,,,,,,,,,,,,,1,strong,-31,-84,1,0,0,response5disk,7,158,23,12,1,0,0,rectangle,23,12,1,0,0,0,2,0.00048,23,12,1,0,0,0,157,157,137,1,0,,,,,,,,,,,,,,,,,,,,,
,,,,,,,,,,,,,,,,,,,,,,,,,,,,,,,,,,,,,,,,,,5fd2416e5061f30735e202e9,60685fd2ed5255dfaa9f6a9c,2021-04-03_14h30.31.483,Colour_Similarity_Experiment,2020.2.10,Win32,60,60674ec340277cd6a308bc9f,13.51288026,13.46198675,13.33349146,13.33191924,13.33196762,13.33349146,,,,,,,,,,,,,,,,,,,,PF,weak,4,,,,,,,,6,0.772345,,,,,,,,,,,,,,,,,,,,,,,,,,,,5,weak,116,47,1,0,0,response1disk,1,159,9,-4,1,0,0,rectangle,-46,121,1,0,0,0,0,1.266655,-2,1,1,0,0,0,158,158,159,1,1,response7disk_3,rectangle,,,,,,,,,,,,,,,,,,,
,,,,,,,,,,,,,,,,,,,,,,,,,,,,,,,,,,,,,,,,,,5fd2416e5061f30735e202e9,60685fd2ed5255dfaa9f6a9c,2021-04-03_14h30.31.483,Colour_Similarity_Experiment,2020.2.10,Win32,60,60674ec340277cd6a308bc9f,13.51288026,13.46198675,13.33349146,13.33191924,13.33196762,13.33349146,,,,,,,,,,,,,,,,,,,,PF,weak,4,,,,,,,,5,0.87795,,,,,,,,,,,,,,,,,,,,,,,,,,,,2,weak,84,-77,1,0,0,response3disk,4,160,6,6,1,0,0,rectangle,6,6,1,0,0,0,1,0.00042,6,6,1,0,0,0,159,159,127,1,0,,,,,,,,,,,,,,,,,,,,,
,,,,,,,,,,,,,,,,,,,,,,,,,,,,,,,,,,,,,,,,,,5fd2416e5061f30735e202e9,60685fd2ed5255dfaa9f6a9c,2021-04-03_14h30.31.483,Colour_Similarity_Experiment,2020.2.10,Win32,60,60674ec340277cd6a308bc9f,13.51288026,13.46198675,13.33349146,13.33191924,13.33196762,13.33349146,,,,,,,,,,,,,,,,,,,,PF,strong,4,,,,,,,,4,0.95921,,,,,,,,,,,,,,,,,,,,,,,,,,,,3,strong,53,-95,1,0,0,response3disk,8,161,19,9,1,0,0,rectangle,19,9,1,0,0,0,4,0.000395,19,9,1,0,0,0,160,160,44,1,0,,,,,,,,,,,,,,,,,,,,,
,,,,,,,,,,,,,,,,,,,,,,,,,,,,,,,,,,,,,,,,,,5fd2416e5061f30735e202e9,60685fd2ed5255dfaa9f6a9c,2021-04-03_14h30.31.483,Colour_Similarity_Experiment,2020.2.10,Win32,60,60674ec340277cd6a308bc9f,13.51288026,13.46198675,13.33349146,13.33191924,13.33196762,13.33349146,,,,,,,,,,,,,,,,,,,,PF,weak,4,,,,,,,,4,0.78588,,,,,,,,,,,,,,,,,,,,,,,,,,,,3,weak,74,-109,1,0,0,response3disk,7,162,-8,3,1,0,0,rectangle,-8,3,1,0,0,0,2,0.0004,-8,3,1,0,0,0,161,161,41,1,0,,,,,,,,,,,,,,,,,,,,,
,,,,,,,,,,,,,,,,,,,,,,,,,,,,,,,,,,,,,,,,,,5fd2416e5061f30735e202e9,60685fd2ed5255dfaa9f6a9c,2021-04-03_14h30.31.483,Colour_Similarity_Experiment,2020.2.10,Win32,60,60674ec340277cd6a308bc9f,13.51288026,13.46198675,13.33349146,13.33191924,13.33196762,13.33349146,,,,,,,,,,,,,,,,,,,,,,,,,,,,,,,,,,,,,,,,,,,,,,,,,,,,,,,,,,,,,,,,,,,,,,,,,,,,,,,,,,,,,,,,,,,,,,,,0,0,0,0,1,,,,,,,,,,,,,,
,,,,,,,,,,,,,,,,,,,,,,,,,,,,,,,,,,,,,,,,,,5fd2416e5061f30735e202e9,60685fd2ed5255dfaa9f6a9c,2021-04-03_14h30.31.483,Colour_Similarity_Experiment,2020.2.10,Win32,60,60674ec340277cd6a308bc9f,13.51288026,13.46198675,13.33349146,13.33191924,13.33196762,13.33349146,,,,,,,,,,,,,,,,,,,,PF,weak,4,,,,,,,,4,1.50668,,,,,,,,,,,,,,,,,,,,,,,,,,,,7,weak,70,-92,1,0,0,response3disk,3,163,41,-18,1,0,0,rectangle,41,-18,1,0,0,0,3,0.000475,41,-18,1,0,0,0,0,0,81,1,0,,,,,,,,,,,,,,,,,,,,,
,,,,,,,,,,,,,,,,,,,,,,,,,,,,,,,,,,,,,,,,,,5fd2416e5061f30735e202e9,60685fd2ed5255dfaa9f6a9c,2021-04-03_14h30.31.483,Colour_Similarity_Experiment,2020.2.10,Win32,60,60674ec340277cd6a308bc9f,13.51288026,13.46198675,13.33349146,13.33191924,13.33196762,13.33349146,,,,,,,,,,,,,,,,,,,,PF,weak,4,,,,,,,,2,1.319905,,,,,,,,,,,,,,,,,,,,,,,,,,,,8,weak,-106,-39,1,0,0,response5disk,7,164,-8,5,1,0,0,rectangle,-8,5,1,0,0,0,1,0.00055,-8,5,1,0,0,0,1,1,23,1,0,,,,,,,,,,,,,,,,,,,,,
,,,,,,,,,,,,,,,,,,,,,,,,,,,,,,,,,,,,,,,,,,5fd2416e5061f30735e202e9,60685fd2ed5255dfaa9f6a9c,2021-04-03_14h30.31.483,Colour_Similarity_Experiment,2020.2.10,Win32,60,60674ec340277cd6a308bc9f,13.51288026,13.46198675,13.33349146,13.33191924,13.33196762,13.33349146,,,,,,,,,,,,,,,,,,,,PF,strong,4,,,,,,,,3,0.94653,,,,,,,,,,,,,,,,,,,,,,,,,,,,8,strong,-50,-92,1,0,0,response5disk,6,165,-9,2,1,0,0,rectangle,-9,2,1,0,0,0,3,0.000485,-9,2,1,0,0,0,2,2,37,1,0,,,,,,,,,,,,,,,,,,,,,
,,,,,,,,,,,,,,,,,,,,,,,,,,,,,,,,,,,,,,,,,,5fd2416e5061f30735e202e9,60685fd2ed5255dfaa9f6a9c,2021-04-03_14h30.31.483,Colour_Similarity_Experiment,2020.2.10,Win32,60,60674ec340277cd6a308bc9f,13.51288026,13.46198675,13.33349146,13.33191924,13.33196762,13.33349146,,,,,,,,,,,,,,,,,,,,PF,strong,4,,,,,,,,4,1.0266,,,,,,,,,,,,,,,,,,,,,,,,,,,,1,strong,53,-88,1,0,0,response3disk,8,166,15,7,1,0,0,rectangle,15,7,1,0,0,0,3,6.5E-05,15,7,1,0,0,0,3,3,27,1,0,,,,,,,,,,,,,,,,,,,,,
,,,,,,,,,,,,,,,,,,,,,,,,,,,,,,,,,,,,,,,,,,5fd2416e5061f30735e202e9,60685fd2ed5255dfaa9f6a9c,2021-04-03_14h30.31.483,Colour_Similarity_Experiment,2020.2.10,Win32,60,60674ec340277cd6a308bc9f,13.51288026,13.46198675,13.33349146,13.33191924,13.33196762,13.33349146,,,,,,,,,,,,,,,,,,,,PF,strong,4,,,,,,,,1,1.15993,,,,,,,,,,,,,,,,,,,,,,,,,,,,7,strong,-91,62,1,0,0,response7disk,7,167,14,9,1,0,0,rectangle,14,9,1,0,0,0,2,0.000545,14,9,1,0,0,0,4,4,34,1,0,,,,,,,,,,,,,,,,,,,,,
,,,,,,,,,,,,,,,,,,,,,,,,,,,,,,,,,,,,,,,,,,5fd2416e5061f30735e202e9,60685fd2ed5255dfaa9f6a9c,2021-04-03_14h30.31.483,Colour_Similarity_Experiment,2020.2.10,Win32,60,60674ec340277cd6a308bc9f,13.51288026,13.46198675,13.33349146,13.33191924,13.33196762,13.33349146,,,,,,,,,,,,,,,,,,,,PF,strong,4,,,,,,,,4,2.119855,,,,,,,,,,,,,,,,,,,,,,,,,,,,7,strong,42,-101,1,0,0,response3disk,2,168,5,14,1,0,0,rectangle,5,14,1,0,0,0,4,0.00064,5,14,1,0,0,0,5,5,138,1,0,,,,,,,,,,,,,,,,,,,,,
,,,,,,,,,,,,,,,,,,,,,,,,,,,,,,,,,,,,,,,,,,5fd2416e5061f30735e202e9,60685fd2ed5255dfaa9f6a9c,2021-04-03_14h30.31.483,Colour_Similarity_Experiment,2020.2.10,Win32,60,60674ec340277cd6a308bc9f,13.51288026,13.46198675,13.33349146,13.33191924,13.33196762,13.33349146,,,,,,,,,,,,,,,,,,,,PF,weak,4,,,,,,,,5,1.15972,,,,,,,,,,,,,,,,,,,,,,,,,,,,9,weak,94,-51,1,0,0,response3disk,3,169,12,10,1,0,0,rectangle,12,10,1,0,0,0,5,0.00042,12,10,1,0,0,0,6,6,119,1,0,,,,,,,,,,,,,,,,,,,,,
,,,,,,,,,,,,,,,,,,,,,,,,,,,,,,,,,,,,,,,,,,5fd2416e5061f30735e202e9,60685fd2ed5255dfaa9f6a9c,2021-04-03_14h30.31.483,Colour_Similarity_Experiment,2020.2.10,Win32,60,60674ec340277cd6a308bc9f,13.51288026,13.46198675,13.33349146,13.33191924,13.33196762,13.33349146,,,,,,,,,,,,,,,,,,,,PF,weak,4,,,,,,,,2,1.186835,,,,,,,,,,,,,,,,,,,,,,,,,,,,6,weak,-100,-38,1,0,0,response5disk,8,170,3,18,1,0,0,rectangle,3,18,1,0,0,0,3,0.00106,3,18,1,0,0,0,7,7,64,1,0,,,,,,,,,,,,,,,,,,,,,
,,,,,,,,,,,,,,,,,,,,,,,,,,,,,,,,,,,,,,,,,,5fd2416e5061f30735e202e9,60685fd2ed5255dfaa9f6a9c,2021-04-03_14h30.31.483,Colour_Similarity_Experiment,2020.2.10,Win32,60,60674ec340277cd6a308bc9f,13.51288026,13.46198675,13.33349146,13.33191924,13.33196762,13.33349146,,,,,,,,,,,,,,,,,,,,PF,strong,4,,,,,,,,4,1.599905,,,,,,,,,,,,,,,,,,,,,,,,,,,,3,strong,41,-82,1,0,0,response3disk,6,171,10,15,1,0,0,rectangle,10,15,1,0,0,0,0,0.000455,10,15,1,0,0,0,8,8,95,1,0,,,,,,,,,,,,,,,,,,,,,
,,,,,,,,,,,,,,,,,,,,,,,,,,,,,,,,,,,,,,,,,,5fd2416e5061f30735e202e9,60685fd2ed5255dfaa9f6a9c,2021-04-03_14h30.31.483,Colour_Similarity_Experiment,2020.2.10,Win32,60,60674ec340277cd6a308bc9f,13.51288026,13.46198675,13.33349146,13.33191924,13.33196762,13.33349146,,,,,,,,,,,,,,,,,,,,PF,strong,4,,,,,,,,3,1.666435,,,,,,,,,,,,,,,,,,,,,,,,,,,,5,strong,-54,-87,1,0,0,response5disk,8,172,4,-4,1,0,0,rectangle,4,-4,1,0,0,0,5,0.000495,4,-4,1,0,0,0,9,9,16,1,0,,,,,,,,,,,,,,,,,,,,,
,,,,,,,,,,,,,,,,,,,,,,,,,,,,,,,,,,,,,,,,,,5fd2416e5061f30735e202e9,60685fd2ed5255dfaa9f6a9c,2021-04-03_14h30.31.483,Colour_Similarity_Experiment,2020.2.10,Win32,60,60674ec340277cd6a308bc9f,13.51288026,13.46198675,13.33349146,13.33191924,13.33196762,13.33349146,,,,,,,,,,,,,,,,,,,,PF,weak,4,,,,,,,,4,0.920125,,,,,,,,,,,,,,,,,,,,,,,,,,,,7,weak,35,-97,1,0,0,response3disk,4,173,33,-7,1,0,0,rectangle,33,-7,1,0,0,0,6,0.00047,33,-7,1,0,0,0,10,10,43,1,0,,,,,,,,,,,,,,,,,,,,,
,,,,,,,,,,,,,,,,,,,,,,,,,,,,,,,,,,,,,,,,,,5fd2416e5061f30735e202e9,60685fd2ed5255dfaa9f6a9c,2021-04-03_14h30.31.483,Colour_Similarity_Experiment,2020.2.10,Win32,60,60674ec340277cd6a308bc9f,13.51288026,13.46198675,13.33349146,13.33191924,13.33196762,13.33349146,,,,,,,,,,,,,,,,,,,,PF,strong,4,,,,,,,,3,1.772935,,,,,,,,,,,,,,,,,,,,,,,,,,,,6,strong,-39,-86,1,0,0,response5disk,9,174,17,-1,1,0,0,rectangle,63,-129,1,0,0,4,4,1.37279,14,2,1,0,0,0,11,11,160,1,1,response3disk_3,rectangle,,,,,,,,,,,,,,,,,,,
,,,,,,,,,,,,,,,,,,,,,,,,,,,,,,,,,,,,,,,,,,5fd2416e5061f30735e202e9,60685fd2ed5255dfaa9f6a9c,2021-04-03_14h30.31.483,Colour_Similarity_Experiment,2020.2.10,Win32,60,60674ec340277cd6a308bc9f,13.51288026,13.46198675,13.33349146,13.33191924,13.33196762,13.33349146,,,,,,,,,,,,,,,,,,,,PF,weak,4,,,,,,,,4,0.87995,,,,,,,,,,,,,,,,,,,,,,,,,,,,5,weak,44,-90,1,0,0,response3disk,6,175,8,2,1,0,0,rectangle,8,2,1,0,0,4,6,0.000555,8,2,1,0,0,0,12,12,103,1,0,,,,,,,,,,,,,,,,,,,,,
,,,,,,,,,,,,,,,,,,,,,,,,,,,,,,,,,,,,,,,,,,5fd2416e5061f30735e202e9,60685fd2ed5255dfaa9f6a9c,2021-04-03_14h30.31.483,Colour_Similarity_Experiment,2020.2.10,Win32,60,60674ec340277cd6a308bc9f,13.51288026,13.46198675,13.33349146,13.33191924,13.33196762,13.33349146,,,,,,,,,,,,,,,,,,,,PF,strong,4,,,,,,,,3,1.79987,,,,,,,,,,,,,,,,,,,,,,,,,,,,4,strong,-38,-85,1,0,0,response5disk,2,176,10,2,1,0,0,rectangle,10,2,1,0,0,4,6,7E-05,10,2,1,0,0,0,13,13,13,1,0,,,,,,,,,,,,,,,,,,,,,
,,,,,,,,,,,,,,,,,,,,,,,,,,,,,,,,,,,,,,,,,,5fd2416e5061f30735e202e9,60685fd2ed5255dfaa9f6a9c,2021-04-03_14h30.31.483,Colour_Similarity_Experiment,2020.2.10,Win32,60,60674ec340277cd6a308bc9f,13.51288026,13.46198675,13.33349146,13.33191924,13.33196762,13.33349146,,,,,,,,,,,,,,,,,,,,PF,weak,4,,,,,,,,1,1.09326,,,,,,,,,,,,,,,,,,,,,,,,,,,,7,weak,-103,45,1,0,0,response7disk,6,177,-18,-8,1,0,0,rectangle,-18,-8,1,0,0,4,0,0.000595,-18,-8,1,0,0,0,14,14,29,1,0,,,,,,,,,,,,,,,,,,,,,
,,,,,,,,,,,,,,,,,,,,,,,,,,,,,,,,,,,,,,,,,,5fd2416e5061f30735e202e9,60685fd2ed5255dfaa9f6a9c,2021-04-03_14h30.31.483,Colour_Similarity_Experiment,2020.2.10,Win32,60,60674ec340277cd6a308bc9f,13.51288026,13.46198675,13.33349146,13.33191924,13.33196762,13.33349146,,,,,,,,,,,,,,,,,,,,PF,weak,4,,,,,,,,2,0.89326,,,,,,,,,,,,,,,,,,,,,,,,,,,,7,weak,-88,-67,1,0,0,response5disk,8,178,24,-3,1,0,0,rectangle,24,-3,1,0,0,4,4,0.000455,24,-3,1,0,0,0,15,15,140,1,0,,,,,,,,,,,,,,,,,,,,,
,,,,,,,,,,,,,,,,,,,,,,,,,,,,,,,,,,,,,,,,,,5fd2416e5061f30735e202e9,60685fd2ed5255dfaa9f6a9c,2021-04-03_14h30.31.483,Colour_Similarity_Experiment,2020.2.10,Win32,60,60674ec340277cd6a308bc9f,13.51288026,13.46198675,13.33349146,13.33191924,13.33196762,13.33349146,,,,,,,,,,,,,,,,,,,,PF,strong,4,,,,,,,,3,0.773415,,,,,,,,,,,,,,,,,,,,,,,,,,,,2,strong,-76,-97,1,0,0,response5disk,2,179,-5,-2,1,0,0,rectangle,-5,-2,1,0,0,4,1,0.000435,-5,-2,1,0,0,0,16,16,142,1,0,,,,,,,,,,,,,,,,,,,,,
,,,,,,,,,,,,,,,,,,,,,,,,,,,,,,,,,,,,,,,,,,5fd2416e5061f30735e202e9,60685fd2ed5255dfaa9f6a9c,2021-04-03_14h30.31.483,Colour_Similarity_Experiment,2020.2.10,Win32,60,60674ec340277cd6a308bc9f,13.51288026,13.46198675,13.33349146,13.33191924,13.33196762,13.33349146,,,,,,,,,,,,,,,,,,,,PF,weak,4,,,,,,,,4,0.75993,,,,,,,,,,,,,,,,,,,,,,,,,,,,6,weak,52,-121,1,0,0,response3disk,9,180,11,-6,1,0,0,rectangle,11,-6,1,0,0,4,5,0.000465,11,-6,1,0,0,0,17,17,45,1,0,,,,,,,,,,,,,,,,,,,,,
,,,,,,,,,,,,,,,,,,,,,,,,,,,,,,,,,,,,,,,,,,5fd2416e5061f30735e202e9,60685fd2ed5255dfaa9f6a9c,2021-04-03_14h30.31.483,Colour_Similarity_Experiment,2020.2.10,Win32,60,60674ec340277cd6a308bc9f,13.51288026,13.46198675,13.33349146,13.33191924,13.33196762,13.33349146,,,,,,,,,,,,,,,,,,,,PF,strong,4,,,,,,,,3,0.907585,,,,,,,,,,,,,,,,,,,,,,,,,,,,9,strong,-36,-90,1,0,0,response5disk,6,181,16,-5,1,0,0,rectangle,16,-5,1,0,0,4,3,0.000515,16,-5,1,0,0,0,18,18,117,1,0,,,,,,,,,,,,,,,,,,,,,
,,,,,,,,,,,,,,,,,,,,,,,,,,,,,,,,,,,,,,,,,,5fd2416e5061f30735e202e9,60685fd2ed5255dfaa9f6a9c,2021-04-03_14h30.31.483,Colour_Similarity_Experiment,2020.2.10,Win32,60,60674ec340277cd6a308bc9f,13.51288026,13.46198675,13.33349146,13.33191924,13.33196762,13.33349146,,,,,,,,,,,,,,,,,,,,PF,strong,4,,,,,,,,5,1.413205,,,,,,,,,,,,,,,,,,,,,,,,,,,,3,strong,121,-55,1,0,0,response3disk,7,182,1,9,1,0,0,rectangle,1,9,1,0,0,4,5,0.000445,1,9,1,0,0,0,19,19,118,1,0,,,,,,,,,,,,,,,,,,,,,
,,,,,,,,,,,,,,,,,,,,,,,,,,,,,,,,,,,,,,,,,,5fd2416e5061f30735e202e9,60685fd2ed5255dfaa9f6a9c,2021-04-03_14h30.31.483,Colour_Similarity_Experiment,2020.2.10,Win32,60,60674ec340277cd6a308bc9f,13.51288026,13.46198675,13.33349146,13.33191924,13.33196762,13.33349146,,,,,,,,,,,,,,,,,,,,PF,weak,4,,,,,,,,1,1.039485,,,,,,,,,,,,,,,,,,,,,,,,,,,,4,weak,-115,46,1,0,0,response7disk,5,183,0,-5,1,0,0,rectangle,0,-5,1,0,0,4,1,0.0006,0,-5,1,0,0,0,20,20,49,1,0,,,,,,,,,,,,,,,,,,,,,
,,,,,,,,,,,,,,,,,,,,,,,,,,,,,,,,,,,,,,,,,,5fd2416e5061f30735e202e9,60685fd2ed5255dfaa9f6a9c,2021-04-03_14h30.31.483,Colour_Similarity_Experiment,2020.2.10,Win32,60,60674ec340277cd6a308bc9f,13.51288026,13.46198675,13.33349146,13.33191924,13.33196762,13.33349146,,,,,,,,,,,,,,,,,,,,PF,strong,4,,,,,,,,4,0.773155,,,,,,,,,,,,,,,,,,,,,,,,,,,,9,strong,55,-109,1,0,0,response3disk,7,184,14,13,1,0,0,rectangle,14,13,1,0,0,4,5,0.00063,14,13,1,0,0,0,21,21,100,1,0,,,,,,,,,,,,,,,,,,,,,
,,,,,,,,,,,,,,,,,,,,,,,,,,,,,,,,,,,,,,,,,,5fd2416e5061f30735e202e9,60685fd2ed5255dfaa9f6a9c,2021-04-03_14h30.31.483,Colour_Similarity_Experiment,2020.2.10,Win32,60,60674ec340277cd6a308bc9f,13.51288026,13.46198675,13.33349146,13.33191924,13.33196762,13.33349146,,,,,,,,,,,,,,,,,,,,PF,weak,4,,,,,,,,0,0.91992,,,,,,,,,,,,,,,,,,,,,,,,,,,,7,weak,-56,112,1,0,0,response7disk,7,185,-17,7,1,0,0,rectangle,-17,7,1,0,0,4,6,0.000435,-17,7,1,0,0,0,22,22,51,1,0,,,,,,,,,,,,,,,,,,,,,
,,,,,,,,,,,,,,,,,,,,,,,,,,,,,,,,,,,,,,,,,,5fd2416e5061f30735e202e9,60685fd2ed5255dfaa9f6a9c,2021-04-03_14h30.31.483,Colour_Similarity_Experiment,2020.2.10,Win32,60,60674ec340277cd6a308bc9f,13.51288026,13.46198675,13.33349146,13.33191924,13.33196762,13.33349146,,,,,,,,,,,,,,,,,,,,PF,strong,4,,,,,,,,3,1.1332,,,,,,,,,,,,,,,,,,,,,,,,,,,,5,strong,-47,-80,1,0,0,response5disk,6,186,-4,19,1,0,0,rectangle,-4,19,1,0,0,4,0,0.00048,-4,19,1,0,0,0,23,23,12,1,0,,,,,,,,,,,,,,,,,,,,,
,,,,,,,,,,,,,,,,,,,,,,,,,,,,,,,,,,,,,,,,,,5fd2416e5061f30735e202e9,60685fd2ed5255dfaa9f6a9c,2021-04-03_14h30.31.483,Colour_Similarity_Experiment,2020.2.10,Win32,60,60674ec340277cd6a308bc9f,13.51288026,13.46198675,13.33349146,13.33191924,13.33196762,13.33349146,,,,,,,,,,,,,,,,,,,,PF,weak,4,,,,,,,,5,0.853325,,,,,,,,,,,,,,,,,,,,,,,,,,,,5,weak,133,-62,1,0,0,response3disk,8,187,-19,7,1,0,0,rectangle,-19,7,1,0,0,4,5,0.000425,-19,7,1,0,0,0,24,24,149,1,0,,,,,,,,,,,,,,,,,,,,,
,,,,,,,,,,,,,,,,,,,,,,,,,,,,,,,,,,,,,,,,,,5fd2416e5061f30735e202e9,60685fd2ed5255dfaa9f6a9c,2021-04-03_14h30.31.483,Colour_Similarity_Experiment,2020.2.10,Win32,60,60674ec340277cd6a308bc9f,13.51288026,13.46198675,13.33349146,13.33191924,13.33196762,13.33349146,,,,,,,,,,,,,,,,,,,,PF,weak,4,,,,,,,,6,1.039775,,,,,,,,,,,,,,,,,,,,,,,,,,,,2,weak,116,45,1,0,0,response1disk,7,188,4,5,1,0,0,rectangle,4,5,1,0,0,4,2,0.0005,4,5,1,0,0,0,25,25,107,1,0,,,,,,,,,,,,,,,,,,,,,
,,,,,,,,,,,,,,,,,,,,,,,,,,,,,,,,,,,,,,,,,,5fd2416e5061f30735e202e9,60685fd2ed5255dfaa9f6a9c,2021-04-03_14h30.31.483,Colour_Similarity_Experiment,2020.2.10,Win32,60,60674ec340277cd6a308bc9f,13.51288026,13.46198675,13.33349146,13.33191924,13.33196762,13.33349146,,,,,,,,,,,,,,,,,,,,PF,strong,4,,,,,,,,5,1.37307,,,,,,,,,,,,,,,,,,,,,,,,,,,,1,strong,109,-52,1,0,0,response3disk,1,189,11,4,1,0,0,rectangle,11,4,1,0,0,4,4,0.00047,11,4,1,0,0,0,26,26,151,1,0,,,,,,,,,,,,,,,,,,,,,
,,,,,,,,,,,,,,,,,,,,,,,,,,,,,,,,,,,,,,,,,,5fd2416e5061f30735e202e9,60685fd2ed5255dfaa9f6a9c,2021-04-03_14h30.31.483,Colour_Similarity_Experiment,2020.2.10,Win32,60,60674ec340277cd6a308bc9f,13.51288026,13.46198675,13.33349146,13.33191924,13.33196762,13.33349146,,,,,,,,,,,,,,,,,,,,PF,weak,4,,,,,,,,6,1.039865,,,,,,,,,,,,,,,,,,,,,,,,,,,,8,weak,121,62,1,0,0,response1disk,4,190,-10,16,1,0,0,rectangle,-10,16,1,0,0,4,1,0.0006,-10,16,1,0,0,0,27,27,78,1,0,,,,,,,,,,,,,,,,,,,,,
,,,,,,,,,,,,,,,,,,,,,,,,,,,,,,,,,,,,,,,,,,5fd2416e5061f30735e202e9,60685fd2ed5255dfaa9f6a9c,2021-04-03_14h30.31.483,Colour_Similarity_Experiment,2020.2.10,Win32,60,60674ec340277cd6a308bc9f,13.51288026,13.46198675,13.33349146,13.33191924,13.33196762,13.33349146,,,,,,,,,,,,,,,,,,,,PF,strong,4,,,,,,,,0,1.159745,,,,,,,,,,,,,,,,,,,,,,,,,,,,6,strong,-52,98,1,0,0,response7disk,4,191,-6,1,1,0,0,rectangle,-6,1,1,0,0,4,5,0.000475,-6,1,1,0,0,0,28,28,56,1,0,,,,,,,,,,,,,,,,,,,,,
,,,,,,,,,,,,,,,,,,,,,,,,,,,,,,,,,,,,,,,,,,5fd2416e5061f30735e202e9,60685fd2ed5255dfaa9f6a9c,2021-04-03_14h30.31.483,Colour_Similarity_Experiment,2020.2.10,Win32,60,60674ec340277cd6a308bc9f,13.51288026,13.46198675,13.33349146,13.33191924,13.33196762,13.33349146,,,,,,,,,,,,,,,,,,,,PF,weak,4,,,,,,,,3,1.466515,,,,,,,,,,,,,,,,,,,,,,,,,,,,6,weak,-72,-106,1,0,0,response5disk,3,192,4,19,1,0,0,rectangle,4,19,1,0,0,4,0,0.00048,4,19,1,0,0,0,29,29,26,1,0,,,,,,,,,,,,,,,,,,,,,
,,,,,,,,,,,,,,,,,,,,,,,,,,,,,,,,,,,,,,,,,,5fd2416e5061f30735e202e9,60685fd2ed5255dfaa9f6a9c,2021-04-03_14h30.31.483,Colour_Similarity_Experiment,2020.2.10,Win32,60,60674ec340277cd6a308bc9f,13.51288026,13.46198675,13.33349146,13.33191924,13.33196762,13.33349146,,,,,,,,,,,,,,,,,,,,PF,weak,4,,,,,,,,5,0.99997,,,,,,,,,,,,,,,,,,,,,,,,,,,,4,weak,140,-40,1,0,0,response3disk,8,193,-5,12,1,0,0,rectangle,-5,12,1,0,0,4,6,0.00074,-5,12,1,0,0,0,30,30,124,1,0,,,,,,,,,,,,,,,,,,,,,
,,,,,,,,,,,,,,,,,,,,,,,,,,,,,,,,,,,,,,,,,,5fd2416e5061f30735e202e9,60685fd2ed5255dfaa9f6a9c,2021-04-03_14h30.31.483,Colour_Similarity_Experiment,2020.2.10,Win32,60,60674ec340277cd6a308bc9f,13.51288026,13.46198675,13.33349146,13.33191924,13.33196762,13.33349146,,,,,,,,,,,,,,,,,,,,PF,strong,4,,,,,,,,2,1.19991,,,,,,,,,,,,,,,,,,,,,,,,,,,,7,strong,-112,-35,1,0,0,response5disk,6,194,15,11,1,0,0,rectangle,15,11,1,0,0,4,4,0.00049,15,11,1,0,0,0,31,31,31,1,0,,,,,,,,,,,,,,,,,,,,,
