key_resp.keys,key_resp.rt,key_resp_16.keys,key_resp_16.rt,key_resp_2.keys,key_resp_2.rt,X Scale,ratio_pxpermm,screen_size_x,screen_size_y,testsize,key_resp_3.keys,key_resp_4.keys,key_resp_4.rt,line_size,key_resp_5.keys,key_resp_5.rt,key_resp_6.keys,key_resp_6.rt,key_resp_8.keys,key_resp_8.rt,key_resp_7.keys,key_resp_7.rt,key_resp_12.keys,key_resp_12.rt,key_resp_11.keys,key_resp_11.rt,key_resp_18.keys,key_resp_18.rt,key_resp_21.keys,key_resp_21.rt,key_resp_13.keys,key_resp_13.rt,key_resp_19.keys,key_resp_19.rt,ballposx,viewer_distance,trials.thisRepN,trials.thisTrialN,trials.thisN,trials.thisIndex,trials.ran,participant,session,date,expName,psychopyVersion,OS,frameRate,study_id,realFrameRate1,realFrameRate2,realFrameRate3,realFrameRate4,realFrameRate5,realFrameRate,viewerdistancecm,DVA_to_distance,radius_F,radius_P,r_F,R_P,key_resp_20.keys,key_resp_20.rt,key_resp_14.keys,key_resp_14.rt,key_resp_15.keys,key_resp_15.rt,key_resp_17.keys,key_resp_17.rt,key_resp_9.keys,key_resp_9.rt,key_resp_10.keys,key_resp_10.rt,Colour_1,Ecc,maskCon,mask_frames,mouse_5.x,mouse_5.y,mouse_5.leftButton,mouse_5.midButton,mouse_5.rightButton,mouse_5.clicked_name,Colour_2,similarity,response_time,mouse_10.x,mouse_10.y,mouse_10.leftButton,mouse_10.midButton,mouse_10.rightButton,mouse_10.clicked_name,mouse_7.x,mouse_7.y,mouse_7.leftButton,mouse_7.midButton,mouse_7.rightButton,catchnumberprac,mouse_6.x,mouse_6.y,mouse_6.leftButton,mouse_6.midButton,mouse_6.rightButton,duringprac.thisRepN,duringprac.thisTrialN,duringprac.thisN,duringprac.thisIndex,duringprac.ran,mouse_7.clicked_name,catchprac,mouse_6.clicked_name,key_resp_22.keys,key_resp_22.rt,Colour1,maskCon1,mouse.x,mouse.y,mouse.leftButton,mouse.midButton,mouse.rightButton,mouse.clicked_name,Colour2,trialnumber,mouse_2.x,mouse_2.y,mouse_2.leftButton,mouse_2.midButton,mouse_2.rightButton,mouse_2.clicked_name,mouse_3.x,mouse_3.y,mouse_3.leftButton,mouse_3.midButton,mouse_3.rightButton,catchresponse,catchnumber,response_time_catch,mouse_11.x,mouse_11.y,mouse_11.leftButton,mouse_11.midButton,mouse_11.rightButton,trials_2.thisRepN,trials_2.thisTrialN,trials_2.thisN,trials_2.thisIndex,trials_2.ran,Catch,mouse_3.clicked_name,mouse_11.clicked_name,trials_3.thisRepN,trials_3.thisTrialN,trials_3.thisN,trials_3.thisIndex,trials_3.ran,answer1,rt1,answer2,rt2,answer3,rt3,answer4,rt4,answer5,rt5,answer6,rt6,answer7,rt7
space,4.98196,space,13.65231,space,5.929775,44.3,4.43,308.3521445,173.3634312,1366,,space,11.21769,88.6,space,16.330315,space,2.246395,space,1.861185,space,5.65899,space,6.15141,space,9.01357,space,9.01002,space,9.44953,space,6.027325,return,9.94953,-713.052,1184.197985,0,0,0,0,1,5fd77bb5246a37086f19c67c,6068421109aae45bf0593e17,2021-04-03_11h23.46.340,Colour_Similarity_Experiment,2020.2.10,Win32,60,60674ec340277cd6a308bc9f,17.92773537,17.02624069,16.94512766,17.12365559,16.92034562,17.02624069,,,,,,,,,,,,,,,,,,,,,,,,,,,,,,,,,,,,,,,,,,,,,,,,,,,,,,,,,,,,,,,,,,,,,,,,,,,,,,,,,,,,,,,,,,,,,,,,,,,,,,,,,,,,,,,,,,
,,,,,,,,,,,,,,,,,,,,,,,,,,,,,,,,,return,9.88179,-684.366,1157.226013,1,0,1,0,1,5fd77bb5246a37086f19c67c,6068421109aae45bf0593e17,2021-04-03_11h23.46.340,Colour_Similarity_Experiment,2020.2.10,Win32,60,60674ec340277cd6a308bc9f,17.92773537,17.02624069,16.94512766,17.12365559,16.92034562,17.02624069,,,,,,,,,,,,,,,,,,,,,,,,,,,,,,,,,,,,,,,,,,,,,,,,,,,,,,,,,,,,,,,,,,,,,,,,,,,,,,,,,,,,,,,,,,,,,,,,,,,,,,,,,,,,,,,,,,
,,,,,,,,,,,,,,,,,,,,,,,,,,,,,,,,,return,5.24953,-129.087,635.1257088,2,0,2,0,1,5fd77bb5246a37086f19c67c,6068421109aae45bf0593e17,2021-04-03_11h23.46.340,Colour_Similarity_Experiment,2020.2.10,Win32,60,60674ec340277cd6a308bc9f,17.92773537,17.02624069,16.94512766,17.12365559,16.92034562,17.02624069,,,,,,,,,,,,,,,,,,,,,,,,,,,,,,,,,,,,,,,,,,,,,,,,,,,,,,,,,,,,,,,,,,,,,,,,,,,,,,,,,,,,,,,,,,,,,,,,,,,,,,,,,,,,,,,,,,
,,,,,,,,,,,,,,,,,,,,,,,,,,,,,,,,,return,4.970705,-96.303,604.3005986,3,0,3,0,1,5fd77bb5246a37086f19c67c,6068421109aae45bf0593e17,2021-04-03_11h23.46.340,Colour_Similarity_Experiment,2020.2.10,Win32,60,60674ec340277cd6a308bc9f,17.92773537,17.02624069,16.94512766,17.12365559,16.92034562,17.02624069,,,,,,,,,,,,,,,,,,,,,,,,,,,,,,,,,,,,,,,,,,,,,,,,,,,,,,,,,,,,,,,,,,,,,,,,,,,,,,,,,,,,,,,,,,,,,,,,,,,,,,,,,,,,,,,,,,
,,,,,,,,,,,,,,,,,,,,,,,,,,,,,,,,,return,4.785305,-73.764,583.1083353,4,0,4,0,1,5fd77bb5246a37086f19c67c,6068421109aae45bf0593e17,2021-04-03_11h23.46.340,Colour_Similarity_Experiment,2020.2.10,Win32,60,60674ec340277cd6a308bc9f,17.92773537,17.02624069,16.94512766,17.12365559,16.92034562,17.02624069,,,,,,,,,,,,,,,,,,,,,,,,,,,,,,,,,,,,,,,,,,,,,,,,,,,,,,,,,,,,,,,,,,,,,,,,,,,,,,,,,,,,,,,,,,,,,,,,,,,,,,,,,,,,,,,,,,
,,,,,,,,,,,,,,,,,,,,,,,,,,,,,,,,,,,,,,,,,,5fd77bb5246a37086f19c67c,6068421109aae45bf0593e17,2021-04-03_11h23.46.340,Colour_Similarity_Experiment,2020.2.10,Win32,60,60674ec340277cd6a308bc9f,17.92773537,17.02624069,16.94512766,17.12365559,16.92034562,17.02624069,58,10.12393404,67.27354168,448.4902779,44.84902779,201.820625,space,10.39064,space,10.07368,space,24.46617,space,4.157945,space,2.76664,space,3.38792,1,PF,weak,3,83,-35,1,0,0,response3disk_5,8,5,3.69025,0,1,1,0,0,rectangle_8,0,1,1,0,0,5,0,1,1,0,0,0,0,0,4,1,,,,,,,,,,,,,,,,,,,,,,,,,,,,,,,,,,,,,,,,,,,,,,,,,,,,,,,,,,,,,
,,,,,,,,,,,,,,,,,,,,,,,,,,,,,,,,,,,,,,,,,,5fd77bb5246a37086f19c67c,6068421109aae45bf0593e17,2021-04-03_11h23.46.340,Colour_Similarity_Experiment,2020.2.10,Win32,60,60674ec340277cd6a308bc9f,17.92773537,17.02624069,16.94512766,17.12365559,16.92034562,17.02624069,,,,,,,,,,,,,,,,,,,7,PF,weak,3,-92,32,1,0,0,response7disk_5,1,1,3.23549,2,5,1,0,0,rectangle_8,49,-32,1,0,0,5,-13,-2,1,0,0,0,1,1,6,1,response3disk_7,5,rectangle_4,,,,,,,,,,,,,,,,,,,,,,,,,,,,,,,,,,,,,,,,,,,,,,,,,,,,,,,,,,
,,,,,,,,,,,,,,,,,,,,,,,,,,,,,,,,,,,,,,,,,,5fd77bb5246a37086f19c67c,6068421109aae45bf0593e17,2021-04-03_11h23.46.340,Colour_Similarity_Experiment,2020.2.10,Win32,60,60674ec340277cd6a308bc9f,17.92773537,17.02624069,16.94512766,17.12365559,16.92034562,17.02624069,,,,,,,,,,,,,,,,,,,3,PF,weak,3,-50,91,1,0,0,response7disk_5,3,0,2.04858,7,-6,1,0,0,rectangle_8,7,-6,1,0,0,5,7,-6,1,0,0,0,2,2,1,1,,,,,,,,,,,,,,,,,,,,,,,,,,,,,,,,,,,,,,,,,,,,,,,,,,,,,,,,,,,,,
,,,,,,,,,,,,,,,,,,,,,,,,,,,,,,,,,,,,,,,,,,5fd77bb5246a37086f19c67c,6068421109aae45bf0593e17,2021-04-03_11h23.46.340,Colour_Similarity_Experiment,2020.2.10,Win32,60,60674ec340277cd6a308bc9f,17.92773537,17.02624069,16.94512766,17.12365559,16.92034562,17.02624069,,,,,,,,,,,,,,,,,,,6,PF,weak,3,81,25,1,0,0,response1disk_5,2,6,3.952015,-1,8,1,0,0,rectangle_8,87,-51,1,0,0,5,3,0,1,0,0,0,3,3,5,1,response3disk_7,5,rectangle_4,,,,,,,,,,,,,,,,,,,,,,,,,,,,,,,,,,,,,,,,,,,,,,,,,,,,,,,,,,
,,,,,,,,,,,,,,,,,,,,,,,,,,,,,,,,,,,,,,,,,,5fd77bb5246a37086f19c67c,6068421109aae45bf0593e17,2021-04-03_11h23.46.340,Colour_Similarity_Experiment,2020.2.10,Win32,60,60674ec340277cd6a308bc9f,17.92773537,17.02624069,16.94512766,17.12365559,16.92034562,17.02624069,,,,,,,,,,,,,,,,,,,6,PF,strong,3,-89,-33,1,0,0,response5disk_5,7,2,2.58867,-2,0,1,0,0,rectangle_8,-2,0,1,0,0,5,-2,0,1,0,0,0,4,4,2,1,,,,,,,,,,,,,,,,,,,,,,,,,,,,,,,,,,,,,,,,,,,,,,,,,,,,,,,,,,,,,
,,,,,,,,,,,,,,,,,,,,,,,,,,,,,,,,,,,,,,,,,,5fd77bb5246a37086f19c67c,6068421109aae45bf0593e17,2021-04-03_11h23.46.340,Colour_Similarity_Experiment,2020.2.10,Win32,60,60674ec340277cd6a308bc9f,17.92773537,17.02624069,16.94512766,17.12365559,16.92034562,17.02624069,,,,,,,,,,,,,,,,,,,7,PF,strong,3,78,58,1,0,0,response1disk_5,3,6,5.920905,-2,-3,1,0,0,rectangle_8,-2,-3,1,0,0,5,-2,-3,1,0,0,0,5,5,0,1,,,,,,,,,,,,,,,,,,,,,,,,,,,,,,,,,,,,,,,,,,,,,,,,,,,,,,,,,,,,,
,,,,,,,,,,,,,,,,,,,,,,,,,,,,,,,,,,,,,,,,,,5fd77bb5246a37086f19c67c,6068421109aae45bf0593e17,2021-04-03_11h23.46.340,Colour_Similarity_Experiment,2020.2.10,Win32,60,60674ec340277cd6a308bc9f,17.92773537,17.02624069,16.94512766,17.12365559,16.92034562,17.02624069,,,,,,,,,,,,,,,,,,,5,PF,strong,3,48,78,1,0,0,response1disk_5,1,7,1.992525,5,4,1,0,0,rectangle_8,5,4,1,0,0,5,5,4,1,0,0,0,6,6,3,1,,,,,,,,,,,,,,,,,,,,,,,,,,,,,,,,,,,,,,,,,,,,,,,,,,,,,,,,,,,,,
,,,,,,,,,,,,,,,,,,,,,,,,,,,,,,,,,,,,,,,,,,5fd77bb5246a37086f19c67c,6068421109aae45bf0593e17,2021-04-03_11h23.46.340,Colour_Similarity_Experiment,2020.2.10,Win32,60,60674ec340277cd6a308bc9f,17.92773537,17.02624069,16.94512766,17.12365559,16.92034562,17.02624069,,,,,,,,,,,,,,,,,,,,PF,weak,3,,,,,,,,4,2.67898,,,,,,,,,,,,,,,,,,,,,,,,,,space,4.370925,2,weak,36,-79,1,0,0,response3disk,3,1,-12,1,1,0,0,rectangle,-12,1,1,0,0,,5,0.0107,-12,1,1,0,0,0,0,0,69,1,0,,,,,,,,,,,,,,,,,,,,,
,,,,,,,,,,,,,,,,,,,,,,,,,,,,,,,,,,,,,,,,,,5fd77bb5246a37086f19c67c,6068421109aae45bf0593e17,2021-04-03_11h23.46.340,Colour_Similarity_Experiment,2020.2.10,Win32,60,60674ec340277cd6a308bc9f,17.92773537,17.02624069,16.94512766,17.12365559,16.92034562,17.02624069,,,,,,,,,,,,,,,,,,,,PF,strong,3,,,,,,,,2,2.842675,,,,,,,,,,,,,,,,,,,,,,,,,,,,3,strong,-92,-32,1,0,0,response5disk,4,2,26,5,1,0,0,rectangle,26,5,1,0,0,,2,0.004395,26,5,1,0,0,0,1,1,110,1,0,,,,,,,,,,,,,,,,,,,,,
,,,,,,,,,,,,,,,,,,,,,,,,,,,,,,,,,,,,,,,,,,5fd77bb5246a37086f19c67c,6068421109aae45bf0593e17,2021-04-03_11h23.46.340,Colour_Similarity_Experiment,2020.2.10,Win32,60,60674ec340277cd6a308bc9f,17.92773537,17.02624069,16.94512766,17.12365559,16.92034562,17.02624069,,,,,,,,,,,,,,,,,,,,PF,weak,3,,,,,,,,7,2.006335,,,,,,,,,,,,,,,,,,,,,,,,,,,,2,weak,24,82,1,0,0,response1disk,6,3,7,0,1,0,0,rectangle,7,0,1,0,0,,6,0.002625,7,0,1,0,0,0,2,2,113,1,0,,,,,,,,,,,,,,,,,,,,,
,,,,,,,,,,,,,,,,,,,,,,,,,,,,,,,,,,,,,,,,,,5fd77bb5246a37086f19c67c,6068421109aae45bf0593e17,2021-04-03_11h23.46.340,Colour_Similarity_Experiment,2020.2.10,Win32,60,60674ec340277cd6a308bc9f,17.92773537,17.02624069,16.94512766,17.12365559,16.92034562,17.02624069,,,,,,,,,,,,,,,,,,,,PF,strong,3,,,,,,,,6,1.420055,,,,,,,,,,,,,,,,,,,,,,,,,,,,3,strong,86,51,1,0,0,response1disk,9,4,19,5,1,0,0,rectangle,19,5,1,0,0,,4,0.002115,19,5,1,0,0,0,3,3,143,1,0,,,,,,,,,,,,,,,,,,,,,
,,,,,,,,,,,,,,,,,,,,,,,,,,,,,,,,,,,,,,,,,,5fd77bb5246a37086f19c67c,6068421109aae45bf0593e17,2021-04-03_11h23.46.340,Colour_Similarity_Experiment,2020.2.10,Win32,60,60674ec340277cd6a308bc9f,17.92773537,17.02624069,16.94512766,17.12365559,16.92034562,17.02624069,,,,,,,,,,,,,,,,,,,,PF,weak,3,,,,,,,,7,1.2696,,,,,,,,,,,,,,,,,,,,,,,,,,,,4,weak,37,81,1,0,0,response1disk,1,5,10,2,1,0,0,rectangle,10,2,1,0,0,,7,0.001595,10,2,1,0,0,0,4,4,115,1,0,,,,,,,,,,,,,,,,,,,,,
,,,,,,,,,,,,,,,,,,,,,,,,,,,,,,,,,,,,,,,,,,5fd77bb5246a37086f19c67c,6068421109aae45bf0593e17,2021-04-03_11h23.46.340,Colour_Similarity_Experiment,2020.2.10,Win32,60,60674ec340277cd6a308bc9f,17.92773537,17.02624069,16.94512766,17.12365559,16.92034562,17.02624069,,,,,,,,,,,,,,,,,,,,PF,weak,3,,,,,,,,6,1.78634,,,,,,,,,,,,,,,,,,,,,,,,,,,,2,weak,81,52,1,0,0,response1disk,4,6,-5,-9,1,0,0,rectangle,-5,-9,1,0,0,,1,0.002015,-5,-9,1,0,0,0,5,5,127,1,0,,,,,,,,,,,,,,,,,,,,,
,,,,,,,,,,,,,,,,,,,,,,,,,,,,,,,,,,,,,,,,,,5fd77bb5246a37086f19c67c,6068421109aae45bf0593e17,2021-04-03_11h23.46.340,Colour_Similarity_Experiment,2020.2.10,Win32,60,60674ec340277cd6a308bc9f,17.92773537,17.02624069,16.94512766,17.12365559,16.92034562,17.02624069,,,,,,,,,,,,,,,,,,,,PF,strong,3,,,,,,,,2,1.53758,,,,,,,,,,,,,,,,,,,,,,,,,,,,9,strong,-71,-26,1,0,0,response5disk,8,7,1,2,1,0,0,rectangle,1,2,1,0,0,,6,0.00168,1,2,1,0,0,0,6,6,6,1,0,,,,,,,,,,,,,,,,,,,,,
,,,,,,,,,,,,,,,,,,,,,,,,,,,,,,,,,,,,,,,,,,5fd77bb5246a37086f19c67c,6068421109aae45bf0593e17,2021-04-03_11h23.46.340,Colour_Similarity_Experiment,2020.2.10,Win32,60,60674ec340277cd6a308bc9f,17.92773537,17.02624069,16.94512766,17.12365559,16.92034562,17.02624069,,,,,,,,,,,,,,,,,,,,PF,strong,3,,,,,,,,3,2.133675,,,,,,,,,,,,,,,,,,,,,,,,,,,,3,strong,-22,-72,1,0,0,response5disk,5,8,15,3,1,0,0,rectangle,15,3,1,0,0,,4,0.00146,15,3,1,0,0,0,7,7,101,1,0,,,,,,,,,,,,,,,,,,,,,
,,,,,,,,,,,,,,,,,,,,,,,,,,,,,,,,,,,,,,,,,,5fd77bb5246a37086f19c67c,6068421109aae45bf0593e17,2021-04-03_11h23.46.340,Colour_Similarity_Experiment,2020.2.10,Win32,60,60674ec340277cd6a308bc9f,17.92773537,17.02624069,16.94512766,17.12365559,16.92034562,17.02624069,,,,,,,,,,,,,,,,,,,,PF,strong,3,,,,,,,,7,1.19516,,,,,,,,,,,,,,,,,,,,,,,,,,,,8,strong,52,76,1,0,0,response1disk,3,9,10,5,1,0,0,rectangle,10,5,1,0,0,,0,0.00289,10,5,1,0,0,0,8,8,154,1,0,,,,,,,,,,,,,,,,,,,,,
,,,,,,,,,,,,,,,,,,,,,,,,,,,,,,,,,,,,,,,,,,5fd77bb5246a37086f19c67c,6068421109aae45bf0593e17,2021-04-03_11h23.46.340,Colour_Similarity_Experiment,2020.2.10,Win32,60,60674ec340277cd6a308bc9f,17.92773537,17.02624069,16.94512766,17.12365559,16.92034562,17.02624069,,,,,,,,,,,,,,,,,,,,PF,strong,3,,,,,,,,7,1.008765,,,,,,,,,,,,,,,,,,,,,,,,,,,,1,strong,28,55,1,0,0,response1disk,4,10,3,-2,1,0,0,rectangle,3,-2,1,0,0,,1,0.00363,3,-2,1,0,0,0,9,9,135,1,0,,,,,,,,,,,,,,,,,,,,,
,,,,,,,,,,,,,,,,,,,,,,,,,,,,,,,,,,,,,,,,,,5fd77bb5246a37086f19c67c,6068421109aae45bf0593e17,2021-04-03_11h23.46.340,Colour_Similarity_Experiment,2020.2.10,Win32,60,60674ec340277cd6a308bc9f,17.92773537,17.02624069,16.94512766,17.12365559,16.92034562,17.02624069,,,,,,,,,,,,,,,,,,,,PF,weak,3,,,,,,,,0,1.13421,,,,,,,,,,,,,,,,,,,,,,,,,,,,4,weak,-46,88,1,0,0,response7disk,4,11,5,-1,1,0,0,rectangle,5,-1,1,0,0,,5,0.010215,5,-1,1,0,0,0,10,10,70,1,0,,,,,,,,,,,,,,,,,,,,,
,,,,,,,,,,,,,,,,,,,,,,,,,,,,,,,,,,,,,,,,,,5fd77bb5246a37086f19c67c,6068421109aae45bf0593e17,2021-04-03_11h23.46.340,Colour_Similarity_Experiment,2020.2.10,Win32,60,60674ec340277cd6a308bc9f,17.92773537,17.02624069,16.94512766,17.12365559,16.92034562,17.02624069,,,,,,,,,,,,,,,,,,,,PF,strong,3,,,,,,,,2,1.77983,,,,,,,,,,,,,,,,,,,,,,,,,,,,4,strong,-61,-28,1,0,0,response5disk,3,12,-18,2,1,0,0,rectangle,-18,2,1,0,0,,1,0.001505,-18,2,1,0,0,0,11,11,77,1,0,,,,,,,,,,,,,,,,,,,,,
,,,,,,,,,,,,,,,,,,,,,,,,,,,,,,,,,,,,,,,,,,5fd77bb5246a37086f19c67c,6068421109aae45bf0593e17,2021-04-03_11h23.46.340,Colour_Similarity_Experiment,2020.2.10,Win32,60,60674ec340277cd6a308bc9f,17.92773537,17.02624069,16.94512766,17.12365559,16.92034562,17.02624069,,,,,,,,,,,,,,,,,,,,PF,weak,3,,,,,,,,2,1.160975,,,,,,,,,,,,,,,,,,,,,,,,,,,,7,weak,-86,-35,1,0,0,response5disk,5,13,-6,-11,1,0,0,rectangle,-6,-11,1,0,0,,2,0.00243,-6,-11,1,0,0,0,12,12,92,1,0,,,,,,,,,,,,,,,,,,,,,
,,,,,,,,,,,,,,,,,,,,,,,,,,,,,,,,,,,,,,,,,,5fd77bb5246a37086f19c67c,6068421109aae45bf0593e17,2021-04-03_11h23.46.340,Colour_Similarity_Experiment,2020.2.10,Win32,60,60674ec340277cd6a308bc9f,17.92773537,17.02624069,16.94512766,17.12365559,16.92034562,17.02624069,,,,,,,,,,,,,,,,,,,,PF,strong,3,,,,,,,,6,1.271135,,,,,,,,,,,,,,,,,,,,,,,,,,,,5,strong,74,34,1,0,0,response1disk,8,14,16,5,1,0,0,rectangle,16,5,1,0,0,,1,0.0014,16,5,1,0,0,0,13,13,16,1,0,,,,,,,,,,,,,,,,,,,,,
,,,,,,,,,,,,,,,,,,,,,,,,,,,,,,,,,,,,,,,,,,5fd77bb5246a37086f19c67c,6068421109aae45bf0593e17,2021-04-03_11h23.46.340,Colour_Similarity_Experiment,2020.2.10,Win32,60,60674ec340277cd6a308bc9f,17.92773537,17.02624069,16.94512766,17.12365559,16.92034562,17.02624069,,,,,,,,,,,,,,,,,,,,PF,strong,3,,,,,,,,3,2.174325,,,,,,,,,,,,,,,,,,,,,,,,,,,,6,strong,-39,-64,1,0,0,response5disk,3,15,4,0,1,0,0,rectangle,4,0,1,0,0,,6,0.00289,4,0,1,0,0,0,14,14,21,1,0,,,,,,,,,,,,,,,,,,,,,
,,,,,,,,,,,,,,,,,,,,,,,,,,,,,,,,,,,,,,,,,,5fd77bb5246a37086f19c67c,6068421109aae45bf0593e17,2021-04-03_11h23.46.340,Colour_Similarity_Experiment,2020.2.10,Win32,60,60674ec340277cd6a308bc9f,17.92773537,17.02624069,16.94512766,17.12365559,16.92034562,17.02624069,,,,,,,,,,,,,,,,,,,,PF,weak,3,,,,,,,,0,0.99043,,,,,,,,,,,,,,,,,,,,,,,,,,,,5,weak,-41,95,1,0,0,response7disk,5,16,-7,11,1,0,0,rectangle,-7,11,1,0,0,,1,0.00265,-7,11,1,0,0,0,15,15,94,1,0,,,,,,,,,,,,,,,,,,,,,
,,,,,,,,,,,,,,,,,,,,,,,,,,,,,,,,,,,,,,,,,,5fd77bb5246a37086f19c67c,6068421109aae45bf0593e17,2021-04-03_11h23.46.340,Colour_Similarity_Experiment,2020.2.10,Win32,60,60674ec340277cd6a308bc9f,17.92773537,17.02624069,16.94512766,17.12365559,16.92034562,17.02624069,,,,,,,,,,,,,,,,,,,,PF,strong,3,,,,,,,,3,1.603455,,,,,,,,,,,,,,,,,,,,,,,,,,,,7,strong,-37,-77,1,0,0,response5disk,5,17,13,-7,1,0,0,rectangle,13,-7,1,0,0,,0,0.00155,13,-7,1,0,0,0,16,16,156,1,0,,,,,,,,,,,,,,,,,,,,,
,,,,,,,,,,,,,,,,,,,,,,,,,,,,,,,,,,,,,,,,,,5fd77bb5246a37086f19c67c,6068421109aae45bf0593e17,2021-04-03_11h23.46.340,Colour_Similarity_Experiment,2020.2.10,Win32,60,60674ec340277cd6a308bc9f,17.92773537,17.02624069,16.94512766,17.12365559,16.92034562,17.02624069,,,,,,,,,,,,,,,,,,,,PF,strong,3,,,,,,,,7,1.227435,,,,,,,,,,,,,,,,,,,,,,,,,,,,8,strong,36,99,1,0,0,response1disk,4,18,6,1,1,0,0,rectangle,6,1,1,0,0,,3,0.004795,6,1,1,0,0,0,17,17,88,1,0,,,,,,,,,,,,,,,,,,,,,
,,,,,,,,,,,,,,,,,,,,,,,,,,,,,,,,,,,,,,,,,,5fd77bb5246a37086f19c67c,6068421109aae45bf0593e17,2021-04-03_11h23.46.340,Colour_Similarity_Experiment,2020.2.10,Win32,60,60674ec340277cd6a308bc9f,17.92773537,17.02624069,16.94512766,17.12365559,16.92034562,17.02624069,,,,,,,,,,,,,,,,,,,,PF,strong,3,,,,,,,,7,1.01711,,,,,,,,,,,,,,,,,,,,,,,,,,,,3,strong,37,88,1,0,0,response1disk,7,19,17,-5,1,0,0,rectangle,17,-5,1,0,0,,1,0.00142,17,-5,1,0,0,0,18,18,118,1,0,,,,,,,,,,,,,,,,,,,,,
,,,,,,,,,,,,,,,,,,,,,,,,,,,,,,,,,,,,,,,,,,5fd77bb5246a37086f19c67c,6068421109aae45bf0593e17,2021-04-03_11h23.46.340,Colour_Similarity_Experiment,2020.2.10,Win32,60,60674ec340277cd6a308bc9f,17.92773537,17.02624069,16.94512766,17.12365559,16.92034562,17.02624069,,,,,,,,,,,,,,,,,,,,PF,strong,3,,,,,,,,5,1.38879,,,,,,,,,,,,,,,,,,,,,,,,,,,,1,strong,92,-40,1,0,0,response3disk,2,20,6,3,1,0,0,rectangle,6,3,1,0,0,,1,0.00024,6,3,1,0,0,0,19,19,2,1,0,,,,,,,,,,,,,,,,,,,,,
,,,,,,,,,,,,,,,,,,,,,,,,,,,,,,,,,,,,,,,,,,5fd77bb5246a37086f19c67c,6068421109aae45bf0593e17,2021-04-03_11h23.46.340,Colour_Similarity_Experiment,2020.2.10,Win32,60,60674ec340277cd6a308bc9f,17.92773537,17.02624069,16.94512766,17.12365559,16.92034562,17.02624069,,,,,,,,,,,,,,,,,,,,PF,weak,3,,,,,,,,1,2.42965,,,,,,,,,,,,,,,,,,,,,,,,,,,,9,weak,-77,41,1,0,0,response7disk,9,21,-4,-1,1,0,0,rectangle,-4,-1,1,0,0,,1,0.000215,-4,-1,1,0,0,0,20,20,106,1,0,,,,,,,,,,,,,,,,,,,,,
,,,,,,,,,,,,,,,,,,,,,,,,,,,,,,,,,,,,,,,,,,5fd77bb5246a37086f19c67c,6068421109aae45bf0593e17,2021-04-03_11h23.46.340,Colour_Similarity_Experiment,2020.2.10,Win32,60,60674ec340277cd6a308bc9f,17.92773537,17.02624069,16.94512766,17.12365559,16.92034562,17.02624069,,,,,,,,,,,,,,,,,,,,PF,strong,3,,,,,,,,4,2.044485,,,,,,,,,,,,,,,,,,,,,,,,,,,,1,strong,32,-83,1,0,0,response3disk,8,22,8,-12,1,0,0,rectangle,8,-12,1,0,0,,0,0.002075,8,-12,1,0,0,0,21,21,27,1,0,,,,,,,,,,,,,,,,,,,,,
,,,,,,,,,,,,,,,,,,,,,,,,,,,,,,,,,,,,,,,,,,5fd77bb5246a37086f19c67c,6068421109aae45bf0593e17,2021-04-03_11h23.46.340,Colour_Similarity_Experiment,2020.2.10,Win32,60,60674ec340277cd6a308bc9f,17.92773537,17.02624069,16.94512766,17.12365559,16.92034562,17.02624069,,,,,,,,,,,,,,,,,,,,PF,weak,3,,,,,,,,7,0.926195,,,,,,,,,,,,,,,,,,,,,,,,,,,,6,weak,43,81,1,0,0,response1disk,1,23,-15,1,1,0,0,rectangle,-15,1,1,0,0,,7,0.001895,-15,1,1,0,0,0,22,22,46,1,0,,,,,,,,,,,,,,,,,,,,,
,,,,,,,,,,,,,,,,,,,,,,,,,,,,,,,,,,,,,,,,,,5fd77bb5246a37086f19c67c,6068421109aae45bf0593e17,2021-04-03_11h23.46.340,Colour_Similarity_Experiment,2020.2.10,Win32,60,60674ec340277cd6a308bc9f,17.92773537,17.02624069,16.94512766,17.12365559,16.92034562,17.02624069,,,,,,,,,,,,,,,,,,,,PF,weak,3,,,,,,,,7,0.78164,,,,,,,,,,,,,,,,,,,,,,,,,,,,1,weak,41,86,1,0,0,response1disk,6,24,4,-1,1,0,0,rectangle,4,-1,1,0,0,,6,0.01089,4,-1,1,0,0,0,23,23,144,1,0,,,,,,,,,,,,,,,,,,,,,
,,,,,,,,,,,,,,,,,,,,,,,,,,,,,,,,,,,,,,,,,,5fd77bb5246a37086f19c67c,6068421109aae45bf0593e17,2021-04-03_11h23.46.340,Colour_Similarity_Experiment,2020.2.10,Win32,60,60674ec340277cd6a308bc9f,17.92773537,17.02624069,16.94512766,17.12365559,16.92034562,17.02624069,,,,,,,,,,,,,,,,,,,,PF,strong,3,,,,,,,,5,1.491165,,,,,,,,,,,,,,,,,,,,,,,,,,,,8,strong,75,-49,1,0,0,response3disk,1,25,-10,0,1,0,0,rectangle,-10,0,1,0,0,,4,0.00724,-10,0,1,0,0,0,24,24,20,1,0,,,,,,,,,,,,,,,,,,,,,
,,,,,,,,,,,,,,,,,,,,,,,,,,,,,,,,,,,,,,,,,,5fd77bb5246a37086f19c67c,6068421109aae45bf0593e17,2021-04-03_11h23.46.340,Colour_Similarity_Experiment,2020.2.10,Win32,60,60674ec340277cd6a308bc9f,17.92773537,17.02624069,16.94512766,17.12365559,16.92034562,17.02624069,,,,,,,,,,,,,,,,,,,,PF,weak,3,,,,,,,,6,2.725495,,,,,,,,,,,,,,,,,,,,,,,,,,,,8,weak,77,34,1,0,0,response1disk,7,26,-7,5,1,0,0,rectangle,-7,5,1,0,0,,3,0.00241,-7,5,1,0,0,0,25,25,23,1,0,,,,,,,,,,,,,,,,,,,,,
,,,,,,,,,,,,,,,,,,,,,,,,,,,,,,,,,,,,,,,,,,5fd77bb5246a37086f19c67c,6068421109aae45bf0593e17,2021-04-03_11h23.46.340,Colour_Similarity_Experiment,2020.2.10,Win32,60,60674ec340277cd6a308bc9f,17.92773537,17.02624069,16.94512766,17.12365559,16.92034562,17.02624069,,,,,,,,,,,,,,,,,,,,PF,strong,3,,,,,,,,7,0.87355,,,,,,,,,,,,,,,,,,,,,,,,,,,,2,strong,41,79,1,0,0,response1disk,5,27,8,8,1,0,0,rectangle,8,8,1,0,0,,6,0.00256,8,8,1,0,0,0,26,26,80,1,0,,,,,,,,,,,,,,,,,,,,,
,,,,,,,,,,,,,,,,,,,,,,,,,,,,,,,,,,,,,,,,,,5fd77bb5246a37086f19c67c,6068421109aae45bf0593e17,2021-04-03_11h23.46.340,Colour_Similarity_Experiment,2020.2.10,Win32,60,60674ec340277cd6a308bc9f,17.92773537,17.02624069,16.94512766,17.12365559,16.92034562,17.02624069,,,,,,,,,,,,,,,,,,,,PF,weak,3,,,,,,,,7,0.881035,,,,,,,,,,,,,,,,,,,,,,,,,,,,8,weak,36,86,1,0,0,response1disk,3,28,0,8,1,0,0,rectangle,0,8,1,0,0,,7,0.01078,0,8,1,0,0,0,27,27,71,1,0,,,,,,,,,,,,,,,,,,,,,
,,,,,,,,,,,,,,,,,,,,,,,,,,,,,,,,,,,,,,,,,,5fd77bb5246a37086f19c67c,6068421109aae45bf0593e17,2021-04-03_11h23.46.340,Colour_Similarity_Experiment,2020.2.10,Win32,60,60674ec340277cd6a308bc9f,17.92773537,17.02624069,16.94512766,17.12365559,16.92034562,17.02624069,,,,,,,,,,,,,,,,,,,,PF,weak,3,,,,,,,,3,1.56342,,,,,,,,,,,,,,,,,,,,,,,,,,,,8,weak,-50,-66,1,0,0,response5disk,9,29,-11,12,1,0,0,rectangle,-11,12,1,0,0,,4,0.00233,-11,12,1,0,0,0,28,28,42,1,0,,,,,,,,,,,,,,,,,,,,,
,,,,,,,,,,,,,,,,,,,,,,,,,,,,,,,,,,,,,,,,,,5fd77bb5246a37086f19c67c,6068421109aae45bf0593e17,2021-04-03_11h23.46.340,Colour_Similarity_Experiment,2020.2.10,Win32,60,60674ec340277cd6a308bc9f,17.92773537,17.02624069,16.94512766,17.12365559,16.92034562,17.02624069,,,,,,,,,,,,,,,,,,,,PF,strong,3,,,,,,,,7,1.47011,,,,,,,,,,,,,,,,,,,,,,,,,,,,7,strong,35,78,1,0,0,response1disk,4,30,-7,4,1,0,0,rectangle,-7,4,1,0,0,,3,0.00615,-7,4,1,0,0,0,29,29,158,1,0,,,,,,,,,,,,,,,,,,,,,
,,,,,,,,,,,,,,,,,,,,,,,,,,,,,,,,,,,,,,,,,,5fd77bb5246a37086f19c67c,6068421109aae45bf0593e17,2021-04-03_11h23.46.340,Colour_Similarity_Experiment,2020.2.10,Win32,60,60674ec340277cd6a308bc9f,17.92773537,17.02624069,16.94512766,17.12365559,16.92034562,17.02624069,,,,,,,,,,,,,,,,,,,,PF,strong,3,,,,,,,,6,1.784945,,,,,,,,,,,,,,,,,,,,,,,,,,,,2,strong,65,50,1,0,0,response1disk,3,31,-1,3,1,0,0,rectangle,56,-24,1,0,0,5,5,1.356725,3,-6,1,0,0,0,30,30,104,1,1,response3disk_3,rectangle,,,,,,,,,,,,,,,,,,,
,,,,,,,,,,,,,,,,,,,,,,,,,,,,,,,,,,,,,,,,,,5fd77bb5246a37086f19c67c,6068421109aae45bf0593e17,2021-04-03_11h23.46.340,Colour_Similarity_Experiment,2020.2.10,Win32,60,60674ec340277cd6a308bc9f,17.92773537,17.02624069,16.94512766,17.12365559,16.92034562,17.02624069,,,,,,,,,,,,,,,,,,,,PF,strong,3,,,,,,,,7,0.911025,,,,,,,,,,,,,,,,,,,,,,,,,,,,2,strong,29,73,1,0,0,response1disk,8,32,-19,6,1,0,0,rectangle,-19,6,1,0,0,5,1,0.00189,-19,6,1,0,0,0,31,31,62,1,0,,,,,,,,,,,,,,,,,,,,,
,,,,,,,,,,,,,,,,,,,,,,,,,,,,,,,,,,,,,,,,,,5fd77bb5246a37086f19c67c,6068421109aae45bf0593e17,2021-04-03_11h23.46.340,Colour_Similarity_Experiment,2020.2.10,Win32,60,60674ec340277cd6a308bc9f,17.92773537,17.02624069,16.94512766,17.12365559,16.92034562,17.02624069,,,,,,,,,,,,,,,,,,,,PF,weak,3,,,,,,,,7,0.70872,,,,,,,,,,,,,,,,,,,,,,,,,,,,4,weak,25,67,1,0,0,response1disk,2,33,-3,1,1,0,0,rectangle,-3,1,1,0,0,5,1,0.00029,-3,1,1,0,0,0,32,32,108,1,0,,,,,,,,,,,,,,,,,,,,,
,,,,,,,,,,,,,,,,,,,,,,,,,,,,,,,,,,,,,,,,,,5fd77bb5246a37086f19c67c,6068421109aae45bf0593e17,2021-04-03_11h23.46.340,Colour_Similarity_Experiment,2020.2.10,Win32,60,60674ec340277cd6a308bc9f,17.92773537,17.02624069,16.94512766,17.12365559,16.92034562,17.02624069,,,,,,,,,,,,,,,,,,,,PF,strong,3,,,,,,,,0,0.946915,,,,,,,,,,,,,,,,,,,,,,,,,,,,2,strong,-40,88,1,0,0,response7disk,2,34,-2,-2,1,0,0,rectangle,-2,-2,1,0,0,5,2,0.00324,-2,-2,1,0,0,0,33,33,142,1,0,,,,,,,,,,,,,,,,,,,,,
,,,,,,,,,,,,,,,,,,,,,,,,,,,,,,,,,,,,,,,,,,5fd77bb5246a37086f19c67c,6068421109aae45bf0593e17,2021-04-03_11h23.46.340,Colour_Similarity_Experiment,2020.2.10,Win32,60,60674ec340277cd6a308bc9f,17.92773537,17.02624069,16.94512766,17.12365559,16.92034562,17.02624069,,,,,,,,,,,,,,,,,,,,PF,weak,3,,,,,,,,2,1.362835,,,,,,,,,,,,,,,,,,,,,,,,,,,,7,weak,-61,-33,1,0,0,response5disk,6,35,-9,-3,1,0,0,rectangle,-9,-3,1,0,0,5,2,0.00107,-9,-3,1,0,0,0,34,34,29,1,0,,,,,,,,,,,,,,,,,,,,,
,,,,,,,,,,,,,,,,,,,,,,,,,,,,,,,,,,,,,,,,,,5fd77bb5246a37086f19c67c,6068421109aae45bf0593e17,2021-04-03_11h23.46.340,Colour_Similarity_Experiment,2020.2.10,Win32,60,60674ec340277cd6a308bc9f,17.92773537,17.02624069,16.94512766,17.12365559,16.92034562,17.02624069,,,,,,,,,,,,,,,,,,,,PF,weak,3,,,,,,,,7,1.529925,,,,,,,,,,,,,,,,,,,,,,,,,,,,7,weak,31,60,1,0,0,response1disk,3,36,9,11,1,0,0,rectangle,9,11,1,0,0,5,4,0.004785,9,11,1,0,0,0,35,35,81,1,0,,,,,,,,,,,,,,,,,,,,,
,,,,,,,,,,,,,,,,,,,,,,,,,,,,,,,,,,,,,,,,,,5fd77bb5246a37086f19c67c,6068421109aae45bf0593e17,2021-04-03_11h23.46.340,Colour_Similarity_Experiment,2020.2.10,Win32,60,60674ec340277cd6a308bc9f,17.92773537,17.02624069,16.94512766,17.12365559,16.92034562,17.02624069,,,,,,,,,,,,,,,,,,,,PF,weak,3,,,,,,,,4,1.826325,,,,,,,,,,,,,,,,,,,,,,,,,,,,9,weak,59,-66,1,0,0,response3disk,1,37,22,-5,1,0,0,rectangle,22,-5,1,0,0,5,4,0.002805,22,-5,1,0,0,0,36,36,74,1,0,,,,,,,,,,,,,,,,,,,,,
,,,,,,,,,,,,,,,,,,,,,,,,,,,,,,,,,,,,,,,,,,5fd77bb5246a37086f19c67c,6068421109aae45bf0593e17,2021-04-03_11h23.46.340,Colour_Similarity_Experiment,2020.2.10,Win32,60,60674ec340277cd6a308bc9f,17.92773537,17.02624069,16.94512766,17.12365559,16.92034562,17.02624069,,,,,,,,,,,,,,,,,,,,PF,strong,3,,,,,,,,7,1.45111,,,,,,,,,,,,,,,,,,,,,,,,,,,,6,strong,47,86,1,0,0,response1disk,9,38,-1,6,1,0,0,rectangle,77,-25,1,0,0,5,5,0.952495,4,-4,1,0,0,0,37,37,160,1,1,response3disk_3,rectangle,,,,,,,,,,,,,,,,,,,
,,,,,,,,,,,,,,,,,,,,,,,,,,,,,,,,,,,,,,,,,,5fd77bb5246a37086f19c67c,6068421109aae45bf0593e17,2021-04-03_11h23.46.340,Colour_Similarity_Experiment,2020.2.10,Win32,60,60674ec340277cd6a308bc9f,17.92773537,17.02624069,16.94512766,17.12365559,16.92034562,17.02624069,,,,,,,,,,,,,,,,,,,,PF,weak,3,,,,,,,,7,1.121385,,,,,,,,,,,,,,,,,,,,,,,,,,,,1,weak,40,99,1,0,0,response1disk,5,39,6,9,1,0,0,rectangle,6,9,1,0,0,5,2,0.00432,6,9,1,0,0,0,38,38,28,1,0,,,,,,,,,,,,,,,,,,,,,
,,,,,,,,,,,,,,,,,,,,,,,,,,,,,,,,,,,,,,,,,,5fd77bb5246a37086f19c67c,6068421109aae45bf0593e17,2021-04-03_11h23.46.340,Colour_Similarity_Experiment,2020.2.10,Win32,60,60674ec340277cd6a308bc9f,17.92773537,17.02624069,16.94512766,17.12365559,16.92034562,17.02624069,,,,,,,,,,,,,,,,,,,,PF,strong,3,,,,,,,,0,1.21996,,,,,,,,,,,,,,,,,,,,,,,,,,,,9,strong,-49,100,1,0,0,response7disk,9,40,12,-3,1,0,0,rectangle,12,-3,1,0,0,5,5,0.00236,12,-3,1,0,0,0,39,39,17,1,0,,,,,,,,,,,,,,,,,,,,,
,,,,,,,,,,,,,,,,,,,,,,,,,,,,,,,,,,,,,,,,,,5fd77bb5246a37086f19c67c,6068421109aae45bf0593e17,2021-04-03_11h23.46.340,Colour_Similarity_Experiment,2020.2.10,Win32,60,60674ec340277cd6a308bc9f,17.92773537,17.02624069,16.94512766,17.12365559,16.92034562,17.02624069,,,,,,,,,,,,,,,,,,,,PF,strong,3,,,,,,,,7,0.875175,,,,,,,,,,,,,,,,,,,,,,,,,,,,9,strong,40,84,1,0,0,response1disk,4,41,-2,-10,1,0,0,rectangle,-2,-10,1,0,0,5,3,0.002465,-2,-10,1,0,0,0,40,40,60,1,0,,,,,,,,,,,,,,,,,,,,,
,,,,,,,,,,,,,,,,,,,,,,,,,,,,,,,,,,,,,,,,,,5fd77bb5246a37086f19c67c,6068421109aae45bf0593e17,2021-04-03_11h23.46.340,Colour_Similarity_Experiment,2020.2.10,Win32,60,60674ec340277cd6a308bc9f,17.92773537,17.02624069,16.94512766,17.12365559,16.92034562,17.02624069,,,,,,,,,,,,,,,,,,,,PF,strong,3,,,,,,,,7,0.84883,,,,,,,,,,,,,,,,,,,,,,,,,,,,4,strong,40,93,1,0,0,response1disk,2,42,8,14,1,0,0,rectangle,8,14,1,0,0,5,3,0.000595,8,14,1,0,0,0,41,41,13,1,0,,,,,,,,,,,,,,,,,,,,,
,,,,,,,,,,,,,,,,,,,,,,,,,,,,,,,,,,,,,,,,,,5fd77bb5246a37086f19c67c,6068421109aae45bf0593e17,2021-04-03_11h23.46.340,Colour_Similarity_Experiment,2020.2.10,Win32,60,60674ec340277cd6a308bc9f,17.92773537,17.02624069,16.94512766,17.12365559,16.92034562,17.02624069,,,,,,,,,,,,,,,,,,,,PF,weak,3,,,,,,,,5,1.35364,,,,,,,,,,,,,,,,,,,,,,,,,,,,8,weak,75,-32,1,0,0,response3disk,1,43,-6,2,1,0,0,rectangle,-6,2,1,0,0,5,4,0.001405,-6,2,1,0,0,0,42,42,57,1,0,,,,,,,,,,,,,,,,,,,,,
,,,,,,,,,,,,,,,,,,,,,,,,,,,,,,,,,,,,,,,,,,5fd77bb5246a37086f19c67c,6068421109aae45bf0593e17,2021-04-03_11h23.46.340,Colour_Similarity_Experiment,2020.2.10,Win32,60,60674ec340277cd6a308bc9f,17.92773537,17.02624069,16.94512766,17.12365559,16.92034562,17.02624069,,,,,,,,,,,,,,,,,,,,PF,strong,3,,,,,,,,7,0.664685,,,,,,,,,,,,,,,,,,,,,,,,,,,,7,strong,24,64,1,0,0,response1disk,2,44,5,-4,1,0,0,rectangle,5,-4,1,0,0,5,4,0.0002,5,-4,1,0,0,0,43,43,138,1,0,,,,,,,,,,,,,,,,,,,,,
,,,,,,,,,,,,,,,,,,,,,,,,,,,,,,,,,,,,,,,,,,5fd77bb5246a37086f19c67c,6068421109aae45bf0593e17,2021-04-03_11h23.46.340,Colour_Similarity_Experiment,2020.2.10,Win32,60,60674ec340277cd6a308bc9f,17.92773537,17.02624069,16.94512766,17.12365559,16.92034562,17.02624069,,,,,,,,,,,,,,,,,,,,PF,strong,3,,,,,,,,7,0.807005,,,,,,,,,,,,,,,,,,,,,,,,,,,,1,strong,45,88,1,0,0,response1disk,7,45,10,12,1,0,0,rectangle,10,12,1,0,0,5,1,0.00153,10,12,1,0,0,0,44,44,137,1,0,,,,,,,,,,,,,,,,,,,,,
,,,,,,,,,,,,,,,,,,,,,,,,,,,,,,,,,,,,,,,,,,5fd77bb5246a37086f19c67c,6068421109aae45bf0593e17,2021-04-03_11h23.46.340,Colour_Similarity_Experiment,2020.2.10,Win32,60,60674ec340277cd6a308bc9f,17.92773537,17.02624069,16.94512766,17.12365559,16.92034562,17.02624069,,,,,,,,,,,,,,,,,,,,PF,weak,3,,,,,,,,7,0.71068,,,,,,,,,,,,,,,,,,,,,,,,,,,,5,weak,37,88,1,0,0,response1disk,8,46,8,-3,1,0,0,rectangle,8,-3,1,0,0,5,7,0.001475,8,-3,1,0,0,0,45,45,149,1,0,,,,,,,,,,,,,,,,,,,,,
,,,,,,,,,,,,,,,,,,,,,,,,,,,,,,,,,,,,,,,,,,5fd77bb5246a37086f19c67c,6068421109aae45bf0593e17,2021-04-03_11h23.46.340,Colour_Similarity_Experiment,2020.2.10,Win32,60,60674ec340277cd6a308bc9f,17.92773537,17.02624069,16.94512766,17.12365559,16.92034562,17.02624069,,,,,,,,,,,,,,,,,,,,PF,weak,3,,,,,,,,4,1.494825,,,,,,,,,,,,,,,,,,,,,,,,,,,,2,weak,40,-84,1,0,0,response3disk,1,47,3,5,1,0,0,rectangle,3,5,1,0,0,5,2,0.00269,3,5,1,0,0,0,46,46,9,1,0,,,,,,,,,,,,,,,,,,,,,
,,,,,,,,,,,,,,,,,,,,,,,,,,,,,,,,,,,,,,,,,,5fd77bb5246a37086f19c67c,6068421109aae45bf0593e17,2021-04-03_11h23.46.340,Colour_Similarity_Experiment,2020.2.10,Win32,60,60674ec340277cd6a308bc9f,17.92773537,17.02624069,16.94512766,17.12365559,16.92034562,17.02624069,,,,,,,,,,,,,,,,,,,,PF,strong,3,,,,,,,,7,1.865025,,,,,,,,,,,,,,,,,,,,,,,,,,,,6,strong,44,67,1,0,0,response1disk,4,48,1,5,1,0,0,rectangle,1,5,1,0,0,5,0,0.001635,1,5,1,0,0,0,47,47,56,1,0,,,,,,,,,,,,,,,,,,,,,
,,,,,,,,,,,,,,,,,,,,,,,,,,,,,,,,,,,,,,,,,,5fd77bb5246a37086f19c67c,6068421109aae45bf0593e17,2021-04-03_11h23.46.340,Colour_Similarity_Experiment,2020.2.10,Win32,60,60674ec340277cd6a308bc9f,17.92773537,17.02624069,16.94512766,17.12365559,16.92034562,17.02624069,,,,,,,,,,,,,,,,,,,,PF,weak,3,,,,,,,,7,0.94111,,,,,,,,,,,,,,,,,,,,,,,,,,,,1,weak,38,82,1,0,0,response1disk,7,49,3,-14,1,0,0,rectangle,3,-14,1,0,0,5,2,0.00327,3,-14,1,0,0,0,48,48,150,1,0,,,,,,,,,,,,,,,,,,,,,
,,,,,,,,,,,,,,,,,,,,,,,,,,,,,,,,,,,,,,,,,,5fd77bb5246a37086f19c67c,6068421109aae45bf0593e17,2021-04-03_11h23.46.340,Colour_Similarity_Experiment,2020.2.10,Win32,60,60674ec340277cd6a308bc9f,17.92773537,17.02624069,16.94512766,17.12365559,16.92034562,17.02624069,,,,,,,,,,,,,,,,,,,,PF,weak,3,,,,,,,,7,0.852935,,,,,,,,,,,,,,,,,,,,,,,,,,,,9,weak,21,43,1,0,0,response1disk,6,50,-2,-4,1,0,0,rectangle,-2,-4,1,0,0,5,1,0.003765,-2,-4,1,0,0,0,49,49,148,1,0,,,,,,,,,,,,,,,,,,,,,
,,,,,,,,,,,,,,,,,,,,,,,,,,,,,,,,,,,,,,,,,,5fd77bb5246a37086f19c67c,6068421109aae45bf0593e17,2021-04-03_11h23.46.340,Colour_Similarity_Experiment,2020.2.10,Win32,60,60674ec340277cd6a308bc9f,17.92773537,17.02624069,16.94512766,17.12365559,16.92034562,17.02624069,,,,,,,,,,,,,,,,,,,,PF,weak,3,,,,,,,,0,1.76388,,,,,,,,,,,,,,,,,,,,,,,,,,,,2,weak,-45,90,1,0,0,response7disk,2,51,10,-4,1,0,0,rectangle,10,-4,1,0,0,5,2,0.003375,10,-4,1,0,0,0,50,50,14,1,0,,,,,,,,,,,,,,,,,,,,,
,,,,,,,,,,,,,,,,,,,,,,,,,,,,,,,,,,,,,,,,,,5fd77bb5246a37086f19c67c,6068421109aae45bf0593e17,2021-04-03_11h23.46.340,Colour_Similarity_Experiment,2020.2.10,Win32,60,60674ec340277cd6a308bc9f,17.92773537,17.02624069,16.94512766,17.12365559,16.92034562,17.02624069,,,,,,,,,,,,,,,,,,,,PF,weak,3,,,,,,,,7,0.735755,,,,,,,,,,,,,,,,,,,,,,,,,,,,1,weak,27,81,1,0,0,response1disk,8,52,-7,8,1,0,0,rectangle,-7,8,1,0,0,5,0,0.00205,-7,8,1,0,0,0,51,51,65,1,0,,,,,,,,,,,,,,,,,,,,,
,,,,,,,,,,,,,,,,,,,,,,,,,,,,,,,,,,,,,,,,,,5fd77bb5246a37086f19c67c,6068421109aae45bf0593e17,2021-04-03_11h23.46.340,Colour_Similarity_Experiment,2020.2.10,Win32,60,60674ec340277cd6a308bc9f,17.92773537,17.02624069,16.94512766,17.12365559,16.92034562,17.02624069,,,,,,,,,,,,,,,,,,,,PF,weak,3,,,,,,,,7,0.956075,,,,,,,,,,,,,,,,,,,,,,,,,,,,1,weak,37,88,1,0,0,response1disk,3,53,-3,7,1,0,0,rectangle,-3,7,1,0,0,5,3,0.00697,-3,7,1,0,0,0,52,52,1,1,0,,,,,,,,,,,,,,,,,,,,,
,,,,,,,,,,,,,,,,,,,,,,,,,,,,,,,,,,,,,,,,,,5fd77bb5246a37086f19c67c,6068421109aae45bf0593e17,2021-04-03_11h23.46.340,Colour_Similarity_Experiment,2020.2.10,Win32,60,60674ec340277cd6a308bc9f,17.92773537,17.02624069,16.94512766,17.12365559,16.92034562,17.02624069,,,,,,,,,,,,,,,,,,,,PF,strong,3,,,,,,,,7,0.737985,,,,,,,,,,,,,,,,,,,,,,,,,,,,7,strong,44,75,1,0,0,response1disk,1,54,1,9,1,0,0,rectangle,1,9,1,0,0,5,1,0.00382,1,9,1,0,0,0,53,53,132,1,0,,,,,,,,,,,,,,,,,,,,,
,,,,,,,,,,,,,,,,,,,,,,,,,,,,,,,,,,,,,,,,,,5fd77bb5246a37086f19c67c,6068421109aae45bf0593e17,2021-04-03_11h23.46.340,Colour_Similarity_Experiment,2020.2.10,Win32,60,60674ec340277cd6a308bc9f,17.92773537,17.02624069,16.94512766,17.12365559,16.92034562,17.02624069,,,,,,,,,,,,,,,,,,,,PF,weak,3,,,,,,,,7,1.032805,,,,,,,,,,,,,,,,,,,,,,,,,,,,9,weak,32,64,1,0,0,response1disk,2,55,-4,-1,1,0,0,rectangle,-4,-1,1,0,0,5,6,0.002455,-4,-1,1,0,0,0,54,54,157,1,0,,,,,,,,,,,,,,,,,,,,,
,,,,,,,,,,,,,,,,,,,,,,,,,,,,,,,,,,,,,,,,,,5fd77bb5246a37086f19c67c,6068421109aae45bf0593e17,2021-04-03_11h23.46.340,Colour_Similarity_Experiment,2020.2.10,Win32,60,60674ec340277cd6a308bc9f,17.92773537,17.02624069,16.94512766,17.12365559,16.92034562,17.02624069,,,,,,,,,,,,,,,,,,,,PF,weak,3,,,,,,,,7,0.682345,,,,,,,,,,,,,,,,,,,,,,,,,,,,7,weak,31,59,1,0,0,response1disk,1,56,-2,-7,1,0,0,rectangle,-2,-7,1,0,0,5,4,0.003805,-2,-7,1,0,0,0,55,55,53,1,0,,,,,,,,,,,,,,,,,,,,,
,,,,,,,,,,,,,,,,,,,,,,,,,,,,,,,,,,,,,,,,,,5fd77bb5246a37086f19c67c,6068421109aae45bf0593e17,2021-04-03_11h23.46.340,Colour_Similarity_Experiment,2020.2.10,Win32,60,60674ec340277cd6a308bc9f,17.92773537,17.02624069,16.94512766,17.12365559,16.92034562,17.02624069,,,,,,,,,,,,,,,,,,,,PF,strong,3,,,,,,,,6,2.635975,,,,,,,,,,,,,,,,,,,,,,,,,,,,6,strong,49,29,1,0,0,response1disk,7,57,-14,8,1,0,0,rectangle,-14,8,1,0,0,5,6,0.0018,-14,8,1,0,0,0,56,56,18,1,0,,,,,,,,,,,,,,,,,,,,,
,,,,,,,,,,,,,,,,,,,,,,,,,,,,,,,,,,,,,,,,,,5fd77bb5246a37086f19c67c,6068421109aae45bf0593e17,2021-04-03_11h23.46.340,Colour_Similarity_Experiment,2020.2.10,Win32,60,60674ec340277cd6a308bc9f,17.92773537,17.02624069,16.94512766,17.12365559,16.92034562,17.02624069,,,,,,,,,,,,,,,,,,,,PF,weak,3,,,,,,,,0,1.091575,,,,,,,,,,,,,,,,,,,,,,,,,,,,1,weak,-41,71,1,0,0,response7disk,1,58,-16,5,1,0,0,rectangle,-66,-40,1,0,0,5,2,1.575175,-3,-7,1,0,0,0,57,57,76,1,1,response5disk_3,rectangle,,,,,,,,,,,,,,,,,,,
,,,,,,,,,,,,,,,,,,,,,,,,,,,,,,,,,,,,,,,,,,5fd77bb5246a37086f19c67c,6068421109aae45bf0593e17,2021-04-03_11h23.46.340,Colour_Similarity_Experiment,2020.2.10,Win32,60,60674ec340277cd6a308bc9f,17.92773537,17.02624069,16.94512766,17.12365559,16.92034562,17.02624069,,,,,,,,,,,,,,,,,,,,PF,strong,3,,,,,,,,7,1.15589,,,,,,,,,,,,,,,,,,,,,,,,,,,,9,strong,32,51,1,0,0,response1disk,5,59,-7,6,1,0,0,rectangle,-7,6,1,0,0,5,3,0.001455,-7,6,1,0,0,0,58,58,128,1,0,,,,,,,,,,,,,,,,,,,,,
,,,,,,,,,,,,,,,,,,,,,,,,,,,,,,,,,,,,,,,,,,5fd77bb5246a37086f19c67c,6068421109aae45bf0593e17,2021-04-03_11h23.46.340,Colour_Similarity_Experiment,2020.2.10,Win32,60,60674ec340277cd6a308bc9f,17.92773537,17.02624069,16.94512766,17.12365559,16.92034562,17.02624069,,,,,,,,,,,,,,,,,,,,PF,strong,3,,,,,,,,7,1.03573,,,,,,,,,,,,,,,,,,,,,,,,,,,,1,strong,47,61,1,0,0,response1disk,5,60,17,2,1,0,0,rectangle,17,2,1,0,0,5,6,0.00274,17,2,1,0,0,0,59,59,82,1,0,,,,,,,,,,,,,,,,,,,,,
,,,,,,,,,,,,,,,,,,,,,,,,,,,,,,,,,,,,,,,,,,5fd77bb5246a37086f19c67c,6068421109aae45bf0593e17,2021-04-03_11h23.46.340,Colour_Similarity_Experiment,2020.2.10,Win32,60,60674ec340277cd6a308bc9f,17.92773537,17.02624069,16.94512766,17.12365559,16.92034562,17.02624069,,,,,,,,,,,,,,,,,,,,PF,weak,3,,,,,,,,7,0.73298,,,,,,,,,,,,,,,,,,,,,,,,,,,,5,weak,32,68,1,0,0,response1disk,1,61,6,14,1,0,0,rectangle,-42,66,1,0,0,0,0,1.745135,7,-6,1,0,0,0,60,60,159,1,1,response7disk_3,rectangle,,,,,,,,,,,,,,,,,,,
,,,,,,,,,,,,,,,,,,,,,,,,,,,,,,,,,,,,,,,,,,5fd77bb5246a37086f19c67c,6068421109aae45bf0593e17,2021-04-03_11h23.46.340,Colour_Similarity_Experiment,2020.2.10,Win32,60,60674ec340277cd6a308bc9f,17.92773537,17.02624069,16.94512766,17.12365559,16.92034562,17.02624069,,,,,,,,,,,,,,,,,,,,PF,strong,3,,,,,,,,6,3.684795,,,,,,,,,,,,,,,,,,,,,,,,,,,,5,strong,96,54,1,0,0,response1disk,2,62,9,-10,1,0,0,rectangle,-18,-79,1,0,0,3,3,2.180665,-13,8,1,0,0,0,61,61,55,1,1,response5disk_3,rectangle,,,,,,,,,,,,,,,,,,,
,,,,,,,,,,,,,,,,,,,,,,,,,,,,,,,,,,,,,,,,,,5fd77bb5246a37086f19c67c,6068421109aae45bf0593e17,2021-04-03_11h23.46.340,Colour_Similarity_Experiment,2020.2.10,Win32,60,60674ec340277cd6a308bc9f,17.92773537,17.02624069,16.94512766,17.12365559,16.92034562,17.02624069,,,,,,,,,,,,,,,,,,,,PF,weak,3,,,,,,,,0,0.945325,,,,,,,,,,,,,,,,,,,,,,,,,,,,7,weak,-52,76,1,0,0,response7disk,7,63,-9,2,1,0,0,rectangle,-9,2,1,0,0,3,3,0.000175,-9,2,1,0,0,0,62,62,51,1,0,,,,,,,,,,,,,,,,,,,,,
,,,,,,,,,,,,,,,,,,,,,,,,,,,,,,,,,,,,,,,,,,5fd77bb5246a37086f19c67c,6068421109aae45bf0593e17,2021-04-03_11h23.46.340,Colour_Similarity_Experiment,2020.2.10,Win32,60,60674ec340277cd6a308bc9f,17.92773537,17.02624069,16.94512766,17.12365559,16.92034562,17.02624069,,,,,,,,,,,,,,,,,,,,PF,strong,3,,,,,,,,7,1.399275,,,,,,,,,,,,,,,,,,,,,,,,,,,,6,strong,45,69,1,0,0,response1disk,2,64,11,3,1,0,0,rectangle,11,3,1,0,0,3,3,0.000235,11,3,1,0,0,0,63,63,112,1,0,,,,,,,,,,,,,,,,,,,,,
,,,,,,,,,,,,,,,,,,,,,,,,,,,,,,,,,,,,,,,,,,5fd77bb5246a37086f19c67c,6068421109aae45bf0593e17,2021-04-03_11h23.46.340,Colour_Similarity_Experiment,2020.2.10,Win32,60,60674ec340277cd6a308bc9f,17.92773537,17.02624069,16.94512766,17.12365559,16.92034562,17.02624069,,,,,,,,,,,,,,,,,,,,PF,weak,3,,,,,,,,7,0.860105,,,,,,,,,,,,,,,,,,,,,,,,,,,,8,weak,31,62,1,0,0,response1disk,2,65,-1,-1,1,0,0,rectangle,-1,-1,1,0,0,3,5,0.0018,-1,-1,1,0,0,0,64,64,83,1,0,,,,,,,,,,,,,,,,,,,,,
,,,,,,,,,,,,,,,,,,,,,,,,,,,,,,,,,,,,,,,,,,5fd77bb5246a37086f19c67c,6068421109aae45bf0593e17,2021-04-03_11h23.46.340,Colour_Similarity_Experiment,2020.2.10,Win32,60,60674ec340277cd6a308bc9f,17.92773537,17.02624069,16.94512766,17.12365559,16.92034562,17.02624069,,,,,,,,,,,,,,,,,,,,PF,weak,3,,,,,,,,7,1.838935,,,,,,,,,,,,,,,,,,,,,,,,,,,,9,weak,31,69,1,0,0,response1disk,5,66,5,0,1,0,0,rectangle,5,0,1,0,0,3,3,0.0016,5,0,1,0,0,0,65,65,134,1,0,,,,,,,,,,,,,,,,,,,,,
,,,,,,,,,,,,,,,,,,,,,,,,,,,,,,,,,,,,,,,,,,5fd77bb5246a37086f19c67c,6068421109aae45bf0593e17,2021-04-03_11h23.46.340,Colour_Similarity_Experiment,2020.2.10,Win32,60,60674ec340277cd6a308bc9f,17.92773537,17.02624069,16.94512766,17.12365559,16.92034562,17.02624069,,,,,,,,,,,,,,,,,,,,PF,strong,3,,,,,,,,6,1.98687,,,,,,,,,,,,,,,,,,,,,,,,,,,,4,strong,59,34,1,0,0,response1disk,6,67,14,5,1,0,0,rectangle,14,5,1,0,0,3,3,0.000245,14,5,1,0,0,0,66,66,122,1,0,,,,,,,,,,,,,,,,,,,,,
,,,,,,,,,,,,,,,,,,,,,,,,,,,,,,,,,,,,,,,,,,5fd77bb5246a37086f19c67c,6068421109aae45bf0593e17,2021-04-03_11h23.46.340,Colour_Similarity_Experiment,2020.2.10,Win32,60,60674ec340277cd6a308bc9f,17.92773537,17.02624069,16.94512766,17.12365559,16.92034562,17.02624069,,,,,,,,,,,,,,,,,,,,PF,weak,3,,,,,,,,0,2.66314,,,,,,,,,,,,,,,,,,,,,,,,,,,,6,weak,-34,76,1,0,0,response7disk,6,68,-6,8,1,0,0,rectangle,-6,8,1,0,0,3,1,0.001865,-6,8,1,0,0,0,67,67,0,1,0,,,,,,,,,,,,,,,,,,,,,
,,,,,,,,,,,,,,,,,,,,,,,,,,,,,,,,,,,,,,,,,,5fd77bb5246a37086f19c67c,6068421109aae45bf0593e17,2021-04-03_11h23.46.340,Colour_Similarity_Experiment,2020.2.10,Win32,60,60674ec340277cd6a308bc9f,17.92773537,17.02624069,16.94512766,17.12365559,16.92034562,17.02624069,,,,,,,,,,,,,,,,,,,,PF,weak,3,,,,,,,,7,0.90354,,,,,,,,,,,,,,,,,,,,,,,,,,,,6,weak,29,57,1,0,0,response1disk,9,69,11,15,1,0,0,rectangle,11,15,1,0,0,3,6,0.002195,11,15,1,0,0,0,68,68,45,1,0,,,,,,,,,,,,,,,,,,,,,
,,,,,,,,,,,,,,,,,,,,,,,,,,,,,,,,,,,,,,,,,,5fd77bb5246a37086f19c67c,6068421109aae45bf0593e17,2021-04-03_11h23.46.340,Colour_Similarity_Experiment,2020.2.10,Win32,60,60674ec340277cd6a308bc9f,17.92773537,17.02624069,16.94512766,17.12365559,16.92034562,17.02624069,,,,,,,,,,,,,,,,,,,,PF,strong,3,,,,,,,,4,2.443475,,,,,,,,,,,,,,,,,,,,,,,,,,,,9,strong,45,-53,1,0,0,response3disk,1,70,9,-7,1,0,0,rectangle,9,-7,1,0,0,3,5,0.00386,9,-7,1,0,0,0,69,69,111,1,0,,,,,,,,,,,,,,,,,,,,,
,,,,,,,,,,,,,,,,,,,,,,,,,,,,,,,,,,,,,,,,,,5fd77bb5246a37086f19c67c,6068421109aae45bf0593e17,2021-04-03_11h23.46.340,Colour_Similarity_Experiment,2020.2.10,Win32,60,60674ec340277cd6a308bc9f,17.92773537,17.02624069,16.94512766,17.12365559,16.92034562,17.02624069,,,,,,,,,,,,,,,,,,,,PF,weak,3,,,,,,,,6,2.44442,,,,,,,,,,,,,,,,,,,,,,,,,,,,5,weak,56,34,1,0,0,response1disk,3,71,10,11,1,0,0,rectangle,10,11,1,0,0,3,3,0.002095,10,11,1,0,0,0,70,70,109,1,0,,,,,,,,,,,,,,,,,,,,,
,,,,,,,,,,,,,,,,,,,,,,,,,,,,,,,,,,,,,,,,,,5fd77bb5246a37086f19c67c,6068421109aae45bf0593e17,2021-04-03_11h23.46.340,Colour_Similarity_Experiment,2020.2.10,Win32,60,60674ec340277cd6a308bc9f,17.92773537,17.02624069,16.94512766,17.12365559,16.92034562,17.02624069,,,,,,,,,,,,,,,,,,,,PF,strong,3,,,,,,,,0,1.140225,,,,,,,,,,,,,,,,,,,,,,,,,,,,3,strong,-30,69,1,0,0,response7disk,3,72,1,-10,1,0,0,rectangle,1,-10,1,0,0,3,2,0.00373,1,-10,1,0,0,0,71,71,68,1,0,,,,,,,,,,,,,,,,,,,,,
,,,,,,,,,,,,,,,,,,,,,,,,,,,,,,,,,,,,,,,,,,5fd77bb5246a37086f19c67c,6068421109aae45bf0593e17,2021-04-03_11h23.46.340,Colour_Similarity_Experiment,2020.2.10,Win32,60,60674ec340277cd6a308bc9f,17.92773537,17.02624069,16.94512766,17.12365559,16.92034562,17.02624069,,,,,,,,,,,,,,,,,,,,PF,weak,3,,,,,,,,6,2.063585,,,,,,,,,,,,,,,,,,,,,,,,,,,,7,weak,49,36,1,0,0,response1disk,4,73,1,4,1,0,0,rectangle,1,4,1,0,0,3,4,0.0032,1,4,1,0,0,0,72,72,43,1,0,,,,,,,,,,,,,,,,,,,,,
,,,,,,,,,,,,,,,,,,,,,,,,,,,,,,,,,,,,,,,,,,5fd77bb5246a37086f19c67c,6068421109aae45bf0593e17,2021-04-03_11h23.46.340,Colour_Similarity_Experiment,2020.2.10,Win32,60,60674ec340277cd6a308bc9f,17.92773537,17.02624069,16.94512766,17.12365559,16.92034562,17.02624069,,,,,,,,,,,,,,,,,,,,PF,weak,3,,,,,,,,5,4.097805,,,,,,,,,,,,,,,,,,,,,,,,,,,,5,weak,43,-21,1,0,0,response3disk,4,74,-3,-1,1,0,0,rectangle,-3,-1,1,0,0,3,2,0.00193,-3,-1,1,0,0,0,73,73,54,1,0,,,,,,,,,,,,,,,,,,,,,
,,,,,,,,,,,,,,,,,,,,,,,,,,,,,,,,,,,,,,,,,,5fd77bb5246a37086f19c67c,6068421109aae45bf0593e17,2021-04-03_11h23.46.340,Colour_Similarity_Experiment,2020.2.10,Win32,60,60674ec340277cd6a308bc9f,17.92773537,17.02624069,16.94512766,17.12365559,16.92034562,17.02624069,,,,,,,,,,,,,,,,,,,,PF,strong,3,,,,,,,,7,1.060545,,,,,,,,,,,,,,,,,,,,,,,,,,,,2,strong,25,58,1,0,0,response1disk,7,75,3,15,1,0,0,rectangle,3,15,1,0,0,3,6,0.0018,3,15,1,0,0,0,74,74,63,1,0,,,,,,,,,,,,,,,,,,,,,
,,,,,,,,,,,,,,,,,,,,,,,,,,,,,,,,,,,,,,,,,,5fd77bb5246a37086f19c67c,6068421109aae45bf0593e17,2021-04-03_11h23.46.340,Colour_Similarity_Experiment,2020.2.10,Win32,60,60674ec340277cd6a308bc9f,17.92773537,17.02624069,16.94512766,17.12365559,16.92034562,17.02624069,,,,,,,,,,,,,,,,,,,,PF,weak,3,,,,,,,,7,0.771005,,,,,,,,,,,,,,,,,,,,,,,,,,,,3,weak,34,56,1,0,0,response1disk,8,76,9,11,1,0,0,rectangle,9,11,1,0,0,3,6,0.00022,9,11,1,0,0,0,75,75,3,1,0,,,,,,,,,,,,,,,,,,,,,
,,,,,,,,,,,,,,,,,,,,,,,,,,,,,,,,,,,,,,,,,,5fd77bb5246a37086f19c67c,6068421109aae45bf0593e17,2021-04-03_11h23.46.340,Colour_Similarity_Experiment,2020.2.10,Win32,60,60674ec340277cd6a308bc9f,17.92773537,17.02624069,16.94512766,17.12365559,16.92034562,17.02624069,,,,,,,,,,,,,,,,,,,,PF,strong,3,,,,,,,,7,1.24804,,,,,,,,,,,,,,,,,,,,,,,,,,,,7,strong,28,59,1,0,0,response1disk,9,77,1,4,1,0,0,rectangle,1,4,1,0,0,3,7,0.00713,1,4,1,0,0,0,76,76,155,1,0,,,,,,,,,,,,,,,,,,,,,
,,,,,,,,,,,,,,,,,,,,,,,,,,,,,,,,,,,,,,,,,,5fd77bb5246a37086f19c67c,6068421109aae45bf0593e17,2021-04-03_11h23.46.340,Colour_Similarity_Experiment,2020.2.10,Win32,60,60674ec340277cd6a308bc9f,17.92773537,17.02624069,16.94512766,17.12365559,16.92034562,17.02624069,,,,,,,,,,,,,,,,,,,,PF,strong,3,,,,,,,,7,0.808665,,,,,,,,,,,,,,,,,,,,,,,,,,,,5,strong,30,82,1,0,0,response1disk,9,78,-3,4,1,0,0,rectangle,-3,4,1,0,0,3,4,0.001475,-3,4,1,0,0,0,77,77,61,1,0,,,,,,,,,,,,,,,,,,,,,
,,,,,,,,,,,,,,,,,,,,,,,,,,,,,,,,,,,,,,,,,,5fd77bb5246a37086f19c67c,6068421109aae45bf0593e17,2021-04-03_11h23.46.340,Colour_Similarity_Experiment,2020.2.10,Win32,60,60674ec340277cd6a308bc9f,17.92773537,17.02624069,16.94512766,17.12365559,16.92034562,17.02624069,,,,,,,,,,,,,,,,,,,,PF,strong,3,,,,,,,,7,0.80644,,,,,,,,,,,,,,,,,,,,,,,,,,,,8,strong,35,73,1,0,0,response1disk,2,79,-9,-4,1,0,0,rectangle,-9,-4,1,0,0,3,6,0.00237,-9,-4,1,0,0,0,78,78,22,1,0,,,,,,,,,,,,,,,,,,,,,
,,,,,,,,,,,,,,,,,,,,,,,,,,,,,,,,,,,,,,,,,,5fd77bb5246a37086f19c67c,6068421109aae45bf0593e17,2021-04-03_11h23.46.340,Colour_Similarity_Experiment,2020.2.10,Win32,60,60674ec340277cd6a308bc9f,17.92773537,17.02624069,16.94512766,17.12365559,16.92034562,17.02624069,,,,,,,,,,,,,,,,,,,,PF,weak,3,,,,,,,,7,0.777005,,,,,,,,,,,,,,,,,,,,,,,,,,,,2,weak,36,65,1,0,0,response1disk,9,80,15,7,1,0,0,rectangle,15,7,1,0,0,3,0,0.00247,15,7,1,0,0,0,79,79,39,1,0,,,,,,,,,,,,,,,,,,,,,
,,,,,,,,,,,,,,,,,,,,,,,,,,,,,,,,,,,,,,,,,,5fd77bb5246a37086f19c67c,6068421109aae45bf0593e17,2021-04-03_11h23.46.340,Colour_Similarity_Experiment,2020.2.10,Win32,60,60674ec340277cd6a308bc9f,17.92773537,17.02624069,16.94512766,17.12365559,16.92034562,17.02624069,,,,,,,,,,,,,,,,,,,,PF,weak,3,,,,,,,,7,0.60276,,,,,,,,,,,,,,,,,,,,,,,,,,,,3,weak,32,67,1,0,0,response1disk,1,81,8,-7,1,0,0,rectangle,8,-7,1,0,0,3,4,0.00212,8,-7,1,0,0,0,80,80,96,1,0,,,,,,,,,,,,,,,,,,,,,
,,,,,,,,,,,,,,,,,,,,,,,,,,,,,,,,,,,,,,,,,,5fd77bb5246a37086f19c67c,6068421109aae45bf0593e17,2021-04-03_11h23.46.340,Colour_Similarity_Experiment,2020.2.10,Win32,60,60674ec340277cd6a308bc9f,17.92773537,17.02624069,16.94512766,17.12365559,16.92034562,17.02624069,,,,,,,,,,,,,,,,,,,,PF,strong,3,,,,,,,,3,1.984005,,,,,,,,,,,,,,,,,,,,,,,,,,,,6,strong,-24,-65,1,0,0,response5disk,5,82,10,6,1,0,0,rectangle,10,6,1,0,0,3,5,0.00279,10,6,1,0,0,0,81,81,126,1,0,,,,,,,,,,,,,,,,,,,,,
,,,,,,,,,,,,,,,,,,,,,,,,,,,,,,,,,,,,,,,,,,5fd77bb5246a37086f19c67c,6068421109aae45bf0593e17,2021-04-03_11h23.46.340,Colour_Similarity_Experiment,2020.2.10,Win32,60,60674ec340277cd6a308bc9f,17.92773537,17.02624069,16.94512766,17.12365559,16.92034562,17.02624069,,,,,,,,,,,,,,,,,,,,PF,weak,3,,,,,,,,7,1.444505,,,,,,,,,,,,,,,,,,,,,,,,,,,,5,weak,25,68,1,0,0,response1disk,9,83,6,-11,1,0,0,rectangle,78,29,1,0,0,6,6,1.439575,-5,8,1,0,0,0,82,82,136,1,1,response1disk_3,rectangle,,,,,,,,,,,,,,,,,,,
,,,,,,,,,,,,,,,,,,,,,,,,,,,,,,,,,,,,,,,,,,5fd77bb5246a37086f19c67c,6068421109aae45bf0593e17,2021-04-03_11h23.46.340,Colour_Similarity_Experiment,2020.2.10,Win32,60,60674ec340277cd6a308bc9f,17.92773537,17.02624069,16.94512766,17.12365559,16.92034562,17.02624069,,,,,,,,,,,,,,,,,,,,PF,weak,3,,,,,,,,4,1.700075,,,,,,,,,,,,,,,,,,,,,,,,,,,,4,weak,32,-66,1,0,0,response3disk,5,84,-11,-1,1,0,0,rectangle,-11,-1,1,0,0,6,7,0.00179,-11,-1,1,0,0,0,83,83,49,1,0,,,,,,,,,,,,,,,,,,,,,
,,,,,,,,,,,,,,,,,,,,,,,,,,,,,,,,,,,,,,,,,,5fd77bb5246a37086f19c67c,6068421109aae45bf0593e17,2021-04-03_11h23.46.340,Colour_Similarity_Experiment,2020.2.10,Win32,60,60674ec340277cd6a308bc9f,17.92773537,17.02624069,16.94512766,17.12365559,16.92034562,17.02624069,,,,,,,,,,,,,,,,,,,,PF,weak,3,,,,,,,,7,1.26626,,,,,,,,,,,,,,,,,,,,,,,,,,,,3,weak,38,60,1,0,0,response1disk,9,85,-14,1,1,0,0,rectangle,-14,1,1,0,0,6,4,0.00145,-14,1,1,0,0,0,84,84,79,1,0,,,,,,,,,,,,,,,,,,,,,
,,,,,,,,,,,,,,,,,,,,,,,,,,,,,,,,,,,,,,,,,,5fd77bb5246a37086f19c67c,6068421109aae45bf0593e17,2021-04-03_11h23.46.340,Colour_Similarity_Experiment,2020.2.10,Win32,60,60674ec340277cd6a308bc9f,17.92773537,17.02624069,16.94512766,17.12365559,16.92034562,17.02624069,,,,,,,,,,,,,,,,,,,,PF,weak,3,,,,,,,,7,1.017285,,,,,,,,,,,,,,,,,,,,,,,,,,,,2,weak,34,68,1,0,0,response1disk,7,86,-2,-1,1,0,0,rectangle,-2,-1,1,0,0,6,2,0.001475,-2,-1,1,0,0,0,85,85,107,1,0,,,,,,,,,,,,,,,,,,,,,
,,,,,,,,,,,,,,,,,,,,,,,,,,,,,,,,,,,,,,,,,,5fd77bb5246a37086f19c67c,6068421109aae45bf0593e17,2021-04-03_11h23.46.340,Colour_Similarity_Experiment,2020.2.10,Win32,60,60674ec340277cd6a308bc9f,17.92773537,17.02624069,16.94512766,17.12365559,16.92034562,17.02624069,,,,,,,,,,,,,,,,,,,,PF,weak,3,,,,,,,,7,0.75067,,,,,,,,,,,,,,,,,,,,,,,,,,,,4,weak,24,50,1,0,0,response1disk,8,87,-1,-10,1,0,0,rectangle,-1,-10,1,0,0,6,2,0.00023,-1,-10,1,0,0,0,86,86,124,1,0,,,,,,,,,,,,,,,,,,,,,
,,,,,,,,,,,,,,,,,,,,,,,,,,,,,,,,,,,,,,,,,,5fd77bb5246a37086f19c67c,6068421109aae45bf0593e17,2021-04-03_11h23.46.340,Colour_Similarity_Experiment,2020.2.10,Win32,60,60674ec340277cd6a308bc9f,17.92773537,17.02624069,16.94512766,17.12365559,16.92034562,17.02624069,,,,,,,,,,,,,,,,,,,,PF,weak,3,,,,,,,,7,0.99792,,,,,,,,,,,,,,,,,,,,,,,,,,,,3,weak,38,52,1,0,0,response1disk,2,88,6,12,1,0,0,rectangle,73,-36,1,0,0,5,5,1.8405,-2,4,1,0,0,0,87,87,36,1,1,response3disk_3,rectangle,,,,,,,,,,,,,,,,,,,
,,,,,,,,,,,,,,,,,,,,,,,,,,,,,,,,,,,,,,,,,,5fd77bb5246a37086f19c67c,6068421109aae45bf0593e17,2021-04-03_11h23.46.340,Colour_Similarity_Experiment,2020.2.10,Win32,60,60674ec340277cd6a308bc9f,17.92773537,17.02624069,16.94512766,17.12365559,16.92034562,17.02624069,,,,,,,,,,,,,,,,,,,,PF,strong,3,,,,,,,,7,0.83114,,,,,,,,,,,,,,,,,,,,,,,,,,,,7,strong,22,47,1,0,0,response1disk,3,89,8,10,1,0,0,rectangle,8,10,1,0,0,5,0,0.001435,8,10,1,0,0,0,88,88,73,1,0,,,,,,,,,,,,,,,,,,,,,
,,,,,,,,,,,,,,,,,,,,,,,,,,,,,,,,,,,,,,,,,,5fd77bb5246a37086f19c67c,6068421109aae45bf0593e17,2021-04-03_11h23.46.340,Colour_Similarity_Experiment,2020.2.10,Win32,60,60674ec340277cd6a308bc9f,17.92773537,17.02624069,16.94512766,17.12365559,16.92034562,17.02624069,,,,,,,,,,,,,,,,,,,,PF,strong,3,,,,,,,,5,2.26396,,,,,,,,,,,,,,,,,,,,,,,,,,,,4,strong,53,-39,1,0,0,response3disk,1,90,-21,5,1,0,0,rectangle,-21,5,1,0,0,5,1,0.00571,-21,5,1,0,0,0,89,89,102,1,0,,,,,,,,,,,,,,,,,,,,,
,,,,,,,,,,,,,,,,,,,,,,,,,,,,,,,,,,,,,,,,,,5fd77bb5246a37086f19c67c,6068421109aae45bf0593e17,2021-04-03_11h23.46.340,Colour_Similarity_Experiment,2020.2.10,Win32,60,60674ec340277cd6a308bc9f,17.92773537,17.02624069,16.94512766,17.12365559,16.92034562,17.02624069,,,,,,,,,,,,,,,,,,,,PF,weak,3,,,,,,,,7,1.03669,,,,,,,,,,,,,,,,,,,,,,,,,,,,4,weak,25,63,1,0,0,response1disk,9,91,1,3,1,0,0,rectangle,1,3,1,0,0,5,4,0.002545,1,3,1,0,0,0,90,90,75,1,0,,,,,,,,,,,,,,,,,,,,,
,,,,,,,,,,,,,,,,,,,,,,,,,,,,,,,,,,,,,,,,,,5fd77bb5246a37086f19c67c,6068421109aae45bf0593e17,2021-04-03_11h23.46.340,Colour_Similarity_Experiment,2020.2.10,Win32,60,60674ec340277cd6a308bc9f,17.92773537,17.02624069,16.94512766,17.12365559,16.92034562,17.02624069,,,,,,,,,,,,,,,,,,,,PF,weak,3,,,,,,,,4,2.199505,,,,,,,,,,,,,,,,,,,,,,,,,,,,9,weak,27,-45,1,0,0,response3disk,8,92,-4,-2,1,0,0,rectangle,-4,-2,1,0,0,5,7,0.00521,-4,-2,1,0,0,0,91,91,67,1,0,,,,,,,,,,,,,,,,,,,,,
,,,,,,,,,,,,,,,,,,,,,,,,,,,,,,,,,,,,,,,,,,5fd77bb5246a37086f19c67c,6068421109aae45bf0593e17,2021-04-03_11h23.46.340,Colour_Similarity_Experiment,2020.2.10,Win32,60,60674ec340277cd6a308bc9f,17.92773537,17.02624069,16.94512766,17.12365559,16.92034562,17.02624069,,,,,,,,,,,,,,,,,,,,PF,strong,3,,,,,,,,7,0.94594,,,,,,,,,,,,,,,,,,,,,,,,,,,,9,strong,30,54,1,0,0,response1disk,3,93,13,-6,1,0,0,rectangle,13,-6,1,0,0,5,6,0.00206,13,-6,1,0,0,0,92,92,141,1,0,,,,,,,,,,,,,,,,,,,,,
,,,,,,,,,,,,,,,,,,,,,,,,,,,,,,,,,,,,,,,,,,5fd77bb5246a37086f19c67c,6068421109aae45bf0593e17,2021-04-03_11h23.46.340,Colour_Similarity_Experiment,2020.2.10,Win32,60,60674ec340277cd6a308bc9f,17.92773537,17.02624069,16.94512766,17.12365559,16.92034562,17.02624069,,,,,,,,,,,,,,,,,,,,PF,strong,3,,,,,,,,4,1.894355,,,,,,,,,,,,,,,,,,,,,,,,,,,,8,strong,32,-52,1,0,0,response3disk,9,94,4,-11,1,0,0,rectangle,4,-11,1,0,0,5,6,0.00028,4,-11,1,0,0,0,93,93,105,1,0,,,,,,,,,,,,,,,,,,,,,
,,,,,,,,,,,,,,,,,,,,,,,,,,,,,,,,,,,,,,,,,,5fd77bb5246a37086f19c67c,6068421109aae45bf0593e17,2021-04-03_11h23.46.340,Colour_Similarity_Experiment,2020.2.10,Win32,60,60674ec340277cd6a308bc9f,17.92773537,17.02624069,16.94512766,17.12365559,16.92034562,17.02624069,,,,,,,,,,,,,,,,,,,,PF,strong,3,,,,,,,,7,0.91609,,,,,,,,,,,,,,,,,,,,,,,,,,,,4,strong,21,43,1,0,0,response1disk,7,95,8,11,1,0,0,rectangle,8,11,1,0,0,5,3,0.002735,8,11,1,0,0,0,94,94,87,1,0,,,,,,,,,,,,,,,,,,,,,
,,,,,,,,,,,,,,,,,,,,,,,,,,,,,,,,,,,,,,,,,,5fd77bb5246a37086f19c67c,6068421109aae45bf0593e17,2021-04-03_11h23.46.340,Colour_Similarity_Experiment,2020.2.10,Win32,60,60674ec340277cd6a308bc9f,17.92773537,17.02624069,16.94512766,17.12365559,16.92034562,17.02624069,,,,,,,,,,,,,,,,,,,,PF,strong,3,,,,,,,,5,2.90458,,,,,,,,,,,,,,,,,,,,,,,,,,,,4,strong,61,-26,1,0,0,response3disk,5,96,8,3,1,0,0,rectangle,8,3,1,0,0,5,2,0.00312,8,3,1,0,0,0,95,95,116,1,0,,,,,,,,,,,,,,,,,,,,,
,,,,,,,,,,,,,,,,,,,,,,,,,,,,,,,,,,,,,,,,,,5fd77bb5246a37086f19c67c,6068421109aae45bf0593e17,2021-04-03_11h23.46.340,Colour_Similarity_Experiment,2020.2.10,Win32,60,60674ec340277cd6a308bc9f,17.92773537,17.02624069,16.94512766,17.12365559,16.92034562,17.02624069,,,,,,,,,,,,,,,,,,,,PF,strong,3,,,,,,,,5,0.90686,,,,,,,,,,,,,,,,,,,,,,,,,,,,5,strong,54,-26,1,0,0,response3disk,4,97,13,-2,1,0,0,rectangle,13,-2,1,0,0,5,7,0.00287,13,-2,1,0,0,0,96,96,8,1,0,,,,,,,,,,,,,,,,,,,,,
,,,,,,,,,,,,,,,,,,,,,,,,,,,,,,,,,,,,,,,,,,5fd77bb5246a37086f19c67c,6068421109aae45bf0593e17,2021-04-03_11h23.46.340,Colour_Similarity_Experiment,2020.2.10,Win32,60,60674ec340277cd6a308bc9f,17.92773537,17.02624069,16.94512766,17.12365559,16.92034562,17.02624069,,,,,,,,,,,,,,,,,,,,PF,weak,3,,,,,,,,7,0.898275,,,,,,,,,,,,,,,,,,,,,,,,,,,,9,weak,43,70,1,0,0,response1disk,7,98,16,5,1,0,0,rectangle,16,5,1,0,0,5,6,0.00175,16,5,1,0,0,0,97,97,121,1,0,,,,,,,,,,,,,,,,,,,,,
,,,,,,,,,,,,,,,,,,,,,,,,,,,,,,,,,,,,,,,,,,5fd77bb5246a37086f19c67c,6068421109aae45bf0593e17,2021-04-03_11h23.46.340,Colour_Similarity_Experiment,2020.2.10,Win32,60,60674ec340277cd6a308bc9f,17.92773537,17.02624069,16.94512766,17.12365559,16.92034562,17.02624069,,,,,,,,,,,,,,,,,,,,PF,strong,3,,,,,,,,6,1.488295,,,,,,,,,,,,,,,,,,,,,,,,,,,,3,strong,50,26,1,0,0,response1disk,2,99,3,1,1,0,0,rectangle,3,1,1,0,0,5,5,0.003355,3,1,1,0,0,0,98,98,93,1,0,,,,,,,,,,,,,,,,,,,,,
,,,,,,,,,,,,,,,,,,,,,,,,,,,,,,,,,,,,,,,,,,5fd77bb5246a37086f19c67c,6068421109aae45bf0593e17,2021-04-03_11h23.46.340,Colour_Similarity_Experiment,2020.2.10,Win32,60,60674ec340277cd6a308bc9f,17.92773537,17.02624069,16.94512766,17.12365559,16.92034562,17.02624069,,,,,,,,,,,,,,,,,,,,PF,weak,3,,,,,,,,6,0.93798,,,,,,,,,,,,,,,,,,,,,,,,,,,,3,weak,50,35,1,0,0,response1disk,6,100,5,8,1,0,0,rectangle,5,8,1,0,0,5,2,0.005095,5,8,1,0,0,0,99,99,47,1,0,,,,,,,,,,,,,,,,,,,,,
,,,,,,,,,,,,,,,,,,,,,,,,,,,,,,,,,,,,,,,,,,5fd77bb5246a37086f19c67c,6068421109aae45bf0593e17,2021-04-03_11h23.46.340,Colour_Similarity_Experiment,2020.2.10,Win32,60,60674ec340277cd6a308bc9f,17.92773537,17.02624069,16.94512766,17.12365559,16.92034562,17.02624069,,,,,,,,,,,,,,,,,,,,PF,weak,3,,,,,,,,3,2.028175,,,,,,,,,,,,,,,,,,,,,,,,,,,,4,weak,-47,-54,1,0,0,response5disk,3,101,-13,-1,1,0,0,rectangle,-13,-1,1,0,0,5,6,0.00588,-13,-1,1,0,0,0,100,100,89,1,0,,,,,,,,,,,,,,,,,,,,,
,,,,,,,,,,,,,,,,,,,,,,,,,,,,,,,,,,,,,,,,,,5fd77bb5246a37086f19c67c,6068421109aae45bf0593e17,2021-04-03_11h23.46.340,Colour_Similarity_Experiment,2020.2.10,Win32,60,60674ec340277cd6a308bc9f,17.92773537,17.02624069,16.94512766,17.12365559,16.92034562,17.02624069,,,,,,,,,,,,,,,,,,,,PF,weak,3,,,,,,,,7,2.25671,,,,,,,,,,,,,,,,,,,,,,,,,,,,6,weak,28,50,1,0,0,response1disk,3,102,12,3,1,0,0,rectangle,12,3,1,0,0,5,0,0.003255,12,3,1,0,0,0,101,101,26,1,0,,,,,,,,,,,,,,,,,,,,,
,,,,,,,,,,,,,,,,,,,,,,,,,,,,,,,,,,,,,,,,,,5fd77bb5246a37086f19c67c,6068421109aae45bf0593e17,2021-04-03_11h23.46.340,Colour_Similarity_Experiment,2020.2.10,Win32,60,60674ec340277cd6a308bc9f,17.92773537,17.02624069,16.94512766,17.12365559,16.92034562,17.02624069,,,,,,,,,,,,,,,,,,,,PF,strong,3,,,,,,,,7,0.703405,,,,,,,,,,,,,,,,,,,,,,,,,,,,3,strong,27,37,1,0,0,response1disk,1,103,2,-5,1,0,0,rectangle,2,-5,1,0,0,5,7,0.00563,2,-5,1,0,0,0,102,102,125,1,0,,,,,,,,,,,,,,,,,,,,,
,,,,,,,,,,,,,,,,,,,,,,,,,,,,,,,,,,,,,,,,,,5fd77bb5246a37086f19c67c,6068421109aae45bf0593e17,2021-04-03_11h23.46.340,Colour_Similarity_Experiment,2020.2.10,Win32,60,60674ec340277cd6a308bc9f,17.92773537,17.02624069,16.94512766,17.12365559,16.92034562,17.02624069,,,,,,,,,,,,,,,,,,,,PF,weak,3,,,,,,,,7,0.664975,,,,,,,,,,,,,,,,,,,,,,,,,,,,7,weak,20,36,1,0,0,response1disk,9,104,5,10,1,0,0,rectangle,5,10,1,0,0,5,1,0.00211,5,10,1,0,0,0,103,103,10,1,0,,,,,,,,,,,,,,,,,,,,,
,,,,,,,,,,,,,,,,,,,,,,,,,,,,,,,,,,,,,,,,,,5fd77bb5246a37086f19c67c,6068421109aae45bf0593e17,2021-04-03_11h23.46.340,Colour_Similarity_Experiment,2020.2.10,Win32,60,60674ec340277cd6a308bc9f,17.92773537,17.02624069,16.94512766,17.12365559,16.92034562,17.02624069,,,,,,,,,,,,,,,,,,,,PF,strong,3,,,,,,,,4,1.59773,,,,,,,,,,,,,,,,,,,,,,,,,,,,8,strong,30,-42,1,0,0,response3disk,7,105,-4,2,1,0,0,rectangle,-4,2,1,0,0,5,3,0.00384,-4,2,1,0,0,0,104,104,86,1,0,,,,,,,,,,,,,,,,,,,,,
,,,,,,,,,,,,,,,,,,,,,,,,,,,,,,,,,,,,,,,,,,5fd77bb5246a37086f19c67c,6068421109aae45bf0593e17,2021-04-03_11h23.46.340,Colour_Similarity_Experiment,2020.2.10,Win32,60,60674ec340277cd6a308bc9f,17.92773537,17.02624069,16.94512766,17.12365559,16.92034562,17.02624069,,,,,,,,,,,,,,,,,,,,PF,weak,3,,,,,,,,7,0.78747,,,,,,,,,,,,,,,,,,,,,,,,,,,,1,weak,35,62,1,0,0,response1disk,4,106,15,1,1,0,0,rectangle,15,1,1,0,0,5,1,0.001755,15,1,1,0,0,0,105,105,139,1,0,,,,,,,,,,,,,,,,,,,,,
,,,,,,,,,,,,,,,,,,,,,,,,,,,,,,,,,,,,,,,,,,5fd77bb5246a37086f19c67c,6068421109aae45bf0593e17,2021-04-03_11h23.46.340,Colour_Similarity_Experiment,2020.2.10,Win32,60,60674ec340277cd6a308bc9f,17.92773537,17.02624069,16.94512766,17.12365559,16.92034562,17.02624069,,,,,,,,,,,,,,,,,,,,PF,weak,3,,,,,,,,2,2.14478,,,,,,,,,,,,,,,,,,,,,,,,,,,,3,weak,-77,-38,1,0,0,response5disk,4,107,12,-1,1,0,0,rectangle,12,-1,1,0,0,5,3,0.001665,12,-1,1,0,0,0,106,106,30,1,0,,,,,,,,,,,,,,,,,,,,,
,,,,,,,,,,,,,,,,,,,,,,,,,,,,,,,,,,,,,,,,,,5fd77bb5246a37086f19c67c,6068421109aae45bf0593e17,2021-04-03_11h23.46.340,Colour_Similarity_Experiment,2020.2.10,Win32,60,60674ec340277cd6a308bc9f,17.92773537,17.02624069,16.94512766,17.12365559,16.92034562,17.02624069,,,,,,,,,,,,,,,,,,,,PF,weak,3,,,,,,,,2,1.349755,,,,,,,,,,,,,,,,,,,,,,,,,,,,6,weak,-71,-26,1,0,0,response5disk,7,108,-2,1,1,0,0,rectangle,-2,1,1,0,0,5,2,0.006855,-2,1,1,0,0,0,107,107,50,1,0,,,,,,,,,,,,,,,,,,,,,
,,,,,,,,,,,,,,,,,,,,,,,,,,,,,,,,,,,,,,,,,,5fd77bb5246a37086f19c67c,6068421109aae45bf0593e17,2021-04-03_11h23.46.340,Colour_Similarity_Experiment,2020.2.10,Win32,60,60674ec340277cd6a308bc9f,17.92773537,17.02624069,16.94512766,17.12365559,16.92034562,17.02624069,,,,,,,,,,,,,,,,,,,,PF,strong,3,,,,,,,,0,1.070285,,,,,,,,,,,,,,,,,,,,,,,,,,,,7,strong,-42,53,1,0,0,response7disk,7,109,-24,8,1,0,0,rectangle,-24,8,1,0,0,5,1,0.0035,-24,8,1,0,0,0,108,108,34,1,0,,,,,,,,,,,,,,,,,,,,,
,,,,,,,,,,,,,,,,,,,,,,,,,,,,,,,,,,,,,,,,,,5fd77bb5246a37086f19c67c,6068421109aae45bf0593e17,2021-04-03_11h23.46.340,Colour_Similarity_Experiment,2020.2.10,Win32,60,60674ec340277cd6a308bc9f,17.92773537,17.02624069,16.94512766,17.12365559,16.92034562,17.02624069,,,,,,,,,,,,,,,,,,,,PF,strong,3,,,,,,,,7,0.80866,,,,,,,,,,,,,,,,,,,,,,,,,,,,4,strong,23,51,1,0,0,response1disk,8,110,-4,-4,1,0,0,rectangle,-4,-4,1,0,0,5,1,0.000145,-4,-4,1,0,0,0,109,109,35,1,0,,,,,,,,,,,,,,,,,,,,,
,,,,,,,,,,,,,,,,,,,,,,,,,,,,,,,,,,,,,,,,,,5fd77bb5246a37086f19c67c,6068421109aae45bf0593e17,2021-04-03_11h23.46.340,Colour_Similarity_Experiment,2020.2.10,Win32,60,60674ec340277cd6a308bc9f,17.92773537,17.02624069,16.94512766,17.12365559,16.92034562,17.02624069,,,,,,,,,,,,,,,,,,,,PF,weak,3,,,,,,,,7,0.861935,,,,,,,,,,,,,,,,,,,,,,,,,,,,5,weak,24,51,1,0,0,response1disk,2,111,4,7,1,0,0,rectangle,4,7,1,0,0,5,7,0.001375,4,7,1,0,0,0,110,110,129,1,0,,,,,,,,,,,,,,,,,,,,,
,,,,,,,,,,,,,,,,,,,,,,,,,,,,,,,,,,,,,,,,,,5fd77bb5246a37086f19c67c,6068421109aae45bf0593e17,2021-04-03_11h23.46.340,Colour_Similarity_Experiment,2020.2.10,Win32,60,60674ec340277cd6a308bc9f,17.92773537,17.02624069,16.94512766,17.12365559,16.92034562,17.02624069,,,,,,,,,,,,,,,,,,,,PF,weak,3,,,,,,,,7,0.73603,,,,,,,,,,,,,,,,,,,,,,,,,,,,8,weak,19,39,1,0,0,response1disk,6,112,6,6,1,0,0,rectangle,77,-30,1,0,0,5,5,1.407965,14,0,1,0,0,0,111,111,161,1,1,response3disk_3,rectangle,,,,,,,,,,,,,,,,,,,
,,,,,,,,,,,,,,,,,,,,,,,,,,,,,,,,,,,,,,,,,,5fd77bb5246a37086f19c67c,6068421109aae45bf0593e17,2021-04-03_11h23.46.340,Colour_Similarity_Experiment,2020.2.10,Win32,60,60674ec340277cd6a308bc9f,17.92773537,17.02624069,16.94512766,17.12365559,16.92034562,17.02624069,,,,,,,,,,,,,,,,,,,,PF,strong,3,,,,,,,,7,0.687955,,,,,,,,,,,,,,,,,,,,,,,,,,,,2,strong,23,40,1,0,0,response1disk,4,113,-7,3,1,0,0,rectangle,-7,3,1,0,0,5,5,0.00096,-7,3,1,0,0,0,112,112,145,1,0,,,,,,,,,,,,,,,,,,,,,
,,,,,,,,,,,,,,,,,,,,,,,,,,,,,,,,,,,,,,,,,,5fd77bb5246a37086f19c67c,6068421109aae45bf0593e17,2021-04-03_11h23.46.340,Colour_Similarity_Experiment,2020.2.10,Win32,60,60674ec340277cd6a308bc9f,17.92773537,17.02624069,16.94512766,17.12365559,16.92034562,17.02624069,,,,,,,,,,,,,,,,,,,,PF,weak,3,,,,,,,,5,1.206935,,,,,,,,,,,,,,,,,,,,,,,,,,,,7,weak,55,-29,1,0,0,response3disk,8,114,-9,-2,1,0,0,rectangle,-9,-2,1,0,0,5,3,0.001525,-9,-2,1,0,0,0,113,113,140,1,0,,,,,,,,,,,,,,,,,,,,,
,,,,,,,,,,,,,,,,,,,,,,,,,,,,,,,,,,,,,,,,,,5fd77bb5246a37086f19c67c,6068421109aae45bf0593e17,2021-04-03_11h23.46.340,Colour_Similarity_Experiment,2020.2.10,Win32,60,60674ec340277cd6a308bc9f,17.92773537,17.02624069,16.94512766,17.12365559,16.92034562,17.02624069,,,,,,,,,,,,,,,,,,,,PF,weak,3,,,,,,,,0,0.827065,,,,,,,,,,,,,,,,,,,,,,,,,,,,8,weak,-26,52,1,0,0,response7disk,8,115,-8,1,1,0,0,rectangle,-8,1,1,0,0,5,1,0.00314,-8,1,1,0,0,0,114,114,153,1,0,,,,,,,,,,,,,,,,,,,,,
,,,,,,,,,,,,,,,,,,,,,,,,,,,,,,,,,,,,,,,,,,5fd77bb5246a37086f19c67c,6068421109aae45bf0593e17,2021-04-03_11h23.46.340,Colour_Similarity_Experiment,2020.2.10,Win32,60,60674ec340277cd6a308bc9f,17.92773537,17.02624069,16.94512766,17.12365559,16.92034562,17.02624069,,,,,,,,,,,,,,,,,,,,PF,strong,3,,,,,,,,7,1.36214,,,,,,,,,,,,,,,,,,,,,,,,,,,,2,strong,28,45,1,0,0,response1disk,9,116,8,-1,1,0,0,rectangle,8,-1,1,0,0,5,5,0.001345,8,-1,1,0,0,0,115,115,72,1,0,,,,,,,,,,,,,,,,,,,,,
,,,,,,,,,,,,,,,,,,,,,,,,,,,,,,,,,,,,,,,,,,5fd77bb5246a37086f19c67c,6068421109aae45bf0593e17,2021-04-03_11h23.46.340,Colour_Similarity_Experiment,2020.2.10,Win32,60,60674ec340277cd6a308bc9f,17.92773537,17.02624069,16.94512766,17.12365559,16.92034562,17.02624069,,,,,,,,,,,,,,,,,,,,PF,strong,3,,,,,,,,7,0.646835,,,,,,,,,,,,,,,,,,,,,,,,,,,,3,strong,26,50,1,0,0,response1disk,8,117,14,-3,1,0,0,rectangle,14,-3,1,0,0,5,6,0.002405,14,-3,1,0,0,0,116,116,44,1,0,,,,,,,,,,,,,,,,,,,,,
,,,,,,,,,,,,,,,,,,,,,,,,,,,,,,,,,,,,,,,,,,5fd77bb5246a37086f19c67c,6068421109aae45bf0593e17,2021-04-03_11h23.46.340,Colour_Similarity_Experiment,2020.2.10,Win32,60,60674ec340277cd6a308bc9f,17.92773537,17.02624069,16.94512766,17.12365559,16.92034562,17.02624069,,,,,,,,,,,,,,,,,,,,PF,weak,3,,,,,,,,7,0.84595,,,,,,,,,,,,,,,,,,,,,,,,,,,,4,weak,22,41,1,0,0,response1disk,7,118,4,6,1,0,0,rectangle,4,6,1,0,0,5,5,0.002265,4,6,1,0,0,0,117,117,38,1,0,,,,,,,,,,,,,,,,,,,,,
,,,,,,,,,,,,,,,,,,,,,,,,,,,,,,,,,,,,,,,,,,5fd77bb5246a37086f19c67c,6068421109aae45bf0593e17,2021-04-03_11h23.46.340,Colour_Similarity_Experiment,2020.2.10,Win32,60,60674ec340277cd6a308bc9f,17.92773537,17.02624069,16.94512766,17.12365559,16.92034562,17.02624069,,,,,,,,,,,,,,,,,,,,PF,strong,3,,,,,,,,0,1.0977,,,,,,,,,,,,,,,,,,,,,,,,,,,,4,strong,-28,51,1,0,0,response7disk,4,119,8,-3,1,0,0,rectangle,8,-3,1,0,0,5,2,0.00292,8,-3,1,0,0,0,118,118,84,1,0,,,,,,,,,,,,,,,,,,,,,
,,,,,,,,,,,,,,,,,,,,,,,,,,,,,,,,,,,,,,,,,,5fd77bb5246a37086f19c67c,6068421109aae45bf0593e17,2021-04-03_11h23.46.340,Colour_Similarity_Experiment,2020.2.10,Win32,60,60674ec340277cd6a308bc9f,17.92773537,17.02624069,16.94512766,17.12365559,16.92034562,17.02624069,,,,,,,,,,,,,,,,,,,,PF,strong,3,,,,,,,,0,1.06287,,,,,,,,,,,,,,,,,,,,,,,,,,,,8,strong,-29,58,1,0,0,response7disk,8,120,-14,15,1,0,0,rectangle,-14,15,1,0,0,5,6,0.00191,-14,15,1,0,0,0,119,119,48,1,0,,,,,,,,,,,,,,,,,,,,,
,,,,,,,,,,,,,,,,,,,,,,,,,,,,,,,,,,,,,,,,,,5fd77bb5246a37086f19c67c,6068421109aae45bf0593e17,2021-04-03_11h23.46.340,Colour_Similarity_Experiment,2020.2.10,Win32,60,60674ec340277cd6a308bc9f,17.92773537,17.02624069,16.94512766,17.12365559,16.92034562,17.02624069,,,,,,,,,,,,,,,,,,,,PF,strong,3,,,,,,,,7,1.012035,,,,,,,,,,,,,,,,,,,,,,,,,,,,9,strong,25,47,1,0,0,response1disk,7,121,10,1,1,0,0,rectangle,10,1,1,0,0,5,4,0.002395,10,1,1,0,0,0,120,120,100,1,0,,,,,,,,,,,,,,,,,,,,,
,,,,,,,,,,,,,,,,,,,,,,,,,,,,,,,,,,,,,,,,,,5fd77bb5246a37086f19c67c,6068421109aae45bf0593e17,2021-04-03_11h23.46.340,Colour_Similarity_Experiment,2020.2.10,Win32,60,60674ec340277cd6a308bc9f,17.92773537,17.02624069,16.94512766,17.12365559,16.92034562,17.02624069,,,,,,,,,,,,,,,,,,,,PF,weak,3,,,,,,,,0,1.30354,,,,,,,,,,,,,,,,,,,,,,,,,,,,6,weak,-37,59,1,0,0,response7disk,4,122,1,-15,1,0,0,rectangle,1,-15,1,0,0,5,7,0.001345,1,-15,1,0,0,0,121,121,33,1,0,,,,,,,,,,,,,,,,,,,,,
,,,,,,,,,,,,,,,,,,,,,,,,,,,,,,,,,,,,,,,,,,5fd77bb5246a37086f19c67c,6068421109aae45bf0593e17,2021-04-03_11h23.46.340,Colour_Similarity_Experiment,2020.2.10,Win32,60,60674ec340277cd6a308bc9f,17.92773537,17.02624069,16.94512766,17.12365559,16.92034562,17.02624069,,,,,,,,,,,,,,,,,,,,PF,weak,3,,,,,,,,0,0.75605,,,,,,,,,,,,,,,,,,,,,,,,,,,,7,weak,-27,43,1,0,0,response7disk,2,123,-7,14,1,0,0,rectangle,-7,14,1,0,0,5,7,0.00016,-7,14,1,0,0,0,122,122,32,1,0,,,,,,,,,,,,,,,,,,,,,
,,,,,,,,,,,,,,,,,,,,,,,,,,,,,,,,,,,,,,,,,,5fd77bb5246a37086f19c67c,6068421109aae45bf0593e17,2021-04-03_11h23.46.340,Colour_Similarity_Experiment,2020.2.10,Win32,60,60674ec340277cd6a308bc9f,17.92773537,17.02624069,16.94512766,17.12365559,16.92034562,17.02624069,,,,,,,,,,,,,,,,,,,,PF,strong,3,,,,,,,,7,1.67178,,,,,,,,,,,,,,,,,,,,,,,,,,,,4,strong,26,45,1,0,0,response1disk,9,124,11,5,1,0,0,rectangle,11,5,1,0,0,5,2,0.005005,11,5,1,0,0,0,123,123,90,1,0,,,,,,,,,,,,,,,,,,,,,
,,,,,,,,,,,,,,,,,,,,,,,,,,,,,,,,,,,,,,,,,,5fd77bb5246a37086f19c67c,6068421109aae45bf0593e17,2021-04-03_11h23.46.340,Colour_Similarity_Experiment,2020.2.10,Win32,60,60674ec340277cd6a308bc9f,17.92773537,17.02624069,16.94512766,17.12365559,16.92034562,17.02624069,,,,,,,,,,,,,,,,,,,,PF,strong,3,,,,,,,,6,1.88121,,,,,,,,,,,,,,,,,,,,,,,,,,,,1,strong,56,27,1,0,0,response1disk,9,125,-8,5,1,0,0,rectangle,-8,5,1,0,0,5,7,0.004995,-8,5,1,0,0,0,124,124,123,1,0,,,,,,,,,,,,,,,,,,,,,
,,,,,,,,,,,,,,,,,,,,,,,,,,,,,,,,,,,,,,,,,,5fd77bb5246a37086f19c67c,6068421109aae45bf0593e17,2021-04-03_11h23.46.340,Colour_Similarity_Experiment,2020.2.10,Win32,60,60674ec340277cd6a308bc9f,17.92773537,17.02624069,16.94512766,17.12365559,16.92034562,17.02624069,,,,,,,,,,,,,,,,,,,,PF,strong,3,,,,,,,,7,0.74818,,,,,,,,,,,,,,,,,,,,,,,,,,,,8,strong,26,40,1,0,0,response1disk,5,126,7,9,1,0,0,rectangle,7,9,1,0,0,5,5,0.00152,7,9,1,0,0,0,125,125,152,1,0,,,,,,,,,,,,,,,,,,,,,
,,,,,,,,,,,,,,,,,,,,,,,,,,,,,,,,,,,,,,,,,,5fd77bb5246a37086f19c67c,6068421109aae45bf0593e17,2021-04-03_11h23.46.340,Colour_Similarity_Experiment,2020.2.10,Win32,60,60674ec340277cd6a308bc9f,17.92773537,17.02624069,16.94512766,17.12365559,16.92034562,17.02624069,,,,,,,,,,,,,,,,,,,,PF,strong,3,,,,,,,,3,2.020115,,,,,,,,,,,,,,,,,,,,,,,,,,,,7,strong,-43,-55,1,0,0,response5disk,6,127,-2,-12,1,0,0,rectangle,-2,-12,1,0,0,5,3,0.001775,-2,-12,1,0,0,0,126,126,31,1,0,,,,,,,,,,,,,,,,,,,,,
,,,,,,,,,,,,,,,,,,,,,,,,,,,,,,,,,,,,,,,,,,5fd77bb5246a37086f19c67c,6068421109aae45bf0593e17,2021-04-03_11h23.46.340,Colour_Similarity_Experiment,2020.2.10,Win32,60,60674ec340277cd6a308bc9f,17.92773537,17.02624069,16.94512766,17.12365559,16.92034562,17.02624069,,,,,,,,,,,,,,,,,,,,PF,weak,3,,,,,,,,7,0.720685,,,,,,,,,,,,,,,,,,,,,,,,,,,,3,weak,23,33,1,0,0,response1disk,7,128,4,4,1,0,0,rectangle,4,4,1,0,0,5,6,0.002705,4,4,1,0,0,0,127,127,41,1,0,,,,,,,,,,,,,,,,,,,,,
,,,,,,,,,,,,,,,,,,,,,,,,,,,,,,,,,,,,,,,,,,5fd77bb5246a37086f19c67c,6068421109aae45bf0593e17,2021-04-03_11h23.46.340,Colour_Similarity_Experiment,2020.2.10,Win32,60,60674ec340277cd6a308bc9f,17.92773537,17.02624069,16.94512766,17.12365559,16.92034562,17.02624069,,,,,,,,,,,,,,,,,,,,PF,strong,3,,,,,,,,0,0.94482,,,,,,,,,,,,,,,,,,,,,,,,,,,,6,strong,-31,51,1,0,0,response7disk,6,129,-3,-6,1,0,0,rectangle,-3,-6,1,0,0,5,0,0.00195,-3,-6,1,0,0,0,128,128,91,1,0,,,,,,,,,,,,,,,,,,,,,
,,,,,,,,,,,,,,,,,,,,,,,,,,,,,,,,,,,,,,,,,,5fd77bb5246a37086f19c67c,6068421109aae45bf0593e17,2021-04-03_11h23.46.340,Colour_Similarity_Experiment,2020.2.10,Win32,60,60674ec340277cd6a308bc9f,17.92773537,17.02624069,16.94512766,17.12365559,16.92034562,17.02624069,,,,,,,,,,,,,,,,,,,,PF,weak,3,,,,,,,,7,1.340335,,,,,,,,,,,,,,,,,,,,,,,,,,,,9,weak,28,41,1,0,0,response1disk,3,130,10,4,1,0,0,rectangle,10,4,1,0,0,5,6,0.00334,10,4,1,0,0,0,129,129,119,1,0,,,,,,,,,,,,,,,,,,,,,
,,,,,,,,,,,,,,,,,,,,,,,,,,,,,,,,,,,,,,,,,,5fd77bb5246a37086f19c67c,6068421109aae45bf0593e17,2021-04-03_11h23.46.340,Colour_Similarity_Experiment,2020.2.10,Win32,60,60674ec340277cd6a308bc9f,17.92773537,17.02624069,16.94512766,17.12365559,16.92034562,17.02624069,,,,,,,,,,,,,,,,,,,,PF,strong,3,,,,,,,,7,3.529475,,,,,,,,,,,,,,,,,,,,,,,,,,,,6,strong,21,43,1,0,0,response1disk,8,131,4,5,1,0,0,rectangle,4,5,1,0,0,5,4,0.00233,4,5,1,0,0,0,130,130,133,1,0,,,,,,,,,,,,,,,,,,,,,
,,,,,,,,,,,,,,,,,,,,,,,,,,,,,,,,,,,,,,,,,,5fd77bb5246a37086f19c67c,6068421109aae45bf0593e17,2021-04-03_11h23.46.340,Colour_Similarity_Experiment,2020.2.10,Win32,60,60674ec340277cd6a308bc9f,17.92773537,17.02624069,16.94512766,17.12365559,16.92034562,17.02624069,,,,,,,,,,,,,,,,,,,,PF,strong,3,,,,,,,,7,6.258635,,,,,,,,,,,,,,,,,,,,,,,,,,,,7,strong,23,45,1,0,0,response1disk,8,132,11,-3,1,0,0,rectangle,-23,83,1,0,0,0,0,1.656395,-1,0,1,0,0,0,131,131,97,1,1,response7disk_3,rectangle,,,,,,,,,,,,,,,,,,,
,,,,,,,,,,,,,,,,,,,,,,,,,,,,,,,,,,,,,,,,,,5fd77bb5246a37086f19c67c,6068421109aae45bf0593e17,2021-04-03_11h23.46.340,Colour_Similarity_Experiment,2020.2.10,Win32,60,60674ec340277cd6a308bc9f,17.92773537,17.02624069,16.94512766,17.12365559,16.92034562,17.02624069,,,,,,,,,,,,,,,,,,,,PF,weak,3,,,,,,,,6,1.761245,,,,,,,,,,,,,,,,,,,,,,,,,,,,6,weak,36,26,1,0,0,response1disk,8,133,-14,-2,1,0,0,rectangle,-14,-2,1,0,0,0,7,0.00186,-14,-2,1,0,0,0,132,132,64,1,0,,,,,,,,,,,,,,,,,,,,,
,,,,,,,,,,,,,,,,,,,,,,,,,,,,,,,,,,,,,,,,,,5fd77bb5246a37086f19c67c,6068421109aae45bf0593e17,2021-04-03_11h23.46.340,Colour_Similarity_Experiment,2020.2.10,Win32,60,60674ec340277cd6a308bc9f,17.92773537,17.02624069,16.94512766,17.12365559,16.92034562,17.02624069,,,,,,,,,,,,,,,,,,,,PF,strong,3,,,,,,,,2,1.30612,,,,,,,,,,,,,,,,,,,,,,,,,,,,5,strong,-73,-38,1,0,0,response5disk,6,134,-7,1,1,0,0,rectangle,-7,1,1,0,0,0,2,0.00383,-7,1,1,0,0,0,133,133,12,1,0,,,,,,,,,,,,,,,,,,,,,
,,,,,,,,,,,,,,,,,,,,,,,,,,,,,,,,,,,,,,,,,,5fd77bb5246a37086f19c67c,6068421109aae45bf0593e17,2021-04-03_11h23.46.340,Colour_Similarity_Experiment,2020.2.10,Win32,60,60674ec340277cd6a308bc9f,17.92773537,17.02624069,16.94512766,17.12365559,16.92034562,17.02624069,,,,,,,,,,,,,,,,,,,,PF,strong,3,,,,,,,,6,1.852155,,,,,,,,,,,,,,,,,,,,,,,,,,,,5,strong,55,24,1,0,0,response1disk,7,135,-17,-13,1,0,0,rectangle,-17,-13,1,0,0,0,5,0.002345,-17,-13,1,0,0,0,134,134,7,1,0,,,,,,,,,,,,,,,,,,,,,
,,,,,,,,,,,,,,,,,,,,,,,,,,,,,,,,,,,,,,,,,,5fd77bb5246a37086f19c67c,6068421109aae45bf0593e17,2021-04-03_11h23.46.340,Colour_Similarity_Experiment,2020.2.10,Win32,60,60674ec340277cd6a308bc9f,17.92773537,17.02624069,16.94512766,17.12365559,16.92034562,17.02624069,,,,,,,,,,,,,,,,,,,,PF,strong,3,,,,,,,,7,1.03616,,,,,,,,,,,,,,,,,,,,,,,,,,,,9,strong,25,51,1,0,0,response1disk,6,136,-7,8,1,0,0,rectangle,-7,8,1,0,0,0,5,0.0006,-7,8,1,0,0,0,135,135,117,1,0,,,,,,,,,,,,,,,,,,,,,
,,,,,,,,,,,,,,,,,,,,,,,,,,,,,,,,,,,,,,,,,,5fd77bb5246a37086f19c67c,6068421109aae45bf0593e17,2021-04-03_11h23.46.340,Colour_Similarity_Experiment,2020.2.10,Win32,60,60674ec340277cd6a308bc9f,17.92773537,17.02624069,16.94512766,17.12365559,16.92034562,17.02624069,,,,,,,,,,,,,,,,,,,,PF,weak,3,,,,,,,,7,1.099615,,,,,,,,,,,,,,,,,,,,,,,,,,,,2,weak,29,53,1,0,0,response1disk,8,137,-4,-5,1,0,0,rectangle,-4,-5,1,0,0,0,7,0.008815,-4,-5,1,0,0,0,136,136,52,1,0,,,,,,,,,,,,,,,,,,,,,
,,,,,,,,,,,,,,,,,,,,,,,,,,,,,,,,,,,,,,,,,,5fd77bb5246a37086f19c67c,6068421109aae45bf0593e17,2021-04-03_11h23.46.340,Colour_Similarity_Experiment,2020.2.10,Win32,60,60674ec340277cd6a308bc9f,17.92773537,17.02624069,16.94512766,17.12365559,16.92034562,17.02624069,,,,,,,,,,,,,,,,,,,,PF,strong,3,,,,,,,,7,0.921525,,,,,,,,,,,,,,,,,,,,,,,,,,,,5,strong,25,45,1,0,0,response1disk,1,138,-6,-4,1,0,0,rectangle,-6,-4,1,0,0,0,1,0.00229,-6,-4,1,0,0,0,137,137,131,1,0,,,,,,,,,,,,,,,,,,,,,
,,,,,,,,,,,,,,,,,,,,,,,,,,,,,,,,,,,,,,,,,,5fd77bb5246a37086f19c67c,6068421109aae45bf0593e17,2021-04-03_11h23.46.340,Colour_Similarity_Experiment,2020.2.10,Win32,60,60674ec340277cd6a308bc9f,17.92773537,17.02624069,16.94512766,17.12365559,16.92034562,17.02624069,,,,,,,,,,,,,,,,,,,,PF,weak,3,,,,,,,,7,1.155095,,,,,,,,,,,,,,,,,,,,,,,,,,,,8,weak,26,40,1,0,0,response1disk,5,139,0,-1,1,0,0,rectangle,0,-1,1,0,0,0,4,0.00328,0,-1,1,0,0,0,138,138,98,1,0,,,,,,,,,,,,,,,,,,,,,
,,,,,,,,,,,,,,,,,,,,,,,,,,,,,,,,,,,,,,,,,,5fd77bb5246a37086f19c67c,6068421109aae45bf0593e17,2021-04-03_11h23.46.340,Colour_Similarity_Experiment,2020.2.10,Win32,60,60674ec340277cd6a308bc9f,17.92773537,17.02624069,16.94512766,17.12365559,16.92034562,17.02624069,,,,,,,,,,,,,,,,,,,,PF,weak,3,,,,,,,,7,1.3748,,,,,,,,,,,,,,,,,,,,,,,,,,,,8,weak,29,48,1,0,0,response1disk,4,140,9,-1,1,0,0,rectangle,9,-1,1,0,0,0,1,0.00265,9,-1,1,0,0,0,139,139,78,1,0,,,,,,,,,,,,,,,,,,,,,
,,,,,,,,,,,,,,,,,,,,,,,,,,,,,,,,,,,,,,,,,,5fd77bb5246a37086f19c67c,6068421109aae45bf0593e17,2021-04-03_11h23.46.340,Colour_Similarity_Experiment,2020.2.10,Win32,60,60674ec340277cd6a308bc9f,17.92773537,17.02624069,16.94512766,17.12365559,16.92034562,17.02624069,,,,,,,,,,,,,,,,,,,,PF,weak,3,,,,,,,,3,1.346255,,,,,,,,,,,,,,,,,,,,,,,,,,,,5,weak,-26,-53,1,0,0,response5disk,6,141,-6,-8,1,0,0,rectangle,-6,-8,1,0,0,0,0,0.00267,-6,-8,1,0,0,0,140,140,103,1,0,,,,,,,,,,,,,,,,,,,,,
,,,,,,,,,,,,,,,,,,,,,,,,,,,,,,,,,,,,,,,,,,5fd77bb5246a37086f19c67c,6068421109aae45bf0593e17,2021-04-03_11h23.46.340,Colour_Similarity_Experiment,2020.2.10,Win32,60,60674ec340277cd6a308bc9f,17.92773537,17.02624069,16.94512766,17.12365559,16.92034562,17.02624069,,,,,,,,,,,,,,,,,,,,PF,strong,3,,,,,,,,5,1.620055,,,,,,,,,,,,,,,,,,,,,,,,,,,,2,strong,61,-23,1,0,0,response3disk,1,142,-9,2,1,0,0,rectangle,-9,2,1,0,0,0,5,0.001985,-9,2,1,0,0,0,141,141,85,1,0,,,,,,,,,,,,,,,,,,,,,
,,,,,,,,,,,,,,,,,,,,,,,,,,,,,,,,,,,,,,,,,,5fd77bb5246a37086f19c67c,6068421109aae45bf0593e17,2021-04-03_11h23.46.340,Colour_Similarity_Experiment,2020.2.10,Win32,60,60674ec340277cd6a308bc9f,17.92773537,17.02624069,16.94512766,17.12365559,16.92034562,17.02624069,,,,,,,,,,,,,,,,,,,,PF,strong,3,,,,,,,,6,1.39828,,,,,,,,,,,,,,,,,,,,,,,,,,,,5,strong,61,25,1,0,0,response1disk,3,143,1,0,1,0,0,rectangle,1,0,1,0,0,0,4,0.00146,1,0,1,0,0,0,142,142,25,1,0,,,,,,,,,,,,,,,,,,,,,
,,,,,,,,,,,,,,,,,,,,,,,,,,,,,,,,,,,,,,,,,,5fd77bb5246a37086f19c67c,6068421109aae45bf0593e17,2021-04-03_11h23.46.340,Colour_Similarity_Experiment,2020.2.10,Win32,60,60674ec340277cd6a308bc9f,17.92773537,17.02624069,16.94512766,17.12365559,16.92034562,17.02624069,,,,,,,,,,,,,,,,,,,,PF,weak,3,,,,,,,,7,1.119035,,,,,,,,,,,,,,,,,,,,,,,,,,,,2,weak,15,53,1,0,0,response1disk,5,144,-4,6,1,0,0,rectangle,-4,6,1,0,0,0,0,0.00181,-4,6,1,0,0,0,143,143,147,1,0,,,,,,,,,,,,,,,,,,,,,
,,,,,,,,,,,,,,,,,,,,,,,,,,,,,,,,,,,,,,,,,,5fd77bb5246a37086f19c67c,6068421109aae45bf0593e17,2021-04-03_11h23.46.340,Colour_Similarity_Experiment,2020.2.10,Win32,60,60674ec340277cd6a308bc9f,17.92773537,17.02624069,16.94512766,17.12365559,16.92034562,17.02624069,,,,,,,,,,,,,,,,,,,,PF,weak,3,,,,,,,,5,2.04044,,,,,,,,,,,,,,,,,,,,,,,,,,,,1,weak,79,-21,1,0,0,response3disk,9,145,12,-5,1,0,0,rectangle,12,-5,1,0,0,0,2,0.001295,12,-5,1,0,0,0,144,144,15,1,0,,,,,,,,,,,,,,,,,,,,,
,,,,,,,,,,,,,,,,,,,,,,,,,,,,,,,,,,,,,,,,,,5fd77bb5246a37086f19c67c,6068421109aae45bf0593e17,2021-04-03_11h23.46.340,Colour_Similarity_Experiment,2020.2.10,Win32,60,60674ec340277cd6a308bc9f,17.92773537,17.02624069,16.94512766,17.12365559,16.92034562,17.02624069,,,,,,,,,,,,,,,,,,,,PF,weak,3,,,,,,,,6,1.184385,,,,,,,,,,,,,,,,,,,,,,,,,,,,1,weak,59,28,1,0,0,response1disk,2,146,9,1,1,0,0,rectangle,9,1,1,0,0,0,6,0.002175,9,1,1,0,0,0,145,145,24,1,0,,,,,,,,,,,,,,,,,,,,,
,,,,,,,,,,,,,,,,,,,,,,,,,,,,,,,,,,,,,,,,,,5fd77bb5246a37086f19c67c,6068421109aae45bf0593e17,2021-04-03_11h23.46.340,Colour_Similarity_Experiment,2020.2.10,Win32,60,60674ec340277cd6a308bc9f,17.92773537,17.02624069,16.94512766,17.12365559,16.92034562,17.02624069,,,,,,,,,,,,,,,,,,,,PF,strong,3,,,,,,,,7,0.907125,,,,,,,,,,,,,,,,,,,,,,,,,,,,9,strong,33,57,1,0,0,response1disk,2,147,0,6,1,0,0,rectangle,77,33,1,0,0,6,6,1.4337,8,6,1,0,0,0,146,146,11,1,1,response1disk_3,rectangle,,,,,,,,,,,,,,,,,,,
,,,,,,,,,,,,,,,,,,,,,,,,,,,,,,,,,,,,,,,,,,5fd77bb5246a37086f19c67c,6068421109aae45bf0593e17,2021-04-03_11h23.46.340,Colour_Similarity_Experiment,2020.2.10,Win32,60,60674ec340277cd6a308bc9f,17.92773537,17.02624069,16.94512766,17.12365559,16.92034562,17.02624069,,,,,,,,,,,,,,,,,,,,PF,strong,3,,,,,,,,7,0.74991,,,,,,,,,,,,,,,,,,,,,,,,,,,,2,strong,24,59,1,0,0,response1disk,6,148,-6,-2,1,0,0,rectangle,-6,-2,1,0,0,6,2,0.00527,-6,-2,1,0,0,0,147,147,40,1,0,,,,,,,,,,,,,,,,,,,,,
,,,,,,,,,,,,,,,,,,,,,,,,,,,,,,,,,,,,,,,,,,5fd77bb5246a37086f19c67c,6068421109aae45bf0593e17,2021-04-03_11h23.46.340,Colour_Similarity_Experiment,2020.2.10,Win32,60,60674ec340277cd6a308bc9f,17.92773537,17.02624069,16.94512766,17.12365559,16.92034562,17.02624069,,,,,,,,,,,,,,,,,,,,PF,weak,3,,,,,,,,5,1.973565,,,,,,,,,,,,,,,,,,,,,,,,,,,,3,weak,54,-22,1,0,0,response3disk,5,149,9,-1,1,0,0,rectangle,9,-1,1,0,0,6,3,0.00442,9,-1,1,0,0,0,148,148,66,1,0,,,,,,,,,,,,,,,,,,,,,
,,,,,,,,,,,,,,,,,,,,,,,,,,,,,,,,,,,,,,,,,,5fd77bb5246a37086f19c67c,6068421109aae45bf0593e17,2021-04-03_11h23.46.340,Colour_Similarity_Experiment,2020.2.10,Win32,60,60674ec340277cd6a308bc9f,17.92773537,17.02624069,16.94512766,17.12365559,16.92034562,17.02624069,,,,,,,,,,,,,,,,,,,,PF,weak,3,,,,,,,,7,1.257115,,,,,,,,,,,,,,,,,,,,,,,,,,,,5,weak,28,57,1,0,0,response1disk,7,150,15,-13,1,0,0,rectangle,15,-13,1,0,0,6,3,0.0012,15,-13,1,0,0,0,149,149,146,1,0,,,,,,,,,,,,,,,,,,,,,
,,,,,,,,,,,,,,,,,,,,,,,,,,,,,,,,,,,,,,,,,,5fd77bb5246a37086f19c67c,6068421109aae45bf0593e17,2021-04-03_11h23.46.340,Colour_Similarity_Experiment,2020.2.10,Win32,60,60674ec340277cd6a308bc9f,17.92773537,17.02624069,16.94512766,17.12365559,16.92034562,17.02624069,,,,,,,,,,,,,,,,,,,,PF,strong,3,,,,,,,,6,1.48584,,,,,,,,,,,,,,,,,,,,,,,,,,,,8,strong,51,27,1,0,0,response1disk,6,151,21,-4,1,0,0,rectangle,21,-4,1,0,0,6,7,0.01103,21,-4,1,0,0,0,150,150,37,1,0,,,,,,,,,,,,,,,,,,,,,
,,,,,,,,,,,,,,,,,,,,,,,,,,,,,,,,,,,,,,,,,,5fd77bb5246a37086f19c67c,6068421109aae45bf0593e17,2021-04-03_11h23.46.340,Colour_Similarity_Experiment,2020.2.10,Win32,60,60674ec340277cd6a308bc9f,17.92773537,17.02624069,16.94512766,17.12365559,16.92034562,17.02624069,,,,,,,,,,,,,,,,,,,,PF,weak,3,,,,,,,,7,0.709585,,,,,,,,,,,,,,,,,,,,,,,,,,,,9,weak,22,40,1,0,0,response1disk,4,152,10,15,1,0,0,rectangle,10,15,1,0,0,6,1,0.002765,10,15,1,0,0,0,151,151,114,1,0,,,,,,,,,,,,,,,,,,,,,
,,,,,,,,,,,,,,,,,,,,,,,,,,,,,,,,,,,,,,,,,,5fd77bb5246a37086f19c67c,6068421109aae45bf0593e17,2021-04-03_11h23.46.340,Colour_Similarity_Experiment,2020.2.10,Win32,60,60674ec340277cd6a308bc9f,17.92773537,17.02624069,16.94512766,17.12365559,16.92034562,17.02624069,,,,,,,,,,,,,,,,,,,,PF,weak,3,,,,,,,,4,1.66843,,,,,,,,,,,,,,,,,,,,,,,,,,,,6,weak,38,-61,1,0,0,response3disk,5,153,12,-6,1,0,0,rectangle,12,-6,1,0,0,6,3,0.00172,12,-6,1,0,0,0,152,152,59,1,0,,,,,,,,,,,,,,,,,,,,,
,,,,,,,,,,,,,,,,,,,,,,,,,,,,,,,,,,,,,,,,,,5fd77bb5246a37086f19c67c,6068421109aae45bf0593e17,2021-04-03_11h23.46.340,Colour_Similarity_Experiment,2020.2.10,Win32,60,60674ec340277cd6a308bc9f,17.92773537,17.02624069,16.94512766,17.12365559,16.92034562,17.02624069,,,,,,,,,,,,,,,,,,,,PF,weak,3,,,,,,,,7,0.836665,,,,,,,,,,,,,,,,,,,,,,,,,,,,4,weak,25,41,1,0,0,response1disk,6,154,6,0,1,0,0,rectangle,6,0,1,0,0,6,1,0.00167,6,0,1,0,0,0,153,153,120,1,0,,,,,,,,,,,,,,,,,,,,,
,,,,,,,,,,,,,,,,,,,,,,,,,,,,,,,,,,,,,,,,,,5fd77bb5246a37086f19c67c,6068421109aae45bf0593e17,2021-04-03_11h23.46.340,Colour_Similarity_Experiment,2020.2.10,Win32,60,60674ec340277cd6a308bc9f,17.92773537,17.02624069,16.94512766,17.12365559,16.92034562,17.02624069,,,,,,,,,,,,,,,,,,,,PF,strong,3,,,,,,,,7,0.577585,,,,,,,,,,,,,,,,,,,,,,,,,,,,3,strong,22,37,1,0,0,response1disk,6,155,11,6,1,0,0,rectangle,11,6,1,0,0,6,4,0.0026,11,6,1,0,0,0,154,154,95,1,0,,,,,,,,,,,,,,,,,,,,,
,,,,,,,,,,,,,,,,,,,,,,,,,,,,,,,,,,,,,,,,,,5fd77bb5246a37086f19c67c,6068421109aae45bf0593e17,2021-04-03_11h23.46.340,Colour_Similarity_Experiment,2020.2.10,Win32,60,60674ec340277cd6a308bc9f,17.92773537,17.02624069,16.94512766,17.12365559,16.92034562,17.02624069,,,,,,,,,,,,,,,,,,,,PF,strong,3,,,,,,,,0,1.17964,,,,,,,,,,,,,,,,,,,,,,,,,,,,5,strong,-40,62,1,0,0,response7disk,5,156,18,-15,1,0,0,rectangle,18,-15,1,0,0,5,2,0.002985,18,-15,1,0,0,0,155,155,19,1,0,,,,,,,,,,,,,,,,,,,,,
,,,,,,,,,,,,,,,,,,,,,,,,,,,,,,,,,,,,,,,,,,5fd77bb5246a37086f19c67c,6068421109aae45bf0593e17,2021-04-03_11h23.46.340,Colour_Similarity_Experiment,2020.2.10,Win32,60,60674ec340277cd6a308bc9f,17.92773537,17.02624069,16.94512766,17.12365559,16.92034562,17.02624069,,,,,,,,,,,,,,,,,,,,PF,weak,3,,,,,,,,7,0.65329,,,,,,,,,,,,,,,,,,,,,,,,,,,,6,weak,25,57,1,0,0,response1disk,2,157,16,9,1,0,0,rectangle,16,9,1,0,0,5,5,0.002465,16,9,1,0,0,0,156,156,130,1,0,,,,,,,,,,,,,,,,,,,,,
,,,,,,,,,,,,,,,,,,,,,,,,,,,,,,,,,,,,,,,,,,5fd77bb5246a37086f19c67c,6068421109aae45bf0593e17,2021-04-03_11h23.46.340,Colour_Similarity_Experiment,2020.2.10,Win32,60,60674ec340277cd6a308bc9f,17.92773537,17.02624069,16.94512766,17.12365559,16.92034562,17.02624069,,,,,,,,,,,,,,,,,,,,PF,strong,3,,,,,,,,7,0.765325,,,,,,,,,,,,,,,,,,,,,,,,,,,,6,strong,21,42,1,0,0,response1disk,1,158,15,12,1,0,0,rectangle,15,12,1,0,0,5,2,0.00157,15,12,1,0,0,0,157,157,5,1,0,,,,,,,,,,,,,,,,,,,,,
,,,,,,,,,,,,,,,,,,,,,,,,,,,,,,,,,,,,,,,,,,5fd77bb5246a37086f19c67c,6068421109aae45bf0593e17,2021-04-03_11h23.46.340,Colour_Similarity_Experiment,2020.2.10,Win32,60,60674ec340277cd6a308bc9f,17.92773537,17.02624069,16.94512766,17.12365559,16.92034562,17.02624069,,,,,,,,,,,,,,,,,,,,PF,strong,3,,,,,,,,0,1.723295,,,,,,,,,,,,,,,,,,,,,,,,,,,,1,strong,-40,63,1,0,0,response7disk,1,159,7,-1,1,0,0,rectangle,7,-1,1,0,0,5,3,0.00279,7,-1,1,0,0,0,158,158,151,1,0,,,,,,,,,,,,,,,,,,,,,
,,,,,,,,,,,,,,,,,,,,,,,,,,,,,,,,,,,,,,,,,,5fd77bb5246a37086f19c67c,6068421109aae45bf0593e17,2021-04-03_11h23.46.340,Colour_Similarity_Experiment,2020.2.10,Win32,60,60674ec340277cd6a308bc9f,17.92773537,17.02624069,16.94512766,17.12365559,16.92034562,17.02624069,,,,,,,,,,,,,,,,,,,,PF,strong,3,,,,,,,,7,0.78365,,,,,,,,,,,,,,,,,,,,,,,,,,,,1,strong,27,35,1,0,0,response1disk,3,160,11,5,1,0,0,rectangle,11,5,1,0,0,5,2,0.00259,11,5,1,0,0,0,159,159,99,1,0,,,,,,,,,,,,,,,,,,,,,
,,,,,,,,,,,,,,,,,,,,,,,,,,,,,,,,,,,,,,,,,,5fd77bb5246a37086f19c67c,6068421109aae45bf0593e17,2021-04-03_11h23.46.340,Colour_Similarity_Experiment,2020.2.10,Win32,60,60674ec340277cd6a308bc9f,17.92773537,17.02624069,16.94512766,17.12365559,16.92034562,17.02624069,,,,,,,,,,,,,,,,,,,,PF,strong,3,,,,,,,,7,0.940875,,,,,,,,,,,,,,,,,,,,,,,,,,,,1,strong,24,44,1,0,0,response1disk,6,161,10,6,1,0,0,rectangle,10,6,1,0,0,5,4,0.00199,10,6,1,0,0,0,160,160,58,1,0,,,,,,,,,,,,,,,,,,,,,
,,,,,,,,,,,,,,,,,,,,,,,,,,,,,,,,,,,,,,,,,,5fd77bb5246a37086f19c67c,6068421109aae45bf0593e17,2021-04-03_11h23.46.340,Colour_Similarity_Experiment,2020.2.10,Win32,60,60674ec340277cd6a308bc9f,17.92773537,17.02624069,16.94512766,17.12365559,16.92034562,17.02624069,,,,,,,,,,,,,,,,,,,,PF,weak,3,,,,,,,,0,0.83264,,,,,,,,,,,,,,,,,,,,,,,,,,,,3,weak,-21,54,1,0,0,response7disk,3,162,17,0,1,0,0,rectangle,17,0,1,0,0,5,2,0.001765,17,0,1,0,0,0,161,161,4,1,0,,,,,,,,,,,,,,,,,,,,,
,,,,,,,,,,,,,,,,,,,,,,,,,,,,,,,,,,,,,,,,,,5fd77bb5246a37086f19c67c,6068421109aae45bf0593e17,2021-04-03_11h23.46.340,Colour_Similarity_Experiment,2020.2.10,Win32,60,60674ec340277cd6a308bc9f,17.92773537,17.02624069,16.94512766,17.12365559,16.92034562,17.02624069,,,,,,,,,,,,,,,,,,,,,,,,,,,,,,,,,,,,,,,,,,,,,,,,,,,,,,,,,,,,,,,,,,,,,,,,,,,,,,,,,,,,,,,,,,,,,,,,0,0,0,0,1,,,,,,,,,,,,,,
,,,,,,,,,,,,,,,,,,,,,,,,,,,,,,,,,,,,,,,,,,5fd77bb5246a37086f19c67c,6068421109aae45bf0593e17,2021-04-03_11h23.46.340,Colour_Similarity_Experiment,2020.2.10,Win32,60,60674ec340277cd6a308bc9f,17.92773537,17.02624069,16.94512766,17.12365559,16.92034562,17.02624069,,,,,,,,,,,,,,,,,,,,PF,weak,3,,,,,,,,7,0.62315,,,,,,,,,,,,,,,,,,,,,,,,,,,,2,weak,22,36,1,0,0,response1disk,3,163,16,8,1,0,0,rectangle,16,8,1,0,0,5,5,0.00248,16,8,1,0,0,0,0,0,69,1,0,,,,,,,,,,,,,,,,,,,,,
,,,,,,,,,,,,,,,,,,,,,,,,,,,,,,,,,,,,,,,,,,5fd77bb5246a37086f19c67c,6068421109aae45bf0593e17,2021-04-03_11h23.46.340,Colour_Similarity_Experiment,2020.2.10,Win32,60,60674ec340277cd6a308bc9f,17.92773537,17.02624069,16.94512766,17.12365559,16.92034562,17.02624069,,,,,,,,,,,,,,,,,,,,PF,strong,3,,,,,,,,3,2.182145,,,,,,,,,,,,,,,,,,,,,,,,,,,,3,strong,-37,-65,1,0,0,response5disk,4,164,3,6,1,0,0,rectangle,3,6,1,0,0,5,2,0.00693,3,6,1,0,0,0,1,1,110,1,0,,,,,,,,,,,,,,,,,,,,,
,,,,,,,,,,,,,,,,,,,,,,,,,,,,,,,,,,,,,,,,,,5fd77bb5246a37086f19c67c,6068421109aae45bf0593e17,2021-04-03_11h23.46.340,Colour_Similarity_Experiment,2020.2.10,Win32,60,60674ec340277cd6a308bc9f,17.92773537,17.02624069,16.94512766,17.12365559,16.92034562,17.02624069,,,,,,,,,,,,,,,,,,,,PF,weak,3,,,,,,,,7,0.846955,,,,,,,,,,,,,,,,,,,,,,,,,,,,2,weak,40,45,1,0,0,response1disk,6,165,21,-4,1,0,0,rectangle,21,-4,1,0,0,5,6,0.001725,21,-4,1,0,0,0,2,2,113,1,0,,,,,,,,,,,,,,,,,,,,,
,,,,,,,,,,,,,,,,,,,,,,,,,,,,,,,,,,,,,,,,,,5fd77bb5246a37086f19c67c,6068421109aae45bf0593e17,2021-04-03_11h23.46.340,Colour_Similarity_Experiment,2020.2.10,Win32,60,60674ec340277cd6a308bc9f,17.92773537,17.02624069,16.94512766,17.12365559,16.92034562,17.02624069,,,,,,,,,,,,,,,,,,,,PF,strong,3,,,,,,,,7,0.625595,,,,,,,,,,,,,,,,,,,,,,,,,,,,3,strong,22,44,1,0,0,response1disk,9,166,12,14,1,0,0,rectangle,12,14,1,0,0,5,4,0.01057,12,14,1,0,0,0,3,3,143,1,0,,,,,,,,,,,,,,,,,,,,,
,,,,,,,,,,,,,,,,,,,,,,,,,,,,,,,,,,,,,,,,,,5fd77bb5246a37086f19c67c,6068421109aae45bf0593e17,2021-04-03_11h23.46.340,Colour_Similarity_Experiment,2020.2.10,Win32,60,60674ec340277cd6a308bc9f,17.92773537,17.02624069,16.94512766,17.12365559,16.92034562,17.02624069,,,,,,,,,,,,,,,,,,,,PF,weak,3,,,,,,,,7,0.568875,,,,,,,,,,,,,,,,,,,,,,,,,,,,4,weak,29,41,1,0,0,response1disk,1,167,11,8,1,0,0,rectangle,11,8,1,0,0,5,7,0.004115,11,8,1,0,0,0,4,4,115,1,0,,,,,,,,,,,,,,,,,,,,,
,,,,,,,,,,,,,,,,,,,,,,,,,,,,,,,,,,,,,,,,,,5fd77bb5246a37086f19c67c,6068421109aae45bf0593e17,2021-04-03_11h23.46.340,Colour_Similarity_Experiment,2020.2.10,Win32,60,60674ec340277cd6a308bc9f,17.92773537,17.02624069,16.94512766,17.12365559,16.92034562,17.02624069,,,,,,,,,,,,,,,,,,,,PF,weak,3,,,,,,,,7,0.55545,,,,,,,,,,,,,,,,,,,,,,,,,,,,2,weak,17,35,1,0,0,response1disk,4,168,10,7,1,0,0,rectangle,10,7,1,0,0,5,1,0.004345,10,7,1,0,0,0,5,5,127,1,0,,,,,,,,,,,,,,,,,,,,,
,,,,,,,,,,,,,,,,,,,,,,,,,,,,,,,,,,,,,,,,,,5fd77bb5246a37086f19c67c,6068421109aae45bf0593e17,2021-04-03_11h23.46.340,Colour_Similarity_Experiment,2020.2.10,Win32,60,60674ec340277cd6a308bc9f,17.92773537,17.02624069,16.94512766,17.12365559,16.92034562,17.02624069,,,,,,,,,,,,,,,,,,,,PF,strong,3,,,,,,,,6,2.137075,,,,,,,,,,,,,,,,,,,,,,,,,,,,9,strong,57,21,1,0,0,response1disk,8,169,12,-6,1,0,0,rectangle,12,-6,1,0,0,5,6,0.002195,12,-6,1,0,0,0,6,6,6,1,0,,,,,,,,,,,,,,,,,,,,,
,,,,,,,,,,,,,,,,,,,,,,,,,,,,,,,,,,,,,,,,,,5fd77bb5246a37086f19c67c,6068421109aae45bf0593e17,2021-04-03_11h23.46.340,Colour_Similarity_Experiment,2020.2.10,Win32,60,60674ec340277cd6a308bc9f,17.92773537,17.02624069,16.94512766,17.12365559,16.92034562,17.02624069,,,,,,,,,,,,,,,,,,,,PF,strong,3,,,,,,,,4,1.6278,,,,,,,,,,,,,,,,,,,,,,,,,,,,3,strong,37,-53,1,0,0,response3disk,5,170,0,10,1,0,0,rectangle,0,10,1,0,0,5,4,0.003695,0,10,1,0,0,0,7,7,101,1,0,,,,,,,,,,,,,,,,,,,,,
,,,,,,,,,,,,,,,,,,,,,,,,,,,,,,,,,,,,,,,,,,5fd77bb5246a37086f19c67c,6068421109aae45bf0593e17,2021-04-03_11h23.46.340,Colour_Similarity_Experiment,2020.2.10,Win32,60,60674ec340277cd6a308bc9f,17.92773537,17.02624069,16.94512766,17.12365559,16.92034562,17.02624069,,,,,,,,,,,,,,,,,,,,PF,strong,3,,,,,,,,7,0.70984,,,,,,,,,,,,,,,,,,,,,,,,,,,,8,strong,19,37,1,0,0,response1disk,3,171,8,7,1,0,0,rectangle,8,7,1,0,0,5,0,0.00746,8,7,1,0,0,0,8,8,154,1,0,,,,,,,,,,,,,,,,,,,,,
,,,,,,,,,,,,,,,,,,,,,,,,,,,,,,,,,,,,,,,,,,5fd77bb5246a37086f19c67c,6068421109aae45bf0593e17,2021-04-03_11h23.46.340,Colour_Similarity_Experiment,2020.2.10,Win32,60,60674ec340277cd6a308bc9f,17.92773537,17.02624069,16.94512766,17.12365559,16.92034562,17.02624069,,,,,,,,,,,,,,,,,,,,PF,strong,3,,,,,,,,7,0.972295,,,,,,,,,,,,,,,,,,,,,,,,,,,,1,strong,22,47,1,0,0,response1disk,4,172,-2,8,1,0,0,rectangle,-2,8,1,0,0,5,1,0.00659,-2,8,1,0,0,0,9,9,135,1,0,,,,,,,,,,,,,,,,,,,,,
,,,,,,,,,,,,,,,,,,,,,,,,,,,,,,,,,,,,,,,,,,5fd77bb5246a37086f19c67c,6068421109aae45bf0593e17,2021-04-03_11h23.46.340,Colour_Similarity_Experiment,2020.2.10,Win32,60,60674ec340277cd6a308bc9f,17.92773537,17.02624069,16.94512766,17.12365559,16.92034562,17.02624069,,,,,,,,,,,,,,,,,,,,PF,weak,3,,,,,,,,0,0.706895,,,,,,,,,,,,,,,,,,,,,,,,,,,,4,weak,-32,56,1,0,0,response7disk,4,173,-9,8,1,0,0,rectangle,-9,8,1,0,0,5,5,0.00379,-9,8,1,0,0,0,10,10,70,1,0,,,,,,,,,,,,,,,,,,,,,
,,,,,,,,,,,,,,,,,,,,,,,,,,,,,,,,,,,,,,,,,,5fd77bb5246a37086f19c67c,6068421109aae45bf0593e17,2021-04-03_11h23.46.340,Colour_Similarity_Experiment,2020.2.10,Win32,60,60674ec340277cd6a308bc9f,17.92773537,17.02624069,16.94512766,17.12365559,16.92034562,17.02624069,,,,,,,,,,,,,,,,,,,,PF,strong,3,,,,,,,,3,1.68029,,,,,,,,,,,,,,,,,,,,,,,,,,,,4,strong,-32,-55,1,0,0,response5disk,3,174,-11,3,1,0,0,rectangle,-11,3,1,0,0,5,1,0.001995,-11,3,1,0,0,0,11,11,77,1,0,,,,,,,,,,,,,,,,,,,,,
,,,,,,,,,,,,,,,,,,,,,,,,,,,,,,,,,,,,,,,,,,5fd77bb5246a37086f19c67c,6068421109aae45bf0593e17,2021-04-03_11h23.46.340,Colour_Similarity_Experiment,2020.2.10,Win32,60,60674ec340277cd6a308bc9f,17.92773537,17.02624069,16.94512766,17.12365559,16.92034562,17.02624069,,,,,,,,,,,,,,,,,,,,PF,weak,3,,,,,,,,6,1.698615,,,,,,,,,,,,,,,,,,,,,,,,,,,,7,weak,48,27,1,0,0,response1disk,5,175,-4,5,1,0,0,rectangle,-4,5,1,0,0,5,2,0.002375,-4,5,1,0,0,0,12,12,92,1,0,,,,,,,,,,,,,,,,,,,,,
,,,,,,,,,,,,,,,,,,,,,,,,,,,,,,,,,,,,,,,,,,5fd77bb5246a37086f19c67c,6068421109aae45bf0593e17,2021-04-03_11h23.46.340,Colour_Similarity_Experiment,2020.2.10,Win32,60,60674ec340277cd6a308bc9f,17.92773537,17.02624069,16.94512766,17.12365559,16.92034562,17.02624069,,,,,,,,,,,,,,,,,,,,PF,strong,3,,,,,,,,7,0.779495,,,,,,,,,,,,,,,,,,,,,,,,,,,,5,strong,23,43,1,0,0,response1disk,8,176,1,13,1,0,0,rectangle,1,13,1,0,0,5,1,0.00214,1,13,1,0,0,0,13,13,16,1,0,,,,,,,,,,,,,,,,,,,,,
,,,,,,,,,,,,,,,,,,,,,,,,,,,,,,,,,,,,,,,,,,5fd77bb5246a37086f19c67c,6068421109aae45bf0593e17,2021-04-03_11h23.46.340,Colour_Similarity_Experiment,2020.2.10,Win32,60,60674ec340277cd6a308bc9f,17.92773537,17.02624069,16.94512766,17.12365559,16.92034562,17.02624069,,,,,,,,,,,,,,,,,,,,PF,strong,3,,,,,,,,7,0.887035,,,,,,,,,,,,,,,,,,,,,,,,,,,,6,strong,23,39,1,0,0,response1disk,3,177,4,1,1,0,0,rectangle,4,1,1,0,0,5,6,0.0013,4,1,1,0,0,0,14,14,21,1,0,,,,,,,,,,,,,,,,,,,,,
,,,,,,,,,,,,,,,,,,,,,,,,,,,,,,,,,,,,,,,,,,5fd77bb5246a37086f19c67c,6068421109aae45bf0593e17,2021-04-03_11h23.46.340,Colour_Similarity_Experiment,2020.2.10,Win32,60,60674ec340277cd6a308bc9f,17.92773537,17.02624069,16.94512766,17.12365559,16.92034562,17.02624069,,,,,,,,,,,,,,,,,,,,PF,weak,3,,,,,,,,0,0.867155,,,,,,,,,,,,,,,,,,,,,,,,,,,,5,weak,-28,51,1,0,0,response7disk,5,178,-11,15,1,0,0,rectangle,-11,15,1,0,0,5,1,0.00188,-11,15,1,0,0,0,15,15,94,1,0,,,,,,,,,,,,,,,,,,,,,
,,,,,,,,,,,,,,,,,,,,,,,,,,,,,,,,,,,,,,,,,,5fd77bb5246a37086f19c67c,6068421109aae45bf0593e17,2021-04-03_11h23.46.340,Colour_Similarity_Experiment,2020.2.10,Win32,60,60674ec340277cd6a308bc9f,17.92773537,17.02624069,16.94512766,17.12365559,16.92034562,17.02624069,,,,,,,,,,,,,,,,,,,,PF,strong,3,,,,,,,,6,1.417645,,,,,,,,,,,,,,,,,,,,,,,,,,,,7,strong,48,26,1,0,0,response1disk,5,179,15,-12,1,0,0,rectangle,15,-12,1,0,0,5,0,0.002375,15,-12,1,0,0,0,16,16,156,1,0,,,,,,,,,,,,,,,,,,,,,
,,,,,,,,,,,,,,,,,,,,,,,,,,,,,,,,,,,,,,,,,,5fd77bb5246a37086f19c67c,6068421109aae45bf0593e17,2021-04-03_11h23.46.340,Colour_Similarity_Experiment,2020.2.10,Win32,60,60674ec340277cd6a308bc9f,17.92773537,17.02624069,16.94512766,17.12365559,16.92034562,17.02624069,,,,,,,,,,,,,,,,,,,,PF,strong,3,,,,,,,,7,1.223015,,,,,,,,,,,,,,,,,,,,,,,,,,,,8,strong,21,59,1,0,0,response1disk,4,180,1,-13,1,0,0,rectangle,1,-13,1,0,0,5,3,0.00198,1,-13,1,0,0,0,17,17,88,1,0,,,,,,,,,,,,,,,,,,,,,
,,,,,,,,,,,,,,,,,,,,,,,,,,,,,,,,,,,,,,,,,,5fd77bb5246a37086f19c67c,6068421109aae45bf0593e17,2021-04-03_11h23.46.340,Colour_Similarity_Experiment,2020.2.10,Win32,60,60674ec340277cd6a308bc9f,17.92773537,17.02624069,16.94512766,17.12365559,16.92034562,17.02624069,,,,,,,,,,,,,,,,,,,,PF,strong,3,,,,,,,,7,0.75952,,,,,,,,,,,,,,,,,,,,,,,,,,,,3,strong,21,34,1,0,0,response1disk,7,181,3,9,1,0,0,rectangle,3,9,1,0,0,5,1,0.00457,3,9,1,0,0,0,18,18,118,1,0,,,,,,,,,,,,,,,,,,,,,
,,,,,,,,,,,,,,,,,,,,,,,,,,,,,,,,,,,,,,,,,,5fd77bb5246a37086f19c67c,6068421109aae45bf0593e17,2021-04-03_11h23.46.340,Colour_Similarity_Experiment,2020.2.10,Win32,60,60674ec340277cd6a308bc9f,17.92773537,17.02624069,16.94512766,17.12365559,16.92034562,17.02624069,,,,,,,,,,,,,,,,,,,,PF,strong,3,,,,,,,,6,1.334805,,,,,,,,,,,,,,,,,,,,,,,,,,,,1,strong,37,25,1,0,0,response1disk,2,182,3,-1,1,0,0,rectangle,3,-1,1,0,0,5,1,0.00022,3,-1,1,0,0,0,19,19,2,1,0,,,,,,,,,,,,,,,,,,,,,
,,,,,,,,,,,,,,,,,,,,,,,,,,,,,,,,,,,,,,,,,,5fd77bb5246a37086f19c67c,6068421109aae45bf0593e17,2021-04-03_11h23.46.340,Colour_Similarity_Experiment,2020.2.10,Win32,60,60674ec340277cd6a308bc9f,17.92773537,17.02624069,16.94512766,17.12365559,16.92034562,17.02624069,,,,,,,,,,,,,,,,,,,,PF,weak,3,,,,,,,,0,0.932885,,,,,,,,,,,,,,,,,,,,,,,,,,,,9,weak,-36,49,1,0,0,response7disk,9,183,2,11,1,0,0,rectangle,2,11,1,0,0,5,1,0.00018,2,11,1,0,0,0,20,20,106,1,0,,,,,,,,,,,,,,,,,,,,,
,,,,,,,,,,,,,,,,,,,,,,,,,,,,,,,,,,,,,,,,,,5fd77bb5246a37086f19c67c,6068421109aae45bf0593e17,2021-04-03_11h23.46.340,Colour_Similarity_Experiment,2020.2.10,Win32,60,60674ec340277cd6a308bc9f,17.92773537,17.02624069,16.94512766,17.12365559,16.92034562,17.02624069,,,,,,,,,,,,,,,,,,,,PF,strong,3,,,,,,,,7,2.297785,,,,,,,,,,,,,,,,,,,,,,,,,,,,1,strong,27,42,1,0,0,response1disk,8,184,6,8,1,0,0,rectangle,6,8,1,0,0,5,0,0.00229,6,8,1,0,0,0,21,21,27,1,0,,,,,,,,,,,,,,,,,,,,,
,,,,,,,,,,,,,,,,,,,,,,,,,,,,,,,,,,,,,,,,,,5fd77bb5246a37086f19c67c,6068421109aae45bf0593e17,2021-04-03_11h23.46.340,Colour_Similarity_Experiment,2020.2.10,Win32,60,60674ec340277cd6a308bc9f,17.92773537,17.02624069,16.94512766,17.12365559,16.92034562,17.02624069,,,,,,,,,,,,,,,,,,,,PF,weak,3,,,,,,,,7,0.833305,,,,,,,,,,,,,,,,,,,,,,,,,,,,6,weak,26,43,1,0,0,response1disk,1,185,-5,1,1,0,0,rectangle,-5,1,1,0,0,5,7,0.006005,-5,1,1,0,0,0,22,22,46,1,0,,,,,,,,,,,,,,,,,,,,,
,,,,,,,,,,,,,,,,,,,,,,,,,,,,,,,,,,,,,,,,,,5fd77bb5246a37086f19c67c,6068421109aae45bf0593e17,2021-04-03_11h23.46.340,Colour_Similarity_Experiment,2020.2.10,Win32,60,60674ec340277cd6a308bc9f,17.92773537,17.02624069,16.94512766,17.12365559,16.92034562,17.02624069,,,,,,,,,,,,,,,,,,,,PF,weak,3,,,,,,,,7,0.78293,,,,,,,,,,,,,,,,,,,,,,,,,,,,1,weak,22,35,1,0,0,response1disk,6,186,11,4,1,0,0,rectangle,11,4,1,0,0,5,6,0.001475,11,4,1,0,0,0,23,23,144,1,0,,,,,,,,,,,,,,,,,,,,,
,,,,,,,,,,,,,,,,,,,,,,,,,,,,,,,,,,,,,,,,,,5fd77bb5246a37086f19c67c,6068421109aae45bf0593e17,2021-04-03_11h23.46.340,Colour_Similarity_Experiment,2020.2.10,Win32,60,60674ec340277cd6a308bc9f,17.92773537,17.02624069,16.94512766,17.12365559,16.92034562,17.02624069,,,,,,,,,,,,,,,,,,,,PF,strong,3,,,,,,,,7,1.09673,,,,,,,,,,,,,,,,,,,,,,,,,,,,8,strong,25,33,1,0,0,response1disk,1,187,19,15,1,0,0,rectangle,19,15,1,0,0,6,4,0.0027,19,15,1,0,0,0,24,24,20,1,0,,,,,,,,,,,,,,,,,,,,,
,,,,,,,,,,,,,,,,,,,,,,,,,,,,,,,,,,,,,,,,,,5fd77bb5246a37086f19c67c,6068421109aae45bf0593e17,2021-04-03_11h23.46.340,Colour_Similarity_Experiment,2020.2.10,Win32,60,60674ec340277cd6a308bc9f,17.92773537,17.02624069,16.94512766,17.12365559,16.92034562,17.02624069,,,,,,,,,,,,,,,,,,,,PF,weak,3,,,,,,,,7,0.77243,,,,,,,,,,,,,,,,,,,,,,,,,,,,8,weak,26,35,1,0,0,response1disk,7,188,12,13,1,0,0,rectangle,12,13,1,0,0,6,3,0.001705,12,13,1,0,0,0,25,25,23,1,0,,,,,,,,,,,,,,,,,,,,,
,,,,,,,,,,,,,,,,,,,,,,,,,,,,,,,,,,,,,,,,,,5fd77bb5246a37086f19c67c,6068421109aae45bf0593e17,2021-04-03_11h23.46.340,Colour_Similarity_Experiment,2020.2.10,Win32,60,60674ec340277cd6a308bc9f,17.92773537,17.02624069,16.94512766,17.12365559,16.92034562,17.02624069,,,,,,,,,,,,,,,,,,,,PF,strong,3,,,,,,,,7,0.670665,,,,,,,,,,,,,,,,,,,,,,,,,,,,2,strong,23,34,1,0,0,response1disk,5,189,10,3,1,0,0,rectangle,10,3,1,0,0,6,6,0.001995,10,3,1,0,0,0,26,26,80,1,0,,,,,,,,,,,,,,,,,,,,,
,,,,,,,,,,,,,,,,,,,,,,,,,,,,,,,,,,,,,,,,,,5fd77bb5246a37086f19c67c,6068421109aae45bf0593e17,2021-04-03_11h23.46.340,Colour_Similarity_Experiment,2020.2.10,Win32,60,60674ec340277cd6a308bc9f,17.92773537,17.02624069,16.94512766,17.12365559,16.92034562,17.02624069,,,,,,,,,,,,,,,,,,,,PF,weak,3,,,,,,,,7,0.55821,,,,,,,,,,,,,,,,,,,,,,,,,,,,8,weak,27,33,1,0,0,response1disk,3,190,15,11,1,0,0,rectangle,15,11,1,0,0,6,7,0.00226,15,11,1,0,0,0,27,27,71,1,0,,,,,,,,,,,,,,,,,,,,,
,,,,,,,,,,,,,,,,,,,,,,,,,,,,,,,,,,,,,,,,,,5fd77bb5246a37086f19c67c,6068421109aae45bf0593e17,2021-04-03_11h23.46.340,Colour_Similarity_Experiment,2020.2.10,Win32,60,60674ec340277cd6a308bc9f,17.92773537,17.02624069,16.94512766,17.12365559,16.92034562,17.02624069,,,,,,,,,,,,,,,,,,,,PF,weak,3,,,,,,,,6,1.05483,,,,,,,,,,,,,,,,,,,,,,,,,,,,8,weak,51,25,1,0,0,response1disk,9,191,-4,-1,1,0,0,rectangle,-4,-1,1,0,0,6,4,0.002845,-4,-1,1,0,0,0,28,28,42,1,0,,,,,,,,,,,,,,,,,,,,,
,,,,,,,,,,,,,,,,,,,,,,,,,,,,,,,,,,,,,,,,,,5fd77bb5246a37086f19c67c,6068421109aae45bf0593e17,2021-04-03_11h23.46.340,Colour_Similarity_Experiment,2020.2.10,Win32,60,60674ec340277cd6a308bc9f,17.92773537,17.02624069,16.94512766,17.12365559,16.92034562,17.02624069,,,,,,,,,,,,,,,,,,,,PF,strong,3,,,,,,,,7,0.97501,,,,,,,,,,,,,,,,,,,,,,,,,,,,7,strong,31,42,1,0,0,response1disk,4,192,7,6,1,0,0,rectangle,7,6,1,0,0,6,3,0.00144,7,6,1,0,0,0,29,29,158,1,0,,,,,,,,,,,,,,,,,,,,,
,,,,,,,,,,,,,,,,,,,,,,,,,,,,,,,,,,,,,,,,,,5fd77bb5246a37086f19c67c,6068421109aae45bf0593e17,2021-04-03_11h23.46.340,Colour_Similarity_Experiment,2020.2.10,Win32,60,60674ec340277cd6a308bc9f,17.92773537,17.02624069,16.94512766,17.12365559,16.92034562,17.02624069,,,,,,,,,,,,,,,,,,,,PF,strong,3,,,,,,,,7,0.964235,,,,,,,,,,,,,,,,,,,,,,,,,,,,2,strong,26,46,1,0,0,response1disk,3,193,1,5,1,0,0,rectangle,73,-28,1,0,0,5,5,1.441965,-4,12,1,0,0,0,30,30,104,1,1,response3disk_3,rectangle,,,,,,,,,,,,,,,,,,,
,,,,,,,,,,,,,,,,,,,,,,,,,,,,,,,,,,,,,,,,,,5fd77bb5246a37086f19c67c,6068421109aae45bf0593e17,2021-04-03_11h23.46.340,Colour_Similarity_Experiment,2020.2.10,Win32,60,60674ec340277cd6a308bc9f,17.92773537,17.02624069,16.94512766,17.12365559,16.92034562,17.02624069,,,,,,,,,,,,,,,,,,,,PF,strong,3,,,,,,,,7,0.649765,,,,,,,,,,,,,,,,,,,,,,,,,,,,2,strong,29,52,1,0,0,response1disk,8,194,6,-1,1,0,0,rectangle,6,-1,1,0,0,5,1,0.00181,6,-1,1,0,0,0,31,31,62,1,0,,,,,,,,,,,,,,,,,,,,,
,,,,,,,,,,,,,,,,,,,,,,,,,,,,,,,,,,,,,,,,,,5fd77bb5246a37086f19c67c,6068421109aae45bf0593e17,2021-04-03_11h23.46.340,Colour_Similarity_Experiment,2020.2.10,Win32,60,60674ec340277cd6a308bc9f,17.92773537,17.02624069,16.94512766,17.12365559,16.92034562,17.02624069,,,,,,,,,,,,,,,,,,,,PF,weak,3,,,,,,,,7,0.57267,,,,,,,,,,,,,,,,,,,,,,,,,,,,4,weak,28,40,1,0,0,response1disk,2,195,2,12,1,0,0,rectangle,2,12,1,0,0,5,1,0.001675,2,12,1,0,0,0,32,32,108,1,0,,,,,,,,,,,,,,,,,,,,,
