key_resp.keys,key_resp.rt,key_resp_16.keys,key_resp_16.rt,key_resp_2.keys,key_resp_2.rt,X Scale,ratio_pxpermm,screen_size_x,screen_size_y,testsize,key_resp_3.keys,key_resp_4.keys,key_resp_4.rt,line_size,key_resp_5.keys,key_resp_5.rt,key_resp_6.keys,key_resp_6.rt,key_resp_8.keys,key_resp_8.rt,key_resp_7.keys,key_resp_7.rt,key_resp_12.keys,key_resp_12.rt,key_resp_11.keys,key_resp_11.rt,key_resp_18.keys,key_resp_18.rt,key_resp_21.keys,key_resp_21.rt,key_resp_13.keys,key_resp_13.rt,key_resp_19.keys,key_resp_19.rt,ballposx,viewer_distance,trials.thisRepN,trials.thisTrialN,trials.thisN,trials.thisIndex,trials.ran,participant,session,date,expName,psychopyVersion,OS,frameRate,study_id,realFrameRate1,realFrameRate2,realFrameRate3,realFrameRate4,realFrameRate5,realFrameRate,viewerdistancecm,DVA_to_distance,radius_F,radius_P,r_F,R_P,key_resp_20.keys,key_resp_20.rt,key_resp_14.keys,key_resp_14.rt,key_resp_15.keys,key_resp_15.rt,key_resp_17.keys,key_resp_17.rt,key_resp_9.keys,key_resp_9.rt,key_resp_10.keys,key_resp_10.rt,Colour_1,Ecc,maskCon,mask_frames,mouse_5.x,mouse_5.y,mouse_5.leftButton,mouse_5.midButton,mouse_5.rightButton,mouse_5.clicked_name,Colour_2,similarity,response_time,mouse_10.x,mouse_10.y,mouse_10.leftButton,mouse_10.midButton,mouse_10.rightButton,mouse_10.clicked_name,mouse_7.x,mouse_7.y,mouse_7.leftButton,mouse_7.midButton,mouse_7.rightButton,mouse_7.clicked_name,catchprac,catchnumberprac,mouse_6.x,mouse_6.y,mouse_6.leftButton,mouse_6.midButton,mouse_6.rightButton,mouse_6.clicked_name,duringprac.thisRepN,duringprac.thisTrialN,duringprac.thisN,duringprac.thisIndex,duringprac.ran,key_resp_22.keys,key_resp_22.rt,Colour1,maskCon1,mouse.x,mouse.y,mouse.leftButton,mouse.midButton,mouse.rightButton,mouse.clicked_name,Colour2,trialnumber,mouse_2.x,mouse_2.y,mouse_2.leftButton,mouse_2.midButton,mouse_2.rightButton,mouse_2.clicked_name,mouse_3.x,mouse_3.y,mouse_3.leftButton,mouse_3.midButton,mouse_3.rightButton,mouse_3.clicked_name,catchresponse,catchnumber,response_time_catch,mouse_11.x,mouse_11.y,mouse_11.leftButton,mouse_11.midButton,mouse_11.rightButton,mouse_11.clicked_name,trials_2.thisRepN,trials_2.thisTrialN,trials_2.thisN,trials_2.thisIndex,trials_2.ran,Catch,trials_3.thisRepN,trials_3.thisTrialN,trials_3.thisN,trials_3.thisIndex,trials_3.ran,answer1,rt1,answer2,rt2,answer3,rt3,answer4,rt4,answer5,rt5,answer6,rt6,answer7,rt7
space,18.74394,space,2.064125,space,4.27577,37.2,3.72,516.1290323,290.3225806,1920,,space,9.73906,74.4,space,6.81996,space,4.912585,space,3.672075,space,3.96616,space,7.29625,space,6.177505,space,22.954465,space,5.93682,space,5.50368,return,2.52865,-334.08,1234.004106,0,0,0,0,1,5ff1c44bfef4d15dbc331ace,606843596c08de6cb2c25cbd,2021-04-03_13h28.53.426,Colour_Similarity_Experiment,2020.2.10,Win32,60,60674ec340277cd6a308bc9f,12.78606593,6.962207358,6.951615044,6.947341637,6.943808962,6.947341637,,,,,,,,,,,,,,,,,,,,,,,,,,,,,,,,,,,,,,,,,,,,,,,,,,,,,,,,,,,,,,,,,,,,,,,,,,,,,,,,,,,,,,,,,,,,,,,,,,,,,,,,,,,,,,,,,,
,,,,,,,,,,,,,,,,,,,,,,,,,,,,,,,,,return,2.43295,-290.88,1185.632865,1,0,1,0,1,5ff1c44bfef4d15dbc331ace,606843596c08de6cb2c25cbd,2021-04-03_13h28.53.426,Colour_Similarity_Experiment,2020.2.10,Win32,60,60674ec340277cd6a308bc9f,12.78606593,6.962207358,6.951615044,6.947341637,6.943808962,6.947341637,,,,,,,,,,,,,,,,,,,,,,,,,,,,,,,,,,,,,,,,,,,,,,,,,,,,,,,,,,,,,,,,,,,,,,,,,,,,,,,,,,,,,,,,,,,,,,,,,,,,,,,,,,,,,,,,,,
,,,,,,,,,,,,,,,,,,,,,,,,,,,,,,,,,return,2.26403,-221.76,1108.238879,2,0,2,0,1,5ff1c44bfef4d15dbc331ace,606843596c08de6cb2c25cbd,2021-04-03_13h28.53.426,Colour_Similarity_Experiment,2020.2.10,Win32,60,60674ec340277cd6a308bc9f,12.78606593,6.962207358,6.951615044,6.947341637,6.943808962,6.947341637,,,,,,,,,,,,,,,,,,,,,,,,,,,,,,,,,,,,,,,,,,,,,,,,,,,,,,,,,,,,,,,,,,,,,,,,,,,,,,,,,,,,,,,,,,,,,,,,,,,,,,,,,,,,,,,,,,
,,,,,,,,,,,,,,,,,,,,,,,,,,,,,,,,,return,2.03833,-126.72,1001.822149,3,0,3,0,1,5ff1c44bfef4d15dbc331ace,606843596c08de6cb2c25cbd,2021-04-03_13h28.53.426,Colour_Similarity_Experiment,2020.2.10,Win32,60,60674ec340277cd6a308bc9f,12.78606593,6.962207358,6.951615044,6.947341637,6.943808962,6.947341637,,,,,,,,,,,,,,,,,,,,,,,,,,,,,,,,,,,,,,,,,,,,,,,,,,,,,,,,,,,,,,,,,,,,,,,,,,,,,,,,,,,,,,,,,,,,,,,,,,,,,,,,,,,,,,,,,,
,,,,,,,,,,,,,,,,,,,,,,,,,,,,,,,,,return,2.065665,-138.24,1014.721146,4,0,4,0,1,5ff1c44bfef4d15dbc331ace,606843596c08de6cb2c25cbd,2021-04-03_13h28.53.426,Colour_Similarity_Experiment,2020.2.10,Win32,60,60674ec340277cd6a308bc9f,12.78606593,6.962207358,6.951615044,6.947341637,6.943808962,6.947341637,,,,,,,,,,,,,,,,,,,,,,,,,,,,,,,,,,,,,,,,,,,,,,,,,,,,,,,,,,,,,,,,,,,,,,,,,,,,,,,,,,,,,,,,,,,,,,,,,,,,,,,,,,,,,,,,,,
,,,,,,,,,,,,,,,,,,,,,,,,,,,,,,,,,,,,,,,,,,5ff1c44bfef4d15dbc331ace,606843596c08de6cb2c25cbd,2021-04-03_13h28.53.426,Colour_Similarity_Experiment,2020.2.10,Win32,60,60674ec340277cd6a308bc9f,12.78606593,6.962207358,6.951615044,6.947341637,6.943808962,6.947341637,111,19.37511514,108.1131425,720.7542832,72.07542832,324.3394275,space,8.08764,space,14.628945,space,27.870015,space,4.949375,space,3.030955,space,6.08549,7,PF,strong,7,80,-128,1,0,0,response3disk_5,4,4,24.853665,8,5,1,0,0,rectangle_8,65,-109,1,0,0,response3disk_7,4,4,0,1,1,0,0,rectangle_4,0,0,0,0,1,,,,,,,,,,,,,,,,,,,,,,,,,,,,,,,,,,,,,,,,,,,,,,,,,,,,,,,,,,
,,,,,,,,,,,,,,,,,,,,,,,,,,,,,,,,,,,,,,,,,,5ff1c44bfef4d15dbc331ace,606843596c08de6cb2c25cbd,2021-04-03_13h28.53.426,Colour_Similarity_Experiment,2020.2.10,Win32,60,60674ec340277cd6a308bc9f,12.78606593,6.962207358,6.951615044,6.947341637,6.943808962,6.947341637,,,,,,,,,,,,,,,,,,,1,PF,weak,7,-62,127,1,0,0,response7disk_5,8,0,6.65268,2,1,1,0,0,rectangle_8,2,1,1,0,0,,,4,2,1,1,0,0,,0,1,1,1,1,,,,,,,,,,,,,,,,,,,,,,,,,,,,,,,,,,,,,,,,,,,,,,,,,,,,,,,,,,
,,,,,,,,,,,,,,,,,,,,,,,,,,,,,,,,,,,,,,,,,,5ff1c44bfef4d15dbc331ace,606843596c08de6cb2c25cbd,2021-04-03_13h28.53.426,Colour_Similarity_Experiment,2020.2.10,Win32,60,60674ec340277cd6a308bc9f,12.78606593,6.962207358,6.951615044,6.947341637,6.943808962,6.947341637,,,,,,,,,,,,,,,,,,,5,PF,weak,7,120,56,1,0,0,response1disk_5,4,6,4.96534,-4,2,1,0,0,rectangle_8,-4,2,1,0,0,,,4,-4,2,1,0,0,,0,2,2,4,1,,,,,,,,,,,,,,,,,,,,,,,,,,,,,,,,,,,,,,,,,,,,,,,,,,,,,,,,,,
,,,,,,,,,,,,,,,,,,,,,,,,,,,,,,,,,,,,,,,,,,5ff1c44bfef4d15dbc331ace,606843596c08de6cb2c25cbd,2021-04-03_13h28.53.426,Colour_Similarity_Experiment,2020.2.10,Win32,60,60674ec340277cd6a308bc9f,12.78606593,6.962207358,6.951615044,6.947341637,6.943808962,6.947341637,,,,,,,,,,,,,,,,,,,1,PF,weak,7,-107,-61,1,0,0,response5disk_5,8,2,5.298535,-10,2,1,0,0,rectangle_8,-10,2,1,0,0,,,4,-10,2,1,0,0,,0,3,3,6,1,,,,,,,,,,,,,,,,,,,,,,,,,,,,,,,,,,,,,,,,,,,,,,,,,,,,,,,,,,
,,,,,,,,,,,,,,,,,,,,,,,,,,,,,,,,,,,,,,,,,,5ff1c44bfef4d15dbc331ace,606843596c08de6cb2c25cbd,2021-04-03_13h28.53.426,Colour_Similarity_Experiment,2020.2.10,Win32,60,60674ec340277cd6a308bc9f,12.78606593,6.962207358,6.951615044,6.947341637,6.943808962,6.947341637,,,,,,,,,,,,,,,,,,,4,PF,strong,7,-104,44,1,0,0,response7disk_5,3,1,2.444445,12,1,1,0,0,rectangle_8,12,1,1,0,0,,,4,12,1,1,0,0,,0,4,4,3,1,,,,,,,,,,,,,,,,,,,,,,,,,,,,,,,,,,,,,,,,,,,,,,,,,,,,,,,,,,
,,,,,,,,,,,,,,,,,,,,,,,,,,,,,,,,,,,,,,,,,,5ff1c44bfef4d15dbc331ace,606843596c08de6cb2c25cbd,2021-04-03_13h28.53.426,Colour_Similarity_Experiment,2020.2.10,Win32,60,60674ec340277cd6a308bc9f,12.78606593,6.962207358,6.951615044,6.947341637,6.943808962,6.947341637,,,,,,,,,,,,,,,,,,,3,PF,weak,7,-88,117,1,0,0,response7disk_5,3,0,1.736085,2,7,1,0,0,rectangle_8,2,7,1,0,0,,,4,2,7,1,0,0,,0,5,5,5,1,,,,,,,,,,,,,,,,,,,,,,,,,,,,,,,,,,,,,,,,,,,,,,,,,,,,,,,,,,
,,,,,,,,,,,,,,,,,,,,,,,,,,,,,,,,,,,,,,,,,,5ff1c44bfef4d15dbc331ace,606843596c08de6cb2c25cbd,2021-04-03_13h28.53.426,Colour_Similarity_Experiment,2020.2.10,Win32,60,60674ec340277cd6a308bc9f,12.78606593,6.962207358,6.951615044,6.947341637,6.943808962,6.947341637,,,,,,,,,,,,,,,,,,,3,PF,strong,7,50,113,1,0,0,response1disk_5,1,7,3.5,5,4,1,0,0,rectangle_8,5,4,1,0,0,,,4,5,4,1,0,0,,0,6,6,2,1,,,,,,,,,,,,,,,,,,,,,,,,,,,,,,,,,,,,,,,,,,,,,,,,,,,,,,,,,,
,,,,,,,,,,,,,,,,,,,,,,,,,,,,,,,,,,,,,,,,,,5ff1c44bfef4d15dbc331ace,606843596c08de6cb2c25cbd,2021-04-03_13h28.53.426,Colour_Similarity_Experiment,2020.2.10,Win32,60,60674ec340277cd6a308bc9f,12.78606593,6.962207358,6.951615044,6.947341637,6.943808962,6.947341637,,,,,,,,,,,,,,,,,,,,PF,weak,7,,,,,,,,6,4.74915,,,,,,,,,,,,,,,,,,,,,,,,,,space,3.867565,8,weak,117,49,1,0,0,response1disk,6,1,7,0,1,0,0,rectangle,-51,105,1,0,0,response7disk_3,0,0,4.32682,12,0,1,0,0,rectangle,0,0,0,161,1,1,,,,,,,,,,,,,,,,,,,
,,,,,,,,,,,,,,,,,,,,,,,,,,,,,,,,,,,,,,,,,,5ff1c44bfef4d15dbc331ace,606843596c08de6cb2c25cbd,2021-04-03_13h28.53.426,Colour_Similarity_Experiment,2020.2.10,Win32,60,60674ec340277cd6a308bc9f,12.78606593,6.962207358,6.951615044,6.947341637,6.943808962,6.947341637,,,,,,,,,,,,,,,,,,,,PF,weak,7,,,,,,,,6,3.756265,,,,,,,,,,,,,,,,,,,,,,,,,,,,4,weak,119,74,1,0,0,response1disk,3,2,-6,0,1,0,0,rectangle,-6,0,1,0,0,,0,0,0.00008,-6,0,1,0,0,,0,1,1,89,1,0,,,,,,,,,,,,,,,,,,,
,,,,,,,,,,,,,,,,,,,,,,,,,,,,,,,,,,,,,,,,,,5ff1c44bfef4d15dbc331ace,606843596c08de6cb2c25cbd,2021-04-03_13h28.53.426,Colour_Similarity_Experiment,2020.2.10,Win32,60,60674ec340277cd6a308bc9f,12.78606593,6.962207358,6.951615044,6.947341637,6.943808962,6.947341637,,,,,,,,,,,,,,,,,,,,PF,strong,7,,,,,,,,5,3.5209,,,,,,,,,,,,,,,,,,,,,,,,,,,,9,strong,131,-62,1,0,0,response3disk,6,3,4,-4,1,0,0,rectangle,4,-4,1,0,0,,0,3,0.00055,4,-4,1,0,0,,0,2,2,117,1,0,,,,,,,,,,,,,,,,,,,
,,,,,,,,,,,,,,,,,,,,,,,,,,,,,,,,,,,,,,,,,,5ff1c44bfef4d15dbc331ace,606843596c08de6cb2c25cbd,2021-04-03_13h28.53.426,Colour_Similarity_Experiment,2020.2.10,Win32,60,60674ec340277cd6a308bc9f,12.78606593,6.962207358,6.951615044,6.947341637,6.943808962,6.947341637,,,,,,,,,,,,,,,,,,,,PF,strong,7,,,,,,,,1,3.624475,,,,,,,,,,,,,,,,,,,,,,,,,,,,6,strong,-95,44,1,0,0,response7disk,9,4,-1,-2,1,0,0,rectangle,-117,-60,1,0,0,response5disk_3,0,2,2.360975,12,4,1,0,0,rectangle,0,3,3,160,1,1,,,,,,,,,,,,,,,,,,,
,,,,,,,,,,,,,,,,,,,,,,,,,,,,,,,,,,,,,,,,,,5ff1c44bfef4d15dbc331ace,606843596c08de6cb2c25cbd,2021-04-03_13h28.53.426,Colour_Similarity_Experiment,2020.2.10,Win32,60,60674ec340277cd6a308bc9f,12.78606593,6.962207358,6.951615044,6.947341637,6.943808962,6.947341637,,,,,,,,,,,,,,,,,,,,PF,weak,7,,,,,,,,6,3.55562,,,,,,,,,,,,,,,,,,,,,,,,,,,,1,weak,120,49,1,0,0,response1disk,6,5,11,3,1,0,0,rectangle,11,3,1,0,0,,0,2,0.00007,11,3,1,0,0,,0,4,4,144,1,0,,,,,,,,,,,,,,,,,,,
,,,,,,,,,,,,,,,,,,,,,,,,,,,,,,,,,,,,,,,,,,5ff1c44bfef4d15dbc331ace,606843596c08de6cb2c25cbd,2021-04-03_13h28.53.426,Colour_Similarity_Experiment,2020.2.10,Win32,60,60674ec340277cd6a308bc9f,12.78606593,6.962207358,6.951615044,6.947341637,6.943808962,6.947341637,,,,,,,,,,,,,,,,,,,,PF,weak,7,,,,,,,,2,3.07649,,,,,,,,,,,,,,,,,,,,,,,,,,,,5,weak,-128,-43,1,0,0,response5disk,3,6,-12,3,1,0,0,rectangle,-12,3,1,0,0,,0,5,0.00045,-12,3,1,0,0,,0,5,5,109,1,0,,,,,,,,,,,,,,,,,,,
,,,,,,,,,,,,,,,,,,,,,,,,,,,,,,,,,,,,,,,,,,5ff1c44bfef4d15dbc331ace,606843596c08de6cb2c25cbd,2021-04-03_13h28.53.426,Colour_Similarity_Experiment,2020.2.10,Win32,60,60674ec340277cd6a308bc9f,12.78606593,6.962207358,6.951615044,6.947341637,6.943808962,6.947341637,,,,,,,,,,,,,,,,,,,,PF,strong,7,,,,,,,,1,2.32599,,,,,,,,,,,,,,,,,,,,,,,,,,,,2,strong,-128,46,1,0,0,response7disk,6,7,7,2,1,0,0,rectangle,7,2,1,0,0,,0,3,0.000485,7,2,1,0,0,,0,6,6,40,1,0,,,,,,,,,,,,,,,,,,,
,,,,,,,,,,,,,,,,,,,,,,,,,,,,,,,,,,,,,,,,,,5ff1c44bfef4d15dbc331ace,606843596c08de6cb2c25cbd,2021-04-03_13h28.53.426,Colour_Similarity_Experiment,2020.2.10,Win32,60,60674ec340277cd6a308bc9f,12.78606593,6.962207358,6.951615044,6.947341637,6.943808962,6.947341637,,,,,,,,,,,,,,,,,,,,PF,weak,7,,,,,,,,4,2.229145,,,,,,,,,,,,,,,,,,,,,,,,,,,,5,weak,49,-110,1,0,0,response3disk,7,8,9,1,1,0,0,rectangle,9,1,1,0,0,,0,4,0.000455,9,1,1,0,0,,0,7,7,146,1,0,,,,,,,,,,,,,,,,,,,
,,,,,,,,,,,,,,,,,,,,,,,,,,,,,,,,,,,,,,,,,,5ff1c44bfef4d15dbc331ace,606843596c08de6cb2c25cbd,2021-04-03_13h28.53.426,Colour_Similarity_Experiment,2020.2.10,Win32,60,60674ec340277cd6a308bc9f,12.78606593,6.962207358,6.951615044,6.947341637,6.943808962,6.947341637,,,,,,,,,,,,,,,,,,,,PF,strong,7,,,,,,,,0,2.458345,,,,,,,,,,,,,,,,,,,,,,,,,,,,1,strong,-61,93,1,0,0,response7disk,3,9,12,-1,1,0,0,rectangle,12,-1,1,0,0,,0,4,0.00007,12,-1,1,0,0,,0,8,8,99,1,0,,,,,,,,,,,,,,,,,,,
,,,,,,,,,,,,,,,,,,,,,,,,,,,,,,,,,,,,,,,,,,5ff1c44bfef4d15dbc331ace,606843596c08de6cb2c25cbd,2021-04-03_13h28.53.426,Colour_Similarity_Experiment,2020.2.10,Win32,60,60674ec340277cd6a308bc9f,12.78606593,6.962207358,6.951615044,6.947341637,6.943808962,6.947341637,,,,,,,,,,,,,,,,,,,,PF,strong,7,,,,,,,,3,2.62448,,,,,,,,,,,,,,,,,,,,,,,,,,,,4,strong,-63,-111,1,0,0,response5disk,6,10,15,8,1,0,0,rectangle,15,8,1,0,0,,0,0,0.00045,15,8,1,0,0,,0,9,9,122,1,0,,,,,,,,,,,,,,,,,,,
,,,,,,,,,,,,,,,,,,,,,,,,,,,,,,,,,,,,,,,,,,5ff1c44bfef4d15dbc331ace,606843596c08de6cb2c25cbd,2021-04-03_13h28.53.426,Colour_Similarity_Experiment,2020.2.10,Win32,60,60674ec340277cd6a308bc9f,12.78606593,6.962207358,6.951615044,6.947341637,6.943808962,6.947341637,,,,,,,,,,,,,,,,,,,,PF,strong,7,,,,,,,,5,1.76335,,,,,,,,,,,,,,,,,,,,,,,,,,,,1,strong,135,-65,1,0,0,response3disk,9,11,10,-2,1,0,0,rectangle,10,-2,1,0,0,,0,1,0.000475,10,-2,1,0,0,,0,10,10,123,1,0,,,,,,,,,,,,,,,,,,,
,,,,,,,,,,,,,,,,,,,,,,,,,,,,,,,,,,,,,,,,,,5ff1c44bfef4d15dbc331ace,606843596c08de6cb2c25cbd,2021-04-03_13h28.53.426,Colour_Similarity_Experiment,2020.2.10,Win32,60,60674ec340277cd6a308bc9f,12.78606593,6.962207358,6.951615044,6.947341637,6.943808962,6.947341637,,,,,,,,,,,,,,,,,,,,PF,weak,7,,,,,,,,3,3.43,,,,,,,,,,,,,,,,,,,,,,,,,,,,8,weak,-50,-105,1,0,0,response5disk,1,12,-1,5,1,0,0,rectangle,-1,5,1,0,0,,0,4,0.000465,-1,5,1,0,0,,0,11,11,57,1,0,,,,,,,,,,,,,,,,,,,
,,,,,,,,,,,,,,,,,,,,,,,,,,,,,,,,,,,,,,,,,,5ff1c44bfef4d15dbc331ace,606843596c08de6cb2c25cbd,2021-04-03_13h28.53.426,Colour_Similarity_Experiment,2020.2.10,Win32,60,60674ec340277cd6a308bc9f,12.78606593,6.962207358,6.951615044,6.947341637,6.943808962,6.947341637,,,,,,,,,,,,,,,,,,,,PF,strong,7,,,,,,,,4,2.569025,,,,,,,,,,,,,,,,,,,,,,,,,,,,9,strong,40,-100,1,0,0,response3disk,2,13,-2,0,1,0,0,rectangle,136,53,1,0,0,response1disk_3,6,6,2.326795,-8,3,1,0,0,rectangle,0,12,12,11,1,1,,,,,,,,,,,,,,,,,,,
,,,,,,,,,,,,,,,,,,,,,,,,,,,,,,,,,,,,,,,,,,5ff1c44bfef4d15dbc331ace,606843596c08de6cb2c25cbd,2021-04-03_13h28.53.426,Colour_Similarity_Experiment,2020.2.10,Win32,60,60674ec340277cd6a308bc9f,12.78606593,6.962207358,6.951615044,6.947341637,6.943808962,6.947341637,,,,,,,,,,,,,,,,,,,,PF,strong,7,,,,,,,,7,4.95777,,,,,,,,,,,,,,,,,,,,,,,,,,,,6,strong,66,115,1,0,0,response1disk,1,14,-7,4,1,0,0,rectangle,-7,4,1,0,0,,6,0,0.00047,-7,4,1,0,0,,0,13,13,5,1,0,,,,,,,,,,,,,,,,,,,
,,,,,,,,,,,,,,,,,,,,,,,,,,,,,,,,,,,,,,,,,,5ff1c44bfef4d15dbc331ace,606843596c08de6cb2c25cbd,2021-04-03_13h28.53.426,Colour_Similarity_Experiment,2020.2.10,Win32,60,60674ec340277cd6a308bc9f,12.78606593,6.962207358,6.951615044,6.947341637,6.943808962,6.947341637,,,,,,,,,,,,,,,,,,,,PF,weak,7,,,,,,,,2,2.992795,,,,,,,,,,,,,,,,,,,,,,,,,,,,7,weak,-87,-58,1,0,0,response5disk,8,15,3,-8,1,0,0,rectangle,3,-8,1,0,0,,6,2,0.000405,3,-8,1,0,0,,0,14,14,140,1,0,,,,,,,,,,,,,,,,,,,
,,,,,,,,,,,,,,,,,,,,,,,,,,,,,,,,,,,,,,,,,,5ff1c44bfef4d15dbc331ace,606843596c08de6cb2c25cbd,2021-04-03_13h28.53.426,Colour_Similarity_Experiment,2020.2.10,Win32,60,60674ec340277cd6a308bc9f,12.78606593,6.962207358,6.951615044,6.947341637,6.943808962,6.947341637,,,,,,,,,,,,,,,,,,,,PF,strong,7,,,,,,,,5,2.243,,,,,,,,,,,,,,,,,,,,,,,,,,,,1,strong,113,-55,1,0,0,response3disk,8,16,29,-2,1,0,0,rectangle,29,-2,1,0,0,,6,7,0.00045,29,-2,1,0,0,,0,15,15,27,1,0,,,,,,,,,,,,,,,,,,,
,,,,,,,,,,,,,,,,,,,,,,,,,,,,,,,,,,,,,,,,,,5ff1c44bfef4d15dbc331ace,606843596c08de6cb2c25cbd,2021-04-03_13h28.53.426,Colour_Similarity_Experiment,2020.2.10,Win32,60,60674ec340277cd6a308bc9f,12.78606593,6.962207358,6.951615044,6.947341637,6.943808962,6.947341637,,,,,,,,,,,,,,,,,,,,PF,strong,7,,,,,,,,1,1.611115,,,,,,,,,,,,,,,,,,,,,,,,,,,,8,strong,-86,41,1,0,0,response7disk,9,17,10,4,1,0,0,rectangle,10,4,1,0,0,,6,7,0.000085,10,4,1,0,0,,0,16,16,105,1,0,,,,,,,,,,,,,,,,,,,
,,,,,,,,,,,,,,,,,,,,,,,,,,,,,,,,,,,,,,,,,,5ff1c44bfef4d15dbc331ace,606843596c08de6cb2c25cbd,2021-04-03_13h28.53.426,Colour_Similarity_Experiment,2020.2.10,Win32,60,60674ec340277cd6a308bc9f,12.78606593,6.962207358,6.951615044,6.947341637,6.943808962,6.947341637,,,,,,,,,,,,,,,,,,,,PF,weak,7,,,,,,,,6,2.92344,,,,,,,,,,,,,,,,,,,,,,,,,,,,9,weak,100,47,1,0,0,response1disk,8,18,13,-3,1,0,0,rectangle,13,-3,1,0,0,,6,2,0.000515,13,-3,1,0,0,,0,17,17,67,1,0,,,,,,,,,,,,,,,,,,,
,,,,,,,,,,,,,,,,,,,,,,,,,,,,,,,,,,,,,,,,,,5ff1c44bfef4d15dbc331ace,606843596c08de6cb2c25cbd,2021-04-03_13h28.53.426,Colour_Similarity_Experiment,2020.2.10,Win32,60,60674ec340277cd6a308bc9f,12.78606593,6.962207358,6.951615044,6.947341637,6.943808962,6.947341637,,,,,,,,,,,,,,,,,,,,PF,weak,7,,,,,,,,6,3.131405,,,,,,,,,,,,,,,,,,,,,,,,,,,,2,weak,126,40,1,0,0,response1disk,8,19,22,5,1,0,0,rectangle,22,5,1,0,0,,6,3,0.00048,22,5,1,0,0,,0,18,18,52,1,0,,,,,,,,,,,,,,,,,,,
,,,,,,,,,,,,,,,,,,,,,,,,,,,,,,,,,,,,,,,,,,5ff1c44bfef4d15dbc331ace,606843596c08de6cb2c25cbd,2021-04-03_13h28.53.426,Colour_Similarity_Experiment,2020.2.10,Win32,60,60674ec340277cd6a308bc9f,12.78606593,6.962207358,6.951615044,6.947341637,6.943808962,6.947341637,,,,,,,,,,,,,,,,,,,,PF,weak,7,,,,,,,,3,2.58299,,,,,,,,,,,,,,,,,,,,,,,,,,,,1,weak,-52,-108,1,0,0,response5disk,2,20,12,0,1,0,0,rectangle,12,0,1,0,0,,6,0,0.00044,12,0,1,0,0,,0,19,19,24,1,0,,,,,,,,,,,,,,,,,,,
,,,,,,,,,,,,,,,,,,,,,,,,,,,,,,,,,,,,,,,,,,5ff1c44bfef4d15dbc331ace,606843596c08de6cb2c25cbd,2021-04-03_13h28.53.426,Colour_Similarity_Experiment,2020.2.10,Win32,60,60674ec340277cd6a308bc9f,12.78606593,6.962207358,6.951615044,6.947341637,6.943808962,6.947341637,,,,,,,,,,,,,,,,,,,,PF,strong,7,,,,,,,,2,4.048065,,,,,,,,,,,,,,,,,,,,,,,,,,,,7,strong,-88,-62,1,0,0,response5disk,1,21,18,-10,1,0,0,rectangle,18,-10,1,0,0,,6,3,0.000425,18,-10,1,0,0,,0,20,20,132,1,0,,,,,,,,,,,,,,,,,,,
,,,,,,,,,,,,,,,,,,,,,,,,,,,,,,,,,,,,,,,,,,5ff1c44bfef4d15dbc331ace,606843596c08de6cb2c25cbd,2021-04-03_13h28.53.426,Colour_Similarity_Experiment,2020.2.10,Win32,60,60674ec340277cd6a308bc9f,12.78606593,6.962207358,6.951615044,6.947341637,6.943808962,6.947341637,,,,,,,,,,,,,,,,,,,,PF,weak,7,,,,,,,,5,3.346655,,,,,,,,,,,,,,,,,,,,,,,,,,,,9,weak,70,-49,1,0,0,response3disk,2,22,2,-4,1,0,0,rectangle,2,-4,1,0,0,,6,7,0.00047,2,-4,1,0,0,,0,21,21,157,1,0,,,,,,,,,,,,,,,,,,,
,,,,,,,,,,,,,,,,,,,,,,,,,,,,,,,,,,,,,,,,,,5ff1c44bfef4d15dbc331ace,606843596c08de6cb2c25cbd,2021-04-03_13h28.53.426,Colour_Similarity_Experiment,2020.2.10,Win32,60,60674ec340277cd6a308bc9f,12.78606593,6.962207358,6.951615044,6.947341637,6.943808962,6.947341637,,,,,,,,,,,,,,,,,,,,PF,weak,7,,,,,,,,2,2.631395,,,,,,,,,,,,,,,,,,,,,,,,,,,,4,weak,-94,-45,1,0,0,response5disk,9,23,18,-1,1,0,0,rectangle,18,-1,1,0,0,,6,3,0.00064,18,-1,1,0,0,,0,22,22,75,1,0,,,,,,,,,,,,,,,,,,,
,,,,,,,,,,,,,,,,,,,,,,,,,,,,,,,,,,,,,,,,,,5ff1c44bfef4d15dbc331ace,606843596c08de6cb2c25cbd,2021-04-03_13h28.53.426,Colour_Similarity_Experiment,2020.2.10,Win32,60,60674ec340277cd6a308bc9f,12.78606593,6.962207358,6.951615044,6.947341637,6.943808962,6.947341637,,,,,,,,,,,,,,,,,,,,PF,weak,7,,,,,,,,2,1.25003,,,,,,,,,,,,,,,,,,,,,,,,,,,,6,weak,-90,-40,1,0,0,response5disk,9,24,14,4,1,0,0,rectangle,14,4,1,0,0,,6,5,0.000395,14,4,1,0,0,,0,23,23,45,1,0,,,,,,,,,,,,,,,,,,,
,,,,,,,,,,,,,,,,,,,,,,,,,,,,,,,,,,,,,,,,,,5ff1c44bfef4d15dbc331ace,606843596c08de6cb2c25cbd,2021-04-03_13h28.53.426,Colour_Similarity_Experiment,2020.2.10,Win32,60,60674ec340277cd6a308bc9f,12.78606593,6.962207358,6.951615044,6.947341637,6.943808962,6.947341637,,,,,,,,,,,,,,,,,,,,PF,strong,7,,,,,,,,3,2.506325,,,,,,,,,,,,,,,,,,,,,,,,,,,,8,strong,-45,-87,1,0,0,response5disk,1,25,-9,-3,1,0,0,rectangle,-9,-3,1,0,0,,6,1,0.000435,-9,-3,1,0,0,,0,24,24,20,1,0,,,,,,,,,,,,,,,,,,,
,,,,,,,,,,,,,,,,,,,,,,,,,,,,,,,,,,,,,,,,,,5ff1c44bfef4d15dbc331ace,606843596c08de6cb2c25cbd,2021-04-03_13h28.53.426,Colour_Similarity_Experiment,2020.2.10,Win32,60,60674ec340277cd6a308bc9f,12.78606593,6.962207358,6.951615044,6.947341637,6.943808962,6.947341637,,,,,,,,,,,,,,,,,,,,PF,strong,7,,,,,,,,2,1.332735,,,,,,,,,,,,,,,,,,,,,,,,,,,,1,strong,-115,-35,1,0,0,response5disk,4,26,-5,2,1,0,0,rectangle,-5,2,1,0,0,,6,6,0.00043,-5,2,1,0,0,,0,25,25,135,1,0,,,,,,,,,,,,,,,,,,,
,,,,,,,,,,,,,,,,,,,,,,,,,,,,,,,,,,,,,,,,,,5ff1c44bfef4d15dbc331ace,606843596c08de6cb2c25cbd,2021-04-03_13h28.53.426,Colour_Similarity_Experiment,2020.2.10,Win32,60,60674ec340277cd6a308bc9f,12.78606593,6.962207358,6.951615044,6.947341637,6.943808962,6.947341637,,,,,,,,,,,,,,,,,,,,PF,strong,7,,,,,,,,1,3.11749,,,,,,,,,,,,,,,,,,,,,,,,,,,,7,strong,-116,49,1,0,0,response7disk,6,27,5,-4,1,0,0,rectangle,5,-4,1,0,0,,6,0,0.00045,5,-4,1,0,0,,0,26,26,31,1,0,,,,,,,,,,,,,,,,,,,
,,,,,,,,,,,,,,,,,,,,,,,,,,,,,,,,,,,,,,,,,,5ff1c44bfef4d15dbc331ace,606843596c08de6cb2c25cbd,2021-04-03_13h28.53.426,Colour_Similarity_Experiment,2020.2.10,Win32,60,60674ec340277cd6a308bc9f,12.78606593,6.962207358,6.951615044,6.947341637,6.943808962,6.947341637,,,,,,,,,,,,,,,,,,,,PF,strong,7,,,,,,,,4,2.09661,,,,,,,,,,,,,,,,,,,,,,,,,,,,3,strong,54,-89,1,0,0,response3disk,9,28,-2,6,1,0,0,rectangle,-2,6,1,0,0,,6,3,0.0004,-2,6,1,0,0,,0,27,27,143,1,0,,,,,,,,,,,,,,,,,,,
,,,,,,,,,,,,,,,,,,,,,,,,,,,,,,,,,,,,,,,,,,5ff1c44bfef4d15dbc331ace,606843596c08de6cb2c25cbd,2021-04-03_13h28.53.426,Colour_Similarity_Experiment,2020.2.10,Win32,60,60674ec340277cd6a308bc9f,12.78606593,6.962207358,6.951615044,6.947341637,6.943808962,6.947341637,,,,,,,,,,,,,,,,,,,,PF,weak,7,,,,,,,,3,2.90233,,,,,,,,,,,,,,,,,,,,,,,,,,,,2,weak,-38,-63,1,0,0,response5disk,6,29,12,-2,1,0,0,rectangle,12,-2,1,0,0,,6,3,0.000065,12,-2,1,0,0,,0,28,28,113,1,0,,,,,,,,,,,,,,,,,,,
,,,,,,,,,,,,,,,,,,,,,,,,,,,,,,,,,,,,,,,,,,5ff1c44bfef4d15dbc331ace,606843596c08de6cb2c25cbd,2021-04-03_13h28.53.426,Colour_Similarity_Experiment,2020.2.10,Win32,60,60674ec340277cd6a308bc9f,12.78606593,6.962207358,6.951615044,6.947341637,6.943808962,6.947341637,,,,,,,,,,,,,,,,,,,,PF,weak,7,,,,,,,,7,2.430005,,,,,,,,,,,,,,,,,,,,,,,,,,,,4,weak,45,99,1,0,0,response1disk,1,30,-15,2,1,0,0,rectangle,-15,2,1,0,0,,6,2,0.00038,-15,2,1,0,0,,0,29,29,115,1,0,,,,,,,,,,,,,,,,,,,
,,,,,,,,,,,,,,,,,,,,,,,,,,,,,,,,,,,,,,,,,,5ff1c44bfef4d15dbc331ace,606843596c08de6cb2c25cbd,2021-04-03_13h28.53.426,Colour_Similarity_Experiment,2020.2.10,Win32,60,60674ec340277cd6a308bc9f,12.78606593,6.962207358,6.951615044,6.947341637,6.943808962,6.947341637,,,,,,,,,,,,,,,,,,,,PF,strong,7,,,,,,,,6,2.16627,,,,,,,,,,,,,,,,,,,,,,,,,,,,1,strong,113,44,1,0,0,response1disk,1,31,11,0,1,0,0,rectangle,11,0,1,0,0,,6,1,0.00041,11,0,1,0,0,,0,30,30,151,1,0,,,,,,,,,,,,,,,,,,,
,,,,,,,,,,,,,,,,,,,,,,,,,,,,,,,,,,,,,,,,,,5ff1c44bfef4d15dbc331ace,606843596c08de6cb2c25cbd,2021-04-03_13h28.53.426,Colour_Similarity_Experiment,2020.2.10,Win32,60,60674ec340277cd6a308bc9f,12.78606593,6.962207358,6.951615044,6.947341637,6.943808962,6.947341637,,,,,,,,,,,,,,,,,,,,PF,strong,7,,,,,,,,5,3.19387,,,,,,,,,,,,,,,,,,,,,,,,,,,,9,strong,83,-49,1,0,0,response3disk,8,32,17,-8,1,0,0,rectangle,17,-8,1,0,0,,6,7,0.00043,17,-8,1,0,0,,0,31,31,6,1,0,,,,,,,,,,,,,,,,,,,
,,,,,,,,,,,,,,,,,,,,,,,,,,,,,,,,,,,,,,,,,,5ff1c44bfef4d15dbc331ace,606843596c08de6cb2c25cbd,2021-04-03_13h28.53.426,Colour_Similarity_Experiment,2020.2.10,Win32,60,60674ec340277cd6a308bc9f,12.78606593,6.962207358,6.951615044,6.947341637,6.943808962,6.947341637,,,,,,,,,,,,,,,,,,,,PF,weak,7,,,,,,,,4,4.27727,,,,,,,,,,,,,,,,,,,,,,,,,,,,3,weak,54,-113,1,0,0,response3disk,8,33,1,-12,1,0,0,rectangle,1,-12,1,0,0,,6,3,0.00043,1,-12,1,0,0,,0,32,32,3,1,0,,,,,,,,,,,,,,,,,,,
,,,,,,,,,,,,,,,,,,,,,,,,,,,,,,,,,,,,,,,,,,5ff1c44bfef4d15dbc331ace,606843596c08de6cb2c25cbd,2021-04-03_13h28.53.426,Colour_Similarity_Experiment,2020.2.10,Win32,60,60674ec340277cd6a308bc9f,12.78606593,6.962207358,6.951615044,6.947341637,6.943808962,6.947341637,,,,,,,,,,,,,,,,,,,,PF,weak,7,,,,,,,,4,3.138335,,,,,,,,,,,,,,,,,,,,,,,,,,,,6,weak,43,-93,1,0,0,response3disk,2,34,17,9,1,0,0,rectangle,17,9,1,0,0,,6,4,0.000395,17,9,1,0,0,,0,33,33,130,1,0,,,,,,,,,,,,,,,,,,,
,,,,,,,,,,,,,,,,,,,,,,,,,,,,,,,,,,,,,,,,,,5ff1c44bfef4d15dbc331ace,606843596c08de6cb2c25cbd,2021-04-03_13h28.53.426,Colour_Similarity_Experiment,2020.2.10,Win32,60,60674ec340277cd6a308bc9f,12.78606593,6.962207358,6.951615044,6.947341637,6.943808962,6.947341637,,,,,,,,,,,,,,,,,,,,PF,strong,7,,,,,,,,5,2.971725,,,,,,,,,,,,,,,,,,,,,,,,,,,,7,strong,133,-50,1,0,0,response3disk,5,35,9,4,1,0,0,rectangle,9,4,1,0,0,,6,5,0.00041,9,4,1,0,0,,0,34,34,156,1,0,,,,,,,,,,,,,,,,,,,
,,,,,,,,,,,,,,,,,,,,,,,,,,,,,,,,,,,,,,,,,,5ff1c44bfef4d15dbc331ace,606843596c08de6cb2c25cbd,2021-04-03_13h28.53.426,Colour_Similarity_Experiment,2020.2.10,Win32,60,60674ec340277cd6a308bc9f,12.78606593,6.962207358,6.951615044,6.947341637,6.943808962,6.947341637,,,,,,,,,,,,,,,,,,,,PF,strong,7,,,,,,,,3,1.826365,,,,,,,,,,,,,,,,,,,,,,,,,,,,8,strong,-50,-111,1,0,0,response5disk,3,36,-8,-7,1,0,0,rectangle,-8,-7,1,0,0,,6,5,0.00006,-8,-7,1,0,0,,0,35,35,154,1,0,,,,,,,,,,,,,,,,,,,
,,,,,,,,,,,,,,,,,,,,,,,,,,,,,,,,,,,,,,,,,,5ff1c44bfef4d15dbc331ace,606843596c08de6cb2c25cbd,2021-04-03_13h28.53.426,Colour_Similarity_Experiment,2020.2.10,Win32,60,60674ec340277cd6a308bc9f,12.78606593,6.962207358,6.951615044,6.947341637,6.943808962,6.947341637,,,,,,,,,,,,,,,,,,,,PF,strong,7,,,,,,,,2,1.944485,,,,,,,,,,,,,,,,,,,,,,,,,,,,5,strong,-100,-58,1,0,0,response5disk,4,37,-15,-3,1,0,0,rectangle,-15,-3,1,0,0,,6,3,0.000395,-15,-3,1,0,0,,0,36,36,8,1,0,,,,,,,,,,,,,,,,,,,
,,,,,,,,,,,,,,,,,,,,,,,,,,,,,,,,,,,,,,,,,,5ff1c44bfef4d15dbc331ace,606843596c08de6cb2c25cbd,2021-04-03_13h28.53.426,Colour_Similarity_Experiment,2020.2.10,Win32,60,60674ec340277cd6a308bc9f,12.78606593,6.962207358,6.951615044,6.947341637,6.943808962,6.947341637,,,,,,,,,,,,,,,,,,,,PF,strong,7,,,,,,,,2,2.02719,,,,,,,,,,,,,,,,,,,,,,,,,,,,8,strong,-100,-39,1,0,0,response5disk,7,38,-1,-2,1,0,0,rectangle,-1,-2,1,0,0,,6,7,0.000505,-1,-2,1,0,0,,0,37,37,86,1,0,,,,,,,,,,,,,,,,,,,
,,,,,,,,,,,,,,,,,,,,,,,,,,,,,,,,,,,,,,,,,,5ff1c44bfef4d15dbc331ace,606843596c08de6cb2c25cbd,2021-04-03_13h28.53.426,Colour_Similarity_Experiment,2020.2.10,Win32,60,60674ec340277cd6a308bc9f,12.78606593,6.962207358,6.951615044,6.947341637,6.943808962,6.947341637,,,,,,,,,,,,,,,,,,,,PF,strong,7,,,,,,,,1,1.325855,,,,,,,,,,,,,,,,,,,,,,,,,,,,4,strong,-105,38,1,0,0,response7disk,5,39,-21,7,1,0,0,rectangle,-21,7,1,0,0,,6,7,0.00006,-21,7,1,0,0,,0,38,38,116,1,0,,,,,,,,,,,,,,,,,,,
,,,,,,,,,,,,,,,,,,,,,,,,,,,,,,,,,,,,,,,,,,5ff1c44bfef4d15dbc331ace,606843596c08de6cb2c25cbd,2021-04-03_13h28.53.426,Colour_Similarity_Experiment,2020.2.10,Win32,60,60674ec340277cd6a308bc9f,12.78606593,6.962207358,6.951615044,6.947341637,6.943808962,6.947341637,,,,,,,,,,,,,,,,,,,,PF,weak,7,,,,,,,,6,4.797995,,,,,,,,,,,,,,,,,,,,,,,,,,,,2,weak,133,48,1,0,0,response1disk,7,40,-1,0,1,0,0,rectangle,-1,0,1,0,0,,6,0,0.00044,-1,0,1,0,0,,0,39,39,107,1,0,,,,,,,,,,,,,,,,,,,
,,,,,,,,,,,,,,,,,,,,,,,,,,,,,,,,,,,,,,,,,,5ff1c44bfef4d15dbc331ace,606843596c08de6cb2c25cbd,2021-04-03_13h28.53.426,Colour_Similarity_Experiment,2020.2.10,Win32,60,60674ec340277cd6a308bc9f,12.78606593,6.962207358,6.951615044,6.947341637,6.943808962,6.947341637,,,,,,,,,,,,,,,,,,,,PF,strong,7,,,,,,,,7,1.680015,,,,,,,,,,,,,,,,,,,,,,,,,,,,3,strong,35,87,1,0,0,response1disk,2,41,-10,10,1,0,0,rectangle,-10,10,1,0,0,,6,0,0.00007,-10,10,1,0,0,,0,40,40,93,1,0,,,,,,,,,,,,,,,,,,,
,,,,,,,,,,,,,,,,,,,,,,,,,,,,,,,,,,,,,,,,,,5ff1c44bfef4d15dbc331ace,606843596c08de6cb2c25cbd,2021-04-03_13h28.53.426,Colour_Similarity_Experiment,2020.2.10,Win32,60,60674ec340277cd6a308bc9f,12.78606593,6.962207358,6.951615044,6.947341637,6.943808962,6.947341637,,,,,,,,,,,,,,,,,,,,PF,weak,7,,,,,,,,7,1.75584,,,,,,,,,,,,,,,,,,,,,,,,,,,,6,weak,39,69,1,0,0,response1disk,5,42,5,12,1,0,0,rectangle,5,12,1,0,0,,6,3,0.0004,5,12,1,0,0,,0,41,41,59,1,0,,,,,,,,,,,,,,,,,,,
,,,,,,,,,,,,,,,,,,,,,,,,,,,,,,,,,,,,,,,,,,5ff1c44bfef4d15dbc331ace,606843596c08de6cb2c25cbd,2021-04-03_13h28.53.426,Colour_Similarity_Experiment,2020.2.10,Win32,60,60674ec340277cd6a308bc9f,12.78606593,6.962207358,6.951615044,6.947341637,6.943808962,6.947341637,,,,,,,,,,,,,,,,,,,,PF,strong,7,,,,,,,,5,1.291055,,,,,,,,,,,,,,,,,,,,,,,,,,,,2,strong,81,-43,1,0,0,response3disk,1,43,22,-10,1,0,0,rectangle,22,-10,1,0,0,,6,3,0.000065,22,-10,1,0,0,,0,42,42,85,1,0,,,,,,,,,,,,,,,,,,,
,,,,,,,,,,,,,,,,,,,,,,,,,,,,,,,,,,,,,,,,,,5ff1c44bfef4d15dbc331ace,606843596c08de6cb2c25cbd,2021-04-03_13h28.53.426,Colour_Similarity_Experiment,2020.2.10,Win32,60,60674ec340277cd6a308bc9f,12.78606593,6.962207358,6.951615044,6.947341637,6.943808962,6.947341637,,,,,,,,,,,,,,,,,,,,PF,strong,7,,,,,,,,0,1.728655,,,,,,,,,,,,,,,,,,,,,,,,,,,,8,strong,-44,99,1,0,0,response7disk,4,44,18,-6,1,0,0,rectangle,18,-6,1,0,0,,6,1,0.00085,18,-6,1,0,0,,0,43,43,88,1,0,,,,,,,,,,,,,,,,,,,
,,,,,,,,,,,,,,,,,,,,,,,,,,,,,,,,,,,,,,,,,,5ff1c44bfef4d15dbc331ace,606843596c08de6cb2c25cbd,2021-04-03_13h28.53.426,Colour_Similarity_Experiment,2020.2.10,Win32,60,60674ec340277cd6a308bc9f,12.78606593,6.962207358,6.951615044,6.947341637,6.943808962,6.947341637,,,,,,,,,,,,,,,,,,,,PF,strong,7,,,,,,,,0,1.30664,,,,,,,,,,,,,,,,,,,,,,,,,,,,3,strong,-38,74,1,0,0,response7disk,3,45,-10,7,1,0,0,rectangle,-10,7,1,0,0,,6,5,0.00073,-10,7,1,0,0,,0,44,44,68,1,0,,,,,,,,,,,,,,,,,,,
,,,,,,,,,,,,,,,,,,,,,,,,,,,,,,,,,,,,,,,,,,5ff1c44bfef4d15dbc331ace,606843596c08de6cb2c25cbd,2021-04-03_13h28.53.426,Colour_Similarity_Experiment,2020.2.10,Win32,60,60674ec340277cd6a308bc9f,12.78606593,6.962207358,6.951615044,6.947341637,6.943808962,6.947341637,,,,,,,,,,,,,,,,,,,,PF,weak,7,,,,,,,,1,2.42311,,,,,,,,,,,,,,,,,,,,,,,,,,,,7,weak,-95,33,1,0,0,response7disk,6,46,-29,3,1,0,0,rectangle,-29,3,1,0,0,,6,6,0.000405,-29,3,1,0,0,,0,45,45,29,1,0,,,,,,,,,,,,,,,,,,,
,,,,,,,,,,,,,,,,,,,,,,,,,,,,,,,,,,,,,,,,,,5ff1c44bfef4d15dbc331ace,606843596c08de6cb2c25cbd,2021-04-03_13h28.53.426,Colour_Similarity_Experiment,2020.2.10,Win32,60,60674ec340277cd6a308bc9f,12.78606593,6.962207358,6.951615044,6.947341637,6.943808962,6.947341637,,,,,,,,,,,,,,,,,,,,PF,strong,7,,,,,,,,2,1.541085,,,,,,,,,,,,,,,,,,,,,,,,,,,,2,strong,-127,-47,1,0,0,response5disk,4,47,13,3,1,0,0,rectangle,13,3,1,0,0,,6,1,0.000395,13,3,1,0,0,,0,46,46,145,1,0,,,,,,,,,,,,,,,,,,,
,,,,,,,,,,,,,,,,,,,,,,,,,,,,,,,,,,,,,,,,,,5ff1c44bfef4d15dbc331ace,606843596c08de6cb2c25cbd,2021-04-03_13h28.53.426,Colour_Similarity_Experiment,2020.2.10,Win32,60,60674ec340277cd6a308bc9f,12.78606593,6.962207358,6.951615044,6.947341637,6.943808962,6.947341637,,,,,,,,,,,,,,,,,,,,PF,weak,7,,,,,,,,5,1.811845,,,,,,,,,,,,,,,,,,,,,,,,,,,,4,weak,97,-39,1,0,0,response3disk,8,48,16,5,1,0,0,rectangle,16,5,1,0,0,,6,6,0.000435,16,5,1,0,0,,0,47,47,124,1,0,,,,,,,,,,,,,,,,,,,
,,,,,,,,,,,,,,,,,,,,,,,,,,,,,,,,,,,,,,,,,,5ff1c44bfef4d15dbc331ace,606843596c08de6cb2c25cbd,2021-04-03_13h28.53.426,Colour_Similarity_Experiment,2020.2.10,Win32,60,60674ec340277cd6a308bc9f,12.78606593,6.962207358,6.951615044,6.947341637,6.943808962,6.947341637,,,,,,,,,,,,,,,,,,,,PF,strong,7,,,,,,,,4,2.610535,,,,,,,,,,,,,,,,,,,,,,,,,,,,5,strong,48,-97,1,0,0,response3disk,9,49,5,-2,1,0,0,rectangle,5,-2,1,0,0,,6,1,0.00043,5,-2,1,0,0,,0,48,48,61,1,0,,,,,,,,,,,,,,,,,,,
,,,,,,,,,,,,,,,,,,,,,,,,,,,,,,,,,,,,,,,,,,5ff1c44bfef4d15dbc331ace,606843596c08de6cb2c25cbd,2021-04-03_13h28.53.426,Colour_Similarity_Experiment,2020.2.10,Win32,60,60674ec340277cd6a308bc9f,12.78606593,6.962207358,6.951615044,6.947341637,6.943808962,6.947341637,,,,,,,,,,,,,,,,,,,,PF,strong,7,,,,,,,,5,2.97866,,,,,,,,,,,,,,,,,,,,,,,,,,,,7,strong,100,-64,1,0,0,response3disk,8,50,15,-7,1,0,0,rectangle,61,119,1,0,0,response1disk_3,7,7,2.326795,-2,0,1,0,0,rectangle,0,49,49,97,1,1,,,,,,,,,,,,,,,,,,,
,,,,,,,,,,,,,,,,,,,,,,,,,,,,,,,,,,,,,,,,,,5ff1c44bfef4d15dbc331ace,606843596c08de6cb2c25cbd,2021-04-03_13h28.53.426,Colour_Similarity_Experiment,2020.2.10,Win32,60,60674ec340277cd6a308bc9f,12.78606593,6.962207358,6.951615044,6.947341637,6.943808962,6.947341637,,,,,,,,,,,,,,,,,,,,PF,weak,7,,,,,,,,5,4.55558,,,,,,,,,,,,,,,,,,,,,,,,,,,,8,weak,100,-38,1,0,0,response3disk,3,51,7,0,1,0,0,rectangle,7,0,1,0,0,,7,3,0.0004,7,0,1,0,0,,0,50,50,71,1,0,,,,,,,,,,,,,,,,,,,
,,,,,,,,,,,,,,,,,,,,,,,,,,,,,,,,,,,,,,,,,,5ff1c44bfef4d15dbc331ace,606843596c08de6cb2c25cbd,2021-04-03_13h28.53.426,Colour_Similarity_Experiment,2020.2.10,Win32,60,60674ec340277cd6a308bc9f,12.78606593,6.962207358,6.951615044,6.947341637,6.943808962,6.947341637,,,,,,,,,,,,,,,,,,,,PF,strong,7,,,,,,,,3,2.257005,,,,,,,,,,,,,,,,,,,,,,,,,,,,1,strong,-49,-81,1,0,0,response5disk,6,52,-4,4,1,0,0,rectangle,-4,4,1,0,0,,7,4,0.000405,-4,4,1,0,0,,0,51,51,58,1,0,,,,,,,,,,,,,,,,,,,
,,,,,,,,,,,,,,,,,,,,,,,,,,,,,,,,,,,,,,,,,,5ff1c44bfef4d15dbc331ace,606843596c08de6cb2c25cbd,2021-04-03_13h28.53.426,Colour_Similarity_Experiment,2020.2.10,Win32,60,60674ec340277cd6a308bc9f,12.78606593,6.962207358,6.951615044,6.947341637,6.943808962,6.947341637,,,,,,,,,,,,,,,,,,,,PF,weak,7,,,,,,,,3,2.91668,,,,,,,,,,,,,,,,,,,,,,,,,,,,7,weak,-44,-91,1,0,0,response5disk,5,53,9,5,1,0,0,rectangle,9,5,1,0,0,,7,6,0.000405,9,5,1,0,0,,0,52,52,92,1,0,,,,,,,,,,,,,,,,,,,
,,,,,,,,,,,,,,,,,,,,,,,,,,,,,,,,,,,,,,,,,,5ff1c44bfef4d15dbc331ace,606843596c08de6cb2c25cbd,2021-04-03_13h28.53.426,Colour_Similarity_Experiment,2020.2.10,Win32,60,60674ec340277cd6a308bc9f,12.78606593,6.962207358,6.951615044,6.947341637,6.943808962,6.947341637,,,,,,,,,,,,,,,,,,,,PF,strong,7,,,,,,,,4,2.34724,,,,,,,,,,,,,,,,,,,,,,,,,,,,3,strong,73,-86,1,0,0,response3disk,8,54,23,-3,1,0,0,rectangle,23,-3,1,0,0,,7,1,0.000405,23,-3,1,0,0,,0,53,53,44,1,0,,,,,,,,,,,,,,,,,,,
,,,,,,,,,,,,,,,,,,,,,,,,,,,,,,,,,,,,,,,,,,5ff1c44bfef4d15dbc331ace,606843596c08de6cb2c25cbd,2021-04-03_13h28.53.426,Colour_Similarity_Experiment,2020.2.10,Win32,60,60674ec340277cd6a308bc9f,12.78606593,6.962207358,6.951615044,6.947341637,6.943808962,6.947341637,,,,,,,,,,,,,,,,,,,,PF,strong,7,,,,,,,,3,1.1598,,,,,,,,,,,,,,,,,,,,,,,,,,,,6,strong,-58,-89,1,0,0,response5disk,8,55,-10,-3,1,0,0,rectangle,-10,-3,1,0,0,,7,6,0.00043,-10,-3,1,0,0,,0,54,54,133,1,0,,,,,,,,,,,,,,,,,,,
,,,,,,,,,,,,,,,,,,,,,,,,,,,,,,,,,,,,,,,,,,5ff1c44bfef4d15dbc331ace,606843596c08de6cb2c25cbd,2021-04-03_13h28.53.426,Colour_Similarity_Experiment,2020.2.10,Win32,60,60674ec340277cd6a308bc9f,12.78606593,6.962207358,6.951615044,6.947341637,6.943808962,6.947341637,,,,,,,,,,,,,,,,,,,,PF,strong,7,,,,,,,,4,1.201325,,,,,,,,,,,,,,,,,,,,,,,,,,,,9,strong,43,-89,1,0,0,response3disk,9,56,-2,-4,1,0,0,rectangle,-2,-4,1,0,0,,7,3,0.000455,-2,-4,1,0,0,,0,55,55,17,1,0,,,,,,,,,,,,,,,,,,,
,,,,,,,,,,,,,,,,,,,,,,,,,,,,,,,,,,,,,,,,,,5ff1c44bfef4d15dbc331ace,606843596c08de6cb2c25cbd,2021-04-03_13h28.53.426,Colour_Similarity_Experiment,2020.2.10,Win32,60,60674ec340277cd6a308bc9f,12.78606593,6.962207358,6.951615044,6.947341637,6.943808962,6.947341637,,,,,,,,,,,,,,,,,,,,PF,weak,7,,,,,,,,4,2.25009,,,,,,,,,,,,,,,,,,,,,,,,,,,,5,weak,47,-90,1,0,0,response3disk,2,57,6,-6,1,0,0,rectangle,6,-6,1,0,0,,7,2,0.00054,6,-6,1,0,0,,0,56,56,129,1,0,,,,,,,,,,,,,,,,,,,
,,,,,,,,,,,,,,,,,,,,,,,,,,,,,,,,,,,,,,,,,,5ff1c44bfef4d15dbc331ace,606843596c08de6cb2c25cbd,2021-04-03_13h28.53.426,Colour_Similarity_Experiment,2020.2.10,Win32,60,60674ec340277cd6a308bc9f,12.78606593,6.962207358,6.951615044,6.947341637,6.943808962,6.947341637,,,,,,,,,,,,,,,,,,,,PF,strong,7,,,,,,,,3,2.83333,,,,,,,,,,,,,,,,,,,,,,,,,,,,2,strong,-39,-97,1,0,0,response5disk,8,58,3,1,1,0,0,rectangle,3,1,1,0,0,,7,2,0.000065,3,1,1,0,0,,0,57,57,62,1,0,,,,,,,,,,,,,,,,,,,
,,,,,,,,,,,,,,,,,,,,,,,,,,,,,,,,,,,,,,,,,,5ff1c44bfef4d15dbc331ace,606843596c08de6cb2c25cbd,2021-04-03_13h28.53.426,Colour_Similarity_Experiment,2020.2.10,Win32,60,60674ec340277cd6a308bc9f,12.78606593,6.962207358,6.951615044,6.947341637,6.943808962,6.947341637,,,,,,,,,,,,,,,,,,,,PF,strong,7,,,,,,,,1,2.256955,,,,,,,,,,,,,,,,,,,,,,,,,,,,6,strong,-105,42,1,0,0,response7disk,3,59,-32,11,1,0,0,rectangle,-32,11,1,0,0,,7,7,0.0004,-32,11,1,0,0,,0,58,58,21,1,0,,,,,,,,,,,,,,,,,,,
,,,,,,,,,,,,,,,,,,,,,,,,,,,,,,,,,,,,,,,,,,5ff1c44bfef4d15dbc331ace,606843596c08de6cb2c25cbd,2021-04-03_13h28.53.426,Colour_Similarity_Experiment,2020.2.10,Win32,60,60674ec340277cd6a308bc9f,12.78606593,6.962207358,6.951615044,6.947341637,6.943808962,6.947341637,,,,,,,,,,,,,,,,,,,,PF,weak,7,,,,,,,,1,1.22229,,,,,,,,,,,,,,,,,,,,,,,,,,,,6,weak,-95,45,1,0,0,response7disk,3,60,-20,0,1,0,0,rectangle,-20,0,1,0,0,,7,2,0.00051,-20,0,1,0,0,,0,59,59,26,1,0,,,,,,,,,,,,,,,,,,,
,,,,,,,,,,,,,,,,,,,,,,,,,,,,,,,,,,,,,,,,,,5ff1c44bfef4d15dbc331ace,606843596c08de6cb2c25cbd,2021-04-03_13h28.53.426,Colour_Similarity_Experiment,2020.2.10,Win32,60,60674ec340277cd6a308bc9f,12.78606593,6.962207358,6.951615044,6.947341637,6.943808962,6.947341637,,,,,,,,,,,,,,,,,,,,PF,weak,7,,,,,,,,3,1.97227,,,,,,,,,,,,,,,,,,,,,,,,,,,,2,weak,-64,-109,1,0,0,response5disk,9,61,-13,-7,1,0,0,rectangle,-13,-7,1,0,0,,7,6,0.00043,-13,-7,1,0,0,,0,60,60,39,1,0,,,,,,,,,,,,,,,,,,,
,,,,,,,,,,,,,,,,,,,,,,,,,,,,,,,,,,,,,,,,,,5ff1c44bfef4d15dbc331ace,606843596c08de6cb2c25cbd,2021-04-03_13h28.53.426,Colour_Similarity_Experiment,2020.2.10,Win32,60,60674ec340277cd6a308bc9f,12.78606593,6.962207358,6.951615044,6.947341637,6.943808962,6.947341637,,,,,,,,,,,,,,,,,,,,PF,weak,7,,,,,,,,0,1.319455,,,,,,,,,,,,,,,,,,,,,,,,,,,,3,weak,-50,100,1,0,0,response7disk,4,62,-8,8,1,0,0,rectangle,-8,8,1,0,0,,7,4,0.000425,-8,8,1,0,0,,0,61,61,30,1,0,,,,,,,,,,,,,,,,,,,
,,,,,,,,,,,,,,,,,,,,,,,,,,,,,,,,,,,,,,,,,,5ff1c44bfef4d15dbc331ace,606843596c08de6cb2c25cbd,2021-04-03_13h28.53.426,Colour_Similarity_Experiment,2020.2.10,Win32,60,60674ec340277cd6a308bc9f,12.78606593,6.962207358,6.951615044,6.947341637,6.943808962,6.947341637,,,,,,,,,,,,,,,,,,,,PF,strong,7,,,,,,,,1,1.27773,,,,,,,,,,,,,,,,,,,,,,,,,,,,7,strong,-110,55,1,0,0,response7disk,3,63,-19,7,1,0,0,rectangle,-19,7,1,0,0,,7,2,0.000395,-19,7,1,0,0,,0,62,62,73,1,0,,,,,,,,,,,,,,,,,,,
,,,,,,,,,,,,,,,,,,,,,,,,,,,,,,,,,,,,,,,,,,5ff1c44bfef4d15dbc331ace,606843596c08de6cb2c25cbd,2021-04-03_13h28.53.426,Colour_Similarity_Experiment,2020.2.10,Win32,60,60674ec340277cd6a308bc9f,12.78606593,6.962207358,6.951615044,6.947341637,6.943808962,6.947341637,,,,,,,,,,,,,,,,,,,,PF,weak,7,,,,,,,,5,1.631935,,,,,,,,,,,,,,,,,,,,,,,,,,,,3,weak,107,-62,1,0,0,response3disk,6,64,14,-4,1,0,0,rectangle,14,-4,1,0,0,,7,0,0.00052,14,-4,1,0,0,,0,63,63,47,1,0,,,,,,,,,,,,,,,,,,,
,,,,,,,,,,,,,,,,,,,,,,,,,,,,,,,,,,,,,,,,,,5ff1c44bfef4d15dbc331ace,606843596c08de6cb2c25cbd,2021-04-03_13h28.53.426,Colour_Similarity_Experiment,2020.2.10,Win32,60,60674ec340277cd6a308bc9f,12.78606593,6.962207358,6.951615044,6.947341637,6.943808962,6.947341637,,,,,,,,,,,,,,,,,,,,PF,strong,7,,,,,,,,6,2.076585,,,,,,,,,,,,,,,,,,,,,,,,,,,,5,strong,126,33,1,0,0,response1disk,2,65,15,-3,1,0,0,rectangle,-54,-116,1,0,0,response5disk_3,3,3,2.180435,9,4,1,0,0,rectangle,0,64,64,55,1,1,,,,,,,,,,,,,,,,,,,
,,,,,,,,,,,,,,,,,,,,,,,,,,,,,,,,,,,,,,,,,,5ff1c44bfef4d15dbc331ace,606843596c08de6cb2c25cbd,2021-04-03_13h28.53.426,Colour_Similarity_Experiment,2020.2.10,Win32,60,60674ec340277cd6a308bc9f,12.78606593,6.962207358,6.951615044,6.947341637,6.943808962,6.947341637,,,,,,,,,,,,,,,,,,,,PF,strong,7,,,,,,,,3,2.583365,,,,,,,,,,,,,,,,,,,,,,,,,,,,5,strong,-43,-81,1,0,0,response5disk,6,66,5,6,1,0,0,rectangle,5,6,1,0,0,,3,5,0.000935,5,6,1,0,0,,0,65,65,12,1,0,,,,,,,,,,,,,,,,,,,
,,,,,,,,,,,,,,,,,,,,,,,,,,,,,,,,,,,,,,,,,,5ff1c44bfef4d15dbc331ace,606843596c08de6cb2c25cbd,2021-04-03_13h28.53.426,Colour_Similarity_Experiment,2020.2.10,Win32,60,60674ec340277cd6a308bc9f,12.78606593,6.962207358,6.951615044,6.947341637,6.943808962,6.947341637,,,,,,,,,,,,,,,,,,,,PF,strong,7,,,,,,,,1,1.58335,,,,,,,,,,,,,,,,,,,,,,,,,,,,6,strong,-117,44,1,0,0,response7disk,5,67,19,-2,1,0,0,rectangle,19,-2,1,0,0,,3,6,0.000405,19,-2,1,0,0,,0,66,66,126,1,0,,,,,,,,,,,,,,,,,,,
,,,,,,,,,,,,,,,,,,,,,,,,,,,,,,,,,,,,,,,,,,5ff1c44bfef4d15dbc331ace,606843596c08de6cb2c25cbd,2021-04-03_13h28.53.426,Colour_Similarity_Experiment,2020.2.10,Win32,60,60674ec340277cd6a308bc9f,12.78606593,6.962207358,6.951615044,6.947341637,6.943808962,6.947341637,,,,,,,,,,,,,,,,,,,,PF,strong,7,,,,,,,,5,1.22914,,,,,,,,,,,,,,,,,,,,,,,,,,,,7,strong,101,-52,1,0,0,response3disk,2,68,-12,-3,1,0,0,rectangle,-12,-3,1,0,0,,3,5,0.00044,-12,-3,1,0,0,,0,67,67,138,1,0,,,,,,,,,,,,,,,,,,,
,,,,,,,,,,,,,,,,,,,,,,,,,,,,,,,,,,,,,,,,,,5ff1c44bfef4d15dbc331ace,606843596c08de6cb2c25cbd,2021-04-03_13h28.53.426,Colour_Similarity_Experiment,2020.2.10,Win32,60,60674ec340277cd6a308bc9f,12.78606593,6.962207358,6.951615044,6.947341637,6.943808962,6.947341637,,,,,,,,,,,,,,,,,,,,PF,strong,7,,,,,,,,2,1.326445,,,,,,,,,,,,,,,,,,,,,,,,,,,,3,strong,-109,-44,1,0,0,response5disk,4,69,-19,-6,1,0,0,rectangle,-19,-6,1,0,0,,3,6,0.00039,-19,-6,1,0,0,,0,68,68,110,1,0,,,,,,,,,,,,,,,,,,,
,,,,,,,,,,,,,,,,,,,,,,,,,,,,,,,,,,,,,,,,,,5ff1c44bfef4d15dbc331ace,606843596c08de6cb2c25cbd,2021-04-03_13h28.53.426,Colour_Similarity_Experiment,2020.2.10,Win32,60,60674ec340277cd6a308bc9f,12.78606593,6.962207358,6.951615044,6.947341637,6.943808962,6.947341637,,,,,,,,,,,,,,,,,,,,PF,weak,7,,,,,,,,7,1.513885,,,,,,,,,,,,,,,,,,,,,,,,,,,,5,weak,64,85,1,0,0,response1disk,1,70,3,-6,1,0,0,rectangle,124,45,1,0,0,response1disk_3,6,6,2.07648,2,0,1,0,0,rectangle,0,69,69,159,1,1,,,,,,,,,,,,,,,,,,,
,,,,,,,,,,,,,,,,,,,,,,,,,,,,,,,,,,,,,,,,,,5ff1c44bfef4d15dbc331ace,606843596c08de6cb2c25cbd,2021-04-03_13h28.53.426,Colour_Similarity_Experiment,2020.2.10,Win32,60,60674ec340277cd6a308bc9f,12.78606593,6.962207358,6.951615044,6.947341637,6.943808962,6.947341637,,,,,,,,,,,,,,,,,,,,PF,weak,7,,,,,,,,3,2.36797,,,,,,,,,,,,,,,,,,,,,,,,,,,,4,weak,-54,-100,1,0,0,response5disk,6,71,2,-11,1,0,0,rectangle,2,-11,1,0,0,,6,1,0.00048,2,-11,1,0,0,,0,70,70,120,1,0,,,,,,,,,,,,,,,,,,,
,,,,,,,,,,,,,,,,,,,,,,,,,,,,,,,,,,,,,,,,,,5ff1c44bfef4d15dbc331ace,606843596c08de6cb2c25cbd,2021-04-03_13h28.53.426,Colour_Similarity_Experiment,2020.2.10,Win32,60,60674ec340277cd6a308bc9f,12.78606593,6.962207358,6.951615044,6.947341637,6.943808962,6.947341637,,,,,,,,,,,,,,,,,,,,PF,weak,7,,,,,,,,3,2.229155,,,,,,,,,,,,,,,,,,,,,,,,,,,,7,weak,-35,-100,1,0,0,response5disk,4,72,3,0,1,0,0,rectangle,3,0,1,0,0,,6,5,0.00045,3,0,1,0,0,,0,71,71,43,1,0,,,,,,,,,,,,,,,,,,,
,,,,,,,,,,,,,,,,,,,,,,,,,,,,,,,,,,,,,,,,,,5ff1c44bfef4d15dbc331ace,606843596c08de6cb2c25cbd,2021-04-03_13h28.53.426,Colour_Similarity_Experiment,2020.2.10,Win32,60,60674ec340277cd6a308bc9f,12.78606593,6.962207358,6.951615044,6.947341637,6.943808962,6.947341637,,,,,,,,,,,,,,,,,,,,PF,strong,7,,,,,,,,2,0.972015,,,,,,,,,,,,,,,,,,,,,,,,,,,,5,strong,-112,-53,1,0,0,response5disk,5,73,18,3,1,0,0,rectangle,18,3,1,0,0,,6,2,0.00044,18,3,1,0,0,,0,72,72,19,1,0,,,,,,,,,,,,,,,,,,,
,,,,,,,,,,,,,,,,,,,,,,,,,,,,,,,,,,,,,,,,,,5ff1c44bfef4d15dbc331ace,606843596c08de6cb2c25cbd,2021-04-03_13h28.53.426,Colour_Similarity_Experiment,2020.2.10,Win32,60,60674ec340277cd6a308bc9f,12.78606593,6.962207358,6.951615044,6.947341637,6.943808962,6.947341637,,,,,,,,,,,,,,,,,,,,PF,weak,7,,,,,,,,3,2.27085,,,,,,,,,,,,,,,,,,,,,,,,,,,,2,weak,-57,-93,1,0,0,response5disk,1,74,-10,-11,1,0,0,rectangle,-10,-11,1,0,0,,6,7,0.00041,-10,-11,1,0,0,,0,73,73,9,1,0,,,,,,,,,,,,,,,,,,,
,,,,,,,,,,,,,,,,,,,,,,,,,,,,,,,,,,,,,,,,,,5ff1c44bfef4d15dbc331ace,606843596c08de6cb2c25cbd,2021-04-03_13h28.53.426,Colour_Similarity_Experiment,2020.2.10,Win32,60,60674ec340277cd6a308bc9f,12.78606593,6.962207358,6.951615044,6.947341637,6.943808962,6.947341637,,,,,,,,,,,,,,,,,,,,PF,weak,7,,,,,,,,2,1.61111,,,,,,,,,,,,,,,,,,,,,,,,,,,,6,weak,-96,-40,1,0,0,response5disk,7,75,-7,3,1,0,0,rectangle,-7,3,1,0,0,,6,5,0.00051,-7,3,1,0,0,,0,74,74,50,1,0,,,,,,,,,,,,,,,,,,,
,,,,,,,,,,,,,,,,,,,,,,,,,,,,,,,,,,,,,,,,,,5ff1c44bfef4d15dbc331ace,606843596c08de6cb2c25cbd,2021-04-03_13h28.53.426,Colour_Similarity_Experiment,2020.2.10,Win32,60,60674ec340277cd6a308bc9f,12.78606593,6.962207358,6.951615044,6.947341637,6.943808962,6.947341637,,,,,,,,,,,,,,,,,,,,PF,weak,7,,,,,,,,5,1.36813,,,,,,,,,,,,,,,,,,,,,,,,,,,,3,weak,93,-44,1,0,0,response3disk,2,76,-19,-1,1,0,0,rectangle,60,111,1,0,0,response1disk_3,7,7,1.576085,-11,1,1,0,0,rectangle,0,75,75,36,1,1,,,,,,,,,,,,,,,,,,,
,,,,,,,,,,,,,,,,,,,,,,,,,,,,,,,,,,,,,,,,,,5ff1c44bfef4d15dbc331ace,606843596c08de6cb2c25cbd,2021-04-03_13h28.53.426,Colour_Similarity_Experiment,2020.2.10,Win32,60,60674ec340277cd6a308bc9f,12.78606593,6.962207358,6.951615044,6.947341637,6.943808962,6.947341637,,,,,,,,,,,,,,,,,,,,PF,weak,7,,,,,,,,0,1.54167,,,,,,,,,,,,,,,,,,,,,,,,,,,,2,weak,-67,90,1,0,0,response7disk,2,77,14,3,1,0,0,rectangle,14,3,1,0,0,,7,5,0.00048,14,3,1,0,0,,0,76,76,14,1,0,,,,,,,,,,,,,,,,,,,
,,,,,,,,,,,,,,,,,,,,,,,,,,,,,,,,,,,,,,,,,,5ff1c44bfef4d15dbc331ace,606843596c08de6cb2c25cbd,2021-04-03_13h28.53.426,Colour_Similarity_Experiment,2020.2.10,Win32,60,60674ec340277cd6a308bc9f,12.78606593,6.962207358,6.951615044,6.947341637,6.943808962,6.947341637,,,,,,,,,,,,,,,,,,,,PF,strong,7,,,,,,,,2,1.118555,,,,,,,,,,,,,,,,,,,,,,,,,,,,9,strong,-102,-37,1,0,0,response5disk,5,78,-17,-4,1,0,0,rectangle,-17,-4,1,0,0,,7,1,0.00044,-17,-4,1,0,0,,0,77,77,128,1,0,,,,,,,,,,,,,,,,,,,
,,,,,,,,,,,,,,,,,,,,,,,,,,,,,,,,,,,,,,,,,,5ff1c44bfef4d15dbc331ace,606843596c08de6cb2c25cbd,2021-04-03_13h28.53.426,Colour_Similarity_Experiment,2020.2.10,Win32,60,60674ec340277cd6a308bc9f,12.78606593,6.962207358,6.951615044,6.947341637,6.943808962,6.947341637,,,,,,,,,,,,,,,,,,,,PF,weak,7,,,,,,,,1,1.513845,,,,,,,,,,,,,,,,,,,,,,,,,,,,9,weak,-99,41,1,0,0,response7disk,6,79,0,2,1,0,0,rectangle,0,2,1,0,0,,7,3,0.000505,0,2,1,0,0,,0,78,78,148,1,0,,,,,,,,,,,,,,,,,,,
,,,,,,,,,,,,,,,,,,,,,,,,,,,,,,,,,,,,,,,,,,5ff1c44bfef4d15dbc331ace,606843596c08de6cb2c25cbd,2021-04-03_13h28.53.426,Colour_Similarity_Experiment,2020.2.10,Win32,60,60674ec340277cd6a308bc9f,12.78606593,6.962207358,6.951615044,6.947341637,6.943808962,6.947341637,,,,,,,,,,,,,,,,,,,,PF,weak,7,,,,,,,,2,1.20138,,,,,,,,,,,,,,,,,,,,,,,,,,,,9,weak,-115,-37,1,0,0,response5disk,5,80,1,-2,1,0,0,rectangle,1,-2,1,0,0,,7,3,0.00006,1,-2,1,0,0,,0,79,79,134,1,0,,,,,,,,,,,,,,,,,,,
,,,,,,,,,,,,,,,,,,,,,,,,,,,,,,,,,,,,,,,,,,5ff1c44bfef4d15dbc331ace,606843596c08de6cb2c25cbd,2021-04-03_13h28.53.426,Colour_Similarity_Experiment,2020.2.10,Win32,60,60674ec340277cd6a308bc9f,12.78606593,6.962207358,6.951615044,6.947341637,6.943808962,6.947341637,,,,,,,,,,,,,,,,,,,,PF,strong,7,,,,,,,,7,1.7709,,,,,,,,,,,,,,,,,,,,,,,,,,,,9,strong,53,86,1,0,0,response1disk,1,81,4,7,1,0,0,rectangle,4,7,1,0,0,,7,2,0.000455,4,7,1,0,0,,0,80,80,111,1,0,,,,,,,,,,,,,,,,,,,
,,,,,,,,,,,,,,,,,,,,,,,,,,,,,,,,,,,,,,,,,,5ff1c44bfef4d15dbc331ace,606843596c08de6cb2c25cbd,2021-04-03_13h28.53.426,Colour_Similarity_Experiment,2020.2.10,Win32,60,60674ec340277cd6a308bc9f,12.78606593,6.962207358,6.951615044,6.947341637,6.943808962,6.947341637,,,,,,,,,,,,,,,,,,,,PF,weak,7,,,,,,,,6,0.75785,,,,,,,,,,,,,,,,,,,,,,,,,,,,7,weak,90,38,1,0,0,response1disk,9,82,-7,-1,1,0,0,rectangle,-7,-1,1,0,0,,7,4,0.00045,-7,-1,1,0,0,,0,81,81,10,1,0,,,,,,,,,,,,,,,,,,,
,,,,,,,,,,,,,,,,,,,,,,,,,,,,,,,,,,,,,,,,,,5ff1c44bfef4d15dbc331ace,606843596c08de6cb2c25cbd,2021-04-03_13h28.53.426,Colour_Similarity_Experiment,2020.2.10,Win32,60,60674ec340277cd6a308bc9f,12.78606593,6.962207358,6.951615044,6.947341637,6.943808962,6.947341637,,,,,,,,,,,,,,,,,,,,PF,strong,7,,,,,,,,5,2.131825,,,,,,,,,,,,,,,,,,,,,,,,,,,,5,strong,74,-45,1,0,0,response3disk,7,83,-6,-7,1,0,0,rectangle,-6,-7,1,0,0,,7,1,0.000405,-6,-7,1,0,0,,0,82,82,7,1,0,,,,,,,,,,,,,,,,,,,
,,,,,,,,,,,,,,,,,,,,,,,,,,,,,,,,,,,,,,,,,,5ff1c44bfef4d15dbc331ace,606843596c08de6cb2c25cbd,2021-04-03_13h28.53.426,Colour_Similarity_Experiment,2020.2.10,Win32,60,60674ec340277cd6a308bc9f,12.78606593,6.962207358,6.951615044,6.947341637,6.943808962,6.947341637,,,,,,,,,,,,,,,,,,,,PF,weak,7,,,,,,,,2,1.541665,,,,,,,,,,,,,,,,,,,,,,,,,,,,8,weak,-85,-61,1,0,0,response5disk,4,84,1,-9,1,0,0,rectangle,1,-9,1,0,0,,7,5,0.00038,1,-9,1,0,0,,0,83,83,78,1,0,,,,,,,,,,,,,,,,,,,
,,,,,,,,,,,,,,,,,,,,,,,,,,,,,,,,,,,,,,,,,,5ff1c44bfef4d15dbc331ace,606843596c08de6cb2c25cbd,2021-04-03_13h28.53.426,Colour_Similarity_Experiment,2020.2.10,Win32,60,60674ec340277cd6a308bc9f,12.78606593,6.962207358,6.951615044,6.947341637,6.943808962,6.947341637,,,,,,,,,,,,,,,,,,,,PF,weak,7,,,,,,,,6,1.151875,,,,,,,,,,,,,,,,,,,,,,,,,,,,1,weak,99,34,1,0,0,response1disk,4,85,23,4,1,0,0,rectangle,23,4,1,0,0,,7,0,0.00042,23,4,1,0,0,,0,84,84,139,1,0,,,,,,,,,,,,,,,,,,,
,,,,,,,,,,,,,,,,,,,,,,,,,,,,,,,,,,,,,,,,,,5ff1c44bfef4d15dbc331ace,606843596c08de6cb2c25cbd,2021-04-03_13h28.53.426,Colour_Similarity_Experiment,2020.2.10,Win32,60,60674ec340277cd6a308bc9f,12.78606593,6.962207358,6.951615044,6.947341637,6.943808962,6.947341637,,,,,,,,,,,,,,,,,,,,PF,strong,7,,,,,,,,5,2.15221,,,,,,,,,,,,,,,,,,,,,,,,,,,,4,strong,104,-63,1,0,0,response3disk,7,86,6,-17,1,0,0,rectangle,6,-17,1,0,0,,7,0,0.00005,6,-17,1,0,0,,0,85,85,87,1,0,,,,,,,,,,,,,,,,,,,
,,,,,,,,,,,,,,,,,,,,,,,,,,,,,,,,,,,,,,,,,,5ff1c44bfef4d15dbc331ace,606843596c08de6cb2c25cbd,2021-04-03_13h28.53.426,Colour_Similarity_Experiment,2020.2.10,Win32,60,60674ec340277cd6a308bc9f,12.78606593,6.962207358,6.951615044,6.947341637,6.943808962,6.947341637,,,,,,,,,,,,,,,,,,,,PF,weak,7,,,,,,,,3,1.311895,,,,,,,,,,,,,,,,,,,,,,,,,,,,5,weak,-49,-88,1,0,0,response5disk,4,87,-6,-3,1,0,0,rectangle,-6,-3,1,0,0,,7,4,0.00038,-6,-3,1,0,0,,0,86,86,54,1,0,,,,,,,,,,,,,,,,,,,
,,,,,,,,,,,,,,,,,,,,,,,,,,,,,,,,,,,,,,,,,,5ff1c44bfef4d15dbc331ace,606843596c08de6cb2c25cbd,2021-04-03_13h28.53.426,Colour_Similarity_Experiment,2020.2.10,Win32,60,60674ec340277cd6a308bc9f,12.78606593,6.962207358,6.951615044,6.947341637,6.943808962,6.947341637,,,,,,,,,,,,,,,,,,,,PF,weak,7,,,,,,,,5,1.31889,,,,,,,,,,,,,,,,,,,,,,,,,,,,8,weak,104,-57,1,0,0,response3disk,2,88,4,0,1,0,0,rectangle,4,0,1,0,0,,7,7,0.00042,4,0,1,0,0,,0,87,87,83,1,0,,,,,,,,,,,,,,,,,,,
,,,,,,,,,,,,,,,,,,,,,,,,,,,,,,,,,,,,,,,,,,5ff1c44bfef4d15dbc331ace,606843596c08de6cb2c25cbd,2021-04-03_13h28.53.426,Colour_Similarity_Experiment,2020.2.10,Win32,60,60674ec340277cd6a308bc9f,12.78606593,6.962207358,6.951615044,6.947341637,6.943808962,6.947341637,,,,,,,,,,,,,,,,,,,,PF,strong,7,,,,,,,,4,1.006435,,,,,,,,,,,,,,,,,,,,,,,,,,,,5,strong,61,-91,1,0,0,response3disk,8,89,-3,3,1,0,0,rectangle,-3,3,1,0,0,,7,2,0.000395,-3,3,1,0,0,,0,88,88,16,1,0,,,,,,,,,,,,,,,,,,,
,,,,,,,,,,,,,,,,,,,,,,,,,,,,,,,,,,,,,,,,,,5ff1c44bfef4d15dbc331ace,606843596c08de6cb2c25cbd,2021-04-03_13h28.53.426,Colour_Similarity_Experiment,2020.2.10,Win32,60,60674ec340277cd6a308bc9f,12.78606593,6.962207358,6.951615044,6.947341637,6.943808962,6.947341637,,,,,,,,,,,,,,,,,,,,PF,strong,7,,,,,,,,3,1.48563,,,,,,,,,,,,,,,,,,,,,,,,,,,,6,strong,-56,-91,1,0,0,response5disk,7,90,0,-4,1,0,0,rectangle,0,-4,1,0,0,,7,4,0.000385,0,-4,1,0,0,,0,89,89,18,1,0,,,,,,,,,,,,,,,,,,,
,,,,,,,,,,,,,,,,,,,,,,,,,,,,,,,,,,,,,,,,,,5ff1c44bfef4d15dbc331ace,606843596c08de6cb2c25cbd,2021-04-03_13h28.53.426,Colour_Similarity_Experiment,2020.2.10,Win32,60,60674ec340277cd6a308bc9f,12.78606593,6.962207358,6.951615044,6.947341637,6.943808962,6.947341637,,,,,,,,,,,,,,,,,,,,PF,weak,7,,,,,,,,2,1.1314,,,,,,,,,,,,,,,,,,,,,,,,,,,,9,weak,-96,-58,1,0,0,response5disk,1,91,-6,-14,1,0,0,rectangle,-6,-14,1,0,0,,7,1,0.00039,-6,-14,1,0,0,,0,90,90,74,1,0,,,,,,,,,,,,,,,,,,,
,,,,,,,,,,,,,,,,,,,,,,,,,,,,,,,,,,,,,,,,,,5ff1c44bfef4d15dbc331ace,606843596c08de6cb2c25cbd,2021-04-03_13h28.53.426,Colour_Similarity_Experiment,2020.2.10,Win32,60,60674ec340277cd6a308bc9f,12.78606593,6.962207358,6.951615044,6.947341637,6.943808962,6.947341637,,,,,,,,,,,,,,,,,,,,PF,strong,7,,,,,,,,5,1.207825,,,,,,,,,,,,,,,,,,,,,,,,,,,,4,strong,113,-44,1,0,0,response3disk,1,92,10,-9,1,0,0,rectangle,10,-9,1,0,0,,7,0,0.000405,10,-9,1,0,0,,0,91,91,102,1,0,,,,,,,,,,,,,,,,,,,
,,,,,,,,,,,,,,,,,,,,,,,,,,,,,,,,,,,,,,,,,,5ff1c44bfef4d15dbc331ace,606843596c08de6cb2c25cbd,2021-04-03_13h28.53.426,Colour_Similarity_Experiment,2020.2.10,Win32,60,60674ec340277cd6a308bc9f,12.78606593,6.962207358,6.951615044,6.947341637,6.943808962,6.947341637,,,,,,,,,,,,,,,,,,,,PF,weak,7,,,,,,,,0,1.40924,,,,,,,,,,,,,,,,,,,,,,,,,,,,1,weak,-71,111,1,0,0,response7disk,1,93,1,5,1,0,0,rectangle,-54,106,1,0,0,response7disk_3,0,0,1.375065,15,-2,1,0,0,rectangle,0,92,92,76,1,1,,,,,,,,,,,,,,,,,,,
,,,,,,,,,,,,,,,,,,,,,,,,,,,,,,,,,,,,,,,,,,5ff1c44bfef4d15dbc331ace,606843596c08de6cb2c25cbd,2021-04-03_13h28.53.426,Colour_Similarity_Experiment,2020.2.10,Win32,60,60674ec340277cd6a308bc9f,12.78606593,6.962207358,6.951615044,6.947341637,6.943808962,6.947341637,,,,,,,,,,,,,,,,,,,,PF,strong,7,,,,,,,,3,2.22221,,,,,,,,,,,,,,,,,,,,,,,,,,,,6,strong,-45,-97,1,0,0,response5disk,2,94,9,-1,1,0,0,rectangle,9,-1,1,0,0,,0,3,0.00044,9,-1,1,0,0,,0,93,93,112,1,0,,,,,,,,,,,,,,,,,,,
,,,,,,,,,,,,,,,,,,,,,,,,,,,,,,,,,,,,,,,,,,5ff1c44bfef4d15dbc331ace,606843596c08de6cb2c25cbd,2021-04-03_13h28.53.426,Colour_Similarity_Experiment,2020.2.10,Win32,60,60674ec340277cd6a308bc9f,12.78606593,6.962207358,6.951615044,6.947341637,6.943808962,6.947341637,,,,,,,,,,,,,,,,,,,,PF,weak,7,,,,,,,,0,1.062815,,,,,,,,,,,,,,,,,,,,,,,,,,,,6,weak,-58,98,1,0,0,response7disk,6,95,7,-14,1,0,0,rectangle,7,-14,1,0,0,,0,5,0.00039,7,-14,1,0,0,,0,94,94,0,1,0,,,,,,,,,,,,,,,,,,,
,,,,,,,,,,,,,,,,,,,,,,,,,,,,,,,,,,,,,,,,,,5ff1c44bfef4d15dbc331ace,606843596c08de6cb2c25cbd,2021-04-03_13h28.53.426,Colour_Similarity_Experiment,2020.2.10,Win32,60,60674ec340277cd6a308bc9f,12.78606593,6.962207358,6.951615044,6.947341637,6.943808962,6.947341637,,,,,,,,,,,,,,,,,,,,PF,strong,7,,,,,,,,1,1.013325,,,,,,,,,,,,,,,,,,,,,,,,,,,,6,strong,-113,40,1,0,0,response7disk,6,96,9,-11,1,0,0,rectangle,9,-11,1,0,0,,0,2,0.000405,9,-11,1,0,0,,0,95,95,91,1,0,,,,,,,,,,,,,,,,,,,
,,,,,,,,,,,,,,,,,,,,,,,,,,,,,,,,,,,,,,,,,,5ff1c44bfef4d15dbc331ace,606843596c08de6cb2c25cbd,2021-04-03_13h28.53.426,Colour_Similarity_Experiment,2020.2.10,Win32,60,60674ec340277cd6a308bc9f,12.78606593,6.962207358,6.951615044,6.947341637,6.943808962,6.947341637,,,,,,,,,,,,,,,,,,,,PF,weak,7,,,,,,,,7,1.111065,,,,,,,,,,,,,,,,,,,,,,,,,,,,7,weak,25,97,1,0,0,response1disk,1,97,5,8,1,0,0,rectangle,5,8,1,0,0,,0,1,0.000435,5,8,1,0,0,,0,96,96,53,1,0,,,,,,,,,,,,,,,,,,,
,,,,,,,,,,,,,,,,,,,,,,,,,,,,,,,,,,,,,,,,,,5ff1c44bfef4d15dbc331ace,606843596c08de6cb2c25cbd,2021-04-03_13h28.53.426,Colour_Similarity_Experiment,2020.2.10,Win32,60,60674ec340277cd6a308bc9f,12.78606593,6.962207358,6.951615044,6.947341637,6.943808962,6.947341637,,,,,,,,,,,,,,,,,,,,PF,weak,7,,,,,,,,3,1.283725,,,,,,,,,,,,,,,,,,,,,,,,,,,,3,weak,-66,-78,1,0,0,response5disk,9,98,-12,6,1,0,0,rectangle,-12,6,1,0,0,,0,0,0.00042,-12,6,1,0,0,,0,97,97,79,1,0,,,,,,,,,,,,,,,,,,,
,,,,,,,,,,,,,,,,,,,,,,,,,,,,,,,,,,,,,,,,,,5ff1c44bfef4d15dbc331ace,606843596c08de6cb2c25cbd,2021-04-03_13h28.53.426,Colour_Similarity_Experiment,2020.2.10,Win32,60,60674ec340277cd6a308bc9f,12.78606593,6.962207358,6.951615044,6.947341637,6.943808962,6.947341637,,,,,,,,,,,,,,,,,,,,PF,weak,7,,,,,,,,2,1.36056,,,,,,,,,,,,,,,,,,,,,,,,,,,,2,weak,-73,-52,1,0,0,response5disk,3,99,-14,-13,1,0,0,rectangle,-14,-13,1,0,0,,0,1,0.000395,-14,-13,1,0,0,,0,98,98,69,1,0,,,,,,,,,,,,,,,,,,,
,,,,,,,,,,,,,,,,,,,,,,,,,,,,,,,,,,,,,,,,,,5ff1c44bfef4d15dbc331ace,606843596c08de6cb2c25cbd,2021-04-03_13h28.53.426,Colour_Similarity_Experiment,2020.2.10,Win32,60,60674ec340277cd6a308bc9f,12.78606593,6.962207358,6.951615044,6.947341637,6.943808962,6.947341637,,,,,,,,,,,,,,,,,,,,PF,strong,7,,,,,,,,3,1.63838,,,,,,,,,,,,,,,,,,,,,,,,,,,,2,strong,-46,-86,1,0,0,response5disk,2,100,-8,-10,1,0,0,rectangle,-8,-10,1,0,0,,0,2,0.00039,-8,-10,1,0,0,,0,99,99,142,1,0,,,,,,,,,,,,,,,,,,,
,,,,,,,,,,,,,,,,,,,,,,,,,,,,,,,,,,,,,,,,,,5ff1c44bfef4d15dbc331ace,606843596c08de6cb2c25cbd,2021-04-03_13h28.53.426,Colour_Similarity_Experiment,2020.2.10,Win32,60,60674ec340277cd6a308bc9f,12.78606593,6.962207358,6.951615044,6.947341637,6.943808962,6.947341637,,,,,,,,,,,,,,,,,,,,PF,strong,7,,,,,,,,0,1.242555,,,,,,,,,,,,,,,,,,,,,,,,,,,,9,strong,-47,83,1,0,0,response7disk,4,101,0,16,1,0,0,rectangle,0,16,1,0,0,,0,2,5.5E-05,0,16,1,0,0,,0,100,100,60,1,0,,,,,,,,,,,,,,,,,,,
,,,,,,,,,,,,,,,,,,,,,,,,,,,,,,,,,,,,,,,,,,5ff1c44bfef4d15dbc331ace,606843596c08de6cb2c25cbd,2021-04-03_13h28.53.426,Colour_Similarity_Experiment,2020.2.10,Win32,60,60674ec340277cd6a308bc9f,12.78606593,6.962207358,6.951615044,6.947341637,6.943808962,6.947341637,,,,,,,,,,,,,,,,,,,,PF,strong,7,,,,,,,,1,1.43692,,,,,,,,,,,,,,,,,,,,,,,,,,,,1,strong,-89,60,1,0,0,response7disk,5,102,6,13,1,0,0,rectangle,6,13,1,0,0,,0,2,0.000065,6,13,1,0,0,,0,101,101,82,1,0,,,,,,,,,,,,,,,,,,,
,,,,,,,,,,,,,,,,,,,,,,,,,,,,,,,,,,,,,,,,,,5ff1c44bfef4d15dbc331ace,606843596c08de6cb2c25cbd,2021-04-03_13h28.53.426,Colour_Similarity_Experiment,2020.2.10,Win32,60,60674ec340277cd6a308bc9f,12.78606593,6.962207358,6.951615044,6.947341637,6.943808962,6.947341637,,,,,,,,,,,,,,,,,,,,PF,weak,7,,,,,,,,2,1.145085,,,,,,,,,,,,,,,,,,,,,,,,,,,,5,weak,-96,-33,1,0,0,response5disk,6,103,-2,4,1,0,0,rectangle,-2,4,1,0,0,,0,5,0.00041,-2,4,1,0,0,,0,102,102,103,1,0,,,,,,,,,,,,,,,,,,,
,,,,,,,,,,,,,,,,,,,,,,,,,,,,,,,,,,,,,,,,,,5ff1c44bfef4d15dbc331ace,606843596c08de6cb2c25cbd,2021-04-03_13h28.53.426,Colour_Similarity_Experiment,2020.2.10,Win32,60,60674ec340277cd6a308bc9f,12.78606593,6.962207358,6.951615044,6.947341637,6.943808962,6.947341637,,,,,,,,,,,,,,,,,,,,PF,weak,7,,,,,,,,1,1.0412,,,,,,,,,,,,,,,,,,,,,,,,,,,,3,weak,-107,39,1,0,0,response7disk,5,104,-13,2,1,0,0,rectangle,-13,2,1,0,0,,0,0,0.000415,-13,2,1,0,0,,0,103,103,66,1,0,,,,,,,,,,,,,,,,,,,
,,,,,,,,,,,,,,,,,,,,,,,,,,,,,,,,,,,,,,,,,,5ff1c44bfef4d15dbc331ace,606843596c08de6cb2c25cbd,2021-04-03_13h28.53.426,Colour_Similarity_Experiment,2020.2.10,Win32,60,60674ec340277cd6a308bc9f,12.78606593,6.962207358,6.951615044,6.947341637,6.943808962,6.947341637,,,,,,,,,,,,,,,,,,,,PF,weak,7,,,,,,,,4,1.18697,,,,,,,,,,,,,,,,,,,,,,,,,,,,9,weak,47,-100,1,0,0,response3disk,9,105,6,-8,1,0,0,rectangle,6,-8,1,0,0,,0,5,0.00047,6,-8,1,0,0,,0,104,104,106,1,0,,,,,,,,,,,,,,,,,,,
,,,,,,,,,,,,,,,,,,,,,,,,,,,,,,,,,,,,,,,,,,5ff1c44bfef4d15dbc331ace,606843596c08de6cb2c25cbd,2021-04-03_13h28.53.426,Colour_Similarity_Experiment,2020.2.10,Win32,60,60674ec340277cd6a308bc9f,12.78606593,6.962207358,6.951615044,6.947341637,6.943808962,6.947341637,,,,,,,,,,,,,,,,,,,,PF,weak,7,,,,,,,,2,0.916105,,,,,,,,,,,,,,,,,,,,,,,,,,,,9,weak,-96,-51,1,0,0,response5disk,3,106,-7,-4,1,0,0,rectangle,-7,-4,1,0,0,,0,2,0.00038,-7,-4,1,0,0,,0,105,105,119,1,0,,,,,,,,,,,,,,,,,,,
,,,,,,,,,,,,,,,,,,,,,,,,,,,,,,,,,,,,,,,,,,5ff1c44bfef4d15dbc331ace,606843596c08de6cb2c25cbd,2021-04-03_13h28.53.426,Colour_Similarity_Experiment,2020.2.10,Win32,60,60674ec340277cd6a308bc9f,12.78606593,6.962207358,6.951615044,6.947341637,6.943808962,6.947341637,,,,,,,,,,,,,,,,,,,,PF,weak,7,,,,,,,,1,1.18689,,,,,,,,,,,,,,,,,,,,,,,,,,,,4,weak,-113,47,1,0,0,response7disk,4,107,-11,9,1,0,0,rectangle,-11,9,1,0,0,,0,7,0.00038,-11,9,1,0,0,,0,106,106,70,1,0,,,,,,,,,,,,,,,,,,,
,,,,,,,,,,,,,,,,,,,,,,,,,,,,,,,,,,,,,,,,,,5ff1c44bfef4d15dbc331ace,606843596c08de6cb2c25cbd,2021-04-03_13h28.53.426,Colour_Similarity_Experiment,2020.2.10,Win32,60,60674ec340277cd6a308bc9f,12.78606593,6.962207358,6.951615044,6.947341637,6.943808962,6.947341637,,,,,,,,,,,,,,,,,,,,PF,strong,7,,,,,,,,5,1.111215,,,,,,,,,,,,,,,,,,,,,,,,,,,,1,strong,90,-34,1,0,0,response3disk,2,108,-21,14,1,0,0,rectangle,-21,14,1,0,0,,0,7,0.00006,-21,14,1,0,0,,0,107,107,2,1,0,,,,,,,,,,,,,,,,,,,
,,,,,,,,,,,,,,,,,,,,,,,,,,,,,,,,,,,,,,,,,,5ff1c44bfef4d15dbc331ace,606843596c08de6cb2c25cbd,2021-04-03_13h28.53.426,Colour_Similarity_Experiment,2020.2.10,Win32,60,60674ec340277cd6a308bc9f,12.78606593,6.962207358,6.951615044,6.947341637,6.943808962,6.947341637,,,,,,,,,,,,,,,,,,,,PF,weak,7,,,,,,,,6,1.36758,,,,,,,,,,,,,,,,,,,,,,,,,,,,5,weak,116,53,1,0,0,response1disk,9,109,6,3,1,0,0,rectangle,-54,-114,1,0,0,response5disk_3,3,3,2.01318,8,-2,1,0,0,rectangle,0,108,108,136,1,1,,,,,,,,,,,,,,,,,,,
,,,,,,,,,,,,,,,,,,,,,,,,,,,,,,,,,,,,,,,,,,5ff1c44bfef4d15dbc331ace,606843596c08de6cb2c25cbd,2021-04-03_13h28.53.426,Colour_Similarity_Experiment,2020.2.10,Win32,60,60674ec340277cd6a308bc9f,12.78606593,6.962207358,6.951615044,6.947341637,6.943808962,6.947341637,,,,,,,,,,,,,,,,,,,,PF,weak,7,,,,,,,,3,1.603695,,,,,,,,,,,,,,,,,,,,,,,,,,,,5,weak,-47,-122,1,0,0,response5disk,5,110,4,-7,1,0,0,rectangle,4,-7,1,0,0,,3,0,0.00043,4,-7,1,0,0,,0,109,109,94,1,0,,,,,,,,,,,,,,,,,,,
,,,,,,,,,,,,,,,,,,,,,,,,,,,,,,,,,,,,,,,,,,5ff1c44bfef4d15dbc331ace,606843596c08de6cb2c25cbd,2021-04-03_13h28.53.426,Colour_Similarity_Experiment,2020.2.10,Win32,60,60674ec340277cd6a308bc9f,12.78606593,6.962207358,6.951615044,6.947341637,6.943808962,6.947341637,,,,,,,,,,,,,,,,,,,,PF,strong,7,,,,,,,,2,2.145175,,,,,,,,,,,,,,,,,,,,,,,,,,,,2,strong,-96,-44,1,0,0,response5disk,3,111,-4,10,1,0,0,rectangle,62,-120,1,0,0,response3disk_3,4,4,1.985935,-3,-3,1,0,0,rectangle,0,110,110,104,1,1,,,,,,,,,,,,,,,,,,,
,,,,,,,,,,,,,,,,,,,,,,,,,,,,,,,,,,,,,,,,,,5ff1c44bfef4d15dbc331ace,606843596c08de6cb2c25cbd,2021-04-03_13h28.53.426,Colour_Similarity_Experiment,2020.2.10,Win32,60,60674ec340277cd6a308bc9f,12.78606593,6.962207358,6.951615044,6.947341637,6.943808962,6.947341637,,,,,,,,,,,,,,,,,,,,PF,strong,7,,,,,,,,5,1.541065,,,,,,,,,,,,,,,,,,,,,,,,,,,,8,strong,114,-40,1,0,0,response3disk,2,112,20,-1,1,0,0,rectangle,20,-1,1,0,0,,4,3,0.0004,20,-1,1,0,0,,0,111,111,22,1,0,,,,,,,,,,,,,,,,,,,
,,,,,,,,,,,,,,,,,,,,,,,,,,,,,,,,,,,,,,,,,,5ff1c44bfef4d15dbc331ace,606843596c08de6cb2c25cbd,2021-04-03_13h28.53.426,Colour_Similarity_Experiment,2020.2.10,Win32,60,60674ec340277cd6a308bc9f,12.78606593,6.962207358,6.951615044,6.947341637,6.943808962,6.947341637,,,,,,,,,,,,,,,,,,,,PF,strong,7,,,,,,,,2,1.145685,,,,,,,,,,,,,,,,,,,,,,,,,,,,9,strong,-116,-52,1,0,0,response5disk,3,113,-23,0,1,0,0,rectangle,-23,0,1,0,0,,4,1,0.000425,-23,0,1,0,0,,0,112,112,141,1,0,,,,,,,,,,,,,,,,,,,
,,,,,,,,,,,,,,,,,,,,,,,,,,,,,,,,,,,,,,,,,,5ff1c44bfef4d15dbc331ace,606843596c08de6cb2c25cbd,2021-04-03_13h28.53.426,Colour_Similarity_Experiment,2020.2.10,Win32,60,60674ec340277cd6a308bc9f,12.78606593,6.962207358,6.951615044,6.947341637,6.943808962,6.947341637,,,,,,,,,,,,,,,,,,,,PF,weak,7,,,,,,,,3,1.40224,,,,,,,,,,,,,,,,,,,,,,,,,,,,3,weak,-69,-86,1,0,0,response5disk,7,114,-14,0,1,0,0,rectangle,-14,0,1,0,0,,4,5,0.00042,-14,0,1,0,0,,0,113,113,41,1,0,,,,,,,,,,,,,,,,,,,
,,,,,,,,,,,,,,,,,,,,,,,,,,,,,,,,,,,,,,,,,,5ff1c44bfef4d15dbc331ace,606843596c08de6cb2c25cbd,2021-04-03_13h28.53.426,Colour_Similarity_Experiment,2020.2.10,Win32,60,60674ec340277cd6a308bc9f,12.78606593,6.962207358,6.951615044,6.947341637,6.943808962,6.947341637,,,,,,,,,,,,,,,,,,,,PF,weak,7,,,,,,,,1,1.347235,,,,,,,,,,,,,,,,,,,,,,,,,,,,8,weak,-111,47,1,0,0,response7disk,5,115,0,2,1,0,0,rectangle,0,2,1,0,0,,4,3,0.0004,0,2,1,0,0,,0,114,114,98,1,0,,,,,,,,,,,,,,,,,,,
,,,,,,,,,,,,,,,,,,,,,,,,,,,,,,,,,,,,,,,,,,5ff1c44bfef4d15dbc331ace,606843596c08de6cb2c25cbd,2021-04-03_13h28.53.426,Colour_Similarity_Experiment,2020.2.10,Win32,60,60674ec340277cd6a308bc9f,12.78606593,6.962207358,6.951615044,6.947341637,6.943808962,6.947341637,,,,,,,,,,,,,,,,,,,,PF,strong,7,,,,,,,,2,1.111055,,,,,,,,,,,,,,,,,,,,,,,,,,,,8,strong,-100,-44,1,0,0,response5disk,5,116,-15,-3,1,0,0,rectangle,-15,-3,1,0,0,,4,7,0.000375,-15,-3,1,0,0,,0,115,115,152,1,0,,,,,,,,,,,,,,,,,,,
,,,,,,,,,,,,,,,,,,,,,,,,,,,,,,,,,,,,,,,,,,5ff1c44bfef4d15dbc331ace,606843596c08de6cb2c25cbd,2021-04-03_13h28.53.426,Colour_Similarity_Experiment,2020.2.10,Win32,60,60674ec340277cd6a308bc9f,12.78606593,6.962207358,6.951615044,6.947341637,6.943808962,6.947341637,,,,,,,,,,,,,,,,,,,,PF,weak,7,,,,,,,,5,1.79855,,,,,,,,,,,,,,,,,,,,,,,,,,,,8,weak,115,-43,1,0,0,response3disk,9,117,13,-7,1,0,0,rectangle,13,-7,1,0,0,,4,6,0.00039,13,-7,1,0,0,,0,116,116,42,1,0,,,,,,,,,,,,,,,,,,,
,,,,,,,,,,,,,,,,,,,,,,,,,,,,,,,,,,,,,,,,,,5ff1c44bfef4d15dbc331ace,606843596c08de6cb2c25cbd,2021-04-03_13h28.53.426,Colour_Similarity_Experiment,2020.2.10,Win32,60,60674ec340277cd6a308bc9f,12.78606593,6.962207358,6.951615044,6.947341637,6.943808962,6.947341637,,,,,,,,,,,,,,,,,,,,PF,strong,7,,,,,,,,3,1.374965,,,,,,,,,,,,,,,,,,,,,,,,,,,,3,strong,-60,-94,1,0,0,response5disk,6,118,-21,-8,1,0,0,rectangle,-21,-8,1,0,0,,4,7,0.00042,-21,-8,1,0,0,,0,117,117,95,1,0,,,,,,,,,,,,,,,,,,,
,,,,,,,,,,,,,,,,,,,,,,,,,,,,,,,,,,,,,,,,,,5ff1c44bfef4d15dbc331ace,606843596c08de6cb2c25cbd,2021-04-03_13h28.53.426,Colour_Similarity_Experiment,2020.2.10,Win32,60,60674ec340277cd6a308bc9f,12.78606593,6.962207358,6.951615044,6.947341637,6.943808962,6.947341637,,,,,,,,,,,,,,,,,,,,PF,strong,7,,,,,,,,5,1.27772,,,,,,,,,,,,,,,,,,,,,,,,,,,,8,strong,83,-38,1,0,0,response3disk,8,119,7,2,1,0,0,rectangle,7,2,1,0,0,,4,1,0.000385,7,2,1,0,0,,0,118,118,48,1,0,,,,,,,,,,,,,,,,,,,
,,,,,,,,,,,,,,,,,,,,,,,,,,,,,,,,,,,,,,,,,,5ff1c44bfef4d15dbc331ace,606843596c08de6cb2c25cbd,2021-04-03_13h28.53.426,Colour_Similarity_Experiment,2020.2.10,Win32,60,60674ec340277cd6a308bc9f,12.78606593,6.962207358,6.951615044,6.947341637,6.943808962,6.947341637,,,,,,,,,,,,,,,,,,,,PF,weak,7,,,,,,,,1,1.291665,,,,,,,,,,,,,,,,,,,,,,,,,,,,2,weak,-113,38,1,0,0,response7disk,4,120,-21,4,1,0,0,rectangle,-21,4,1,0,0,,4,1,0.000055,-21,4,1,0,0,,0,119,119,127,1,0,,,,,,,,,,,,,,,,,,,
,,,,,,,,,,,,,,,,,,,,,,,,,,,,,,,,,,,,,,,,,,5ff1c44bfef4d15dbc331ace,606843596c08de6cb2c25cbd,2021-04-03_13h28.53.426,Colour_Similarity_Experiment,2020.2.10,Win32,60,60674ec340277cd6a308bc9f,12.78606593,6.962207358,6.951615044,6.947341637,6.943808962,6.947341637,,,,,,,,,,,,,,,,,,,,PF,weak,7,,,,,,,,7,1.076355,,,,,,,,,,,,,,,,,,,,,,,,,,,,1,weak,74,121,1,0,0,response1disk,7,121,4,-2,1,0,0,rectangle,4,-2,1,0,0,,4,0,0.000475,4,-2,1,0,0,,0,120,120,150,1,0,,,,,,,,,,,,,,,,,,,
,,,,,,,,,,,,,,,,,,,,,,,,,,,,,,,,,,,,,,,,,,5ff1c44bfef4d15dbc331ace,606843596c08de6cb2c25cbd,2021-04-03_13h28.53.426,Colour_Similarity_Experiment,2020.2.10,Win32,60,60674ec340277cd6a308bc9f,12.78606593,6.962207358,6.951615044,6.947341637,6.943808962,6.947341637,,,,,,,,,,,,,,,,,,,,PF,weak,7,,,,,,,,7,1.388865,,,,,,,,,,,,,,,,,,,,,,,,,,,,3,weak,60,85,1,0,0,response1disk,1,122,14,2,1,0,0,rectangle,14,2,1,0,0,,4,2,0.000385,14,2,1,0,0,,0,121,121,96,1,0,,,,,,,,,,,,,,,,,,,
,,,,,,,,,,,,,,,,,,,,,,,,,,,,,,,,,,,,,,,,,,5ff1c44bfef4d15dbc331ace,606843596c08de6cb2c25cbd,2021-04-03_13h28.53.426,Colour_Similarity_Experiment,2020.2.10,Win32,60,60674ec340277cd6a308bc9f,12.78606593,6.962207358,6.951615044,6.947341637,6.943808962,6.947341637,,,,,,,,,,,,,,,,,,,,PF,weak,7,,,,,,,,3,1.840285,,,,,,,,,,,,,,,,,,,,,,,,,,,,8,weak,-46,-117,1,0,0,response5disk,7,123,-4,-1,1,0,0,rectangle,-4,-1,1,0,0,,4,3,0.0004,-4,-1,1,0,0,,0,122,122,23,1,0,,,,,,,,,,,,,,,,,,,
,,,,,,,,,,,,,,,,,,,,,,,,,,,,,,,,,,,,,,,,,,5ff1c44bfef4d15dbc331ace,606843596c08de6cb2c25cbd,2021-04-03_13h28.53.426,Colour_Similarity_Experiment,2020.2.10,Win32,60,60674ec340277cd6a308bc9f,12.78606593,6.962207358,6.951615044,6.947341637,6.943808962,6.947341637,,,,,,,,,,,,,,,,,,,,PF,strong,7,,,,,,,,3,1.701715,,,,,,,,,,,,,,,,,,,,,,,,,,,,8,strong,-36,-116,1,0,0,response5disk,6,124,-3,5,1,0,0,rectangle,-3,5,1,0,0,,4,4,0.00043,-3,5,1,0,0,,0,123,123,37,1,0,,,,,,,,,,,,,,,,,,,
,,,,,,,,,,,,,,,,,,,,,,,,,,,,,,,,,,,,,,,,,,5ff1c44bfef4d15dbc331ace,606843596c08de6cb2c25cbd,2021-04-03_13h28.53.426,Colour_Similarity_Experiment,2020.2.10,Win32,60,60674ec340277cd6a308bc9f,12.78606593,6.962207358,6.951615044,6.947341637,6.943808962,6.947341637,,,,,,,,,,,,,,,,,,,,PF,strong,7,,,,,,,,4,1.1944,,,,,,,,,,,,,,,,,,,,,,,,,,,,7,strong,58,-92,1,0,0,response3disk,9,125,8,-7,1,0,0,rectangle,8,-7,1,0,0,,4,5,0.00039,8,-7,1,0,0,,0,124,124,155,1,0,,,,,,,,,,,,,,,,,,,
,,,,,,,,,,,,,,,,,,,,,,,,,,,,,,,,,,,,,,,,,,5ff1c44bfef4d15dbc331ace,606843596c08de6cb2c25cbd,2021-04-03_13h28.53.426,Colour_Similarity_Experiment,2020.2.10,Win32,60,60674ec340277cd6a308bc9f,12.78606593,6.962207358,6.951615044,6.947341637,6.943808962,6.947341637,,,,,,,,,,,,,,,,,,,,PF,strong,7,,,,,,,,2,1.416645,,,,,,,,,,,,,,,,,,,,,,,,,,,,9,strong,-90,-48,1,0,0,response5disk,7,126,-14,1,1,0,0,rectangle,-14,1,1,0,0,,4,5,0.00006,-14,1,1,0,0,,0,125,125,100,1,0,,,,,,,,,,,,,,,,,,,
,,,,,,,,,,,,,,,,,,,,,,,,,,,,,,,,,,,,,,,,,,5ff1c44bfef4d15dbc331ace,606843596c08de6cb2c25cbd,2021-04-03_13h28.53.426,Colour_Similarity_Experiment,2020.2.10,Win32,60,60674ec340277cd6a308bc9f,12.78606593,6.962207358,6.951615044,6.947341637,6.943808962,6.947341637,,,,,,,,,,,,,,,,,,,,PF,strong,7,,,,,,,,2,0.902845,,,,,,,,,,,,,,,,,,,,,,,,,,,,5,strong,-120,-48,1,0,0,response5disk,3,127,-6,3,1,0,0,rectangle,-6,3,1,0,0,,4,6,0.000415,-6,3,1,0,0,,0,126,126,25,1,0,,,,,,,,,,,,,,,,,,,
,,,,,,,,,,,,,,,,,,,,,,,,,,,,,,,,,,,,,,,,,,5ff1c44bfef4d15dbc331ace,606843596c08de6cb2c25cbd,2021-04-03_13h28.53.426,Colour_Similarity_Experiment,2020.2.10,Win32,60,60674ec340277cd6a308bc9f,12.78606593,6.962207358,6.951615044,6.947341637,6.943808962,6.947341637,,,,,,,,,,,,,,,,,,,,PF,weak,7,,,,,,,,2,1.6041,,,,,,,,,,,,,,,,,,,,,,,,,,,,4,weak,-127,-47,1,0,0,response5disk,7,128,-18,1,1,0,0,rectangle,-18,1,1,0,0,,4,1,0.000395,-18,1,1,0,0,,0,127,127,38,1,0,,,,,,,,,,,,,,,,,,,
,,,,,,,,,,,,,,,,,,,,,,,,,,,,,,,,,,,,,,,,,,5ff1c44bfef4d15dbc331ace,606843596c08de6cb2c25cbd,2021-04-03_13h28.53.426,Colour_Similarity_Experiment,2020.2.10,Win32,60,60674ec340277cd6a308bc9f,12.78606593,6.962207358,6.951615044,6.947341637,6.943808962,6.947341637,,,,,,,,,,,,,,,,,,,,PF,strong,7,,,,,,,,5,1.201365,,,,,,,,,,,,,,,,,,,,,,,,,,,,4,strong,122,-53,1,0,0,response3disk,2,129,25,-12,1,0,0,rectangle,25,-12,1,0,0,,4,7,0.000385,25,-12,1,0,0,,0,128,128,13,1,0,,,,,,,,,,,,,,,,,,,
,,,,,,,,,,,,,,,,,,,,,,,,,,,,,,,,,,,,,,,,,,5ff1c44bfef4d15dbc331ace,606843596c08de6cb2c25cbd,2021-04-03_13h28.53.426,Colour_Similarity_Experiment,2020.2.10,Win32,60,60674ec340277cd6a308bc9f,12.78606593,6.962207358,6.951615044,6.947341637,6.943808962,6.947341637,,,,,,,,,,,,,,,,,,,,PF,weak,7,,,,,,,,6,1.93059,,,,,,,,,,,,,,,,,,,,,,,,,,,,1,weak,88,42,1,0,0,response1disk,5,130,28,8,1,0,0,rectangle,28,8,1,0,0,,4,1,0.00042,28,8,1,0,0,,0,129,129,28,1,0,,,,,,,,,,,,,,,,,,,
,,,,,,,,,,,,,,,,,,,,,,,,,,,,,,,,,,,,,,,,,,5ff1c44bfef4d15dbc331ace,606843596c08de6cb2c25cbd,2021-04-03_13h28.53.426,Colour_Similarity_Experiment,2020.2.10,Win32,60,60674ec340277cd6a308bc9f,12.78606593,6.962207358,6.951615044,6.947341637,6.943808962,6.947341637,,,,,,,,,,,,,,,,,,,,PF,weak,7,,,,,,,,5,1.631875,,,,,,,,,,,,,,,,,,,,,,,,,,,,2,weak,107,-36,1,0,0,response3disk,5,131,-14,-2,1,0,0,rectangle,-14,-2,1,0,0,,4,1,0.000055,-14,-2,1,0,0,,0,130,130,147,1,0,,,,,,,,,,,,,,,,,,,
,,,,,,,,,,,,,,,,,,,,,,,,,,,,,,,,,,,,,,,,,,5ff1c44bfef4d15dbc331ace,606843596c08de6cb2c25cbd,2021-04-03_13h28.53.426,Colour_Similarity_Experiment,2020.2.10,Win32,60,60674ec340277cd6a308bc9f,12.78606593,6.962207358,6.951615044,6.947341637,6.943808962,6.947341637,,,,,,,,,,,,,,,,,,,,PF,strong,7,,,,,,,,4,1.61093,,,,,,,,,,,,,,,,,,,,,,,,,,,,4,strong,52,-96,1,0,0,response3disk,8,132,18,4,1,0,0,rectangle,18,4,1,0,0,,4,7,0.000555,18,4,1,0,0,,0,131,131,35,1,0,,,,,,,,,,,,,,,,,,,
,,,,,,,,,,,,,,,,,,,,,,,,,,,,,,,,,,,,,,,,,,5ff1c44bfef4d15dbc331ace,606843596c08de6cb2c25cbd,2021-04-03_13h28.53.426,Colour_Similarity_Experiment,2020.2.10,Win32,60,60674ec340277cd6a308bc9f,12.78606593,6.962207358,6.951615044,6.947341637,6.943808962,6.947341637,,,,,,,,,,,,,,,,,,,,PF,weak,7,,,,,,,,5,2.19447,,,,,,,,,,,,,,,,,,,,,,,,,,,,4,weak,79,-47,1,0,0,response3disk,2,133,-13,8,1,0,0,rectangle,-13,8,1,0,0,,4,6,0.00038,-13,8,1,0,0,,0,132,132,108,1,0,,,,,,,,,,,,,,,,,,,
,,,,,,,,,,,,,,,,,,,,,,,,,,,,,,,,,,,,,,,,,,5ff1c44bfef4d15dbc331ace,606843596c08de6cb2c25cbd,2021-04-03_13h28.53.426,Colour_Similarity_Experiment,2020.2.10,Win32,60,60674ec340277cd6a308bc9f,12.78606593,6.962207358,6.951615044,6.947341637,6.943808962,6.947341637,,,,,,,,,,,,,,,,,,,,PF,weak,7,,,,,,,,3,1.645805,,,,,,,,,,,,,,,,,,,,,,,,,,,,4,weak,-54,-96,1,0,0,response5disk,5,134,-17,13,1,0,0,rectangle,-17,13,1,0,0,,4,0,0.00038,-17,13,1,0,0,,0,133,133,49,1,0,,,,,,,,,,,,,,,,,,,
,,,,,,,,,,,,,,,,,,,,,,,,,,,,,,,,,,,,,,,,,,5ff1c44bfef4d15dbc331ace,606843596c08de6cb2c25cbd,2021-04-03_13h28.53.426,Colour_Similarity_Experiment,2020.2.10,Win32,60,60674ec340277cd6a308bc9f,12.78606593,6.962207358,6.951615044,6.947341637,6.943808962,6.947341637,,,,,,,,,,,,,,,,,,,,PF,weak,7,,,,,,,,2,1.027805,,,,,,,,,,,,,,,,,,,,,,,,,,,,1,weak,-118,-55,1,0,0,response5disk,8,135,-10,8,1,0,0,rectangle,-10,8,1,0,0,,4,4,0.000375,-10,8,1,0,0,,0,134,134,65,1,0,,,,,,,,,,,,,,,,,,,
,,,,,,,,,,,,,,,,,,,,,,,,,,,,,,,,,,,,,,,,,,5ff1c44bfef4d15dbc331ace,606843596c08de6cb2c25cbd,2021-04-03_13h28.53.426,Colour_Similarity_Experiment,2020.2.10,Win32,60,60674ec340277cd6a308bc9f,12.78606593,6.962207358,6.951615044,6.947341637,6.943808962,6.947341637,,,,,,,,,,,,,,,,,,,,PF,weak,7,,,,,,,,1,1.41001,,,,,,,,,,,,,,,,,,,,,,,,,,,,1,weak,-115,54,1,0,0,response7disk,9,136,-11,6,1,0,0,rectangle,-11,6,1,0,0,,4,4,6E-05,-11,6,1,0,0,,0,135,135,15,1,0,,,,,,,,,,,,,,,,,,,
,,,,,,,,,,,,,,,,,,,,,,,,,,,,,,,,,,,,,,,,,,5ff1c44bfef4d15dbc331ace,606843596c08de6cb2c25cbd,2021-04-03_13h28.53.426,Colour_Similarity_Experiment,2020.2.10,Win32,60,60674ec340277cd6a308bc9f,12.78606593,6.962207358,6.951615044,6.947341637,6.943808962,6.947341637,,,,,,,,,,,,,,,,,,,,PF,weak,7,,,,,,,,1,1.492605,,,,,,,,,,,,,,,,,,,,,,,,,,,,3,weak,-103,49,1,0,0,response7disk,3,137,-5,2,1,0,0,rectangle,-5,2,1,0,0,,4,1,0.00044,-5,2,1,0,0,,0,136,136,4,1,0,,,,,,,,,,,,,,,,,,,
,,,,,,,,,,,,,,,,,,,,,,,,,,,,,,,,,,,,,,,,,,5ff1c44bfef4d15dbc331ace,606843596c08de6cb2c25cbd,2021-04-03_13h28.53.426,Colour_Similarity_Experiment,2020.2.10,Win32,60,60674ec340277cd6a308bc9f,12.78606593,6.962207358,6.951615044,6.947341637,6.943808962,6.947341637,,,,,,,,,,,,,,,,,,,,PF,strong,7,,,,,,,,2,1.97913,,,,,,,,,,,,,,,,,,,,,,,,,,,,1,strong,-111,-56,1,0,0,response5disk,7,138,6,-5,1,0,0,rectangle,6,-5,1,0,0,,4,4,0.00055,6,-5,1,0,0,,0,137,137,137,1,0,,,,,,,,,,,,,,,,,,,
,,,,,,,,,,,,,,,,,,,,,,,,,,,,,,,,,,,,,,,,,,5ff1c44bfef4d15dbc331ace,606843596c08de6cb2c25cbd,2021-04-03_13h28.53.426,Colour_Similarity_Experiment,2020.2.10,Win32,60,60674ec340277cd6a308bc9f,12.78606593,6.962207358,6.951615044,6.947341637,6.943808962,6.947341637,,,,,,,,,,,,,,,,,,,,PF,strong,7,,,,,,,,1,1.05615,,,,,,,,,,,,,,,,,,,,,,,,,,,,7,strong,-120,46,1,0,0,response7disk,4,139,-15,2,1,0,0,rectangle,-15,2,1,0,0,,4,5,0.00041,-15,2,1,0,0,,0,138,138,158,1,0,,,,,,,,,,,,,,,,,,,
,,,,,,,,,,,,,,,,,,,,,,,,,,,,,,,,,,,,,,,,,,5ff1c44bfef4d15dbc331ace,606843596c08de6cb2c25cbd,2021-04-03_13h28.53.426,Colour_Similarity_Experiment,2020.2.10,Win32,60,60674ec340277cd6a308bc9f,12.78606593,6.962207358,6.951615044,6.947341637,6.943808962,6.947341637,,,,,,,,,,,,,,,,,,,,PF,strong,7,,,,,,,,1,0.840215,,,,,,,,,,,,,,,,,,,,,,,,,,,,3,strong,-125,64,1,0,0,response7disk,5,140,-21,13,1,0,0,rectangle,-21,13,1,0,0,,4,4,0.000375,-21,13,1,0,0,,0,139,139,101,1,0,,,,,,,,,,,,,,,,,,,
,,,,,,,,,,,,,,,,,,,,,,,,,,,,,,,,,,,,,,,,,,5ff1c44bfef4d15dbc331ace,606843596c08de6cb2c25cbd,2021-04-03_13h28.53.426,Colour_Similarity_Experiment,2020.2.10,Win32,60,60674ec340277cd6a308bc9f,12.78606593,6.962207358,6.951615044,6.947341637,6.943808962,6.947341637,,,,,,,,,,,,,,,,,,,,PF,strong,7,,,,,,,,2,1.16663,,,,,,,,,,,,,,,,,,,,,,,,,,,,3,strong,-97,-54,1,0,0,response5disk,7,141,-18,11,1,0,0,rectangle,-18,11,1,0,0,,4,5,0.00036,-18,11,1,0,0,,0,140,140,118,1,0,,,,,,,,,,,,,,,,,,,
,,,,,,,,,,,,,,,,,,,,,,,,,,,,,,,,,,,,,,,,,,5ff1c44bfef4d15dbc331ace,606843596c08de6cb2c25cbd,2021-04-03_13h28.53.426,Colour_Similarity_Experiment,2020.2.10,Win32,60,60674ec340277cd6a308bc9f,12.78606593,6.962207358,6.951615044,6.947341637,6.943808962,6.947341637,,,,,,,,,,,,,,,,,,,,PF,weak,7,,,,,,,,5,1.180505,,,,,,,,,,,,,,,,,,,,,,,,,,,,8,weak,127,-83,1,0,0,response3disk,8,142,8,-7,1,0,0,rectangle,8,-7,1,0,0,,4,2,0.00046,8,-7,1,0,0,,0,141,141,153,1,0,,,,,,,,,,,,,,,,,,,
,,,,,,,,,,,,,,,,,,,,,,,,,,,,,,,,,,,,,,,,,,5ff1c44bfef4d15dbc331ace,606843596c08de6cb2c25cbd,2021-04-03_13h28.53.426,Colour_Similarity_Experiment,2020.2.10,Win32,60,60674ec340277cd6a308bc9f,12.78606593,6.962207358,6.951615044,6.947341637,6.943808962,6.947341637,,,,,,,,,,,,,,,,,,,,PF,strong,7,,,,,,,,2,1.83363,,,,,,,,,,,,,,,,,,,,,,,,,,,,4,strong,-109,-59,1,0,0,response5disk,4,143,-15,-10,1,0,0,rectangle,-15,-10,1,0,0,,4,0,0.00037,-15,-10,1,0,0,,0,142,142,84,1,0,,,,,,,,,,,,,,,,,,,
,,,,,,,,,,,,,,,,,,,,,,,,,,,,,,,,,,,,,,,,,,5ff1c44bfef4d15dbc331ace,606843596c08de6cb2c25cbd,2021-04-03_13h28.53.426,Colour_Similarity_Experiment,2020.2.10,Win32,60,60674ec340277cd6a308bc9f,12.78606593,6.962207358,6.951615044,6.947341637,6.943808962,6.947341637,,,,,,,,,,,,,,,,,,,,PF,weak,7,,,,,,,,3,1.86806,,,,,,,,,,,,,,,,,,,,,,,,,,,,9,weak,-62,-88,1,0,0,response5disk,7,144,-7,0,1,0,0,rectangle,-7,0,1,0,0,,4,6,0.00037,-7,0,1,0,0,,0,143,143,121,1,0,,,,,,,,,,,,,,,,,,,
,,,,,,,,,,,,,,,,,,,,,,,,,,,,,,,,,,,,,,,,,,5ff1c44bfef4d15dbc331ace,606843596c08de6cb2c25cbd,2021-04-03_13h28.53.426,Colour_Similarity_Experiment,2020.2.10,Win32,60,60674ec340277cd6a308bc9f,12.78606593,6.962207358,6.951615044,6.947341637,6.943808962,6.947341637,,,,,,,,,,,,,,,,,,,,PF,strong,7,,,,,,,,2,1.180515,,,,,,,,,,,,,,,,,,,,,,,,,,,,7,strong,-92,-45,1,0,0,response5disk,7,145,-5,-4,1,0,0,rectangle,-5,-4,1,0,0,,4,2,0.000415,-5,-4,1,0,0,,0,144,144,34,1,0,,,,,,,,,,,,,,,,,,,
,,,,,,,,,,,,,,,,,,,,,,,,,,,,,,,,,,,,,,,,,,5ff1c44bfef4d15dbc331ace,606843596c08de6cb2c25cbd,2021-04-03_13h28.53.426,Colour_Similarity_Experiment,2020.2.10,Win32,60,60674ec340277cd6a308bc9f,12.78606593,6.962207358,6.951615044,6.947341637,6.943808962,6.947341637,,,,,,,,,,,,,,,,,,,,PF,strong,7,,,,,,,,3,2.972655,,,,,,,,,,,,,,,,,,,,,,,,,,,,4,strong,-44,-90,1,0,0,response5disk,3,146,4,-1,1,0,0,rectangle,4,-1,1,0,0,,4,5,0.000405,4,-1,1,0,0,,0,145,145,77,1,0,,,,,,,,,,,,,,,,,,,
,,,,,,,,,,,,,,,,,,,,,,,,,,,,,,,,,,,,,,,,,,5ff1c44bfef4d15dbc331ace,606843596c08de6cb2c25cbd,2021-04-03_13h28.53.426,Colour_Similarity_Experiment,2020.2.10,Win32,60,60674ec340277cd6a308bc9f,12.78606593,6.962207358,6.951615044,6.947341637,6.943808962,6.947341637,,,,,,,,,,,,,,,,,,,,PF,weak,7,,,,,,,,4,2.548545,,,,,,,,,,,,,,,,,,,,,,,,,,,,6,weak,82,-130,1,0,0,response3disk,8,147,6,-4,1,0,0,rectangle,6,-4,1,0,0,,4,3,0.000465,6,-4,1,0,0,,0,146,146,64,1,0,,,,,,,,,,,,,,,,,,,
,,,,,,,,,,,,,,,,,,,,,,,,,,,,,,,,,,,,,,,,,,5ff1c44bfef4d15dbc331ace,606843596c08de6cb2c25cbd,2021-04-03_13h28.53.426,Colour_Similarity_Experiment,2020.2.10,Win32,60,60674ec340277cd6a308bc9f,12.78606593,6.962207358,6.951615044,6.947341637,6.943808962,6.947341637,,,,,,,,,,,,,,,,,,,,PF,weak,7,,,,,,,,5,2.423555,,,,,,,,,,,,,,,,,,,,,,,,,,,,9,weak,131,-69,1,0,0,response3disk,4,148,-1,-3,1,0,0,rectangle,-1,-3,1,0,0,,4,7,0.0004,-1,-3,1,0,0,,0,147,147,114,1,0,,,,,,,,,,,,,,,,,,,
,,,,,,,,,,,,,,,,,,,,,,,,,,,,,,,,,,,,,,,,,,5ff1c44bfef4d15dbc331ace,606843596c08de6cb2c25cbd,2021-04-03_13h28.53.426,Colour_Similarity_Experiment,2020.2.10,Win32,60,60674ec340277cd6a308bc9f,12.78606593,6.962207358,6.951615044,6.947341637,6.943808962,6.947341637,,,,,,,,,,,,,,,,,,,,PF,weak,7,,,,,,,,4,1.25703,,,,,,,,,,,,,,,,,,,,,,,,,,,,1,weak,48,-81,1,0,0,response3disk,3,149,4,-5,1,0,0,rectangle,4,-5,1,0,0,,4,5,0.00041,4,-5,1,0,0,,0,148,148,1,1,0,,,,,,,,,,,,,,,,,,,
,,,,,,,,,,,,,,,,,,,,,,,,,,,,,,,,,,,,,,,,,,5ff1c44bfef4d15dbc331ace,606843596c08de6cb2c25cbd,2021-04-03_13h28.53.426,Colour_Similarity_Experiment,2020.2.10,Win32,60,60674ec340277cd6a308bc9f,12.78606593,6.962207358,6.951615044,6.947341637,6.943808962,6.947341637,,,,,,,,,,,,,,,,,,,,PF,weak,7,,,,,,,,3,1.21527,,,,,,,,,,,,,,,,,,,,,,,,,,,,7,weak,-57,-86,1,0,0,response5disk,2,150,3,1,1,0,0,rectangle,3,1,1,0,0,,4,1,0.00041,3,1,1,0,0,,0,149,149,32,1,0,,,,,,,,,,,,,,,,,,,
,,,,,,,,,,,,,,,,,,,,,,,,,,,,,,,,,,,,,,,,,,5ff1c44bfef4d15dbc331ace,606843596c08de6cb2c25cbd,2021-04-03_13h28.53.426,Colour_Similarity_Experiment,2020.2.10,Win32,60,60674ec340277cd6a308bc9f,12.78606593,6.962207358,6.951615044,6.947341637,6.943808962,6.947341637,,,,,,,,,,,,,,,,,,,,PF,weak,7,,,,,,,,2,1.90268,,,,,,,,,,,,,,,,,,,,,,,,,,,,7,weak,-131,-44,1,0,0,response5disk,7,151,0,7,1,0,0,rectangle,0,7,1,0,0,,4,7,0.00042,0,7,1,0,0,,0,150,150,51,1,0,,,,,,,,,,,,,,,,,,,
,,,,,,,,,,,,,,,,,,,,,,,,,,,,,,,,,,,,,,,,,,5ff1c44bfef4d15dbc331ace,606843596c08de6cb2c25cbd,2021-04-03_13h28.53.426,Colour_Similarity_Experiment,2020.2.10,Win32,60,60674ec340277cd6a308bc9f,12.78606593,6.962207358,6.951615044,6.947341637,6.943808962,6.947341637,,,,,,,,,,,,,,,,,,,,PF,weak,7,,,,,,,,2,0.937455,,,,,,,,,,,,,,,,,,,,,,,,,,,,7,weak,-132,-56,1,0,0,response5disk,3,152,17,9,1,0,0,rectangle,17,9,1,0,0,,4,1,0.0004,17,9,1,0,0,,0,151,151,81,1,0,,,,,,,,,,,,,,,,,,,
,,,,,,,,,,,,,,,,,,,,,,,,,,,,,,,,,,,,,,,,,,5ff1c44bfef4d15dbc331ace,606843596c08de6cb2c25cbd,2021-04-03_13h28.53.426,Colour_Similarity_Experiment,2020.2.10,Win32,60,60674ec340277cd6a308bc9f,12.78606593,6.962207358,6.951615044,6.947341637,6.943808962,6.947341637,,,,,,,,,,,,,,,,,,,,PF,strong,7,,,,,,,,6,1.00692,,,,,,,,,,,,,,,,,,,,,,,,,,,,3,strong,114,39,1,0,0,response1disk,1,153,-3,3,1,0,0,rectangle,-3,3,1,0,0,,4,0,0.00061,-3,3,1,0,0,,0,152,152,125,1,0,,,,,,,,,,,,,,,,,,,
,,,,,,,,,,,,,,,,,,,,,,,,,,,,,,,,,,,,,,,,,,5ff1c44bfef4d15dbc331ace,606843596c08de6cb2c25cbd,2021-04-03_13h28.53.426,Colour_Similarity_Experiment,2020.2.10,Win32,60,60674ec340277cd6a308bc9f,12.78606593,6.962207358,6.951615044,6.947341637,6.943808962,6.947341637,,,,,,,,,,,,,,,,,,,,PF,strong,7,,,,,,,,3,1.368035,,,,,,,,,,,,,,,,,,,,,,,,,,,,2,strong,-62,-89,1,0,0,response5disk,5,154,-23,-14,1,0,0,rectangle,-23,-14,1,0,0,,4,2,0.000465,-23,-14,1,0,0,,0,153,153,80,1,0,,,,,,,,,,,,,,,,,,,
,,,,,,,,,,,,,,,,,,,,,,,,,,,,,,,,,,,,,,,,,,5ff1c44bfef4d15dbc331ace,606843596c08de6cb2c25cbd,2021-04-03_13h28.53.426,Colour_Similarity_Experiment,2020.2.10,Win32,60,60674ec340277cd6a308bc9f,12.78606593,6.962207358,6.951615044,6.947341637,6.943808962,6.947341637,,,,,,,,,,,,,,,,,,,,PF,strong,7,,,,,,,,4,1.263245,,,,,,,,,,,,,,,,,,,,,,,,,,,,4,strong,33,-75,1,0,0,response3disk,9,155,-3,6,1,0,0,rectangle,-3,6,1,0,0,,4,3,0.00042,-3,6,1,0,0,,0,154,154,90,1,0,,,,,,,,,,,,,,,,,,,
,,,,,,,,,,,,,,,,,,,,,,,,,,,,,,,,,,,,,,,,,,5ff1c44bfef4d15dbc331ace,606843596c08de6cb2c25cbd,2021-04-03_13h28.53.426,Colour_Similarity_Experiment,2020.2.10,Win32,60,60674ec340277cd6a308bc9f,12.78606593,6.962207358,6.951615044,6.947341637,6.943808962,6.947341637,,,,,,,,,,,,,,,,,,,,PF,strong,7,,,,,,,,2,1.479145,,,,,,,,,,,,,,,,,,,,,,,,,,,,6,strong,-109,-59,1,0,0,response5disk,4,156,-8,-9,1,0,0,rectangle,-8,-9,1,0,0,,4,4,0.000385,-8,-9,1,0,0,,0,155,155,56,1,0,,,,,,,,,,,,,,,,,,,
,,,,,,,,,,,,,,,,,,,,,,,,,,,,,,,,,,,,,,,,,,5ff1c44bfef4d15dbc331ace,606843596c08de6cb2c25cbd,2021-04-03_13h28.53.426,Colour_Similarity_Experiment,2020.2.10,Win32,60,60674ec340277cd6a308bc9f,12.78606593,6.962207358,6.951615044,6.947341637,6.943808962,6.947341637,,,,,,,,,,,,,,,,,,,,PF,weak,7,,,,,,,,7,1.16027,,,,,,,,,,,,,,,,,,,,,,,,,,,,6,weak,65,85,1,0,0,response1disk,1,157,-3,-1,1,0,0,rectangle,-3,-1,1,0,0,,4,5,0.0004,-3,-1,1,0,0,,0,156,156,46,1,0,,,,,,,,,,,,,,,,,,,
,,,,,,,,,,,,,,,,,,,,,,,,,,,,,,,,,,,,,,,,,,5ff1c44bfef4d15dbc331ace,606843596c08de6cb2c25cbd,2021-04-03_13h28.53.426,Colour_Similarity_Experiment,2020.2.10,Win32,60,60674ec340277cd6a308bc9f,12.78606593,6.962207358,6.951615044,6.947341637,6.943808962,6.947341637,,,,,,,,,,,,,,,,,,,,PF,strong,7,,,,,,,,5,1.187515,,,,,,,,,,,,,,,,,,,,,,,,,,,,2,strong,93,-48,1,0,0,response3disk,7,158,14,-8,1,0,0,rectangle,14,-8,1,0,0,,4,0,0.00038,14,-8,1,0,0,,0,157,157,63,1,0,,,,,,,,,,,,,,,,,,,
,,,,,,,,,,,,,,,,,,,,,,,,,,,,,,,,,,,,,,,,,,5ff1c44bfef4d15dbc331ace,606843596c08de6cb2c25cbd,2021-04-03_13h28.53.426,Colour_Similarity_Experiment,2020.2.10,Win32,60,60674ec340277cd6a308bc9f,12.78606593,6.962207358,6.951615044,6.947341637,6.943808962,6.947341637,,,,,,,,,,,,,,,,,,,,PF,weak,7,,,,,,,,2,0.87495,,,,,,,,,,,,,,,,,,,,,,,,,,,,5,weak,-114,-57,1,0,0,response5disk,8,159,-2,-2,1,0,0,rectangle,-2,-2,1,0,0,,4,7,0.000475,-2,-2,1,0,0,,0,158,158,149,1,0,,,,,,,,,,,,,,,,,,,
,,,,,,,,,,,,,,,,,,,,,,,,,,,,,,,,,,,,,,,,,,5ff1c44bfef4d15dbc331ace,606843596c08de6cb2c25cbd,2021-04-03_13h28.53.426,Colour_Similarity_Experiment,2020.2.10,Win32,60,60674ec340277cd6a308bc9f,12.78606593,6.962207358,6.951615044,6.947341637,6.943808962,6.947341637,,,,,,,,,,,,,,,,,,,,PF,weak,7,,,,,,,,2,1.15275,,,,,,,,,,,,,,,,,,,,,,,,,,,,6,weak,-93,-54,1,0,0,response5disk,4,160,4,1,1,0,0,rectangle,4,1,1,0,0,,4,4,0.000395,4,1,1,0,0,,0,159,159,33,1,0,,,,,,,,,,,,,,,,,,,
,,,,,,,,,,,,,,,,,,,,,,,,,,,,,,,,,,,,,,,,,,5ff1c44bfef4d15dbc331ace,606843596c08de6cb2c25cbd,2021-04-03_13h28.53.426,Colour_Similarity_Experiment,2020.2.10,Win32,60,60674ec340277cd6a308bc9f,12.78606593,6.962207358,6.951615044,6.947341637,6.943808962,6.947341637,,,,,,,,,,,,,,,,,,,,PF,strong,7,,,,,,,,5,1.979175,,,,,,,,,,,,,,,,,,,,,,,,,,,,2,strong,119,-60,1,0,0,response3disk,9,161,28,-11,1,0,0,rectangle,28,-11,1,0,0,,4,7,0.000415,28,-11,1,0,0,,0,160,160,72,1,0,,,,,,,,,,,,,,,,,,,
,,,,,,,,,,,,,,,,,,,,,,,,,,,,,,,,,,,,,,,,,,5ff1c44bfef4d15dbc331ace,606843596c08de6cb2c25cbd,2021-04-03_13h28.53.426,Colour_Similarity_Experiment,2020.2.10,Win32,60,60674ec340277cd6a308bc9f,12.78606593,6.962207358,6.951615044,6.947341637,6.943808962,6.947341637,,,,,,,,,,,,,,,,,,,,PF,strong,7,,,,,,,,2,1.10421,,,,,,,,,,,,,,,,,,,,,,,,,,,,5,strong,-110,-52,1,0,0,response5disk,1,162,3,3,1,0,0,rectangle,3,3,1,0,0,,4,2,0.000425,3,3,1,0,0,,0,161,161,131,1,0,,,,,,,,,,,,,,,,,,,
,,,,,,,,,,,,,,,,,,,,,,,,,,,,,,,,,,,,,,,,,,5ff1c44bfef4d15dbc331ace,606843596c08de6cb2c25cbd,2021-04-03_13h28.53.426,Colour_Similarity_Experiment,2020.2.10,Win32,60,60674ec340277cd6a308bc9f,12.78606593,6.962207358,6.951615044,6.947341637,6.943808962,6.947341637,,,,,,,,,,,,,,,,,,,,,,,,,,,,,,,,,,,,,,,,,,,,,,,,,,,,,,,,,,,,,,,,,,,,,,,,,,,,,,,,,,,,,,,,,,,,,,,,0,0,0,0,1,,,,,,,,,,,,,,
,,,,,,,,,,,,,,,,,,,,,,,,,,,,,,,,,,,,,,,,,,5ff1c44bfef4d15dbc331ace,606843596c08de6cb2c25cbd,2021-04-03_13h28.53.426,Colour_Similarity_Experiment,2020.2.10,Win32,60,60674ec340277cd6a308bc9f,12.78606593,6.962207358,6.951615044,6.947341637,6.943808962,6.947341637,,,,,,,,,,,,,,,,,,,,PF,weak,7,,,,,,,,3,1.3401,,,,,,,,,,,,,,,,,,,,,,,,,,,,8,weak,-35,-90,1,0,0,response5disk,6,163,4,3,1,0,0,rectangle,-59,116,1,0,0,response7disk_3,0,0,1.778095,-6,-2,1,0,0,rectangle,0,0,0,161,1,1,,,,,,,,,,,,,,,,,,,
,,,,,,,,,,,,,,,,,,,,,,,,,,,,,,,,,,,,,,,,,,5ff1c44bfef4d15dbc331ace,606843596c08de6cb2c25cbd,2021-04-03_13h28.53.426,Colour_Similarity_Experiment,2020.2.10,Win32,60,60674ec340277cd6a308bc9f,12.78606593,6.962207358,6.951615044,6.947341637,6.943808962,6.947341637,,,,,,,,,,,,,,,,,,,,PF,weak,7,,,,,,,,1,1.159735,,,,,,,,,,,,,,,,,,,,,,,,,,,,4,weak,-119,58,1,0,0,response7disk,3,164,0,9,1,0,0,rectangle,0,9,1,0,0,,0,0,0.000065,0,9,1,0,0,,0,1,1,89,1,0,,,,,,,,,,,,,,,,,,,
,,,,,,,,,,,,,,,,,,,,,,,,,,,,,,,,,,,,,,,,,,5ff1c44bfef4d15dbc331ace,606843596c08de6cb2c25cbd,2021-04-03_13h28.53.426,Colour_Similarity_Experiment,2020.2.10,Win32,60,60674ec340277cd6a308bc9f,12.78606593,6.962207358,6.951615044,6.947341637,6.943808962,6.947341637,,,,,,,,,,,,,,,,,,,,PF,strong,7,,,,,,,,2,1.090235,,,,,,,,,,,,,,,,,,,,,,,,,,,,9,strong,-108,-57,1,0,0,response5disk,6,165,1,3,1,0,0,rectangle,1,3,1,0,0,,0,3,0.000445,1,3,1,0,0,,0,2,2,117,1,0,,,,,,,,,,,,,,,,,,,
,,,,,,,,,,,,,,,,,,,,,,,,,,,,,,,,,,,,,,,,,,5ff1c44bfef4d15dbc331ace,606843596c08de6cb2c25cbd,2021-04-03_13h28.53.426,Colour_Similarity_Experiment,2020.2.10,Win32,60,60674ec340277cd6a308bc9f,12.78606593,6.962207358,6.951615044,6.947341637,6.943808962,6.947341637,,,,,,,,,,,,,,,,,,,,PF,strong,7,,,,,,,,4,1.13198,,,,,,,,,,,,,,,,,,,,,,,,,,,,6,strong,48,-107,1,0,0,response3disk,9,166,14,-12,1,0,0,rectangle,-119,-52,1,0,0,response5disk_3,0,2,1.91658,-8,0,1,0,0,rectangle,0,3,3,160,1,1,,,,,,,,,,,,,,,,,,,
,,,,,,,,,,,,,,,,,,,,,,,,,,,,,,,,,,,,,,,,,,5ff1c44bfef4d15dbc331ace,606843596c08de6cb2c25cbd,2021-04-03_13h28.53.426,Colour_Similarity_Experiment,2020.2.10,Win32,60,60674ec340277cd6a308bc9f,12.78606593,6.962207358,6.951615044,6.947341637,6.943808962,6.947341637,,,,,,,,,,,,,,,,,,,,PF,weak,7,,,,,,,,6,1.33339,,,,,,,,,,,,,,,,,,,,,,,,,,,,1,weak,114,42,1,0,0,response1disk,6,167,21,4,1,0,0,rectangle,21,4,1,0,0,,0,2,0.00008,21,4,1,0,0,,0,4,4,144,1,0,,,,,,,,,,,,,,,,,,,
,,,,,,,,,,,,,,,,,,,,,,,,,,,,,,,,,,,,,,,,,,5ff1c44bfef4d15dbc331ace,606843596c08de6cb2c25cbd,2021-04-03_13h28.53.426,Colour_Similarity_Experiment,2020.2.10,Win32,60,60674ec340277cd6a308bc9f,12.78606593,6.962207358,6.951615044,6.947341637,6.943808962,6.947341637,,,,,,,,,,,,,,,,,,,,PF,weak,7,,,,,,,,3,1.18745,,,,,,,,,,,,,,,,,,,,,,,,,,,,5,weak,-56,-122,1,0,0,response5disk,3,168,-2,-14,1,0,0,rectangle,-2,-14,1,0,0,,0,5,0.0004,-2,-14,1,0,0,,0,5,5,109,1,0,,,,,,,,,,,,,,,,,,,
,,,,,,,,,,,,,,,,,,,,,,,,,,,,,,,,,,,,,,,,,,5ff1c44bfef4d15dbc331ace,606843596c08de6cb2c25cbd,2021-04-03_13h28.53.426,Colour_Similarity_Experiment,2020.2.10,Win32,60,60674ec340277cd6a308bc9f,12.78606593,6.962207358,6.951615044,6.947341637,6.943808962,6.947341637,,,,,,,,,,,,,,,,,,,,PF,strong,7,,,,,,,,3,1.034675,,,,,,,,,,,,,,,,,,,,,,,,,,,,2,strong,-67,-100,1,0,0,response5disk,6,169,-16,-13,1,0,0,rectangle,-16,-13,1,0,0,,0,3,0.0004,-16,-13,1,0,0,,0,6,6,40,1,0,,,,,,,,,,,,,,,,,,,
,,,,,,,,,,,,,,,,,,,,,,,,,,,,,,,,,,,,,,,,,,5ff1c44bfef4d15dbc331ace,606843596c08de6cb2c25cbd,2021-04-03_13h28.53.426,Colour_Similarity_Experiment,2020.2.10,Win32,60,60674ec340277cd6a308bc9f,12.78606593,6.962207358,6.951615044,6.947341637,6.943808962,6.947341637,,,,,,,,,,,,,,,,,,,,PF,weak,7,,,,,,,,2,1.49997,,,,,,,,,,,,,,,,,,,,,,,,,,,,5,weak,-99,-59,1,0,0,response5disk,7,170,-13,10,1,0,0,rectangle,-13,10,1,0,0,,0,4,0.000425,-13,10,1,0,0,,0,7,7,146,1,0,,,,,,,,,,,,,,,,,,,
,,,,,,,,,,,,,,,,,,,,,,,,,,,,,,,,,,,,,,,,,,5ff1c44bfef4d15dbc331ace,606843596c08de6cb2c25cbd,2021-04-03_13h28.53.426,Colour_Similarity_Experiment,2020.2.10,Win32,60,60674ec340277cd6a308bc9f,12.78606593,6.962207358,6.951615044,6.947341637,6.943808962,6.947341637,,,,,,,,,,,,,,,,,,,,PF,strong,7,,,,,,,,1,1.03468,,,,,,,,,,,,,,,,,,,,,,,,,,,,1,strong,-112,52,1,0,0,response7disk,3,171,-17,9,1,0,0,rectangle,-17,9,1,0,0,,0,4,0.00006,-17,9,1,0,0,,0,8,8,99,1,0,,,,,,,,,,,,,,,,,,,
,,,,,,,,,,,,,,,,,,,,,,,,,,,,,,,,,,,,,,,,,,5ff1c44bfef4d15dbc331ace,606843596c08de6cb2c25cbd,2021-04-03_13h28.53.426,Colour_Similarity_Experiment,2020.2.10,Win32,60,60674ec340277cd6a308bc9f,12.78606593,6.962207358,6.951615044,6.947341637,6.943808962,6.947341637,,,,,,,,,,,,,,,,,,,,PF,strong,7,,,,,,,,2,2.013895,,,,,,,,,,,,,,,,,,,,,,,,,,,,4,strong,-119,-55,1,0,0,response5disk,6,172,0,10,1,0,0,rectangle,0,10,1,0,0,,0,0,0.00041,0,10,1,0,0,,0,9,9,122,1,0,,,,,,,,,,,,,,,,,,,
,,,,,,,,,,,,,,,,,,,,,,,,,,,,,,,,,,,,,,,,,,5ff1c44bfef4d15dbc331ace,606843596c08de6cb2c25cbd,2021-04-03_13h28.53.426,Colour_Similarity_Experiment,2020.2.10,Win32,60,60674ec340277cd6a308bc9f,12.78606593,6.962207358,6.951615044,6.947341637,6.943808962,6.947341637,,,,,,,,,,,,,,,,,,,,PF,strong,7,,,,,,,,5,1.2222,,,,,,,,,,,,,,,,,,,,,,,,,,,,1,strong,113,-68,1,0,0,response3disk,9,173,21,-10,1,0,0,rectangle,21,-10,1,0,0,,0,1,0.00043,21,-10,1,0,0,,0,10,10,123,1,0,,,,,,,,,,,,,,,,,,,
,,,,,,,,,,,,,,,,,,,,,,,,,,,,,,,,,,,,,,,,,,5ff1c44bfef4d15dbc331ace,606843596c08de6cb2c25cbd,2021-04-03_13h28.53.426,Colour_Similarity_Experiment,2020.2.10,Win32,60,60674ec340277cd6a308bc9f,12.78606593,6.962207358,6.951615044,6.947341637,6.943808962,6.947341637,,,,,,,,,,,,,,,,,,,,PF,weak,7,,,,,,,,2,1.770785,,,,,,,,,,,,,,,,,,,,,,,,,,,,8,weak,-97,-57,1,0,0,response5disk,1,174,-3,4,1,0,0,rectangle,-3,4,1,0,0,,0,4,0.000405,-3,4,1,0,0,,0,11,11,57,1,0,,,,,,,,,,,,,,,,,,,
,,,,,,,,,,,,,,,,,,,,,,,,,,,,,,,,,,,,,,,,,,5ff1c44bfef4d15dbc331ace,606843596c08de6cb2c25cbd,2021-04-03_13h28.53.426,Colour_Similarity_Experiment,2020.2.10,Win32,60,60674ec340277cd6a308bc9f,12.78606593,6.962207358,6.951615044,6.947341637,6.943808962,6.947341637,,,,,,,,,,,,,,,,,,,,PF,strong,7,,,,,,,,5,1.694385,,,,,,,,,,,,,,,,,,,,,,,,,,,,9,strong,99,-61,1,0,0,response3disk,2,175,20,-11,1,0,0,rectangle,107,55,1,0,0,response1disk_3,6,6,2.867535,6,1,1,0,0,rectangle,0,12,12,11,1,1,,,,,,,,,,,,,,,,,,,
,,,,,,,,,,,,,,,,,,,,,,,,,,,,,,,,,,,,,,,,,,5ff1c44bfef4d15dbc331ace,606843596c08de6cb2c25cbd,2021-04-03_13h28.53.426,Colour_Similarity_Experiment,2020.2.10,Win32,60,60674ec340277cd6a308bc9f,12.78606593,6.962207358,6.951615044,6.947341637,6.943808962,6.947341637,,,,,,,,,,,,,,,,,,,,PF,strong,7,,,,,,,,3,1.541635,,,,,,,,,,,,,,,,,,,,,,,,,,,,6,strong,-42,-134,1,0,0,response5disk,1,176,-1,-6,1,0,0,rectangle,-1,-6,1,0,0,,6,0,0.00048,-1,-6,1,0,0,,0,13,13,5,1,0,,,,,,,,,,,,,,,,,,,
,,,,,,,,,,,,,,,,,,,,,,,,,,,,,,,,,,,,,,,,,,5ff1c44bfef4d15dbc331ace,606843596c08de6cb2c25cbd,2021-04-03_13h28.53.426,Colour_Similarity_Experiment,2020.2.10,Win32,60,60674ec340277cd6a308bc9f,12.78606593,6.962207358,6.951615044,6.947341637,6.943808962,6.947341637,,,,,,,,,,,,,,,,,,,,PF,weak,7,,,,,,,,4,1.583295,,,,,,,,,,,,,,,,,,,,,,,,,,,,7,weak,39,-115,1,0,0,response3disk,8,177,7,4,1,0,0,rectangle,7,4,1,0,0,,6,2,0.00039,7,4,1,0,0,,0,14,14,140,1,0,,,,,,,,,,,,,,,,,,,
,,,,,,,,,,,,,,,,,,,,,,,,,,,,,,,,,,,,,,,,,,5ff1c44bfef4d15dbc331ace,606843596c08de6cb2c25cbd,2021-04-03_13h28.53.426,Colour_Similarity_Experiment,2020.2.10,Win32,60,60674ec340277cd6a308bc9f,12.78606593,6.962207358,6.951615044,6.947341637,6.943808962,6.947341637,,,,,,,,,,,,,,,,,,,,PF,strong,7,,,,,,,,5,1.611075,,,,,,,,,,,,,,,,,,,,,,,,,,,,1,strong,127,-45,1,0,0,response3disk,8,178,19,6,1,0,0,rectangle,19,6,1,0,0,,6,7,0.00038,19,6,1,0,0,,0,15,15,27,1,0,,,,,,,,,,,,,,,,,,,
,,,,,,,,,,,,,,,,,,,,,,,,,,,,,,,,,,,,,,,,,,5ff1c44bfef4d15dbc331ace,606843596c08de6cb2c25cbd,2021-04-03_13h28.53.426,Colour_Similarity_Experiment,2020.2.10,Win32,60,60674ec340277cd6a308bc9f,12.78606593,6.962207358,6.951615044,6.947341637,6.943808962,6.947341637,,,,,,,,,,,,,,,,,,,,PF,strong,7,,,,,,,,3,1.881925,,,,,,,,,,,,,,,,,,,,,,,,,,,,8,strong,-37,-98,1,0,0,response5disk,9,179,17,4,1,0,0,rectangle,17,4,1,0,0,,6,7,0.00006,17,4,1,0,0,,0,16,16,105,1,0,,,,,,,,,,,,,,,,,,,
,,,,,,,,,,,,,,,,,,,,,,,,,,,,,,,,,,,,,,,,,,5ff1c44bfef4d15dbc331ace,606843596c08de6cb2c25cbd,2021-04-03_13h28.53.426,Colour_Similarity_Experiment,2020.2.10,Win32,60,60674ec340277cd6a308bc9f,12.78606593,6.962207358,6.951615044,6.947341637,6.943808962,6.947341637,,,,,,,,,,,,,,,,,,,,PF,weak,7,,,,,,,,2,1.00003,,,,,,,,,,,,,,,,,,,,,,,,,,,,9,weak,-97,-50,1,0,0,response5disk,8,180,-4,1,1,0,0,rectangle,-4,1,1,0,0,,6,2,0.00041,-4,1,1,0,0,,0,17,17,67,1,0,,,,,,,,,,,,,,,,,,,
,,,,,,,,,,,,,,,,,,,,,,,,,,,,,,,,,,,,,,,,,,5ff1c44bfef4d15dbc331ace,606843596c08de6cb2c25cbd,2021-04-03_13h28.53.426,Colour_Similarity_Experiment,2020.2.10,Win32,60,60674ec340277cd6a308bc9f,12.78606593,6.962207358,6.951615044,6.947341637,6.943808962,6.947341637,,,,,,,,,,,,,,,,,,,,PF,weak,7,,,,,,,,4,2.95136,,,,,,,,,,,,,,,,,,,,,,,,,,,,2,weak,51,-94,1,0,0,response3disk,8,181,-6,4,1,0,0,rectangle,-6,4,1,0,0,,6,3,0.000385,-6,4,1,0,0,,0,18,18,52,1,0,,,,,,,,,,,,,,,,,,,
,,,,,,,,,,,,,,,,,,,,,,,,,,,,,,,,,,,,,,,,,,5ff1c44bfef4d15dbc331ace,606843596c08de6cb2c25cbd,2021-04-03_13h28.53.426,Colour_Similarity_Experiment,2020.2.10,Win32,60,60674ec340277cd6a308bc9f,12.78606593,6.962207358,6.951615044,6.947341637,6.943808962,6.947341637,,,,,,,,,,,,,,,,,,,,PF,weak,7,,,,,,,,2,1.47218,,,,,,,,,,,,,,,,,,,,,,,,,,,,1,weak,-96,-37,1,0,0,response5disk,2,182,-6,7,1,0,0,rectangle,-6,7,1,0,0,,6,0,0.000385,-6,7,1,0,0,,0,19,19,24,1,0,,,,,,,,,,,,,,,,,,,
,,,,,,,,,,,,,,,,,,,,,,,,,,,,,,,,,,,,,,,,,,5ff1c44bfef4d15dbc331ace,606843596c08de6cb2c25cbd,2021-04-03_13h28.53.426,Colour_Similarity_Experiment,2020.2.10,Win32,60,60674ec340277cd6a308bc9f,12.78606593,6.962207358,6.951615044,6.947341637,6.943808962,6.947341637,,,,,,,,,,,,,,,,,,,,PF,strong,7,,,,,,,,3,2.124465,,,,,,,,,,,,,,,,,,,,,,,,,,,,7,strong,-43,-96,1,0,0,response5disk,1,183,16,5,1,0,0,rectangle,16,5,1,0,0,,6,3,0.000395,16,5,1,0,0,,0,20,20,132,1,0,,,,,,,,,,,,,,,,,,,
,,,,,,,,,,,,,,,,,,,,,,,,,,,,,,,,,,,,,,,,,,5ff1c44bfef4d15dbc331ace,606843596c08de6cb2c25cbd,2021-04-03_13h28.53.426,Colour_Similarity_Experiment,2020.2.10,Win32,60,60674ec340277cd6a308bc9f,12.78606593,6.962207358,6.951615044,6.947341637,6.943808962,6.947341637,,,,,,,,,,,,,,,,,,,,PF,weak,7,,,,,,,,4,1.527215,,,,,,,,,,,,,,,,,,,,,,,,,,,,9,weak,47,-111,1,0,0,response3disk,2,184,15,-7,1,0,0,rectangle,15,-7,1,0,0,,6,7,0.000375,15,-7,1,0,0,,0,21,21,157,1,0,,,,,,,,,,,,,,,,,,,
,,,,,,,,,,,,,,,,,,,,,,,,,,,,,,,,,,,,,,,,,,5ff1c44bfef4d15dbc331ace,606843596c08de6cb2c25cbd,2021-04-03_13h28.53.426,Colour_Similarity_Experiment,2020.2.10,Win32,60,60674ec340277cd6a308bc9f,12.78606593,6.962207358,6.951615044,6.947341637,6.943808962,6.947341637,,,,,,,,,,,,,,,,,,,,PF,weak,7,,,,,,,,6,1.359145,,,,,,,,,,,,,,,,,,,,,,,,,,,,4,weak,97,46,1,0,0,response1disk,9,185,24,6,1,0,0,rectangle,24,6,1,0,0,,6,3,0.00037,24,6,1,0,0,,0,22,22,75,1,0,,,,,,,,,,,,,,,,,,,
,,,,,,,,,,,,,,,,,,,,,,,,,,,,,,,,,,,,,,,,,,5ff1c44bfef4d15dbc331ace,606843596c08de6cb2c25cbd,2021-04-03_13h28.53.426,Colour_Similarity_Experiment,2020.2.10,Win32,60,60674ec340277cd6a308bc9f,12.78606593,6.962207358,6.951615044,6.947341637,6.943808962,6.947341637,,,,,,,,,,,,,,,,,,,,PF,weak,7,,,,,,,,4,2.832835,,,,,,,,,,,,,,,,,,,,,,,,,,,,6,weak,47,-98,1,0,0,response3disk,9,186,-13,10,1,0,0,rectangle,-13,10,1,0,0,,6,5,0.00041,-13,10,1,0,0,,0,23,23,45,1,0,,,,,,,,,,,,,,,,,,,
,,,,,,,,,,,,,,,,,,,,,,,,,,,,,,,,,,,,,,,,,,5ff1c44bfef4d15dbc331ace,606843596c08de6cb2c25cbd,2021-04-03_13h28.53.426,Colour_Similarity_Experiment,2020.2.10,Win32,60,60674ec340277cd6a308bc9f,12.78606593,6.962207358,6.951615044,6.947341637,6.943808962,6.947341637,,,,,,,,,,,,,,,,,,,,PF,strong,7,,,,,,,,7,3.04862,,,,,,,,,,,,,,,,,,,,,,,,,,,,8,strong,45,94,1,0,0,response1disk,1,187,3,13,1,0,0,rectangle,3,13,1,0,0,,6,1,0.00041,3,13,1,0,0,,0,24,24,20,1,0,,,,,,,,,,,,,,,,,,,
,,,,,,,,,,,,,,,,,,,,,,,,,,,,,,,,,,,,,,,,,,5ff1c44bfef4d15dbc331ace,606843596c08de6cb2c25cbd,2021-04-03_13h28.53.426,Colour_Similarity_Experiment,2020.2.10,Win32,60,60674ec340277cd6a308bc9f,12.78606593,6.962207358,6.951615044,6.947341637,6.943808962,6.947341637,,,,,,,,,,,,,,,,,,,,PF,strong,7,,,,,,,,1,1.50639,,,,,,,,,,,,,,,,,,,,,,,,,,,,1,strong,-115,43,1,0,0,response7disk,4,188,-9,-5,1,0,0,rectangle,-9,-5,1,0,0,,6,6,0.00039,-9,-5,1,0,0,,0,25,25,135,1,0,,,,,,,,,,,,,,,,,,,
,,,,,,,,,,,,,,,,,,,,,,,,,,,,,,,,,,,,,,,,,,5ff1c44bfef4d15dbc331ace,606843596c08de6cb2c25cbd,2021-04-03_13h28.53.426,Colour_Similarity_Experiment,2020.2.10,Win32,60,60674ec340277cd6a308bc9f,12.78606593,6.962207358,6.951615044,6.947341637,6.943808962,6.947341637,,,,,,,,,,,,,,,,,,,,PF,strong,7,,,,,,,,0,1.40276,,,,,,,,,,,,,,,,,,,,,,,,,,,,7,strong,-48,84,1,0,0,response7disk,6,189,-5,16,1,0,0,rectangle,-5,16,1,0,0,,6,0,0.000405,-5,16,1,0,0,,0,26,26,31,1,0,,,,,,,,,,,,,,,,,,,
,,,,,,,,,,,,,,,,,,,,,,,,,,,,,,,,,,,,,,,,,,5ff1c44bfef4d15dbc331ace,606843596c08de6cb2c25cbd,2021-04-03_13h28.53.426,Colour_Similarity_Experiment,2020.2.10,Win32,60,60674ec340277cd6a308bc9f,12.78606593,6.962207358,6.951615044,6.947341637,6.943808962,6.947341637,,,,,,,,,,,,,,,,,,,,PF,strong,7,,,,,,,,4,1.46478,,,,,,,,,,,,,,,,,,,,,,,,,,,,3,strong,55,-117,1,0,0,response3disk,9,190,18,-9,1,0,0,rectangle,18,-9,1,0,0,,6,3,0.000375,18,-9,1,0,0,,0,27,27,143,1,0,,,,,,,,,,,,,,,,,,,
,,,,,,,,,,,,,,,,,,,,,,,,,,,,,,,,,,,,,,,,,,5ff1c44bfef4d15dbc331ace,606843596c08de6cb2c25cbd,2021-04-03_13h28.53.426,Colour_Similarity_Experiment,2020.2.10,Win32,60,60674ec340277cd6a308bc9f,12.78606593,6.962207358,6.951615044,6.947341637,6.943808962,6.947341637,,,,,,,,,,,,,,,,,,,,PF,weak,7,,,,,,,,3,1.055,,,,,,,,,,,,,,,,,,,,,,,,,,,,2,weak,-70,-107,1,0,0,response5disk,6,191,0,2,1,0,0,rectangle,0,2,1,0,0,,6,3,0.000065,0,2,1,0,0,,0,28,28,113,1,0,,,,,,,,,,,,,,,,,,,
,,,,,,,,,,,,,,,,,,,,,,,,,,,,,,,,,,,,,,,,,,5ff1c44bfef4d15dbc331ace,606843596c08de6cb2c25cbd,2021-04-03_13h28.53.426,Colour_Similarity_Experiment,2020.2.10,Win32,60,60674ec340277cd6a308bc9f,12.78606593,6.962207358,6.951615044,6.947341637,6.943808962,6.947341637,,,,,,,,,,,,,,,,,,,,PF,weak,7,,,,,,,,7,1.15919,,,,,,,,,,,,,,,,,,,,,,,,,,,,4,weak,53,91,1,0,0,response1disk,1,192,2,1,1,0,0,rectangle,2,1,1,0,0,,6,2,0.0004,2,1,1,0,0,,0,29,29,115,1,0,,,,,,,,,,,,,,,,,,,
,,,,,,,,,,,,,,,,,,,,,,,,,,,,,,,,,,,,,,,,,,5ff1c44bfef4d15dbc331ace,606843596c08de6cb2c25cbd,2021-04-03_13h28.53.426,Colour_Similarity_Experiment,2020.2.10,Win32,60,60674ec340277cd6a308bc9f,12.78606593,6.962207358,6.951615044,6.947341637,6.943808962,6.947341637,,,,,,,,,,,,,,,,,,,,PF,strong,7,,,,,,,,7,1.020295,,,,,,,,,,,,,,,,,,,,,,,,,,,,1,strong,41,69,1,0,0,response1disk,1,193,-9,-1,1,0,0,rectangle,-9,-1,1,0,0,,6,1,0.000365,-9,-1,1,0,0,,0,30,30,151,1,0,,,,,,,,,,,,,,,,,,,
,,,,,,,,,,,,,,,,,,,,,,,,,,,,,,,,,,,,,,,,,,5ff1c44bfef4d15dbc331ace,606843596c08de6cb2c25cbd,2021-04-03_13h28.53.426,Colour_Similarity_Experiment,2020.2.10,Win32,60,60674ec340277cd6a308bc9f,12.78606593,6.962207358,6.951615044,6.947341637,6.943808962,6.947341637,,,,,,,,,,,,,,,,,,,,PF,strong,7,,,,,,,,6,1.46494,,,,,,,,,,,,,,,,,,,,,,,,,,,,9,strong,90,38,1,0,0,response1disk,8,194,20,-7,1,0,0,rectangle,20,-7,1,0,0,,6,7,0.000365,20,-7,1,0,0,,0,31,31,6,1,0,,,,,,,,,,,,,,,,,,,
