key_resp.keys,key_resp.rt,key_resp_16.keys,key_resp_16.rt,key_resp_2.keys,key_resp_2.rt,X Scale,ratio_pxpermm,screen_size_x,screen_size_y,testsize,key_resp_3.keys,key_resp_4.keys,key_resp_4.rt,line_size,key_resp_5.keys,key_resp_5.rt,key_resp_6.keys,key_resp_6.rt,key_resp_8.keys,key_resp_8.rt,key_resp_7.keys,key_resp_7.rt,key_resp_12.keys,key_resp_12.rt,key_resp_11.keys,key_resp_11.rt,key_resp_18.keys,key_resp_18.rt,key_resp_21.keys,key_resp_21.rt,key_resp_13.keys,key_resp_13.rt,key_resp_19.keys,key_resp_19.rt,ballposx,viewer_distance,trials.thisRepN,trials.thisTrialN,trials.thisN,trials.thisIndex,trials.ran,participant,session,date,expName,psychopyVersion,OS,frameRate,study_id,realFrameRate1,realFrameRate2,realFrameRate3,realFrameRate4,realFrameRate5,realFrameRate,viewerdistancecm,DVA_to_distance,radius_F,radius_P,r_F,R_P,key_resp_20.keys,key_resp_20.rt,key_resp_14.keys,key_resp_14.rt,key_resp_15.keys,key_resp_15.rt,key_resp_17.keys,key_resp_17.rt,key_resp_9.keys,key_resp_9.rt,key_resp_10.keys,key_resp_10.rt,Colour_1,Ecc,maskCon,mask_frames,mouse_5.x,mouse_5.y,mouse_5.leftButton,mouse_5.midButton,mouse_5.rightButton,mouse_5.clicked_name,Colour_2,similarity,response_time,mouse_10.x,mouse_10.y,mouse_10.leftButton,mouse_10.midButton,mouse_10.rightButton,mouse_10.clicked_name,mouse_7.x,mouse_7.y,mouse_7.leftButton,mouse_7.midButton,mouse_7.rightButton,catchnumberprac,mouse_6.x,mouse_6.y,mouse_6.leftButton,mouse_6.midButton,mouse_6.rightButton,duringprac.thisRepN,duringprac.thisTrialN,duringprac.thisN,duringprac.thisIndex,duringprac.ran,mouse_7.clicked_name,catchprac,mouse_6.clicked_name,key_resp_22.keys,key_resp_22.rt,Colour1,maskCon1,mouse.x,mouse.y,mouse.leftButton,mouse.midButton,mouse.rightButton,mouse.clicked_name,Colour2,trialnumber,mouse_2.x,mouse_2.y,mouse_2.leftButton,mouse_2.midButton,mouse_2.rightButton,mouse_2.clicked_name,mouse_3.x,mouse_3.y,mouse_3.leftButton,mouse_3.midButton,mouse_3.rightButton,catchresponse,catchnumber,response_time_catch,mouse_11.x,mouse_11.y,mouse_11.leftButton,mouse_11.midButton,mouse_11.rightButton,trials_2.thisRepN,trials_2.thisTrialN,trials_2.thisN,trials_2.thisIndex,trials_2.ran,Catch,mouse_3.clicked_name,mouse_11.clicked_name,trials_3.thisRepN,trials_3.thisTrialN,trials_3.thisN,trials_3.thisIndex,trials_3.ran,answer1,rt1,answer2,rt2,answer3,rt3,answer4,rt4,answer5,rt5,answer6,rt6,answer7,rt7
space,2.42102,space,15.253115,space,6.69881,44.2,4.42,309.0497738,173.7556561,1366,,space,14.99265,88.4,space,44.736885,space,7.08443,space,1.934485,space,5.636855,space,9.57974,space,7.881045,space,19.16883,space,6.6534,space,3.22921,return,6.69514,-311.448,808.4152496,0,0,0,0,1,601735932654fb9881a745d8,6068416b57578caa1da7c1be,2021-04-03_23h22.32.454,Colour_Similarity_Experiment,2020.2.10,Win32,60,60674ec340277cd6a308bc9f,17.76834,16.73789387,16.6808413,16.70385128,16.8102642,16.73789387,,,,,,,,,,,,,,,,,,,,,,,,,,,,,,,,,,,,,,,,,,,,,,,,,,,,,,,,,,,,,,,,,,,,,,,,,,,,,,,,,,,,,,,,,,,,,,,,,,,,,,,,,,,,,,,,,,
,,,,,,,,,,,,,,,,,,,,,,,,,,,,,,,,,return,6.727305,-317.595,814.2080341,1,0,1,0,1,601735932654fb9881a745d8,6068416b57578caa1da7c1be,2021-04-03_23h22.32.454,Colour_Similarity_Experiment,2020.2.10,Win32,60,60674ec340277cd6a308bc9f,17.76834,16.73789387,16.6808413,16.70385128,16.8102642,16.73789387,,,,,,,,,,,,,,,,,,,,,,,,,,,,,,,,,,,,,,,,,,,,,,,,,,,,,,,,,,,,,,,,,,,,,,,,,,,,,,,,,,,,,,,,,,,,,,,,,,,,,,,,,,,,,,,,,,
,,,,,,,,,,,,,,,,,,,,,,,,,,,,,,,,,return,6.57557,-295.056,792.9678245,2,0,2,0,1,601735932654fb9881a745d8,6068416b57578caa1da7c1be,2021-04-03_23h22.32.454,Colour_Similarity_Experiment,2020.2.10,Win32,60,60674ec340277cd6a308bc9f,17.76834,16.73789387,16.6808413,16.70385128,16.8102642,16.73789387,,,,,,,,,,,,,,,,,,,,,,,,,,,,,,,,,,,,,,,,,,,,,,,,,,,,,,,,,,,,,,,,,,,,,,,,,,,,,,,,,,,,,,,,,,,,,,,,,,,,,,,,,,,,,,,,,,
,,,,,,,,,,,,,,,,,,,,,,,,,,,,,,,,,return,6.78445,-311.448,808.4152496,3,0,3,0,1,601735932654fb9881a745d8,6068416b57578caa1da7c1be,2021-04-03_23h22.32.454,Colour_Similarity_Experiment,2020.2.10,Win32,60,60674ec340277cd6a308bc9f,17.76834,16.73789387,16.6808413,16.70385128,16.8102642,16.73789387,,,,,,,,,,,,,,,,,,,,,,,,,,,,,,,,,,,,,,,,,,,,,,,,,,,,,,,,,,,,,,,,,,,,,,,,,,,,,,,,,,,,,,,,,,,,,,,,,,,,,,,,,,,,,,,,,,
,,,,,,,,,,,,,,,,,,,,,,,,,,,,,,,,,return,6.42592,-280.713,779.4513275,4,0,4,0,1,601735932654fb9881a745d8,6068416b57578caa1da7c1be,2021-04-03_23h22.32.454,Colour_Similarity_Experiment,2020.2.10,Win32,60,60674ec340277cd6a308bc9f,17.76834,16.73789387,16.6808413,16.70385128,16.8102642,16.73789387,,,,,,,,,,,,,,,,,,,,,,,,,,,,,,,,,,,,,,,,,,,,,,,,,,,,,,,,,,,,,,,,,,,,,,,,,,,,,,,,,,,,,,,,,,,,,,,,,,,,,,,,,,,,,,,,,,
,,,,,,,,,,,,,,,,,,,,,,,,,,,,,,,,,,,,,,,,,,601735932654fb9881a745d8,6068416b57578caa1da7c1be,2021-04-03_23h22.32.454,Colour_Similarity_Experiment,2020.2.10,Win32,60,60674ec340277cd6a308bc9f,17.76834,16.73789387,16.6808413,16.70385128,16.8102642,16.73789387,81,14.13859754,93.73890166,624.9260111,62.49260111,281.216705,space,3.808465,space,21.87255,space,34.52096,space,14.79805,space,2.61534,space,4.54258,5,PF,strong,3,48,97,1,0,0,response1disk_5,8,7,10.59108,-5,5,1,0,0,rectangle_8,-5,5,1,0,0,5,-5,5,1,0,0,0,0,0,2,1,,,,,,,,,,,,,,,,,,,,,,,,,,,,,,,,,,,,,,,,,,,,,,,,,,,,,,,,,,,,,
,,,,,,,,,,,,,,,,,,,,,,,,,,,,,,,,,,,,,,,,,,601735932654fb9881a745d8,6068416b57578caa1da7c1be,2021-04-03_23h22.32.454,Colour_Similarity_Experiment,2020.2.10,Win32,60,60674ec340277cd6a308bc9f,17.76834,16.73789387,16.6808413,16.70385128,16.8102642,16.73789387,,,,,,,,,,,,,,,,,,,6,PF,weak,3,72,96,1,0,0,response1disk_5,1,7,5.85032,4,1,1,0,0,rectangle_8,4,1,1,0,0,5,4,1,1,0,0,0,1,1,1,1,,,,,,,,,,,,,,,,,,,,,,,,,,,,,,,,,,,,,,,,,,,,,,,,,,,,,,,,,,,,,
,,,,,,,,,,,,,,,,,,,,,,,,,,,,,,,,,,,,,,,,,,601735932654fb9881a745d8,6068416b57578caa1da7c1be,2021-04-03_23h22.32.454,Colour_Similarity_Experiment,2020.2.10,Win32,60,60674ec340277cd6a308bc9f,17.76834,16.73789387,16.6808413,16.70385128,16.8102642,16.73789387,,,,,,,,,,,,,,,,,,,4,PF,weak,3,41,-95,1,0,0,response3disk_5,9,4,6.660985,9,6,1,0,0,rectangle_8,94,-46,1,0,0,5,3,4,1,0,0,0,2,2,6,1,response3disk_7,5,rectangle_4,,,,,,,,,,,,,,,,,,,,,,,,,,,,,,,,,,,,,,,,,,,,,,,,,,,,,,,,,,
,,,,,,,,,,,,,,,,,,,,,,,,,,,,,,,,,,,,,,,,,,601735932654fb9881a745d8,6068416b57578caa1da7c1be,2021-04-03_23h22.32.454,Colour_Similarity_Experiment,2020.2.10,Win32,60,60674ec340277cd6a308bc9f,17.76834,16.73789387,16.6808413,16.70385128,16.8102642,16.73789387,,,,,,,,,,,,,,,,,,,2,PF,weak,3,38,-102,1,0,0,response3disk_5,8,4,5.121045,-9,-1,1,0,0,rectangle_8,80,-55,1,0,0,5,-1,-1,1,0,0,0,3,3,4,1,response3disk_7,5,rectangle_4,,,,,,,,,,,,,,,,,,,,,,,,,,,,,,,,,,,,,,,,,,,,,,,,,,,,,,,,,,
,,,,,,,,,,,,,,,,,,,,,,,,,,,,,,,,,,,,,,,,,,601735932654fb9881a745d8,6068416b57578caa1da7c1be,2021-04-03_23h22.32.454,Colour_Similarity_Experiment,2020.2.10,Win32,60,60674ec340277cd6a308bc9f,17.76834,16.73789387,16.6808413,16.70385128,16.8102642,16.73789387,,,,,,,,,,,,,,,,,,,4,PF,strong,3,-45,-102,1,0,0,response5disk_5,7,3,3.49761,17,-7,1,0,0,rectangle_8,17,-7,1,0,0,5,17,-7,1,0,0,0,4,4,0,1,,,,,,,,,,,,,,,,,,,,,,,,,,,,,,,,,,,,,,,,,,,,,,,,,,,,,,,,,,,,,
,,,,,,,,,,,,,,,,,,,,,,,,,,,,,,,,,,,,,,,,,,601735932654fb9881a745d8,6068416b57578caa1da7c1be,2021-04-03_23h22.32.454,Colour_Similarity_Experiment,2020.2.10,Win32,60,60674ec340277cd6a308bc9f,17.76834,16.73789387,16.6808413,16.70385128,16.8102642,16.73789387,,,,,,,,,,,,,,,,,,,8,PF,strong,3,34,-99,1,0,0,response3disk_5,1,4,3.33266,7,-1,1,0,0,rectangle_8,7,-1,1,0,0,5,7,-1,1,0,0,0,5,5,3,1,,,,,,,,,,,,,,,,,,,,,,,,,,,,,,,,,,,,,,,,,,,,,,,,,,,,,,,,,,,,,
,,,,,,,,,,,,,,,,,,,,,,,,,,,,,,,,,,,,,,,,,,601735932654fb9881a745d8,6068416b57578caa1da7c1be,2021-04-03_23h22.32.454,Colour_Similarity_Experiment,2020.2.10,Win32,60,60674ec340277cd6a308bc9f,17.76834,16.73789387,16.6808413,16.70385128,16.8102642,16.73789387,,,,,,,,,,,,,,,,,,,3,PF,weak,3,105,-49,1,0,0,response3disk_5,8,5,3.66463,13,3,1,0,0,rectangle_8,13,3,1,0,0,5,13,3,1,0,0,0,6,6,5,1,,,,,,,,,,,,,,,,,,,,,,,,,,,,,,,,,,,,,,,,,,,,,,,,,,,,,,,,,,,,,
,,,,,,,,,,,,,,,,,,,,,,,,,,,,,,,,,,,,,,,,,,601735932654fb9881a745d8,6068416b57578caa1da7c1be,2021-04-03_23h22.32.454,Colour_Similarity_Experiment,2020.2.10,Win32,60,60674ec340277cd6a308bc9f,17.76834,16.73789387,16.6808413,16.70385128,16.8102642,16.73789387,,,,,,,,,,,,,,,,,,,,PF,weak,3,,,,,,,,6,9.18545,,,,,,,,,,,,,,,,,,,,,,,,,,space,4.574585,8,weak,95,34,1,0,0,response1disk,2,1,-5,-5,1,0,0,rectangle,-5,-5,1,0,0,,5,0.00351,-5,-5,1,0,0,0,0,0,83,1,0,,,,,,,,,,,,,,,,,,,,,
,,,,,,,,,,,,,,,,,,,,,,,,,,,,,,,,,,,,,,,,,,601735932654fb9881a745d8,6068416b57578caa1da7c1be,2021-04-03_23h22.32.454,Colour_Similarity_Experiment,2020.2.10,Win32,60,60674ec340277cd6a308bc9f,17.76834,16.73789387,16.6808413,16.70385128,16.8102642,16.73789387,,,,,,,,,,,,,,,,,,,,PF,weak,3,,,,,,,,3,4.031905,,,,,,,,,,,,,,,,,,,,,,,,,,,,1,weak,-55,-88,1,0,0,response5disk,2,2,11,-5,1,0,0,rectangle,11,-5,1,0,0,,5,0.000275,11,-5,1,0,0,0,1,1,24,1,0,,,,,,,,,,,,,,,,,,,,,
,,,,,,,,,,,,,,,,,,,,,,,,,,,,,,,,,,,,,,,,,,601735932654fb9881a745d8,6068416b57578caa1da7c1be,2021-04-03_23h22.32.454,Colour_Similarity_Experiment,2020.2.10,Win32,60,60674ec340277cd6a308bc9f,17.76834,16.73789387,16.6808413,16.70385128,16.8102642,16.73789387,,,,,,,,,,,,,,,,,,,,PF,weak,3,,,,,,,,4,3.653715,,,,,,,,,,,,,,,,,,,,,,,,,,,,1,weak,58,-92,1,0,0,response3disk,8,3,10,1,1,0,0,rectangle,10,1,1,0,0,,1,0.003135,10,1,1,0,0,0,2,2,65,1,0,,,,,,,,,,,,,,,,,,,,,
,,,,,,,,,,,,,,,,,,,,,,,,,,,,,,,,,,,,,,,,,,601735932654fb9881a745d8,6068416b57578caa1da7c1be,2021-04-03_23h22.32.454,Colour_Similarity_Experiment,2020.2.10,Win32,60,60674ec340277cd6a308bc9f,17.76834,16.73789387,16.6808413,16.70385128,16.8102642,16.73789387,,,,,,,,,,,,,,,,,,,,PF,strong,3,,,,,,,,4,5.25991,,,,,,,,,,,,,,,,,,,,,,,,,,,,9,strong,32,-106,1,0,0,response3disk,6,4,9,-9,1,0,0,rectangle,9,-9,1,0,0,,7,0.00173,9,-9,1,0,0,0,3,3,117,1,0,,,,,,,,,,,,,,,,,,,,,
,,,,,,,,,,,,,,,,,,,,,,,,,,,,,,,,,,,,,,,,,,601735932654fb9881a745d8,6068416b57578caa1da7c1be,2021-04-03_23h22.32.454,Colour_Similarity_Experiment,2020.2.10,Win32,60,60674ec340277cd6a308bc9f,17.76834,16.73789387,16.6808413,16.70385128,16.8102642,16.73789387,,,,,,,,,,,,,,,,,,,,PF,weak,3,,,,,,,,0,3.280675,,,,,,,,,,,,,,,,,,,,,,,,,,,,1,weak,-43,115,1,0,0,response7disk,1,5,-9,-9,1,0,0,rectangle,105,-61,1,0,0,5,5,2.72501,10,1,1,0,0,0,4,4,76,1,1,response3disk_3,rectangle,,,,,,,,,,,,,,,,,,,
,,,,,,,,,,,,,,,,,,,,,,,,,,,,,,,,,,,,,,,,,,601735932654fb9881a745d8,6068416b57578caa1da7c1be,2021-04-03_23h22.32.454,Colour_Similarity_Experiment,2020.2.10,Win32,60,60674ec340277cd6a308bc9f,17.76834,16.73789387,16.6808413,16.70385128,16.8102642,16.73789387,,,,,,,,,,,,,,,,,,,,PF,strong,3,,,,,,,,2,2.57938,,,,,,,,,,,,,,,,,,,,,,,,,,,,7,strong,-79,-33,1,0,0,response5disk,8,6,19,4,1,0,0,rectangle,-39,86,1,0,0,0,0,3.56947,1,3,1,0,0,0,5,5,97,1,1,response7disk_3,rectangle,,,,,,,,,,,,,,,,,,,
,,,,,,,,,,,,,,,,,,,,,,,,,,,,,,,,,,,,,,,,,,601735932654fb9881a745d8,6068416b57578caa1da7c1be,2021-04-03_23h22.32.454,Colour_Similarity_Experiment,2020.2.10,Win32,60,60674ec340277cd6a308bc9f,17.76834,16.73789387,16.6808413,16.70385128,16.8102642,16.73789387,,,,,,,,,,,,,,,,,,,,PF,strong,3,,,,,,,,4,6.089525,,,,,,,,,,,,,,,,,,,,,,,,,,,,3,strong,44,-91,1,0,0,response3disk,7,7,-4,-2,1,0,0,rectangle,-4,-2,1,0,0,0,1,0.003075,-4,-2,1,0,0,0,6,6,118,1,0,,,,,,,,,,,,,,,,,,,,,
,,,,,,,,,,,,,,,,,,,,,,,,,,,,,,,,,,,,,,,,,,601735932654fb9881a745d8,6068416b57578caa1da7c1be,2021-04-03_23h22.32.454,Colour_Similarity_Experiment,2020.2.10,Win32,60,60674ec340277cd6a308bc9f,17.76834,16.73789387,16.6808413,16.70385128,16.8102642,16.73789387,,,,,,,,,,,,,,,,,,,,PF,strong,3,,,,,,,,1,2.32498,,,,,,,,,,,,,,,,,,,,,,,,,,,,6,strong,-85,43,1,0,0,response7disk,6,8,15,-3,1,0,0,rectangle,15,-3,1,0,0,0,2,0.003155,15,-3,1,0,0,0,7,7,91,1,0,,,,,,,,,,,,,,,,,,,,,
,,,,,,,,,,,,,,,,,,,,,,,,,,,,,,,,,,,,,,,,,,601735932654fb9881a745d8,6068416b57578caa1da7c1be,2021-04-03_23h22.32.454,Colour_Similarity_Experiment,2020.2.10,Win32,60,60674ec340277cd6a308bc9f,17.76834,16.73789387,16.6808413,16.70385128,16.8102642,16.73789387,,,,,,,,,,,,,,,,,,,,PF,strong,3,,,,,,,,6,2.7601,,,,,,,,,,,,,,,,,,,,,,,,,,,,1,strong,113,53,1,0,0,response1disk,3,9,9,-4,1,0,0,rectangle,9,-4,1,0,0,0,0,0.004495,9,-4,1,0,0,0,8,8,99,1,0,,,,,,,,,,,,,,,,,,,,,
,,,,,,,,,,,,,,,,,,,,,,,,,,,,,,,,,,,,,,,,,,601735932654fb9881a745d8,6068416b57578caa1da7c1be,2021-04-03_23h22.32.454,Colour_Similarity_Experiment,2020.2.10,Win32,60,60674ec340277cd6a308bc9f,17.76834,16.73789387,16.6808413,16.70385128,16.8102642,16.73789387,,,,,,,,,,,,,,,,,,,,PF,weak,3,,,,,,,,3,2.86076,,,,,,,,,,,,,,,,,,,,,,,,,,,,2,weak,-38,-90,1,0,0,response5disk,9,10,7,4,1,0,0,rectangle,7,4,1,0,0,0,1,0.001925,7,4,1,0,0,0,9,9,39,1,0,,,,,,,,,,,,,,,,,,,,,
,,,,,,,,,,,,,,,,,,,,,,,,,,,,,,,,,,,,,,,,,,601735932654fb9881a745d8,6068416b57578caa1da7c1be,2021-04-03_23h22.32.454,Colour_Similarity_Experiment,2020.2.10,Win32,60,60674ec340277cd6a308bc9f,17.76834,16.73789387,16.6808413,16.70385128,16.8102642,16.73789387,,,,,,,,,,,,,,,,,,,,PF,strong,3,,,,,,,,2,2.6305,,,,,,,,,,,,,,,,,,,,,,,,,,,,3,strong,-94,-63,1,0,0,response5disk,2,11,1,-6,1,0,0,rectangle,1,-6,1,0,0,0,0,0.001755,1,-6,1,0,0,0,10,10,93,1,0,,,,,,,,,,,,,,,,,,,,,
,,,,,,,,,,,,,,,,,,,,,,,,,,,,,,,,,,,,,,,,,,601735932654fb9881a745d8,6068416b57578caa1da7c1be,2021-04-03_23h22.32.454,Colour_Similarity_Experiment,2020.2.10,Win32,60,60674ec340277cd6a308bc9f,17.76834,16.73789387,16.6808413,16.70385128,16.8102642,16.73789387,,,,,,,,,,,,,,,,,,,,PF,strong,3,,,,,,,,4,2.425105,,,,,,,,,,,,,,,,,,,,,,,,,,,,1,strong,58,-83,1,0,0,response3disk,6,12,7,-4,1,0,0,rectangle,7,-4,1,0,0,0,1,0.002195,7,-4,1,0,0,0,11,11,58,1,0,,,,,,,,,,,,,,,,,,,,,
,,,,,,,,,,,,,,,,,,,,,,,,,,,,,,,,,,,,,,,,,,601735932654fb9881a745d8,6068416b57578caa1da7c1be,2021-04-03_23h22.32.454,Colour_Similarity_Experiment,2020.2.10,Win32,60,60674ec340277cd6a308bc9f,17.76834,16.73789387,16.6808413,16.70385128,16.8102642,16.73789387,,,,,,,,,,,,,,,,,,,,PF,weak,3,,,,,,,,2,2.26634,,,,,,,,,,,,,,,,,,,,,,,,,,,,7,weak,-94,-50,1,0,0,response5disk,9,13,8,1,1,0,0,rectangle,8,1,1,0,0,0,0,0.00293,8,1,1,0,0,0,12,12,10,1,0,,,,,,,,,,,,,,,,,,,,,
,,,,,,,,,,,,,,,,,,,,,,,,,,,,,,,,,,,,,,,,,,601735932654fb9881a745d8,6068416b57578caa1da7c1be,2021-04-03_23h22.32.454,Colour_Similarity_Experiment,2020.2.10,Win32,60,60674ec340277cd6a308bc9f,17.76834,16.73789387,16.6808413,16.70385128,16.8102642,16.73789387,,,,,,,,,,,,,,,,,,,,PF,strong,3,,,,,,,,2,1.991695,,,,,,,,,,,,,,,,,,,,,,,,,,,,8,strong,-101,-35,1,0,0,response5disk,7,14,-9,0,1,0,0,rectangle,-9,0,1,0,0,0,4,0.00191,-9,0,1,0,0,0,13,13,86,1,0,,,,,,,,,,,,,,,,,,,,,
,,,,,,,,,,,,,,,,,,,,,,,,,,,,,,,,,,,,,,,,,,601735932654fb9881a745d8,6068416b57578caa1da7c1be,2021-04-03_23h22.32.454,Colour_Similarity_Experiment,2020.2.10,Win32,60,60674ec340277cd6a308bc9f,17.76834,16.73789387,16.6808413,16.70385128,16.8102642,16.73789387,,,,,,,,,,,,,,,,,,,,PF,weak,3,,,,,,,,0,1.53001,,,,,,,,,,,,,,,,,,,,,,,,,,,,9,weak,-40,90,1,0,0,response7disk,9,15,19,-5,1,0,0,rectangle,19,-5,1,0,0,0,6,0.001845,19,-5,1,0,0,0,14,14,106,1,0,,,,,,,,,,,,,,,,,,,,,
,,,,,,,,,,,,,,,,,,,,,,,,,,,,,,,,,,,,,,,,,,601735932654fb9881a745d8,6068416b57578caa1da7c1be,2021-04-03_23h22.32.454,Colour_Similarity_Experiment,2020.2.10,Win32,60,60674ec340277cd6a308bc9f,17.76834,16.73789387,16.6808413,16.70385128,16.8102642,16.73789387,,,,,,,,,,,,,,,,,,,,PF,weak,3,,,,,,,,4,2.696865,,,,,,,,,,,,,,,,,,,,,,,,,,,,9,weak,28,-94,1,0,0,response3disk,3,16,-6,2,1,0,0,rectangle,-6,2,1,0,0,0,7,0.0022,-6,2,1,0,0,0,15,15,119,1,0,,,,,,,,,,,,,,,,,,,,,
,,,,,,,,,,,,,,,,,,,,,,,,,,,,,,,,,,,,,,,,,,601735932654fb9881a745d8,6068416b57578caa1da7c1be,2021-04-03_23h22.32.454,Colour_Similarity_Experiment,2020.2.10,Win32,60,60674ec340277cd6a308bc9f,17.76834,16.73789387,16.6808413,16.70385128,16.8102642,16.73789387,,,,,,,,,,,,,,,,,,,,PF,weak,3,,,,,,,,6,2.357335,,,,,,,,,,,,,,,,,,,,,,,,,,,,2,weak,100,56,1,0,0,response1disk,6,17,9,4,1,0,0,rectangle,9,4,1,0,0,0,6,0.00181,9,4,1,0,0,0,16,16,113,1,0,,,,,,,,,,,,,,,,,,,,,
,,,,,,,,,,,,,,,,,,,,,,,,,,,,,,,,,,,,,,,,,,601735932654fb9881a745d8,6068416b57578caa1da7c1be,2021-04-03_23h22.32.454,Colour_Similarity_Experiment,2020.2.10,Win32,60,60674ec340277cd6a308bc9f,17.76834,16.73789387,16.6808413,16.70385128,16.8102642,16.73789387,,,,,,,,,,,,,,,,,,,,PF,weak,3,,,,,,,,5,2.056525,,,,,,,,,,,,,,,,,,,,,,,,,,,,4,weak,96,-46,1,0,0,response3disk,1,18,-8,0,1,0,0,rectangle,-8,0,1,0,0,0,4,0.00293,-8,0,1,0,0,0,17,17,115,1,0,,,,,,,,,,,,,,,,,,,,,
,,,,,,,,,,,,,,,,,,,,,,,,,,,,,,,,,,,,,,,,,,601735932654fb9881a745d8,6068416b57578caa1da7c1be,2021-04-03_23h22.32.454,Colour_Similarity_Experiment,2020.2.10,Win32,60,60674ec340277cd6a308bc9f,17.76834,16.73789387,16.6808413,16.70385128,16.8102642,16.73789387,,,,,,,,,,,,,,,,,,,,PF,strong,3,,,,,,,,4,2.52484,,,,,,,,,,,,,,,,,,,,,,,,,,,,8,strong,43,-74,1,0,0,response3disk,5,19,4,5,1,0,0,rectangle,4,5,1,0,0,0,3,0.001885,4,5,1,0,0,0,18,18,152,1,0,,,,,,,,,,,,,,,,,,,,,
,,,,,,,,,,,,,,,,,,,,,,,,,,,,,,,,,,,,,,,,,,601735932654fb9881a745d8,6068416b57578caa1da7c1be,2021-04-03_23h22.32.454,Colour_Similarity_Experiment,2020.2.10,Win32,60,60674ec340277cd6a308bc9f,17.76834,16.73789387,16.6808413,16.70385128,16.8102642,16.73789387,,,,,,,,,,,,,,,,,,,,PF,strong,3,,,,,,,,4,2.09356,,,,,,,,,,,,,,,,,,,,,,,,,,,,1,strong,51,-108,1,0,0,response3disk,5,20,7,-1,1,0,0,rectangle,7,-1,1,0,0,0,6,0.001815,7,-1,1,0,0,0,19,19,82,1,0,,,,,,,,,,,,,,,,,,,,,
,,,,,,,,,,,,,,,,,,,,,,,,,,,,,,,,,,,,,,,,,,601735932654fb9881a745d8,6068416b57578caa1da7c1be,2021-04-03_23h22.32.454,Colour_Similarity_Experiment,2020.2.10,Win32,60,60674ec340277cd6a308bc9f,17.76834,16.73789387,16.6808413,16.70385128,16.8102642,16.73789387,,,,,,,,,,,,,,,,,,,,PF,weak,3,,,,,,,,6,2.39624,,,,,,,,,,,,,,,,,,,,,,,,,,,,3,weak,89,58,1,0,0,response1disk,7,21,-3,-2,1,0,0,rectangle,-3,-2,1,0,0,0,5,0.00669,-3,-2,1,0,0,0,20,20,41,1,0,,,,,,,,,,,,,,,,,,,,,
,,,,,,,,,,,,,,,,,,,,,,,,,,,,,,,,,,,,,,,,,,601735932654fb9881a745d8,6068416b57578caa1da7c1be,2021-04-03_23h22.32.454,Colour_Similarity_Experiment,2020.2.10,Win32,60,60674ec340277cd6a308bc9f,17.76834,16.73789387,16.6808413,16.70385128,16.8102642,16.73789387,,,,,,,,,,,,,,,,,,,,PF,strong,3,,,,,,,,7,2.47722,,,,,,,,,,,,,,,,,,,,,,,,,,,,9,strong,58,103,1,0,0,response1disk,7,22,6,-6,1,0,0,rectangle,6,-6,1,0,0,0,1,0.006835,6,-6,1,0,0,0,21,21,100,1,0,,,,,,,,,,,,,,,,,,,,,
,,,,,,,,,,,,,,,,,,,,,,,,,,,,,,,,,,,,,,,,,,601735932654fb9881a745d8,6068416b57578caa1da7c1be,2021-04-03_23h22.32.454,Colour_Similarity_Experiment,2020.2.10,Win32,60,60674ec340277cd6a308bc9f,17.76834,16.73789387,16.6808413,16.70385128,16.8102642,16.73789387,,,,,,,,,,,,,,,,,,,,PF,weak,3,,,,,,,,1,1.773705,,,,,,,,,,,,,,,,,,,,,,,,,,,,3,weak,-94,40,1,0,0,response7disk,5,23,1,1,1,0,0,rectangle,1,1,1,0,0,0,5,0.001725,1,1,1,0,0,0,22,22,66,1,0,,,,,,,,,,,,,,,,,,,,,
,,,,,,,,,,,,,,,,,,,,,,,,,,,,,,,,,,,,,,,,,,601735932654fb9881a745d8,6068416b57578caa1da7c1be,2021-04-03_23h22.32.454,Colour_Similarity_Experiment,2020.2.10,Win32,60,60674ec340277cd6a308bc9f,17.76834,16.73789387,16.6808413,16.70385128,16.8102642,16.73789387,,,,,,,,,,,,,,,,,,,,PF,weak,3,,,,,,,,5,1.847265,,,,,,,,,,,,,,,,,,,,,,,,,,,,5,weak,88,-65,1,0,0,response3disk,9,24,22,-7,1,0,0,rectangle,-46,-104,1,0,0,3,3,3.20488,5,-4,1,0,0,0,23,23,136,1,1,response5disk_3,rectangle,,,,,,,,,,,,,,,,,,,
,,,,,,,,,,,,,,,,,,,,,,,,,,,,,,,,,,,,,,,,,,601735932654fb9881a745d8,6068416b57578caa1da7c1be,2021-04-03_23h22.32.454,Colour_Similarity_Experiment,2020.2.10,Win32,60,60674ec340277cd6a308bc9f,17.76834,16.73789387,16.6808413,16.70385128,16.8102642,16.73789387,,,,,,,,,,,,,,,,,,,,PF,strong,3,,,,,,,,5,1.52978,,,,,,,,,,,,,,,,,,,,,,,,,,,,8,strong,96,-41,1,0,0,response3disk,4,25,12,-8,1,0,0,rectangle,12,-8,1,0,0,3,5,0.002445,12,-8,1,0,0,0,24,24,88,1,0,,,,,,,,,,,,,,,,,,,,,
,,,,,,,,,,,,,,,,,,,,,,,,,,,,,,,,,,,,,,,,,,601735932654fb9881a745d8,6068416b57578caa1da7c1be,2021-04-03_23h22.32.454,Colour_Similarity_Experiment,2020.2.10,Win32,60,60674ec340277cd6a308bc9f,17.76834,16.73789387,16.6808413,16.70385128,16.8102642,16.73789387,,,,,,,,,,,,,,,,,,,,PF,strong,3,,,,,,,,3,2.360685,,,,,,,,,,,,,,,,,,,,,,,,,,,,9,strong,-50,-77,1,0,0,response5disk,1,26,-6,8,1,0,0,rectangle,-6,8,1,0,0,3,2,0.00273,-6,8,1,0,0,0,25,25,111,1,0,,,,,,,,,,,,,,,,,,,,,
,,,,,,,,,,,,,,,,,,,,,,,,,,,,,,,,,,,,,,,,,,601735932654fb9881a745d8,6068416b57578caa1da7c1be,2021-04-03_23h22.32.454,Colour_Similarity_Experiment,2020.2.10,Win32,60,60674ec340277cd6a308bc9f,17.76834,16.73789387,16.6808413,16.70385128,16.8102642,16.73789387,,,,,,,,,,,,,,,,,,,,PF,weak,3,,,,,,,,4,2.427225,,,,,,,,,,,,,,,,,,,,,,,,,,,,7,weak,35,-97,1,0,0,response3disk,4,27,8,-4,1,0,0,rectangle,8,-4,1,0,0,3,2,0.0013,8,-4,1,0,0,0,26,26,43,1,0,,,,,,,,,,,,,,,,,,,,,
,,,,,,,,,,,,,,,,,,,,,,,,,,,,,,,,,,,,,,,,,,601735932654fb9881a745d8,6068416b57578caa1da7c1be,2021-04-03_23h22.32.454,Colour_Similarity_Experiment,2020.2.10,Win32,60,60674ec340277cd6a308bc9f,17.76834,16.73789387,16.6808413,16.70385128,16.8102642,16.73789387,,,,,,,,,,,,,,,,,,,,PF,strong,3,,,,,,,,7,3.34708,,,,,,,,,,,,,,,,,,,,,,,,,,,,7,strong,52,108,1,0,0,response1disk,1,28,3,1,1,0,0,rectangle,3,1,1,0,0,3,5,0.00392,3,1,1,0,0,0,27,27,132,1,0,,,,,,,,,,,,,,,,,,,,,
,,,,,,,,,,,,,,,,,,,,,,,,,,,,,,,,,,,,,,,,,,601735932654fb9881a745d8,6068416b57578caa1da7c1be,2021-04-03_23h22.32.454,Colour_Similarity_Experiment,2020.2.10,Win32,60,60674ec340277cd6a308bc9f,17.76834,16.73789387,16.6808413,16.70385128,16.8102642,16.73789387,,,,,,,,,,,,,,,,,,,,PF,strong,3,,,,,,,,1,4.45408,,,,,,,,,,,,,,,,,,,,,,,,,,,,8,strong,-110,33,1,0,0,response7disk,8,29,-8,-5,1,0,0,rectangle,-8,-5,1,0,0,3,6,0.00177,-8,-5,1,0,0,0,28,28,48,1,0,,,,,,,,,,,,,,,,,,,,,
,,,,,,,,,,,,,,,,,,,,,,,,,,,,,,,,,,,,,,,,,,601735932654fb9881a745d8,6068416b57578caa1da7c1be,2021-04-03_23h22.32.454,Colour_Similarity_Experiment,2020.2.10,Win32,60,60674ec340277cd6a308bc9f,17.76834,16.73789387,16.6808413,16.70385128,16.8102642,16.73789387,,,,,,,,,,,,,,,,,,,,PF,strong,3,,,,,,,,4,1.704545,,,,,,,,,,,,,,,,,,,,,,,,,,,,2,strong,47,-77,1,0,0,response3disk,9,30,-7,11,1,0,0,rectangle,-7,11,1,0,0,3,7,0.00243,-7,11,1,0,0,0,29,29,72,1,0,,,,,,,,,,,,,,,,,,,,,
,,,,,,,,,,,,,,,,,,,,,,,,,,,,,,,,,,,,,,,,,,601735932654fb9881a745d8,6068416b57578caa1da7c1be,2021-04-03_23h22.32.454,Colour_Similarity_Experiment,2020.2.10,Win32,60,60674ec340277cd6a308bc9f,17.76834,16.73789387,16.6808413,16.70385128,16.8102642,16.73789387,,,,,,,,,,,,,,,,,,,,PF,weak,3,,,,,,,,2,1.78096,,,,,,,,,,,,,,,,,,,,,,,,,,,,6,weak,-99,-32,1,0,0,response5disk,5,31,-3,7,1,0,0,rectangle,-3,7,1,0,0,3,6,0.00204,-3,7,1,0,0,0,30,30,59,1,0,,,,,,,,,,,,,,,,,,,,,
,,,,,,,,,,,,,,,,,,,,,,,,,,,,,,,,,,,,,,,,,,601735932654fb9881a745d8,6068416b57578caa1da7c1be,2021-04-03_23h22.32.454,Colour_Similarity_Experiment,2020.2.10,Win32,60,60674ec340277cd6a308bc9f,17.76834,16.73789387,16.6808413,16.70385128,16.8102642,16.73789387,,,,,,,,,,,,,,,,,,,,PF,strong,3,,,,,,,,5,1.6701,,,,,,,,,,,,,,,,,,,,,,,,,,,,9,strong,85,-49,1,0,0,response3disk,4,32,9,-5,1,0,0,rectangle,9,-5,1,0,0,3,2,0.00558,9,-5,1,0,0,0,31,31,60,1,0,,,,,,,,,,,,,,,,,,,,,
,,,,,,,,,,,,,,,,,,,,,,,,,,,,,,,,,,,,,,,,,,601735932654fb9881a745d8,6068416b57578caa1da7c1be,2021-04-03_23h22.32.454,Colour_Similarity_Experiment,2020.2.10,Win32,60,60674ec340277cd6a308bc9f,17.76834,16.73789387,16.6808413,16.70385128,16.8102642,16.73789387,,,,,,,,,,,,,,,,,,,,PF,weak,3,,,,,,,,6,2.884695,,,,,,,,,,,,,,,,,,,,,,,,,,,,8,weak,70,32,1,0,0,response1disk,4,33,3,4,1,0,0,rectangle,3,4,1,0,0,3,1,0.002815,3,4,1,0,0,0,32,32,78,1,0,,,,,,,,,,,,,,,,,,,,,
,,,,,,,,,,,,,,,,,,,,,,,,,,,,,,,,,,,,,,,,,,601735932654fb9881a745d8,6068416b57578caa1da7c1be,2021-04-03_23h22.32.454,Colour_Similarity_Experiment,2020.2.10,Win32,60,60674ec340277cd6a308bc9f,17.76834,16.73789387,16.6808413,16.70385128,16.8102642,16.73789387,,,,,,,,,,,,,,,,,,,,PF,strong,3,,,,,,,,3,2.10217,,,,,,,,,,,,,,,,,,,,,,,,,,,,3,strong,-45,-84,1,0,0,response5disk,6,34,5,-4,1,0,0,rectangle,5,-4,1,0,0,3,6,0.002175,5,-4,1,0,0,0,33,33,95,1,0,,,,,,,,,,,,,,,,,,,,,
,,,,,,,,,,,,,,,,,,,,,,,,,,,,,,,,,,,,,,,,,,601735932654fb9881a745d8,6068416b57578caa1da7c1be,2021-04-03_23h22.32.454,Colour_Similarity_Experiment,2020.2.10,Win32,60,60674ec340277cd6a308bc9f,17.76834,16.73789387,16.6808413,16.70385128,16.8102642,16.73789387,,,,,,,,,,,,,,,,,,,,PF,weak,3,,,,,,,,2,1.81235,,,,,,,,,,,,,,,,,,,,,,,,,,,,9,weak,-71,-38,1,0,0,response5disk,8,35,19,0,1,0,0,rectangle,19,0,1,0,0,3,2,0.001715,19,0,1,0,0,0,34,34,67,1,0,,,,,,,,,,,,,,,,,,,,,
,,,,,,,,,,,,,,,,,,,,,,,,,,,,,,,,,,,,,,,,,,601735932654fb9881a745d8,6068416b57578caa1da7c1be,2021-04-03_23h22.32.454,Colour_Similarity_Experiment,2020.2.10,Win32,60,60674ec340277cd6a308bc9f,17.76834,16.73789387,16.6808413,16.70385128,16.8102642,16.73789387,,,,,,,,,,,,,,,,,,,,PF,strong,3,,,,,,,,1,2.35189,,,,,,,,,,,,,,,,,,,,,,,,,,,,7,strong,-77,29,1,0,0,response7disk,6,36,-5,6,1,0,0,rectangle,-5,6,1,0,0,3,4,0.003115,-5,6,1,0,0,0,35,35,31,1,0,,,,,,,,,,,,,,,,,,,,,
,,,,,,,,,,,,,,,,,,,,,,,,,,,,,,,,,,,,,,,,,,601735932654fb9881a745d8,6068416b57578caa1da7c1be,2021-04-03_23h22.32.454,Colour_Similarity_Experiment,2020.2.10,Win32,60,60674ec340277cd6a308bc9f,17.76834,16.73789387,16.6808413,16.70385128,16.8102642,16.73789387,,,,,,,,,,,,,,,,,,,,PF,strong,3,,,,,,,,7,1.55475,,,,,,,,,,,,,,,,,,,,,,,,,,,,1,strong,59,98,1,0,0,response1disk,7,37,15,-1,1,0,0,rectangle,15,-1,1,0,0,3,6,0.00225,15,-1,1,0,0,0,36,36,137,1,0,,,,,,,,,,,,,,,,,,,,,
,,,,,,,,,,,,,,,,,,,,,,,,,,,,,,,,,,,,,,,,,,601735932654fb9881a745d8,6068416b57578caa1da7c1be,2021-04-03_23h22.32.454,Colour_Similarity_Experiment,2020.2.10,Win32,60,60674ec340277cd6a308bc9f,17.76834,16.73789387,16.6808413,16.70385128,16.8102642,16.73789387,,,,,,,,,,,,,,,,,,,,PF,weak,3,,,,,,,,4,1.917845,,,,,,,,,,,,,,,,,,,,,,,,,,,,8,weak,53,-80,1,0,0,response3disk,5,38,-7,5,1,0,0,rectangle,-7,5,1,0,0,3,6,0.00124,-7,5,1,0,0,0,37,37,98,1,0,,,,,,,,,,,,,,,,,,,,,
,,,,,,,,,,,,,,,,,,,,,,,,,,,,,,,,,,,,,,,,,,601735932654fb9881a745d8,6068416b57578caa1da7c1be,2021-04-03_23h22.32.454,Colour_Similarity_Experiment,2020.2.10,Win32,60,60674ec340277cd6a308bc9f,17.76834,16.73789387,16.6808413,16.70385128,16.8102642,16.73789387,,,,,,,,,,,,,,,,,,,,PF,strong,3,,,,,,,,4,3.46251,,,,,,,,,,,,,,,,,,,,,,,,,,,,4,strong,64,-98,1,0,0,response3disk,6,39,12,-8,1,0,0,rectangle,12,-8,1,0,0,3,5,0.002215,12,-8,1,0,0,0,38,38,122,1,0,,,,,,,,,,,,,,,,,,,,,
,,,,,,,,,,,,,,,,,,,,,,,,,,,,,,,,,,,,,,,,,,601735932654fb9881a745d8,6068416b57578caa1da7c1be,2021-04-03_23h22.32.454,Colour_Similarity_Experiment,2020.2.10,Win32,60,60674ec340277cd6a308bc9f,17.76834,16.73789387,16.6808413,16.70385128,16.8102642,16.73789387,,,,,,,,,,,,,,,,,,,,PF,weak,3,,,,,,,,5,2.38898,,,,,,,,,,,,,,,,,,,,,,,,,,,,6,weak,87,-33,1,0,0,response3disk,2,40,0,-6,1,0,0,rectangle,0,-6,1,0,0,3,1,0.001775,0,-6,1,0,0,0,39,39,130,1,0,,,,,,,,,,,,,,,,,,,,,
,,,,,,,,,,,,,,,,,,,,,,,,,,,,,,,,,,,,,,,,,,601735932654fb9881a745d8,6068416b57578caa1da7c1be,2021-04-03_23h22.32.454,Colour_Similarity_Experiment,2020.2.10,Win32,60,60674ec340277cd6a308bc9f,17.76834,16.73789387,16.6808413,16.70385128,16.8102642,16.73789387,,,,,,,,,,,,,,,,,,,,PF,weak,3,,,,,,,,1,1.55657,,,,,,,,,,,,,,,,,,,,,,,,,,,,4,weak,-76,42,1,0,0,response7disk,4,41,13,-8,1,0,0,rectangle,13,-8,1,0,0,3,5,0.001765,13,-8,1,0,0,0,40,40,70,1,0,,,,,,,,,,,,,,,,,,,,,
,,,,,,,,,,,,,,,,,,,,,,,,,,,,,,,,,,,,,,,,,,601735932654fb9881a745d8,6068416b57578caa1da7c1be,2021-04-03_23h22.32.454,Colour_Similarity_Experiment,2020.2.10,Win32,60,60674ec340277cd6a308bc9f,17.76834,16.73789387,16.6808413,16.70385128,16.8102642,16.73789387,,,,,,,,,,,,,,,,,,,,PF,weak,3,,,,,,,,0,1.591895,,,,,,,,,,,,,,,,,,,,,,,,,,,,5,weak,-33,96,1,0,0,response7disk,5,42,-1,4,1,0,0,rectangle,-1,4,1,0,0,3,5,0.000215,-1,4,1,0,0,0,41,41,94,1,0,,,,,,,,,,,,,,,,,,,,,
,,,,,,,,,,,,,,,,,,,,,,,,,,,,,,,,,,,,,,,,,,601735932654fb9881a745d8,6068416b57578caa1da7c1be,2021-04-03_23h22.32.454,Colour_Similarity_Experiment,2020.2.10,Win32,60,60674ec340277cd6a308bc9f,17.76834,16.73789387,16.6808413,16.70385128,16.8102642,16.73789387,,,,,,,,,,,,,,,,,,,,PF,weak,3,,,,,,,,6,1.547295,,,,,,,,,,,,,,,,,,,,,,,,,,,,7,weak,101,58,1,0,0,response1disk,2,43,4,-10,1,0,0,rectangle,4,-10,1,0,0,3,4,0.001695,4,-10,1,0,0,0,42,42,32,1,0,,,,,,,,,,,,,,,,,,,,,
,,,,,,,,,,,,,,,,,,,,,,,,,,,,,,,,,,,,,,,,,,601735932654fb9881a745d8,6068416b57578caa1da7c1be,2021-04-03_23h22.32.454,Colour_Similarity_Experiment,2020.2.10,Win32,60,60674ec340277cd6a308bc9f,17.76834,16.73789387,16.6808413,16.70385128,16.8102642,16.73789387,,,,,,,,,,,,,,,,,,,,PF,weak,3,,,,,,,,6,2.932385,,,,,,,,,,,,,,,,,,,,,,,,,,,,7,weak,95,33,1,0,0,response1disk,1,44,8,2,1,0,0,rectangle,8,2,1,0,0,3,4,0.000215,8,2,1,0,0,0,43,43,53,1,0,,,,,,,,,,,,,,,,,,,,,
,,,,,,,,,,,,,,,,,,,,,,,,,,,,,,,,,,,,,,,,,,601735932654fb9881a745d8,6068416b57578caa1da7c1be,2021-04-03_23h22.32.454,Colour_Similarity_Experiment,2020.2.10,Win32,60,60674ec340277cd6a308bc9f,17.76834,16.73789387,16.6808413,16.70385128,16.8102642,16.73789387,,,,,,,,,,,,,,,,,,,,PF,weak,3,,,,,,,,1,1.476585,,,,,,,,,,,,,,,,,,,,,,,,,,,,5,weak,-83,34,1,0,0,response7disk,4,45,7,2,1,0,0,rectangle,7,2,1,0,0,3,1,0.00186,7,2,1,0,0,0,44,44,54,1,0,,,,,,,,,,,,,,,,,,,,,
,,,,,,,,,,,,,,,,,,,,,,,,,,,,,,,,,,,,,,,,,,601735932654fb9881a745d8,6068416b57578caa1da7c1be,2021-04-03_23h22.32.454,Colour_Similarity_Experiment,2020.2.10,Win32,60,60674ec340277cd6a308bc9f,17.76834,16.73789387,16.6808413,16.70385128,16.8102642,16.73789387,,,,,,,,,,,,,,,,,,,,PF,weak,3,,,,,,,,6,2.629975,,,,,,,,,,,,,,,,,,,,,,,,,,,,8,weak,106,37,1,0,0,response1disk,3,46,-9,-14,1,0,0,rectangle,-9,-14,1,0,0,3,1,0.0008,-9,-14,1,0,0,0,45,45,71,1,0,,,,,,,,,,,,,,,,,,,,,
,,,,,,,,,,,,,,,,,,,,,,,,,,,,,,,,,,,,,,,,,,601735932654fb9881a745d8,6068416b57578caa1da7c1be,2021-04-03_23h22.32.454,Colour_Similarity_Experiment,2020.2.10,Win32,60,60674ec340277cd6a308bc9f,17.76834,16.73789387,16.6808413,16.70385128,16.8102642,16.73789387,,,,,,,,,,,,,,,,,,,,PF,strong,3,,,,,,,,1,1.40562,,,,,,,,,,,,,,,,,,,,,,,,,,,,2,strong,-91,55,1,0,0,response7disk,1,47,7,5,1,0,0,rectangle,7,5,1,0,0,3,5,0.002585,7,5,1,0,0,0,46,46,85,1,0,,,,,,,,,,,,,,,,,,,,,
,,,,,,,,,,,,,,,,,,,,,,,,,,,,,,,,,,,,,,,,,,601735932654fb9881a745d8,6068416b57578caa1da7c1be,2021-04-03_23h22.32.454,Colour_Similarity_Experiment,2020.2.10,Win32,60,60674ec340277cd6a308bc9f,17.76834,16.73789387,16.6808413,16.70385128,16.8102642,16.73789387,,,,,,,,,,,,,,,,,,,,PF,weak,3,,,,,,,,6,1.81831,,,,,,,,,,,,,,,,,,,,,,,,,,,,5,weak,108,42,1,0,0,response1disk,8,48,8,-3,1,0,0,rectangle,8,-3,1,0,0,3,2,0.00322,8,-3,1,0,0,0,47,47,149,1,0,,,,,,,,,,,,,,,,,,,,,
,,,,,,,,,,,,,,,,,,,,,,,,,,,,,,,,,,,,,,,,,,601735932654fb9881a745d8,6068416b57578caa1da7c1be,2021-04-03_23h22.32.454,Colour_Similarity_Experiment,2020.2.10,Win32,60,60674ec340277cd6a308bc9f,17.76834,16.73789387,16.6808413,16.70385128,16.8102642,16.73789387,,,,,,,,,,,,,,,,,,,,PF,strong,3,,,,,,,,7,2.029695,,,,,,,,,,,,,,,,,,,,,,,,,,,,2,strong,56,107,1,0,0,response1disk,7,49,13,-8,1,0,0,rectangle,13,-8,1,0,0,3,5,0.00167,13,-8,1,0,0,0,48,48,63,1,0,,,,,,,,,,,,,,,,,,,,,
,,,,,,,,,,,,,,,,,,,,,,,,,,,,,,,,,,,,,,,,,,601735932654fb9881a745d8,6068416b57578caa1da7c1be,2021-04-03_23h22.32.454,Colour_Similarity_Experiment,2020.2.10,Win32,60,60674ec340277cd6a308bc9f,17.76834,16.73789387,16.6808413,16.70385128,16.8102642,16.73789387,,,,,,,,,,,,,,,,,,,,PF,weak,3,,,,,,,,2,1.8225,,,,,,,,,,,,,,,,,,,,,,,,,,,,7,weak,-77,-36,1,0,0,response5disk,8,50,-1,1,1,0,0,rectangle,-1,1,1,0,0,3,7,0.006285,-1,1,1,0,0,0,49,49,140,1,0,,,,,,,,,,,,,,,,,,,,,
,,,,,,,,,,,,,,,,,,,,,,,,,,,,,,,,,,,,,,,,,,601735932654fb9881a745d8,6068416b57578caa1da7c1be,2021-04-03_23h22.32.454,Colour_Similarity_Experiment,2020.2.10,Win32,60,60674ec340277cd6a308bc9f,17.76834,16.73789387,16.6808413,16.70385128,16.8102642,16.73789387,,,,,,,,,,,,,,,,,,,,PF,weak,3,,,,,,,,3,2.0334,,,,,,,,,,,,,,,,,,,,,,,,,,,,4,weak,-43,-103,1,0,0,response5disk,6,51,-12,7,1,0,0,rectangle,-12,7,1,0,0,3,2,0.003175,-12,7,1,0,0,0,50,50,120,1,0,,,,,,,,,,,,,,,,,,,,,
,,,,,,,,,,,,,,,,,,,,,,,,,,,,,,,,,,,,,,,,,,601735932654fb9881a745d8,6068416b57578caa1da7c1be,2021-04-03_23h22.32.454,Colour_Similarity_Experiment,2020.2.10,Win32,60,60674ec340277cd6a308bc9f,17.76834,16.73789387,16.6808413,16.70385128,16.8102642,16.73789387,,,,,,,,,,,,,,,,,,,,PF,weak,3,,,,,,,,6,1.422215,,,,,,,,,,,,,,,,,,,,,,,,,,,,1,weak,105,45,1,0,0,response1disk,5,52,13,-1,1,0,0,rectangle,13,-1,1,0,0,3,4,0.001835,13,-1,1,0,0,0,51,51,28,1,0,,,,,,,,,,,,,,,,,,,,,
,,,,,,,,,,,,,,,,,,,,,,,,,,,,,,,,,,,,,,,,,,601735932654fb9881a745d8,6068416b57578caa1da7c1be,2021-04-03_23h22.32.454,Colour_Similarity_Experiment,2020.2.10,Win32,60,60674ec340277cd6a308bc9f,17.76834,16.73789387,16.6808413,16.70385128,16.8102642,16.73789387,,,,,,,,,,,,,,,,,,,,PF,strong,3,,,,,,,,3,1.83676,,,,,,,,,,,,,,,,,,,,,,,,,,,,8,strong,-49,-66,1,0,0,response5disk,6,53,-5,-3,1,0,0,rectangle,-5,-3,1,0,0,3,4,0.000305,-5,-3,1,0,0,0,52,52,37,1,0,,,,,,,,,,,,,,,,,,,,,
,,,,,,,,,,,,,,,,,,,,,,,,,,,,,,,,,,,,,,,,,,601735932654fb9881a745d8,6068416b57578caa1da7c1be,2021-04-03_23h22.32.454,Colour_Similarity_Experiment,2020.2.10,Win32,60,60674ec340277cd6a308bc9f,17.76834,16.73789387,16.6808413,16.70385128,16.8102642,16.73789387,,,,,,,,,,,,,,,,,,,,PF,strong,3,,,,,,,,4,3.06296,,,,,,,,,,,,,,,,,,,,,,,,,,,,9,strong,57,-80,1,0,0,response3disk,5,54,12,9,1,0,0,rectangle,12,9,1,0,0,3,4,0.00108,12,9,1,0,0,0,53,53,128,1,0,,,,,,,,,,,,,,,,,,,,,
,,,,,,,,,,,,,,,,,,,,,,,,,,,,,,,,,,,,,,,,,,601735932654fb9881a745d8,6068416b57578caa1da7c1be,2021-04-03_23h22.32.454,Colour_Similarity_Experiment,2020.2.10,Win32,60,60674ec340277cd6a308bc9f,17.76834,16.73789387,16.6808413,16.70385128,16.8102642,16.73789387,,,,,,,,,,,,,,,,,,,,PF,weak,3,,,,,,,,0,1.72698,,,,,,,,,,,,,,,,,,,,,,,,,,,,8,weak,-43,81,1,0,0,response7disk,8,55,-1,5,1,0,0,rectangle,-1,5,1,0,0,3,1,0.001925,-1,5,1,0,0,0,54,54,153,1,0,,,,,,,,,,,,,,,,,,,,,
,,,,,,,,,,,,,,,,,,,,,,,,,,,,,,,,,,,,,,,,,,601735932654fb9881a745d8,6068416b57578caa1da7c1be,2021-04-03_23h22.32.454,Colour_Similarity_Experiment,2020.2.10,Win32,60,60674ec340277cd6a308bc9f,17.76834,16.73789387,16.6808413,16.70385128,16.8102642,16.73789387,,,,,,,,,,,,,,,,,,,,PF,weak,3,,,,,,,,4,2.18221,,,,,,,,,,,,,,,,,,,,,,,,,,,,2,weak,39,-96,1,0,0,response3disk,4,56,4,2,1,0,0,rectangle,4,2,1,0,0,3,6,0.001905,4,2,1,0,0,0,55,55,127,1,0,,,,,,,,,,,,,,,,,,,,,
,,,,,,,,,,,,,,,,,,,,,,,,,,,,,,,,,,,,,,,,,,601735932654fb9881a745d8,6068416b57578caa1da7c1be,2021-04-03_23h22.32.454,Colour_Similarity_Experiment,2020.2.10,Win32,60,60674ec340277cd6a308bc9f,17.76834,16.73789387,16.6808413,16.70385128,16.8102642,16.73789387,,,,,,,,,,,,,,,,,,,,PF,strong,3,,,,,,,,4,1.51461,,,,,,,,,,,,,,,,,,,,,,,,,,,,5,strong,64,-87,1,0,0,response3disk,9,57,-4,2,1,0,0,rectangle,-4,2,1,0,0,3,2,0.002045,-4,2,1,0,0,0,56,56,61,1,0,,,,,,,,,,,,,,,,,,,,,
,,,,,,,,,,,,,,,,,,,,,,,,,,,,,,,,,,,,,,,,,,601735932654fb9881a745d8,6068416b57578caa1da7c1be,2021-04-03_23h22.32.454,Colour_Similarity_Experiment,2020.2.10,Win32,60,60674ec340277cd6a308bc9f,17.76834,16.73789387,16.6808413,16.70385128,16.8102642,16.73789387,,,,,,,,,,,,,,,,,,,,PF,strong,3,,,,,,,,6,1.58542,,,,,,,,,,,,,,,,,,,,,,,,,,,,6,strong,104,52,1,0,0,response1disk,2,58,13,11,1,0,0,rectangle,13,11,1,0,0,3,1,0.00185,13,11,1,0,0,0,57,57,112,1,0,,,,,,,,,,,,,,,,,,,,,
,,,,,,,,,,,,,,,,,,,,,,,,,,,,,,,,,,,,,,,,,,601735932654fb9881a745d8,6068416b57578caa1da7c1be,2021-04-03_23h22.32.454,Colour_Similarity_Experiment,2020.2.10,Win32,60,60674ec340277cd6a308bc9f,17.76834,16.73789387,16.6808413,16.70385128,16.8102642,16.73789387,,,,,,,,,,,,,,,,,,,,PF,weak,3,,,,,,,,4,1.76726,,,,,,,,,,,,,,,,,,,,,,,,,,,,3,weak,58,-81,1,0,0,response3disk,9,59,3,-4,1,0,0,rectangle,3,-4,1,0,0,3,3,0.002435,3,-4,1,0,0,0,58,58,79,1,0,,,,,,,,,,,,,,,,,,,,,
,,,,,,,,,,,,,,,,,,,,,,,,,,,,,,,,,,,,,,,,,,601735932654fb9881a745d8,6068416b57578caa1da7c1be,2021-04-03_23h22.32.454,Colour_Similarity_Experiment,2020.2.10,Win32,60,60674ec340277cd6a308bc9f,17.76834,16.73789387,16.6808413,16.70385128,16.8102642,16.73789387,,,,,,,,,,,,,,,,,,,,PF,strong,3,,,,,,,,1,1.732635,,,,,,,,,,,,,,,,,,,,,,,,,,,,7,strong,-83,42,1,0,0,response7disk,7,60,-7,10,1,0,0,rectangle,-7,10,1,0,0,3,2,0.002135,-7,10,1,0,0,0,59,59,34,1,0,,,,,,,,,,,,,,,,,,,,,
,,,,,,,,,,,,,,,,,,,,,,,,,,,,,,,,,,,,,,,,,,601735932654fb9881a745d8,6068416b57578caa1da7c1be,2021-04-03_23h22.32.454,Colour_Similarity_Experiment,2020.2.10,Win32,60,60674ec340277cd6a308bc9f,17.76834,16.73789387,16.6808413,16.70385128,16.8102642,16.73789387,,,,,,,,,,,,,,,,,,,,PF,strong,3,,,,,,,,6,1.341885,,,,,,,,,,,,,,,,,,,,,,,,,,,,6,strong,91,46,1,0,0,response1disk,1,61,11,-1,1,0,0,rectangle,11,-1,1,0,0,3,1,0.002645,11,-1,1,0,0,0,60,60,5,1,0,,,,,,,,,,,,,,,,,,,,,
,,,,,,,,,,,,,,,,,,,,,,,,,,,,,,,,,,,,,,,,,,601735932654fb9881a745d8,6068416b57578caa1da7c1be,2021-04-03_23h22.32.454,Colour_Similarity_Experiment,2020.2.10,Win32,60,60674ec340277cd6a308bc9f,17.76834,16.73789387,16.6808413,16.70385128,16.8102642,16.73789387,,,,,,,,,,,,,,,,,,,,PF,strong,3,,,,,,,,1,1.499655,,,,,,,,,,,,,,,,,,,,,,,,,,,,4,strong,-101,51,1,0,0,response7disk,3,62,7,8,1,0,0,rectangle,7,8,1,0,0,3,6,0.00268,7,8,1,0,0,0,61,61,77,1,0,,,,,,,,,,,,,,,,,,,,,
,,,,,,,,,,,,,,,,,,,,,,,,,,,,,,,,,,,,,,,,,,601735932654fb9881a745d8,6068416b57578caa1da7c1be,2021-04-03_23h22.32.454,Colour_Similarity_Experiment,2020.2.10,Win32,60,60674ec340277cd6a308bc9f,17.76834,16.73789387,16.6808413,16.70385128,16.8102642,16.73789387,,,,,,,,,,,,,,,,,,,,PF,strong,3,,,,,,,,0,1.668785,,,,,,,,,,,,,,,,,,,,,,,,,,,,5,strong,-47,90,1,0,0,response7disk,5,63,3,2,1,0,0,rectangle,3,2,1,0,0,3,1,0.00281,3,2,1,0,0,0,62,62,19,1,0,,,,,,,,,,,,,,,,,,,,,
,,,,,,,,,,,,,,,,,,,,,,,,,,,,,,,,,,,,,,,,,,601735932654fb9881a745d8,6068416b57578caa1da7c1be,2021-04-03_23h22.32.454,Colour_Similarity_Experiment,2020.2.10,Win32,60,60674ec340277cd6a308bc9f,17.76834,16.73789387,16.6808413,16.70385128,16.8102642,16.73789387,,,,,,,,,,,,,,,,,,,,PF,strong,3,,,,,,,,5,2.678525,,,,,,,,,,,,,,,,,,,,,,,,,,,,7,strong,86,-49,1,0,0,response3disk,4,64,22,-9,1,0,0,rectangle,22,-9,1,0,0,3,6,0.00354,22,-9,1,0,0,0,63,63,158,1,0,,,,,,,,,,,,,,,,,,,,,
,,,,,,,,,,,,,,,,,,,,,,,,,,,,,,,,,,,,,,,,,,601735932654fb9881a745d8,6068416b57578caa1da7c1be,2021-04-03_23h22.32.454,Colour_Similarity_Experiment,2020.2.10,Win32,60,60674ec340277cd6a308bc9f,17.76834,16.73789387,16.6808413,16.70385128,16.8102642,16.73789387,,,,,,,,,,,,,,,,,,,,PF,weak,3,,,,,,,,7,1.906285,,,,,,,,,,,,,,,,,,,,,,,,,,,,2,weak,79,85,1,0,0,response1disk,8,65,11,1,1,0,0,rectangle,11,1,1,0,0,3,1,0.00288,11,1,1,0,0,0,64,64,52,1,0,,,,,,,,,,,,,,,,,,,,,
,,,,,,,,,,,,,,,,,,,,,,,,,,,,,,,,,,,,,,,,,,601735932654fb9881a745d8,6068416b57578caa1da7c1be,2021-04-03_23h22.32.454,Colour_Similarity_Experiment,2020.2.10,Win32,60,60674ec340277cd6a308bc9f,17.76834,16.73789387,16.6808413,16.70385128,16.8102642,16.73789387,,,,,,,,,,,,,,,,,,,,PF,strong,3,,,,,,,,4,1.50619,,,,,,,,,,,,,,,,,,,,,,,,,,,,9,strong,51,-73,1,0,0,response3disk,3,66,10,-2,1,0,0,rectangle,10,-2,1,0,0,3,0,0.002335,10,-2,1,0,0,0,65,65,141,1,0,,,,,,,,,,,,,,,,,,,,,
,,,,,,,,,,,,,,,,,,,,,,,,,,,,,,,,,,,,,,,,,,601735932654fb9881a745d8,6068416b57578caa1da7c1be,2021-04-03_23h22.32.454,Colour_Similarity_Experiment,2020.2.10,Win32,60,60674ec340277cd6a308bc9f,17.76834,16.73789387,16.6808413,16.70385128,16.8102642,16.73789387,,,,,,,,,,,,,,,,,,,,PF,strong,3,,,,,,,,2,2.69303,,,,,,,,,,,,,,,,,,,,,,,,,,,,3,strong,-96,-35,1,0,0,response5disk,4,67,6,13,1,0,0,rectangle,6,13,1,0,0,3,6,0.00252,6,13,1,0,0,0,66,66,110,1,0,,,,,,,,,,,,,,,,,,,,,
,,,,,,,,,,,,,,,,,,,,,,,,,,,,,,,,,,,,,,,,,,601735932654fb9881a745d8,6068416b57578caa1da7c1be,2021-04-03_23h22.32.454,Colour_Similarity_Experiment,2020.2.10,Win32,60,60674ec340277cd6a308bc9f,17.76834,16.73789387,16.6808413,16.70385128,16.8102642,16.73789387,,,,,,,,,,,,,,,,,,,,PF,strong,3,,,,,,,,6,2.60134,,,,,,,,,,,,,,,,,,,,,,,,,,,,3,strong,92,33,1,0,0,response1disk,8,68,7,3,1,0,0,rectangle,7,3,1,0,0,3,7,0.001825,7,3,1,0,0,0,67,67,44,1,0,,,,,,,,,,,,,,,,,,,,,
,,,,,,,,,,,,,,,,,,,,,,,,,,,,,,,,,,,,,,,,,,601735932654fb9881a745d8,6068416b57578caa1da7c1be,2021-04-03_23h22.32.454,Colour_Similarity_Experiment,2020.2.10,Win32,60,60674ec340277cd6a308bc9f,17.76834,16.73789387,16.6808413,16.70385128,16.8102642,16.73789387,,,,,,,,,,,,,,,,,,,,PF,strong,3,,,,,,,,6,1.65127,,,,,,,,,,,,,,,,,,,,,,,,,,,,2,strong,94,32,1,0,0,response1disk,6,69,1,2,1,0,0,rectangle,1,2,1,0,0,3,6,0.00242,1,2,1,0,0,0,68,68,40,1,0,,,,,,,,,,,,,,,,,,,,,
,,,,,,,,,,,,,,,,,,,,,,,,,,,,,,,,,,,,,,,,,,601735932654fb9881a745d8,6068416b57578caa1da7c1be,2021-04-03_23h22.32.454,Colour_Similarity_Experiment,2020.2.10,Win32,60,60674ec340277cd6a308bc9f,17.76834,16.73789387,16.6808413,16.70385128,16.8102642,16.73789387,,,,,,,,,,,,,,,,,,,,PF,strong,3,,,,,,,,2,1.79455,,,,,,,,,,,,,,,,,,,,,,,,,,,,5,strong,-105,-68,1,0,0,response5disk,3,70,-17,-2,1,0,0,rectangle,-17,-2,1,0,0,3,6,0.000465,-17,-2,1,0,0,0,69,69,25,1,0,,,,,,,,,,,,,,,,,,,,,
,,,,,,,,,,,,,,,,,,,,,,,,,,,,,,,,,,,,,,,,,,601735932654fb9881a745d8,6068416b57578caa1da7c1be,2021-04-03_23h22.32.454,Colour_Similarity_Experiment,2020.2.10,Win32,60,60674ec340277cd6a308bc9f,17.76834,16.73789387,16.6808413,16.70385128,16.8102642,16.73789387,,,,,,,,,,,,,,,,,,,,PF,weak,3,,,,,,,,2,2.415335,,,,,,,,,,,,,,,,,,,,,,,,,,,,6,weak,-77,-44,1,0,0,response5disk,8,71,-25,-11,1,0,0,rectangle,-25,-11,1,0,0,3,3,0.001685,-25,-11,1,0,0,0,70,70,64,1,0,,,,,,,,,,,,,,,,,,,,,
,,,,,,,,,,,,,,,,,,,,,,,,,,,,,,,,,,,,,,,,,,601735932654fb9881a745d8,6068416b57578caa1da7c1be,2021-04-03_23h22.32.454,Colour_Similarity_Experiment,2020.2.10,Win32,60,60674ec340277cd6a308bc9f,17.76834,16.73789387,16.6808413,16.70385128,16.8102642,16.73789387,,,,,,,,,,,,,,,,,,,,PF,weak,3,,,,,,,,1,3.46278,,,,,,,,,,,,,,,,,,,,,,,,,,,,2,weak,-98,53,1,0,0,response7disk,2,72,15,-3,1,0,0,rectangle,15,-3,1,0,0,3,4,0.002165,15,-3,1,0,0,0,71,71,14,1,0,,,,,,,,,,,,,,,,,,,,,
,,,,,,,,,,,,,,,,,,,,,,,,,,,,,,,,,,,,,,,,,,601735932654fb9881a745d8,6068416b57578caa1da7c1be,2021-04-03_23h22.32.454,Colour_Similarity_Experiment,2020.2.10,Win32,60,60674ec340277cd6a308bc9f,17.76834,16.73789387,16.6808413,16.70385128,16.8102642,16.73789387,,,,,,,,,,,,,,,,,,,,PF,weak,3,,,,,,,,6,1.73372,,,,,,,,,,,,,,,,,,,,,,,,,,,,7,weak,88,41,1,0,0,response1disk,3,73,3,4,1,0,0,rectangle,3,4,1,0,0,3,1,0.001985,3,4,1,0,0,0,72,72,81,1,0,,,,,,,,,,,,,,,,,,,,,
,,,,,,,,,,,,,,,,,,,,,,,,,,,,,,,,,,,,,,,,,,601735932654fb9881a745d8,6068416b57578caa1da7c1be,2021-04-03_23h22.32.454,Colour_Similarity_Experiment,2020.2.10,Win32,60,60674ec340277cd6a308bc9f,17.76834,16.73789387,16.6808413,16.70385128,16.8102642,16.73789387,,,,,,,,,,,,,,,,,,,,PF,strong,3,,,,,,,,7,1.961945,,,,,,,,,,,,,,,,,,,,,,,,,,,,5,strong,61,116,1,0,0,response1disk,1,74,16,-5,1,0,0,rectangle,16,-5,1,0,0,3,7,0.00227,16,-5,1,0,0,0,73,73,131,1,0,,,,,,,,,,,,,,,,,,,,,
,,,,,,,,,,,,,,,,,,,,,,,,,,,,,,,,,,,,,,,,,,601735932654fb9881a745d8,6068416b57578caa1da7c1be,2021-04-03_23h22.32.454,Colour_Similarity_Experiment,2020.2.10,Win32,60,60674ec340277cd6a308bc9f,17.76834,16.73789387,16.6808413,16.70385128,16.8102642,16.73789387,,,,,,,,,,,,,,,,,,,,PF,weak,3,,,,,,,,1,1.5966,,,,,,,,,,,,,,,,,,,,,,,,,,,,9,weak,-79,38,1,0,0,response7disk,1,75,-7,6,1,0,0,rectangle,-7,6,1,0,0,3,5,0.0019,-7,6,1,0,0,0,74,74,74,1,0,,,,,,,,,,,,,,,,,,,,,
,,,,,,,,,,,,,,,,,,,,,,,,,,,,,,,,,,,,,,,,,,601735932654fb9881a745d8,6068416b57578caa1da7c1be,2021-04-03_23h22.32.454,Colour_Similarity_Experiment,2020.2.10,Win32,60,60674ec340277cd6a308bc9f,17.76834,16.73789387,16.6808413,16.70385128,16.8102642,16.73789387,,,,,,,,,,,,,,,,,,,,PF,strong,3,,,,,,,,5,3.73906,,,,,,,,,,,,,,,,,,,,,,,,,,,,8,strong,87,-42,1,0,0,response3disk,1,76,14,-7,1,0,0,rectangle,14,-7,1,0,0,3,3,0.00264,14,-7,1,0,0,0,75,75,20,1,0,,,,,,,,,,,,,,,,,,,,,
,,,,,,,,,,,,,,,,,,,,,,,,,,,,,,,,,,,,,,,,,,601735932654fb9881a745d8,6068416b57578caa1da7c1be,2021-04-03_23h22.32.454,Colour_Similarity_Experiment,2020.2.10,Win32,60,60674ec340277cd6a308bc9f,17.76834,16.73789387,16.6808413,16.70385128,16.8102642,16.73789387,,,,,,,,,,,,,,,,,,,,PF,weak,3,,,,,,,,7,1.744465,,,,,,,,,,,,,,,,,,,,,,,,,,,,1,weak,46,99,1,0,0,response1disk,7,77,24,-2,1,0,0,rectangle,24,-2,1,0,0,3,4,0.00283,24,-2,1,0,0,0,76,76,150,1,0,,,,,,,,,,,,,,,,,,,,,
,,,,,,,,,,,,,,,,,,,,,,,,,,,,,,,,,,,,,,,,,,601735932654fb9881a745d8,6068416b57578caa1da7c1be,2021-04-03_23h22.32.454,Colour_Similarity_Experiment,2020.2.10,Win32,60,60674ec340277cd6a308bc9f,17.76834,16.73789387,16.6808413,16.70385128,16.8102642,16.73789387,,,,,,,,,,,,,,,,,,,,PF,strong,3,,,,,,,,2,1.51025,,,,,,,,,,,,,,,,,,,,,,,,,,,,9,strong,-91,-43,1,0,0,response5disk,8,78,-3,8,1,0,0,rectangle,-3,8,1,0,0,3,7,0.00229,-3,8,1,0,0,0,77,77,6,1,0,,,,,,,,,,,,,,,,,,,,,
,,,,,,,,,,,,,,,,,,,,,,,,,,,,,,,,,,,,,,,,,,601735932654fb9881a745d8,6068416b57578caa1da7c1be,2021-04-03_23h22.32.454,Colour_Similarity_Experiment,2020.2.10,Win32,60,60674ec340277cd6a308bc9f,17.76834,16.73789387,16.6808413,16.70385128,16.8102642,16.73789387,,,,,,,,,,,,,,,,,,,,PF,strong,3,,,,,,,,3,3.424155,,,,,,,,,,,,,,,,,,,,,,,,,,,,7,strong,-39,-73,1,0,0,response5disk,9,79,-8,5,1,0,0,rectangle,-8,5,1,0,0,3,3,0.00204,-8,5,1,0,0,0,78,78,155,1,0,,,,,,,,,,,,,,,,,,,,,
,,,,,,,,,,,,,,,,,,,,,,,,,,,,,,,,,,,,,,,,,,601735932654fb9881a745d8,6068416b57578caa1da7c1be,2021-04-03_23h22.32.454,Colour_Similarity_Experiment,2020.2.10,Win32,60,60674ec340277cd6a308bc9f,17.76834,16.73789387,16.6808413,16.70385128,16.8102642,16.73789387,,,,,,,,,,,,,,,,,,,,PF,weak,3,,,,,,,,3,1.892165,,,,,,,,,,,,,,,,,,,,,,,,,,,,8,weak,-46,-91,1,0,0,response5disk,6,80,4,-2,1,0,0,rectangle,94,-50,1,0,0,5,5,2.270065,5,-4,1,0,0,0,79,79,161,1,1,response3disk_3,rectangle,,,,,,,,,,,,,,,,,,,
,,,,,,,,,,,,,,,,,,,,,,,,,,,,,,,,,,,,,,,,,,601735932654fb9881a745d8,6068416b57578caa1da7c1be,2021-04-03_23h22.32.454,Colour_Similarity_Experiment,2020.2.10,Win32,60,60674ec340277cd6a308bc9f,17.76834,16.73789387,16.6808413,16.70385128,16.8102642,16.73789387,,,,,,,,,,,,,,,,,,,,PF,strong,3,,,,,,,,4,2.157595,,,,,,,,,,,,,,,,,,,,,,,,,,,,5,strong,47,-86,1,0,0,response3disk,2,81,-3,-2,1,0,0,rectangle,77,-32,1,0,0,5,5,2.15277,16,-7,1,0,0,0,80,80,55,1,1,response3disk_3,rectangle,,,,,,,,,,,,,,,,,,,
,,,,,,,,,,,,,,,,,,,,,,,,,,,,,,,,,,,,,,,,,,601735932654fb9881a745d8,6068416b57578caa1da7c1be,2021-04-03_23h22.32.454,Colour_Similarity_Experiment,2020.2.10,Win32,60,60674ec340277cd6a308bc9f,17.76834,16.73789387,16.6808413,16.70385128,16.8102642,16.73789387,,,,,,,,,,,,,,,,,,,,PF,strong,3,,,,,,,,2,1.565605,,,,,,,,,,,,,,,,,,,,,,,,,,,,3,strong,-95,-45,1,0,0,response5disk,5,82,22,14,1,0,0,rectangle,22,14,1,0,0,5,1,0.002595,22,14,1,0,0,0,81,81,101,1,0,,,,,,,,,,,,,,,,,,,,,
,,,,,,,,,,,,,,,,,,,,,,,,,,,,,,,,,,,,,,,,,,601735932654fb9881a745d8,6068416b57578caa1da7c1be,2021-04-03_23h22.32.454,Colour_Similarity_Experiment,2020.2.10,Win32,60,60674ec340277cd6a308bc9f,17.76834,16.73789387,16.6808413,16.70385128,16.8102642,16.73789387,,,,,,,,,,,,,,,,,,,,PF,weak,3,,,,,,,,6,2.72325,,,,,,,,,,,,,,,,,,,,,,,,,,,,1,weak,102,57,1,0,0,response1disk,3,83,19,-3,1,0,0,rectangle,19,-3,1,0,0,5,0,0.001985,19,-3,1,0,0,0,82,82,1,1,0,,,,,,,,,,,,,,,,,,,,,
,,,,,,,,,,,,,,,,,,,,,,,,,,,,,,,,,,,,,,,,,,601735932654fb9881a745d8,6068416b57578caa1da7c1be,2021-04-03_23h22.32.454,Colour_Similarity_Experiment,2020.2.10,Win32,60,60674ec340277cd6a308bc9f,17.76834,16.73789387,16.6808413,16.70385128,16.8102642,16.73789387,,,,,,,,,,,,,,,,,,,,PF,weak,3,,,,,,,,2,1.50678,,,,,,,,,,,,,,,,,,,,,,,,,,,,5,weak,-81,-30,1,0,0,response5disk,6,84,-6,1,1,0,0,rectangle,-6,1,1,0,0,5,4,0.00177,-6,1,1,0,0,0,83,83,103,1,0,,,,,,,,,,,,,,,,,,,,,
,,,,,,,,,,,,,,,,,,,,,,,,,,,,,,,,,,,,,,,,,,601735932654fb9881a745d8,6068416b57578caa1da7c1be,2021-04-03_23h22.32.454,Colour_Similarity_Experiment,2020.2.10,Win32,60,60674ec340277cd6a308bc9f,17.76834,16.73789387,16.6808413,16.70385128,16.8102642,16.73789387,,,,,,,,,,,,,,,,,,,,PF,strong,3,,,,,,,,6,2.391445,,,,,,,,,,,,,,,,,,,,,,,,,,,,4,strong,101,44,1,0,0,response1disk,1,85,13,-7,1,0,0,rectangle,13,-7,1,0,0,5,3,0.001735,13,-7,1,0,0,0,84,84,102,1,0,,,,,,,,,,,,,,,,,,,,,
,,,,,,,,,,,,,,,,,,,,,,,,,,,,,,,,,,,,,,,,,,601735932654fb9881a745d8,6068416b57578caa1da7c1be,2021-04-03_23h22.32.454,Colour_Similarity_Experiment,2020.2.10,Win32,60,60674ec340277cd6a308bc9f,17.76834,16.73789387,16.6808413,16.70385128,16.8102642,16.73789387,,,,,,,,,,,,,,,,,,,,PF,weak,3,,,,,,,,3,2.3214,,,,,,,,,,,,,,,,,,,,,,,,,,,,3,weak,-30,-71,1,0,0,response5disk,6,86,2,0,1,0,0,rectangle,2,0,1,0,0,5,2,0.002195,2,0,1,0,0,0,85,85,47,1,0,,,,,,,,,,,,,,,,,,,,,
,,,,,,,,,,,,,,,,,,,,,,,,,,,,,,,,,,,,,,,,,,601735932654fb9881a745d8,6068416b57578caa1da7c1be,2021-04-03_23h22.32.454,Colour_Similarity_Experiment,2020.2.10,Win32,60,60674ec340277cd6a308bc9f,17.76834,16.73789387,16.6808413,16.70385128,16.8102642,16.73789387,,,,,,,,,,,,,,,,,,,,PF,strong,3,,,,,,,,0,1.96138,,,,,,,,,,,,,,,,,,,,,,,,,,,,4,strong,-44,72,1,0,0,response7disk,5,87,13,0,1,0,0,rectangle,13,0,1,0,0,5,6,0.002545,13,0,1,0,0,0,86,86,116,1,0,,,,,,,,,,,,,,,,,,,,,
,,,,,,,,,,,,,,,,,,,,,,,,,,,,,,,,,,,,,,,,,,601735932654fb9881a745d8,6068416b57578caa1da7c1be,2021-04-03_23h22.32.454,Colour_Similarity_Experiment,2020.2.10,Win32,60,60674ec340277cd6a308bc9f,17.76834,16.73789387,16.6808413,16.70385128,16.8102642,16.73789387,,,,,,,,,,,,,,,,,,,,PF,strong,3,,,,,,,,4,2.47722,,,,,,,,,,,,,,,,,,,,,,,,,,,,6,strong,51,-78,1,0,0,response3disk,9,88,17,1,1,0,0,rectangle,-71,37,1,0,0,1,1,2.272095,5,-9,1,0,0,0,87,87,160,1,1,response7disk_3,rectangle,,,,,,,,,,,,,,,,,,,
,,,,,,,,,,,,,,,,,,,,,,,,,,,,,,,,,,,,,,,,,,601735932654fb9881a745d8,6068416b57578caa1da7c1be,2021-04-03_23h22.32.454,Colour_Similarity_Experiment,2020.2.10,Win32,60,60674ec340277cd6a308bc9f,17.76834,16.73789387,16.6808413,16.70385128,16.8102642,16.73789387,,,,,,,,,,,,,,,,,,,,PF,weak,3,,,,,,,,5,1.966085,,,,,,,,,,,,,,,,,,,,,,,,,,,,3,weak,79,-42,1,0,0,response3disk,8,89,-19,2,1,0,0,rectangle,-19,2,1,0,0,1,4,0.002325,-19,2,1,0,0,0,88,88,3,1,0,,,,,,,,,,,,,,,,,,,,,
,,,,,,,,,,,,,,,,,,,,,,,,,,,,,,,,,,,,,,,,,,601735932654fb9881a745d8,6068416b57578caa1da7c1be,2021-04-03_23h22.32.454,Colour_Similarity_Experiment,2020.2.10,Win32,60,60674ec340277cd6a308bc9f,17.76834,16.73789387,16.6808413,16.70385128,16.8102642,16.73789387,,,,,,,,,,,,,,,,,,,,PF,weak,3,,,,,,,,2,3.215485,,,,,,,,,,,,,,,,,,,,,,,,,,,,5,weak,-90,-32,1,0,0,response5disk,3,90,-9,1,1,0,0,rectangle,-9,1,1,0,0,1,0,0.00363,-9,1,1,0,0,0,89,89,109,1,0,,,,,,,,,,,,,,,,,,,,,
,,,,,,,,,,,,,,,,,,,,,,,,,,,,,,,,,,,,,,,,,,601735932654fb9881a745d8,6068416b57578caa1da7c1be,2021-04-03_23h22.32.454,Colour_Similarity_Experiment,2020.2.10,Win32,60,60674ec340277cd6a308bc9f,17.76834,16.73789387,16.6808413,16.70385128,16.8102642,16.73789387,,,,,,,,,,,,,,,,,,,,PF,weak,3,,,,,,,,1,1.32271,,,,,,,,,,,,,,,,,,,,,,,,,,,,4,weak,-72,38,1,0,0,response7disk,5,91,-15,14,1,0,0,rectangle,-15,14,1,0,0,1,1,0.001965,-15,14,1,0,0,0,90,90,49,1,0,,,,,,,,,,,,,,,,,,,,,
,,,,,,,,,,,,,,,,,,,,,,,,,,,,,,,,,,,,,,,,,,601735932654fb9881a745d8,6068416b57578caa1da7c1be,2021-04-03_23h22.32.454,Colour_Similarity_Experiment,2020.2.10,Win32,60,60674ec340277cd6a308bc9f,17.76834,16.73789387,16.6808413,16.70385128,16.8102642,16.73789387,,,,,,,,,,,,,,,,,,,,PF,weak,3,,,,,,,,6,1.57693,,,,,,,,,,,,,,,,,,,,,,,,,,,,3,weak,78,45,1,0,0,response1disk,2,92,9,0,1,0,0,rectangle,48,-84,1,0,0,4,4,1.689645,-2,-2,1,0,0,0,91,91,36,1,1,response3disk_3,rectangle,,,,,,,,,,,,,,,,,,,
,,,,,,,,,,,,,,,,,,,,,,,,,,,,,,,,,,,,,,,,,,601735932654fb9881a745d8,6068416b57578caa1da7c1be,2021-04-03_23h22.32.454,Colour_Similarity_Experiment,2020.2.10,Win32,60,60674ec340277cd6a308bc9f,17.76834,16.73789387,16.6808413,16.70385128,16.8102642,16.73789387,,,,,,,,,,,,,,,,,,,,PF,weak,3,,,,,,,,5,4.40723,,,,,,,,,,,,,,,,,,,,,,,,,,,,5,weak,97,-44,1,0,0,response3disk,1,93,17,-5,1,0,0,rectangle,79,-35,1,0,0,5,5,1.91712,16,-1,1,0,0,0,92,92,159,1,1,response3disk_3,rectangle,,,,,,,,,,,,,,,,,,,
,,,,,,,,,,,,,,,,,,,,,,,,,,,,,,,,,,,,,,,,,,601735932654fb9881a745d8,6068416b57578caa1da7c1be,2021-04-03_23h22.32.454,Colour_Similarity_Experiment,2020.2.10,Win32,60,60674ec340277cd6a308bc9f,17.76834,16.73789387,16.6808413,16.70385128,16.8102642,16.73789387,,,,,,,,,,,,,,,,,,,,PF,strong,3,,,,,,,,7,1.67214,,,,,,,,,,,,,,,,,,,,,,,,,,,,2,strong,54,100,1,0,0,response1disk,8,94,7,2,1,0,0,rectangle,7,2,1,0,0,5,5,0.00018,7,2,1,0,0,0,93,93,62,1,0,,,,,,,,,,,,,,,,,,,,,
,,,,,,,,,,,,,,,,,,,,,,,,,,,,,,,,,,,,,,,,,,601735932654fb9881a745d8,6068416b57578caa1da7c1be,2021-04-03_23h22.32.454,Colour_Similarity_Experiment,2020.2.10,Win32,60,60674ec340277cd6a308bc9f,17.76834,16.73789387,16.6808413,16.70385128,16.8102642,16.73789387,,,,,,,,,,,,,,,,,,,,PF,weak,3,,,,,,,,6,2.2042,,,,,,,,,,,,,,,,,,,,,,,,,,,,6,weak,87,61,1,0,0,response1disk,1,95,21,7,1,0,0,rectangle,21,7,1,0,0,5,0,0.002005,21,7,1,0,0,0,94,94,46,1,0,,,,,,,,,,,,,,,,,,,,,
,,,,,,,,,,,,,,,,,,,,,,,,,,,,,,,,,,,,,,,,,,601735932654fb9881a745d8,6068416b57578caa1da7c1be,2021-04-03_23h22.32.454,Colour_Similarity_Experiment,2020.2.10,Win32,60,60674ec340277cd6a308bc9f,17.76834,16.73789387,16.6808413,16.70385128,16.8102642,16.73789387,,,,,,,,,,,,,,,,,,,,PF,weak,3,,,,,,,,6,2.05117,,,,,,,,,,,,,,,,,,,,,,,,,,,,3,weak,86,48,1,0,0,response1disk,1,96,26,7,1,0,0,rectangle,26,7,1,0,0,5,7,0.003255,26,7,1,0,0,0,95,95,96,1,0,,,,,,,,,,,,,,,,,,,,,
,,,,,,,,,,,,,,,,,,,,,,,,,,,,,,,,,,,,,,,,,,601735932654fb9881a745d8,6068416b57578caa1da7c1be,2021-04-03_23h22.32.454,Colour_Similarity_Experiment,2020.2.10,Win32,60,60674ec340277cd6a308bc9f,17.76834,16.73789387,16.6808413,16.70385128,16.8102642,16.73789387,,,,,,,,,,,,,,,,,,,,PF,weak,3,,,,,,,,5,1.98026,,,,,,,,,,,,,,,,,,,,,,,,,,,,9,weak,81,-45,1,0,0,response3disk,5,97,10,0,1,0,0,rectangle,10,0,1,0,0,5,4,0.003205,10,0,1,0,0,0,96,96,134,1,0,,,,,,,,,,,,,,,,,,,,,
,,,,,,,,,,,,,,,,,,,,,,,,,,,,,,,,,,,,,,,,,,601735932654fb9881a745d8,6068416b57578caa1da7c1be,2021-04-03_23h22.32.454,Colour_Similarity_Experiment,2020.2.10,Win32,60,60674ec340277cd6a308bc9f,17.76834,16.73789387,16.6808413,16.70385128,16.8102642,16.73789387,,,,,,,,,,,,,,,,,,,,PF,strong,3,,,,,,,,6,1.627015,,,,,,,,,,,,,,,,,,,,,,,,,,,,1,strong,91,31,1,0,0,response1disk,4,98,10,-8,1,0,0,rectangle,10,-8,1,0,0,5,3,0.00197,10,-8,1,0,0,0,97,97,135,1,0,,,,,,,,,,,,,,,,,,,,,
,,,,,,,,,,,,,,,,,,,,,,,,,,,,,,,,,,,,,,,,,,601735932654fb9881a745d8,6068416b57578caa1da7c1be,2021-04-03_23h22.32.454,Colour_Similarity_Experiment,2020.2.10,Win32,60,60674ec340277cd6a308bc9f,17.76834,16.73789387,16.6808413,16.70385128,16.8102642,16.73789387,,,,,,,,,,,,,,,,,,,,PF,weak,3,,,,,,,,5,2.100855,,,,,,,,,,,,,,,,,,,,,,,,,,,,9,weak,81,-57,1,0,0,response3disk,6,99,11,5,1,0,0,rectangle,11,5,1,0,0,5,2,0.002385,11,5,1,0,0,0,98,98,148,1,0,,,,,,,,,,,,,,,,,,,,,
,,,,,,,,,,,,,,,,,,,,,,,,,,,,,,,,,,,,,,,,,,601735932654fb9881a745d8,6068416b57578caa1da7c1be,2021-04-03_23h22.32.454,Colour_Similarity_Experiment,2020.2.10,Win32,60,60674ec340277cd6a308bc9f,17.76834,16.73789387,16.6808413,16.70385128,16.8102642,16.73789387,,,,,,,,,,,,,,,,,,,,PF,strong,3,,,,,,,,2,2.253675,,,,,,,,,,,,,,,,,,,,,,,,,,,,8,strong,-94,-50,1,0,0,response5disk,9,100,-12,-4,1,0,0,rectangle,-12,-4,1,0,0,5,4,0.00242,-12,-4,1,0,0,0,99,99,105,1,0,,,,,,,,,,,,,,,,,,,,,
,,,,,,,,,,,,,,,,,,,,,,,,,,,,,,,,,,,,,,,,,,601735932654fb9881a745d8,6068416b57578caa1da7c1be,2021-04-03_23h22.32.454,Colour_Similarity_Experiment,2020.2.10,Win32,60,60674ec340277cd6a308bc9f,17.76834,16.73789387,16.6808413,16.70385128,16.8102642,16.73789387,,,,,,,,,,,,,,,,,,,,PF,weak,3,,,,,,,,1,1.531975,,,,,,,,,,,,,,,,,,,,,,,,,,,,7,weak,-91,44,1,0,0,response7disk,7,101,-11,-1,1,0,0,rectangle,-11,-1,1,0,0,5,2,0.00168,-11,-1,1,0,0,0,100,100,51,1,0,,,,,,,,,,,,,,,,,,,,,
,,,,,,,,,,,,,,,,,,,,,,,,,,,,,,,,,,,,,,,,,,601735932654fb9881a745d8,6068416b57578caa1da7c1be,2021-04-03_23h22.32.454,Colour_Similarity_Experiment,2020.2.10,Win32,60,60674ec340277cd6a308bc9f,17.76834,16.73789387,16.6808413,16.70385128,16.8102642,16.73789387,,,,,,,,,,,,,,,,,,,,PF,weak,3,,,,,,,,5,2.08334,,,,,,,,,,,,,,,,,,,,,,,,,,,,6,weak,90,-37,1,0,0,response3disk,9,102,-1,1,1,0,0,rectangle,-1,1,1,0,0,5,4,0.00168,-1,1,1,0,0,0,101,101,45,1,0,,,,,,,,,,,,,,,,,,,,,
,,,,,,,,,,,,,,,,,,,,,,,,,,,,,,,,,,,,,,,,,,601735932654fb9881a745d8,6068416b57578caa1da7c1be,2021-04-03_23h22.32.454,Colour_Similarity_Experiment,2020.2.10,Win32,60,60674ec340277cd6a308bc9f,17.76834,16.73789387,16.6808413,16.70385128,16.8102642,16.73789387,,,,,,,,,,,,,,,,,,,,PF,weak,3,,,,,,,,1,1.512905,,,,,,,,,,,,,,,,,,,,,,,,,,,,4,weak,-88,41,1,0,0,response7disk,3,103,14,4,1,0,0,rectangle,14,4,1,0,0,5,7,0.001665,14,4,1,0,0,0,102,102,89,1,0,,,,,,,,,,,,,,,,,,,,,
,,,,,,,,,,,,,,,,,,,,,,,,,,,,,,,,,,,,,,,,,,601735932654fb9881a745d8,6068416b57578caa1da7c1be,2021-04-03_23h22.32.454,Colour_Similarity_Experiment,2020.2.10,Win32,60,60674ec340277cd6a308bc9f,17.76834,16.73789387,16.6808413,16.70385128,16.8102642,16.73789387,,,,,,,,,,,,,,,,,,,,PF,strong,3,,,,,,,,3,1.93851,,,,,,,,,,,,,,,,,,,,,,,,,,,,4,strong,-23,-78,1,0,0,response5disk,7,104,0,1,1,0,0,rectangle,0,1,1,0,0,5,1,0.001855,0,1,1,0,0,0,103,103,87,1,0,,,,,,,,,,,,,,,,,,,,,
,,,,,,,,,,,,,,,,,,,,,,,,,,,,,,,,,,,,,,,,,,601735932654fb9881a745d8,6068416b57578caa1da7c1be,2021-04-03_23h22.32.454,Colour_Similarity_Experiment,2020.2.10,Win32,60,60674ec340277cd6a308bc9f,17.76834,16.73789387,16.6808413,16.70385128,16.8102642,16.73789387,,,,,,,,,,,,,,,,,,,,PF,weak,3,,,,,,,,7,1.60389,,,,,,,,,,,,,,,,,,,,,,,,,,,,1,weak,56,96,1,0,0,response1disk,6,105,15,2,1,0,0,rectangle,15,2,1,0,0,5,0,0.001745,15,2,1,0,0,0,104,104,144,1,0,,,,,,,,,,,,,,,,,,,,,
,,,,,,,,,,,,,,,,,,,,,,,,,,,,,,,,,,,,,,,,,,601735932654fb9881a745d8,6068416b57578caa1da7c1be,2021-04-03_23h22.32.454,Colour_Similarity_Experiment,2020.2.10,Win32,60,60674ec340277cd6a308bc9f,17.76834,16.73789387,16.6808413,16.70385128,16.8102642,16.73789387,,,,,,,,,,,,,,,,,,,,PF,weak,3,,,,,,,,6,2.454335,,,,,,,,,,,,,,,,,,,,,,,,,,,,9,weak,97,46,1,0,0,response1disk,7,106,24,1,1,0,0,rectangle,24,1,1,0,0,5,1,0.00251,24,1,1,0,0,0,105,105,121,1,0,,,,,,,,,,,,,,,,,,,,,
,,,,,,,,,,,,,,,,,,,,,,,,,,,,,,,,,,,,,,,,,,601735932654fb9881a745d8,6068416b57578caa1da7c1be,2021-04-03_23h22.32.454,Colour_Similarity_Experiment,2020.2.10,Win32,60,60674ec340277cd6a308bc9f,17.76834,16.73789387,16.6808413,16.70385128,16.8102642,16.73789387,,,,,,,,,,,,,,,,,,,,PF,strong,3,,,,,,,,4,3.040675,,,,,,,,,,,,,,,,,,,,,,,,,,,,2,strong,41,-90,1,0,0,response3disk,5,107,8,10,1,0,0,rectangle,8,10,1,0,0,5,4,0.008525,8,10,1,0,0,0,106,106,80,1,0,,,,,,,,,,,,,,,,,,,,,
,,,,,,,,,,,,,,,,,,,,,,,,,,,,,,,,,,,,,,,,,,601735932654fb9881a745d8,6068416b57578caa1da7c1be,2021-04-03_23h22.32.454,Colour_Similarity_Experiment,2020.2.10,Win32,60,60674ec340277cd6a308bc9f,17.76834,16.73789387,16.6808413,16.70385128,16.8102642,16.73789387,,,,,,,,,,,,,,,,,,,,PF,strong,3,,,,,,,,4,1.807345,,,,,,,,,,,,,,,,,,,,,,,,,,,,4,strong,44,-80,1,0,0,response3disk,8,108,7,2,1,0,0,rectangle,7,2,1,0,0,5,4,0.00023,7,2,1,0,0,0,107,107,35,1,0,,,,,,,,,,,,,,,,,,,,,
,,,,,,,,,,,,,,,,,,,,,,,,,,,,,,,,,,,,,,,,,,601735932654fb9881a745d8,6068416b57578caa1da7c1be,2021-04-03_23h22.32.454,Colour_Similarity_Experiment,2020.2.10,Win32,60,60674ec340277cd6a308bc9f,17.76834,16.73789387,16.6808413,16.70385128,16.8102642,16.73789387,,,,,,,,,,,,,,,,,,,,PF,strong,3,,,,,,,,0,1.311595,,,,,,,,,,,,,,,,,,,,,,,,,,,,2,strong,-54,106,1,0,0,response7disk,2,109,-4,6,1,0,0,rectangle,-4,6,1,0,0,5,3,0.002285,-4,6,1,0,0,0,108,108,142,1,0,,,,,,,,,,,,,,,,,,,,,
,,,,,,,,,,,,,,,,,,,,,,,,,,,,,,,,,,,,,,,,,,601735932654fb9881a745d8,6068416b57578caa1da7c1be,2021-04-03_23h22.32.454,Colour_Similarity_Experiment,2020.2.10,Win32,60,60674ec340277cd6a308bc9f,17.76834,16.73789387,16.6808413,16.70385128,16.8102642,16.73789387,,,,,,,,,,,,,,,,,,,,PF,weak,3,,,,,,,,4,1.38871,,,,,,,,,,,,,,,,,,,,,,,,,,,,4,weak,67,-90,1,0,0,response3disk,8,110,11,13,1,0,0,rectangle,11,13,1,0,0,5,2,0.001685,11,13,1,0,0,0,109,109,124,1,0,,,,,,,,,,,,,,,,,,,,,
,,,,,,,,,,,,,,,,,,,,,,,,,,,,,,,,,,,,,,,,,,601735932654fb9881a745d8,6068416b57578caa1da7c1be,2021-04-03_23h22.32.454,Colour_Similarity_Experiment,2020.2.10,Win32,60,60674ec340277cd6a308bc9f,17.76834,16.73789387,16.6808413,16.70385128,16.8102642,16.73789387,,,,,,,,,,,,,,,,,,,,PF,strong,3,,,,,,,,6,2.0873,,,,,,,,,,,,,,,,,,,,,,,,,,,,8,strong,83,53,1,0,0,response1disk,2,111,9,3,1,0,0,rectangle,9,3,1,0,0,5,5,0.00176,9,3,1,0,0,0,110,110,22,1,0,,,,,,,,,,,,,,,,,,,,,
,,,,,,,,,,,,,,,,,,,,,,,,,,,,,,,,,,,,,,,,,,601735932654fb9881a745d8,6068416b57578caa1da7c1be,2021-04-03_23h22.32.454,Colour_Similarity_Experiment,2020.2.10,Win32,60,60674ec340277cd6a308bc9f,17.76834,16.73789387,16.6808413,16.70385128,16.8102642,16.73789387,,,,,,,,,,,,,,,,,,,,PF,weak,3,,,,,,,,1,1.238225,,,,,,,,,,,,,,,,,,,,,,,,,,,,3,weak,-94,50,1,0,0,response7disk,4,112,-17,6,1,0,0,rectangle,-17,6,1,0,0,5,1,0.00165,-17,6,1,0,0,0,111,111,30,1,0,,,,,,,,,,,,,,,,,,,,,
,,,,,,,,,,,,,,,,,,,,,,,,,,,,,,,,,,,,,,,,,,601735932654fb9881a745d8,6068416b57578caa1da7c1be,2021-04-03_23h22.32.454,Colour_Similarity_Experiment,2020.2.10,Win32,60,60674ec340277cd6a308bc9f,17.76834,16.73789387,16.6808413,16.70385128,16.8102642,16.73789387,,,,,,,,,,,,,,,,,,,,PF,weak,3,,,,,,,,6,2.816285,,,,,,,,,,,,,,,,,,,,,,,,,,,,2,weak,90,44,1,0,0,response1disk,7,113,0,-1,1,0,0,rectangle,0,-1,1,0,0,5,4,0.002325,0,-1,1,0,0,0,112,112,107,1,0,,,,,,,,,,,,,,,,,,,,,
,,,,,,,,,,,,,,,,,,,,,,,,,,,,,,,,,,,,,,,,,,601735932654fb9881a745d8,6068416b57578caa1da7c1be,2021-04-03_23h22.32.454,Colour_Similarity_Experiment,2020.2.10,Win32,60,60674ec340277cd6a308bc9f,17.76834,16.73789387,16.6808413,16.70385128,16.8102642,16.73789387,,,,,,,,,,,,,,,,,,,,PF,strong,3,,,,,,,,4,2.10019,,,,,,,,,,,,,,,,,,,,,,,,,,,,7,strong,39,-75,1,0,0,response3disk,3,114,-1,9,1,0,0,rectangle,-1,9,1,0,0,5,0,0.00176,-1,9,1,0,0,0,113,113,73,1,0,,,,,,,,,,,,,,,,,,,,,
,,,,,,,,,,,,,,,,,,,,,,,,,,,,,,,,,,,,,,,,,,601735932654fb9881a745d8,6068416b57578caa1da7c1be,2021-04-03_23h22.32.454,Colour_Similarity_Experiment,2020.2.10,Win32,60,60674ec340277cd6a308bc9f,17.76834,16.73789387,16.6808413,16.70385128,16.8102642,16.73789387,,,,,,,,,,,,,,,,,,,,PF,strong,3,,,,,,,,3,1.95853,,,,,,,,,,,,,,,,,,,,,,,,,,,,9,strong,-40,-98,1,0,0,response5disk,2,115,-6,-3,1,0,0,rectangle,-27,-98,1,0,0,3,3,2.33319,11,10,1,0,0,0,114,114,11,1,1,response5disk_3,rectangle,,,,,,,,,,,,,,,,,,,
,,,,,,,,,,,,,,,,,,,,,,,,,,,,,,,,,,,,,,,,,,601735932654fb9881a745d8,6068416b57578caa1da7c1be,2021-04-03_23h22.32.454,Colour_Similarity_Experiment,2020.2.10,Win32,60,60674ec340277cd6a308bc9f,17.76834,16.73789387,16.6808413,16.70385128,16.8102642,16.73789387,,,,,,,,,,,,,,,,,,,,PF,strong,3,,,,,,,,3,1.714955,,,,,,,,,,,,,,,,,,,,,,,,,,,,5,strong,-54,-85,1,0,0,response5disk,7,116,-6,-3,1,0,0,rectangle,-6,-3,1,0,0,3,6,0.00211,-6,-3,1,0,0,0,115,115,7,1,0,,,,,,,,,,,,,,,,,,,,,
,,,,,,,,,,,,,,,,,,,,,,,,,,,,,,,,,,,,,,,,,,601735932654fb9881a745d8,6068416b57578caa1da7c1be,2021-04-03_23h22.32.454,Colour_Similarity_Experiment,2020.2.10,Win32,60,60674ec340277cd6a308bc9f,17.76834,16.73789387,16.6808413,16.70385128,16.8102642,16.73789387,,,,,,,,,,,,,,,,,,,,PF,weak,3,,,,,,,,4,1.347865,,,,,,,,,,,,,,,,,,,,,,,,,,,,4,weak,62,-90,1,0,0,response3disk,2,117,14,10,1,0,0,rectangle,14,10,1,0,0,3,1,0.00191,14,10,1,0,0,0,116,116,108,1,0,,,,,,,,,,,,,,,,,,,,,
,,,,,,,,,,,,,,,,,,,,,,,,,,,,,,,,,,,,,,,,,,601735932654fb9881a745d8,6068416b57578caa1da7c1be,2021-04-03_23h22.32.454,Colour_Similarity_Experiment,2020.2.10,Win32,60,60674ec340277cd6a308bc9f,17.76834,16.73789387,16.6808413,16.70385128,16.8102642,16.73789387,,,,,,,,,,,,,,,,,,,,PF,strong,3,,,,,,,,5,1.78324,,,,,,,,,,,,,,,,,,,,,,,,,,,,8,strong,86,-58,1,0,0,response3disk,3,118,19,9,1,0,0,rectangle,19,9,1,0,0,3,3,0.001725,19,9,1,0,0,0,117,117,154,1,0,,,,,,,,,,,,,,,,,,,,,
,,,,,,,,,,,,,,,,,,,,,,,,,,,,,,,,,,,,,,,,,,601735932654fb9881a745d8,6068416b57578caa1da7c1be,2021-04-03_23h22.32.454,Colour_Similarity_Experiment,2020.2.10,Win32,60,60674ec340277cd6a308bc9f,17.76834,16.73789387,16.6808413,16.70385128,16.8102642,16.73789387,,,,,,,,,,,,,,,,,,,,PF,weak,3,,,,,,,,3,1.429155,,,,,,,,,,,,,,,,,,,,,,,,,,,,7,weak,-30,-100,1,0,0,response5disk,5,119,0,2,1,0,0,rectangle,0,2,1,0,0,3,6,0.00196,0,2,1,0,0,0,118,118,92,1,0,,,,,,,,,,,,,,,,,,,,,
,,,,,,,,,,,,,,,,,,,,,,,,,,,,,,,,,,,,,,,,,,601735932654fb9881a745d8,6068416b57578caa1da7c1be,2021-04-03_23h22.32.454,Colour_Similarity_Experiment,2020.2.10,Win32,60,60674ec340277cd6a308bc9f,17.76834,16.73789387,16.6808413,16.70385128,16.8102642,16.73789387,,,,,,,,,,,,,,,,,,,,PF,strong,3,,,,,,,,5,1.39126,,,,,,,,,,,,,,,,,,,,,,,,,,,,4,strong,69,-37,1,0,0,response3disk,9,120,11,-1,1,0,0,rectangle,11,-1,1,0,0,3,2,0.00204,11,-1,1,0,0,0,119,119,90,1,0,,,,,,,,,,,,,,,,,,,,,
,,,,,,,,,,,,,,,,,,,,,,,,,,,,,,,,,,,,,,,,,,601735932654fb9881a745d8,6068416b57578caa1da7c1be,2021-04-03_23h22.32.454,Colour_Similarity_Experiment,2020.2.10,Win32,60,60674ec340277cd6a308bc9f,17.76834,16.73789387,16.6808413,16.70385128,16.8102642,16.73789387,,,,,,,,,,,,,,,,,,,,PF,strong,3,,,,,,,,4,2.28164,,,,,,,,,,,,,,,,,,,,,,,,,,,,2,strong,29,-69,1,0,0,response3disk,3,121,9,6,1,0,0,rectangle,-27,-84,1,0,0,3,3,2.554645,-5,-5,1,0,0,0,120,120,104,1,1,response5disk_3,rectangle,,,,,,,,,,,,,,,,,,,
,,,,,,,,,,,,,,,,,,,,,,,,,,,,,,,,,,,,,,,,,,601735932654fb9881a745d8,6068416b57578caa1da7c1be,2021-04-03_23h22.32.454,Colour_Similarity_Experiment,2020.2.10,Win32,60,60674ec340277cd6a308bc9f,17.76834,16.73789387,16.6808413,16.70385128,16.8102642,16.73789387,,,,,,,,,,,,,,,,,,,,PF,weak,3,,,,,,,,3,2.493375,,,,,,,,,,,,,,,,,,,,,,,,,,,,9,weak,-36,-107,1,0,0,response5disk,2,122,-2,-4,1,0,0,rectangle,-2,-4,1,0,0,3,0,0.002755,-2,-4,1,0,0,0,121,121,157,1,0,,,,,,,,,,,,,,,,,,,,,
,,,,,,,,,,,,,,,,,,,,,,,,,,,,,,,,,,,,,,,,,,601735932654fb9881a745d8,6068416b57578caa1da7c1be,2021-04-03_23h22.32.454,Colour_Similarity_Experiment,2020.2.10,Win32,60,60674ec340277cd6a308bc9f,17.76834,16.73789387,16.6808413,16.70385128,16.8102642,16.73789387,,,,,,,,,,,,,,,,,,,,PF,weak,3,,,,,,,,3,1.231045,,,,,,,,,,,,,,,,,,,,,,,,,,,,5,weak,-35,-95,1,0,0,response5disk,2,123,-3,-3,1,0,0,rectangle,-3,-3,1,0,0,3,3,0.002515,-3,-3,1,0,0,0,122,122,129,1,0,,,,,,,,,,,,,,,,,,,,,
,,,,,,,,,,,,,,,,,,,,,,,,,,,,,,,,,,,,,,,,,,601735932654fb9881a745d8,6068416b57578caa1da7c1be,2021-04-03_23h22.32.454,Colour_Similarity_Experiment,2020.2.10,Win32,60,60674ec340277cd6a308bc9f,17.76834,16.73789387,16.6808413,16.70385128,16.8102642,16.73789387,,,,,,,,,,,,,,,,,,,,PF,weak,3,,,,,,,,4,1.930475,,,,,,,,,,,,,,,,,,,,,,,,,,,,1,weak,39,-88,1,0,0,response3disk,4,124,12,-9,1,0,0,rectangle,12,-9,1,0,0,3,4,0.00224,12,-9,1,0,0,0,123,123,139,1,0,,,,,,,,,,,,,,,,,,,,,
,,,,,,,,,,,,,,,,,,,,,,,,,,,,,,,,,,,,,,,,,,601735932654fb9881a745d8,6068416b57578caa1da7c1be,2021-04-03_23h22.32.454,Colour_Similarity_Experiment,2020.2.10,Win32,60,60674ec340277cd6a308bc9f,17.76834,16.73789387,16.6808413,16.70385128,16.8102642,16.73789387,,,,,,,,,,,,,,,,,,,,PF,strong,3,,,,,,,,0,1.490245,,,,,,,,,,,,,,,,,,,,,,,,,,,,1,strong,-33,86,1,0,0,response7disk,1,125,2,1,1,0,0,rectangle,2,1,1,0,0,3,4,0.000175,2,1,1,0,0,0,124,124,151,1,0,,,,,,,,,,,,,,,,,,,,,
,,,,,,,,,,,,,,,,,,,,,,,,,,,,,,,,,,,,,,,,,,601735932654fb9881a745d8,6068416b57578caa1da7c1be,2021-04-03_23h22.32.454,Colour_Similarity_Experiment,2020.2.10,Win32,60,60674ec340277cd6a308bc9f,17.76834,16.73789387,16.6808413,16.70385128,16.8102642,16.73789387,,,,,,,,,,,,,,,,,,,,PF,weak,3,,,,,,,,0,1.443085,,,,,,,,,,,,,,,,,,,,,,,,,,,,3,weak,-42,84,1,0,0,response7disk,3,126,5,8,1,0,0,rectangle,5,8,1,0,0,3,3,0.001715,5,8,1,0,0,0,125,125,4,1,0,,,,,,,,,,,,,,,,,,,,,
,,,,,,,,,,,,,,,,,,,,,,,,,,,,,,,,,,,,,,,,,,601735932654fb9881a745d8,6068416b57578caa1da7c1be,2021-04-03_23h22.32.454,Colour_Similarity_Experiment,2020.2.10,Win32,60,60674ec340277cd6a308bc9f,17.76834,16.73789387,16.6808413,16.70385128,16.8102642,16.73789387,,,,,,,,,,,,,,,,,,,,PF,strong,3,,,,,,,,2,1.6302,,,,,,,,,,,,,,,,,,,,,,,,,,,,6,strong,-82,-32,1,0,0,response5disk,3,127,-10,-2,1,0,0,rectangle,-10,-2,1,0,0,3,3,0.00017,-10,-2,1,0,0,0,126,126,21,1,0,,,,,,,,,,,,,,,,,,,,,
,,,,,,,,,,,,,,,,,,,,,,,,,,,,,,,,,,,,,,,,,,601735932654fb9881a745d8,6068416b57578caa1da7c1be,2021-04-03_23h22.32.454,Colour_Similarity_Experiment,2020.2.10,Win32,60,60674ec340277cd6a308bc9f,17.76834,16.73789387,16.6808413,16.70385128,16.8102642,16.73789387,,,,,,,,,,,,,,,,,,,,PF,weak,3,,,,,,,,3,1.55186,,,,,,,,,,,,,,,,,,,,,,,,,,,,8,weak,-54,-98,1,0,0,response5disk,7,128,2,5,1,0,0,rectangle,2,5,1,0,0,3,7,0.002975,2,5,1,0,0,0,127,127,23,1,0,,,,,,,,,,,,,,,,,,,,,
,,,,,,,,,,,,,,,,,,,,,,,,,,,,,,,,,,,,,,,,,,601735932654fb9881a745d8,6068416b57578caa1da7c1be,2021-04-03_23h22.32.454,Colour_Similarity_Experiment,2020.2.10,Win32,60,60674ec340277cd6a308bc9f,17.76834,16.73789387,16.6808413,16.70385128,16.8102642,16.73789387,,,,,,,,,,,,,,,,,,,,PF,weak,3,,,,,,,,4,1.27192,,,,,,,,,,,,,,,,,,,,,,,,,,,,9,weak,40,-80,1,0,0,response3disk,4,129,1,10,1,0,0,rectangle,1,10,1,0,0,3,3,0.00164,1,10,1,0,0,0,128,128,114,1,0,,,,,,,,,,,,,,,,,,,,,
,,,,,,,,,,,,,,,,,,,,,,,,,,,,,,,,,,,,,,,,,,601735932654fb9881a745d8,6068416b57578caa1da7c1be,2021-04-03_23h22.32.454,Colour_Similarity_Experiment,2020.2.10,Win32,60,60674ec340277cd6a308bc9f,17.76834,16.73789387,16.6808413,16.70385128,16.8102642,16.73789387,,,,,,,,,,,,,,,,,,,,PF,strong,3,,,,,,,,4,2.86889,,,,,,,,,,,,,,,,,,,,,,,,,,,,3,strong,33,-78,1,0,0,response3disk,9,130,-1,8,1,0,0,rectangle,-1,8,1,0,0,3,1,0.00213,-1,8,1,0,0,0,129,129,143,1,0,,,,,,,,,,,,,,,,,,,,,
,,,,,,,,,,,,,,,,,,,,,,,,,,,,,,,,,,,,,,,,,,601735932654fb9881a745d8,6068416b57578caa1da7c1be,2021-04-03_23h22.32.454,Colour_Similarity_Experiment,2020.2.10,Win32,60,60674ec340277cd6a308bc9f,17.76834,16.73789387,16.6808413,16.70385128,16.8102642,16.73789387,,,,,,,,,,,,,,,,,,,,PF,strong,3,,,,,,,,2,1.47851,,,,,,,,,,,,,,,,,,,,,,,,,,,,6,strong,-72,-30,1,0,0,response5disk,5,131,-2,4,1,0,0,rectangle,-2,4,1,0,0,3,6,0.00348,-2,4,1,0,0,0,130,130,126,1,0,,,,,,,,,,,,,,,,,,,,,
,,,,,,,,,,,,,,,,,,,,,,,,,,,,,,,,,,,,,,,,,,601735932654fb9881a745d8,6068416b57578caa1da7c1be,2021-04-03_23h22.32.454,Colour_Similarity_Experiment,2020.2.10,Win32,60,60674ec340277cd6a308bc9f,17.76834,16.73789387,16.6808413,16.70385128,16.8102642,16.73789387,,,,,,,,,,,,,,,,,,,,PF,weak,3,,,,,,,,3,1.441635,,,,,,,,,,,,,,,,,,,,,,,,,,,,4,weak,-42,-96,1,0,0,response5disk,7,132,-10,2,1,0,0,rectangle,-10,2,1,0,0,3,0,0.00235,-10,2,1,0,0,0,131,131,38,1,0,,,,,,,,,,,,,,,,,,,,,
,,,,,,,,,,,,,,,,,,,,,,,,,,,,,,,,,,,,,,,,,,601735932654fb9881a745d8,6068416b57578caa1da7c1be,2021-04-03_23h22.32.454,Colour_Similarity_Experiment,2020.2.10,Win32,60,60674ec340277cd6a308bc9f,17.76834,16.73789387,16.6808413,16.70385128,16.8102642,16.73789387,,,,,,,,,,,,,,,,,,,,PF,strong,3,,,,,,,,3,1.502285,,,,,,,,,,,,,,,,,,,,,,,,,,,,1,strong,-31,-71,1,0,0,response5disk,9,133,-2,-2,1,0,0,rectangle,-2,-2,1,0,0,3,2,0.002145,-2,-2,1,0,0,0,132,132,123,1,0,,,,,,,,,,,,,,,,,,,,,
,,,,,,,,,,,,,,,,,,,,,,,,,,,,,,,,,,,,,,,,,,601735932654fb9881a745d8,6068416b57578caa1da7c1be,2021-04-03_23h22.32.454,Colour_Similarity_Experiment,2020.2.10,Win32,60,60674ec340277cd6a308bc9f,17.76834,16.73789387,16.6808413,16.70385128,16.8102642,16.73789387,,,,,,,,,,,,,,,,,,,,PF,strong,3,,,,,,,,3,1.89036,,,,,,,,,,,,,,,,,,,,,,,,,,,,2,strong,-37,-79,1,0,0,response5disk,4,134,6,4,1,0,0,rectangle,6,4,1,0,0,3,1,0.00214,6,4,1,0,0,0,133,133,145,1,0,,,,,,,,,,,,,,,,,,,,,
,,,,,,,,,,,,,,,,,,,,,,,,,,,,,,,,,,,,,,,,,,601735932654fb9881a745d8,6068416b57578caa1da7c1be,2021-04-03_23h22.32.454,Colour_Similarity_Experiment,2020.2.10,Win32,60,60674ec340277cd6a308bc9f,17.76834,16.73789387,16.6808413,16.70385128,16.8102642,16.73789387,,,,,,,,,,,,,,,,,,,,PF,weak,3,,,,,,,,4,1.498795,,,,,,,,,,,,,,,,,,,,,,,,,,,,8,weak,42,-72,1,0,0,response3disk,1,135,0,0,1,0,0,rectangle,0,0,1,0,0,3,6,0.00177,0,0,1,0,0,0,134,134,57,1,0,,,,,,,,,,,,,,,,,,,,,
,,,,,,,,,,,,,,,,,,,,,,,,,,,,,,,,,,,,,,,,,,601735932654fb9881a745d8,6068416b57578caa1da7c1be,2021-04-03_23h22.32.454,Colour_Similarity_Experiment,2020.2.10,Win32,60,60674ec340277cd6a308bc9f,17.76834,16.73789387,16.6808413,16.70385128,16.8102642,16.73789387,,,,,,,,,,,,,,,,,,,,PF,weak,3,,,,,,,,3,1.74236,,,,,,,,,,,,,,,,,,,,,,,,,,,,6,weak,-40,-68,1,0,0,response5disk,7,136,-6,-3,1,0,0,rectangle,-6,-3,1,0,0,3,5,0.001765,-6,-3,1,0,0,0,135,135,50,1,0,,,,,,,,,,,,,,,,,,,,,
,,,,,,,,,,,,,,,,,,,,,,,,,,,,,,,,,,,,,,,,,,601735932654fb9881a745d8,6068416b57578caa1da7c1be,2021-04-03_23h22.32.454,Colour_Similarity_Experiment,2020.2.10,Win32,60,60674ec340277cd6a308bc9f,17.76834,16.73789387,16.6808413,16.70385128,16.8102642,16.73789387,,,,,,,,,,,,,,,,,,,,PF,strong,3,,,,,,,,4,1.25288,,,,,,,,,,,,,,,,,,,,,,,,,,,,5,strong,46,-76,1,0,0,response3disk,8,137,12,-2,1,0,0,rectangle,12,-2,1,0,0,3,0,0.00507,12,-2,1,0,0,0,136,136,16,1,0,,,,,,,,,,,,,,,,,,,,,
,,,,,,,,,,,,,,,,,,,,,,,,,,,,,,,,,,,,,,,,,,601735932654fb9881a745d8,6068416b57578caa1da7c1be,2021-04-03_23h22.32.454,Colour_Similarity_Experiment,2020.2.10,Win32,60,60674ec340277cd6a308bc9f,17.76834,16.73789387,16.6808413,16.70385128,16.8102642,16.73789387,,,,,,,,,,,,,,,,,,,,PF,strong,3,,,,,,,,3,1.65072,,,,,,,,,,,,,,,,,,,,,,,,,,,,3,strong,-34,-90,1,0,0,response5disk,1,138,9,-1,1,0,0,rectangle,9,-1,1,0,0,3,0,0.00025,9,-1,1,0,0,0,137,137,125,1,0,,,,,,,,,,,,,,,,,,,,,
,,,,,,,,,,,,,,,,,,,,,,,,,,,,,,,,,,,,,,,,,,601735932654fb9881a745d8,6068416b57578caa1da7c1be,2021-04-03_23h22.32.454,Colour_Similarity_Experiment,2020.2.10,Win32,60,60674ec340277cd6a308bc9f,17.76834,16.73789387,16.6808413,16.70385128,16.8102642,16.73789387,,,,,,,,,,,,,,,,,,,,PF,weak,3,,,,,,,,3,1.42085,,,,,,,,,,,,,,,,,,,,,,,,,,,,1,weak,-48,-88,1,0,0,response5disk,9,139,-13,-13,1,0,0,rectangle,-13,-13,1,0,0,3,6,0.00431,-13,-13,1,0,0,0,138,138,15,1,0,,,,,,,,,,,,,,,,,,,,,
,,,,,,,,,,,,,,,,,,,,,,,,,,,,,,,,,,,,,,,,,,601735932654fb9881a745d8,6068416b57578caa1da7c1be,2021-04-03_23h22.32.454,Colour_Similarity_Experiment,2020.2.10,Win32,60,60674ec340277cd6a308bc9f,17.76834,16.73789387,16.6808413,16.70385128,16.8102642,16.73789387,,,,,,,,,,,,,,,,,,,,PF,strong,3,,,,,,,,1,1.43053,,,,,,,,,,,,,,,,,,,,,,,,,,,,5,strong,-75,40,1,0,0,response7disk,4,140,7,3,1,0,0,rectangle,7,3,1,0,0,3,6,0.00018,7,3,1,0,0,0,139,139,8,1,0,,,,,,,,,,,,,,,,,,,,,
,,,,,,,,,,,,,,,,,,,,,,,,,,,,,,,,,,,,,,,,,,601735932654fb9881a745d8,6068416b57578caa1da7c1be,2021-04-03_23h22.32.454,Colour_Similarity_Experiment,2020.2.10,Win32,60,60674ec340277cd6a308bc9f,17.76834,16.73789387,16.6808413,16.70385128,16.8102642,16.73789387,,,,,,,,,,,,,,,,,,,,PF,strong,3,,,,,,,,2,1.488495,,,,,,,,,,,,,,,,,,,,,,,,,,,,5,strong,-64,-34,1,0,0,response5disk,6,141,3,2,1,0,0,rectangle,3,2,1,0,0,3,5,0.00349,3,2,1,0,0,0,140,140,12,1,0,,,,,,,,,,,,,,,,,,,,,
,,,,,,,,,,,,,,,,,,,,,,,,,,,,,,,,,,,,,,,,,,601735932654fb9881a745d8,6068416b57578caa1da7c1be,2021-04-03_23h22.32.454,Colour_Similarity_Experiment,2020.2.10,Win32,60,60674ec340277cd6a308bc9f,17.76834,16.73789387,16.6808413,16.70385128,16.8102642,16.73789387,,,,,,,,,,,,,,,,,,,,PF,strong,3,,,,,,,,0,1.737395,,,,,,,,,,,,,,,,,,,,,,,,,,,,9,strong,-45,106,1,0,0,response7disk,9,142,7,-3,1,0,0,rectangle,7,-3,1,0,0,3,5,0.00046,7,-3,1,0,0,0,141,141,17,1,0,,,,,,,,,,,,,,,,,,,,,
,,,,,,,,,,,,,,,,,,,,,,,,,,,,,,,,,,,,,,,,,,601735932654fb9881a745d8,6068416b57578caa1da7c1be,2021-04-03_23h22.32.454,Colour_Similarity_Experiment,2020.2.10,Win32,60,60674ec340277cd6a308bc9f,17.76834,16.73789387,16.6808413,16.70385128,16.8102642,16.73789387,,,,,,,,,,,,,,,,,,,,PF,strong,3,,,,,,,,7,1.370485,,,,,,,,,,,,,,,,,,,,,,,,,,,,1,strong,47,84,1,0,0,response1disk,8,143,13,2,1,0,0,rectangle,13,2,1,0,0,3,3,0.002395,13,2,1,0,0,0,142,142,27,1,0,,,,,,,,,,,,,,,,,,,,,
,,,,,,,,,,,,,,,,,,,,,,,,,,,,,,,,,,,,,,,,,,601735932654fb9881a745d8,6068416b57578caa1da7c1be,2021-04-03_23h22.32.454,Colour_Similarity_Experiment,2020.2.10,Win32,60,60674ec340277cd6a308bc9f,17.76834,16.73789387,16.6808413,16.70385128,16.8102642,16.73789387,,,,,,,,,,,,,,,,,,,,PF,strong,3,,,,,,,,2,1.83958,,,,,,,,,,,,,,,,,,,,,,,,,,,,3,strong,-63,-47,1,0,0,response5disk,3,144,14,3,1,0,0,rectangle,14,3,1,0,0,3,6,0.002015,14,3,1,0,0,0,143,143,68,1,0,,,,,,,,,,,,,,,,,,,,,
,,,,,,,,,,,,,,,,,,,,,,,,,,,,,,,,,,,,,,,,,,601735932654fb9881a745d8,6068416b57578caa1da7c1be,2021-04-03_23h22.32.454,Colour_Similarity_Experiment,2020.2.10,Win32,60,60674ec340277cd6a308bc9f,17.76834,16.73789387,16.6808413,16.70385128,16.8102642,16.73789387,,,,,,,,,,,,,,,,,,,,PF,weak,3,,,,,,,,4,2.17298,,,,,,,,,,,,,,,,,,,,,,,,,,,,2,weak,34,-78,1,0,0,response3disk,5,145,5,3,1,0,0,rectangle,5,3,1,0,0,3,5,0.002055,5,3,1,0,0,0,144,144,147,1,0,,,,,,,,,,,,,,,,,,,,,
,,,,,,,,,,,,,,,,,,,,,,,,,,,,,,,,,,,,,,,,,,601735932654fb9881a745d8,6068416b57578caa1da7c1be,2021-04-03_23h22.32.454,Colour_Similarity_Experiment,2020.2.10,Win32,60,60674ec340277cd6a308bc9f,17.76834,16.73789387,16.6808413,16.70385128,16.8102642,16.73789387,,,,,,,,,,,,,,,,,,,,PF,weak,3,,,,,,,,3,1.32106,,,,,,,,,,,,,,,,,,,,,,,,,,,,5,weak,-36,-82,1,0,0,response5disk,7,146,2,0,1,0,0,rectangle,2,0,1,0,0,3,1,0.001615,2,0,1,0,0,0,145,145,146,1,0,,,,,,,,,,,,,,,,,,,,,
,,,,,,,,,,,,,,,,,,,,,,,,,,,,,,,,,,,,,,,,,,601735932654fb9881a745d8,6068416b57578caa1da7c1be,2021-04-03_23h22.32.454,Colour_Similarity_Experiment,2020.2.10,Win32,60,60674ec340277cd6a308bc9f,17.76834,16.73789387,16.6808413,16.70385128,16.8102642,16.73789387,,,,,,,,,,,,,,,,,,,,PF,weak,3,,,,,,,,2,1.71568,,,,,,,,,,,,,,,,,,,,,,,,,,,,7,weak,-96,-51,1,0,0,response5disk,6,147,-6,11,1,0,0,rectangle,-6,11,1,0,0,3,4,0.002195,-6,11,1,0,0,0,146,146,29,1,0,,,,,,,,,,,,,,,,,,,,,
,,,,,,,,,,,,,,,,,,,,,,,,,,,,,,,,,,,,,,,,,,601735932654fb9881a745d8,6068416b57578caa1da7c1be,2021-04-03_23h22.32.454,Colour_Similarity_Experiment,2020.2.10,Win32,60,60674ec340277cd6a308bc9f,17.76834,16.73789387,16.6808413,16.70385128,16.8102642,16.73789387,,,,,,,,,,,,,,,,,,,,PF,strong,3,,,,,,,,3,1.34929,,,,,,,,,,,,,,,,,,,,,,,,,,,,6,strong,-47,-82,1,0,0,response5disk,8,148,-4,-1,1,0,0,rectangle,-4,-1,1,0,0,3,6,0.00175,-4,-1,1,0,0,0,147,147,133,1,0,,,,,,,,,,,,,,,,,,,,,
,,,,,,,,,,,,,,,,,,,,,,,,,,,,,,,,,,,,,,,,,,601735932654fb9881a745d8,6068416b57578caa1da7c1be,2021-04-03_23h22.32.454,Colour_Similarity_Experiment,2020.2.10,Win32,60,60674ec340277cd6a308bc9f,17.76834,16.73789387,16.6808413,16.70385128,16.8102642,16.73789387,,,,,,,,,,,,,,,,,,,,PF,weak,3,,,,,,,,4,1.226095,,,,,,,,,,,,,,,,,,,,,,,,,,,,4,weak,44,-87,1,0,0,response3disk,9,149,7,2,1,0,0,rectangle,7,2,1,0,0,3,4,0.001855,7,2,1,0,0,0,148,148,75,1,0,,,,,,,,,,,,,,,,,,,,,
,,,,,,,,,,,,,,,,,,,,,,,,,,,,,,,,,,,,,,,,,,601735932654fb9881a745d8,6068416b57578caa1da7c1be,2021-04-03_23h22.32.454,Colour_Similarity_Experiment,2020.2.10,Win32,60,60674ec340277cd6a308bc9f,17.76834,16.73789387,16.6808413,16.70385128,16.8102642,16.73789387,,,,,,,,,,,,,,,,,,,,PF,strong,3,,,,,,,,6,1.873475,,,,,,,,,,,,,,,,,,,,,,,,,,,,7,strong,97,78,1,0,0,response1disk,2,150,14,5,1,0,0,rectangle,14,5,1,0,0,3,1,0.002435,14,5,1,0,0,0,149,149,138,1,0,,,,,,,,,,,,,,,,,,,,,
,,,,,,,,,,,,,,,,,,,,,,,,,,,,,,,,,,,,,,,,,,601735932654fb9881a745d8,6068416b57578caa1da7c1be,2021-04-03_23h22.32.454,Colour_Similarity_Experiment,2020.2.10,Win32,60,60674ec340277cd6a308bc9f,17.76834,16.73789387,16.6808413,16.70385128,16.8102642,16.73789387,,,,,,,,,,,,,,,,,,,,PF,strong,3,,,,,,,,0,1.511305,,,,,,,,,,,,,,,,,,,,,,,,,,,,4,strong,-53,103,1,0,0,response7disk,4,151,0,-2,1,0,0,rectangle,0,-2,1,0,0,3,3,0.002505,0,-2,1,0,0,0,150,150,84,1,0,,,,,,,,,,,,,,,,,,,,,
,,,,,,,,,,,,,,,,,,,,,,,,,,,,,,,,,,,,,,,,,,601735932654fb9881a745d8,6068416b57578caa1da7c1be,2021-04-03_23h22.32.454,Colour_Similarity_Experiment,2020.2.10,Win32,60,60674ec340277cd6a308bc9f,17.76834,16.73789387,16.6808413,16.70385128,16.8102642,16.73789387,,,,,,,,,,,,,,,,,,,,PF,strong,3,,,,,,,,3,1.76067,,,,,,,,,,,,,,,,,,,,,,,,,,,,6,strong,-35,-71,1,0,0,response5disk,4,152,12,1,1,0,0,rectangle,12,1,1,0,0,3,7,0.00257,12,1,1,0,0,0,151,151,56,1,0,,,,,,,,,,,,,,,,,,,,,
,,,,,,,,,,,,,,,,,,,,,,,,,,,,,,,,,,,,,,,,,,601735932654fb9881a745d8,6068416b57578caa1da7c1be,2021-04-03_23h22.32.454,Colour_Similarity_Experiment,2020.2.10,Win32,60,60674ec340277cd6a308bc9f,17.76834,16.73789387,16.6808413,16.70385128,16.8102642,16.73789387,,,,,,,,,,,,,,,,,,,,PF,strong,3,,,,,,,,2,1.49298,,,,,,,,,,,,,,,,,,,,,,,,,,,,1,strong,-83,-37,1,0,0,response5disk,2,153,5,3,1,0,0,rectangle,5,3,1,0,0,3,0,0.00207,5,3,1,0,0,0,152,152,2,1,0,,,,,,,,,,,,,,,,,,,,,
,,,,,,,,,,,,,,,,,,,,,,,,,,,,,,,,,,,,,,,,,,601735932654fb9881a745d8,6068416b57578caa1da7c1be,2021-04-03_23h22.32.454,Colour_Similarity_Experiment,2020.2.10,Win32,60,60674ec340277cd6a308bc9f,17.76834,16.73789387,16.6808413,16.70385128,16.8102642,16.73789387,,,,,,,,,,,,,,,,,,,,PF,strong,3,,,,,,,,1,1.71694,,,,,,,,,,,,,,,,,,,,,,,,,,,,6,strong,-90,36,1,0,0,response7disk,7,154,12,10,1,0,0,rectangle,12,10,1,0,0,3,6,0.0016,12,10,1,0,0,0,153,153,18,1,0,,,,,,,,,,,,,,,,,,,,,
,,,,,,,,,,,,,,,,,,,,,,,,,,,,,,,,,,,,,,,,,,601735932654fb9881a745d8,6068416b57578caa1da7c1be,2021-04-03_23h22.32.454,Colour_Similarity_Experiment,2020.2.10,Win32,60,60674ec340277cd6a308bc9f,17.76834,16.73789387,16.6808413,16.70385128,16.8102642,16.73789387,,,,,,,,,,,,,,,,,,,,PF,strong,3,,,,,,,,1,1.762165,,,,,,,,,,,,,,,,,,,,,,,,,,,,7,strong,-92,47,1,0,0,response7disk,5,155,-10,-4,1,0,0,rectangle,-10,-4,1,0,0,3,5,0.001775,-10,-4,1,0,0,0,154,154,156,1,0,,,,,,,,,,,,,,,,,,,,,
,,,,,,,,,,,,,,,,,,,,,,,,,,,,,,,,,,,,,,,,,,601735932654fb9881a745d8,6068416b57578caa1da7c1be,2021-04-03_23h22.32.454,Colour_Similarity_Experiment,2020.2.10,Win32,60,60674ec340277cd6a308bc9f,17.76834,16.73789387,16.6808413,16.70385128,16.8102642,16.73789387,,,,,,,,,,,,,,,,,,,,PF,weak,3,,,,,,,,2,2.12037,,,,,,,,,,,,,,,,,,,,,,,,,,,,8,weak,-64,-38,1,0,0,response5disk,9,156,-6,-9,1,0,0,rectangle,-6,-9,1,0,0,3,6,0.001965,-6,-9,1,0,0,0,155,155,42,1,0,,,,,,,,,,,,,,,,,,,,,
,,,,,,,,,,,,,,,,,,,,,,,,,,,,,,,,,,,,,,,,,,601735932654fb9881a745d8,6068416b57578caa1da7c1be,2021-04-03_23h22.32.454,Colour_Similarity_Experiment,2020.2.10,Win32,60,60674ec340277cd6a308bc9f,17.76834,16.73789387,16.6808413,16.70385128,16.8102642,16.73789387,,,,,,,,,,,,,,,,,,,,PF,weak,3,,,,,,,,2,2.62531,,,,,,,,,,,,,,,,,,,,,,,,,,,,2,weak,-97,-35,1,0,0,response5disk,1,157,-11,9,1,0,0,rectangle,-11,9,1,0,0,3,5,0.002385,-11,9,1,0,0,0,156,156,9,1,0,,,,,,,,,,,,,,,,,,,,,
,,,,,,,,,,,,,,,,,,,,,,,,,,,,,,,,,,,,,,,,,,601735932654fb9881a745d8,6068416b57578caa1da7c1be,2021-04-03_23h22.32.454,Colour_Similarity_Experiment,2020.2.10,Win32,60,60674ec340277cd6a308bc9f,17.76834,16.73789387,16.6808413,16.70385128,16.8102642,16.73789387,,,,,,,,,,,,,,,,,,,,PF,strong,3,,,,,,,,3,1.850985,,,,,,,,,,,,,,,,,,,,,,,,,,,,4,strong,-21,-63,1,0,0,response5disk,2,158,-8,-2,1,0,0,rectangle,-8,-2,1,0,0,3,5,0.00019,-8,-2,1,0,0,0,157,157,13,1,0,,,,,,,,,,,,,,,,,,,,,
,,,,,,,,,,,,,,,,,,,,,,,,,,,,,,,,,,,,,,,,,,601735932654fb9881a745d8,6068416b57578caa1da7c1be,2021-04-03_23h22.32.454,Colour_Similarity_Experiment,2020.2.10,Win32,60,60674ec340277cd6a308bc9f,17.76834,16.73789387,16.6808413,16.70385128,16.8102642,16.73789387,,,,,,,,,,,,,,,,,,,,PF,weak,3,,,,,,,,3,1.614475,,,,,,,,,,,,,,,,,,,,,,,,,,,,2,weak,-55,-88,1,0,0,response5disk,3,159,8,-5,1,0,0,rectangle,8,-5,1,0,0,3,4,0.00172,8,-5,1,0,0,0,158,158,69,1,0,,,,,,,,,,,,,,,,,,,,,
,,,,,,,,,,,,,,,,,,,,,,,,,,,,,,,,,,,,,,,,,,601735932654fb9881a745d8,6068416b57578caa1da7c1be,2021-04-03_23h22.32.454,Colour_Similarity_Experiment,2020.2.10,Win32,60,60674ec340277cd6a308bc9f,17.76834,16.73789387,16.6808413,16.70385128,16.8102642,16.73789387,,,,,,,,,,,,,,,,,,,,PF,weak,3,,,,,,,,4,1.18054,,,,,,,,,,,,,,,,,,,,,,,,,,,,6,weak,33,-95,1,0,0,response3disk,4,160,1,11,1,0,0,rectangle,1,11,1,0,0,3,2,0.002185,1,11,1,0,0,0,159,159,33,1,0,,,,,,,,,,,,,,,,,,,,,
,,,,,,,,,,,,,,,,,,,,,,,,,,,,,,,,,,,,,,,,,,601735932654fb9881a745d8,6068416b57578caa1da7c1be,2021-04-03_23h22.32.454,Colour_Similarity_Experiment,2020.2.10,Win32,60,60674ec340277cd6a308bc9f,17.76834,16.73789387,16.6808413,16.70385128,16.8102642,16.73789387,,,,,,,,,,,,,,,,,,,,PF,weak,3,,,,,,,,1,1.53213,,,,,,,,,,,,,,,,,,,,,,,,,,,,6,weak,-72,38,1,0,0,response7disk,6,161,-22,6,1,0,0,rectangle,-22,6,1,0,0,3,5,0.00168,-22,6,1,0,0,0,160,160,0,1,0,,,,,,,,,,,,,,,,,,,,,
,,,,,,,,,,,,,,,,,,,,,,,,,,,,,,,,,,,,,,,,,,601735932654fb9881a745d8,6068416b57578caa1da7c1be,2021-04-03_23h22.32.454,Colour_Similarity_Experiment,2020.2.10,Win32,60,60674ec340277cd6a308bc9f,17.76834,16.73789387,16.6808413,16.70385128,16.8102642,16.73789387,,,,,,,,,,,,,,,,,,,,PF,weak,3,,,,,,,,3,1.601065,,,,,,,,,,,,,,,,,,,,,,,,,,,,6,weak,-47,-67,1,0,0,response5disk,3,162,-22,-3,1,0,0,rectangle,-22,-3,1,0,0,3,2,0.00225,-22,-3,1,0,0,0,161,161,26,1,0,,,,,,,,,,,,,,,,,,,,,
,,,,,,,,,,,,,,,,,,,,,,,,,,,,,,,,,,,,,,,,,,601735932654fb9881a745d8,6068416b57578caa1da7c1be,2021-04-03_23h22.32.454,Colour_Similarity_Experiment,2020.2.10,Win32,60,60674ec340277cd6a308bc9f,17.76834,16.73789387,16.6808413,16.70385128,16.8102642,16.73789387,,,,,,,,,,,,,,,,,,,,,,,,,,,,,,,,,,,,,,,,,,,,,,,,,,,,,,,,,,,,,,,,,,,,,,,,,,,,,,,,,,,,,,,,,,,,,,,,0,0,0,0,1,,,,,,,,,,,,,,
,,,,,,,,,,,,,,,,,,,,,,,,,,,,,,,,,,,,,,,,,,601735932654fb9881a745d8,6068416b57578caa1da7c1be,2021-04-03_23h22.32.454,Colour_Similarity_Experiment,2020.2.10,Win32,60,60674ec340277cd6a308bc9f,17.76834,16.73789387,16.6808413,16.70385128,16.8102642,16.73789387,,,,,,,,,,,,,,,,,,,,PF,weak,3,,,,,,,,6,1.097395,,,,,,,,,,,,,,,,,,,,,,,,,,,,8,weak,76,57,1,0,0,response1disk,2,163,16,2,1,0,0,rectangle,16,2,1,0,0,3,5,0.001935,16,2,1,0,0,0,0,0,83,1,0,,,,,,,,,,,,,,,,,,,,,
,,,,,,,,,,,,,,,,,,,,,,,,,,,,,,,,,,,,,,,,,,601735932654fb9881a745d8,6068416b57578caa1da7c1be,2021-04-03_23h22.32.454,Colour_Similarity_Experiment,2020.2.10,Win32,60,60674ec340277cd6a308bc9f,17.76834,16.73789387,16.6808413,16.70385128,16.8102642,16.73789387,,,,,,,,,,,,,,,,,,,,PF,weak,3,,,,,,,,2,1.542035,,,,,,,,,,,,,,,,,,,,,,,,,,,,1,weak,-87,-36,1,0,0,response5disk,2,164,-1,-2,1,0,0,rectangle,-1,-2,1,0,0,3,5,0.000225,-1,-2,1,0,0,0,1,1,24,1,0,,,,,,,,,,,,,,,,,,,,,
,,,,,,,,,,,,,,,,,,,,,,,,,,,,,,,,,,,,,,,,,,601735932654fb9881a745d8,6068416b57578caa1da7c1be,2021-04-03_23h22.32.454,Colour_Similarity_Experiment,2020.2.10,Win32,60,60674ec340277cd6a308bc9f,17.76834,16.73789387,16.6808413,16.70385128,16.8102642,16.73789387,,,,,,,,,,,,,,,,,,,,PF,weak,3,,,,,,,,6,1.55688,,,,,,,,,,,,,,,,,,,,,,,,,,,,1,weak,99,58,1,0,0,response1disk,8,165,15,9,1,0,0,rectangle,15,9,1,0,0,3,1,0.00216,15,9,1,0,0,0,2,2,65,1,0,,,,,,,,,,,,,,,,,,,,,
,,,,,,,,,,,,,,,,,,,,,,,,,,,,,,,,,,,,,,,,,,601735932654fb9881a745d8,6068416b57578caa1da7c1be,2021-04-03_23h22.32.454,Colour_Similarity_Experiment,2020.2.10,Win32,60,60674ec340277cd6a308bc9f,17.76834,16.73789387,16.6808413,16.70385128,16.8102642,16.73789387,,,,,,,,,,,,,,,,,,,,PF,strong,3,,,,,,,,7,2.057035,,,,,,,,,,,,,,,,,,,,,,,,,,,,9,strong,45,102,1,0,0,response1disk,6,166,8,4,1,0,0,rectangle,8,4,1,0,0,3,7,0.0033,8,4,1,0,0,0,3,3,117,1,0,,,,,,,,,,,,,,,,,,,,,
,,,,,,,,,,,,,,,,,,,,,,,,,,,,,,,,,,,,,,,,,,601735932654fb9881a745d8,6068416b57578caa1da7c1be,2021-04-03_23h22.32.454,Colour_Similarity_Experiment,2020.2.10,Win32,60,60674ec340277cd6a308bc9f,17.76834,16.73789387,16.6808413,16.70385128,16.8102642,16.73789387,,,,,,,,,,,,,,,,,,,,PF,weak,3,,,,,,,,1,1.34339,,,,,,,,,,,,,,,,,,,,,,,,,,,,1,weak,-96,48,1,0,0,response7disk,1,167,0,9,1,0,0,rectangle,86,-44,1,0,0,5,5,1.83514,12,-3,1,0,0,0,4,4,76,1,1,response3disk_3,rectangle,,,,,,,,,,,,,,,,,,,
,,,,,,,,,,,,,,,,,,,,,,,,,,,,,,,,,,,,,,,,,,601735932654fb9881a745d8,6068416b57578caa1da7c1be,2021-04-03_23h22.32.454,Colour_Similarity_Experiment,2020.2.10,Win32,60,60674ec340277cd6a308bc9f,17.76834,16.73789387,16.6808413,16.70385128,16.8102642,16.73789387,,,,,,,,,,,,,,,,,,,,PF,strong,3,,,,,,,,3,1.27728,,,,,,,,,,,,,,,,,,,,,,,,,,,,7,strong,-35,-71,1,0,0,response5disk,8,168,11,1,1,0,0,rectangle,-41,92,1,0,0,0,0,2.6377,13,8,1,0,0,0,5,5,97,1,1,response7disk_3,rectangle,,,,,,,,,,,,,,,,,,,
,,,,,,,,,,,,,,,,,,,,,,,,,,,,,,,,,,,,,,,,,,601735932654fb9881a745d8,6068416b57578caa1da7c1be,2021-04-03_23h22.32.454,Colour_Similarity_Experiment,2020.2.10,Win32,60,60674ec340277cd6a308bc9f,17.76834,16.73789387,16.6808413,16.70385128,16.8102642,16.73789387,,,,,,,,,,,,,,,,,,,,PF,strong,3,,,,,,,,5,1.792055,,,,,,,,,,,,,,,,,,,,,,,,,,,,3,strong,87,-44,1,0,0,response3disk,7,169,6,3,1,0,0,rectangle,6,3,1,0,0,0,1,0.002215,6,3,1,0,0,0,6,6,118,1,0,,,,,,,,,,,,,,,,,,,,,
,,,,,,,,,,,,,,,,,,,,,,,,,,,,,,,,,,,,,,,,,,601735932654fb9881a745d8,6068416b57578caa1da7c1be,2021-04-03_23h22.32.454,Colour_Similarity_Experiment,2020.2.10,Win32,60,60674ec340277cd6a308bc9f,17.76834,16.73789387,16.6808413,16.70385128,16.8102642,16.73789387,,,,,,,,,,,,,,,,,,,,PF,strong,3,,,,,,,,1,1.444855,,,,,,,,,,,,,,,,,,,,,,,,,,,,6,strong,-82,29,1,0,0,response7disk,6,170,-5,5,1,0,0,rectangle,-5,5,1,0,0,0,2,0.001615,-5,5,1,0,0,0,7,7,91,1,0,,,,,,,,,,,,,,,,,,,,,
,,,,,,,,,,,,,,,,,,,,,,,,,,,,,,,,,,,,,,,,,,601735932654fb9881a745d8,6068416b57578caa1da7c1be,2021-04-03_23h22.32.454,Colour_Similarity_Experiment,2020.2.10,Win32,60,60674ec340277cd6a308bc9f,17.76834,16.73789387,16.6808413,16.70385128,16.8102642,16.73789387,,,,,,,,,,,,,,,,,,,,PF,strong,3,,,,,,,,7,1.9448,,,,,,,,,,,,,,,,,,,,,,,,,,,,1,strong,56,90,1,0,0,response1disk,3,171,14,2,1,0,0,rectangle,14,2,1,0,0,0,0,0.00161,14,2,1,0,0,0,8,8,99,1,0,,,,,,,,,,,,,,,,,,,,,
,,,,,,,,,,,,,,,,,,,,,,,,,,,,,,,,,,,,,,,,,,601735932654fb9881a745d8,6068416b57578caa1da7c1be,2021-04-03_23h22.32.454,Colour_Similarity_Experiment,2020.2.10,Win32,60,60674ec340277cd6a308bc9f,17.76834,16.73789387,16.6808413,16.70385128,16.8102642,16.73789387,,,,,,,,,,,,,,,,,,,,PF,weak,3,,,,,,,,4,2.06185,,,,,,,,,,,,,,,,,,,,,,,,,,,,2,weak,25,-86,1,0,0,response3disk,9,172,3,1,1,0,0,rectangle,3,1,1,0,0,0,1,0.002235,3,1,1,0,0,0,9,9,39,1,0,,,,,,,,,,,,,,,,,,,,,
,,,,,,,,,,,,,,,,,,,,,,,,,,,,,,,,,,,,,,,,,,601735932654fb9881a745d8,6068416b57578caa1da7c1be,2021-04-03_23h22.32.454,Colour_Similarity_Experiment,2020.2.10,Win32,60,60674ec340277cd6a308bc9f,17.76834,16.73789387,16.6808413,16.70385128,16.8102642,16.73789387,,,,,,,,,,,,,,,,,,,,PF,strong,3,,,,,,,,2,1.670235,,,,,,,,,,,,,,,,,,,,,,,,,,,,3,strong,-103,-38,1,0,0,response5disk,2,173,-15,-5,1,0,0,rectangle,-15,-5,1,0,0,0,0,0.00267,-15,-5,1,0,0,0,10,10,93,1,0,,,,,,,,,,,,,,,,,,,,,
,,,,,,,,,,,,,,,,,,,,,,,,,,,,,,,,,,,,,,,,,,601735932654fb9881a745d8,6068416b57578caa1da7c1be,2021-04-03_23h22.32.454,Colour_Similarity_Experiment,2020.2.10,Win32,60,60674ec340277cd6a308bc9f,17.76834,16.73789387,16.6808413,16.70385128,16.8102642,16.73789387,,,,,,,,,,,,,,,,,,,,PF,strong,3,,,,,,,,6,1.54472,,,,,,,,,,,,,,,,,,,,,,,,,,,,1,strong,96,60,1,0,0,response1disk,6,174,29,3,1,0,0,rectangle,29,3,1,0,0,0,1,0.00211,29,3,1,0,0,0,11,11,58,1,0,,,,,,,,,,,,,,,,,,,,,
,,,,,,,,,,,,,,,,,,,,,,,,,,,,,,,,,,,,,,,,,,601735932654fb9881a745d8,6068416b57578caa1da7c1be,2021-04-03_23h22.32.454,Colour_Similarity_Experiment,2020.2.10,Win32,60,60674ec340277cd6a308bc9f,17.76834,16.73789387,16.6808413,16.70385128,16.8102642,16.73789387,,,,,,,,,,,,,,,,,,,,PF,weak,3,,,,,,,,4,1.651365,,,,,,,,,,,,,,,,,,,,,,,,,,,,7,weak,36,-82,1,0,0,response3disk,9,175,-6,-4,1,0,0,rectangle,-6,-4,1,0,0,0,0,0.002295,-6,-4,1,0,0,0,12,12,10,1,0,,,,,,,,,,,,,,,,,,,,,
,,,,,,,,,,,,,,,,,,,,,,,,,,,,,,,,,,,,,,,,,,601735932654fb9881a745d8,6068416b57578caa1da7c1be,2021-04-03_23h22.32.454,Colour_Similarity_Experiment,2020.2.10,Win32,60,60674ec340277cd6a308bc9f,17.76834,16.73789387,16.6808413,16.70385128,16.8102642,16.73789387,,,,,,,,,,,,,,,,,,,,PF,strong,3,,,,,,,,3,2.147105,,,,,,,,,,,,,,,,,,,,,,,,,,,,8,strong,-36,-71,1,0,0,response5disk,7,176,-7,-9,1,0,0,rectangle,-7,-9,1,0,0,0,4,0.001665,-7,-9,1,0,0,0,13,13,86,1,0,,,,,,,,,,,,,,,,,,,,,
,,,,,,,,,,,,,,,,,,,,,,,,,,,,,,,,,,,,,,,,,,601735932654fb9881a745d8,6068416b57578caa1da7c1be,2021-04-03_23h22.32.454,Colour_Similarity_Experiment,2020.2.10,Win32,60,60674ec340277cd6a308bc9f,17.76834,16.73789387,16.6808413,16.70385128,16.8102642,16.73789387,,,,,,,,,,,,,,,,,,,,PF,weak,3,,,,,,,,0,1.350685,,,,,,,,,,,,,,,,,,,,,,,,,,,,9,weak,-44,74,1,0,0,response7disk,9,177,-3,5,1,0,0,rectangle,-3,5,1,0,0,0,6,0.001695,-3,5,1,0,0,0,14,14,106,1,0,,,,,,,,,,,,,,,,,,,,,
,,,,,,,,,,,,,,,,,,,,,,,,,,,,,,,,,,,,,,,,,,601735932654fb9881a745d8,6068416b57578caa1da7c1be,2021-04-03_23h22.32.454,Colour_Similarity_Experiment,2020.2.10,Win32,60,60674ec340277cd6a308bc9f,17.76834,16.73789387,16.6808413,16.70385128,16.8102642,16.73789387,,,,,,,,,,,,,,,,,,,,PF,weak,3,,,,,,,,5,1.66747,,,,,,,,,,,,,,,,,,,,,,,,,,,,9,weak,90,-48,1,0,0,response3disk,3,178,13,8,1,0,0,rectangle,13,8,1,0,0,0,7,0.002535,13,8,1,0,0,0,15,15,119,1,0,,,,,,,,,,,,,,,,,,,,,
,,,,,,,,,,,,,,,,,,,,,,,,,,,,,,,,,,,,,,,,,,601735932654fb9881a745d8,6068416b57578caa1da7c1be,2021-04-03_23h22.32.454,Colour_Similarity_Experiment,2020.2.10,Win32,60,60674ec340277cd6a308bc9f,17.76834,16.73789387,16.6808413,16.70385128,16.8102642,16.73789387,,,,,,,,,,,,,,,,,,,,PF,weak,3,,,,,,,,6,1.33052,,,,,,,,,,,,,,,,,,,,,,,,,,,,2,weak,105,50,1,0,0,response1disk,6,179,16,4,1,0,0,rectangle,16,4,1,0,0,0,6,0.00255,16,4,1,0,0,0,16,16,113,1,0,,,,,,,,,,,,,,,,,,,,,
,,,,,,,,,,,,,,,,,,,,,,,,,,,,,,,,,,,,,,,,,,601735932654fb9881a745d8,6068416b57578caa1da7c1be,2021-04-03_23h22.32.454,Colour_Similarity_Experiment,2020.2.10,Win32,60,60674ec340277cd6a308bc9f,17.76834,16.73789387,16.6808413,16.70385128,16.8102642,16.73789387,,,,,,,,,,,,,,,,,,,,PF,weak,3,,,,,,,,7,1.200045,,,,,,,,,,,,,,,,,,,,,,,,,,,,4,weak,35,81,1,0,0,response1disk,1,180,14,4,1,0,0,rectangle,14,4,1,0,0,0,4,0.002715,14,4,1,0,0,0,17,17,115,1,0,,,,,,,,,,,,,,,,,,,,,
,,,,,,,,,,,,,,,,,,,,,,,,,,,,,,,,,,,,,,,,,,601735932654fb9881a745d8,6068416b57578caa1da7c1be,2021-04-03_23h22.32.454,Colour_Similarity_Experiment,2020.2.10,Win32,60,60674ec340277cd6a308bc9f,17.76834,16.73789387,16.6808413,16.70385128,16.8102642,16.73789387,,,,,,,,,,,,,,,,,,,,PF,strong,3,,,,,,,,4,1.57502,,,,,,,,,,,,,,,,,,,,,,,,,,,,8,strong,58,-83,1,0,0,response3disk,5,181,-2,8,1,0,0,rectangle,-2,8,1,0,0,0,3,0.001825,-2,8,1,0,0,0,18,18,152,1,0,,,,,,,,,,,,,,,,,,,,,
,,,,,,,,,,,,,,,,,,,,,,,,,,,,,,,,,,,,,,,,,,601735932654fb9881a745d8,6068416b57578caa1da7c1be,2021-04-03_23h22.32.454,Colour_Similarity_Experiment,2020.2.10,Win32,60,60674ec340277cd6a308bc9f,17.76834,16.73789387,16.6808413,16.70385128,16.8102642,16.73789387,,,,,,,,,,,,,,,,,,,,PF,strong,3,,,,,,,,6,1.97974,,,,,,,,,,,,,,,,,,,,,,,,,,,,1,strong,119,43,1,0,0,response1disk,5,182,-9,-6,1,0,0,rectangle,-9,-6,1,0,0,0,6,0.002,-9,-6,1,0,0,0,19,19,82,1,0,,,,,,,,,,,,,,,,,,,,,
,,,,,,,,,,,,,,,,,,,,,,,,,,,,,,,,,,,,,,,,,,601735932654fb9881a745d8,6068416b57578caa1da7c1be,2021-04-03_23h22.32.454,Colour_Similarity_Experiment,2020.2.10,Win32,60,60674ec340277cd6a308bc9f,17.76834,16.73789387,16.6808413,16.70385128,16.8102642,16.73789387,,,,,,,,,,,,,,,,,,,,PF,weak,3,,,,,,,,3,1.401495,,,,,,,,,,,,,,,,,,,,,,,,,,,,3,weak,-32,-75,1,0,0,response5disk,7,183,0,-5,1,0,0,rectangle,0,-5,1,0,0,0,5,0.00246,0,-5,1,0,0,0,20,20,41,1,0,,,,,,,,,,,,,,,,,,,,,
,,,,,,,,,,,,,,,,,,,,,,,,,,,,,,,,,,,,,,,,,,601735932654fb9881a745d8,6068416b57578caa1da7c1be,2021-04-03_23h22.32.454,Colour_Similarity_Experiment,2020.2.10,Win32,60,60674ec340277cd6a308bc9f,17.76834,16.73789387,16.6808413,16.70385128,16.8102642,16.73789387,,,,,,,,,,,,,,,,,,,,PF,strong,3,,,,,,,,6,1.644725,,,,,,,,,,,,,,,,,,,,,,,,,,,,9,strong,87,46,1,0,0,response1disk,7,184,14,2,1,0,0,rectangle,14,2,1,0,0,0,1,0.001645,14,2,1,0,0,0,21,21,100,1,0,,,,,,,,,,,,,,,,,,,,,
,,,,,,,,,,,,,,,,,,,,,,,,,,,,,,,,,,,,,,,,,,601735932654fb9881a745d8,6068416b57578caa1da7c1be,2021-04-03_23h22.32.454,Colour_Similarity_Experiment,2020.2.10,Win32,60,60674ec340277cd6a308bc9f,17.76834,16.73789387,16.6808413,16.70385128,16.8102642,16.73789387,,,,,,,,,,,,,,,,,,,,PF,weak,3,,,,,,,,2,1.89492,,,,,,,,,,,,,,,,,,,,,,,,,,,,3,weak,-91,-55,1,0,0,response5disk,5,185,10,3,1,0,0,rectangle,10,3,1,0,0,0,5,0.002065,10,3,1,0,0,0,22,22,66,1,0,,,,,,,,,,,,,,,,,,,,,
,,,,,,,,,,,,,,,,,,,,,,,,,,,,,,,,,,,,,,,,,,601735932654fb9881a745d8,6068416b57578caa1da7c1be,2021-04-03_23h22.32.454,Colour_Similarity_Experiment,2020.2.10,Win32,60,60674ec340277cd6a308bc9f,17.76834,16.73789387,16.6808413,16.70385128,16.8102642,16.73789387,,,,,,,,,,,,,,,,,,,,PF,weak,3,,,,,,,,6,1.46448,,,,,,,,,,,,,,,,,,,,,,,,,,,,5,weak,99,72,1,0,0,response1disk,9,186,7,9,1,0,0,rectangle,-48,-92,1,0,0,3,3,2.303455,11,12,1,0,0,0,23,23,136,1,1,response5disk_3,rectangle,,,,,,,,,,,,,,,,,,,
,,,,,,,,,,,,,,,,,,,,,,,,,,,,,,,,,,,,,,,,,,601735932654fb9881a745d8,6068416b57578caa1da7c1be,2021-04-03_23h22.32.454,Colour_Similarity_Experiment,2020.2.10,Win32,60,60674ec340277cd6a308bc9f,17.76834,16.73789387,16.6808413,16.70385128,16.8102642,16.73789387,,,,,,,,,,,,,,,,,,,,PF,strong,3,,,,,,,,7,2.17899,,,,,,,,,,,,,,,,,,,,,,,,,,,,8,strong,63,101,1,0,0,response1disk,4,187,19,2,1,0,0,rectangle,19,2,1,0,0,3,5,0.002725,19,2,1,0,0,0,24,24,88,1,0,,,,,,,,,,,,,,,,,,,,,
,,,,,,,,,,,,,,,,,,,,,,,,,,,,,,,,,,,,,,,,,,601735932654fb9881a745d8,6068416b57578caa1da7c1be,2021-04-03_23h22.32.454,Colour_Similarity_Experiment,2020.2.10,Win32,60,60674ec340277cd6a308bc9f,17.76834,16.73789387,16.6808413,16.70385128,16.8102642,16.73789387,,,,,,,,,,,,,,,,,,,,PF,strong,3,,,,,,,,3,1.46148,,,,,,,,,,,,,,,,,,,,,,,,,,,,9,strong,-46,-67,1,0,0,response5disk,1,188,2,0,1,0,0,rectangle,2,0,1,0,0,3,2,0.00224,2,0,1,0,0,0,25,25,111,1,0,,,,,,,,,,,,,,,,,,,,,
,,,,,,,,,,,,,,,,,,,,,,,,,,,,,,,,,,,,,,,,,,601735932654fb9881a745d8,6068416b57578caa1da7c1be,2021-04-03_23h22.32.454,Colour_Similarity_Experiment,2020.2.10,Win32,60,60674ec340277cd6a308bc9f,17.76834,16.73789387,16.6808413,16.70385128,16.8102642,16.73789387,,,,,,,,,,,,,,,,,,,,PF,weak,3,,,,,,,,4,3.92876,,,,,,,,,,,,,,,,,,,,,,,,,,,,7,weak,56,-74,1,0,0,response3disk,4,189,2,3,1,0,0,rectangle,2,3,1,0,0,3,2,0.00022,2,3,1,0,0,0,26,26,43,1,0,,,,,,,,,,,,,,,,,,,,,
,,,,,,,,,,,,,,,,,,,,,,,,,,,,,,,,,,,,,,,,,,601735932654fb9881a745d8,6068416b57578caa1da7c1be,2021-04-03_23h22.32.454,Colour_Similarity_Experiment,2020.2.10,Win32,60,60674ec340277cd6a308bc9f,17.76834,16.73789387,16.6808413,16.70385128,16.8102642,16.73789387,,,,,,,,,,,,,,,,,,,,PF,strong,3,,,,,,,,7,3.18058,,,,,,,,,,,,,,,,,,,,,,,,,,,,7,strong,36,81,1,0,0,response1disk,1,190,-3,2,1,0,0,rectangle,-3,2,1,0,0,3,5,0.00162,-3,2,1,0,0,0,27,27,132,1,0,,,,,,,,,,,,,,,,,,,,,
,,,,,,,,,,,,,,,,,,,,,,,,,,,,,,,,,,,,,,,,,,601735932654fb9881a745d8,6068416b57578caa1da7c1be,2021-04-03_23h22.32.454,Colour_Similarity_Experiment,2020.2.10,Win32,60,60674ec340277cd6a308bc9f,17.76834,16.73789387,16.6808413,16.70385128,16.8102642,16.73789387,,,,,,,,,,,,,,,,,,,,PF,strong,3,,,,,,,,1,1.34454,,,,,,,,,,,,,,,,,,,,,,,,,,,,8,strong,-86,42,1,0,0,response7disk,8,191,-5,4,1,0,0,rectangle,-5,4,1,0,0,3,6,0.006725,-5,4,1,0,0,0,28,28,48,1,0,,,,,,,,,,,,,,,,,,,,,
,,,,,,,,,,,,,,,,,,,,,,,,,,,,,,,,,,,,,,,,,,601735932654fb9881a745d8,6068416b57578caa1da7c1be,2021-04-03_23h22.32.454,Colour_Similarity_Experiment,2020.2.10,Win32,60,60674ec340277cd6a308bc9f,17.76834,16.73789387,16.6808413,16.70385128,16.8102642,16.73789387,,,,,,,,,,,,,,,,,,,,PF,strong,3,,,,,,,,3,2.59154,,,,,,,,,,,,,,,,,,,,,,,,,,,,2,strong,-30,-82,1,0,0,response5disk,9,192,6,14,1,0,0,rectangle,6,14,1,0,0,3,7,0.002255,6,14,1,0,0,0,29,29,72,1,0,,,,,,,,,,,,,,,,,,,,,
,,,,,,,,,,,,,,,,,,,,,,,,,,,,,,,,,,,,,,,,,,601735932654fb9881a745d8,6068416b57578caa1da7c1be,2021-04-03_23h22.32.454,Colour_Similarity_Experiment,2020.2.10,Win32,60,60674ec340277cd6a308bc9f,17.76834,16.73789387,16.6808413,16.70385128,16.8102642,16.73789387,,,,,,,,,,,,,,,,,,,,PF,weak,3,,,,,,,,2,1.82864,,,,,,,,,,,,,,,,,,,,,,,,,,,,6,weak,-82,-56,1,0,0,response5disk,5,193,-3,10,1,0,0,rectangle,-3,10,1,0,0,3,6,0.002325,-3,10,1,0,0,0,30,30,59,1,0,,,,,,,,,,,,,,,,,,,,,
,,,,,,,,,,,,,,,,,,,,,,,,,,,,,,,,,,,,,,,,,,601735932654fb9881a745d8,6068416b57578caa1da7c1be,2021-04-03_23h22.32.454,Colour_Similarity_Experiment,2020.2.10,Win32,60,60674ec340277cd6a308bc9f,17.76834,16.73789387,16.6808413,16.70385128,16.8102642,16.73789387,,,,,,,,,,,,,,,,,,,,PF,strong,3,,,,,,,,6,1.396415,,,,,,,,,,,,,,,,,,,,,,,,,,,,9,strong,80,33,1,0,0,response1disk,4,194,9,9,1,0,0,rectangle,9,9,1,0,0,3,2,0.00196,9,9,1,0,0,0,31,31,60,1,0,,,,,,,,,,,,,,,,,,,,,
,,,,,,,,,,,,,,,,,,,,,,,,,,,,,,,,,,,,,,,,,,601735932654fb9881a745d8,6068416b57578caa1da7c1be,2021-04-03_23h22.32.454,Colour_Similarity_Experiment,2020.2.10,Win32,60,60674ec340277cd6a308bc9f,17.76834,16.73789387,16.6808413,16.70385128,16.8102642,16.73789387,,,,,,,,,,,,,,,,,,,,PF,weak,3,,,,,,,,5,1.40994,,,,,,,,,,,,,,,,,,,,,,,,,,,,8,weak,83,-29,1,0,0,response3disk,4,195,8,3,1,0,0,rectangle,8,3,1,0,0,3,1,0.001565,8,3,1,0,0,0,32,32,78,1,0,,,,,,,,,,,,,,,,,,,,,
,,,,,,,,,,,,,,,,,,,,,,,,,,,,,,,,,,,,,,,,,,601735932654fb9881a745d8,6068416b57578caa1da7c1be,2021-04-03_23h22.32.454,Colour_Similarity_Experiment,2020.2.10,Win32,60,60674ec340277cd6a308bc9f,17.76834,16.73789387,16.6808413,16.70385128,16.8102642,16.73789387,,,,,,,,,,,,,,,,,,,,PF,strong,3,,,,,,,,4,2.96462,,,,,,,,,,,,,,,,,,,,,,,,,,,,3,strong,49,-61,1,0,0,response3disk,6,196,1,4,1,0,0,rectangle,1,4,1,0,0,3,6,0.00199,1,4,1,0,0,0,33,33,95,1,0,,,,,,,,,,,,,,,,,,,,,
