key_resp.keys,key_resp.rt,key_resp_16.keys,key_resp_16.rt,key_resp_2.keys,key_resp_2.rt,X Scale,ratio_pxpermm,screen_size_x,screen_size_y,testsize,key_resp_3.keys,key_resp_4.keys,key_resp_4.rt,line_size,key_resp_5.keys,key_resp_5.rt,key_resp_6.keys,key_resp_6.rt,key_resp_8.keys,key_resp_8.rt,key_resp_7.keys,key_resp_7.rt,key_resp_12.keys,key_resp_12.rt,key_resp_11.keys,key_resp_11.rt,key_resp_18.keys,key_resp_18.rt,key_resp_21.keys,key_resp_21.rt,key_resp_13.keys,key_resp_13.rt,key_resp_19.keys,key_resp_19.rt,ballposx,viewer_distance,trials.thisRepN,trials.thisTrialN,trials.thisN,trials.thisIndex,trials.ran,participant,session,date,expName,psychopyVersion,OS,frameRate,study_id,realFrameRate1,realFrameRate2,realFrameRate3,realFrameRate4,realFrameRate5,realFrameRate,viewerdistancecm,DVA_to_distance,radius_F,radius_P,r_F,R_P,key_resp_20.keys,key_resp_20.rt,key_resp_14.keys,key_resp_14.rt,key_resp_15.keys,key_resp_15.rt,key_resp_17.keys,key_resp_17.rt,key_resp_9.keys,key_resp_9.rt,key_resp_10.keys,key_resp_10.rt,Colour_1,Ecc,maskCon,mask_frames,mouse_5.x,mouse_5.y,mouse_5.leftButton,mouse_5.midButton,mouse_5.rightButton,mouse_5.clicked_name,Colour_2,similarity,response_time,mouse_10.x,mouse_10.y,mouse_10.leftButton,mouse_10.midButton,mouse_10.rightButton,mouse_10.clicked_name,mouse_7.x,mouse_7.y,mouse_7.leftButton,mouse_7.midButton,mouse_7.rightButton,mouse_7.clicked_name,catchprac,catchnumberprac,mouse_6.x,mouse_6.y,mouse_6.leftButton,mouse_6.midButton,mouse_6.rightButton,mouse_6.clicked_name,duringprac.thisRepN,duringprac.thisTrialN,duringprac.thisN,duringprac.thisIndex,duringprac.ran,key_resp_22.keys,key_resp_22.rt,Colour1,maskCon1,mouse.x,mouse.y,mouse.leftButton,mouse.midButton,mouse.rightButton,mouse.clicked_name,Colour2,trialnumber,mouse_2.x,mouse_2.y,mouse_2.leftButton,mouse_2.midButton,mouse_2.rightButton,mouse_2.clicked_name,mouse_3.x,mouse_3.y,mouse_3.leftButton,mouse_3.midButton,mouse_3.rightButton,mouse_3.clicked_name,catchresponse,catchnumber,response_time_catch,mouse_11.x,mouse_11.y,mouse_11.leftButton,mouse_11.midButton,mouse_11.rightButton,mouse_11.clicked_name,trials_2.thisRepN,trials_2.thisTrialN,trials_2.thisN,trials_2.thisIndex,trials_2.ran,Catch,trials_3.thisRepN,trials_3.thisTrialN,trials_3.thisN,trials_3.thisIndex,trials_3.ran,answer1,rt1,answer2,rt2,answer3,rt3,answer4,rt4,answer5,rt5,answer6,rt6,answer7,rt7
space,1444.656075,space,26.60156,space,10.68589,40.9,4.09,469.4376528,264.0586797,1920,,space,14.561425,81.8,space,21.710085,space,2.79941,space,1.48996,space,6.16768,space,9.96742,space,10.719155,space,8.948875,space,8.045805,space,7.734005,return,10.85747,-1160.64,1964.148345,0,0,0,0,1,604f48ad0cf8d55887cb172e,606841a6f508cd75d6c4050c,2021-04-03_12h23.39.941,Colour_Similarity_Experiment,2020.2.10,Win32,60,60674ec340277cd6a308bc9f,71.10386882,16.67728867,16.66189791,16.6797032,16.66673806,16.67728867,,,,,,,,,,,,,,,,,,,,,,,,,,,,,,,,,,,,,,,,,,,,,,,,,,,,,,,,,,,,,,,,,,,,,,,,,,,,,,,,,,,,,,,,,,,,,,,,,,,,,,,,,,,,,,,,,,
,,,,,,,,,,,,,,,,,,,,,,,,,,,,,,,,,return,9.871775,-987.84,1788.16691,1,0,1,0,1,604f48ad0cf8d55887cb172e,606841a6f508cd75d6c4050c,2021-04-03_12h23.39.941,Colour_Similarity_Experiment,2020.2.10,Win32,60,60674ec340277cd6a308bc9f,71.10386882,16.67728867,16.66189791,16.6797032,16.66673806,16.67728867,,,,,,,,,,,,,,,,,,,,,,,,,,,,,,,,,,,,,,,,,,,,,,,,,,,,,,,,,,,,,,,,,,,,,,,,,,,,,,,,,,,,,,,,,,,,,,,,,,,,,,,,,,,,,,,,,,
,,,,,,,,,,,,,,,,,,,,,,,,,,,,,,,,,return,9.96353,-1002.24,1802.83203,2,0,2,0,1,604f48ad0cf8d55887cb172e,606841a6f508cd75d6c4050c,2021-04-03_12h23.39.941,Colour_Similarity_Experiment,2020.2.10,Win32,60,60674ec340277cd6a308bc9f,71.10386882,16.67728867,16.66189791,16.6797032,16.66673806,16.67728867,,,,,,,,,,,,,,,,,,,,,,,,,,,,,,,,,,,,,,,,,,,,,,,,,,,,,,,,,,,,,,,,,,,,,,,,,,,,,,,,,,,,,,,,,,,,,,,,,,,,,,,,,,,,,,,,,,
,,,,,,,,,,,,,,,,,,,,,,,,,,,,,,,,,return,10.00798,-1010.88,1811.631101,3,0,3,0,1,604f48ad0cf8d55887cb172e,606841a6f508cd75d6c4050c,2021-04-03_12h23.39.941,Colour_Similarity_Experiment,2020.2.10,Win32,60,60674ec340277cd6a308bc9f,71.10386882,16.67728867,16.66189791,16.6797032,16.66673806,16.67728867,,,,,,,,,,,,,,,,,,,,,,,,,,,,,,,,,,,,,,,,,,,,,,,,,,,,,,,,,,,,,,,,,,,,,,,,,,,,,,,,,,,,,,,,,,,,,,,,,,,,,,,,,,,,,,,,,,
,,,,,,,,,,,,,,,,,,,,,,,,,,,,,,,,,return,9.78882,-973.44,1773.501791,4,0,4,0,1,604f48ad0cf8d55887cb172e,606841a6f508cd75d6c4050c,2021-04-03_12h23.39.941,Colour_Similarity_Experiment,2020.2.10,Win32,60,60674ec340277cd6a308bc9f,71.10386882,16.67728867,16.66189791,16.6797032,16.66673806,16.67728867,,,,,,,,,,,,,,,,,,,,,,,,,,,,,,,,,,,,,,,,,,,,,,,,,,,,,,,,,,,,,,,,,,,,,,,,,,,,,,,,,,,,,,,,,,,,,,,,,,,,,,,,,,,,,,,,,,
,,,,,,,,,,,,,,,,,,,,,,,,,,,,,,,,,,,,,,,,,,604f48ad0cf8d55887cb172e,606841a6f508cd75d6c4050c,2021-04-03_12h23.39.941,Colour_Similarity_Experiment,2020.2.10,Win32,60,60674ec340277cd6a308bc9f,71.10386882,16.67728867,16.66189791,16.6797032,16.66673806,16.67728867,180,31.41910563,192.7562131,1285.04142,128.504142,578.2686392,space,8.98175,space,17.995195,space,77.10472,space,6.226495,space,1.45026,space,6.61294,7,PF,weak,3,-53,-169,1,0,0,response5disk_5,6,3,5.916665,-4,0,1,0,0,rectangle_8,-60,-113,1,0,0,response5disk_7,3,3,-6,2,1,0,0,rectangle_4,0,0,0,4,1,,,,,,,,,,,,,,,,,,,,,,,,,,,,,,,,,,,,,,,,,,,,,,,,,,,,,,,,,,
,,,,,,,,,,,,,,,,,,,,,,,,,,,,,,,,,,,,,,,,,,604f48ad0cf8d55887cb172e,606841a6f508cd75d6c4050c,2021-04-03_12h23.39.941,Colour_Similarity_Experiment,2020.2.10,Win32,60,60674ec340277cd6a308bc9f,71.10386882,16.67728867,16.66189791,16.6797032,16.66673806,16.67728867,,,,,,,,,,,,,,,,,,,8,PF,strong,3,-79,-55,1,0,0,response5disk_5,3,2,9.73402,6,2,1,0,0,rectangle_8,6,2,1,0,0,,,3,6,2,1,0,0,,0,1,1,3,1,,,,,,,,,,,,,,,,,,,,,,,,,,,,,,,,,,,,,,,,,,,,,,,,,,,,,,,,,,
,,,,,,,,,,,,,,,,,,,,,,,,,,,,,,,,,,,,,,,,,,604f48ad0cf8d55887cb172e,606841a6f508cd75d6c4050c,2021-04-03_12h23.39.941,Colour_Similarity_Experiment,2020.2.10,Win32,60,60674ec340277cd6a308bc9f,71.10386882,16.67728867,16.66189791,16.6797032,16.66673806,16.67728867,,,,,,,,,,,,,,,,,,,1,PF,strong,3,123,-59,1,0,0,response3disk_5,2,5,2.55025,-2,1,1,0,0,rectangle_8,-2,1,1,0,0,,,3,-2,1,1,0,0,,0,2,2,2,1,,,,,,,,,,,,,,,,,,,,,,,,,,,,,,,,,,,,,,,,,,,,,,,,,,,,,,,,,,
,,,,,,,,,,,,,,,,,,,,,,,,,,,,,,,,,,,,,,,,,,604f48ad0cf8d55887cb172e,606841a6f508cd75d6c4050c,2021-04-03_12h23.39.941,Colour_Similarity_Experiment,2020.2.10,Win32,60,60674ec340277cd6a308bc9f,71.10386882,16.67728867,16.66189791,16.6797032,16.66673806,16.67728867,,,,,,,,,,,,,,,,,,,6,PF,weak,3,38,-86,1,0,0,response3disk_5,3,4,2.433365,-4,0,1,0,0,rectangle_8,-4,0,1,0,0,,,3,-4,0,1,0,0,,0,3,3,1,1,,,,,,,,,,,,,,,,,,,,,,,,,,,,,,,,,,,,,,,,,,,,,,,,,,,,,,,,,,
,,,,,,,,,,,,,,,,,,,,,,,,,,,,,,,,,,,,,,,,,,604f48ad0cf8d55887cb172e,606841a6f508cd75d6c4050c,2021-04-03_12h23.39.941,Colour_Similarity_Experiment,2020.2.10,Win32,60,60674ec340277cd6a308bc9f,71.10386882,16.67728867,16.66189791,16.6797032,16.66673806,16.67728867,,,,,,,,,,,,,,,,,,,7,PF,weak,3,117,72,1,0,0,response1disk_5,4,6,4.133565,-9,8,1,0,0,rectangle_8,-9,8,1,0,0,,,3,-9,8,1,0,0,,0,4,4,5,1,,,,,,,,,,,,,,,,,,,,,,,,,,,,,,,,,,,,,,,,,,,,,,,,,,,,,,,,,,
,,,,,,,,,,,,,,,,,,,,,,,,,,,,,,,,,,,,,,,,,,604f48ad0cf8d55887cb172e,606841a6f508cd75d6c4050c,2021-04-03_12h23.39.941,Colour_Similarity_Experiment,2020.2.10,Win32,60,60674ec340277cd6a308bc9f,71.10386882,16.67728867,16.66189791,16.6797032,16.66673806,16.67728867,,,,,,,,,,,,,,,,,,,7,PF,strong,3,58,-91,1,0,0,response3disk_5,7,4,4.116975,-7,0,1,0,0,rectangle_8,-7,0,1,0,0,,,3,-7,0,1,0,0,,0,5,5,0,1,,,,,,,,,,,,,,,,,,,,,,,,,,,,,,,,,,,,,,,,,,,,,,,,,,,,,,,,,,
,,,,,,,,,,,,,,,,,,,,,,,,,,,,,,,,,,,,,,,,,,604f48ad0cf8d55887cb172e,606841a6f508cd75d6c4050c,2021-04-03_12h23.39.941,Colour_Similarity_Experiment,2020.2.10,Win32,60,60674ec340277cd6a308bc9f,71.10386882,16.67728867,16.66189791,16.6797032,16.66673806,16.67728867,,,,,,,,,,,,,,,,,,,8,PF,weak,3,123,40,1,0,0,response1disk_5,5,6,2.350425,35,-2,1,0,0,rectangle_8,35,-2,1,0,0,,,3,35,-2,1,0,0,,0,6,6,6,1,,,,,,,,,,,,,,,,,,,,,,,,,,,,,,,,,,,,,,,,,,,,,,,,,,,,,,,,,,
,,,,,,,,,,,,,,,,,,,,,,,,,,,,,,,,,,,,,,,,,,604f48ad0cf8d55887cb172e,606841a6f508cd75d6c4050c,2021-04-03_12h23.39.941,Colour_Similarity_Experiment,2020.2.10,Win32,60,60674ec340277cd6a308bc9f,71.10386882,16.67728867,16.66189791,16.6797032,16.66673806,16.67728867,,,,,,,,,,,,,,,,,,,,PF,weak,3,,,,,,,,3,1.815905,,,,,,,,,,,,,,,,,,,,,,,,,,space,6.717185,8,weak,-41,-64,1,0,0,response5disk,6,1,2,-2,1,0,0,rectangle,-96,46,1,0,0,response7disk_3,1,1,2.930755,-9,-7,1,0,0,rectangle,0,0,0,161,1,1,,,,,,,,,,,,,,,,,,,
,,,,,,,,,,,,,,,,,,,,,,,,,,,,,,,,,,,,,,,,,,604f48ad0cf8d55887cb172e,606841a6f508cd75d6c4050c,2021-04-03_12h23.39.941,Colour_Similarity_Experiment,2020.2.10,Win32,60,60674ec340277cd6a308bc9f,71.10386882,16.67728867,16.66189791,16.6797032,16.66673806,16.67728867,,,,,,,,,,,,,,,,,,,,PF,weak,3,,,,,,,,5,2.14962,,,,,,,,,,,,,,,,,,,,,,,,,,,,4,weak,100,-51,1,0,0,response3disk,2,2,3,1,1,0,0,rectangle,3,1,1,0,0,,1,2,0.00051,3,1,1,0,0,,0,1,1,108,1,0,,,,,,,,,,,,,,,,,,,
,,,,,,,,,,,,,,,,,,,,,,,,,,,,,,,,,,,,,,,,,,604f48ad0cf8d55887cb172e,606841a6f508cd75d6c4050c,2021-04-03_12h23.39.941,Colour_Similarity_Experiment,2020.2.10,Win32,60,60674ec340277cd6a308bc9f,71.10386882,16.67728867,16.66189791,16.6797032,16.66673806,16.67728867,,,,,,,,,,,,,,,,,,,,PF,strong,3,,,,,,,,4,2.12937,,,,,,,,,,,,,,,,,,,,,,,,,,,,9,strong,45,-117,1,0,0,response3disk,9,3,-17,-6,1,0,0,rectangle,-17,-6,1,0,0,,1,2,0.00011,-17,-6,1,0,0,,0,2,2,17,1,0,,,,,,,,,,,,,,,,,,,
,,,,,,,,,,,,,,,,,,,,,,,,,,,,,,,,,,,,,,,,,,604f48ad0cf8d55887cb172e,606841a6f508cd75d6c4050c,2021-04-03_12h23.39.941,Colour_Similarity_Experiment,2020.2.10,Win32,60,60674ec340277cd6a308bc9f,71.10386882,16.67728867,16.66189791,16.6797032,16.66673806,16.67728867,,,,,,,,,,,,,,,,,,,,PF,strong,3,,,,,,,,3,3.47926,,,,,,,,,,,,,,,,,,,,,,,,,,,,2,strong,-51,-85,1,0,0,response5disk,3,4,4,5,1,0,0,rectangle,-54,112,1,0,0,response7disk_3,0,0,2.366875,7,1,1,0,0,rectangle,0,3,3,104,1,1,,,,,,,,,,,,,,,,,,,
,,,,,,,,,,,,,,,,,,,,,,,,,,,,,,,,,,,,,,,,,,604f48ad0cf8d55887cb172e,606841a6f508cd75d6c4050c,2021-04-03_12h23.39.941,Colour_Similarity_Experiment,2020.2.10,Win32,60,60674ec340277cd6a308bc9f,71.10386882,16.67728867,16.66189791,16.6797032,16.66673806,16.67728867,,,,,,,,,,,,,,,,,,,,PF,weak,3,,,,,,,,5,2.049795,,,,,,,,,,,,,,,,,,,,,,,,,,,,4,weak,85,-59,1,0,0,response3disk,6,5,0,-7,1,0,0,rectangle,0,-7,1,0,0,,0,1,0.000495,0,-7,1,0,0,,0,4,4,120,1,0,,,,,,,,,,,,,,,,,,,
,,,,,,,,,,,,,,,,,,,,,,,,,,,,,,,,,,,,,,,,,,604f48ad0cf8d55887cb172e,606841a6f508cd75d6c4050c,2021-04-03_12h23.39.941,Colour_Similarity_Experiment,2020.2.10,Win32,60,60674ec340277cd6a308bc9f,71.10386882,16.67728867,16.66189791,16.6797032,16.66673806,16.67728867,,,,,,,,,,,,,,,,,,,,PF,strong,3,,,,,,,,1,3.89644,,,,,,,,,,,,,,,,,,,,,,,,,,,,6,strong,-95,41,1,0,0,response7disk,8,6,-12,-16,1,0,0,rectangle,-12,-16,1,0,0,,0,0,0.000515,-12,-16,1,0,0,,0,5,5,133,1,0,,,,,,,,,,,,,,,,,,,
,,,,,,,,,,,,,,,,,,,,,,,,,,,,,,,,,,,,,,,,,,604f48ad0cf8d55887cb172e,606841a6f508cd75d6c4050c,2021-04-03_12h23.39.941,Colour_Similarity_Experiment,2020.2.10,Win32,60,60674ec340277cd6a308bc9f,71.10386882,16.67728867,16.66189791,16.6797032,16.66673806,16.67728867,,,,,,,,,,,,,,,,,,,,PF,weak,3,,,,,,,,5,4.59655,,,,,,,,,,,,,,,,,,,,,,,,,,,,9,weak,98,-62,1,0,0,response3disk,2,7,-3,-1,1,0,0,rectangle,-3,-1,1,0,0,,0,1,0.00053,-3,-1,1,0,0,,0,6,6,157,1,0,,,,,,,,,,,,,,,,,,,
,,,,,,,,,,,,,,,,,,,,,,,,,,,,,,,,,,,,,,,,,,604f48ad0cf8d55887cb172e,606841a6f508cd75d6c4050c,2021-04-03_12h23.39.941,Colour_Similarity_Experiment,2020.2.10,Win32,60,60674ec340277cd6a308bc9f,71.10386882,16.67728867,16.66189791,16.6797032,16.66673806,16.67728867,,,,,,,,,,,,,,,,,,,,PF,strong,3,,,,,,,,6,5.71666,,,,,,,,,,,,,,,,,,,,,,,,,,,,7,strong,89,46,1,0,0,response1disk,8,8,8,-10,1,0,0,rectangle,120,53,1,0,0,response1disk_3,6,6,2.41667,4,-6,1,0,0,rectangle,0,7,7,97,1,1,,,,,,,,,,,,,,,,,,,
,,,,,,,,,,,,,,,,,,,,,,,,,,,,,,,,,,,,,,,,,,604f48ad0cf8d55887cb172e,606841a6f508cd75d6c4050c,2021-04-03_12h23.39.941,Colour_Similarity_Experiment,2020.2.10,Win32,60,60674ec340277cd6a308bc9f,71.10386882,16.67728867,16.66189791,16.6797032,16.66673806,16.67728867,,,,,,,,,,,,,,,,,,,,PF,weak,3,,,,,,,,1,2.47942,,,,,,,,,,,,,,,,,,,,,,,,,,,,2,weak,-89,64,1,0,0,response7disk,2,9,-11,-4,1,0,0,rectangle,-11,-4,1,0,0,,6,3,0.000545,-11,-4,1,0,0,,0,8,8,14,1,0,,,,,,,,,,,,,,,,,,,
,,,,,,,,,,,,,,,,,,,,,,,,,,,,,,,,,,,,,,,,,,604f48ad0cf8d55887cb172e,606841a6f508cd75d6c4050c,2021-04-03_12h23.39.941,Colour_Similarity_Experiment,2020.2.10,Win32,60,60674ec340277cd6a308bc9f,71.10386882,16.67728867,16.66189791,16.6797032,16.66673806,16.67728867,,,,,,,,,,,,,,,,,,,,PF,weak,3,,,,,,,,2,2.81272,,,,,,,,,,,,,,,,,,,,,,,,,,,,7,weak,-82,-47,1,0,0,response5disk,7,10,-5,2,1,0,0,rectangle,-5,2,1,0,0,,6,1,0.0006,-5,2,1,0,0,,0,9,9,51,1,0,,,,,,,,,,,,,,,,,,,
,,,,,,,,,,,,,,,,,,,,,,,,,,,,,,,,,,,,,,,,,,604f48ad0cf8d55887cb172e,606841a6f508cd75d6c4050c,2021-04-03_12h23.39.941,Colour_Similarity_Experiment,2020.2.10,Win32,60,60674ec340277cd6a308bc9f,71.10386882,16.67728867,16.66189791,16.6797032,16.66673806,16.67728867,,,,,,,,,,,,,,,,,,,,PF,strong,3,,,,,,,,5,5.32966,,,,,,,,,,,,,,,,,,,,,,,,,,,,9,strong,106,-68,1,0,0,response3disk,5,11,-6,-14,1,0,0,rectangle,-6,-14,1,0,0,,6,2,0.000455,-6,-14,1,0,0,,0,10,10,128,1,0,,,,,,,,,,,,,,,,,,,
,,,,,,,,,,,,,,,,,,,,,,,,,,,,,,,,,,,,,,,,,,604f48ad0cf8d55887cb172e,606841a6f508cd75d6c4050c,2021-04-03_12h23.39.941,Colour_Similarity_Experiment,2020.2.10,Win32,60,60674ec340277cd6a308bc9f,71.10386882,16.67728867,16.66189791,16.6797032,16.66673806,16.67728867,,,,,,,,,,,,,,,,,,,,PF,strong,3,,,,,,,,4,1.99982,,,,,,,,,,,,,,,,,,,,,,,,,,,,6,strong,41,-99,1,0,0,response3disk,7,12,-19,-8,1,0,0,rectangle,-19,-8,1,0,0,,6,2,7.5E-05,-19,-8,1,0,0,,0,11,11,18,1,0,,,,,,,,,,,,,,,,,,,
,,,,,,,,,,,,,,,,,,,,,,,,,,,,,,,,,,,,,,,,,,604f48ad0cf8d55887cb172e,606841a6f508cd75d6c4050c,2021-04-03_12h23.39.941,Colour_Similarity_Experiment,2020.2.10,Win32,60,60674ec340277cd6a308bc9f,71.10386882,16.67728867,16.66189791,16.6797032,16.66673806,16.67728867,,,,,,,,,,,,,,,,,,,,PF,weak,3,,,,,,,,5,1.933305,,,,,,,,,,,,,,,,,,,,,,,,,,,,1,weak,87,-58,1,0,0,response3disk,7,13,6,-7,1,0,0,rectangle,6,-7,1,0,0,,6,3,0.000555,6,-7,1,0,0,,0,12,12,150,1,0,,,,,,,,,,,,,,,,,,,
,,,,,,,,,,,,,,,,,,,,,,,,,,,,,,,,,,,,,,,,,,604f48ad0cf8d55887cb172e,606841a6f508cd75d6c4050c,2021-04-03_12h23.39.941,Colour_Similarity_Experiment,2020.2.10,Win32,60,60674ec340277cd6a308bc9f,71.10386882,16.67728867,16.66189791,16.6797032,16.66673806,16.67728867,,,,,,,,,,,,,,,,,,,,PF,weak,3,,,,,,,,2,2.666595,,,,,,,,,,,,,,,,,,,,,,,,,,,,6,weak,-106,-59,1,0,0,response5disk,6,14,-4,0,1,0,0,rectangle,-4,0,1,0,0,,6,1,0.00053,-4,0,1,0,0,,0,13,13,0,1,0,,,,,,,,,,,,,,,,,,,
,,,,,,,,,,,,,,,,,,,,,,,,,,,,,,,,,,,,,,,,,,604f48ad0cf8d55887cb172e,606841a6f508cd75d6c4050c,2021-04-03_12h23.39.941,Colour_Similarity_Experiment,2020.2.10,Win32,60,60674ec340277cd6a308bc9f,71.10386882,16.67728867,16.66189791,16.6797032,16.66673806,16.67728867,,,,,,,,,,,,,,,,,,,,PF,strong,3,,,,,,,,5,2.949985,,,,,,,,,,,,,,,,,,,,,,,,,,,,3,strong,82,-49,1,0,0,response3disk,2,15,-4,5,1,0,0,rectangle,-4,5,1,0,0,,6,7,0.00083,-4,5,1,0,0,,0,14,14,93,1,0,,,,,,,,,,,,,,,,,,,
,,,,,,,,,,,,,,,,,,,,,,,,,,,,,,,,,,,,,,,,,,604f48ad0cf8d55887cb172e,606841a6f508cd75d6c4050c,2021-04-03_12h23.39.941,Colour_Similarity_Experiment,2020.2.10,Win32,60,60674ec340277cd6a308bc9f,71.10386882,16.67728867,16.66189791,16.6797032,16.66673806,16.67728867,,,,,,,,,,,,,,,,,,,,PF,strong,3,,,,,,,,4,2.38358,,,,,,,,,,,,,,,,,,,,,,,,,,,,6,strong,46,-81,1,0,0,response3disk,5,16,-12,-8,1,0,0,rectangle,-12,-8,1,0,0,,6,3,0.00073,-12,-8,1,0,0,,0,15,15,126,1,0,,,,,,,,,,,,,,,,,,,
,,,,,,,,,,,,,,,,,,,,,,,,,,,,,,,,,,,,,,,,,,604f48ad0cf8d55887cb172e,606841a6f508cd75d6c4050c,2021-04-03_12h23.39.941,Colour_Similarity_Experiment,2020.2.10,Win32,60,60674ec340277cd6a308bc9f,71.10386882,16.67728867,16.66189791,16.6797032,16.66673806,16.67728867,,,,,,,,,,,,,,,,,,,,PF,weak,3,,,,,,,,5,3.61274,,,,,,,,,,,,,,,,,,,,,,,,,,,,1,weak,103,-46,1,0,0,response3disk,9,17,-3,2,1,0,0,rectangle,-3,2,1,0,0,,6,6,0.000485,-3,2,1,0,0,,0,16,16,15,1,0,,,,,,,,,,,,,,,,,,,
,,,,,,,,,,,,,,,,,,,,,,,,,,,,,,,,,,,,,,,,,,604f48ad0cf8d55887cb172e,606841a6f508cd75d6c4050c,2021-04-03_12h23.39.941,Colour_Similarity_Experiment,2020.2.10,Win32,60,60674ec340277cd6a308bc9f,71.10386882,16.67728867,16.66189791,16.6797032,16.66673806,16.67728867,,,,,,,,,,,,,,,,,,,,PF,strong,3,,,,,,,,6,2.11276,,,,,,,,,,,,,,,,,,,,,,,,,,,,1,strong,114,44,1,0,0,response1disk,1,18,13,-9,1,0,0,rectangle,13,-9,1,0,0,,6,2,0.00047,13,-9,1,0,0,,0,17,17,151,1,0,,,,,,,,,,,,,,,,,,,
,,,,,,,,,,,,,,,,,,,,,,,,,,,,,,,,,,,,,,,,,,604f48ad0cf8d55887cb172e,606841a6f508cd75d6c4050c,2021-04-03_12h23.39.941,Colour_Similarity_Experiment,2020.2.10,Win32,60,60674ec340277cd6a308bc9f,71.10386882,16.67728867,16.66189791,16.6797032,16.66673806,16.67728867,,,,,,,,,,,,,,,,,,,,PF,weak,3,,,,,,,,2,1.816185,,,,,,,,,,,,,,,,,,,,,,,,,,,,1,weak,-82,-53,1,0,0,response5disk,1,19,-16,1,1,0,0,rectangle,-48,-103,1,0,0,response5disk_3,3,3,3.520155,8,-2,1,0,0,rectangle,0,18,18,76,1,1,,,,,,,,,,,,,,,,,,,
,,,,,,,,,,,,,,,,,,,,,,,,,,,,,,,,,,,,,,,,,,604f48ad0cf8d55887cb172e,606841a6f508cd75d6c4050c,2021-04-03_12h23.39.941,Colour_Similarity_Experiment,2020.2.10,Win32,60,60674ec340277cd6a308bc9f,71.10386882,16.67728867,16.66189791,16.6797032,16.66673806,16.67728867,,,,,,,,,,,,,,,,,,,,PF,weak,3,,,,,,,,7,3.56628,,,,,,,,,,,,,,,,,,,,,,,,,,,,4,weak,66,93,1,0,0,response1disk,8,20,-6,4,1,0,0,rectangle,-6,4,1,0,0,,3,0,0.000725,-6,4,1,0,0,,0,19,19,124,1,0,,,,,,,,,,,,,,,,,,,
,,,,,,,,,,,,,,,,,,,,,,,,,,,,,,,,,,,,,,,,,,604f48ad0cf8d55887cb172e,606841a6f508cd75d6c4050c,2021-04-03_12h23.39.941,Colour_Similarity_Experiment,2020.2.10,Win32,60,60674ec340277cd6a308bc9f,71.10386882,16.67728867,16.66189791,16.6797032,16.66673806,16.67728867,,,,,,,,,,,,,,,,,,,,PF,weak,3,,,,,,,,7,1.59623,,,,,,,,,,,,,,,,,,,,,,,,,,,,5,weak,67,99,1,0,0,response1disk,9,21,-5,-1,1,0,0,rectangle,113,45,1,0,0,response1disk_3,6,6,2.133505,26,-2,1,0,0,rectangle,0,20,20,136,1,1,,,,,,,,,,,,,,,,,,,
,,,,,,,,,,,,,,,,,,,,,,,,,,,,,,,,,,,,,,,,,,604f48ad0cf8d55887cb172e,606841a6f508cd75d6c4050c,2021-04-03_12h23.39.941,Colour_Similarity_Experiment,2020.2.10,Win32,60,60674ec340277cd6a308bc9f,71.10386882,16.67728867,16.66189791,16.6797032,16.66673806,16.67728867,,,,,,,,,,,,,,,,,,,,PF,strong,3,,,,,,,,5,6.183175,,,,,,,,,,,,,,,,,,,,,,,,,,,,6,strong,130,-38,1,0,0,response3disk,1,22,8,-3,1,0,0,rectangle,8,-3,1,0,0,,6,0,0.000555,8,-3,1,0,0,,0,21,21,5,1,0,,,,,,,,,,,,,,,,,,,
,,,,,,,,,,,,,,,,,,,,,,,,,,,,,,,,,,,,,,,,,,604f48ad0cf8d55887cb172e,606841a6f508cd75d6c4050c,2021-04-03_12h23.39.941,Colour_Similarity_Experiment,2020.2.10,Win32,60,60674ec340277cd6a308bc9f,71.10386882,16.67728867,16.66189791,16.6797032,16.66673806,16.67728867,,,,,,,,,,,,,,,,,,,,PF,weak,3,,,,,,,,1,1.36636,,,,,,,,,,,,,,,,,,,,,,,,,,,,4,weak,-87,43,1,0,0,response7disk,4,23,-22,-7,1,0,0,rectangle,-22,-7,1,0,0,,6,3,0.000495,-22,-7,1,0,0,,0,22,22,70,1,0,,,,,,,,,,,,,,,,,,,
,,,,,,,,,,,,,,,,,,,,,,,,,,,,,,,,,,,,,,,,,,604f48ad0cf8d55887cb172e,606841a6f508cd75d6c4050c,2021-04-03_12h23.39.941,Colour_Similarity_Experiment,2020.2.10,Win32,60,60674ec340277cd6a308bc9f,71.10386882,16.67728867,16.66189791,16.6797032,16.66673806,16.67728867,,,,,,,,,,,,,,,,,,,,PF,weak,3,,,,,,,,5,1.81637,,,,,,,,,,,,,,,,,,,,,,,,,,,,9,weak,107,-36,1,0,0,response3disk,5,24,19,1,1,0,0,rectangle,19,1,1,0,0,,6,1,0.0005,19,1,1,0,0,,0,23,23,134,1,0,,,,,,,,,,,,,,,,,,,
,,,,,,,,,,,,,,,,,,,,,,,,,,,,,,,,,,,,,,,,,,604f48ad0cf8d55887cb172e,606841a6f508cd75d6c4050c,2021-04-03_12h23.39.941,Colour_Similarity_Experiment,2020.2.10,Win32,60,60674ec340277cd6a308bc9f,71.10386882,16.67728867,16.66189791,16.6797032,16.66673806,16.67728867,,,,,,,,,,,,,,,,,,,,PF,strong,3,,,,,,,,5,3.149665,,,,,,,,,,,,,,,,,,,,,,,,,,,,4,strong,82,-55,1,0,0,response3disk,7,25,-2,-6,1,0,0,rectangle,-2,-6,1,0,0,,6,1,6.5E-05,-2,-6,1,0,0,,0,24,24,87,1,0,,,,,,,,,,,,,,,,,,,
,,,,,,,,,,,,,,,,,,,,,,,,,,,,,,,,,,,,,,,,,,604f48ad0cf8d55887cb172e,606841a6f508cd75d6c4050c,2021-04-03_12h23.39.941,Colour_Similarity_Experiment,2020.2.10,Win32,60,60674ec340277cd6a308bc9f,71.10386882,16.67728867,16.66189791,16.6797032,16.66673806,16.67728867,,,,,,,,,,,,,,,,,,,,PF,strong,3,,,,,,,,5,2.028685,,,,,,,,,,,,,,,,,,,,,,,,,,,,3,strong,88,-64,1,0,0,response3disk,9,26,-8,-8,1,0,0,rectangle,-8,-8,1,0,0,,6,4,0.00052,-8,-8,1,0,0,,0,25,25,143,1,0,,,,,,,,,,,,,,,,,,,
,,,,,,,,,,,,,,,,,,,,,,,,,,,,,,,,,,,,,,,,,,604f48ad0cf8d55887cb172e,606841a6f508cd75d6c4050c,2021-04-03_12h23.39.941,Colour_Similarity_Experiment,2020.2.10,Win32,60,60674ec340277cd6a308bc9f,71.10386882,16.67728867,16.66189791,16.6797032,16.66673806,16.67728867,,,,,,,,,,,,,,,,,,,,PF,weak,3,,,,,,,,6,1.54605,,,,,,,,,,,,,,,,,,,,,,,,,,,,3,weak,114,40,1,0,0,response1disk,5,27,-5,-3,1,0,0,rectangle,-5,-3,1,0,0,,6,3,0.0005,-5,-3,1,0,0,,0,26,26,66,1,0,,,,,,,,,,,,,,,,,,,
,,,,,,,,,,,,,,,,,,,,,,,,,,,,,,,,,,,,,,,,,,604f48ad0cf8d55887cb172e,606841a6f508cd75d6c4050c,2021-04-03_12h23.39.941,Colour_Similarity_Experiment,2020.2.10,Win32,60,60674ec340277cd6a308bc9f,71.10386882,16.67728867,16.66189791,16.6797032,16.66673806,16.67728867,,,,,,,,,,,,,,,,,,,,PF,weak,3,,,,,,,,3,1.548765,,,,,,,,,,,,,,,,,,,,,,,,,,,,5,weak,-56,-81,1,0,0,response5disk,3,28,12,-2,1,0,0,rectangle,12,-2,1,0,0,,6,1,0.000675,12,-2,1,0,0,,0,27,27,109,1,0,,,,,,,,,,,,,,,,,,,
,,,,,,,,,,,,,,,,,,,,,,,,,,,,,,,,,,,,,,,,,,604f48ad0cf8d55887cb172e,606841a6f508cd75d6c4050c,2021-04-03_12h23.39.941,Colour_Similarity_Experiment,2020.2.10,Win32,60,60674ec340277cd6a308bc9f,71.10386882,16.67728867,16.66189791,16.6797032,16.66673806,16.67728867,,,,,,,,,,,,,,,,,,,,PF,weak,3,,,,,,,,7,1.999705,,,,,,,,,,,,,,,,,,,,,,,,,,,,4,weak,68,99,1,0,0,response1disk,1,29,-4,-2,1,0,0,rectangle,-4,-2,1,0,0,,6,4,0.000625,-4,-2,1,0,0,,0,28,28,115,1,0,,,,,,,,,,,,,,,,,,,
,,,,,,,,,,,,,,,,,,,,,,,,,,,,,,,,,,,,,,,,,,604f48ad0cf8d55887cb172e,606841a6f508cd75d6c4050c,2021-04-03_12h23.39.941,Colour_Similarity_Experiment,2020.2.10,Win32,60,60674ec340277cd6a308bc9f,71.10386882,16.67728867,16.66189791,16.6797032,16.66673806,16.67728867,,,,,,,,,,,,,,,,,,,,PF,strong,3,,,,,,,,2,1.699495,,,,,,,,,,,,,,,,,,,,,,,,,,,,4,strong,-79,-54,1,0,0,response5disk,4,30,-2,2,1,0,0,rectangle,-2,2,1,0,0,,6,2,0.00062,-2,2,1,0,0,,0,29,29,84,1,0,,,,,,,,,,,,,,,,,,,
,,,,,,,,,,,,,,,,,,,,,,,,,,,,,,,,,,,,,,,,,,604f48ad0cf8d55887cb172e,606841a6f508cd75d6c4050c,2021-04-03_12h23.39.941,Colour_Similarity_Experiment,2020.2.10,Win32,60,60674ec340277cd6a308bc9f,71.10386882,16.67728867,16.66189791,16.6797032,16.66673806,16.67728867,,,,,,,,,,,,,,,,,,,,PF,weak,3,,,,,,,,3,2.89957,,,,,,,,,,,,,,,,,,,,,,,,,,,,6,weak,-54,-73,1,0,0,response5disk,7,31,6,-9,1,0,0,rectangle,6,-9,1,0,0,,6,1,0.00055,6,-9,1,0,0,,0,30,30,50,1,0,,,,,,,,,,,,,,,,,,,
,,,,,,,,,,,,,,,,,,,,,,,,,,,,,,,,,,,,,,,,,,604f48ad0cf8d55887cb172e,606841a6f508cd75d6c4050c,2021-04-03_12h23.39.941,Colour_Similarity_Experiment,2020.2.10,Win32,60,60674ec340277cd6a308bc9f,71.10386882,16.67728867,16.66189791,16.6797032,16.66673806,16.67728867,,,,,,,,,,,,,,,,,,,,PF,strong,3,,,,,,,,6,1.596025,,,,,,,,,,,,,,,,,,,,,,,,,,,,1,strong,92,44,1,0,0,response1disk,2,32,16,-6,1,0,0,rectangle,16,-6,1,0,0,,6,4,0.0006,16,-6,1,0,0,,0,31,31,2,1,0,,,,,,,,,,,,,,,,,,,
,,,,,,,,,,,,,,,,,,,,,,,,,,,,,,,,,,,,,,,,,,604f48ad0cf8d55887cb172e,606841a6f508cd75d6c4050c,2021-04-03_12h23.39.941,Colour_Similarity_Experiment,2020.2.10,Win32,60,60674ec340277cd6a308bc9f,71.10386882,16.67728867,16.66189791,16.6797032,16.66673806,16.67728867,,,,,,,,,,,,,,,,,,,,PF,strong,3,,,,,,,,5,1.833265,,,,,,,,,,,,,,,,,,,,,,,,,,,,1,strong,78,-45,1,0,0,response3disk,7,33,-1,-1,1,0,0,rectangle,-1,-1,1,0,0,,6,3,0.00049,-1,-1,1,0,0,,0,32,32,137,1,0,,,,,,,,,,,,,,,,,,,
,,,,,,,,,,,,,,,,,,,,,,,,,,,,,,,,,,,,,,,,,,604f48ad0cf8d55887cb172e,606841a6f508cd75d6c4050c,2021-04-03_12h23.39.941,Colour_Similarity_Experiment,2020.2.10,Win32,60,60674ec340277cd6a308bc9f,71.10386882,16.67728867,16.66189791,16.6797032,16.66673806,16.67728867,,,,,,,,,,,,,,,,,,,,PF,weak,3,,,,,,,,2,2.633295,,,,,,,,,,,,,,,,,,,,,,,,,,,,4,weak,-113,-54,1,0,0,response5disk,5,34,-17,1,1,0,0,rectangle,-17,1,1,0,0,,6,0,0.0005,-17,1,1,0,0,,0,33,33,49,1,0,,,,,,,,,,,,,,,,,,,
,,,,,,,,,,,,,,,,,,,,,,,,,,,,,,,,,,,,,,,,,,604f48ad0cf8d55887cb172e,606841a6f508cd75d6c4050c,2021-04-03_12h23.39.941,Colour_Similarity_Experiment,2020.2.10,Win32,60,60674ec340277cd6a308bc9f,71.10386882,16.67728867,16.66189791,16.6797032,16.66673806,16.67728867,,,,,,,,,,,,,,,,,,,,PF,strong,3,,,,,,,,6,1.816245,,,,,,,,,,,,,,,,,,,,,,,,,,,,6,strong,97,46,1,0,0,response1disk,2,35,0,-15,1,0,0,rectangle,0,-15,1,0,0,,6,4,0.000445,0,-15,1,0,0,,0,34,34,112,1,0,,,,,,,,,,,,,,,,,,,
,,,,,,,,,,,,,,,,,,,,,,,,,,,,,,,,,,,,,,,,,,604f48ad0cf8d55887cb172e,606841a6f508cd75d6c4050c,2021-04-03_12h23.39.941,Colour_Similarity_Experiment,2020.2.10,Win32,60,60674ec340277cd6a308bc9f,71.10386882,16.67728867,16.66189791,16.6797032,16.66673806,16.67728867,,,,,,,,,,,,,,,,,,,,PF,strong,3,,,,,,,,3,2.379475,,,,,,,,,,,,,,,,,,,,,,,,,,,,2,strong,-46,-72,1,0,0,response5disk,5,36,13,-2,1,0,0,rectangle,13,-2,1,0,0,,6,3,0.000485,13,-2,1,0,0,,0,35,35,80,1,0,,,,,,,,,,,,,,,,,,,
,,,,,,,,,,,,,,,,,,,,,,,,,,,,,,,,,,,,,,,,,,604f48ad0cf8d55887cb172e,606841a6f508cd75d6c4050c,2021-04-03_12h23.39.941,Colour_Similarity_Experiment,2020.2.10,Win32,60,60674ec340277cd6a308bc9f,71.10386882,16.67728867,16.66189791,16.6797032,16.66673806,16.67728867,,,,,,,,,,,,,,,,,,,,PF,weak,3,,,,,,,,6,2.41286,,,,,,,,,,,,,,,,,,,,,,,,,,,,2,weak,95,62,1,0,0,response1disk,4,37,-9,-4,1,0,0,rectangle,-9,-4,1,0,0,,6,0,0.00044,-9,-4,1,0,0,,0,36,36,127,1,0,,,,,,,,,,,,,,,,,,,
,,,,,,,,,,,,,,,,,,,,,,,,,,,,,,,,,,,,,,,,,,604f48ad0cf8d55887cb172e,606841a6f508cd75d6c4050c,2021-04-03_12h23.39.941,Colour_Similarity_Experiment,2020.2.10,Win32,60,60674ec340277cd6a308bc9f,71.10386882,16.67728867,16.66189791,16.6797032,16.66673806,16.67728867,,,,,,,,,,,,,,,,,,,,PF,strong,3,,,,,,,,5,1.56615,,,,,,,,,,,,,,,,,,,,,,,,,,,,2,strong,77,-46,1,0,0,response3disk,8,38,-3,4,1,0,0,rectangle,-3,4,1,0,0,,6,5,0.0008,-3,4,1,0,0,,0,37,37,62,1,0,,,,,,,,,,,,,,,,,,,
,,,,,,,,,,,,,,,,,,,,,,,,,,,,,,,,,,,,,,,,,,604f48ad0cf8d55887cb172e,606841a6f508cd75d6c4050c,2021-04-03_12h23.39.941,Colour_Similarity_Experiment,2020.2.10,Win32,60,60674ec340277cd6a308bc9f,71.10386882,16.67728867,16.66189791,16.6797032,16.66673806,16.67728867,,,,,,,,,,,,,,,,,,,,PF,strong,3,,,,,,,,3,2.783,,,,,,,,,,,,,,,,,,,,,,,,,,,,5,strong,-55,-75,1,0,0,response5disk,3,39,1,-2,1,0,0,rectangle,1,-2,1,0,0,,6,0,0.000455,1,-2,1,0,0,,0,38,38,25,1,0,,,,,,,,,,,,,,,,,,,
,,,,,,,,,,,,,,,,,,,,,,,,,,,,,,,,,,,,,,,,,,604f48ad0cf8d55887cb172e,606841a6f508cd75d6c4050c,2021-04-03_12h23.39.941,Colour_Similarity_Experiment,2020.2.10,Win32,60,60674ec340277cd6a308bc9f,71.10386882,16.67728867,16.66189791,16.6797032,16.66673806,16.67728867,,,,,,,,,,,,,,,,,,,,PF,strong,3,,,,,,,,4,2.199515,,,,,,,,,,,,,,,,,,,,,,,,,,,,5,strong,70,-94,1,0,0,response3disk,8,40,-3,-3,1,0,0,rectangle,-3,-3,1,0,0,,6,3,0.000485,-3,-3,1,0,0,,0,39,39,16,1,0,,,,,,,,,,,,,,,,,,,
,,,,,,,,,,,,,,,,,,,,,,,,,,,,,,,,,,,,,,,,,,604f48ad0cf8d55887cb172e,606841a6f508cd75d6c4050c,2021-04-03_12h23.39.941,Colour_Similarity_Experiment,2020.2.10,Win32,60,60674ec340277cd6a308bc9f,71.10386882,16.67728867,16.66189791,16.6797032,16.66673806,16.67728867,,,,,,,,,,,,,,,,,,,,PF,strong,3,,,,,,,,3,1.67798,,,,,,,,,,,,,,,,,,,,,,,,,,,,9,strong,-61,-106,1,0,0,response5disk,2,41,-4,-1,1,0,0,rectangle,-53,-113,1,0,0,response5disk_3,3,3,2.23452,-2,2,1,0,0,rectangle,0,40,40,11,1,1,,,,,,,,,,,,,,,,,,,
,,,,,,,,,,,,,,,,,,,,,,,,,,,,,,,,,,,,,,,,,,604f48ad0cf8d55887cb172e,606841a6f508cd75d6c4050c,2021-04-03_12h23.39.941,Colour_Similarity_Experiment,2020.2.10,Win32,60,60674ec340277cd6a308bc9f,71.10386882,16.67728867,16.66189791,16.6797032,16.66673806,16.67728867,,,,,,,,,,,,,,,,,,,,PF,strong,3,,,,,,,,6,1.39331,,,,,,,,,,,,,,,,,,,,,,,,,,,,4,strong,111,37,1,0,0,response1disk,8,42,10,-9,1,0,0,rectangle,10,-9,1,0,0,,3,5,0.000475,10,-9,1,0,0,,0,41,41,35,1,0,,,,,,,,,,,,,,,,,,,
,,,,,,,,,,,,,,,,,,,,,,,,,,,,,,,,,,,,,,,,,,604f48ad0cf8d55887cb172e,606841a6f508cd75d6c4050c,2021-04-03_12h23.39.941,Colour_Similarity_Experiment,2020.2.10,Win32,60,60674ec340277cd6a308bc9f,71.10386882,16.67728867,16.66189791,16.6797032,16.66673806,16.67728867,,,,,,,,,,,,,,,,,,,,PF,weak,3,,,,,,,,0,0.98284,,,,,,,,,,,,,,,,,,,,,,,,,,,,3,weak,-39,59,1,0,0,response7disk,3,43,8,-1,1,0,0,rectangle,8,-1,1,0,0,,3,2,0.00047,8,-1,1,0,0,,0,42,42,4,1,0,,,,,,,,,,,,,,,,,,,
,,,,,,,,,,,,,,,,,,,,,,,,,,,,,,,,,,,,,,,,,,604f48ad0cf8d55887cb172e,606841a6f508cd75d6c4050c,2021-04-03_12h23.39.941,Colour_Similarity_Experiment,2020.2.10,Win32,60,60674ec340277cd6a308bc9f,71.10386882,16.67728867,16.66189791,16.6797032,16.66673806,16.67728867,,,,,,,,,,,,,,,,,,,,PF,strong,3,,,,,,,,5,2.482905,,,,,,,,,,,,,,,,,,,,,,,,,,,,8,strong,84,-64,1,0,0,response3disk,8,44,-8,-4,1,0,0,rectangle,-8,-4,1,0,0,,3,1,0.000525,-8,-4,1,0,0,,0,43,43,48,1,0,,,,,,,,,,,,,,,,,,,
,,,,,,,,,,,,,,,,,,,,,,,,,,,,,,,,,,,,,,,,,,604f48ad0cf8d55887cb172e,606841a6f508cd75d6c4050c,2021-04-03_12h23.39.941,Colour_Similarity_Experiment,2020.2.10,Win32,60,60674ec340277cd6a308bc9f,71.10386882,16.67728867,16.66189791,16.6797032,16.66673806,16.67728867,,,,,,,,,,,,,,,,,,,,PF,strong,3,,,,,,,,3,0.949795,,,,,,,,,,,,,,,,,,,,,,,,,,,,8,strong,-43,-76,1,0,0,response5disk,6,45,-1,-3,1,0,0,rectangle,-1,-3,1,0,0,,3,5,0.000565,-1,-3,1,0,0,,0,44,44,37,1,0,,,,,,,,,,,,,,,,,,,
,,,,,,,,,,,,,,,,,,,,,,,,,,,,,,,,,,,,,,,,,,604f48ad0cf8d55887cb172e,606841a6f508cd75d6c4050c,2021-04-03_12h23.39.941,Colour_Similarity_Experiment,2020.2.10,Win32,60,60674ec340277cd6a308bc9f,71.10386882,16.67728867,16.66189791,16.6797032,16.66673806,16.67728867,,,,,,,,,,,,,,,,,,,,PF,strong,3,,,,,,,,2,1.333025,,,,,,,,,,,,,,,,,,,,,,,,,,,,1,strong,-79,-55,1,0,0,response5disk,3,46,6,-6,1,0,0,rectangle,6,-6,1,0,0,,3,7,0.0005,6,-6,1,0,0,,0,45,45,99,1,0,,,,,,,,,,,,,,,,,,,
,,,,,,,,,,,,,,,,,,,,,,,,,,,,,,,,,,,,,,,,,,604f48ad0cf8d55887cb172e,606841a6f508cd75d6c4050c,2021-04-03_12h23.39.941,Colour_Similarity_Experiment,2020.2.10,Win32,60,60674ec340277cd6a308bc9f,71.10386882,16.67728867,16.66189791,16.6797032,16.66673806,16.67728867,,,,,,,,,,,,,,,,,,,,PF,weak,3,,,,,,,,2,1.449635,,,,,,,,,,,,,,,,,,,,,,,,,,,,7,weak,-123,-27,1,0,0,response5disk,6,47,5,-1,1,0,0,rectangle,5,-1,1,0,0,,3,4,0.000505,5,-1,1,0,0,,0,46,46,29,1,0,,,,,,,,,,,,,,,,,,,
,,,,,,,,,,,,,,,,,,,,,,,,,,,,,,,,,,,,,,,,,,604f48ad0cf8d55887cb172e,606841a6f508cd75d6c4050c,2021-04-03_12h23.39.941,Colour_Similarity_Experiment,2020.2.10,Win32,60,60674ec340277cd6a308bc9f,71.10386882,16.67728867,16.66189791,16.6797032,16.66673806,16.67728867,,,,,,,,,,,,,,,,,,,,PF,strong,3,,,,,,,,4,2.21288,,,,,,,,,,,,,,,,,,,,,,,,,,,,5,strong,32,-102,1,0,0,response3disk,5,48,3,3,1,0,0,rectangle,3,3,1,0,0,,3,2,0.000455,3,3,1,0,0,,0,47,47,19,1,0,,,,,,,,,,,,,,,,,,,
,,,,,,,,,,,,,,,,,,,,,,,,,,,,,,,,,,,,,,,,,,604f48ad0cf8d55887cb172e,606841a6f508cd75d6c4050c,2021-04-03_12h23.39.941,Colour_Similarity_Experiment,2020.2.10,Win32,60,60674ec340277cd6a308bc9f,71.10386882,16.67728867,16.66189791,16.6797032,16.66673806,16.67728867,,,,,,,,,,,,,,,,,,,,PF,weak,3,,,,,,,,7,0.929155,,,,,,,,,,,,,,,,,,,,,,,,,,,,5,weak,42,89,1,0,0,response1disk,8,49,-8,-2,1,0,0,rectangle,-8,-2,1,0,0,,3,1,0.000645,-8,-2,1,0,0,,0,48,48,149,1,0,,,,,,,,,,,,,,,,,,,
,,,,,,,,,,,,,,,,,,,,,,,,,,,,,,,,,,,,,,,,,,604f48ad0cf8d55887cb172e,606841a6f508cd75d6c4050c,2021-04-03_12h23.39.941,Colour_Similarity_Experiment,2020.2.10,Win32,60,60674ec340277cd6a308bc9f,71.10386882,16.67728867,16.66189791,16.6797032,16.66673806,16.67728867,,,,,,,,,,,,,,,,,,,,PF,weak,3,,,,,,,,6,1.49969,,,,,,,,,,,,,,,,,,,,,,,,,,,,3,weak,103,54,1,0,0,response1disk,7,50,5,-2,1,0,0,rectangle,5,-2,1,0,0,,3,6,0.00049,5,-2,1,0,0,,0,49,49,41,1,0,,,,,,,,,,,,,,,,,,,
,,,,,,,,,,,,,,,,,,,,,,,,,,,,,,,,,,,,,,,,,,604f48ad0cf8d55887cb172e,606841a6f508cd75d6c4050c,2021-04-03_12h23.39.941,Colour_Similarity_Experiment,2020.2.10,Win32,60,60674ec340277cd6a308bc9f,71.10386882,16.67728867,16.66189791,16.6797032,16.66673806,16.67728867,,,,,,,,,,,,,,,,,,,,PF,strong,3,,,,,,,,4,2.199555,,,,,,,,,,,,,,,,,,,,,,,,,,,,8,strong,61,-92,1,0,0,response3disk,7,51,-8,-5,1,0,0,rectangle,-8,-5,1,0,0,,3,5,0.00129,-8,-5,1,0,0,,0,50,50,86,1,0,,,,,,,,,,,,,,,,,,,
,,,,,,,,,,,,,,,,,,,,,,,,,,,,,,,,,,,,,,,,,,604f48ad0cf8d55887cb172e,606841a6f508cd75d6c4050c,2021-04-03_12h23.39.941,Colour_Similarity_Experiment,2020.2.10,Win32,60,60674ec340277cd6a308bc9f,71.10386882,16.67728867,16.66189791,16.6797032,16.66673806,16.67728867,,,,,,,,,,,,,,,,,,,,PF,weak,3,,,,,,,,0,1.129205,,,,,,,,,,,,,,,,,,,,,,,,,,,,5,weak,-45,88,1,0,0,response7disk,5,52,-3,1,1,0,0,rectangle,-3,1,1,0,0,,3,6,0.0005,-3,1,1,0,0,,0,51,51,94,1,0,,,,,,,,,,,,,,,,,,,
,,,,,,,,,,,,,,,,,,,,,,,,,,,,,,,,,,,,,,,,,,604f48ad0cf8d55887cb172e,606841a6f508cd75d6c4050c,2021-04-03_12h23.39.941,Colour_Similarity_Experiment,2020.2.10,Win32,60,60674ec340277cd6a308bc9f,71.10386882,16.67728867,16.66189791,16.6797032,16.66673806,16.67728867,,,,,,,,,,,,,,,,,,,,PF,strong,3,,,,,,,,1,1.899675,,,,,,,,,,,,,,,,,,,,,,,,,,,,4,strong,-70,46,1,0,0,response7disk,1,53,-11,-2,1,0,0,rectangle,-11,-2,1,0,0,,3,6,6.5E-05,-11,-2,1,0,0,,0,52,52,102,1,0,,,,,,,,,,,,,,,,,,,
,,,,,,,,,,,,,,,,,,,,,,,,,,,,,,,,,,,,,,,,,,604f48ad0cf8d55887cb172e,606841a6f508cd75d6c4050c,2021-04-03_12h23.39.941,Colour_Similarity_Experiment,2020.2.10,Win32,60,60674ec340277cd6a308bc9f,71.10386882,16.67728867,16.66189791,16.6797032,16.66673806,16.67728867,,,,,,,,,,,,,,,,,,,,PF,strong,3,,,,,,,,5,1.683155,,,,,,,,,,,,,,,,,,,,,,,,,,,,7,strong,72,-59,1,0,0,response3disk,4,54,-1,-13,1,0,0,rectangle,-1,-13,1,0,0,,3,7,0.00046,-1,-13,1,0,0,,0,53,53,158,1,0,,,,,,,,,,,,,,,,,,,
,,,,,,,,,,,,,,,,,,,,,,,,,,,,,,,,,,,,,,,,,,604f48ad0cf8d55887cb172e,606841a6f508cd75d6c4050c,2021-04-03_12h23.39.941,Colour_Similarity_Experiment,2020.2.10,Win32,60,60674ec340277cd6a308bc9f,71.10386882,16.67728867,16.66189791,16.6797032,16.66673806,16.67728867,,,,,,,,,,,,,,,,,,,,PF,weak,3,,,,,,,,4,1.912545,,,,,,,,,,,,,,,,,,,,,,,,,,,,8,weak,30,-99,1,0,0,response3disk,8,55,-15,-4,1,0,0,rectangle,-15,-4,1,0,0,,3,1,0.000575,-15,-4,1,0,0,,0,54,54,153,1,0,,,,,,,,,,,,,,,,,,,
,,,,,,,,,,,,,,,,,,,,,,,,,,,,,,,,,,,,,,,,,,604f48ad0cf8d55887cb172e,606841a6f508cd75d6c4050c,2021-04-03_12h23.39.941,Colour_Similarity_Experiment,2020.2.10,Win32,60,60674ec340277cd6a308bc9f,71.10386882,16.67728867,16.66189791,16.6797032,16.66673806,16.67728867,,,,,,,,,,,,,,,,,,,,PF,weak,3,,,,,,,,6,1.29589,,,,,,,,,,,,,,,,,,,,,,,,,,,,9,weak,86,41,1,0,0,response1disk,7,56,12,-7,1,0,0,rectangle,12,-7,1,0,0,,3,2,0.00068,12,-7,1,0,0,,0,55,55,121,1,0,,,,,,,,,,,,,,,,,,,
,,,,,,,,,,,,,,,,,,,,,,,,,,,,,,,,,,,,,,,,,,604f48ad0cf8d55887cb172e,606841a6f508cd75d6c4050c,2021-04-03_12h23.39.941,Colour_Similarity_Experiment,2020.2.10,Win32,60,60674ec340277cd6a308bc9f,71.10386882,16.67728867,16.66189791,16.6797032,16.66673806,16.67728867,,,,,,,,,,,,,,,,,,,,PF,strong,3,,,,,,,,5,1.617235,,,,,,,,,,,,,,,,,,,,,,,,,,,,8,strong,83,-61,1,0,0,response3disk,1,57,0,-2,1,0,0,rectangle,0,-2,1,0,0,,3,0,0.000495,0,-2,1,0,0,,0,56,56,20,1,0,,,,,,,,,,,,,,,,,,,
,,,,,,,,,,,,,,,,,,,,,,,,,,,,,,,,,,,,,,,,,,604f48ad0cf8d55887cb172e,606841a6f508cd75d6c4050c,2021-04-03_12h23.39.941,Colour_Similarity_Experiment,2020.2.10,Win32,60,60674ec340277cd6a308bc9f,71.10386882,16.67728867,16.66189791,16.6797032,16.66673806,16.67728867,,,,,,,,,,,,,,,,,,,,PF,strong,3,,,,,,,,3,1.18223,,,,,,,,,,,,,,,,,,,,,,,,,,,,3,strong,-52,-88,1,0,0,response5disk,6,58,-7,1,1,0,0,rectangle,-7,1,1,0,0,,3,7,0.00056,-7,1,1,0,0,,0,57,57,95,1,0,,,,,,,,,,,,,,,,,,,
,,,,,,,,,,,,,,,,,,,,,,,,,,,,,,,,,,,,,,,,,,604f48ad0cf8d55887cb172e,606841a6f508cd75d6c4050c,2021-04-03_12h23.39.941,Colour_Similarity_Experiment,2020.2.10,Win32,60,60674ec340277cd6a308bc9f,71.10386882,16.67728867,16.66189791,16.6797032,16.66673806,16.67728867,,,,,,,,,,,,,,,,,,,,PF,strong,3,,,,,,,,4,2.213005,,,,,,,,,,,,,,,,,,,,,,,,,,,,5,strong,72,-104,1,0,0,response3disk,7,59,7,0,1,0,0,rectangle,7,0,1,0,0,,3,0,0.0005,7,0,1,0,0,,0,58,58,7,1,0,,,,,,,,,,,,,,,,,,,
,,,,,,,,,,,,,,,,,,,,,,,,,,,,,,,,,,,,,,,,,,604f48ad0cf8d55887cb172e,606841a6f508cd75d6c4050c,2021-04-03_12h23.39.941,Colour_Similarity_Experiment,2020.2.10,Win32,60,60674ec340277cd6a308bc9f,71.10386882,16.67728867,16.66189791,16.6797032,16.66673806,16.67728867,,,,,,,,,,,,,,,,,,,,PF,weak,3,,,,,,,,6,1.09955,,,,,,,,,,,,,,,,,,,,,,,,,,,,2,weak,107,31,1,0,0,response1disk,5,60,9,-4,1,0,0,rectangle,9,-4,1,0,0,,3,2,0.00043,9,-4,1,0,0,,0,59,59,147,1,0,,,,,,,,,,,,,,,,,,,
,,,,,,,,,,,,,,,,,,,,,,,,,,,,,,,,,,,,,,,,,,604f48ad0cf8d55887cb172e,606841a6f508cd75d6c4050c,2021-04-03_12h23.39.941,Colour_Similarity_Experiment,2020.2.10,Win32,60,60674ec340277cd6a308bc9f,71.10386882,16.67728867,16.66189791,16.6797032,16.66673806,16.67728867,,,,,,,,,,,,,,,,,,,,PF,weak,3,,,,,,,,5,2.066355,,,,,,,,,,,,,,,,,,,,,,,,,,,,6,weak,107,-55,1,0,0,response3disk,8,61,16,-6,1,0,0,rectangle,16,-6,1,0,0,,3,4,0.000535,16,-6,1,0,0,,0,60,60,64,1,0,,,,,,,,,,,,,,,,,,,
,,,,,,,,,,,,,,,,,,,,,,,,,,,,,,,,,,,,,,,,,,604f48ad0cf8d55887cb172e,606841a6f508cd75d6c4050c,2021-04-03_12h23.39.941,Colour_Similarity_Experiment,2020.2.10,Win32,60,60674ec340277cd6a308bc9f,71.10386882,16.67728867,16.66189791,16.6797032,16.66673806,16.67728867,,,,,,,,,,,,,,,,,,,,PF,strong,3,,,,,,,,3,1.44963,,,,,,,,,,,,,,,,,,,,,,,,,,,,9,strong,-49,-79,1,0,0,response5disk,3,62,-7,0,1,0,0,rectangle,-7,0,1,0,0,,3,3,0.000505,-7,0,1,0,0,,0,61,61,141,1,0,,,,,,,,,,,,,,,,,,,
,,,,,,,,,,,,,,,,,,,,,,,,,,,,,,,,,,,,,,,,,,604f48ad0cf8d55887cb172e,606841a6f508cd75d6c4050c,2021-04-03_12h23.39.941,Colour_Similarity_Experiment,2020.2.10,Win32,60,60674ec340277cd6a308bc9f,71.10386882,16.67728867,16.66189791,16.6797032,16.66673806,16.67728867,,,,,,,,,,,,,,,,,,,,PF,weak,3,,,,,,,,5,1.41613,,,,,,,,,,,,,,,,,,,,,,,,,,,,8,weak,80,-61,1,0,0,response3disk,4,63,7,-2,1,0,0,rectangle,7,-2,1,0,0,,3,3,7.5E-05,7,-2,1,0,0,,0,62,62,78,1,0,,,,,,,,,,,,,,,,,,,
,,,,,,,,,,,,,,,,,,,,,,,,,,,,,,,,,,,,,,,,,,604f48ad0cf8d55887cb172e,606841a6f508cd75d6c4050c,2021-04-03_12h23.39.941,Colour_Similarity_Experiment,2020.2.10,Win32,60,60674ec340277cd6a308bc9f,71.10386882,16.67728867,16.66189791,16.6797032,16.66673806,16.67728867,,,,,,,,,,,,,,,,,,,,PF,strong,3,,,,,,,,1,1.312575,,,,,,,,,,,,,,,,,,,,,,,,,,,,1,strong,-76,40,1,0,0,response7disk,5,64,2,-10,1,0,0,rectangle,2,-10,1,0,0,,3,7,0.00074,2,-10,1,0,0,,0,63,63,82,1,0,,,,,,,,,,,,,,,,,,,
,,,,,,,,,,,,,,,,,,,,,,,,,,,,,,,,,,,,,,,,,,604f48ad0cf8d55887cb172e,606841a6f508cd75d6c4050c,2021-04-03_12h23.39.941,Colour_Similarity_Experiment,2020.2.10,Win32,60,60674ec340277cd6a308bc9f,71.10386882,16.67728867,16.66189791,16.6797032,16.66673806,16.67728867,,,,,,,,,,,,,,,,,,,,PF,weak,3,,,,,,,,7,1.38292,,,,,,,,,,,,,,,,,,,,,,,,,,,,5,weak,40,78,1,0,0,response1disk,1,65,-4,3,1,0,0,rectangle,-60,105,1,0,0,response7disk_3,0,0,1.75417,4,5,1,0,0,rectangle,0,64,64,159,1,1,,,,,,,,,,,,,,,,,,,
,,,,,,,,,,,,,,,,,,,,,,,,,,,,,,,,,,,,,,,,,,604f48ad0cf8d55887cb172e,606841a6f508cd75d6c4050c,2021-04-03_12h23.39.941,Colour_Similarity_Experiment,2020.2.10,Win32,60,60674ec340277cd6a308bc9f,71.10386882,16.67728867,16.66189791,16.6797032,16.66673806,16.67728867,,,,,,,,,,,,,,,,,,,,PF,strong,3,,,,,,,,4,2.016275,,,,,,,,,,,,,,,,,,,,,,,,,,,,2,strong,48,-83,1,0,0,response3disk,2,66,5,8,1,0,0,rectangle,5,8,1,0,0,,0,5,0.00047,5,8,1,0,0,,0,65,65,142,1,0,,,,,,,,,,,,,,,,,,,
,,,,,,,,,,,,,,,,,,,,,,,,,,,,,,,,,,,,,,,,,,604f48ad0cf8d55887cb172e,606841a6f508cd75d6c4050c,2021-04-03_12h23.39.941,Colour_Similarity_Experiment,2020.2.10,Win32,60,60674ec340277cd6a308bc9f,71.10386882,16.67728867,16.66189791,16.6797032,16.66673806,16.67728867,,,,,,,,,,,,,,,,,,,,PF,weak,3,,,,,,,,4,1.79987,,,,,,,,,,,,,,,,,,,,,,,,,,,,2,weak,31,-86,1,0,0,response3disk,3,67,-7,0,1,0,0,rectangle,-7,0,1,0,0,,0,5,8E-05,-7,0,1,0,0,,0,66,66,69,1,0,,,,,,,,,,,,,,,,,,,
,,,,,,,,,,,,,,,,,,,,,,,,,,,,,,,,,,,,,,,,,,604f48ad0cf8d55887cb172e,606841a6f508cd75d6c4050c,2021-04-03_12h23.39.941,Colour_Similarity_Experiment,2020.2.10,Win32,60,60674ec340277cd6a308bc9f,71.10386882,16.67728867,16.66189791,16.6797032,16.66673806,16.67728867,,,,,,,,,,,,,,,,,,,,PF,strong,3,,,,,,,,0,1.182955,,,,,,,,,,,,,,,,,,,,,,,,,,,,7,strong,-50,79,1,0,0,response7disk,7,68,0,2,1,0,0,rectangle,0,2,1,0,0,,0,0,0.000515,0,2,1,0,0,,0,67,67,34,1,0,,,,,,,,,,,,,,,,,,,
,,,,,,,,,,,,,,,,,,,,,,,,,,,,,,,,,,,,,,,,,,604f48ad0cf8d55887cb172e,606841a6f508cd75d6c4050c,2021-04-03_12h23.39.941,Colour_Similarity_Experiment,2020.2.10,Win32,60,60674ec340277cd6a308bc9f,71.10386882,16.67728867,16.66189791,16.6797032,16.66673806,16.67728867,,,,,,,,,,,,,,,,,,,,PF,weak,3,,,,,,,,6,1.19597,,,,,,,,,,,,,,,,,,,,,,,,,,,,1,weak,96,26,1,0,0,response1disk,6,69,3,-14,1,0,0,rectangle,3,-14,1,0,0,,0,4,0.00047,3,-14,1,0,0,,0,68,68,144,1,0,,,,,,,,,,,,,,,,,,,
,,,,,,,,,,,,,,,,,,,,,,,,,,,,,,,,,,,,,,,,,,604f48ad0cf8d55887cb172e,606841a6f508cd75d6c4050c,2021-04-03_12h23.39.941,Colour_Similarity_Experiment,2020.2.10,Win32,60,60674ec340277cd6a308bc9f,71.10386882,16.67728867,16.66189791,16.6797032,16.66673806,16.67728867,,,,,,,,,,,,,,,,,,,,PF,strong,3,,,,,,,,3,1.849475,,,,,,,,,,,,,,,,,,,,,,,,,,,,1,strong,-44,-82,1,0,0,response5disk,9,70,7,-2,1,0,0,rectangle,7,-2,1,0,0,,0,0,0.000465,7,-2,1,0,0,,0,69,69,123,1,0,,,,,,,,,,,,,,,,,,,
,,,,,,,,,,,,,,,,,,,,,,,,,,,,,,,,,,,,,,,,,,604f48ad0cf8d55887cb172e,606841a6f508cd75d6c4050c,2021-04-03_12h23.39.941,Colour_Similarity_Experiment,2020.2.10,Win32,60,60674ec340277cd6a308bc9f,71.10386882,16.67728867,16.66189791,16.6797032,16.66673806,16.67728867,,,,,,,,,,,,,,,,,,,,PF,strong,3,,,,,,,,5,1.79571,,,,,,,,,,,,,,,,,,,,,,,,,,,,1,strong,84,-57,1,0,0,response3disk,8,71,-6,0,1,0,0,rectangle,-6,0,1,0,0,,0,7,0.000465,-6,0,1,0,0,,0,70,70,27,1,0,,,,,,,,,,,,,,,,,,,
,,,,,,,,,,,,,,,,,,,,,,,,,,,,,,,,,,,,,,,,,,604f48ad0cf8d55887cb172e,606841a6f508cd75d6c4050c,2021-04-03_12h23.39.941,Colour_Similarity_Experiment,2020.2.10,Win32,60,60674ec340277cd6a308bc9f,71.10386882,16.67728867,16.66189791,16.6797032,16.66673806,16.67728867,,,,,,,,,,,,,,,,,,,,PF,weak,3,,,,,,,,4,2.345985,,,,,,,,,,,,,,,,,,,,,,,,,,,,5,weak,50,-93,1,0,0,response3disk,6,72,-7,-1,1,0,0,rectangle,-7,-1,1,0,0,,0,4,0.000495,-7,-1,1,0,0,,0,71,71,103,1,0,,,,,,,,,,,,,,,,,,,
,,,,,,,,,,,,,,,,,,,,,,,,,,,,,,,,,,,,,,,,,,604f48ad0cf8d55887cb172e,606841a6f508cd75d6c4050c,2021-04-03_12h23.39.941,Colour_Similarity_Experiment,2020.2.10,Win32,60,60674ec340277cd6a308bc9f,71.10386882,16.67728867,16.66189791,16.6797032,16.66673806,16.67728867,,,,,,,,,,,,,,,,,,,,PF,strong,3,,,,,,,,5,2.13047,,,,,,,,,,,,,,,,,,,,,,,,,,,,9,strong,88,-58,1,0,0,response3disk,8,73,-4,-1,1,0,0,rectangle,-4,-1,1,0,0,,0,6,0.001535,-4,-1,1,0,0,,0,72,72,6,1,0,,,,,,,,,,,,,,,,,,,
,,,,,,,,,,,,,,,,,,,,,,,,,,,,,,,,,,,,,,,,,,604f48ad0cf8d55887cb172e,606841a6f508cd75d6c4050c,2021-04-03_12h23.39.941,Colour_Similarity_Experiment,2020.2.10,Win32,60,60674ec340277cd6a308bc9f,71.10386882,16.67728867,16.66189791,16.6797032,16.66673806,16.67728867,,,,,,,,,,,,,,,,,,,,PF,strong,3,,,,,,,,3,1.10028,,,,,,,,,,,,,,,,,,,,,,,,,,,,5,strong,-56,-80,1,0,0,response5disk,6,74,8,-1,1,0,0,rectangle,8,-1,1,0,0,,0,2,0.001645,8,-1,1,0,0,,0,73,73,12,1,0,,,,,,,,,,,,,,,,,,,
,,,,,,,,,,,,,,,,,,,,,,,,,,,,,,,,,,,,,,,,,,604f48ad0cf8d55887cb172e,606841a6f508cd75d6c4050c,2021-04-03_12h23.39.941,Colour_Similarity_Experiment,2020.2.10,Win32,60,60674ec340277cd6a308bc9f,71.10386882,16.67728867,16.66189791,16.6797032,16.66673806,16.67728867,,,,,,,,,,,,,,,,,,,,PF,weak,3,,,,,,,,5,1.03492,,,,,,,,,,,,,,,,,,,,,,,,,,,,2,weak,116,-50,1,0,0,response3disk,6,75,20,-5,1,0,0,rectangle,20,-5,1,0,0,,0,7,0.00257,20,-5,1,0,0,,0,74,74,113,1,0,,,,,,,,,,,,,,,,,,,
,,,,,,,,,,,,,,,,,,,,,,,,,,,,,,,,,,,,,,,,,,604f48ad0cf8d55887cb172e,606841a6f508cd75d6c4050c,2021-04-03_12h23.39.941,Colour_Similarity_Experiment,2020.2.10,Win32,60,60674ec340277cd6a308bc9f,71.10386882,16.67728867,16.66189791,16.6797032,16.66673806,16.67728867,,,,,,,,,,,,,,,,,,,,PF,strong,3,,,,,,,,0,1.06672,,,,,,,,,,,,,,,,,,,,,,,,,,,,7,strong,-50,89,1,0,0,response7disk,6,76,-1,-8,1,0,0,rectangle,-1,-8,1,0,0,,0,1,0.001875,-1,-8,1,0,0,,0,75,75,31,1,0,,,,,,,,,,,,,,,,,,,
,,,,,,,,,,,,,,,,,,,,,,,,,,,,,,,,,,,,,,,,,,604f48ad0cf8d55887cb172e,606841a6f508cd75d6c4050c,2021-04-03_12h23.39.941,Colour_Similarity_Experiment,2020.2.10,Win32,60,60674ec340277cd6a308bc9f,71.10386882,16.67728867,16.66189791,16.6797032,16.66673806,16.67728867,,,,,,,,,,,,,,,,,,,,PF,strong,3,,,,,,,,0,0.90114,,,,,,,,,,,,,,,,,,,,,,,,,,,,3,strong,-49,93,1,0,0,response7disk,3,77,-7,1,1,0,0,rectangle,-7,1,1,0,0,,0,6,0.002495,-7,1,1,0,0,,0,76,76,68,1,0,,,,,,,,,,,,,,,,,,,
,,,,,,,,,,,,,,,,,,,,,,,,,,,,,,,,,,,,,,,,,,604f48ad0cf8d55887cb172e,606841a6f508cd75d6c4050c,2021-04-03_12h23.39.941,Colour_Similarity_Experiment,2020.2.10,Win32,60,60674ec340277cd6a308bc9f,71.10386882,16.67728867,16.66189791,16.6797032,16.66673806,16.67728867,,,,,,,,,,,,,,,,,,,,PF,weak,3,,,,,,,,3,1.300005,,,,,,,,,,,,,,,,,,,,,,,,,,,,1,weak,-53,-89,1,0,0,response5disk,2,78,-6,-6,1,0,0,rectangle,-6,-6,1,0,0,,0,3,0.000945,-6,-6,1,0,0,,0,77,77,24,1,0,,,,,,,,,,,,,,,,,,,
,,,,,,,,,,,,,,,,,,,,,,,,,,,,,,,,,,,,,,,,,,604f48ad0cf8d55887cb172e,606841a6f508cd75d6c4050c,2021-04-03_12h23.39.941,Colour_Similarity_Experiment,2020.2.10,Win32,60,60674ec340277cd6a308bc9f,71.10386882,16.67728867,16.66189791,16.6797032,16.66673806,16.67728867,,,,,,,,,,,,,,,,,,,,PF,weak,3,,,,,,,,3,1.083595,,,,,,,,,,,,,,,,,,,,,,,,,,,,3,weak,-58,-83,1,0,0,response5disk,2,79,-18,-6,1,0,0,rectangle,-112,-45,1,0,0,response5disk_3,0,2,3.016605,-11,-3,1,0,0,rectangle,0,78,78,36,1,1,,,,,,,,,,,,,,,,,,,
,,,,,,,,,,,,,,,,,,,,,,,,,,,,,,,,,,,,,,,,,,604f48ad0cf8d55887cb172e,606841a6f508cd75d6c4050c,2021-04-03_12h23.39.941,Colour_Similarity_Experiment,2020.2.10,Win32,60,60674ec340277cd6a308bc9f,71.10386882,16.67728867,16.66189791,16.6797032,16.66673806,16.67728867,,,,,,,,,,,,,,,,,,,,PF,weak,3,,,,,,,,3,1.016705,,,,,,,,,,,,,,,,,,,,,,,,,,,,3,weak,-57,-77,1,0,0,response5disk,6,80,-9,-1,1,0,0,rectangle,-9,-1,1,0,0,,0,5,0.000655,-9,-1,1,0,0,,0,79,79,47,1,0,,,,,,,,,,,,,,,,,,,
,,,,,,,,,,,,,,,,,,,,,,,,,,,,,,,,,,,,,,,,,,604f48ad0cf8d55887cb172e,606841a6f508cd75d6c4050c,2021-04-03_12h23.39.941,Colour_Similarity_Experiment,2020.2.10,Win32,60,60674ec340277cd6a308bc9f,71.10386882,16.67728867,16.66189791,16.6797032,16.66673806,16.67728867,,,,,,,,,,,,,,,,,,,,PF,strong,3,,,,,,,,6,1.33304,,,,,,,,,,,,,,,,,,,,,,,,,,,,7,strong,117,59,1,0,0,response1disk,1,81,-11,-2,1,0,0,rectangle,-11,-2,1,0,0,,0,6,0.000455,-11,-2,1,0,0,,0,80,80,132,1,0,,,,,,,,,,,,,,,,,,,
,,,,,,,,,,,,,,,,,,,,,,,,,,,,,,,,,,,,,,,,,,604f48ad0cf8d55887cb172e,606841a6f508cd75d6c4050c,2021-04-03_12h23.39.941,Colour_Similarity_Experiment,2020.2.10,Win32,60,60674ec340277cd6a308bc9f,71.10386882,16.67728867,16.66189791,16.6797032,16.66673806,16.67728867,,,,,,,,,,,,,,,,,,,,PF,strong,3,,,,,,,,7,1.16262,,,,,,,,,,,,,,,,,,,,,,,,,,,,3,strong,61,95,1,0,0,response1disk,1,82,-1,-9,1,0,0,rectangle,-1,-9,1,0,0,,0,4,0.00051,-1,-9,1,0,0,,0,81,81,125,1,0,,,,,,,,,,,,,,,,,,,
,,,,,,,,,,,,,,,,,,,,,,,,,,,,,,,,,,,,,,,,,,604f48ad0cf8d55887cb172e,606841a6f508cd75d6c4050c,2021-04-03_12h23.39.941,Colour_Similarity_Experiment,2020.2.10,Win32,60,60674ec340277cd6a308bc9f,71.10386882,16.67728867,16.66189791,16.6797032,16.66673806,16.67728867,,,,,,,,,,,,,,,,,,,,PF,weak,3,,,,,,,,7,1.333295,,,,,,,,,,,,,,,,,,,,,,,,,,,,1,weak,49,79,1,0,0,response1disk,8,83,-3,0,1,0,0,rectangle,-3,0,1,0,0,,0,2,0.000505,-3,0,1,0,0,,0,82,82,65,1,0,,,,,,,,,,,,,,,,,,,
,,,,,,,,,,,,,,,,,,,,,,,,,,,,,,,,,,,,,,,,,,604f48ad0cf8d55887cb172e,606841a6f508cd75d6c4050c,2021-04-03_12h23.39.941,Colour_Similarity_Experiment,2020.2.10,Win32,60,60674ec340277cd6a308bc9f,71.10386882,16.67728867,16.66189791,16.6797032,16.66673806,16.67728867,,,,,,,,,,,,,,,,,,,,PF,weak,3,,,,,,,,5,1.04949,,,,,,,,,,,,,,,,,,,,,,,,,,,,8,weak,87,-50,1,0,0,response3disk,2,84,1,3,1,0,0,rectangle,1,3,1,0,0,,0,3,0.000535,1,3,1,0,0,,0,83,83,83,1,0,,,,,,,,,,,,,,,,,,,
,,,,,,,,,,,,,,,,,,,,,,,,,,,,,,,,,,,,,,,,,,604f48ad0cf8d55887cb172e,606841a6f508cd75d6c4050c,2021-04-03_12h23.39.941,Colour_Similarity_Experiment,2020.2.10,Win32,60,60674ec340277cd6a308bc9f,71.10386882,16.67728867,16.66189791,16.6797032,16.66673806,16.67728867,,,,,,,,,,,,,,,,,,,,PF,strong,3,,,,,,,,2,1.79946,,,,,,,,,,,,,,,,,,,,,,,,,,,,4,strong,-73,-34,1,0,0,response5disk,5,85,1,1,1,0,0,rectangle,1,1,1,0,0,,0,5,0.000705,1,1,1,0,0,,0,84,84,116,1,0,,,,,,,,,,,,,,,,,,,
,,,,,,,,,,,,,,,,,,,,,,,,,,,,,,,,,,,,,,,,,,604f48ad0cf8d55887cb172e,606841a6f508cd75d6c4050c,2021-04-03_12h23.39.941,Colour_Similarity_Experiment,2020.2.10,Win32,60,60674ec340277cd6a308bc9f,71.10386882,16.67728867,16.66189791,16.6797032,16.66673806,16.67728867,,,,,,,,,,,,,,,,,,,,PF,strong,3,,,,,,,,2,1.08302,,,,,,,,,,,,,,,,,,,,,,,,,,,,6,strong,-80,-52,1,0,0,response5disk,6,86,-7,-4,1,0,0,rectangle,-7,-4,1,0,0,,0,7,0.000535,-7,-4,1,0,0,,0,85,85,91,1,0,,,,,,,,,,,,,,,,,,,
,,,,,,,,,,,,,,,,,,,,,,,,,,,,,,,,,,,,,,,,,,604f48ad0cf8d55887cb172e,606841a6f508cd75d6c4050c,2021-04-03_12h23.39.941,Colour_Similarity_Experiment,2020.2.10,Win32,60,60674ec340277cd6a308bc9f,71.10386882,16.67728867,16.66189791,16.6797032,16.66673806,16.67728867,,,,,,,,,,,,,,,,,,,,PF,strong,3,,,,,,,,2,0.99955,,,,,,,,,,,,,,,,,,,,,,,,,,,,7,strong,-68,-53,1,0,0,response5disk,3,87,-9,3,1,0,0,rectangle,-9,3,1,0,0,,0,2,0.0005,-9,3,1,0,0,,0,86,86,73,1,0,,,,,,,,,,,,,,,,,,,
,,,,,,,,,,,,,,,,,,,,,,,,,,,,,,,,,,,,,,,,,,604f48ad0cf8d55887cb172e,606841a6f508cd75d6c4050c,2021-04-03_12h23.39.941,Colour_Similarity_Experiment,2020.2.10,Win32,60,60674ec340277cd6a308bc9f,71.10386882,16.67728867,16.66189791,16.6797032,16.66673806,16.67728867,,,,,,,,,,,,,,,,,,,,PF,weak,3,,,,,,,,5,1.546365,,,,,,,,,,,,,,,,,,,,,,,,,,,,2,weak,76,-53,1,0,0,response3disk,8,88,-4,-7,1,0,0,rectangle,-4,-7,1,0,0,,0,2,6E-05,-4,-7,1,0,0,,0,87,87,52,1,0,,,,,,,,,,,,,,,,,,,
,,,,,,,,,,,,,,,,,,,,,,,,,,,,,,,,,,,,,,,,,,604f48ad0cf8d55887cb172e,606841a6f508cd75d6c4050c,2021-04-03_12h23.39.941,Colour_Similarity_Experiment,2020.2.10,Win32,60,60674ec340277cd6a308bc9f,71.10386882,16.67728867,16.66189791,16.6797032,16.66673806,16.67728867,,,,,,,,,,,,,,,,,,,,PF,weak,3,,,,,,,,6,2.133095,,,,,,,,,,,,,,,,,,,,,,,,,,,,3,weak,91,43,1,0,0,response1disk,9,89,-11,-4,1,0,0,rectangle,-11,-4,1,0,0,,0,4,0.000485,-11,-4,1,0,0,,0,88,88,79,1,0,,,,,,,,,,,,,,,,,,,
,,,,,,,,,,,,,,,,,,,,,,,,,,,,,,,,,,,,,,,,,,604f48ad0cf8d55887cb172e,606841a6f508cd75d6c4050c,2021-04-03_12h23.39.941,Colour_Similarity_Experiment,2020.2.10,Win32,60,60674ec340277cd6a308bc9f,71.10386882,16.67728867,16.66189791,16.6797032,16.66673806,16.67728867,,,,,,,,,,,,,,,,,,,,PF,strong,3,,,,,,,,3,1.8961,,,,,,,,,,,,,,,,,,,,,,,,,,,,8,strong,-32,-76,1,0,0,response5disk,4,90,6,-6,1,0,0,rectangle,6,-6,1,0,0,,0,2,0.00049,6,-6,1,0,0,,0,89,89,88,1,0,,,,,,,,,,,,,,,,,,,
,,,,,,,,,,,,,,,,,,,,,,,,,,,,,,,,,,,,,,,,,,604f48ad0cf8d55887cb172e,606841a6f508cd75d6c4050c,2021-04-03_12h23.39.941,Colour_Similarity_Experiment,2020.2.10,Win32,60,60674ec340277cd6a308bc9f,71.10386882,16.67728867,16.66189791,16.6797032,16.66673806,16.67728867,,,,,,,,,,,,,,,,,,,,PF,strong,3,,,,,,,,4,1.93308,,,,,,,,,,,,,,,,,,,,,,,,,,,,8,strong,37,-86,1,0,0,response3disk,9,91,-1,0,1,0,0,rectangle,-1,0,1,0,0,,0,0,0.00045,-1,0,1,0,0,,0,90,90,105,1,0,,,,,,,,,,,,,,,,,,,
,,,,,,,,,,,,,,,,,,,,,,,,,,,,,,,,,,,,,,,,,,604f48ad0cf8d55887cb172e,606841a6f508cd75d6c4050c,2021-04-03_12h23.39.941,Colour_Similarity_Experiment,2020.2.10,Win32,60,60674ec340277cd6a308bc9f,71.10386882,16.67728867,16.66189791,16.6797032,16.66673806,16.67728867,,,,,,,,,,,,,,,,,,,,PF,strong,3,,,,,,,,5,1.116305,,,,,,,,,,,,,,,,,,,,,,,,,,,,8,strong,69,-55,1,0,0,response3disk,5,92,-3,0,1,0,0,rectangle,-3,0,1,0,0,,0,7,0.00048,-3,0,1,0,0,,0,91,91,152,1,0,,,,,,,,,,,,,,,,,,,
,,,,,,,,,,,,,,,,,,,,,,,,,,,,,,,,,,,,,,,,,,604f48ad0cf8d55887cb172e,606841a6f508cd75d6c4050c,2021-04-03_12h23.39.941,Colour_Similarity_Experiment,2020.2.10,Win32,60,60674ec340277cd6a308bc9f,71.10386882,16.67728867,16.66189791,16.6797032,16.66673806,16.67728867,,,,,,,,,,,,,,,,,,,,PF,strong,3,,,,,,,,4,1.46621,,,,,,,,,,,,,,,,,,,,,,,,,,,,7,strong,49,-92,1,0,0,response3disk,2,93,-7,-4,1,0,0,rectangle,-7,-4,1,0,0,,0,2,0.000535,-7,-4,1,0,0,,0,92,92,138,1,0,,,,,,,,,,,,,,,,,,,
,,,,,,,,,,,,,,,,,,,,,,,,,,,,,,,,,,,,,,,,,,604f48ad0cf8d55887cb172e,606841a6f508cd75d6c4050c,2021-04-03_12h23.39.941,Colour_Similarity_Experiment,2020.2.10,Win32,60,60674ec340277cd6a308bc9f,71.10386882,16.67728867,16.66189791,16.6797032,16.66673806,16.67728867,,,,,,,,,,,,,,,,,,,,PF,strong,3,,,,,,,,5,1.14589,,,,,,,,,,,,,,,,,,,,,,,,,,,,1,strong,71,-48,1,0,0,response3disk,4,94,5,-12,1,0,0,rectangle,5,-12,1,0,0,,0,3,0.000475,5,-12,1,0,0,,0,93,93,135,1,0,,,,,,,,,,,,,,,,,,,
,,,,,,,,,,,,,,,,,,,,,,,,,,,,,,,,,,,,,,,,,,604f48ad0cf8d55887cb172e,606841a6f508cd75d6c4050c,2021-04-03_12h23.39.941,Colour_Similarity_Experiment,2020.2.10,Win32,60,60674ec340277cd6a308bc9f,71.10386882,16.67728867,16.66189791,16.6797032,16.66673806,16.67728867,,,,,,,,,,,,,,,,,,,,PF,strong,3,,,,,,,,6,2.562715,,,,,,,,,,,,,,,,,,,,,,,,,,,,2,strong,98,46,1,0,0,response1disk,6,95,4,-3,1,0,0,rectangle,4,-3,1,0,0,,0,6,0.000555,4,-3,1,0,0,,0,94,94,40,1,0,,,,,,,,,,,,,,,,,,,
,,,,,,,,,,,,,,,,,,,,,,,,,,,,,,,,,,,,,,,,,,604f48ad0cf8d55887cb172e,606841a6f508cd75d6c4050c,2021-04-03_12h23.39.941,Colour_Similarity_Experiment,2020.2.10,Win32,60,60674ec340277cd6a308bc9f,71.10386882,16.67728867,16.66189791,16.6797032,16.66673806,16.67728867,,,,,,,,,,,,,,,,,,,,PF,strong,3,,,,,,,,2,1.265875,,,,,,,,,,,,,,,,,,,,,,,,,,,,7,strong,-77,-58,1,0,0,response5disk,5,96,-15,-5,1,0,0,rectangle,-15,-5,1,0,0,,0,2,0.00052,-15,-5,1,0,0,,0,95,95,156,1,0,,,,,,,,,,,,,,,,,,,
,,,,,,,,,,,,,,,,,,,,,,,,,,,,,,,,,,,,,,,,,,604f48ad0cf8d55887cb172e,606841a6f508cd75d6c4050c,2021-04-03_12h23.39.941,Colour_Similarity_Experiment,2020.2.10,Win32,60,60674ec340277cd6a308bc9f,71.10386882,16.67728867,16.66189791,16.6797032,16.66673806,16.67728867,,,,,,,,,,,,,,,,,,,,PF,strong,3,,,,,,,,4,1.21633,,,,,,,,,,,,,,,,,,,,,,,,,,,,8,strong,44,-88,1,0,0,response3disk,3,97,-4,-2,1,0,0,rectangle,-4,-2,1,0,0,,0,2,6.5E-05,-4,-2,1,0,0,,0,96,96,154,1,0,,,,,,,,,,,,,,,,,,,
,,,,,,,,,,,,,,,,,,,,,,,,,,,,,,,,,,,,,,,,,,604f48ad0cf8d55887cb172e,606841a6f508cd75d6c4050c,2021-04-03_12h23.39.941,Colour_Similarity_Experiment,2020.2.10,Win32,60,60674ec340277cd6a308bc9f,71.10386882,16.67728867,16.66189791,16.6797032,16.66673806,16.67728867,,,,,,,,,,,,,,,,,,,,PF,weak,3,,,,,,,,6,1.29589,,,,,,,,,,,,,,,,,,,,,,,,,,,,4,weak,96,49,1,0,0,response1disk,7,98,7,-1,1,0,0,rectangle,7,-1,1,0,0,,0,1,0.00051,7,-1,1,0,0,,0,97,97,38,1,0,,,,,,,,,,,,,,,,,,,
,,,,,,,,,,,,,,,,,,,,,,,,,,,,,,,,,,,,,,,,,,604f48ad0cf8d55887cb172e,606841a6f508cd75d6c4050c,2021-04-03_12h23.39.941,Colour_Similarity_Experiment,2020.2.10,Win32,60,60674ec340277cd6a308bc9f,71.10386882,16.67728867,16.66189791,16.6797032,16.66673806,16.67728867,,,,,,,,,,,,,,,,,,,,PF,weak,3,,,,,,,,6,2.09966,,,,,,,,,,,,,,,,,,,,,,,,,,,,6,weak,126,36,1,0,0,response1disk,1,99,-8,-11,1,0,0,rectangle,-8,-11,1,0,0,,0,1,0.00019,-8,-11,1,0,0,,0,98,98,46,1,0,,,,,,,,,,,,,,,,,,,
,,,,,,,,,,,,,,,,,,,,,,,,,,,,,,,,,,,,,,,,,,604f48ad0cf8d55887cb172e,606841a6f508cd75d6c4050c,2021-04-03_12h23.39.941,Colour_Similarity_Experiment,2020.2.10,Win32,60,60674ec340277cd6a308bc9f,71.10386882,16.67728867,16.66189791,16.6797032,16.66673806,16.67728867,,,,,,,,,,,,,,,,,,,,PF,weak,3,,,,,,,,4,1.29598,,,,,,,,,,,,,,,,,,,,,,,,,,,,9,weak,55,-87,1,0,0,response3disk,8,100,-2,-2,1,0,0,rectangle,-2,-2,1,0,0,,0,5,0.000515,-2,-2,1,0,0,,0,99,99,67,1,0,,,,,,,,,,,,,,,,,,,
,,,,,,,,,,,,,,,,,,,,,,,,,,,,,,,,,,,,,,,,,,604f48ad0cf8d55887cb172e,606841a6f508cd75d6c4050c,2021-04-03_12h23.39.941,Colour_Similarity_Experiment,2020.2.10,Win32,60,60674ec340277cd6a308bc9f,71.10386882,16.67728867,16.66189791,16.6797032,16.66673806,16.67728867,,,,,,,,,,,,,,,,,,,,PF,strong,3,,,,,,,,5,1.262455,,,,,,,,,,,,,,,,,,,,,,,,,,,,9,strong,82,-52,1,0,0,response3disk,4,101,6,-4,1,0,0,rectangle,6,-4,1,0,0,,0,2,0.00056,6,-4,1,0,0,,0,100,100,60,1,0,,,,,,,,,,,,,,,,,,,
,,,,,,,,,,,,,,,,,,,,,,,,,,,,,,,,,,,,,,,,,,604f48ad0cf8d55887cb172e,606841a6f508cd75d6c4050c,2021-04-03_12h23.39.941,Colour_Similarity_Experiment,2020.2.10,Win32,60,60674ec340277cd6a308bc9f,71.10386882,16.67728867,16.66189791,16.6797032,16.66673806,16.67728867,,,,,,,,,,,,,,,,,,,,PF,weak,3,,,,,,,,7,1.29958,,,,,,,,,,,,,,,,,,,,,,,,,,,,2,weak,50,89,1,0,0,response1disk,7,102,2,-3,1,0,0,rectangle,2,-3,1,0,0,,0,0,0.000605,2,-3,1,0,0,,0,101,101,107,1,0,,,,,,,,,,,,,,,,,,,
,,,,,,,,,,,,,,,,,,,,,,,,,,,,,,,,,,,,,,,,,,604f48ad0cf8d55887cb172e,606841a6f508cd75d6c4050c,2021-04-03_12h23.39.941,Colour_Similarity_Experiment,2020.2.10,Win32,60,60674ec340277cd6a308bc9f,71.10386882,16.67728867,16.66189791,16.6797032,16.66673806,16.67728867,,,,,,,,,,,,,,,,,,,,PF,weak,3,,,,,,,,5,1.282935,,,,,,,,,,,,,,,,,,,,,,,,,,,,8,weak,115,-41,1,0,0,response3disk,3,103,6,3,1,0,0,rectangle,6,3,1,0,0,,0,6,0.00049,6,3,1,0,0,,0,102,102,71,1,0,,,,,,,,,,,,,,,,,,,
,,,,,,,,,,,,,,,,,,,,,,,,,,,,,,,,,,,,,,,,,,604f48ad0cf8d55887cb172e,606841a6f508cd75d6c4050c,2021-04-03_12h23.39.941,Colour_Similarity_Experiment,2020.2.10,Win32,60,60674ec340277cd6a308bc9f,71.10386882,16.67728867,16.66189791,16.6797032,16.66673806,16.67728867,,,,,,,,,,,,,,,,,,,,PF,strong,3,,,,,,,,4,1.499725,,,,,,,,,,,,,,,,,,,,,,,,,,,,7,strong,63,-94,1,0,0,response3disk,9,104,-3,-4,1,0,0,rectangle,-3,-4,1,0,0,,0,0,0.000425,-3,-4,1,0,0,,0,103,103,155,1,0,,,,,,,,,,,,,,,,,,,
,,,,,,,,,,,,,,,,,,,,,,,,,,,,,,,,,,,,,,,,,,604f48ad0cf8d55887cb172e,606841a6f508cd75d6c4050c,2021-04-03_12h23.39.941,Colour_Similarity_Experiment,2020.2.10,Win32,60,60674ec340277cd6a308bc9f,71.10386882,16.67728867,16.66189791,16.6797032,16.66673806,16.67728867,,,,,,,,,,,,,,,,,,,,PF,strong,3,,,,,,,,0,1.432755,,,,,,,,,,,,,,,,,,,,,,,,,,,,3,strong,-54,89,1,0,0,response7disk,4,105,3,0,1,0,0,rectangle,3,0,1,0,0,,0,3,0.000485,3,0,1,0,0,,0,104,104,110,1,0,,,,,,,,,,,,,,,,,,,
,,,,,,,,,,,,,,,,,,,,,,,,,,,,,,,,,,,,,,,,,,604f48ad0cf8d55887cb172e,606841a6f508cd75d6c4050c,2021-04-03_12h23.39.941,Colour_Similarity_Experiment,2020.2.10,Win32,60,60674ec340277cd6a308bc9f,71.10386882,16.67728867,16.66189791,16.6797032,16.66673806,16.67728867,,,,,,,,,,,,,,,,,,,,PF,weak,3,,,,,,,,0,1.132795,,,,,,,,,,,,,,,,,,,,,,,,,,,,8,weak,-58,85,1,0,0,response7disk,7,106,-4,2,1,0,0,rectangle,-4,2,1,0,0,,0,7,0.000465,-4,2,1,0,0,,0,105,105,23,1,0,,,,,,,,,,,,,,,,,,,
,,,,,,,,,,,,,,,,,,,,,,,,,,,,,,,,,,,,,,,,,,604f48ad0cf8d55887cb172e,606841a6f508cd75d6c4050c,2021-04-03_12h23.39.941,Colour_Similarity_Experiment,2020.2.10,Win32,60,60674ec340277cd6a308bc9f,71.10386882,16.67728867,16.66189791,16.6797032,16.66673806,16.67728867,,,,,,,,,,,,,,,,,,,,PF,strong,3,,,,,,,,3,1.46616,,,,,,,,,,,,,,,,,,,,,,,,,,,,5,strong,-45,-86,1,0,0,response5disk,4,107,13,5,1,0,0,rectangle,13,5,1,0,0,,0,2,0.000525,13,5,1,0,0,,0,106,106,8,1,0,,,,,,,,,,,,,,,,,,,
,,,,,,,,,,,,,,,,,,,,,,,,,,,,,,,,,,,,,,,,,,604f48ad0cf8d55887cb172e,606841a6f508cd75d6c4050c,2021-04-03_12h23.39.941,Colour_Similarity_Experiment,2020.2.10,Win32,60,60674ec340277cd6a308bc9f,71.10386882,16.67728867,16.66189791,16.6797032,16.66673806,16.67728867,,,,,,,,,,,,,,,,,,,,PF,weak,3,,,,,,,,7,1.29639,,,,,,,,,,,,,,,,,,,,,,,,,,,,1,weak,70,96,1,0,0,response1disk,5,108,0,-6,1,0,0,rectangle,0,-6,1,0,0,,0,0,0.000535,0,-6,1,0,0,,0,107,107,28,1,0,,,,,,,,,,,,,,,,,,,
,,,,,,,,,,,,,,,,,,,,,,,,,,,,,,,,,,,,,,,,,,604f48ad0cf8d55887cb172e,606841a6f508cd75d6c4050c,2021-04-03_12h23.39.941,Colour_Similarity_Experiment,2020.2.10,Win32,60,60674ec340277cd6a308bc9f,71.10386882,16.67728867,16.66189791,16.6797032,16.66673806,16.67728867,,,,,,,,,,,,,,,,,,,,PF,strong,3,,,,,,,,5,1.51655,,,,,,,,,,,,,,,,,,,,,,,,,,,,9,strong,84,-60,1,0,0,response3disk,7,109,-14,2,1,0,0,rectangle,-14,2,1,0,0,,0,1,0.000505,-14,2,1,0,0,,0,108,108,100,1,0,,,,,,,,,,,,,,,,,,,
,,,,,,,,,,,,,,,,,,,,,,,,,,,,,,,,,,,,,,,,,,604f48ad0cf8d55887cb172e,606841a6f508cd75d6c4050c,2021-04-03_12h23.39.941,Colour_Similarity_Experiment,2020.2.10,Win32,60,60674ec340277cd6a308bc9f,71.10386882,16.67728867,16.66189791,16.6797032,16.66673806,16.67728867,,,,,,,,,,,,,,,,,,,,PF,strong,3,,,,,,,,1,1.14989,,,,,,,,,,,,,,,,,,,,,,,,,,,,6,strong,-81,30,1,0,0,response7disk,4,110,-19,-4,1,0,0,rectangle,-19,-4,1,0,0,,0,6,0.00068,-19,-4,1,0,0,,0,109,109,56,1,0,,,,,,,,,,,,,,,,,,,
,,,,,,,,,,,,,,,,,,,,,,,,,,,,,,,,,,,,,,,,,,604f48ad0cf8d55887cb172e,606841a6f508cd75d6c4050c,2021-04-03_12h23.39.941,Colour_Similarity_Experiment,2020.2.10,Win32,60,60674ec340277cd6a308bc9f,71.10386882,16.67728867,16.66189791,16.6797032,16.66673806,16.67728867,,,,,,,,,,,,,,,,,,,,PF,strong,3,,,,,,,,3,1.48317,,,,,,,,,,,,,,,,,,,,,,,,,,,,2,strong,-54,-82,1,0,0,response5disk,9,111,-2,-8,1,0,0,rectangle,-2,-8,1,0,0,,0,7,0.001015,-2,-8,1,0,0,,0,110,110,72,1,0,,,,,,,,,,,,,,,,,,,
,,,,,,,,,,,,,,,,,,,,,,,,,,,,,,,,,,,,,,,,,,604f48ad0cf8d55887cb172e,606841a6f508cd75d6c4050c,2021-04-03_12h23.39.941,Colour_Similarity_Experiment,2020.2.10,Win32,60,60674ec340277cd6a308bc9f,71.10386882,16.67728867,16.66189791,16.6797032,16.66673806,16.67728867,,,,,,,,,,,,,,,,,,,,PF,weak,3,,,,,,,,0,1.11663,,,,,,,,,,,,,,,,,,,,,,,,,,,,3,weak,-49,110,1,0,0,response7disk,4,112,-6,4,1,0,0,rectangle,-6,4,1,0,0,,0,7,8E-05,-6,4,1,0,0,,0,111,111,30,1,0,,,,,,,,,,,,,,,,,,,
,,,,,,,,,,,,,,,,,,,,,,,,,,,,,,,,,,,,,,,,,,604f48ad0cf8d55887cb172e,606841a6f508cd75d6c4050c,2021-04-03_12h23.39.941,Colour_Similarity_Experiment,2020.2.10,Win32,60,60674ec340277cd6a308bc9f,71.10386882,16.67728867,16.66189791,16.6797032,16.66673806,16.67728867,,,,,,,,,,,,,,,,,,,,PF,strong,3,,,,,,,,4,1.86159,,,,,,,,,,,,,,,,,,,,,,,,,,,,6,strong,55,-102,1,0,0,response3disk,3,113,-10,0,1,0,0,rectangle,-10,0,1,0,0,,0,4,0.00044,-10,0,1,0,0,,0,112,112,21,1,0,,,,,,,,,,,,,,,,,,,
,,,,,,,,,,,,,,,,,,,,,,,,,,,,,,,,,,,,,,,,,,604f48ad0cf8d55887cb172e,606841a6f508cd75d6c4050c,2021-04-03_12h23.39.941,Colour_Similarity_Experiment,2020.2.10,Win32,60,60674ec340277cd6a308bc9f,71.10386882,16.67728867,16.66189791,16.6797032,16.66673806,16.67728867,,,,,,,,,,,,,,,,,,,,PF,strong,3,,,,,,,,5,1.71648,,,,,,,,,,,,,,,,,,,,,,,,,,,,5,strong,103,-59,1,0,0,response3disk,9,114,-10,-6,1,0,0,rectangle,-10,-6,1,0,0,,0,2,0.000485,-10,-6,1,0,0,,0,113,113,61,1,0,,,,,,,,,,,,,,,,,,,
,,,,,,,,,,,,,,,,,,,,,,,,,,,,,,,,,,,,,,,,,,604f48ad0cf8d55887cb172e,606841a6f508cd75d6c4050c,2021-04-03_12h23.39.941,Colour_Similarity_Experiment,2020.2.10,Win32,60,60674ec340277cd6a308bc9f,71.10386882,16.67728867,16.66189791,16.6797032,16.66673806,16.67728867,,,,,,,,,,,,,,,,,,,,PF,strong,3,,,,,,,,3,1.249855,,,,,,,,,,,,,,,,,,,,,,,,,,,,5,strong,-54,-73,1,0,0,response5disk,2,115,-3,-5,1,0,0,rectangle,-55,-117,1,0,0,response5disk_3,3,3,3.946565,-4,-13,1,0,0,rectangle,0,114,114,55,1,1,,,,,,,,,,,,,,,,,,,
,,,,,,,,,,,,,,,,,,,,,,,,,,,,,,,,,,,,,,,,,,604f48ad0cf8d55887cb172e,606841a6f508cd75d6c4050c,2021-04-03_12h23.39.941,Colour_Similarity_Experiment,2020.2.10,Win32,60,60674ec340277cd6a308bc9f,71.10386882,16.67728867,16.66189791,16.6797032,16.66673806,16.67728867,,,,,,,,,,,,,,,,,,,,PF,strong,3,,,,,,,,3,1.51659,,,,,,,,,,,,,,,,,,,,,,,,,,,,3,strong,-47,-81,1,0,0,response5disk,5,116,1,2,1,0,0,rectangle,1,2,1,0,0,,3,1,0.000685,1,2,1,0,0,,0,115,115,101,1,0,,,,,,,,,,,,,,,,,,,
,,,,,,,,,,,,,,,,,,,,,,,,,,,,,,,,,,,,,,,,,,604f48ad0cf8d55887cb172e,606841a6f508cd75d6c4050c,2021-04-03_12h23.39.941,Colour_Similarity_Experiment,2020.2.10,Win32,60,60674ec340277cd6a308bc9f,71.10386882,16.67728867,16.66189791,16.6797032,16.66673806,16.67728867,,,,,,,,,,,,,,,,,,,,PF,weak,3,,,,,,,,6,1.312085,,,,,,,,,,,,,,,,,,,,,,,,,,,,9,weak,93,30,1,0,0,response1disk,3,117,2,-16,1,0,0,rectangle,2,-16,1,0,0,,3,5,0.00043,2,-16,1,0,0,,0,116,116,119,1,0,,,,,,,,,,,,,,,,,,,
,,,,,,,,,,,,,,,,,,,,,,,,,,,,,,,,,,,,,,,,,,604f48ad0cf8d55887cb172e,606841a6f508cd75d6c4050c,2021-04-03_12h23.39.941,Colour_Similarity_Experiment,2020.2.10,Win32,60,60674ec340277cd6a308bc9f,71.10386882,16.67728867,16.66189791,16.6797032,16.66673806,16.67728867,,,,,,,,,,,,,,,,,,,,PF,strong,3,,,,,,,,3,1.249845,,,,,,,,,,,,,,,,,,,,,,,,,,,,2,strong,-58,-90,1,0,0,response5disk,4,118,-2,-14,1,0,0,rectangle,-2,-14,1,0,0,,3,6,0.00077,-2,-14,1,0,0,,0,117,117,145,1,0,,,,,,,,,,,,,,,,,,,
,,,,,,,,,,,,,,,,,,,,,,,,,,,,,,,,,,,,,,,,,,604f48ad0cf8d55887cb172e,606841a6f508cd75d6c4050c,2021-04-03_12h23.39.941,Colour_Similarity_Experiment,2020.2.10,Win32,60,60674ec340277cd6a308bc9f,71.10386882,16.67728867,16.66189791,16.6797032,16.66673806,16.67728867,,,,,,,,,,,,,,,,,,,,PF,weak,3,,,,,,,,0,0.961645,,,,,,,,,,,,,,,,,,,,,,,,,,,,9,weak,-51,67,1,0,0,response7disk,9,119,-2,4,1,0,0,rectangle,-2,4,1,0,0,,3,5,0.00051,-2,4,1,0,0,,0,118,118,106,1,0,,,,,,,,,,,,,,,,,,,
,,,,,,,,,,,,,,,,,,,,,,,,,,,,,,,,,,,,,,,,,,604f48ad0cf8d55887cb172e,606841a6f508cd75d6c4050c,2021-04-03_12h23.39.941,Colour_Similarity_Experiment,2020.2.10,Win32,60,60674ec340277cd6a308bc9f,71.10386882,16.67728867,16.66189791,16.6797032,16.66673806,16.67728867,,,,,,,,,,,,,,,,,,,,PF,strong,3,,,,,,,,5,1.93291,,,,,,,,,,,,,,,,,,,,,,,,,,,,4,strong,111,-59,1,0,0,response3disk,2,120,-9,-4,1,0,0,rectangle,-9,-4,1,0,0,,3,5,6E-05,-9,-4,1,0,0,,0,119,119,13,1,0,,,,,,,,,,,,,,,,,,,
,,,,,,,,,,,,,,,,,,,,,,,,,,,,,,,,,,,,,,,,,,604f48ad0cf8d55887cb172e,606841a6f508cd75d6c4050c,2021-04-03_12h23.39.941,Colour_Similarity_Experiment,2020.2.10,Win32,60,60674ec340277cd6a308bc9f,71.10386882,16.67728867,16.66189791,16.6797032,16.66673806,16.67728867,,,,,,,,,,,,,,,,,,,,PF,strong,3,,,,,,,,6,1.078485,,,,,,,,,,,,,,,,,,,,,,,,,,,,3,strong,91,39,1,0,0,response1disk,8,121,-17,-5,1,0,0,rectangle,-17,-5,1,0,0,,3,4,0.000735,-17,-5,1,0,0,,0,120,120,44,1,0,,,,,,,,,,,,,,,,,,,
,,,,,,,,,,,,,,,,,,,,,,,,,,,,,,,,,,,,,,,,,,604f48ad0cf8d55887cb172e,606841a6f508cd75d6c4050c,2021-04-03_12h23.39.941,Colour_Similarity_Experiment,2020.2.10,Win32,60,60674ec340277cd6a308bc9f,71.10386882,16.67728867,16.66189791,16.6797032,16.66673806,16.67728867,,,,,,,,,,,,,,,,,,,,PF,weak,3,,,,,,,,7,1.26603,,,,,,,,,,,,,,,,,,,,,,,,,,,,4,weak,54,88,1,0,0,response1disk,9,122,8,14,1,0,0,rectangle,8,14,1,0,0,,3,0,0.000765,8,14,1,0,0,,0,121,121,75,1,0,,,,,,,,,,,,,,,,,,,
,,,,,,,,,,,,,,,,,,,,,,,,,,,,,,,,,,,,,,,,,,604f48ad0cf8d55887cb172e,606841a6f508cd75d6c4050c,2021-04-03_12h23.39.941,Colour_Similarity_Experiment,2020.2.10,Win32,60,60674ec340277cd6a308bc9f,71.10386882,16.67728867,16.66189791,16.6797032,16.66673806,16.67728867,,,,,,,,,,,,,,,,,,,,PF,weak,3,,,,,,,,5,1.21152,,,,,,,,,,,,,,,,,,,,,,,,,,,,6,weak,126,-68,1,0,0,response3disk,3,123,21,-9,1,0,0,rectangle,21,-9,1,0,0,,3,1,0.000675,21,-9,1,0,0,,0,122,122,26,1,0,,,,,,,,,,,,,,,,,,,
,,,,,,,,,,,,,,,,,,,,,,,,,,,,,,,,,,,,,,,,,,604f48ad0cf8d55887cb172e,606841a6f508cd75d6c4050c,2021-04-03_12h23.39.941,Colour_Similarity_Experiment,2020.2.10,Win32,60,60674ec340277cd6a308bc9f,71.10386882,16.67728867,16.66189791,16.6797032,16.66673806,16.67728867,,,,,,,,,,,,,,,,,,,,PF,weak,3,,,,,,,,6,1.31629,,,,,,,,,,,,,,,,,,,,,,,,,,,,5,weak,106,44,1,0,0,response1disk,7,124,-16,-2,1,0,0,rectangle,-16,-2,1,0,0,,3,0,0.00166,-16,-2,1,0,0,,0,123,123,146,1,0,,,,,,,,,,,,,,,,,,,
,,,,,,,,,,,,,,,,,,,,,,,,,,,,,,,,,,,,,,,,,,604f48ad0cf8d55887cb172e,606841a6f508cd75d6c4050c,2021-04-03_12h23.39.941,Colour_Similarity_Experiment,2020.2.10,Win32,60,60674ec340277cd6a308bc9f,71.10386882,16.67728867,16.66189791,16.6797032,16.66673806,16.67728867,,,,,,,,,,,,,,,,,,,,PF,strong,3,,,,,,,,6,1.0662,,,,,,,,,,,,,,,,,,,,,,,,,,,,2,strong,110,48,1,0,0,response1disk,1,125,-9,4,1,0,0,rectangle,-9,4,1,0,0,,3,2,0.00049,-9,4,1,0,0,,0,124,124,85,1,0,,,,,,,,,,,,,,,,,,,
,,,,,,,,,,,,,,,,,,,,,,,,,,,,,,,,,,,,,,,,,,604f48ad0cf8d55887cb172e,606841a6f508cd75d6c4050c,2021-04-03_12h23.39.941,Colour_Similarity_Experiment,2020.2.10,Win32,60,60674ec340277cd6a308bc9f,71.10386882,16.67728867,16.66189791,16.6797032,16.66673806,16.67728867,,,,,,,,,,,,,,,,,,,,PF,weak,3,,,,,,,,5,1.73303,,,,,,,,,,,,,,,,,,,,,,,,,,,,5,weak,100,-47,1,0,0,response3disk,4,126,-7,-1,1,0,0,rectangle,-7,-1,1,0,0,,3,2,6E-05,-7,-1,1,0,0,,0,125,125,54,1,0,,,,,,,,,,,,,,,,,,,
,,,,,,,,,,,,,,,,,,,,,,,,,,,,,,,,,,,,,,,,,,604f48ad0cf8d55887cb172e,606841a6f508cd75d6c4050c,2021-04-03_12h23.39.941,Colour_Similarity_Experiment,2020.2.10,Win32,60,60674ec340277cd6a308bc9f,71.10386882,16.67728867,16.66189791,16.6797032,16.66673806,16.67728867,,,,,,,,,,,,,,,,,,,,PF,weak,3,,,,,,,,6,1.082975,,,,,,,,,,,,,,,,,,,,,,,,,,,,6,weak,126,67,1,0,0,response1disk,4,127,-6,6,1,0,0,rectangle,-6,6,1,0,0,,3,6,0.00056,-6,6,1,0,0,,0,126,126,33,1,0,,,,,,,,,,,,,,,,,,,
,,,,,,,,,,,,,,,,,,,,,,,,,,,,,,,,,,,,,,,,,,604f48ad0cf8d55887cb172e,606841a6f508cd75d6c4050c,2021-04-03_12h23.39.941,Colour_Similarity_Experiment,2020.2.10,Win32,60,60674ec340277cd6a308bc9f,71.10386882,16.67728867,16.66189791,16.6797032,16.66673806,16.67728867,,,,,,,,,,,,,,,,,,,,PF,strong,3,,,,,,,,5,1.71633,,,,,,,,,,,,,,,,,,,,,,,,,,,,8,strong,113,-82,1,0,0,response3disk,2,128,3,-9,1,0,0,rectangle,3,-9,1,0,0,,3,4,0.000485,3,-9,1,0,0,,0,127,127,22,1,0,,,,,,,,,,,,,,,,,,,
,,,,,,,,,,,,,,,,,,,,,,,,,,,,,,,,,,,,,,,,,,604f48ad0cf8d55887cb172e,606841a6f508cd75d6c4050c,2021-04-03_12h23.39.941,Colour_Similarity_Experiment,2020.2.10,Win32,60,60674ec340277cd6a308bc9f,71.10386882,16.67728867,16.66189791,16.6797032,16.66673806,16.67728867,,,,,,,,,,,,,,,,,,,,PF,weak,3,,,,,,,,7,1.316175,,,,,,,,,,,,,,,,,,,,,,,,,,,,9,weak,58,101,1,0,0,response1disk,6,129,-3,-4,1,0,0,rectangle,-3,-4,1,0,0,,3,1,0.000685,-3,-4,1,0,0,,0,128,128,148,1,0,,,,,,,,,,,,,,,,,,,
,,,,,,,,,,,,,,,,,,,,,,,,,,,,,,,,,,,,,,,,,,604f48ad0cf8d55887cb172e,606841a6f508cd75d6c4050c,2021-04-03_12h23.39.941,Colour_Similarity_Experiment,2020.2.10,Win32,60,60674ec340277cd6a308bc9f,71.10386882,16.67728867,16.66189791,16.6797032,16.66673806,16.67728867,,,,,,,,,,,,,,,,,,,,PF,weak,3,,,,,,,,4,2.24998,,,,,,,,,,,,,,,,,,,,,,,,,,,,7,weak,42,-83,1,0,0,response3disk,1,130,5,-4,1,0,0,rectangle,5,-4,1,0,0,,3,1,9E-05,5,-4,1,0,0,,0,129,129,53,1,0,,,,,,,,,,,,,,,,,,,
,,,,,,,,,,,,,,,,,,,,,,,,,,,,,,,,,,,,,,,,,,604f48ad0cf8d55887cb172e,606841a6f508cd75d6c4050c,2021-04-03_12h23.39.941,Colour_Similarity_Experiment,2020.2.10,Win32,60,60674ec340277cd6a308bc9f,71.10386882,16.67728867,16.66189791,16.6797032,16.66673806,16.67728867,,,,,,,,,,,,,,,,,,,,PF,weak,3,,,,,,,,6,1.116525,,,,,,,,,,,,,,,,,,,,,,,,,,,,9,weak,108,47,1,0,0,response1disk,4,131,25,-2,1,0,0,rectangle,25,-2,1,0,0,,3,6,0.00042,25,-2,1,0,0,,0,130,130,114,1,0,,,,,,,,,,,,,,,,,,,
,,,,,,,,,,,,,,,,,,,,,,,,,,,,,,,,,,,,,,,,,,604f48ad0cf8d55887cb172e,606841a6f508cd75d6c4050c,2021-04-03_12h23.39.941,Colour_Similarity_Experiment,2020.2.10,Win32,60,60674ec340277cd6a308bc9f,71.10386882,16.67728867,16.66189791,16.6797032,16.66673806,16.67728867,,,,,,,,,,,,,,,,,,,,PF,weak,3,,,,,,,,7,1.11178,,,,,,,,,,,,,,,,,,,,,,,,,,,,3,weak,85,121,1,0,0,response1disk,8,132,-7,-7,1,0,0,rectangle,-7,-7,1,0,0,,3,6,0.000525,-7,-7,1,0,0,,0,131,131,3,1,0,,,,,,,,,,,,,,,,,,,
,,,,,,,,,,,,,,,,,,,,,,,,,,,,,,,,,,,,,,,,,,604f48ad0cf8d55887cb172e,606841a6f508cd75d6c4050c,2021-04-03_12h23.39.941,Colour_Similarity_Experiment,2020.2.10,Win32,60,60674ec340277cd6a308bc9f,71.10386882,16.67728867,16.66189791,16.6797032,16.66673806,16.67728867,,,,,,,,,,,,,,,,,,,,PF,weak,3,,,,,,,,0,1.09523,,,,,,,,,,,,,,,,,,,,,,,,,,,,4,weak,-75,114,1,0,0,response7disk,3,133,-7,-2,1,0,0,rectangle,-7,-2,1,0,0,,3,5,0.000665,-7,-2,1,0,0,,0,132,132,89,1,0,,,,,,,,,,,,,,,,,,,
,,,,,,,,,,,,,,,,,,,,,,,,,,,,,,,,,,,,,,,,,,604f48ad0cf8d55887cb172e,606841a6f508cd75d6c4050c,2021-04-03_12h23.39.941,Colour_Similarity_Experiment,2020.2.10,Win32,60,60674ec340277cd6a308bc9f,71.10386882,16.67728867,16.66189791,16.6797032,16.66673806,16.67728867,,,,,,,,,,,,,,,,,,,,PF,strong,3,,,,,,,,5,1.783035,,,,,,,,,,,,,,,,,,,,,,,,,,,,4,strong,115,-67,1,0,0,response3disk,9,134,-12,1,1,0,0,rectangle,-12,1,1,0,0,,3,1,0.00043,-12,1,1,0,0,,0,133,133,90,1,0,,,,,,,,,,,,,,,,,,,
,,,,,,,,,,,,,,,,,,,,,,,,,,,,,,,,,,,,,,,,,,604f48ad0cf8d55887cb172e,606841a6f508cd75d6c4050c,2021-04-03_12h23.39.941,Colour_Similarity_Experiment,2020.2.10,Win32,60,60674ec340277cd6a308bc9f,71.10386882,16.67728867,16.66189791,16.6797032,16.66673806,16.67728867,,,,,,,,,,,,,,,,,,,,PF,strong,3,,,,,,,,6,1.416285,,,,,,,,,,,,,,,,,,,,,,,,,,,,3,strong,84,43,1,0,0,response1disk,7,135,-14,-11,1,0,0,rectangle,-14,-11,1,0,0,,3,4,0.00042,-14,-11,1,0,0,,0,134,134,118,1,0,,,,,,,,,,,,,,,,,,,
,,,,,,,,,,,,,,,,,,,,,,,,,,,,,,,,,,,,,,,,,,604f48ad0cf8d55887cb172e,606841a6f508cd75d6c4050c,2021-04-03_12h23.39.941,Colour_Similarity_Experiment,2020.2.10,Win32,60,60674ec340277cd6a308bc9f,71.10386882,16.67728867,16.66189791,16.6797032,16.66673806,16.67728867,,,,,,,,,,,,,,,,,,,,PF,weak,3,,,,,,,,7,1.066365,,,,,,,,,,,,,,,,,,,,,,,,,,,,6,weak,62,102,1,0,0,response1disk,9,136,6,-5,1,0,0,rectangle,6,-5,1,0,0,,3,5,0.000535,6,-5,1,0,0,,0,135,135,45,1,0,,,,,,,,,,,,,,,,,,,
,,,,,,,,,,,,,,,,,,,,,,,,,,,,,,,,,,,,,,,,,,604f48ad0cf8d55887cb172e,606841a6f508cd75d6c4050c,2021-04-03_12h23.39.941,Colour_Similarity_Experiment,2020.2.10,Win32,60,60674ec340277cd6a308bc9f,71.10386882,16.67728867,16.66189791,16.6797032,16.66673806,16.67728867,,,,,,,,,,,,,,,,,,,,PF,strong,3,,,,,,,,5,1.24585,,,,,,,,,,,,,,,,,,,,,,,,,,,,1,strong,103,-73,1,0,0,response3disk,6,137,4,-3,1,0,0,rectangle,4,-3,1,0,0,,3,1,0.00048,4,-3,1,0,0,,0,136,136,58,1,0,,,,,,,,,,,,,,,,,,,
,,,,,,,,,,,,,,,,,,,,,,,,,,,,,,,,,,,,,,,,,,604f48ad0cf8d55887cb172e,606841a6f508cd75d6c4050c,2021-04-03_12h23.39.941,Colour_Similarity_Experiment,2020.2.10,Win32,60,60674ec340277cd6a308bc9f,71.10386882,16.67728867,16.66189791,16.6797032,16.66673806,16.67728867,,,,,,,,,,,,,,,,,,,,PF,weak,3,,,,,,,,6,1.73284,,,,,,,,,,,,,,,,,,,,,,,,,,,,7,weak,104,41,1,0,0,response1disk,3,138,-5,-4,1,0,0,rectangle,-5,-4,1,0,0,,3,0,0.00045,-5,-4,1,0,0,,0,137,137,81,1,0,,,,,,,,,,,,,,,,,,,
,,,,,,,,,,,,,,,,,,,,,,,,,,,,,,,,,,,,,,,,,,604f48ad0cf8d55887cb172e,606841a6f508cd75d6c4050c,2021-04-03_12h23.39.941,Colour_Similarity_Experiment,2020.2.10,Win32,60,60674ec340277cd6a308bc9f,71.10386882,16.67728867,16.66189791,16.6797032,16.66673806,16.67728867,,,,,,,,,,,,,,,,,,,,PF,weak,3,,,,,,,,4,2.267025,,,,,,,,,,,,,,,,,,,,,,,,,,,,7,weak,63,-88,1,0,0,response3disk,4,139,5,-6,1,0,0,rectangle,5,-6,1,0,0,,3,5,0.000435,5,-6,1,0,0,,0,138,138,43,1,0,,,,,,,,,,,,,,,,,,,
,,,,,,,,,,,,,,,,,,,,,,,,,,,,,,,,,,,,,,,,,,604f48ad0cf8d55887cb172e,606841a6f508cd75d6c4050c,2021-04-03_12h23.39.941,Colour_Similarity_Experiment,2020.2.10,Win32,60,60674ec340277cd6a308bc9f,71.10386882,16.67728867,16.66189791,16.6797032,16.66673806,16.67728867,,,,,,,,,,,,,,,,,,,,PF,weak,3,,,,,,,,5,1.74499,,,,,,,,,,,,,,,,,,,,,,,,,,,,8,weak,90,-55,1,0,0,response3disk,5,140,9,-2,1,0,0,rectangle,9,-2,1,0,0,,3,2,0.00054,9,-2,1,0,0,,0,139,139,98,1,0,,,,,,,,,,,,,,,,,,,
,,,,,,,,,,,,,,,,,,,,,,,,,,,,,,,,,,,,,,,,,,604f48ad0cf8d55887cb172e,606841a6f508cd75d6c4050c,2021-04-03_12h23.39.941,Colour_Similarity_Experiment,2020.2.10,Win32,60,60674ec340277cd6a308bc9f,71.10386882,16.67728867,16.66189791,16.6797032,16.66673806,16.67728867,,,,,,,,,,,,,,,,,,,,PF,weak,3,,,,,,,,7,1.01517,,,,,,,,,,,,,,,,,,,,,,,,,,,,7,weak,37,109,1,0,0,response1disk,2,141,-9,-12,1,0,0,rectangle,-9,-12,1,0,0,,3,1,0.00049,-9,-12,1,0,0,,0,140,140,32,1,0,,,,,,,,,,,,,,,,,,,
,,,,,,,,,,,,,,,,,,,,,,,,,,,,,,,,,,,,,,,,,,604f48ad0cf8d55887cb172e,606841a6f508cd75d6c4050c,2021-04-03_12h23.39.941,Colour_Similarity_Experiment,2020.2.10,Win32,60,60674ec340277cd6a308bc9f,71.10386882,16.67728867,16.66189791,16.6797032,16.66673806,16.67728867,,,,,,,,,,,,,,,,,,,,PF,strong,3,,,,,,,,7,1.49722,,,,,,,,,,,,,,,,,,,,,,,,,,,,9,strong,36,87,1,0,0,response1disk,6,142,-15,-4,1,0,0,rectangle,-15,-4,1,0,0,,3,2,0.000525,-15,-4,1,0,0,,0,141,141,117,1,0,,,,,,,,,,,,,,,,,,,
,,,,,,,,,,,,,,,,,,,,,,,,,,,,,,,,,,,,,,,,,,604f48ad0cf8d55887cb172e,606841a6f508cd75d6c4050c,2021-04-03_12h23.39.941,Colour_Similarity_Experiment,2020.2.10,Win32,60,60674ec340277cd6a308bc9f,71.10386882,16.67728867,16.66189791,16.6797032,16.66673806,16.67728867,,,,,,,,,,,,,,,,,,,,PF,strong,3,,,,,,,,5,1.479175,,,,,,,,,,,,,,,,,,,,,,,,,,,,4,strong,103,-68,1,0,0,response3disk,3,143,-1,-10,1,0,0,rectangle,-1,-10,1,0,0,,3,1,0.00057,-1,-10,1,0,0,,0,142,142,77,1,0,,,,,,,,,,,,,,,,,,,
,,,,,,,,,,,,,,,,,,,,,,,,,,,,,,,,,,,,,,,,,,604f48ad0cf8d55887cb172e,606841a6f508cd75d6c4050c,2021-04-03_12h23.39.941,Colour_Similarity_Experiment,2020.2.10,Win32,60,60674ec340277cd6a308bc9f,71.10386882,16.67728867,16.66189791,16.6797032,16.66673806,16.67728867,,,,,,,,,,,,,,,,,,,,PF,weak,3,,,,,,,,4,1.81263,,,,,,,,,,,,,,,,,,,,,,,,,,,,7,weak,56,-99,1,0,0,response3disk,5,144,-3,-5,1,0,0,rectangle,-3,-5,1,0,0,,3,4,0.00063,-3,-5,1,0,0,,0,143,143,92,1,0,,,,,,,,,,,,,,,,,,,
,,,,,,,,,,,,,,,,,,,,,,,,,,,,,,,,,,,,,,,,,,604f48ad0cf8d55887cb172e,606841a6f508cd75d6c4050c,2021-04-03_12h23.39.941,Colour_Similarity_Experiment,2020.2.10,Win32,60,60674ec340277cd6a308bc9f,71.10386882,16.67728867,16.66189791,16.6797032,16.66673806,16.67728867,,,,,,,,,,,,,,,,,,,,PF,weak,3,,,,,,,,6,1.04895,,,,,,,,,,,,,,,,,,,,,,,,,,,,2,weak,108,50,1,0,0,response1disk,9,145,14,5,1,0,0,rectangle,14,5,1,0,0,,3,5,0.000625,14,5,1,0,0,,0,144,144,39,1,0,,,,,,,,,,,,,,,,,,,
,,,,,,,,,,,,,,,,,,,,,,,,,,,,,,,,,,,,,,,,,,604f48ad0cf8d55887cb172e,606841a6f508cd75d6c4050c,2021-04-03_12h23.39.941,Colour_Similarity_Experiment,2020.2.10,Win32,60,60674ec340277cd6a308bc9f,71.10386882,16.67728867,16.66189791,16.6797032,16.66673806,16.67728867,,,,,,,,,,,,,,,,,,,,PF,weak,3,,,,,,,,6,1.0794,,,,,,,,,,,,,,,,,,,,,,,,,,,,7,weak,96,43,1,0,0,response1disk,8,146,3,0,1,0,0,rectangle,3,0,1,0,0,,3,5,6.5E-05,3,0,1,0,0,,0,145,145,140,1,0,,,,,,,,,,,,,,,,,,,
,,,,,,,,,,,,,,,,,,,,,,,,,,,,,,,,,,,,,,,,,,604f48ad0cf8d55887cb172e,606841a6f508cd75d6c4050c,2021-04-03_12h23.39.941,Colour_Similarity_Experiment,2020.2.10,Win32,60,60674ec340277cd6a308bc9f,71.10386882,16.67728867,16.66189791,16.6797032,16.66673806,16.67728867,,,,,,,,,,,,,,,,,,,,PF,weak,3,,,,,,,,6,1.09922,,,,,,,,,,,,,,,,,,,,,,,,,,,,7,weak,93,46,1,0,0,response1disk,9,147,19,-3,1,0,0,rectangle,19,-3,1,0,0,,3,6,0.0006,19,-3,1,0,0,,0,146,146,10,1,0,,,,,,,,,,,,,,,,,,,
,,,,,,,,,,,,,,,,,,,,,,,,,,,,,,,,,,,,,,,,,,604f48ad0cf8d55887cb172e,606841a6f508cd75d6c4050c,2021-04-03_12h23.39.941,Colour_Similarity_Experiment,2020.2.10,Win32,60,60674ec340277cd6a308bc9f,71.10386882,16.67728867,16.66189791,16.6797032,16.66673806,16.67728867,,,,,,,,,,,,,,,,,,,,PF,weak,3,,,,,,,,4,1.81671,,,,,,,,,,,,,,,,,,,,,,,,,,,,9,weak,61,-96,1,0,0,response3disk,1,148,-1,-9,1,0,0,rectangle,-1,-9,1,0,0,,3,0,0.000445,-1,-9,1,0,0,,0,147,147,74,1,0,,,,,,,,,,,,,,,,,,,
,,,,,,,,,,,,,,,,,,,,,,,,,,,,,,,,,,,,,,,,,,604f48ad0cf8d55887cb172e,606841a6f508cd75d6c4050c,2021-04-03_12h23.39.941,Colour_Similarity_Experiment,2020.2.10,Win32,60,60674ec340277cd6a308bc9f,71.10386882,16.67728867,16.66189791,16.6797032,16.66673806,16.67728867,,,,,,,,,,,,,,,,,,,,PF,weak,3,,,,,,,,2,2.11598,,,,,,,,,,,,,,,,,,,,,,,,,,,,6,weak,-91,-54,1,0,0,response5disk,5,149,12,-7,1,0,0,rectangle,12,-7,1,0,0,,3,3,0.00043,12,-7,1,0,0,,0,148,148,59,1,0,,,,,,,,,,,,,,,,,,,
,,,,,,,,,,,,,,,,,,,,,,,,,,,,,,,,,,,,,,,,,,604f48ad0cf8d55887cb172e,606841a6f508cd75d6c4050c,2021-04-03_12h23.39.941,Colour_Similarity_Experiment,2020.2.10,Win32,60,60674ec340277cd6a308bc9f,71.10386882,16.67728867,16.66189791,16.6797032,16.66673806,16.67728867,,,,,,,,,,,,,,,,,,,,PF,weak,3,,,,,,,,2,1.37927,,,,,,,,,,,,,,,,,,,,,,,,,,,,2,weak,-72,-44,1,0,0,response5disk,1,150,-9,1,1,0,0,rectangle,-9,1,1,0,0,,3,3,0.000115,-9,1,1,0,0,,0,149,149,9,1,0,,,,,,,,,,,,,,,,,,,
,,,,,,,,,,,,,,,,,,,,,,,,,,,,,,,,,,,,,,,,,,604f48ad0cf8d55887cb172e,606841a6f508cd75d6c4050c,2021-04-03_12h23.39.941,Colour_Similarity_Experiment,2020.2.10,Win32,60,60674ec340277cd6a308bc9f,71.10386882,16.67728867,16.66189791,16.6797032,16.66673806,16.67728867,,,,,,,,,,,,,,,,,,,,PF,strong,3,,,,,,,,5,1.6498,,,,,,,,,,,,,,,,,,,,,,,,,,,,5,strong,92,-60,1,0,0,response3disk,1,151,1,-4,1,0,0,rectangle,1,-4,1,0,0,,3,7,0.000575,1,-4,1,0,0,,0,150,150,131,1,0,,,,,,,,,,,,,,,,,,,
,,,,,,,,,,,,,,,,,,,,,,,,,,,,,,,,,,,,,,,,,,604f48ad0cf8d55887cb172e,606841a6f508cd75d6c4050c,2021-04-03_12h23.39.941,Colour_Similarity_Experiment,2020.2.10,Win32,60,60674ec340277cd6a308bc9f,71.10386882,16.67728867,16.66189791,16.6797032,16.66673806,16.67728867,,,,,,,,,,,,,,,,,,,,PF,weak,3,,,,,,,,6,1.033385,,,,,,,,,,,,,,,,,,,,,,,,,,,,8,weak,77,43,1,0,0,response1disk,1,152,8,-5,1,0,0,rectangle,8,-5,1,0,0,,3,6,0.00049,8,-5,1,0,0,,0,151,151,57,1,0,,,,,,,,,,,,,,,,,,,
,,,,,,,,,,,,,,,,,,,,,,,,,,,,,,,,,,,,,,,,,,604f48ad0cf8d55887cb172e,606841a6f508cd75d6c4050c,2021-04-03_12h23.39.941,Colour_Similarity_Experiment,2020.2.10,Win32,60,60674ec340277cd6a308bc9f,71.10386882,16.67728867,16.66189791,16.6797032,16.66673806,16.67728867,,,,,,,,,,,,,,,,,,,,PF,weak,3,,,,,,,,6,1.66742,,,,,,,,,,,,,,,,,,,,,,,,,,,,1,weak,124,37,1,0,0,response1disk,4,153,30,-2,1,0,0,rectangle,30,-2,1,0,0,,3,2,0.000475,30,-2,1,0,0,,0,152,152,139,1,0,,,,,,,,,,,,,,,,,,,
,,,,,,,,,,,,,,,,,,,,,,,,,,,,,,,,,,,,,,,,,,604f48ad0cf8d55887cb172e,606841a6f508cd75d6c4050c,2021-04-03_12h23.39.941,Colour_Similarity_Experiment,2020.2.10,Win32,60,60674ec340277cd6a308bc9f,71.10386882,16.67728867,16.66189791,16.6797032,16.66673806,16.67728867,,,,,,,,,,,,,,,,,,,,PF,weak,3,,,,,,,,6,1.09516,,,,,,,,,,,,,,,,,,,,,,,,,,,,3,weak,97,36,1,0,0,response1disk,1,154,16,-10,1,0,0,rectangle,16,-10,1,0,0,,3,4,0.000495,16,-10,1,0,0,,0,153,153,96,1,0,,,,,,,,,,,,,,,,,,,
,,,,,,,,,,,,,,,,,,,,,,,,,,,,,,,,,,,,,,,,,,604f48ad0cf8d55887cb172e,606841a6f508cd75d6c4050c,2021-04-03_12h23.39.941,Colour_Similarity_Experiment,2020.2.10,Win32,60,60674ec340277cd6a308bc9f,71.10386882,16.67728867,16.66189791,16.6797032,16.66673806,16.67728867,,,,,,,,,,,,,,,,,,,,PF,weak,3,,,,,,,,6,1.049805,,,,,,,,,,,,,,,,,,,,,,,,,,,,1,weak,109,40,1,0,0,response1disk,3,155,19,-6,1,0,0,rectangle,19,-6,1,0,0,,3,2,0.00049,19,-6,1,0,0,,0,154,154,1,1,0,,,,,,,,,,,,,,,,,,,
,,,,,,,,,,,,,,,,,,,,,,,,,,,,,,,,,,,,,,,,,,604f48ad0cf8d55887cb172e,606841a6f508cd75d6c4050c,2021-04-03_12h23.39.941,Colour_Similarity_Experiment,2020.2.10,Win32,60,60674ec340277cd6a308bc9f,71.10386882,16.67728867,16.66189791,16.6797032,16.66673806,16.67728867,,,,,,,,,,,,,,,,,,,,PF,weak,3,,,,,,,,6,1.716905,,,,,,,,,,,,,,,,,,,,,,,,,,,,6,weak,105,50,1,0,0,response1disk,2,156,9,-2,1,0,0,rectangle,9,-2,1,0,0,,3,5,0.00054,9,-2,1,0,0,,0,155,155,130,1,0,,,,,,,,,,,,,,,,,,,
,,,,,,,,,,,,,,,,,,,,,,,,,,,,,,,,,,,,,,,,,,604f48ad0cf8d55887cb172e,606841a6f508cd75d6c4050c,2021-04-03_12h23.39.941,Colour_Similarity_Experiment,2020.2.10,Win32,60,60674ec340277cd6a308bc9f,71.10386882,16.67728867,16.66189791,16.6797032,16.66673806,16.67728867,,,,,,,,,,,,,,,,,,,,PF,weak,3,,,,,,,,6,1.6162,,,,,,,,,,,,,,,,,,,,,,,,,,,,5,weak,132,40,1,0,0,response1disk,2,157,10,-7,1,0,0,rectangle,10,-7,1,0,0,,3,0,0.00045,10,-7,1,0,0,,0,156,156,129,1,0,,,,,,,,,,,,,,,,,,,
,,,,,,,,,,,,,,,,,,,,,,,,,,,,,,,,,,,,,,,,,,604f48ad0cf8d55887cb172e,606841a6f508cd75d6c4050c,2021-04-03_12h23.39.941,Colour_Similarity_Experiment,2020.2.10,Win32,60,60674ec340277cd6a308bc9f,71.10386882,16.67728867,16.66189791,16.6797032,16.66673806,16.67728867,,,,,,,,,,,,,,,,,,,,PF,weak,3,,,,,,,,4,2.26648,,,,,,,,,,,,,,,,,,,,,,,,,,,,8,weak,38,-76,1,0,0,response3disk,9,158,0,-4,1,0,0,rectangle,0,-4,1,0,0,,3,5,0.0006,0,-4,1,0,0,,0,157,157,42,1,0,,,,,,,,,,,,,,,,,,,
,,,,,,,,,,,,,,,,,,,,,,,,,,,,,,,,,,,,,,,,,,604f48ad0cf8d55887cb172e,606841a6f508cd75d6c4050c,2021-04-03_12h23.39.941,Colour_Similarity_Experiment,2020.2.10,Win32,60,60674ec340277cd6a308bc9f,71.10386882,16.67728867,16.66189791,16.6797032,16.66673806,16.67728867,,,,,,,,,,,,,,,,,,,,PF,strong,3,,,,,,,,7,1.899455,,,,,,,,,,,,,,,,,,,,,,,,,,,,9,strong,54,94,1,0,0,response1disk,1,159,8,2,1,0,0,rectangle,8,2,1,0,0,,3,5,6.5E-05,8,2,1,0,0,,0,158,158,111,1,0,,,,,,,,,,,,,,,,,,,
,,,,,,,,,,,,,,,,,,,,,,,,,,,,,,,,,,,,,,,,,,604f48ad0cf8d55887cb172e,606841a6f508cd75d6c4050c,2021-04-03_12h23.39.941,Colour_Similarity_Experiment,2020.2.10,Win32,60,60674ec340277cd6a308bc9f,71.10386882,16.67728867,16.66189791,16.6797032,16.66673806,16.67728867,,,,,,,,,,,,,,,,,,,,PF,strong,3,,,,,,,,5,2.26757,,,,,,,,,,,,,,,,,,,,,,,,,,,,4,strong,103,-51,1,0,0,response3disk,6,160,3,-3,1,0,0,rectangle,3,-3,1,0,0,,3,4,0.000645,3,-3,1,0,0,,0,159,159,122,1,0,,,,,,,,,,,,,,,,,,,
,,,,,,,,,,,,,,,,,,,,,,,,,,,,,,,,,,,,,,,,,,604f48ad0cf8d55887cb172e,606841a6f508cd75d6c4050c,2021-04-03_12h23.39.941,Colour_Similarity_Experiment,2020.2.10,Win32,60,60674ec340277cd6a308bc9f,71.10386882,16.67728867,16.66189791,16.6797032,16.66673806,16.67728867,,,,,,,,,,,,,,,,,,,,PF,strong,3,,,,,,,,3,2.0664,,,,,,,,,,,,,,,,,,,,,,,,,,,,2,strong,-60,-98,1,0,0,response5disk,7,161,-12,1,1,0,0,rectangle,-12,1,1,0,0,,3,6,0.000485,-12,1,1,0,0,,0,160,160,63,1,0,,,,,,,,,,,,,,,,,,,
,,,,,,,,,,,,,,,,,,,,,,,,,,,,,,,,,,,,,,,,,,604f48ad0cf8d55887cb172e,606841a6f508cd75d6c4050c,2021-04-03_12h23.39.941,Colour_Similarity_Experiment,2020.2.10,Win32,60,60674ec340277cd6a308bc9f,71.10386882,16.67728867,16.66189791,16.6797032,16.66673806,16.67728867,,,,,,,,,,,,,,,,,,,,PF,strong,3,,,,,,,,4,1.36673,,,,,,,,,,,,,,,,,,,,,,,,,,,,6,strong,38,-91,1,0,0,response3disk,9,162,-8,-4,1,0,0,rectangle,-57,-113,1,0,0,response5disk_3,3,3,2.49728,-3,2,1,0,0,rectangle,0,161,161,160,1,1,,,,,,,,,,,,,,,,,,,
,,,,,,,,,,,,,,,,,,,,,,,,,,,,,,,,,,,,,,,,,,604f48ad0cf8d55887cb172e,606841a6f508cd75d6c4050c,2021-04-03_12h23.39.941,Colour_Similarity_Experiment,2020.2.10,Win32,60,60674ec340277cd6a308bc9f,71.10386882,16.67728867,16.66189791,16.6797032,16.66673806,16.67728867,,,,,,,,,,,,,,,,,,,,,,,,,,,,,,,,,,,,,,,,,,,,,,,,,,,,,,,,,,,,,,,,,,,,,,,,,,,,,,,,,,,,,,,,,,,,,,,,0,0,0,0,1,,,,,,,,,,,,,,
,,,,,,,,,,,,,,,,,,,,,,,,,,,,,,,,,,,,,,,,,,604f48ad0cf8d55887cb172e,606841a6f508cd75d6c4050c,2021-04-03_12h23.39.941,Colour_Similarity_Experiment,2020.2.10,Win32,60,60674ec340277cd6a308bc9f,71.10386882,16.67728867,16.66189791,16.6797032,16.66673806,16.67728867,,,,,,,,,,,,,,,,,,,,PF,weak,3,,,,,,,,0,1.300105,,,,,,,,,,,,,,,,,,,,,,,,,,,,8,weak,-54,124,1,0,0,response7disk,6,163,-8,3,1,0,0,rectangle,-125,53,1,0,0,response7disk_3,1,1,2.76815,3,-4,1,0,0,rectangle,0,0,0,161,1,1,,,,,,,,,,,,,,,,,,,
,,,,,,,,,,,,,,,,,,,,,,,,,,,,,,,,,,,,,,,,,,604f48ad0cf8d55887cb172e,606841a6f508cd75d6c4050c,2021-04-03_12h23.39.941,Colour_Similarity_Experiment,2020.2.10,Win32,60,60674ec340277cd6a308bc9f,71.10386882,16.67728867,16.66189791,16.6797032,16.66673806,16.67728867,,,,,,,,,,,,,,,,,,,,PF,weak,3,,,,,,,,3,1.11705,,,,,,,,,,,,,,,,,,,,,,,,,,,,4,weak,-43,-69,1,0,0,response5disk,2,164,4,6,1,0,0,rectangle,4,6,1,0,0,,1,2,0.003135,4,6,1,0,0,,0,1,1,108,1,0,,,,,,,,,,,,,,,,,,,
,,,,,,,,,,,,,,,,,,,,,,,,,,,,,,,,,,,,,,,,,,604f48ad0cf8d55887cb172e,606841a6f508cd75d6c4050c,2021-04-03_12h23.39.941,Colour_Similarity_Experiment,2020.2.10,Win32,60,60674ec340277cd6a308bc9f,71.10386882,16.67728867,16.66189791,16.6797032,16.66673806,16.67728867,,,,,,,,,,,,,,,,,,,,PF,strong,3,,,,,,,,0,1.23332,,,,,,,,,,,,,,,,,,,,,,,,,,,,9,strong,-60,89,1,0,0,response7disk,9,165,-14,12,1,0,0,rectangle,-14,12,1,0,0,,1,2,0.0004,-14,12,1,0,0,,0,2,2,17,1,0,,,,,,,,,,,,,,,,,,,
,,,,,,,,,,,,,,,,,,,,,,,,,,,,,,,,,,,,,,,,,,604f48ad0cf8d55887cb172e,606841a6f508cd75d6c4050c,2021-04-03_12h23.39.941,Colour_Similarity_Experiment,2020.2.10,Win32,60,60674ec340277cd6a308bc9f,71.10386882,16.67728867,16.66189791,16.6797032,16.66673806,16.67728867,,,,,,,,,,,,,,,,,,,,PF,strong,3,,,,,,,,2,1.600005,,,,,,,,,,,,,,,,,,,,,,,,,,,,2,strong,-73,-51,1,0,0,response5disk,3,166,33,-9,1,0,0,rectangle,-64,134,1,0,0,response7disk_3,0,0,1.89917,-3,4,1,0,0,rectangle,0,3,3,104,1,1,,,,,,,,,,,,,,,,,,,
,,,,,,,,,,,,,,,,,,,,,,,,,,,,,,,,,,,,,,,,,,604f48ad0cf8d55887cb172e,606841a6f508cd75d6c4050c,2021-04-03_12h23.39.941,Colour_Similarity_Experiment,2020.2.10,Win32,60,60674ec340277cd6a308bc9f,71.10386882,16.67728867,16.66189791,16.6797032,16.66673806,16.67728867,,,,,,,,,,,,,,,,,,,,PF,weak,3,,,,,,,,2,1.25168,,,,,,,,,,,,,,,,,,,,,,,,,,,,4,weak,-113,-44,1,0,0,response5disk,6,167,-10,-1,1,0,0,rectangle,-10,-1,1,0,0,,0,1,0.002145,-10,-1,1,0,0,,0,4,4,120,1,0,,,,,,,,,,,,,,,,,,,
,,,,,,,,,,,,,,,,,,,,,,,,,,,,,,,,,,,,,,,,,,604f48ad0cf8d55887cb172e,606841a6f508cd75d6c4050c,2021-04-03_12h23.39.941,Colour_Similarity_Experiment,2020.2.10,Win32,60,60674ec340277cd6a308bc9f,71.10386882,16.67728867,16.66189791,16.6797032,16.66673806,16.67728867,,,,,,,,,,,,,,,,,,,,PF,strong,3,,,,,,,,4,2.3337,,,,,,,,,,,,,,,,,,,,,,,,,,,,6,strong,38,-87,1,0,0,response3disk,8,168,-16,6,1,0,0,rectangle,-16,6,1,0,0,,0,0,0.001285,-16,6,1,0,0,,0,5,5,133,1,0,,,,,,,,,,,,,,,,,,,
,,,,,,,,,,,,,,,,,,,,,,,,,,,,,,,,,,,,,,,,,,604f48ad0cf8d55887cb172e,606841a6f508cd75d6c4050c,2021-04-03_12h23.39.941,Colour_Similarity_Experiment,2020.2.10,Win32,60,60674ec340277cd6a308bc9f,71.10386882,16.67728867,16.66189791,16.6797032,16.66673806,16.67728867,,,,,,,,,,,,,,,,,,,,PF,weak,3,,,,,,,,3,1.100425,,,,,,,,,,,,,,,,,,,,,,,,,,,,9,weak,-50,-83,1,0,0,response5disk,2,169,-2,-5,1,0,0,rectangle,-2,-5,1,0,0,,0,1,0.00222,-2,-5,1,0,0,,0,6,6,157,1,0,,,,,,,,,,,,,,,,,,,
,,,,,,,,,,,,,,,,,,,,,,,,,,,,,,,,,,,,,,,,,,604f48ad0cf8d55887cb172e,606841a6f508cd75d6c4050c,2021-04-03_12h23.39.941,Colour_Similarity_Experiment,2020.2.10,Win32,60,60674ec340277cd6a308bc9f,71.10386882,16.67728867,16.66189791,16.6797032,16.66673806,16.67728867,,,,,,,,,,,,,,,,,,,,PF,strong,3,,,,,,,,3,1.333665,,,,,,,,,,,,,,,,,,,,,,,,,,,,7,strong,-54,-88,1,0,0,response5disk,8,170,0,3,1,0,0,rectangle,124,46,1,0,0,response1disk_3,6,6,2.38242,11,-3,1,0,0,rectangle,0,7,7,97,1,1,,,,,,,,,,,,,,,,,,,
,,,,,,,,,,,,,,,,,,,,,,,,,,,,,,,,,,,,,,,,,,604f48ad0cf8d55887cb172e,606841a6f508cd75d6c4050c,2021-04-03_12h23.39.941,Colour_Similarity_Experiment,2020.2.10,Win32,60,60674ec340277cd6a308bc9f,71.10386882,16.67728867,16.66189791,16.6797032,16.66673806,16.67728867,,,,,,,,,,,,,,,,,,,,PF,weak,3,,,,,,,,0,0.900325,,,,,,,,,,,,,,,,,,,,,,,,,,,,2,weak,-44,91,1,0,0,response7disk,2,171,-8,0,1,0,0,rectangle,-8,0,1,0,0,,6,3,0.00181,-8,0,1,0,0,,0,8,8,14,1,0,,,,,,,,,,,,,,,,,,,
,,,,,,,,,,,,,,,,,,,,,,,,,,,,,,,,,,,,,,,,,,604f48ad0cf8d55887cb172e,606841a6f508cd75d6c4050c,2021-04-03_12h23.39.941,Colour_Similarity_Experiment,2020.2.10,Win32,60,60674ec340277cd6a308bc9f,71.10386882,16.67728867,16.66189791,16.6797032,16.66673806,16.67728867,,,,,,,,,,,,,,,,,,,,PF,weak,3,,,,,,,,0,1.00081,,,,,,,,,,,,,,,,,,,,,,,,,,,,7,weak,-45,78,1,0,0,response7disk,7,172,1,3,1,0,0,rectangle,1,3,1,0,0,,6,1,0.001105,1,3,1,0,0,,0,9,9,51,1,0,,,,,,,,,,,,,,,,,,,
,,,,,,,,,,,,,,,,,,,,,,,,,,,,,,,,,,,,,,,,,,604f48ad0cf8d55887cb172e,606841a6f508cd75d6c4050c,2021-04-03_12h23.39.941,Colour_Similarity_Experiment,2020.2.10,Win32,60,60674ec340277cd6a308bc9f,71.10386882,16.67728867,16.66189791,16.6797032,16.66673806,16.67728867,,,,,,,,,,,,,,,,,,,,PF,strong,3,,,,,,,,2,1.56797,,,,,,,,,,,,,,,,,,,,,,,,,,,,9,strong,-113,-35,1,0,0,response5disk,5,173,-10,3,1,0,0,rectangle,-10,3,1,0,0,,6,2,0.001225,-10,3,1,0,0,,0,10,10,128,1,0,,,,,,,,,,,,,,,,,,,
,,,,,,,,,,,,,,,,,,,,,,,,,,,,,,,,,,,,,,,,,,604f48ad0cf8d55887cb172e,606841a6f508cd75d6c4050c,2021-04-03_12h23.39.941,Colour_Similarity_Experiment,2020.2.10,Win32,60,60674ec340277cd6a308bc9f,71.10386882,16.67728867,16.66189791,16.6797032,16.66673806,16.67728867,,,,,,,,,,,,,,,,,,,,PF,strong,3,,,,,,,,3,1.750935,,,,,,,,,,,,,,,,,,,,,,,,,,,,6,strong,-47,-86,1,0,0,response5disk,7,174,-1,-8,1,0,0,rectangle,-1,-8,1,0,0,,6,2,0.000315,-1,-8,1,0,0,,0,11,11,18,1,0,,,,,,,,,,,,,,,,,,,
,,,,,,,,,,,,,,,,,,,,,,,,,,,,,,,,,,,,,,,,,,604f48ad0cf8d55887cb172e,606841a6f508cd75d6c4050c,2021-04-03_12h23.39.941,Colour_Similarity_Experiment,2020.2.10,Win32,60,60674ec340277cd6a308bc9f,71.10386882,16.67728867,16.66189791,16.6797032,16.66673806,16.67728867,,,,,,,,,,,,,,,,,,,,PF,weak,3,,,,,,,,7,1.09801,,,,,,,,,,,,,,,,,,,,,,,,,,,,1,weak,46,113,1,0,0,response1disk,7,175,-7,0,1,0,0,rectangle,-7,0,1,0,0,,6,3,0.00046,-7,0,1,0,0,,0,12,12,150,1,0,,,,,,,,,,,,,,,,,,,
,,,,,,,,,,,,,,,,,,,,,,,,,,,,,,,,,,,,,,,,,,604f48ad0cf8d55887cb172e,606841a6f508cd75d6c4050c,2021-04-03_12h23.39.941,Colour_Similarity_Experiment,2020.2.10,Win32,60,60674ec340277cd6a308bc9f,71.10386882,16.67728867,16.66189791,16.6797032,16.66673806,16.67728867,,,,,,,,,,,,,,,,,,,,PF,weak,3,,,,,,,,2,1.44498,,,,,,,,,,,,,,,,,,,,,,,,,,,,6,weak,-79,-51,1,0,0,response5disk,6,176,-14,1,1,0,0,rectangle,-14,1,1,0,0,,6,1,0.000575,-14,1,1,0,0,,0,13,13,0,1,0,,,,,,,,,,,,,,,,,,,
,,,,,,,,,,,,,,,,,,,,,,,,,,,,,,,,,,,,,,,,,,604f48ad0cf8d55887cb172e,606841a6f508cd75d6c4050c,2021-04-03_12h23.39.941,Colour_Similarity_Experiment,2020.2.10,Win32,60,60674ec340277cd6a308bc9f,71.10386882,16.67728867,16.66189791,16.6797032,16.66673806,16.67728867,,,,,,,,,,,,,,,,,,,,PF,strong,3,,,,,,,,3,1.678565,,,,,,,,,,,,,,,,,,,,,,,,,,,,3,strong,-59,-71,1,0,0,response5disk,2,177,1,-7,1,0,0,rectangle,1,-7,1,0,0,,6,7,0.00044,1,-7,1,0,0,,0,14,14,93,1,0,,,,,,,,,,,,,,,,,,,
,,,,,,,,,,,,,,,,,,,,,,,,,,,,,,,,,,,,,,,,,,604f48ad0cf8d55887cb172e,606841a6f508cd75d6c4050c,2021-04-03_12h23.39.941,Colour_Similarity_Experiment,2020.2.10,Win32,60,60674ec340277cd6a308bc9f,71.10386882,16.67728867,16.66189791,16.6797032,16.66673806,16.67728867,,,,,,,,,,,,,,,,,,,,PF,strong,3,,,,,,,,5,1.36603,,,,,,,,,,,,,,,,,,,,,,,,,,,,6,strong,97,-55,1,0,0,response3disk,5,178,-4,-1,1,0,0,rectangle,-4,-1,1,0,0,,6,3,0.00051,-4,-1,1,0,0,,0,15,15,126,1,0,,,,,,,,,,,,,,,,,,,
,,,,,,,,,,,,,,,,,,,,,,,,,,,,,,,,,,,,,,,,,,604f48ad0cf8d55887cb172e,606841a6f508cd75d6c4050c,2021-04-03_12h23.39.941,Colour_Similarity_Experiment,2020.2.10,Win32,60,60674ec340277cd6a308bc9f,71.10386882,16.67728867,16.66189791,16.6797032,16.66673806,16.67728867,,,,,,,,,,,,,,,,,,,,PF,weak,3,,,,,,,,3,2.08315,,,,,,,,,,,,,,,,,,,,,,,,,,,,1,weak,-49,-87,1,0,0,response5disk,9,179,-5,-4,1,0,0,rectangle,-5,-4,1,0,0,,6,6,0.000765,-5,-4,1,0,0,,0,16,16,15,1,0,,,,,,,,,,,,,,,,,,,
,,,,,,,,,,,,,,,,,,,,,,,,,,,,,,,,,,,,,,,,,,604f48ad0cf8d55887cb172e,606841a6f508cd75d6c4050c,2021-04-03_12h23.39.941,Colour_Similarity_Experiment,2020.2.10,Win32,60,60674ec340277cd6a308bc9f,71.10386882,16.67728867,16.66189791,16.6797032,16.66673806,16.67728867,,,,,,,,,,,,,,,,,,,,PF,strong,3,,,,,,,,3,4.24965,,,,,,,,,,,,,,,,,,,,,,,,,,,,1,strong,-51,-68,1,0,0,response5disk,1,180,-3,-3,1,0,0,rectangle,-3,-3,1,0,0,,6,2,0.000425,-3,-3,1,0,0,,0,17,17,151,1,0,,,,,,,,,,,,,,,,,,,
,,,,,,,,,,,,,,,,,,,,,,,,,,,,,,,,,,,,,,,,,,604f48ad0cf8d55887cb172e,606841a6f508cd75d6c4050c,2021-04-03_12h23.39.941,Colour_Similarity_Experiment,2020.2.10,Win32,60,60674ec340277cd6a308bc9f,71.10386882,16.67728867,16.66189791,16.6797032,16.66673806,16.67728867,,,,,,,,,,,,,,,,,,,,PF,weak,3,,,,,,,,0,0.89507,,,,,,,,,,,,,,,,,,,,,,,,,,,,1,weak,-44,84,1,0,0,response7disk,1,181,-2,5,1,0,0,rectangle,-41,-106,1,0,0,response5disk_3,3,3,2.332495,-2,-6,1,0,0,rectangle,0,18,18,76,1,1,,,,,,,,,,,,,,,,,,,
,,,,,,,,,,,,,,,,,,,,,,,,,,,,,,,,,,,,,,,,,,604f48ad0cf8d55887cb172e,606841a6f508cd75d6c4050c,2021-04-03_12h23.39.941,Colour_Similarity_Experiment,2020.2.10,Win32,60,60674ec340277cd6a308bc9f,71.10386882,16.67728867,16.66189791,16.6797032,16.66673806,16.67728867,,,,,,,,,,,,,,,,,,,,PF,weak,3,,,,,,,,6,1.37805,,,,,,,,,,,,,,,,,,,,,,,,,,,,4,weak,120,51,1,0,0,response1disk,8,182,20,7,1,0,0,rectangle,20,7,1,0,0,,3,0,0.000685,20,7,1,0,0,,0,19,19,124,1,0,,,,,,,,,,,,,,,,,,,
,,,,,,,,,,,,,,,,,,,,,,,,,,,,,,,,,,,,,,,,,,604f48ad0cf8d55887cb172e,606841a6f508cd75d6c4050c,2021-04-03_12h23.39.941,Colour_Similarity_Experiment,2020.2.10,Win32,60,60674ec340277cd6a308bc9f,71.10386882,16.67728867,16.66189791,16.6797032,16.66673806,16.67728867,,,,,,,,,,,,,,,,,,,,PF,weak,3,,,,,,,,5,1.216305,,,,,,,,,,,,,,,,,,,,,,,,,,,,5,weak,101,-41,1,0,0,response3disk,9,183,6,-3,1,0,0,rectangle,133,61,1,0,0,response1disk_3,6,6,2.428855,14,4,1,0,0,rectangle,0,20,20,136,1,1,,,,,,,,,,,,,,,,,,,
,,,,,,,,,,,,,,,,,,,,,,,,,,,,,,,,,,,,,,,,,,604f48ad0cf8d55887cb172e,606841a6f508cd75d6c4050c,2021-04-03_12h23.39.941,Colour_Similarity_Experiment,2020.2.10,Win32,60,60674ec340277cd6a308bc9f,71.10386882,16.67728867,16.66189791,16.6797032,16.66673806,16.67728867,,,,,,,,,,,,,,,,,,,,PF,strong,3,,,,,,,,5,1.899415,,,,,,,,,,,,,,,,,,,,,,,,,,,,6,strong,116,-36,1,0,0,response3disk,1,184,5,2,1,0,0,rectangle,5,2,1,0,0,,6,0,0.00057,5,2,1,0,0,,0,21,21,5,1,0,,,,,,,,,,,,,,,,,,,
,,,,,,,,,,,,,,,,,,,,,,,,,,,,,,,,,,,,,,,,,,604f48ad0cf8d55887cb172e,606841a6f508cd75d6c4050c,2021-04-03_12h23.39.941,Colour_Similarity_Experiment,2020.2.10,Win32,60,60674ec340277cd6a308bc9f,71.10386882,16.67728867,16.66189791,16.6797032,16.66673806,16.67728867,,,,,,,,,,,,,,,,,,,,PF,weak,3,,,,,,,,0,0.9501,,,,,,,,,,,,,,,,,,,,,,,,,,,,4,weak,-64,81,1,0,0,response7disk,4,185,-16,-2,1,0,0,rectangle,-16,-2,1,0,0,,6,3,0.000415,-16,-2,1,0,0,,0,22,22,70,1,0,,,,,,,,,,,,,,,,,,,
,,,,,,,,,,,,,,,,,,,,,,,,,,,,,,,,,,,,,,,,,,604f48ad0cf8d55887cb172e,606841a6f508cd75d6c4050c,2021-04-03_12h23.39.941,Colour_Similarity_Experiment,2020.2.10,Win32,60,60674ec340277cd6a308bc9f,71.10386882,16.67728867,16.66189791,16.6797032,16.66673806,16.67728867,,,,,,,,,,,,,,,,,,,,PF,weak,3,,,,,,,,3,1.18313,,,,,,,,,,,,,,,,,,,,,,,,,,,,9,weak,-55,-83,1,0,0,response5disk,5,186,-10,4,1,0,0,rectangle,-10,4,1,0,0,,6,1,0.000595,-10,4,1,0,0,,0,23,23,134,1,0,,,,,,,,,,,,,,,,,,,
,,,,,,,,,,,,,,,,,,,,,,,,,,,,,,,,,,,,,,,,,,604f48ad0cf8d55887cb172e,606841a6f508cd75d6c4050c,2021-04-03_12h23.39.941,Colour_Similarity_Experiment,2020.2.10,Win32,60,60674ec340277cd6a308bc9f,71.10386882,16.67728867,16.66189791,16.6797032,16.66673806,16.67728867,,,,,,,,,,,,,,,,,,,,PF,strong,3,,,,,,,,5,2.16151,,,,,,,,,,,,,,,,,,,,,,,,,,,,4,strong,85,-52,1,0,0,response3disk,7,187,-9,0,1,0,0,rectangle,-9,0,1,0,0,,6,1,7E-05,-9,0,1,0,0,,0,24,24,87,1,0,,,,,,,,,,,,,,,,,,,
,,,,,,,,,,,,,,,,,,,,,,,,,,,,,,,,,,,,,,,,,,604f48ad0cf8d55887cb172e,606841a6f508cd75d6c4050c,2021-04-03_12h23.39.941,Colour_Similarity_Experiment,2020.2.10,Win32,60,60674ec340277cd6a308bc9f,71.10386882,16.67728867,16.66189791,16.6797032,16.66673806,16.67728867,,,,,,,,,,,,,,,,,,,,PF,strong,3,,,,,,,,4,1.232845,,,,,,,,,,,,,,,,,,,,,,,,,,,,3,strong,43,-71,1,0,0,response3disk,9,188,0,0,1,0,0,rectangle,0,0,1,0,0,,6,4,0.00045,0,0,1,0,0,,0,25,25,143,1,0,,,,,,,,,,,,,,,,,,,
,,,,,,,,,,,,,,,,,,,,,,,,,,,,,,,,,,,,,,,,,,604f48ad0cf8d55887cb172e,606841a6f508cd75d6c4050c,2021-04-03_12h23.39.941,Colour_Similarity_Experiment,2020.2.10,Win32,60,60674ec340277cd6a308bc9f,71.10386882,16.67728867,16.66189791,16.6797032,16.66673806,16.67728867,,,,,,,,,,,,,,,,,,,,PF,weak,3,,,,,,,,1,1.599515,,,,,,,,,,,,,,,,,,,,,,,,,,,,3,weak,-93,40,1,0,0,response7disk,5,189,-6,3,1,0,0,rectangle,-6,3,1,0,0,,6,3,0.00063,-6,3,1,0,0,,0,26,26,66,1,0,,,,,,,,,,,,,,,,,,,
,,,,,,,,,,,,,,,,,,,,,,,,,,,,,,,,,,,,,,,,,,604f48ad0cf8d55887cb172e,606841a6f508cd75d6c4050c,2021-04-03_12h23.39.941,Colour_Similarity_Experiment,2020.2.10,Win32,60,60674ec340277cd6a308bc9f,71.10386882,16.67728867,16.66189791,16.6797032,16.66673806,16.67728867,,,,,,,,,,,,,,,,,,,,PF,weak,3,,,,,,,,1,0.878575,,,,,,,,,,,,,,,,,,,,,,,,,,,,5,weak,-77,37,1,0,0,response7disk,3,190,-20,1,1,0,0,rectangle,-20,1,1,0,0,,6,1,0.00101,-20,1,1,0,0,,0,27,27,109,1,0,,,,,,,,,,,,,,,,,,,
,,,,,,,,,,,,,,,,,,,,,,,,,,,,,,,,,,,,,,,,,,604f48ad0cf8d55887cb172e,606841a6f508cd75d6c4050c,2021-04-03_12h23.39.941,Colour_Similarity_Experiment,2020.2.10,Win32,60,60674ec340277cd6a308bc9f,71.10386882,16.67728867,16.66189791,16.6797032,16.66673806,16.67728867,,,,,,,,,,,,,,,,,,,,PF,weak,3,,,,,,,,5,2.244935,,,,,,,,,,,,,,,,,,,,,,,,,,,,4,weak,92,-47,1,0,0,response3disk,1,191,24,-11,1,0,0,rectangle,24,-11,1,0,0,,6,4,0.000735,24,-11,1,0,0,,0,28,28,115,1,0,,,,,,,,,,,,,,,,,,,
,,,,,,,,,,,,,,,,,,,,,,,,,,,,,,,,,,,,,,,,,,604f48ad0cf8d55887cb172e,606841a6f508cd75d6c4050c,2021-04-03_12h23.39.941,Colour_Similarity_Experiment,2020.2.10,Win32,60,60674ec340277cd6a308bc9f,71.10386882,16.67728867,16.66189791,16.6797032,16.66673806,16.67728867,,,,,,,,,,,,,,,,,,,,PF,strong,3,,,,,,,,6,1.08294,,,,,,,,,,,,,,,,,,,,,,,,,,,,4,strong,102,53,1,0,0,response1disk,4,192,-11,-2,1,0,0,rectangle,-11,-2,1,0,0,,6,2,0.00069,-11,-2,1,0,0,,0,29,29,84,1,0,,,,,,,,,,,,,,,,,,,
,,,,,,,,,,,,,,,,,,,,,,,,,,,,,,,,,,,,,,,,,,604f48ad0cf8d55887cb172e,606841a6f508cd75d6c4050c,2021-04-03_12h23.39.941,Colour_Similarity_Experiment,2020.2.10,Win32,60,60674ec340277cd6a308bc9f,71.10386882,16.67728867,16.66189791,16.6797032,16.66673806,16.67728867,,,,,,,,,,,,,,,,,,,,PF,weak,3,,,,,,,,3,1.09969,,,,,,,,,,,,,,,,,,,,,,,,,,,,6,weak,-43,-69,1,0,0,response5disk,7,193,1,3,1,0,0,rectangle,1,3,1,0,0,,6,1,0.000905,1,3,1,0,0,,0,30,30,50,1,0,,,,,,,,,,,,,,,,,,,
,,,,,,,,,,,,,,,,,,,,,,,,,,,,,,,,,,,,,,,,,,604f48ad0cf8d55887cb172e,606841a6f508cd75d6c4050c,2021-04-03_12h23.39.941,Colour_Similarity_Experiment,2020.2.10,Win32,60,60674ec340277cd6a308bc9f,71.10386882,16.67728867,16.66189791,16.6797032,16.66673806,16.67728867,,,,,,,,,,,,,,,,,,,,PF,strong,3,,,,,,,,4,1.18307,,,,,,,,,,,,,,,,,,,,,,,,,,,,1,strong,48,-79,1,0,0,response3disk,2,194,-8,7,1,0,0,rectangle,-8,7,1,0,0,,6,4,0.000425,-8,7,1,0,0,,0,31,31,2,1,0,,,,,,,,,,,,,,,,,,,
