key_resp.keys,key_resp.rt,key_resp_16.keys,key_resp_16.rt,key_resp_2.keys,key_resp_2.rt,X Scale,ratio_pxpermm,screen_size_x,screen_size_y,testsize,key_resp_3.keys,key_resp_4.keys,key_resp_4.rt,line_size,key_resp_5.keys,key_resp_5.rt,key_resp_6.keys,key_resp_6.rt,key_resp_8.keys,key_resp_8.rt,key_resp_7.keys,key_resp_7.rt,key_resp_12.keys,key_resp_12.rt,key_resp_11.keys,key_resp_11.rt,key_resp_18.keys,key_resp_18.rt,key_resp_21.keys,key_resp_21.rt,key_resp_13.keys,key_resp_13.rt,key_resp_19.keys,key_resp_19.rt,ballposx,viewer_distance,trials.thisRepN,trials.thisTrialN,trials.thisN,trials.thisIndex,trials.ran,participant,session,date,expName,psychopyVersion,OS,frameRate,study_id,realFrameRate1,realFrameRate2,realFrameRate3,realFrameRate4,realFrameRate5,realFrameRate,viewerdistancecm,DVA_to_distance,radius_F,radius_P,r_F,R_P,key_resp_20.keys,key_resp_20.rt,key_resp_14.keys,key_resp_14.rt,key_resp_15.keys,key_resp_15.rt,key_resp_17.keys,key_resp_17.rt,key_resp_9.keys,key_resp_9.rt,key_resp_10.keys,key_resp_10.rt,Colour_1,Ecc,mask_frames,maskCon,mouse_5.x,mouse_5.y,mouse_5.leftButton,mouse_5.midButton,mouse_5.rightButton,mouse_5.clicked_name,Colour_2,similarity,response_time,mouse_10.x,mouse_10.y,mouse_10.leftButton,mouse_10.midButton,mouse_10.rightButton,mouse_10.clicked_name,mouse_7.x,mouse_7.y,mouse_7.leftButton,mouse_7.midButton,mouse_7.rightButton,mouse_7.clicked_name,catchprac,catchnumberprac,mouse_6.x,mouse_6.y,mouse_6.leftButton,mouse_6.midButton,mouse_6.rightButton,mouse_6.clicked_name,duringprac.thisRepN,duringprac.thisTrialN,duringprac.thisN,duringprac.thisIndex,duringprac.ran,key_resp_22.keys,key_resp_22.rt,Colour1,maskCon1,mouse.x,mouse.y,mouse.leftButton,mouse.midButton,mouse.rightButton,mouse.clicked_name,Colour2,trialnumber,mouse_2.x,mouse_2.y,mouse_2.leftButton,mouse_2.midButton,mouse_2.rightButton,mouse_2.clicked_name,mouse_3.x,mouse_3.y,mouse_3.leftButton,mouse_3.midButton,mouse_3.rightButton,catchresponse,catchnumber,response_time_catch,mouse_11.x,mouse_11.y,mouse_11.leftButton,mouse_11.midButton,mouse_11.rightButton,trials_2.thisRepN,trials_2.thisTrialN,trials_2.thisN,trials_2.thisIndex,trials_2.ran,Catch,mouse_3.clicked_name,mouse_11.clicked_name,trials_3.thisRepN,trials_3.thisTrialN,trials_3.thisN,trials_3.thisIndex,trials_3.ran,answer1,rt1,answer2,rt2,answer3,rt3,answer4,rt4,answer5,rt5,answer6,rt6,answer7,rt7
space,1.444695,space,3.72082,space,4.705825,33.2,3.32,578.313253,325.3012048,1920,,space,7.227995,66.4,space,7.74999,space,3.287405,space,2.281755,space,3.51875,space,5.05089,space,4.717225,space,1.660015,space,4.594215,space,4.188955,return,5.42797,-221.76,1241.761636,0,0,0,0,1,588ff21a2597a90001667ee4,606a0f629f8bb6be88bc7cae,2021-04-04_22h11.48.907,Colour_Similarity_Experiment,2020.2.10,Win32,60,60675255c767bca6388caeee,16.84805825,16.66033333,16.70493812,16.69274713,16.65613095,16.69274713,,,,,,,,,,,,,,,,,,,,,,,,,,,,,,,,,,,,,,,,,,,,,,,,,,,,,,,,,,,,,,,,,,,,,,,,,,,,,,,,,,,,,,,,,,,,,,,,,,,,,,,,,,,,,,,,,,
,,,,,,,,,,,,,,,,,,,,,,,,,,,,,,,,,return,5.82504,-288,1324.866925,1,0,1,0,1,588ff21a2597a90001667ee4,606a0f629f8bb6be88bc7cae,2021-04-04_22h11.48.907,Colour_Similarity_Experiment,2020.2.10,Win32,60,60675255c767bca6388caeee,16.84805825,16.66033333,16.70493812,16.69274713,16.65613095,16.69274713,,,,,,,,,,,,,,,,,,,,,,,,,,,,,,,,,,,,,,,,,,,,,,,,,,,,,,,,,,,,,,,,,,,,,,,,,,,,,,,,,,,,,,,,,,,,,,,,,,,,,,,,,,,,,,,,,,
,,,,,,,,,,,,,,,,,,,,,,,,,,,,,,,,,return,5.401375,-216,1234.535089,2,0,2,0,1,588ff21a2597a90001667ee4,606a0f629f8bb6be88bc7cae,2021-04-04_22h11.48.907,Colour_Similarity_Experiment,2020.2.10,Win32,60,60675255c767bca6388caeee,16.84805825,16.66033333,16.70493812,16.69274713,16.65613095,16.69274713,,,,,,,,,,,,,,,,,,,,,,,,,,,,,,,,,,,,,,,,,,,,,,,,,,,,,,,,,,,,,,,,,,,,,,,,,,,,,,,,,,,,,,,,,,,,,,,,,,,,,,,,,,,,,,,,,,
,,,,,,,,,,,,,,,,,,,,,,,,,,,,,,,,,return,5.898945,-302.4,1342.933292,3,0,3,0,1,588ff21a2597a90001667ee4,606a0f629f8bb6be88bc7cae,2021-04-04_22h11.48.907,Colour_Similarity_Experiment,2020.2.10,Win32,60,60675255c767bca6388caeee,16.84805825,16.66033333,16.70493812,16.69274713,16.65613095,16.69274713,,,,,,,,,,,,,,,,,,,,,,,,,,,,,,,,,,,,,,,,,,,,,,,,,,,,,,,,,,,,,,,,,,,,,,,,,,,,,,,,,,,,,,,,,,,,,,,,,,,,,,,,,,,,,,,,,,
,,,,,,,,,,,,,,,,,,,,,,,,,,,,,,,,,return,6.25257,-362.88,1418.812034,4,0,4,0,1,588ff21a2597a90001667ee4,606a0f629f8bb6be88bc7cae,2021-04-04_22h11.48.907,Colour_Similarity_Experiment,2020.2.10,Win32,60,60675255c767bca6388caeee,16.84805825,16.66033333,16.70493812,16.69274713,16.65613095,16.69274713,,,,,,,,,,,,,,,,,,,,,,,,,,,,,,,,,,,,,,,,,,,,,,,,,,,,,,,,,,,,,,,,,,,,,,,,,,,,,,,,,,,,,,,,,,,,,,,,,,,,,,,,,,,,,,,,,,
,,,,,,,,,,,,,,,,,,,,,,,,,,,,,,,,,,,,,,,,,,588ff21a2597a90001667ee4,606a0f629f8bb6be88bc7cae,2021-04-04_22h11.48.907,Colour_Similarity_Experiment,2020.2.10,Win32,60,60675255c767bca6388caeee,16.84805825,16.66033333,16.70493812,16.69274713,16.65613095,16.69274713,132,23.04067747,114.7425738,764.9504918,76.49504918,344.2277213,space,3.607195,space,10.477775,space,12.117485,space,5.58709,space,1.47272,space,3.45255,4,PF,3,strong,-108,-49,1,0,0,response5disk_5,8,2,5.848735,1,12,1,0,0,rectangle_8,58,-124,1,0,0,response3disk_7,4,4,-16,13,1,0,0,rectangle_4,0,0,0,0,1,,,,,,,,,,,,,,,,,,,,,,,,,,,,,,,,,,,,,,,,,,,,,,,,,,,,,,,,,,
,,,,,,,,,,,,,,,,,,,,,,,,,,,,,,,,,,,,,,,,,,588ff21a2597a90001667ee4,606a0f629f8bb6be88bc7cae,2021-04-04_22h11.48.907,Colour_Similarity_Experiment,2020.2.10,Win32,60,60675255c767bca6388caeee,16.84805825,16.66033333,16.70493812,16.69274713,16.65613095,16.69274713,,,,,,,,,,,,,,,,,,,1,PF,3,weak,134,60,1,0,0,response1disk_5,6,6,8.716495,-14,7,1,0,0,rectangle_8,-14,7,1,0,0,,,4,-14,7,1,0,0,,0,1,1,6,1,,,,,,,,,,,,,,,,,,,,,,,,,,,,,,,,,,,,,,,,,,,,,,,,,,,,,,,,,,
,,,,,,,,,,,,,,,,,,,,,,,,,,,,,,,,,,,,,,,,,,588ff21a2597a90001667ee4,606a0f629f8bb6be88bc7cae,2021-04-04_22h11.48.907,Colour_Similarity_Experiment,2020.2.10,Win32,60,60675255c767bca6388caeee,16.84805825,16.66033333,16.70493812,16.69274713,16.65613095,16.69274713,,,,,,,,,,,,,,,,,,,7,PF,3,weak,-45,-86,1,0,0,response5disk_5,4,3,4.633235,-2,-1,1,0,0,rectangle_8,-2,-1,1,0,0,,,4,-2,-1,1,0,0,,0,2,2,5,1,,,,,,,,,,,,,,,,,,,,,,,,,,,,,,,,,,,,,,,,,,,,,,,,,,,,,,,,,,
,,,,,,,,,,,,,,,,,,,,,,,,,,,,,,,,,,,,,,,,,,588ff21a2597a90001667ee4,606a0f629f8bb6be88bc7cae,2021-04-04_22h11.48.907,Colour_Similarity_Experiment,2020.2.10,Win32,60,60675255c767bca6388caeee,16.84805825,16.66033333,16.70493812,16.69274713,16.65613095,16.69274713,,,,,,,,,,,,,,,,,,,6,PF,3,weak,-91,-46,1,0,0,response5disk_5,3,2,2.96665,-2,-4,1,0,0,rectangle_8,41,-119,1,0,0,response3disk_7,4,4,-8,-6,1,0,0,rectangle_4,0,3,3,4,1,,,,,,,,,,,,,,,,,,,,,,,,,,,,,,,,,,,,,,,,,,,,,,,,,,,,,,,,,,
,,,,,,,,,,,,,,,,,,,,,,,,,,,,,,,,,,,,,,,,,,588ff21a2597a90001667ee4,606a0f629f8bb6be88bc7cae,2021-04-04_22h11.48.907,Colour_Similarity_Experiment,2020.2.10,Win32,60,60675255c767bca6388caeee,16.84805825,16.66033333,16.70493812,16.69274713,16.65613095,16.69274713,,,,,,,,,,,,,,,,,,,6,PF,3,strong,-88,-40,1,0,0,response5disk_5,4,2,2.916395,-1,12,1,0,0,rectangle_8,-1,12,1,0,0,,,4,-1,12,1,0,0,,0,4,4,3,1,,,,,,,,,,,,,,,,,,,,,,,,,,,,,,,,,,,,,,,,,,,,,,,,,,,,,,,,,,
,,,,,,,,,,,,,,,,,,,,,,,,,,,,,,,,,,,,,,,,,,588ff21a2597a90001667ee4,606a0f629f8bb6be88bc7cae,2021-04-04_22h11.48.907,Colour_Similarity_Experiment,2020.2.10,Win32,60,60675255c767bca6388caeee,16.84805825,16.66033333,16.70493812,16.69274713,16.65613095,16.69274713,,,,,,,,,,,,,,,,,,,6,PF,3,strong,94,-61,1,0,0,response3disk_5,6,5,3.38328,-1,5,1,0,0,rectangle_8,-1,5,1,0,0,,,4,-1,5,1,0,0,,0,5,5,2,1,,,,,,,,,,,,,,,,,,,,,,,,,,,,,,,,,,,,,,,,,,,,,,,,,,,,,,,,,,
,,,,,,,,,,,,,,,,,,,,,,,,,,,,,,,,,,,,,,,,,,588ff21a2597a90001667ee4,606a0f629f8bb6be88bc7cae,2021-04-04_22h11.48.907,Colour_Similarity_Experiment,2020.2.10,Win32,60,60675255c767bca6388caeee,16.84805825,16.66033333,16.70493812,16.69274713,16.65613095,16.69274713,,,,,,,,,,,,,,,,,,,4,PF,3,weak,104,50,1,0,0,response1disk_5,8,6,3.89969,-13,6,1,0,0,rectangle_8,-13,6,1,0,0,,,4,-13,6,1,0,0,,0,6,6,1,1,,,,,,,,,,,,,,,,,,,,,,,,,,,,,,,,,,,,,,,,,,,,,,,,,,,,,,,,,,
,,,,,,,,,,,,,,,,,,,,,,,,,,,,,,,,,,,,,,,,,,588ff21a2597a90001667ee4,606a0f629f8bb6be88bc7cae,2021-04-04_22h11.48.907,Colour_Similarity_Experiment,2020.2.10,Win32,60,60675255c767bca6388caeee,16.84805825,16.66033333,16.70493812,16.69274713,16.65613095,16.69274713,,,,,,,,,,,,,,,,,,,,PF,3,weak,,,,,,,,0,3.56633,,,,,,,,,,,,,,,,,,,,,,,,,,space,2.503265,8,weak,-39,128,1,0,0,response7disk,8,1,-20,0,1,0,0,rectangle,-20,0,1,0,0,,1,0.00148,-20,0,1,0,0,0,0,0,153,1,0,,,,,,,,,,,,,,,,,,,,,
,,,,,,,,,,,,,,,,,,,,,,,,,,,,,,,,,,,,,,,,,,588ff21a2597a90001667ee4,606a0f629f8bb6be88bc7cae,2021-04-04_22h11.48.907,Colour_Similarity_Experiment,2020.2.10,Win32,60,60675255c767bca6388caeee,16.84805825,16.66033333,16.70493812,16.69274713,16.65613095,16.69274713,,,,,,,,,,,,,,,,,,,,PF,3,weak,,,,,,,,7,3.016305,,,,,,,,,,,,,,,,,,,,,,,,,,,,9,weak,51,102,1,0,0,response1disk,4,2,-7,5,1,0,0,rectangle,-7,5,1,0,0,,3,0.000655,-7,5,1,0,0,0,1,1,114,1,0,,,,,,,,,,,,,,,,,,,,,
,,,,,,,,,,,,,,,,,,,,,,,,,,,,,,,,,,,,,,,,,,588ff21a2597a90001667ee4,606a0f629f8bb6be88bc7cae,2021-04-04_22h11.48.907,Colour_Similarity_Experiment,2020.2.10,Win32,60,60675255c767bca6388caeee,16.84805825,16.66033333,16.70493812,16.69274713,16.65613095,16.69274713,,,,,,,,,,,,,,,,,,,,PF,3,weak,,,,,,,,5,3.049825,,,,,,,,,,,,,,,,,,,,,,,,,,,,6,weak,94,-50,1,0,0,response3disk,1,3,1,0,1,0,0,rectangle,1,0,1,0,0,,5,0.000605,1,0,1,0,0,0,2,2,46,1,0,,,,,,,,,,,,,,,,,,,,,
,,,,,,,,,,,,,,,,,,,,,,,,,,,,,,,,,,,,,,,,,,588ff21a2597a90001667ee4,606a0f629f8bb6be88bc7cae,2021-04-04_22h11.48.907,Colour_Similarity_Experiment,2020.2.10,Win32,60,60675255c767bca6388caeee,16.84805825,16.66033333,16.70493812,16.69274713,16.65613095,16.69274713,,,,,,,,,,,,,,,,,,,,PF,3,weak,,,,,,,,7,3.08334,,,,,,,,,,,,,,,,,,,,,,,,,,,,1,weak,63,103,1,0,0,response1disk,7,4,9,-3,1,0,0,rectangle,9,-3,1,0,0,,2,0.000585,9,-3,1,0,0,0,3,3,150,1,0,,,,,,,,,,,,,,,,,,,,,
,,,,,,,,,,,,,,,,,,,,,,,,,,,,,,,,,,,,,,,,,,588ff21a2597a90001667ee4,606a0f629f8bb6be88bc7cae,2021-04-04_22h11.48.907,Colour_Similarity_Experiment,2020.2.10,Win32,60,60675255c767bca6388caeee,16.84805825,16.66033333,16.70493812,16.69274713,16.65613095,16.69274713,,,,,,,,,,,,,,,,,,,,PF,3,strong,,,,,,,,6,5.76668,,,,,,,,,,,,,,,,,,,,,,,,,,,,9,strong,105,57,1,0,0,response1disk,9,5,0,2,1,0,0,rectangle,0,2,1,0,0,,4,0.0006,0,2,1,0,0,0,4,4,17,1,0,,,,,,,,,,,,,,,,,,,,,
,,,,,,,,,,,,,,,,,,,,,,,,,,,,,,,,,,,,,,,,,,588ff21a2597a90001667ee4,606a0f629f8bb6be88bc7cae,2021-04-04_22h11.48.907,Colour_Similarity_Experiment,2020.2.10,Win32,60,60675255c767bca6388caeee,16.84805825,16.66033333,16.70493812,16.69274713,16.65613095,16.69274713,,,,,,,,,,,,,,,,,,,,PF,3,strong,,,,,,,,7,2.316465,,,,,,,,,,,,,,,,,,,,,,,,,,,,5,strong,41,100,1,0,0,response1disk,4,6,-19,8,1,0,0,rectangle,-19,8,1,0,0,,7,0.00059,-19,8,1,0,0,0,5,5,8,1,0,,,,,,,,,,,,,,,,,,,,,
,,,,,,,,,,,,,,,,,,,,,,,,,,,,,,,,,,,,,,,,,,588ff21a2597a90001667ee4,606a0f629f8bb6be88bc7cae,2021-04-04_22h11.48.907,Colour_Similarity_Experiment,2020.2.10,Win32,60,60675255c767bca6388caeee,16.84805825,16.66033333,16.70493812,16.69274713,16.65613095,16.69274713,,,,,,,,,,,,,,,,,,,,PF,3,weak,,,,,,,,2,2.51643,,,,,,,,,,,,,,,,,,,,,,,,,,,,1,weak,-70,-45,1,0,0,response5disk,5,7,-10,-3,1,0,0,rectangle,-10,-3,1,0,0,,0,0.000975,-10,-3,1,0,0,0,6,6,28,1,0,,,,,,,,,,,,,,,,,,,,,
,,,,,,,,,,,,,,,,,,,,,,,,,,,,,,,,,,,,,,,,,,588ff21a2597a90001667ee4,606a0f629f8bb6be88bc7cae,2021-04-04_22h11.48.907,Colour_Similarity_Experiment,2020.2.10,Win32,60,60675255c767bca6388caeee,16.84805825,16.66033333,16.70493812,16.69274713,16.65613095,16.69274713,,,,,,,,,,,,,,,,,,,,PF,3,strong,,,,,,,,7,2.08326,,,,,,,,,,,,,,,,,,,,,,,,,,,,5,strong,48,70,1,0,0,response1disk,6,8,-9,3,1,0,0,rectangle,-9,3,1,0,0,,5,0.00067,-9,3,1,0,0,0,7,7,12,1,0,,,,,,,,,,,,,,,,,,,,,
,,,,,,,,,,,,,,,,,,,,,,,,,,,,,,,,,,,,,,,,,,588ff21a2597a90001667ee4,606a0f629f8bb6be88bc7cae,2021-04-04_22h11.48.907,Colour_Similarity_Experiment,2020.2.10,Win32,60,60675255c767bca6388caeee,16.84805825,16.66033333,16.70493812,16.69274713,16.65613095,16.69274713,,,,,,,,,,,,,,,,,,,,PF,3,weak,,,,,,,,6,2.45006,,,,,,,,,,,,,,,,,,,,,,,,,,,,4,weak,70,52,1,0,0,response1disk,2,9,5,12,1,0,0,rectangle,5,12,1,0,0,,5,0.00011,5,12,1,0,0,0,8,8,108,1,0,,,,,,,,,,,,,,,,,,,,,
,,,,,,,,,,,,,,,,,,,,,,,,,,,,,,,,,,,,,,,,,,588ff21a2597a90001667ee4,606a0f629f8bb6be88bc7cae,2021-04-04_22h11.48.907,Colour_Similarity_Experiment,2020.2.10,Win32,60,60675255c767bca6388caeee,16.84805825,16.66033333,16.70493812,16.69274713,16.65613095,16.69274713,,,,,,,,,,,,,,,,,,,,PF,3,strong,,,,,,,,5,6.133395,,,,,,,,,,,,,,,,,,,,,,,,,,,,3,strong,57,-33,1,0,0,response3disk,8,10,11,-1,1,0,0,rectangle,11,-1,1,0,0,,3,0.000615,11,-1,1,0,0,0,9,9,44,1,0,,,,,,,,,,,,,,,,,,,,,
,,,,,,,,,,,,,,,,,,,,,,,,,,,,,,,,,,,,,,,,,,588ff21a2597a90001667ee4,606a0f629f8bb6be88bc7cae,2021-04-04_22h11.48.907,Colour_Similarity_Experiment,2020.2.10,Win32,60,60675255c767bca6388caeee,16.84805825,16.66033333,16.70493812,16.69274713,16.65613095,16.69274713,,,,,,,,,,,,,,,,,,,,PF,3,weak,,,,,,,,6,2.850165,,,,,,,,,,,,,,,,,,,,,,,,,,,,6,weak,85,64,1,0,0,response1disk,5,11,5,2,1,0,0,rectangle,5,2,1,0,0,,4,0.000765,5,2,1,0,0,0,10,10,59,1,0,,,,,,,,,,,,,,,,,,,,,
,,,,,,,,,,,,,,,,,,,,,,,,,,,,,,,,,,,,,,,,,,588ff21a2597a90001667ee4,606a0f629f8bb6be88bc7cae,2021-04-04_22h11.48.907,Colour_Similarity_Experiment,2020.2.10,Win32,60,60675255c767bca6388caeee,16.84805825,16.66033333,16.70493812,16.69274713,16.65613095,16.69274713,,,,,,,,,,,,,,,,,,,,PF,3,weak,,,,,,,,7,2.50029,,,,,,,,,,,,,,,,,,,,,,,,,,,,9,weak,48,67,1,0,0,response1disk,9,12,-9,-12,1,0,0,rectangle,-9,-12,1,0,0,,2,0.000625,-9,-12,1,0,0,0,11,11,106,1,0,,,,,,,,,,,,,,,,,,,,,
,,,,,,,,,,,,,,,,,,,,,,,,,,,,,,,,,,,,,,,,,,588ff21a2597a90001667ee4,606a0f629f8bb6be88bc7cae,2021-04-04_22h11.48.907,Colour_Similarity_Experiment,2020.2.10,Win32,60,60675255c767bca6388caeee,16.84805825,16.66033333,16.70493812,16.69274713,16.65613095,16.69274713,,,,,,,,,,,,,,,,,,,,PF,3,weak,,,,,,,,6,2.68329,,,,,,,,,,,,,,,,,,,,,,,,,,,,2,weak,102,32,1,0,0,response1disk,3,13,7,1,1,0,0,rectangle,7,1,1,0,0,,1,0.00074,7,1,1,0,0,0,12,12,69,1,0,,,,,,,,,,,,,,,,,,,,,
,,,,,,,,,,,,,,,,,,,,,,,,,,,,,,,,,,,,,,,,,,588ff21a2597a90001667ee4,606a0f629f8bb6be88bc7cae,2021-04-04_22h11.48.907,Colour_Similarity_Experiment,2020.2.10,Win32,60,60675255c767bca6388caeee,16.84805825,16.66033333,16.70493812,16.69274713,16.65613095,16.69274713,,,,,,,,,,,,,,,,,,,,PF,3,weak,,,,,,,,5,2.99995,,,,,,,,,,,,,,,,,,,,,,,,,,,,2,weak,87,-35,1,0,0,response3disk,9,14,3,6,1,0,0,rectangle,3,6,1,0,0,,2,0.00062,3,6,1,0,0,0,13,13,39,1,0,,,,,,,,,,,,,,,,,,,,,
,,,,,,,,,,,,,,,,,,,,,,,,,,,,,,,,,,,,,,,,,,588ff21a2597a90001667ee4,606a0f629f8bb6be88bc7cae,2021-04-04_22h11.48.907,Colour_Similarity_Experiment,2020.2.10,Win32,60,60675255c767bca6388caeee,16.84805825,16.66033333,16.70493812,16.69274713,16.65613095,16.69274713,,,,,,,,,,,,,,,,,,,,PF,3,weak,,,,,,,,3,1.883275,,,,,,,,,,,,,,,,,,,,,,,,,,,,3,weak,-35,-84,1,0,0,response5disk,8,15,-13,6,1,0,0,rectangle,-13,6,1,0,0,,2,9.00001E-05,-13,6,1,0,0,0,14,14,3,1,0,,,,,,,,,,,,,,,,,,,,,
,,,,,,,,,,,,,,,,,,,,,,,,,,,,,,,,,,,,,,,,,,588ff21a2597a90001667ee4,606a0f629f8bb6be88bc7cae,2021-04-04_22h11.48.907,Colour_Similarity_Experiment,2020.2.10,Win32,60,60675255c767bca6388caeee,16.84805825,16.66033333,16.70493812,16.69274713,16.65613095,16.69274713,,,,,,,,,,,,,,,,,,,,PF,3,weak,,,,,,,,4,1.583215,,,,,,,,,,,,,,,,,,,,,,,,,,,,6,weak,38,-76,1,0,0,response3disk,6,16,11,-10,1,0,0,rectangle,11,-10,1,0,0,,5,0.00095,11,-10,1,0,0,0,15,15,0,1,0,,,,,,,,,,,,,,,,,,,,,
,,,,,,,,,,,,,,,,,,,,,,,,,,,,,,,,,,,,,,,,,,588ff21a2597a90001667ee4,606a0f629f8bb6be88bc7cae,2021-04-04_22h11.48.907,Colour_Similarity_Experiment,2020.2.10,Win32,60,60675255c767bca6388caeee,16.84805825,16.66033333,16.70493812,16.69274713,16.65613095,16.69274713,,,,,,,,,,,,,,,,,,,,PF,3,strong,,,,,,,,4,2.15003,,,,,,,,,,,,,,,,,,,,,,,,,,,,2,strong,48,-97,1,0,0,response3disk,9,17,-3,-3,1,0,0,rectangle,-3,-3,1,0,0,,4,0.0006,-3,-3,1,0,0,0,16,16,72,1,0,,,,,,,,,,,,,,,,,,,,,
,,,,,,,,,,,,,,,,,,,,,,,,,,,,,,,,,,,,,,,,,,588ff21a2597a90001667ee4,606a0f629f8bb6be88bc7cae,2021-04-04_22h11.48.907,Colour_Similarity_Experiment,2020.2.10,Win32,60,60675255c767bca6388caeee,16.84805825,16.66033333,16.70493812,16.69274713,16.65613095,16.69274713,,,,,,,,,,,,,,,,,,,,PF,3,strong,,,,,,,,6,2.849865,,,,,,,,,,,,,,,,,,,,,,,,,,,,4,strong,105,48,1,0,0,response1disk,3,18,18,-2,1,0,0,rectangle,18,-2,1,0,0,,1,0.00059,18,-2,1,0,0,0,17,17,77,1,0,,,,,,,,,,,,,,,,,,,,,
,,,,,,,,,,,,,,,,,,,,,,,,,,,,,,,,,,,,,,,,,,588ff21a2597a90001667ee4,606a0f629f8bb6be88bc7cae,2021-04-04_22h11.48.907,Colour_Similarity_Experiment,2020.2.10,Win32,60,60675255c767bca6388caeee,16.84805825,16.66033333,16.70493812,16.69274713,16.65613095,16.69274713,,,,,,,,,,,,,,,,,,,,PF,3,strong,,,,,,,,2,1.48329,,,,,,,,,,,,,,,,,,,,,,,,,,,,8,strong,-100,-54,1,0,0,response5disk,5,19,-14,-3,1,0,0,rectangle,-14,-3,1,0,0,,7,0.000575,-14,-3,1,0,0,0,18,18,152,1,0,,,,,,,,,,,,,,,,,,,,,
,,,,,,,,,,,,,,,,,,,,,,,,,,,,,,,,,,,,,,,,,,588ff21a2597a90001667ee4,606a0f629f8bb6be88bc7cae,2021-04-04_22h11.48.907,Colour_Similarity_Experiment,2020.2.10,Win32,60,60675255c767bca6388caeee,16.84805825,16.66033333,16.70493812,16.69274713,16.65613095,16.69274713,,,,,,,,,,,,,,,,,,,,PF,3,strong,,,,,,,,1,1.316255,,,,,,,,,,,,,,,,,,,,,,,,,,,,2,strong,-113,47,1,0,0,response7disk,5,20,1,-4,1,0,0,rectangle,1,-4,1,0,0,,5,0.000775,1,-4,1,0,0,0,19,19,80,1,0,,,,,,,,,,,,,,,,,,,,,
,,,,,,,,,,,,,,,,,,,,,,,,,,,,,,,,,,,,,,,,,,588ff21a2597a90001667ee4,606a0f629f8bb6be88bc7cae,2021-04-04_22h11.48.907,Colour_Similarity_Experiment,2020.2.10,Win32,60,60675255c767bca6388caeee,16.84805825,16.66033333,16.70493812,16.69274713,16.65613095,16.69274713,,,,,,,,,,,,,,,,,,,,PF,3,weak,,,,,,,,6,1.79985,,,,,,,,,,,,,,,,,,,,,,,,,,,,1,weak,102,28,1,0,0,response1disk,9,21,12,4,1,0,0,rectangle,12,4,1,0,0,,2,0.000605,12,4,1,0,0,0,20,20,15,1,0,,,,,,,,,,,,,,,,,,,,,
,,,,,,,,,,,,,,,,,,,,,,,,,,,,,,,,,,,,,,,,,,588ff21a2597a90001667ee4,606a0f629f8bb6be88bc7cae,2021-04-04_22h11.48.907,Colour_Similarity_Experiment,2020.2.10,Win32,60,60675255c767bca6388caeee,16.84805825,16.66033333,16.70493812,16.69274713,16.65613095,16.69274713,,,,,,,,,,,,,,,,,,,,PF,3,weak,,,,,,,,3,1.76657,,,,,,,,,,,,,,,,,,,,,,,,,,,,5,weak,-56,-92,1,0,0,response5disk,1,22,-36,-11,1,0,0,rectangle,-119,59,1,0,0,1,1,3.38422,-9,5,1,0,0,0,21,21,159,1,1,response7disk_3,rectangle,,,,,,,,,,,,,,,,,,,
,,,,,,,,,,,,,,,,,,,,,,,,,,,,,,,,,,,,,,,,,,588ff21a2597a90001667ee4,606a0f629f8bb6be88bc7cae,2021-04-04_22h11.48.907,Colour_Similarity_Experiment,2020.2.10,Win32,60,60675255c767bca6388caeee,16.84805825,16.66033333,16.70493812,16.69274713,16.65613095,16.69274713,,,,,,,,,,,,,,,,,,,,PF,3,weak,,,,,,,,6,11.29984,,,,,,,,,,,,,,,,,,,,,,,,,,,,8,weak,64,45,1,0,0,response1disk,5,23,-12,0,1,0,0,rectangle,-12,0,1,0,0,1,1,0.00012,-12,0,1,0,0,0,22,22,98,1,0,,,,,,,,,,,,,,,,,,,,,
,,,,,,,,,,,,,,,,,,,,,,,,,,,,,,,,,,,,,,,,,,588ff21a2597a90001667ee4,606a0f629f8bb6be88bc7cae,2021-04-04_22h11.48.907,Colour_Similarity_Experiment,2020.2.10,Win32,60,60675255c767bca6388caeee,16.84805825,16.66033333,16.70493812,16.69274713,16.65613095,16.69274713,,,,,,,,,,,,,,,,,,,,PF,3,strong,,,,,,,,5,2.899825,,,,,,,,,,,,,,,,,,,,,,,,,,,,5,strong,94,-45,1,0,0,response3disk,7,24,13,2,1,0,0,rectangle,13,2,1,0,0,1,2,0.00063,13,2,1,0,0,0,23,23,7,1,0,,,,,,,,,,,,,,,,,,,,,
,,,,,,,,,,,,,,,,,,,,,,,,,,,,,,,,,,,,,,,,,,588ff21a2597a90001667ee4,606a0f629f8bb6be88bc7cae,2021-04-04_22h11.48.907,Colour_Similarity_Experiment,2020.2.10,Win32,60,60675255c767bca6388caeee,16.84805825,16.66033333,16.70493812,16.69274713,16.65613095,16.69274713,,,,,,,,,,,,,,,,,,,,PF,3,weak,,,,,,,,6,3.65045,,,,,,,,,,,,,,,,,,,,,,,,,,,,9,weak,101,25,1,0,0,response1disk,3,25,27,-4,1,0,0,rectangle,27,-4,1,0,0,1,4,0.00094,27,-4,1,0,0,0,24,24,119,1,0,,,,,,,,,,,,,,,,,,,,,
,,,,,,,,,,,,,,,,,,,,,,,,,,,,,,,,,,,,,,,,,,588ff21a2597a90001667ee4,606a0f629f8bb6be88bc7cae,2021-04-04_22h11.48.907,Colour_Similarity_Experiment,2020.2.10,Win32,60,60675255c767bca6388caeee,16.84805825,16.66033333,16.70493812,16.69274713,16.65613095,16.69274713,,,,,,,,,,,,,,,,,,,,PF,3,weak,,,,,,,,2,1.79967,,,,,,,,,,,,,,,,,,,,,,,,,,,,9,weak,-122,-40,1,0,0,response5disk,5,26,-37,2,1,0,0,rectangle,-37,2,1,0,0,1,6,0.000565,-37,2,1,0,0,0,25,25,134,1,0,,,,,,,,,,,,,,,,,,,,,
,,,,,,,,,,,,,,,,,,,,,,,,,,,,,,,,,,,,,,,,,,588ff21a2597a90001667ee4,606a0f629f8bb6be88bc7cae,2021-04-04_22h11.48.907,Colour_Similarity_Experiment,2020.2.10,Win32,60,60675255c767bca6388caeee,16.84805825,16.66033333,16.70493812,16.69274713,16.65613095,16.69274713,,,,,,,,,,,,,,,,,,,,PF,3,strong,,,,,,,,2,1.116645,,,,,,,,,,,,,,,,,,,,,,,,,,,,2,strong,-90,-45,1,0,0,response5disk,3,27,-25,0,1,0,0,rectangle,-56,-121,1,0,0,3,3,2.51638,-8,-12,1,0,0,0,26,26,104,1,1,response5disk_3,rectangle,,,,,,,,,,,,,,,,,,,
,,,,,,,,,,,,,,,,,,,,,,,,,,,,,,,,,,,,,,,,,,588ff21a2597a90001667ee4,606a0f629f8bb6be88bc7cae,2021-04-04_22h11.48.907,Colour_Similarity_Experiment,2020.2.10,Win32,60,60675255c767bca6388caeee,16.84805825,16.66033333,16.70493812,16.69274713,16.65613095,16.69274713,,,,,,,,,,,,,,,,,,,,PF,3,weak,,,,,,,,6,3.6167,,,,,,,,,,,,,,,,,,,,,,,,,,,,7,weak,105,58,1,0,0,response1disk,7,28,-4,4,1,0,0,rectangle,-4,4,1,0,0,3,0,0.000945,-4,4,1,0,0,0,27,27,51,1,0,,,,,,,,,,,,,,,,,,,,,
,,,,,,,,,,,,,,,,,,,,,,,,,,,,,,,,,,,,,,,,,,588ff21a2597a90001667ee4,606a0f629f8bb6be88bc7cae,2021-04-04_22h11.48.907,Colour_Similarity_Experiment,2020.2.10,Win32,60,60675255c767bca6388caeee,16.84805825,16.66033333,16.70493812,16.69274713,16.65613095,16.69274713,,,,,,,,,,,,,,,,,,,,PF,3,weak,,,,,,,,0,1.61654,,,,,,,,,,,,,,,,,,,,,,,,,,,,5,weak,-49,125,1,0,0,response7disk,7,29,-18,6,1,0,0,rectangle,-18,6,1,0,0,3,1,0.000555,-18,6,1,0,0,0,28,28,146,1,0,,,,,,,,,,,,,,,,,,,,,
,,,,,,,,,,,,,,,,,,,,,,,,,,,,,,,,,,,,,,,,,,588ff21a2597a90001667ee4,606a0f629f8bb6be88bc7cae,2021-04-04_22h11.48.907,Colour_Similarity_Experiment,2020.2.10,Win32,60,60675255c767bca6388caeee,16.84805825,16.66033333,16.70493812,16.69274713,16.65613095,16.69274713,,,,,,,,,,,,,,,,,,,,PF,3,strong,,,,,,,,6,2.449795,,,,,,,,,,,,,,,,,,,,,,,,,,,,3,strong,106,35,1,0,0,response1disk,4,30,18,-5,1,0,0,rectangle,18,-5,1,0,0,3,2,0.000585,18,-5,1,0,0,0,29,29,110,1,0,,,,,,,,,,,,,,,,,,,,,
,,,,,,,,,,,,,,,,,,,,,,,,,,,,,,,,,,,,,,,,,,588ff21a2597a90001667ee4,606a0f629f8bb6be88bc7cae,2021-04-04_22h11.48.907,Colour_Similarity_Experiment,2020.2.10,Win32,60,60675255c767bca6388caeee,16.84805825,16.66033333,16.70493812,16.69274713,16.65613095,16.69274713,,,,,,,,,,,,,,,,,,,,PF,3,weak,,,,,,,,5,1.51641,,,,,,,,,,,,,,,,,,,,,,,,,,,,3,weak,57,-42,1,0,0,response3disk,1,31,-3,-1,1,0,0,rectangle,-3,-1,1,0,0,3,2,8.49999E-05,-3,-1,1,0,0,0,30,30,96,1,0,,,,,,,,,,,,,,,,,,,,,
,,,,,,,,,,,,,,,,,,,,,,,,,,,,,,,,,,,,,,,,,,588ff21a2597a90001667ee4,606a0f629f8bb6be88bc7cae,2021-04-04_22h11.48.907,Colour_Similarity_Experiment,2020.2.10,Win32,60,60675255c767bca6388caeee,16.84805825,16.66033333,16.70493812,16.69274713,16.65613095,16.69274713,,,,,,,,,,,,,,,,,,,,PF,3,weak,,,,,,,,2,3.715645,,,,,,,,,,,,,,,,,,,,,,,,,,,,3,weak,-68,-41,1,0,0,response5disk,4,32,-15,5,1,0,0,rectangle,-15,5,1,0,0,3,6,0.00094,-15,5,1,0,0,0,31,31,30,1,0,,,,,,,,,,,,,,,,,,,,,
,,,,,,,,,,,,,,,,,,,,,,,,,,,,,,,,,,,,,,,,,,588ff21a2597a90001667ee4,606a0f629f8bb6be88bc7cae,2021-04-04_22h11.48.907,Colour_Similarity_Experiment,2020.2.10,Win32,60,60675255c767bca6388caeee,16.84805825,16.66033333,16.70493812,16.69274713,16.65613095,16.69274713,,,,,,,,,,,,,,,,,,,,PF,3,weak,,,,,,,,0,1.03331,,,,,,,,,,,,,,,,,,,,,,,,,,,,2,weak,-61,94,1,0,0,response7disk,4,33,2,-4,1,0,0,rectangle,2,-4,1,0,0,3,4,0.00059,2,-4,1,0,0,0,32,32,127,1,0,,,,,,,,,,,,,,,,,,,,,
,,,,,,,,,,,,,,,,,,,,,,,,,,,,,,,,,,,,,,,,,,588ff21a2597a90001667ee4,606a0f629f8bb6be88bc7cae,2021-04-04_22h11.48.907,Colour_Similarity_Experiment,2020.2.10,Win32,60,60675255c767bca6388caeee,16.84805825,16.66033333,16.70493812,16.69274713,16.65613095,16.69274713,,,,,,,,,,,,,,,,,,,,PF,3,strong,,,,,,,,6,2.43345,,,,,,,,,,,,,,,,,,,,,,,,,,,,1,strong,94,39,1,0,0,response1disk,8,34,7,13,1,0,0,rectangle,7,13,1,0,0,3,0,0.000915,7,13,1,0,0,0,33,33,27,1,0,,,,,,,,,,,,,,,,,,,,,
,,,,,,,,,,,,,,,,,,,,,,,,,,,,,,,,,,,,,,,,,,588ff21a2597a90001667ee4,606a0f629f8bb6be88bc7cae,2021-04-04_22h11.48.907,Colour_Similarity_Experiment,2020.2.10,Win32,60,60675255c767bca6388caeee,16.84805825,16.66033333,16.70493812,16.69274713,16.65613095,16.69274713,,,,,,,,,,,,,,,,,,,,PF,3,weak,,,,,,,,4,2.916805,,,,,,,,,,,,,,,,,,,,,,,,,,,,1,weak,45,-103,1,0,0,response3disk,1,35,-3,-12,1,0,0,rectangle,66,137,1,0,0,7,7,2.466495,11,-7,1,0,0,0,34,34,76,1,1,response1disk_3,rectangle,,,,,,,,,,,,,,,,,,,
,,,,,,,,,,,,,,,,,,,,,,,,,,,,,,,,,,,,,,,,,,588ff21a2597a90001667ee4,606a0f629f8bb6be88bc7cae,2021-04-04_22h11.48.907,Colour_Similarity_Experiment,2020.2.10,Win32,60,60675255c767bca6388caeee,16.84805825,16.66033333,16.70493812,16.69274713,16.65613095,16.69274713,,,,,,,,,,,,,,,,,,,,PF,3,strong,,,,,,,,6,1.93336,,,,,,,,,,,,,,,,,,,,,,,,,,,,9,strong,96,51,1,0,0,response1disk,4,36,0,3,1,0,0,rectangle,0,3,1,0,0,7,6,0.000975,0,3,1,0,0,0,35,35,60,1,0,,,,,,,,,,,,,,,,,,,,,
,,,,,,,,,,,,,,,,,,,,,,,,,,,,,,,,,,,,,,,,,,588ff21a2597a90001667ee4,606a0f629f8bb6be88bc7cae,2021-04-04_22h11.48.907,Colour_Similarity_Experiment,2020.2.10,Win32,60,60675255c767bca6388caeee,16.84805825,16.66033333,16.70493812,16.69274713,16.65613095,16.69274713,,,,,,,,,,,,,,,,,,,,PF,3,strong,,,,,,,,0,0.966375,,,,,,,,,,,,,,,,,,,,,,,,,,,,1,strong,-70,151,1,0,0,response7disk,4,37,0,5,1,0,0,rectangle,0,5,1,0,0,7,2,0.00056,0,5,1,0,0,0,36,36,135,1,0,,,,,,,,,,,,,,,,,,,,,
,,,,,,,,,,,,,,,,,,,,,,,,,,,,,,,,,,,,,,,,,,588ff21a2597a90001667ee4,606a0f629f8bb6be88bc7cae,2021-04-04_22h11.48.907,Colour_Similarity_Experiment,2020.2.10,Win32,60,60675255c767bca6388caeee,16.84805825,16.66033333,16.70493812,16.69274713,16.65613095,16.69274713,,,,,,,,,,,,,,,,,,,,PF,3,strong,,,,,,,,6,1.71653,,,,,,,,,,,,,,,,,,,,,,,,,,,,1,strong,131,29,1,0,0,response1disk,6,38,-25,15,1,0,0,rectangle,-25,15,1,0,0,7,7,0.000565,-25,15,1,0,0,0,37,37,58,1,0,,,,,,,,,,,,,,,,,,,,,
,,,,,,,,,,,,,,,,,,,,,,,,,,,,,,,,,,,,,,,,,,588ff21a2597a90001667ee4,606a0f629f8bb6be88bc7cae,2021-04-04_22h11.48.907,Colour_Similarity_Experiment,2020.2.10,Win32,60,60675255c767bca6388caeee,16.84805825,16.66033333,16.70493812,16.69274713,16.65613095,16.69274713,,,,,,,,,,,,,,,,,,,,PF,3,strong,,,,,,,,0,1.23354,,,,,,,,,,,,,,,,,,,,,,,,,,,,3,strong,-59,109,1,0,0,response7disk,6,39,-2,7,1,0,0,rectangle,-2,7,1,0,0,7,7,8.51E-05,-2,7,1,0,0,0,38,38,95,1,0,,,,,,,,,,,,,,,,,,,,,
,,,,,,,,,,,,,,,,,,,,,,,,,,,,,,,,,,,,,,,,,,588ff21a2597a90001667ee4,606a0f629f8bb6be88bc7cae,2021-04-04_22h11.48.907,Colour_Similarity_Experiment,2020.2.10,Win32,60,60675255c767bca6388caeee,16.84805825,16.66033333,16.70493812,16.69274713,16.65613095,16.69274713,,,,,,,,,,,,,,,,,,,,PF,3,strong,,,,,,,,7,2.466615,,,,,,,,,,,,,,,,,,,,,,,,,,,,6,strong,29,107,1,0,0,response1disk,2,40,-2,2,1,0,0,rectangle,-2,2,1,0,0,7,6,0.00078,-2,2,1,0,0,0,39,39,112,1,0,,,,,,,,,,,,,,,,,,,,,
,,,,,,,,,,,,,,,,,,,,,,,,,,,,,,,,,,,,,,,,,,588ff21a2597a90001667ee4,606a0f629f8bb6be88bc7cae,2021-04-04_22h11.48.907,Colour_Similarity_Experiment,2020.2.10,Win32,60,60675255c767bca6388caeee,16.84805825,16.66033333,16.70493812,16.69274713,16.65613095,16.69274713,,,,,,,,,,,,,,,,,,,,PF,3,weak,,,,,,,,7,2.38322,,,,,,,,,,,,,,,,,,,,,,,,,,,,4,weak,60,126,1,0,0,response1disk,6,41,-7,12,1,0,0,rectangle,-7,12,1,0,0,7,2,0.000955,-7,12,1,0,0,0,40,40,120,1,0,,,,,,,,,,,,,,,,,,,,,
,,,,,,,,,,,,,,,,,,,,,,,,,,,,,,,,,,,,,,,,,,588ff21a2597a90001667ee4,606a0f629f8bb6be88bc7cae,2021-04-04_22h11.48.907,Colour_Similarity_Experiment,2020.2.10,Win32,60,60675255c767bca6388caeee,16.84805825,16.66033333,16.70493812,16.69274713,16.65613095,16.69274713,,,,,,,,,,,,,,,,,,,,PF,3,weak,,,,,,,,1,1.71633,,,,,,,,,,,,,,,,,,,,,,,,,,,,9,weak,-78,46,1,0,0,response7disk,7,42,-1,-9,1,0,0,rectangle,-1,-9,1,0,0,7,1,0.000615,-1,-9,1,0,0,0,41,41,121,1,0,,,,,,,,,,,,,,,,,,,,,
,,,,,,,,,,,,,,,,,,,,,,,,,,,,,,,,,,,,,,,,,,588ff21a2597a90001667ee4,606a0f629f8bb6be88bc7cae,2021-04-04_22h11.48.907,Colour_Similarity_Experiment,2020.2.10,Win32,60,60675255c767bca6388caeee,16.84805825,16.66033333,16.70493812,16.69274713,16.65613095,16.69274713,,,,,,,,,,,,,,,,,,,,PF,3,strong,,,,,,,,6,2.14988,,,,,,,,,,,,,,,,,,,,,,,,,,,,3,strong,115,35,1,0,0,response1disk,3,43,19,-2,1,0,0,rectangle,19,-2,1,0,0,7,1,7.99999E-05,19,-2,1,0,0,0,42,42,68,1,0,,,,,,,,,,,,,,,,,,,,,
,,,,,,,,,,,,,,,,,,,,,,,,,,,,,,,,,,,,,,,,,,588ff21a2597a90001667ee4,606a0f629f8bb6be88bc7cae,2021-04-04_22h11.48.907,Colour_Similarity_Experiment,2020.2.10,Win32,60,60675255c767bca6388caeee,16.84805825,16.66033333,16.70493812,16.69274713,16.65613095,16.69274713,,,,,,,,,,,,,,,,,,,,PF,3,strong,,,,,,,,7,2.03327,,,,,,,,,,,,,,,,,,,,,,,,,,,,6,strong,62,99,1,0,0,response1disk,8,44,-2,1,1,0,0,rectangle,-2,1,1,0,0,7,4,0.00057,-2,1,1,0,0,0,43,43,133,1,0,,,,,,,,,,,,,,,,,,,,,
,,,,,,,,,,,,,,,,,,,,,,,,,,,,,,,,,,,,,,,,,,588ff21a2597a90001667ee4,606a0f629f8bb6be88bc7cae,2021-04-04_22h11.48.907,Colour_Similarity_Experiment,2020.2.10,Win32,60,60675255c767bca6388caeee,16.84805825,16.66033333,16.70493812,16.69274713,16.65613095,16.69274713,,,,,,,,,,,,,,,,,,,,PF,3,weak,,,,,,,,4,2.816735,,,,,,,,,,,,,,,,,,,,,,,,,,,,2,weak,49,-96,1,0,0,response3disk,7,45,-21,13,1,0,0,rectangle,-21,13,1,0,0,7,0,0.00064,-21,13,1,0,0,0,44,44,107,1,0,,,,,,,,,,,,,,,,,,,,,
,,,,,,,,,,,,,,,,,,,,,,,,,,,,,,,,,,,,,,,,,,588ff21a2597a90001667ee4,606a0f629f8bb6be88bc7cae,2021-04-04_22h11.48.907,Colour_Similarity_Experiment,2020.2.10,Win32,60,60675255c767bca6388caeee,16.84805825,16.66033333,16.70493812,16.69274713,16.65613095,16.69274713,,,,,,,,,,,,,,,,,,,,PF,3,weak,,,,,,,,7,1.93335,,,,,,,,,,,,,,,,,,,,,,,,,,,,4,weak,36,105,1,0,0,response1disk,1,46,12,-12,1,0,0,rectangle,12,-12,1,0,0,7,1,0.000545,12,-12,1,0,0,0,45,45,115,1,0,,,,,,,,,,,,,,,,,,,,,
,,,,,,,,,,,,,,,,,,,,,,,,,,,,,,,,,,,,,,,,,,588ff21a2597a90001667ee4,606a0f629f8bb6be88bc7cae,2021-04-04_22h11.48.907,Colour_Similarity_Experiment,2020.2.10,Win32,60,60675255c767bca6388caeee,16.84805825,16.66033333,16.70493812,16.69274713,16.65613095,16.69274713,,,,,,,,,,,,,,,,,,,,PF,3,weak,,,,,,,,4,2.100195,,,,,,,,,,,,,,,,,,,,,,,,,,,,7,weak,39,-58,1,0,0,response3disk,5,47,-1,3,1,0,0,rectangle,-1,3,1,0,0,7,0,0.0006,-1,3,1,0,0,0,46,46,92,1,0,,,,,,,,,,,,,,,,,,,,,
,,,,,,,,,,,,,,,,,,,,,,,,,,,,,,,,,,,,,,,,,,588ff21a2597a90001667ee4,606a0f629f8bb6be88bc7cae,2021-04-04_22h11.48.907,Colour_Similarity_Experiment,2020.2.10,Win32,60,60675255c767bca6388caeee,16.84805825,16.66033333,16.70493812,16.69274713,16.65613095,16.69274713,,,,,,,,,,,,,,,,,,,,PF,3,strong,,,,,,,,6,4.3,,,,,,,,,,,,,,,,,,,,,,,,,,,,3,strong,78,54,1,0,0,response1disk,2,48,12,-6,1,0,0,rectangle,12,-6,1,0,0,7,0,8.49999E-05,12,-6,1,0,0,0,47,47,93,1,0,,,,,,,,,,,,,,,,,,,,,
,,,,,,,,,,,,,,,,,,,,,,,,,,,,,,,,,,,,,,,,,,588ff21a2597a90001667ee4,606a0f629f8bb6be88bc7cae,2021-04-04_22h11.48.907,Colour_Similarity_Experiment,2020.2.10,Win32,60,60675255c767bca6388caeee,16.84805825,16.66033333,16.70493812,16.69274713,16.65613095,16.69274713,,,,,,,,,,,,,,,,,,,,PF,3,weak,,,,,,,,0,0.799975,,,,,,,,,,,,,,,,,,,,,,,,,,,,6,weak,-35,99,1,0,0,response7disk,2,49,2,-11,1,0,0,rectangle,2,-11,1,0,0,7,6,0.001025,2,-11,1,0,0,0,48,48,130,1,0,,,,,,,,,,,,,,,,,,,,,
,,,,,,,,,,,,,,,,,,,,,,,,,,,,,,,,,,,,,,,,,,588ff21a2597a90001667ee4,606a0f629f8bb6be88bc7cae,2021-04-04_22h11.48.907,Colour_Similarity_Experiment,2020.2.10,Win32,60,60675255c767bca6388caeee,16.84805825,16.66033333,16.70493812,16.69274713,16.65613095,16.69274713,,,,,,,,,,,,,,,,,,,,PF,3,weak,,,,,,,,5,1.433515,,,,,,,,,,,,,,,,,,,,,,,,,,,,5,weak,82,-37,1,0,0,response3disk,5,50,7,5,1,0,0,rectangle,7,5,1,0,0,7,7,0.000615,7,5,1,0,0,0,49,49,94,1,0,,,,,,,,,,,,,,,,,,,,,
,,,,,,,,,,,,,,,,,,,,,,,,,,,,,,,,,,,,,,,,,,588ff21a2597a90001667ee4,606a0f629f8bb6be88bc7cae,2021-04-04_22h11.48.907,Colour_Similarity_Experiment,2020.2.10,Win32,60,60675255c767bca6388caeee,16.84805825,16.66033333,16.70493812,16.69274713,16.65613095,16.69274713,,,,,,,,,,,,,,,,,,,,PF,3,strong,,,,,,,,0,3.049935,,,,,,,,,,,,,,,,,,,,,,,,,,,,9,strong,-33,89,1,0,0,response7disk,5,51,12,3,1,0,0,rectangle,12,3,1,0,0,7,0,0.000545,12,3,1,0,0,0,50,50,128,1,0,,,,,,,,,,,,,,,,,,,,,
,,,,,,,,,,,,,,,,,,,,,,,,,,,,,,,,,,,,,,,,,,588ff21a2597a90001667ee4,606a0f629f8bb6be88bc7cae,2021-04-04_22h11.48.907,Colour_Similarity_Experiment,2020.2.10,Win32,60,60675255c767bca6388caeee,16.84805825,16.66033333,16.70493812,16.69274713,16.65613095,16.69274713,,,,,,,,,,,,,,,,,,,,PF,3,strong,,,,,,,,5,1.41652,,,,,,,,,,,,,,,,,,,,,,,,,,,,2,strong,73,-40,1,0,0,response3disk,2,52,16,5,1,0,0,rectangle,16,5,1,0,0,7,4,0.00057,16,5,1,0,0,0,51,51,142,1,0,,,,,,,,,,,,,,,,,,,,,
,,,,,,,,,,,,,,,,,,,,,,,,,,,,,,,,,,,,,,,,,,588ff21a2597a90001667ee4,606a0f629f8bb6be88bc7cae,2021-04-04_22h11.48.907,Colour_Similarity_Experiment,2020.2.10,Win32,60,60675255c767bca6388caeee,16.84805825,16.66033333,16.70493812,16.69274713,16.65613095,16.69274713,,,,,,,,,,,,,,,,,,,,PF,3,strong,,,,,,,,6,5.583625,,,,,,,,,,,,,,,,,,,,,,,,,,,,2,strong,104,41,1,0,0,response1disk,6,53,0,-7,1,0,0,rectangle,0,-7,1,0,0,7,6,0.000905,0,-7,1,0,0,0,52,52,40,1,0,,,,,,,,,,,,,,,,,,,,,
,,,,,,,,,,,,,,,,,,,,,,,,,,,,,,,,,,,,,,,,,,588ff21a2597a90001667ee4,606a0f629f8bb6be88bc7cae,2021-04-04_22h11.48.907,Colour_Similarity_Experiment,2020.2.10,Win32,60,60675255c767bca6388caeee,16.84805825,16.66033333,16.70493812,16.69274713,16.65613095,16.69274713,,,,,,,,,,,,,,,,,,,,PF,3,weak,,,,,,,,3,1.699695,,,,,,,,,,,,,,,,,,,,,,,,,,,,5,weak,-33,-95,1,0,0,response5disk,4,54,-7,-14,1,0,0,rectangle,-7,-14,1,0,0,7,0,0.000545,-7,-14,1,0,0,0,53,53,54,1,0,,,,,,,,,,,,,,,,,,,,,
,,,,,,,,,,,,,,,,,,,,,,,,,,,,,,,,,,,,,,,,,,588ff21a2597a90001667ee4,606a0f629f8bb6be88bc7cae,2021-04-04_22h11.48.907,Colour_Similarity_Experiment,2020.2.10,Win32,60,60675255c767bca6388caeee,16.84805825,16.66033333,16.70493812,16.69274713,16.65613095,16.69274713,,,,,,,,,,,,,,,,,,,,PF,3,weak,,,,,,,,0,1.03308,,,,,,,,,,,,,,,,,,,,,,,,,,,,6,weak,-41,101,1,0,0,response7disk,4,55,0,-1,1,0,0,rectangle,0,-1,1,0,0,7,5,0.00092,0,-1,1,0,0,0,54,54,33,1,0,,,,,,,,,,,,,,,,,,,,,
,,,,,,,,,,,,,,,,,,,,,,,,,,,,,,,,,,,,,,,,,,588ff21a2597a90001667ee4,606a0f629f8bb6be88bc7cae,2021-04-04_22h11.48.907,Colour_Similarity_Experiment,2020.2.10,Win32,60,60675255c767bca6388caeee,16.84805825,16.66033333,16.70493812,16.69274713,16.65613095,16.69274713,,,,,,,,,,,,,,,,,,,,PF,3,strong,,,,,,,,7,1.43346,,,,,,,,,,,,,,,,,,,,,,,,,,,,3,strong,53,120,1,0,0,response1disk,1,56,-3,5,1,0,0,rectangle,-3,5,1,0,0,7,3,0.00057,-3,5,1,0,0,0,55,55,125,1,0,,,,,,,,,,,,,,,,,,,,,
,,,,,,,,,,,,,,,,,,,,,,,,,,,,,,,,,,,,,,,,,,588ff21a2597a90001667ee4,606a0f629f8bb6be88bc7cae,2021-04-04_22h11.48.907,Colour_Similarity_Experiment,2020.2.10,Win32,60,60675255c767bca6388caeee,16.84805825,16.66033333,16.70493812,16.69274713,16.65613095,16.69274713,,,,,,,,,,,,,,,,,,,,PF,3,strong,,,,,,,,7,1.63321,,,,,,,,,,,,,,,,,,,,,,,,,,,,9,strong,47,89,1,0,0,response1disk,7,57,-10,-2,1,0,0,rectangle,-10,-2,1,0,0,7,1,0.00059,-10,-2,1,0,0,0,56,56,100,1,0,,,,,,,,,,,,,,,,,,,,,
,,,,,,,,,,,,,,,,,,,,,,,,,,,,,,,,,,,,,,,,,,588ff21a2597a90001667ee4,606a0f629f8bb6be88bc7cae,2021-04-04_22h11.48.907,Colour_Similarity_Experiment,2020.2.10,Win32,60,60675255c767bca6388caeee,16.84805825,16.66033333,16.70493812,16.69274713,16.65613095,16.69274713,,,,,,,,,,,,,,,,,,,,PF,3,strong,,,,,,,,1,1.516545,,,,,,,,,,,,,,,,,,,,,,,,,,,,4,strong,-89,29,1,0,0,response7disk,6,58,-21,-2,1,0,0,rectangle,-21,-2,1,0,0,7,6,0.0007,-21,-2,1,0,0,0,57,57,122,1,0,,,,,,,,,,,,,,,,,,,,,
,,,,,,,,,,,,,,,,,,,,,,,,,,,,,,,,,,,,,,,,,,588ff21a2597a90001667ee4,606a0f629f8bb6be88bc7cae,2021-04-04_22h11.48.907,Colour_Similarity_Experiment,2020.2.10,Win32,60,60675255c767bca6388caeee,16.84805825,16.66033333,16.70493812,16.69274713,16.65613095,16.69274713,,,,,,,,,,,,,,,,,,,,PF,3,weak,,,,,,,,7,2.066705,,,,,,,,,,,,,,,,,,,,,,,,,,,,2,weak,55,95,1,0,0,response1disk,1,59,-2,10,1,0,0,rectangle,-2,10,1,0,0,7,7,0.00059,-2,10,1,0,0,0,58,58,9,1,0,,,,,,,,,,,,,,,,,,,,,
,,,,,,,,,,,,,,,,,,,,,,,,,,,,,,,,,,,,,,,,,,588ff21a2597a90001667ee4,606a0f629f8bb6be88bc7cae,2021-04-04_22h11.48.907,Colour_Similarity_Experiment,2020.2.10,Win32,60,60675255c767bca6388caeee,16.84805825,16.66033333,16.70493812,16.69274713,16.65613095,16.69274713,,,,,,,,,,,,,,,,,,,,PF,3,strong,,,,,,,,7,2.199775,,,,,,,,,,,,,,,,,,,,,,,,,,,,8,strong,36,108,1,0,0,response1disk,3,60,21,14,1,0,0,rectangle,21,14,1,0,0,7,5,0.000575,21,14,1,0,0,0,59,59,154,1,0,,,,,,,,,,,,,,,,,,,,,
,,,,,,,,,,,,,,,,,,,,,,,,,,,,,,,,,,,,,,,,,,588ff21a2597a90001667ee4,606a0f629f8bb6be88bc7cae,2021-04-04_22h11.48.907,Colour_Similarity_Experiment,2020.2.10,Win32,60,60675255c767bca6388caeee,16.84805825,16.66033333,16.70493812,16.69274713,16.65613095,16.69274713,,,,,,,,,,,,,,,,,,,,PF,3,weak,,,,,,,,0,1.650465,,,,,,,,,,,,,,,,,,,,,,,,,,,,1,weak,-35,108,1,0,0,response7disk,4,61,-11,9,1,0,0,rectangle,-11,9,1,0,0,7,1,0.000755,-11,9,1,0,0,0,60,60,139,1,0,,,,,,,,,,,,,,,,,,,,,
,,,,,,,,,,,,,,,,,,,,,,,,,,,,,,,,,,,,,,,,,,588ff21a2597a90001667ee4,606a0f629f8bb6be88bc7cae,2021-04-04_22h11.48.907,Colour_Similarity_Experiment,2020.2.10,Win32,60,60675255c767bca6388caeee,16.84805825,16.66033333,16.70493812,16.69274713,16.65613095,16.69274713,,,,,,,,,,,,,,,,,,,,PF,3,strong,,,,,,,,0,0.75032,,,,,,,,,,,,,,,,,,,,,,,,,,,,4,strong,-42,114,1,0,0,response7disk,4,62,-3,-2,1,0,0,rectangle,-3,-2,1,0,0,7,3,0.001685,-3,-2,1,0,0,0,61,61,84,1,0,,,,,,,,,,,,,,,,,,,,,
,,,,,,,,,,,,,,,,,,,,,,,,,,,,,,,,,,,,,,,,,,588ff21a2597a90001667ee4,606a0f629f8bb6be88bc7cae,2021-04-04_22h11.48.907,Colour_Similarity_Experiment,2020.2.10,Win32,60,60675255c767bca6388caeee,16.84805825,16.66033333,16.70493812,16.69274713,16.65613095,16.69274713,,,,,,,,,,,,,,,,,,,,PF,3,strong,,,,,,,,2,5.03323,,,,,,,,,,,,,,,,,,,,,,,,,,,,7,strong,-65,-36,1,0,0,response5disk,6,63,-13,-3,1,0,0,rectangle,-13,-3,1,0,0,7,1,0.000585,-13,-3,1,0,0,0,62,62,31,1,0,,,,,,,,,,,,,,,,,,,,,
,,,,,,,,,,,,,,,,,,,,,,,,,,,,,,,,,,,,,,,,,,588ff21a2597a90001667ee4,606a0f629f8bb6be88bc7cae,2021-04-04_22h11.48.907,Colour_Similarity_Experiment,2020.2.10,Win32,60,60675255c767bca6388caeee,16.84805825,16.66033333,16.70493812,16.69274713,16.65613095,16.69274713,,,,,,,,,,,,,,,,,,,,PF,3,strong,,,,,,,,3,2.266685,,,,,,,,,,,,,,,,,,,,,,,,,,,,4,strong,-48,-99,1,0,0,response5disk,9,64,9,-18,1,0,0,rectangle,9,-18,1,0,0,7,2,0.00055,9,-18,1,0,0,0,63,63,90,1,0,,,,,,,,,,,,,,,,,,,,,
,,,,,,,,,,,,,,,,,,,,,,,,,,,,,,,,,,,,,,,,,,588ff21a2597a90001667ee4,606a0f629f8bb6be88bc7cae,2021-04-04_22h11.48.907,Colour_Similarity_Experiment,2020.2.10,Win32,60,60675255c767bca6388caeee,16.84805825,16.66033333,16.70493812,16.69274713,16.65613095,16.69274713,,,,,,,,,,,,,,,,,,,,PF,3,weak,,,,,,,,0,1.366465,,,,,,,,,,,,,,,,,,,,,,,,,,,,5,weak,-33,103,1,0,0,response7disk,3,65,-8,5,1,0,0,rectangle,-8,5,1,0,0,7,7,0.000725,-8,5,1,0,0,0,64,64,109,1,0,,,,,,,,,,,,,,,,,,,,,
,,,,,,,,,,,,,,,,,,,,,,,,,,,,,,,,,,,,,,,,,,588ff21a2597a90001667ee4,606a0f629f8bb6be88bc7cae,2021-04-04_22h11.48.907,Colour_Similarity_Experiment,2020.2.10,Win32,60,60675255c767bca6388caeee,16.84805825,16.66033333,16.70493812,16.69274713,16.65613095,16.69274713,,,,,,,,,,,,,,,,,,,,PF,3,strong,,,,,,,,6,2.333375,,,,,,,,,,,,,,,,,,,,,,,,,,,,9,strong,89,46,1,0,0,response1disk,1,66,2,-5,1,0,0,rectangle,2,-5,1,0,0,7,7,0.00103,2,-5,1,0,0,0,65,65,111,1,0,,,,,,,,,,,,,,,,,,,,,
,,,,,,,,,,,,,,,,,,,,,,,,,,,,,,,,,,,,,,,,,,588ff21a2597a90001667ee4,606a0f629f8bb6be88bc7cae,2021-04-04_22h11.48.907,Colour_Similarity_Experiment,2020.2.10,Win32,60,60675255c767bca6388caeee,16.84805825,16.66033333,16.70493812,16.69274713,16.65613095,16.69274713,,,,,,,,,,,,,,,,,,,,PF,3,weak,,,,,,,,5,2.79997,,,,,,,,,,,,,,,,,,,,,,,,,,,,8,weak,88,-54,1,0,0,response3disk,7,67,-7,0,1,0,0,rectangle,-7,0,1,0,0,7,5,0.00055,-7,0,1,0,0,0,66,66,23,1,0,,,,,,,,,,,,,,,,,,,,,
,,,,,,,,,,,,,,,,,,,,,,,,,,,,,,,,,,,,,,,,,,588ff21a2597a90001667ee4,606a0f629f8bb6be88bc7cae,2021-04-04_22h11.48.907,Colour_Similarity_Experiment,2020.2.10,Win32,60,60675255c767bca6388caeee,16.84805825,16.66033333,16.70493812,16.69274713,16.65613095,16.69274713,,,,,,,,,,,,,,,,,,,,PF,3,weak,,,,,,,,3,2.44965,,,,,,,,,,,,,,,,,,,,,,,,,,,,6,weak,-51,-77,1,0,0,response5disk,8,68,-31,-14,1,0,0,rectangle,-31,-14,1,0,0,7,5,0.00011,-31,-14,1,0,0,0,67,67,64,1,0,,,,,,,,,,,,,,,,,,,,,
,,,,,,,,,,,,,,,,,,,,,,,,,,,,,,,,,,,,,,,,,,588ff21a2597a90001667ee4,606a0f629f8bb6be88bc7cae,2021-04-04_22h11.48.907,Colour_Similarity_Experiment,2020.2.10,Win32,60,60675255c767bca6388caeee,16.84805825,16.66033333,16.70493812,16.69274713,16.65613095,16.69274713,,,,,,,,,,,,,,,,,,,,PF,3,strong,,,,,,,,2,1.5665,,,,,,,,,,,,,,,,,,,,,,,,,,,,5,strong,-77,-41,1,0,0,response5disk,9,69,-6,4,1,0,0,rectangle,-6,4,1,0,0,7,2,0.00058,-6,4,1,0,0,0,68,68,61,1,0,,,,,,,,,,,,,,,,,,,,,
,,,,,,,,,,,,,,,,,,,,,,,,,,,,,,,,,,,,,,,,,,588ff21a2597a90001667ee4,606a0f629f8bb6be88bc7cae,2021-04-04_22h11.48.907,Colour_Similarity_Experiment,2020.2.10,Win32,60,60675255c767bca6388caeee,16.84805825,16.66033333,16.70493812,16.69274713,16.65613095,16.69274713,,,,,,,,,,,,,,,,,,,,PF,3,weak,,,,,,,,2,3.933205,,,,,,,,,,,,,,,,,,,,,,,,,,,,3,weak,-91,-45,1,0,0,response5disk,7,70,-23,2,1,0,0,rectangle,-23,2,1,0,0,7,0,0.00058,-23,2,1,0,0,0,69,69,41,1,0,,,,,,,,,,,,,,,,,,,,,
,,,,,,,,,,,,,,,,,,,,,,,,,,,,,,,,,,,,,,,,,,588ff21a2597a90001667ee4,606a0f629f8bb6be88bc7cae,2021-04-04_22h11.48.907,Colour_Similarity_Experiment,2020.2.10,Win32,60,60675255c767bca6388caeee,16.84805825,16.66033333,16.70493812,16.69274713,16.65613095,16.69274713,,,,,,,,,,,,,,,,,,,,PF,3,strong,,,,,,,,6,2.25008,,,,,,,,,,,,,,,,,,,,,,,,,,,,6,strong,104,50,1,0,0,response1disk,3,71,7,2,1,0,0,rectangle,7,2,1,0,0,7,1,0.000555,7,2,1,0,0,0,70,70,21,1,0,,,,,,,,,,,,,,,,,,,,,
,,,,,,,,,,,,,,,,,,,,,,,,,,,,,,,,,,,,,,,,,,588ff21a2597a90001667ee4,606a0f629f8bb6be88bc7cae,2021-04-04_22h11.48.907,Colour_Similarity_Experiment,2020.2.10,Win32,60,60675255c767bca6388caeee,16.84805825,16.66033333,16.70493812,16.69274713,16.65613095,16.69274713,,,,,,,,,,,,,,,,,,,,PF,3,strong,,,,,,,,3,1.733425,,,,,,,,,,,,,,,,,,,,,,,,,,,,1,strong,-44,-114,1,0,0,response5disk,5,72,-31,-6,1,0,0,rectangle,-31,-6,1,0,0,7,5,0.00068,-31,-6,1,0,0,0,71,71,82,1,0,,,,,,,,,,,,,,,,,,,,,
,,,,,,,,,,,,,,,,,,,,,,,,,,,,,,,,,,,,,,,,,,588ff21a2597a90001667ee4,606a0f629f8bb6be88bc7cae,2021-04-04_22h11.48.907,Colour_Similarity_Experiment,2020.2.10,Win32,60,60675255c767bca6388caeee,16.84805825,16.66033333,16.70493812,16.69274713,16.65613095,16.69274713,,,,,,,,,,,,,,,,,,,,PF,3,weak,,,,,,,,6,4.016625,,,,,,,,,,,,,,,,,,,,,,,,,,,,7,weak,104,39,1,0,0,response1disk,2,73,21,-12,1,0,0,rectangle,21,-12,1,0,0,7,1,0.000565,21,-12,1,0,0,0,72,72,32,1,0,,,,,,,,,,,,,,,,,,,,,
,,,,,,,,,,,,,,,,,,,,,,,,,,,,,,,,,,,,,,,,,,588ff21a2597a90001667ee4,606a0f629f8bb6be88bc7cae,2021-04-04_22h11.48.907,Colour_Similarity_Experiment,2020.2.10,Win32,60,60675255c767bca6388caeee,16.84805825,16.66033333,16.70493812,16.69274713,16.65613095,16.69274713,,,,,,,,,,,,,,,,,,,,PF,3,strong,,,,,,,,7,4.233065,,,,,,,,,,,,,,,,,,,,,,,,,,,,6,strong,45,116,1,0,0,response1disk,7,74,-20,7,1,0,0,rectangle,-20,7,1,0,0,7,4,0.0006,-20,7,1,0,0,0,73,73,18,1,0,,,,,,,,,,,,,,,,,,,,,
,,,,,,,,,,,,,,,,,,,,,,,,,,,,,,,,,,,,,,,,,,588ff21a2597a90001667ee4,606a0f629f8bb6be88bc7cae,2021-04-04_22h11.48.907,Colour_Similarity_Experiment,2020.2.10,Win32,60,60675255c767bca6388caeee,16.84805825,16.66033333,16.70493812,16.69274713,16.65613095,16.69274713,,,,,,,,,,,,,,,,,,,,PF,3,strong,,,,,,,,7,0.98334,,,,,,,,,,,,,,,,,,,,,,,,,,,,5,strong,67,120,1,0,0,response1disk,1,75,3,10,1,0,0,rectangle,3,10,1,0,0,7,3,0.000655,3,10,1,0,0,0,74,74,131,1,0,,,,,,,,,,,,,,,,,,,,,
,,,,,,,,,,,,,,,,,,,,,,,,,,,,,,,,,,,,,,,,,,588ff21a2597a90001667ee4,606a0f629f8bb6be88bc7cae,2021-04-04_22h11.48.907,Colour_Similarity_Experiment,2020.2.10,Win32,60,60675255c767bca6388caeee,16.84805825,16.66033333,16.70493812,16.69274713,16.65613095,16.69274713,,,,,,,,,,,,,,,,,,,,PF,3,weak,,,,,,,,7,5.083205,,,,,,,,,,,,,,,,,,,,,,,,,,,,4,weak,89,146,1,0,0,response1disk,5,76,9,13,1,0,0,rectangle,9,13,1,0,0,7,7,0.000565,9,13,1,0,0,0,75,75,49,1,0,,,,,,,,,,,,,,,,,,,,,
,,,,,,,,,,,,,,,,,,,,,,,,,,,,,,,,,,,,,,,,,,588ff21a2597a90001667ee4,606a0f629f8bb6be88bc7cae,2021-04-04_22h11.48.907,Colour_Similarity_Experiment,2020.2.10,Win32,60,60675255c767bca6388caeee,16.84805825,16.66033333,16.70493812,16.69274713,16.65613095,16.69274713,,,,,,,,,,,,,,,,,,,,PF,3,strong,,,,,,,,5,6.566335,,,,,,,,,,,,,,,,,,,,,,,,,,,,6,strong,100,-45,1,0,0,response3disk,6,77,28,7,1,0,0,rectangle,28,7,1,0,0,7,3,0.00053,28,7,1,0,0,0,76,76,91,1,0,,,,,,,,,,,,,,,,,,,,,
,,,,,,,,,,,,,,,,,,,,,,,,,,,,,,,,,,,,,,,,,,588ff21a2597a90001667ee4,606a0f629f8bb6be88bc7cae,2021-04-04_22h11.48.907,Colour_Similarity_Experiment,2020.2.10,Win32,60,60675255c767bca6388caeee,16.84805825,16.66033333,16.70493812,16.69274713,16.65613095,16.69274713,,,,,,,,,,,,,,,,,,,,PF,3,strong,,,,,,,,4,1.43432,,,,,,,,,,,,,,,,,,,,,,,,,,,,5,strong,42,-93,1,0,0,response3disk,5,78,8,-8,1,0,0,rectangle,8,-8,1,0,0,7,2,0.000585,8,-8,1,0,0,0,77,77,19,1,0,,,,,,,,,,,,,,,,,,,,,
,,,,,,,,,,,,,,,,,,,,,,,,,,,,,,,,,,,,,,,,,,588ff21a2597a90001667ee4,606a0f629f8bb6be88bc7cae,2021-04-04_22h11.48.907,Colour_Similarity_Experiment,2020.2.10,Win32,60,60675255c767bca6388caeee,16.84805825,16.66033333,16.70493812,16.69274713,16.65613095,16.69274713,,,,,,,,,,,,,,,,,,,,PF,3,strong,,,,,,,,0,1.31848,,,,,,,,,,,,,,,,,,,,,,,,,,,,3,strong,-58,129,1,0,0,response7disk,5,79,-6,-14,1,0,0,rectangle,-6,-14,1,0,0,7,0,0.0009,-6,-14,1,0,0,0,78,78,101,1,0,,,,,,,,,,,,,,,,,,,,,
,,,,,,,,,,,,,,,,,,,,,,,,,,,,,,,,,,,,,,,,,,588ff21a2597a90001667ee4,606a0f629f8bb6be88bc7cae,2021-04-04_22h11.48.907,Colour_Similarity_Experiment,2020.2.10,Win32,60,60675255c767bca6388caeee,16.84805825,16.66033333,16.70493812,16.69274713,16.65613095,16.69274713,,,,,,,,,,,,,,,,,,,,PF,3,strong,,,,,,,,4,1.7449,,,,,,,,,,,,,,,,,,,,,,,,,,,,8,strong,59,-117,1,0,0,response3disk,2,80,16,1,1,0,0,rectangle,16,1,1,0,0,7,5,0.00069,16,1,1,0,0,0,79,79,22,1,0,,,,,,,,,,,,,,,,,,,,,
,,,,,,,,,,,,,,,,,,,,,,,,,,,,,,,,,,,,,,,,,,588ff21a2597a90001667ee4,606a0f629f8bb6be88bc7cae,2021-04-04_22h11.48.907,Colour_Similarity_Experiment,2020.2.10,Win32,60,60675255c767bca6388caeee,16.84805825,16.66033333,16.70493812,16.69274713,16.65613095,16.69274713,,,,,,,,,,,,,,,,,,,,PF,3,strong,,,,,,,,0,1.5789,,,,,,,,,,,,,,,,,,,,,,,,,,,,1,strong,-52,98,1,0,0,response7disk,2,81,-16,15,1,0,0,rectangle,-16,15,1,0,0,7,0,0.00088,-16,15,1,0,0,0,80,80,2,1,0,,,,,,,,,,,,,,,,,,,,,
,,,,,,,,,,,,,,,,,,,,,,,,,,,,,,,,,,,,,,,,,,588ff21a2597a90001667ee4,606a0f629f8bb6be88bc7cae,2021-04-04_22h11.48.907,Colour_Similarity_Experiment,2020.2.10,Win32,60,60675255c767bca6388caeee,16.84805825,16.66033333,16.70493812,16.69274713,16.65613095,16.69274713,,,,,,,,,,,,,,,,,,,,PF,3,strong,,,,,,,,4,1.50014,,,,,,,,,,,,,,,,,,,,,,,,,,,,7,strong,41,-97,1,0,0,response3disk,3,82,12,1,1,0,0,rectangle,12,1,1,0,0,7,4,0.00081,12,1,1,0,0,0,81,81,73,1,0,,,,,,,,,,,,,,,,,,,,,
,,,,,,,,,,,,,,,,,,,,,,,,,,,,,,,,,,,,,,,,,,588ff21a2597a90001667ee4,606a0f629f8bb6be88bc7cae,2021-04-04_22h11.48.907,Colour_Similarity_Experiment,2020.2.10,Win32,60,60675255c767bca6388caeee,16.84805825,16.66033333,16.70493812,16.69274713,16.65613095,16.69274713,,,,,,,,,,,,,,,,,,,,PF,3,weak,,,,,,,,0,1.97912,,,,,,,,,,,,,,,,,,,,,,,,,,,,8,weak,-31,73,1,0,0,response7disk,3,83,-16,1,1,0,0,rectangle,-16,1,1,0,0,7,6,0.00073,-16,1,1,0,0,0,82,82,71,1,0,,,,,,,,,,,,,,,,,,,,,
,,,,,,,,,,,,,,,,,,,,,,,,,,,,,,,,,,,,,,,,,,588ff21a2597a90001667ee4,606a0f629f8bb6be88bc7cae,2021-04-04_22h11.48.907,Colour_Similarity_Experiment,2020.2.10,Win32,60,60675255c767bca6388caeee,16.84805825,16.66033333,16.70493812,16.69274713,16.65613095,16.69274713,,,,,,,,,,,,,,,,,,,,PF,3,weak,,,,,,,,5,4.551155,,,,,,,,,,,,,,,,,,,,,,,,,,,,3,weak,99,-42,1,0,0,response3disk,9,84,21,11,1,0,0,rectangle,21,11,1,0,0,7,5,0.000525,21,11,1,0,0,0,83,83,79,1,0,,,,,,,,,,,,,,,,,,,,,
,,,,,,,,,,,,,,,,,,,,,,,,,,,,,,,,,,,,,,,,,,588ff21a2597a90001667ee4,606a0f629f8bb6be88bc7cae,2021-04-04_22h11.48.907,Colour_Similarity_Experiment,2020.2.10,Win32,60,60675255c767bca6388caeee,16.84805825,16.66033333,16.70493812,16.69274713,16.65613095,16.69274713,,,,,,,,,,,,,,,,,,,,PF,3,strong,,,,,,,,2,1.761895,,,,,,,,,,,,,,,,,,,,,,,,,,,,8,strong,-85,-36,1,0,0,response5disk,8,85,-42,12,1,0,0,rectangle,-42,12,1,0,0,7,6,0.00068,-42,12,1,0,0,0,84,84,48,1,0,,,,,,,,,,,,,,,,,,,,,
,,,,,,,,,,,,,,,,,,,,,,,,,,,,,,,,,,,,,,,,,,588ff21a2597a90001667ee4,606a0f629f8bb6be88bc7cae,2021-04-04_22h11.48.907,Colour_Similarity_Experiment,2020.2.10,Win32,60,60675255c767bca6388caeee,16.84805825,16.66033333,16.70493812,16.69274713,16.65613095,16.69274713,,,,,,,,,,,,,,,,,,,,PF,3,strong,,,,,,,,0,1.36146,,,,,,,,,,,,,,,,,,,,,,,,,,,,8,strong,-45,103,1,0,0,response7disk,9,86,-20,0,1,0,0,rectangle,-20,0,1,0,0,7,2,0.000555,-20,0,1,0,0,0,85,85,105,1,0,,,,,,,,,,,,,,,,,,,,,
,,,,,,,,,,,,,,,,,,,,,,,,,,,,,,,,,,,,,,,,,,588ff21a2597a90001667ee4,606a0f629f8bb6be88bc7cae,2021-04-04_22h11.48.907,Colour_Similarity_Experiment,2020.2.10,Win32,60,60675255c767bca6388caeee,16.84805825,16.66033333,16.70493812,16.69274713,16.65613095,16.69274713,,,,,,,,,,,,,,,,,,,,PF,3,weak,,,,,,,,0,0.89513,,,,,,,,,,,,,,,,,,,,,,,,,,,,4,weak,-66,111,1,0,0,response7disk,9,87,-10,-7,1,0,0,rectangle,-10,-7,1,0,0,7,5,0.00055,-10,-7,1,0,0,0,86,86,75,1,0,,,,,,,,,,,,,,,,,,,,,
,,,,,,,,,,,,,,,,,,,,,,,,,,,,,,,,,,,,,,,,,,588ff21a2597a90001667ee4,606a0f629f8bb6be88bc7cae,2021-04-04_22h11.48.907,Colour_Similarity_Experiment,2020.2.10,Win32,60,60675255c767bca6388caeee,16.84805825,16.66033333,16.70493812,16.69274713,16.65613095,16.69274713,,,,,,,,,,,,,,,,,,,,PF,3,weak,,,,,,,,6,1.862935,,,,,,,,,,,,,,,,,,,,,,,,,,,,4,weak,97,51,1,0,0,response1disk,4,88,5,4,1,0,0,rectangle,5,4,1,0,0,7,7,0.000555,5,4,1,0,0,0,87,87,70,1,0,,,,,,,,,,,,,,,,,,,,,
,,,,,,,,,,,,,,,,,,,,,,,,,,,,,,,,,,,,,,,,,,588ff21a2597a90001667ee4,606a0f629f8bb6be88bc7cae,2021-04-04_22h11.48.907,Colour_Similarity_Experiment,2020.2.10,Win32,60,60675255c767bca6388caeee,16.84805825,16.66033333,16.70493812,16.69274713,16.65613095,16.69274713,,,,,,,,,,,,,,,,,,,,PF,3,weak,,,,,,,,6,1.833165,,,,,,,,,,,,,,,,,,,,,,,,,,,,8,weak,93,47,1,0,0,response1disk,1,89,-9,1,1,0,0,rectangle,-9,1,1,0,0,7,0,0.000885,-9,1,1,0,0,0,88,88,57,1,0,,,,,,,,,,,,,,,,,,,,,
,,,,,,,,,,,,,,,,,,,,,,,,,,,,,,,,,,,,,,,,,,588ff21a2597a90001667ee4,606a0f629f8bb6be88bc7cae,2021-04-04_22h11.48.907,Colour_Similarity_Experiment,2020.2.10,Win32,60,60675255c767bca6388caeee,16.84805825,16.66033333,16.70493812,16.69274713,16.65613095,16.69274713,,,,,,,,,,,,,,,,,,,,PF,3,weak,,,,,,,,6,1.29688,,,,,,,,,,,,,,,,,,,,,,,,,,,,8,weak,96,39,1,0,0,response1disk,9,90,13,1,1,0,0,rectangle,13,1,1,0,0,7,0,0.000135,13,1,1,0,0,0,89,89,42,1,0,,,,,,,,,,,,,,,,,,,,,
,,,,,,,,,,,,,,,,,,,,,,,,,,,,,,,,,,,,,,,,,,588ff21a2597a90001667ee4,606a0f629f8bb6be88bc7cae,2021-04-04_22h11.48.907,Colour_Similarity_Experiment,2020.2.10,Win32,60,60675255c767bca6388caeee,16.84805825,16.66033333,16.70493812,16.69274713,16.65613095,16.69274713,,,,,,,,,,,,,,,,,,,,PF,3,weak,,,,,,,,5,2.34977,,,,,,,,,,,,,,,,,,,,,,,,,,,,5,weak,97,-41,1,0,0,response3disk,2,91,9,-7,1,0,0,rectangle,9,-7,1,0,0,7,7,0.00063,9,-7,1,0,0,0,90,90,129,1,0,,,,,,,,,,,,,,,,,,,,,
,,,,,,,,,,,,,,,,,,,,,,,,,,,,,,,,,,,,,,,,,,588ff21a2597a90001667ee4,606a0f629f8bb6be88bc7cae,2021-04-04_22h11.48.907,Colour_Similarity_Experiment,2020.2.10,Win32,60,60675255c767bca6388caeee,16.84805825,16.66033333,16.70493812,16.69274713,16.65613095,16.69274713,,,,,,,,,,,,,,,,,,,,PF,3,weak,,,,,,,,4,6.31189,,,,,,,,,,,,,,,,,,,,,,,,,,,,2,weak,25,-53,1,0,0,response3disk,6,92,5,-2,1,0,0,rectangle,5,-2,1,0,0,7,2,0.000545,5,-2,1,0,0,0,91,91,113,1,0,,,,,,,,,,,,,,,,,,,,,
,,,,,,,,,,,,,,,,,,,,,,,,,,,,,,,,,,,,,,,,,,588ff21a2597a90001667ee4,606a0f629f8bb6be88bc7cae,2021-04-04_22h11.48.907,Colour_Similarity_Experiment,2020.2.10,Win32,60,60675255c767bca6388caeee,16.84805825,16.66033333,16.70493812,16.69274713,16.65613095,16.69274713,,,,,,,,,,,,,,,,,,,,PF,3,weak,,,,,,,,0,1.29518,,,,,,,,,,,,,,,,,,,,,,,,,,,,5,weak,-57,104,1,0,0,response7disk,6,93,2,-8,1,0,0,rectangle,2,-8,1,0,0,7,3,0.000885,2,-8,1,0,0,0,92,92,103,1,0,,,,,,,,,,,,,,,,,,,,,
,,,,,,,,,,,,,,,,,,,,,,,,,,,,,,,,,,,,,,,,,,588ff21a2597a90001667ee4,606a0f629f8bb6be88bc7cae,2021-04-04_22h11.48.907,Colour_Similarity_Experiment,2020.2.10,Win32,60,60675255c767bca6388caeee,16.84805825,16.66033333,16.70493812,16.69274713,16.65613095,16.69274713,,,,,,,,,,,,,,,,,,,,PF,3,strong,,,,,,,,1,1.480025,,,,,,,,,,,,,,,,,,,,,,,,,,,,1,strong,-112,34,1,0,0,response7disk,7,94,-33,-9,1,0,0,rectangle,-33,-9,1,0,0,7,1,0.00056,-33,-9,1,0,0,0,93,93,137,1,0,,,,,,,,,,,,,,,,,,,,,
,,,,,,,,,,,,,,,,,,,,,,,,,,,,,,,,,,,,,,,,,,588ff21a2597a90001667ee4,606a0f629f8bb6be88bc7cae,2021-04-04_22h11.48.907,Colour_Similarity_Experiment,2020.2.10,Win32,60,60675255c767bca6388caeee,16.84805825,16.66033333,16.70493812,16.69274713,16.65613095,16.69274713,,,,,,,,,,,,,,,,,,,,PF,3,weak,,,,,,,,4,1.385385,,,,,,,,,,,,,,,,,,,,,,,,,,,,7,weak,40,-84,1,0,0,response3disk,9,95,14,-11,1,0,0,rectangle,14,-11,1,0,0,7,0,0.000915,14,-11,1,0,0,0,94,94,10,1,0,,,,,,,,,,,,,,,,,,,,,
,,,,,,,,,,,,,,,,,,,,,,,,,,,,,,,,,,,,,,,,,,588ff21a2597a90001667ee4,606a0f629f8bb6be88bc7cae,2021-04-04_22h11.48.907,Colour_Similarity_Experiment,2020.2.10,Win32,60,60675255c767bca6388caeee,16.84805825,16.66033333,16.70493812,16.69274713,16.65613095,16.69274713,,,,,,,,,,,,,,,,,,,,PF,3,weak,,,,,,,,6,2.59479,,,,,,,,,,,,,,,,,,,,,,,,,,,,6,weak,82,42,1,0,0,response1disk,3,96,6,0,1,0,0,rectangle,6,0,1,0,0,7,6,0.0007,6,0,1,0,0,0,95,95,26,1,0,,,,,,,,,,,,,,,,,,,,,
,,,,,,,,,,,,,,,,,,,,,,,,,,,,,,,,,,,,,,,,,,588ff21a2597a90001667ee4,606a0f629f8bb6be88bc7cae,2021-04-04_22h11.48.907,Colour_Similarity_Experiment,2020.2.10,Win32,60,60675255c767bca6388caeee,16.84805825,16.66033333,16.70493812,16.69274713,16.65613095,16.69274713,,,,,,,,,,,,,,,,,,,,PF,3,weak,,,,,,,,4,2.134065,,,,,,,,,,,,,,,,,,,,,,,,,,,,3,weak,33,-78,1,0,0,response3disk,5,97,1,4,1,0,0,rectangle,1,4,1,0,0,7,7,0.00066,1,4,1,0,0,0,96,96,66,1,0,,,,,,,,,,,,,,,,,,,,,
,,,,,,,,,,,,,,,,,,,,,,,,,,,,,,,,,,,,,,,,,,588ff21a2597a90001667ee4,606a0f629f8bb6be88bc7cae,2021-04-04_22h11.48.907,Colour_Similarity_Experiment,2020.2.10,Win32,60,60675255c767bca6388caeee,16.84805825,16.66033333,16.70493812,16.69274713,16.65613095,16.69274713,,,,,,,,,,,,,,,,,,,,PF,3,strong,,,,,,,,3,1.711805,,,,,,,,,,,,,,,,,,,,,,,,,,,,6,strong,-28,-82,1,0,0,response5disk,4,98,-19,-1,1,0,0,rectangle,-19,-1,1,0,0,7,7,0.00014,-19,-1,1,0,0,0,97,97,56,1,0,,,,,,,,,,,,,,,,,,,,,
,,,,,,,,,,,,,,,,,,,,,,,,,,,,,,,,,,,,,,,,,,588ff21a2597a90001667ee4,606a0f629f8bb6be88bc7cae,2021-04-04_22h11.48.907,Colour_Similarity_Experiment,2020.2.10,Win32,60,60675255c767bca6388caeee,16.84805825,16.66033333,16.70493812,16.69274713,16.65613095,16.69274713,,,,,,,,,,,,,,,,,,,,PF,3,strong,,,,,,,,2,1.11155,,,,,,,,,,,,,,,,,,,,,,,,,,,,5,strong,-68,-42,1,0,0,response5disk,3,99,-17,-1,1,0,0,rectangle,-17,-1,1,0,0,7,6,0.00086,-17,-1,1,0,0,0,98,98,25,1,0,,,,,,,,,,,,,,,,,,,,,
,,,,,,,,,,,,,,,,,,,,,,,,,,,,,,,,,,,,,,,,,,588ff21a2597a90001667ee4,606a0f629f8bb6be88bc7cae,2021-04-04_22h11.48.907,Colour_Similarity_Experiment,2020.2.10,Win32,60,60675255c767bca6388caeee,16.84805825,16.66033333,16.70493812,16.69274713,16.65613095,16.69274713,,,,,,,,,,,,,,,,,,,,PF,3,strong,,,,,,,,3,1.112655,,,,,,,,,,,,,,,,,,,,,,,,,,,,6,strong,-34,-91,1,0,0,response5disk,5,100,2,-11,1,0,0,rectangle,2,-11,1,0,0,7,5,0.000585,2,-11,1,0,0,0,99,99,126,1,0,,,,,,,,,,,,,,,,,,,,,
,,,,,,,,,,,,,,,,,,,,,,,,,,,,,,,,,,,,,,,,,,588ff21a2597a90001667ee4,606a0f629f8bb6be88bc7cae,2021-04-04_22h11.48.907,Colour_Similarity_Experiment,2020.2.10,Win32,60,60675255c767bca6388caeee,16.84805825,16.66033333,16.70493812,16.69274713,16.65613095,16.69274713,,,,,,,,,,,,,,,,,,,,PF,3,strong,,,,,,,,5,4.250255,,,,,,,,,,,,,,,,,,,,,,,,,,,,9,strong,60,-39,1,0,0,response3disk,6,101,12,13,1,0,0,rectangle,12,13,1,0,0,7,0,0.00055,12,13,1,0,0,0,100,100,117,1,0,,,,,,,,,,,,,,,,,,,,,
,,,,,,,,,,,,,,,,,,,,,,,,,,,,,,,,,,,,,,,,,,588ff21a2597a90001667ee4,606a0f629f8bb6be88bc7cae,2021-04-04_22h11.48.907,Colour_Similarity_Experiment,2020.2.10,Win32,60,60675255c767bca6388caeee,16.84805825,16.66033333,16.70493812,16.69274713,16.65613095,16.69274713,,,,,,,,,,,,,,,,,,,,PF,3,strong,,,,,,,,2,0.978255,,,,,,,,,,,,,,,,,,,,,,,,,,,,4,strong,-73,-39,1,0,0,response5disk,5,102,-32,-2,1,0,0,rectangle,-32,-2,1,0,0,7,7,0.00062,-32,-2,1,0,0,0,101,101,116,1,0,,,,,,,,,,,,,,,,,,,,,
,,,,,,,,,,,,,,,,,,,,,,,,,,,,,,,,,,,,,,,,,,588ff21a2597a90001667ee4,606a0f629f8bb6be88bc7cae,2021-04-04_22h11.48.907,Colour_Similarity_Experiment,2020.2.10,Win32,60,60675255c767bca6388caeee,16.84805825,16.66033333,16.70493812,16.69274713,16.65613095,16.69274713,,,,,,,,,,,,,,,,,,,,PF,3,strong,,,,,,,,7,1.612615,,,,,,,,,,,,,,,,,,,,,,,,,,,,1,strong,57,117,1,0,0,response1disk,1,103,10,-3,1,0,0,rectangle,10,-3,1,0,0,7,3,0.00093,10,-3,1,0,0,0,102,102,151,1,0,,,,,,,,,,,,,,,,,,,,,
,,,,,,,,,,,,,,,,,,,,,,,,,,,,,,,,,,,,,,,,,,588ff21a2597a90001667ee4,606a0f629f8bb6be88bc7cae,2021-04-04_22h11.48.907,Colour_Similarity_Experiment,2020.2.10,Win32,60,60675255c767bca6388caeee,16.84805825,16.66033333,16.70493812,16.69274713,16.65613095,16.69274713,,,,,,,,,,,,,,,,,,,,PF,3,strong,,,,,,,,7,1.5306,,,,,,,,,,,,,,,,,,,,,,,,,,,,2,strong,51,107,1,0,0,response1disk,4,104,20,9,1,0,0,rectangle,20,9,1,0,0,7,6,0.00062,20,9,1,0,0,0,103,103,145,1,0,,,,,,,,,,,,,,,,,,,,,
,,,,,,,,,,,,,,,,,,,,,,,,,,,,,,,,,,,,,,,,,,588ff21a2597a90001667ee4,606a0f629f8bb6be88bc7cae,2021-04-04_22h11.48.907,Colour_Similarity_Experiment,2020.2.10,Win32,60,60675255c767bca6388caeee,16.84805825,16.66033333,16.70493812,16.69274713,16.65613095,16.69274713,,,,,,,,,,,,,,,,,,,,PF,3,weak,,,,,,,,6,1.781555,,,,,,,,,,,,,,,,,,,,,,,,,,,,3,weak,90,57,1,0,0,response1disk,6,105,11,1,1,0,0,rectangle,11,1,1,0,0,7,6,7.5E-05,11,1,1,0,0,0,104,104,47,1,0,,,,,,,,,,,,,,,,,,,,,
,,,,,,,,,,,,,,,,,,,,,,,,,,,,,,,,,,,,,,,,,,588ff21a2597a90001667ee4,606a0f629f8bb6be88bc7cae,2021-04-04_22h11.48.907,Colour_Similarity_Experiment,2020.2.10,Win32,60,60675255c767bca6388caeee,16.84805825,16.66033333,16.70493812,16.69274713,16.65613095,16.69274713,,,,,,,,,,,,,,,,,,,,PF,3,weak,,,,,,,,0,1.113805,,,,,,,,,,,,,,,,,,,,,,,,,,,,7,weak,-63,153,1,0,0,response7disk,6,106,6,-9,1,0,0,rectangle,6,-9,1,0,0,7,7,0.00054,6,-9,1,0,0,0,105,105,29,1,0,,,,,,,,,,,,,,,,,,,,,
,,,,,,,,,,,,,,,,,,,,,,,,,,,,,,,,,,,,,,,,,,588ff21a2597a90001667ee4,606a0f629f8bb6be88bc7cae,2021-04-04_22h11.48.907,Colour_Similarity_Experiment,2020.2.10,Win32,60,60675255c767bca6388caeee,16.84805825,16.66033333,16.70493812,16.69274713,16.65613095,16.69274713,,,,,,,,,,,,,,,,,,,,PF,3,weak,,,,,,,,6,1.546765,,,,,,,,,,,,,,,,,,,,,,,,,,,,7,weak,91,46,1,0,0,response1disk,1,107,-4,-2,1,0,0,rectangle,-4,-2,1,0,0,7,1,0.00105,-4,-2,1,0,0,0,106,106,53,1,0,,,,,,,,,,,,,,,,,,,,,
,,,,,,,,,,,,,,,,,,,,,,,,,,,,,,,,,,,,,,,,,,588ff21a2597a90001667ee4,606a0f629f8bb6be88bc7cae,2021-04-04_22h11.48.907,Colour_Similarity_Experiment,2020.2.10,Win32,60,60675255c767bca6388caeee,16.84805825,16.66033333,16.70493812,16.69274713,16.65613095,16.69274713,,,,,,,,,,,,,,,,,,,,PF,3,strong,,,,,,,,0,0.979195,,,,,,,,,,,,,,,,,,,,,,,,,,,,8,strong,-59,124,1,0,0,response7disk,1,108,-2,7,1,0,0,rectangle,-2,7,1,0,0,7,6,0.00081,-2,7,1,0,0,0,107,107,20,1,0,,,,,,,,,,,,,,,,,,,,,
,,,,,,,,,,,,,,,,,,,,,,,,,,,,,,,,,,,,,,,,,,588ff21a2597a90001667ee4,606a0f629f8bb6be88bc7cae,2021-04-04_22h11.48.907,Colour_Similarity_Experiment,2020.2.10,Win32,60,60675255c767bca6388caeee,16.84805825,16.66033333,16.70493812,16.69274713,16.65613095,16.69274713,,,,,,,,,,,,,,,,,,,,PF,3,strong,,,,,,,,5,3.94957,,,,,,,,,,,,,,,,,,,,,,,,,,,,7,strong,75,-40,1,0,0,response3disk,5,109,11,11,1,0,0,rectangle,11,11,1,0,0,7,0,0.000875,11,11,1,0,0,0,108,108,156,1,0,,,,,,,,,,,,,,,,,,,,,
,,,,,,,,,,,,,,,,,,,,,,,,,,,,,,,,,,,,,,,,,,588ff21a2597a90001667ee4,606a0f629f8bb6be88bc7cae,2021-04-04_22h11.48.907,Colour_Similarity_Experiment,2020.2.10,Win32,60,60675255c767bca6388caeee,16.84805825,16.66033333,16.70493812,16.69274713,16.65613095,16.69274713,,,,,,,,,,,,,,,,,,,,PF,3,strong,,,,,,,,4,2.31654,,,,,,,,,,,,,,,,,,,,,,,,,,,,7,strong,40,-76,1,0,0,response3disk,8,110,2,3,1,0,0,rectangle,-44,-134,1,0,0,3,3,3.66785,-8,-4,1,0,0,0,109,109,97,1,1,response5disk_3,rectangle,,,,,,,,,,,,,,,,,,,
,,,,,,,,,,,,,,,,,,,,,,,,,,,,,,,,,,,,,,,,,,588ff21a2597a90001667ee4,606a0f629f8bb6be88bc7cae,2021-04-04_22h11.48.907,Colour_Similarity_Experiment,2020.2.10,Win32,60,60675255c767bca6388caeee,16.84805825,16.66033333,16.70493812,16.69274713,16.65613095,16.69274713,,,,,,,,,,,,,,,,,,,,PF,3,weak,,,,,,,,5,6.72852,,,,,,,,,,,,,,,,,,,,,,,,,,,,5,weak,84,-61,1,0,0,response3disk,8,111,25,-11,1,0,0,rectangle,25,-11,1,0,0,3,2,0.0006,25,-11,1,0,0,0,110,110,149,1,0,,,,,,,,,,,,,,,,,,,,,
,,,,,,,,,,,,,,,,,,,,,,,,,,,,,,,,,,,,,,,,,,588ff21a2597a90001667ee4,606a0f629f8bb6be88bc7cae,2021-04-04_22h11.48.907,Colour_Similarity_Experiment,2020.2.10,Win32,60,60675255c767bca6388caeee,16.84805825,16.66033333,16.70493812,16.69274713,16.65613095,16.69274713,,,,,,,,,,,,,,,,,,,,PF,3,strong,,,,,,,,0,1.39541,,,,,,,,,,,,,,,,,,,,,,,,,,,,2,strong,-30,107,1,0,0,response7disk,8,112,8,2,1,0,0,rectangle,8,2,1,0,0,3,1,0.00056,8,2,1,0,0,0,111,111,62,1,0,,,,,,,,,,,,,,,,,,,,,
,,,,,,,,,,,,,,,,,,,,,,,,,,,,,,,,,,,,,,,,,,588ff21a2597a90001667ee4,606a0f629f8bb6be88bc7cae,2021-04-04_22h11.48.907,Colour_Similarity_Experiment,2020.2.10,Win32,60,60675255c767bca6388caeee,16.84805825,16.66033333,16.70493812,16.69274713,16.65613095,16.69274713,,,,,,,,,,,,,,,,,,,,PF,3,strong,,,,,,,,2,1.680065,,,,,,,,,,,,,,,,,,,,,,,,,,,,6,strong,-104,-49,1,0,0,response5disk,9,113,-32,-7,1,0,0,rectangle,116,44,1,0,0,6,6,2.649675,4,3,1,0,0,0,112,112,160,1,1,response1disk_3,rectangle,,,,,,,,,,,,,,,,,,,
,,,,,,,,,,,,,,,,,,,,,,,,,,,,,,,,,,,,,,,,,,588ff21a2597a90001667ee4,606a0f629f8bb6be88bc7cae,2021-04-04_22h11.48.907,Colour_Similarity_Experiment,2020.2.10,Win32,60,60675255c767bca6388caeee,16.84805825,16.66033333,16.70493812,16.69274713,16.65613095,16.69274713,,,,,,,,,,,,,,,,,,,,PF,3,weak,,,,,,,,7,2.763595,,,,,,,,,,,,,,,,,,,,,,,,,,,,7,weak,40,111,1,0,0,response1disk,4,114,8,4,1,0,0,rectangle,8,4,1,0,0,6,0,0.000885,8,4,1,0,0,0,113,113,43,1,0,,,,,,,,,,,,,,,,,,,,,
,,,,,,,,,,,,,,,,,,,,,,,,,,,,,,,,,,,,,,,,,,588ff21a2597a90001667ee4,606a0f629f8bb6be88bc7cae,2021-04-04_22h11.48.907,Colour_Similarity_Experiment,2020.2.10,Win32,60,60675255c767bca6388caeee,16.84805825,16.66033333,16.70493812,16.69274713,16.65613095,16.69274713,,,,,,,,,,,,,,,,,,,,PF,3,strong,,,,,,,,6,2.178055,,,,,,,,,,,,,,,,,,,,,,,,,,,,7,strong,99,51,1,0,0,response1disk,2,115,0,-6,1,0,0,rectangle,0,-6,1,0,0,6,7,0.000925,0,-6,1,0,0,0,114,114,138,1,0,,,,,,,,,,,,,,,,,,,,,
,,,,,,,,,,,,,,,,,,,,,,,,,,,,,,,,,,,,,,,,,,588ff21a2597a90001667ee4,606a0f629f8bb6be88bc7cae,2021-04-04_22h11.48.907,Colour_Similarity_Experiment,2020.2.10,Win32,60,60675255c767bca6388caeee,16.84805825,16.66033333,16.70493812,16.69274713,16.65613095,16.69274713,,,,,,,,,,,,,,,,,,,,PF,3,weak,,,,,,,,7,2.863585,,,,,,,,,,,,,,,,,,,,,,,,,,,,4,weak,42,75,1,0,0,response1disk,7,116,9,5,1,0,0,rectangle,9,5,1,0,0,6,4,0.000555,9,5,1,0,0,0,115,115,38,1,0,,,,,,,,,,,,,,,,,,,,,
,,,,,,,,,,,,,,,,,,,,,,,,,,,,,,,,,,,,,,,,,,588ff21a2597a90001667ee4,606a0f629f8bb6be88bc7cae,2021-04-04_22h11.48.907,Colour_Similarity_Experiment,2020.2.10,Win32,60,60675255c767bca6388caeee,16.84805825,16.66033333,16.70493812,16.69274713,16.65613095,16.69274713,,,,,,,,,,,,,,,,,,,,PF,3,strong,,,,,,,,7,1.66864,,,,,,,,,,,,,,,,,,,,,,,,,,,,7,strong,57,94,1,0,0,response1disk,4,117,7,-5,1,0,0,rectangle,7,-5,1,0,0,6,3,0.000575,7,-5,1,0,0,0,116,116,158,1,0,,,,,,,,,,,,,,,,,,,,,
,,,,,,,,,,,,,,,,,,,,,,,,,,,,,,,,,,,,,,,,,,588ff21a2597a90001667ee4,606a0f629f8bb6be88bc7cae,2021-04-04_22h11.48.907,Colour_Similarity_Experiment,2020.2.10,Win32,60,60675255c767bca6388caeee,16.84805825,16.66033333,16.70493812,16.69274713,16.65613095,16.69274713,,,,,,,,,,,,,,,,,,,,PF,3,weak,,,,,,,,5,2.812535,,,,,,,,,,,,,,,,,,,,,,,,,,,,2,weak,80,-40,1,0,0,response3disk,8,118,5,-5,1,0,0,rectangle,5,-5,1,0,0,6,0,0.00073,5,-5,1,0,0,0,117,117,52,1,0,,,,,,,,,,,,,,,,,,,,,
,,,,,,,,,,,,,,,,,,,,,,,,,,,,,,,,,,,,,,,,,,588ff21a2597a90001667ee4,606a0f629f8bb6be88bc7cae,2021-04-04_22h11.48.907,Colour_Similarity_Experiment,2020.2.10,Win32,60,60675255c767bca6388caeee,16.84805825,16.66033333,16.70493812,16.69274713,16.65613095,16.69274713,,,,,,,,,,,,,,,,,,,,PF,3,strong,,,,,,,,5,3.51164,,,,,,,,,,,,,,,,,,,,,,,,,,,,7,strong,96,-42,1,0,0,response3disk,7,119,2,-1,1,0,0,rectangle,2,-1,1,0,0,6,3,0.00061,2,-1,1,0,0,0,118,118,34,1,0,,,,,,,,,,,,,,,,,,,,,
,,,,,,,,,,,,,,,,,,,,,,,,,,,,,,,,,,,,,,,,,,588ff21a2597a90001667ee4,606a0f629f8bb6be88bc7cae,2021-04-04_22h11.48.907,Colour_Similarity_Experiment,2020.2.10,Win32,60,60675255c767bca6388caeee,16.84805825,16.66033333,16.70493812,16.69274713,16.65613095,16.69274713,,,,,,,,,,,,,,,,,,,,PF,3,strong,,,,,,,,7,1.929995,,,,,,,,,,,,,,,,,,,,,,,,,,,,9,strong,57,114,1,0,0,response1disk,2,120,11,3,1,0,0,rectangle,136,59,1,0,0,6,6,3.0665,-14,-4,1,0,0,0,119,119,11,1,1,response1disk_3,rectangle,,,,,,,,,,,,,,,,,,,
,,,,,,,,,,,,,,,,,,,,,,,,,,,,,,,,,,,,,,,,,,588ff21a2597a90001667ee4,606a0f629f8bb6be88bc7cae,2021-04-04_22h11.48.907,Colour_Similarity_Experiment,2020.2.10,Win32,60,60675255c767bca6388caeee,16.84805825,16.66033333,16.70493812,16.69274713,16.65613095,16.69274713,,,,,,,,,,,,,,,,,,,,PF,3,strong,,,,,,,,4,2.411695,,,,,,,,,,,,,,,,,,,,,,,,,,,,1,strong,46,-73,1,0,0,response3disk,3,121,27,2,1,0,0,rectangle,27,2,1,0,0,6,0,0.000885,27,2,1,0,0,0,120,120,99,1,0,,,,,,,,,,,,,,,,,,,,,
,,,,,,,,,,,,,,,,,,,,,,,,,,,,,,,,,,,,,,,,,,588ff21a2597a90001667ee4,606a0f629f8bb6be88bc7cae,2021-04-04_22h11.48.907,Colour_Similarity_Experiment,2020.2.10,Win32,60,60675255c767bca6388caeee,16.84805825,16.66033333,16.70493812,16.69274713,16.65613095,16.69274713,,,,,,,,,,,,,,,,,,,,PF,3,weak,,,,,,,,5,3.263685,,,,,,,,,,,,,,,,,,,,,,,,,,,,6,weak,85,-35,1,0,0,response3disk,9,122,30,1,1,0,0,rectangle,30,1,1,0,0,6,6,0.000595,30,1,1,0,0,0,121,121,45,1,0,,,,,,,,,,,,,,,,,,,,,
,,,,,,,,,,,,,,,,,,,,,,,,,,,,,,,,,,,,,,,,,,588ff21a2597a90001667ee4,606a0f629f8bb6be88bc7cae,2021-04-04_22h11.48.907,Colour_Similarity_Experiment,2020.2.10,Win32,60,60675255c767bca6388caeee,16.84805825,16.66033333,16.70493812,16.69274713,16.65613095,16.69274713,,,,,,,,,,,,,,,,,,,,PF,3,strong,,,,,,,,2,2.295885,,,,,,,,,,,,,,,,,,,,,,,,,,,,6,strong,-115,-36,1,0,0,response5disk,1,123,-16,6,1,0,0,rectangle,-16,6,1,0,0,6,6,0.000145,-16,6,1,0,0,0,122,122,5,1,0,,,,,,,,,,,,,,,,,,,,,
,,,,,,,,,,,,,,,,,,,,,,,,,,,,,,,,,,,,,,,,,,588ff21a2597a90001667ee4,606a0f629f8bb6be88bc7cae,2021-04-04_22h11.48.907,Colour_Similarity_Experiment,2020.2.10,Win32,60,60675255c767bca6388caeee,16.84805825,16.66033333,16.70493812,16.69274713,16.65613095,16.69274713,,,,,,,,,,,,,,,,,,,,PF,3,strong,,,,,,,,3,1.3446,,,,,,,,,,,,,,,,,,,,,,,,,,,,8,strong,-52,-106,1,0,0,response5disk,7,124,1,-4,1,0,0,rectangle,1,-4,1,0,0,6,7,0.000615,1,-4,1,0,0,0,123,123,86,1,0,,,,,,,,,,,,,,,,,,,,,
,,,,,,,,,,,,,,,,,,,,,,,,,,,,,,,,,,,,,,,,,,588ff21a2597a90001667ee4,606a0f629f8bb6be88bc7cae,2021-04-04_22h11.48.907,Colour_Similarity_Experiment,2020.2.10,Win32,60,60675255c767bca6388caeee,16.84805825,16.66033333,16.70493812,16.69274713,16.65613095,16.69274713,,,,,,,,,,,,,,,,,,,,PF,3,weak,,,,,,,,3,1.44868,,,,,,,,,,,,,,,,,,,,,,,,,,,,1,weak,-44,-79,1,0,0,response5disk,2,125,-3,-6,1,0,0,rectangle,-3,-6,1,0,0,6,2,0.00054,-3,-6,1,0,0,0,124,124,24,1,0,,,,,,,,,,,,,,,,,,,,,
,,,,,,,,,,,,,,,,,,,,,,,,,,,,,,,,,,,,,,,,,,588ff21a2597a90001667ee4,606a0f629f8bb6be88bc7cae,2021-04-04_22h11.48.907,Colour_Similarity_Experiment,2020.2.10,Win32,60,60675255c767bca6388caeee,16.84805825,16.66033333,16.70493812,16.69274713,16.65613095,16.69274713,,,,,,,,,,,,,,,,,,,,PF,3,weak,,,,,,,,6,2.182015,,,,,,,,,,,,,,,,,,,,,,,,,,,,7,weak,145,46,1,0,0,response1disk,8,126,23,4,1,0,0,rectangle,23,4,1,0,0,6,3,0.000675,23,4,1,0,0,0,125,125,140,1,0,,,,,,,,,,,,,,,,,,,,,
,,,,,,,,,,,,,,,,,,,,,,,,,,,,,,,,,,,,,,,,,,588ff21a2597a90001667ee4,606a0f629f8bb6be88bc7cae,2021-04-04_22h11.48.907,Colour_Similarity_Experiment,2020.2.10,Win32,60,60675255c767bca6388caeee,16.84805825,16.66033333,16.70493812,16.69274713,16.65613095,16.69274713,,,,,,,,,,,,,,,,,,,,PF,3,weak,,,,,,,,6,1.57816,,,,,,,,,,,,,,,,,,,,,,,,,,,,5,weak,93,38,1,0,0,response1disk,9,127,-1,-7,1,0,0,rectangle,-110,-50,1,0,0,6,2,2.48311,-11,-6,1,0,0,0,126,126,136,1,1,response5disk_3,rectangle,,,,,,,,,,,,,,,,,,,
,,,,,,,,,,,,,,,,,,,,,,,,,,,,,,,,,,,,,,,,,,588ff21a2597a90001667ee4,606a0f629f8bb6be88bc7cae,2021-04-04_22h11.48.907,Colour_Similarity_Experiment,2020.2.10,Win32,60,60675255c767bca6388caeee,16.84805825,16.66033333,16.70493812,16.69274713,16.65613095,16.69274713,,,,,,,,,,,,,,,,,,,,PF,3,weak,,,,,,,,4,21.4794,,,,,,,,,,,,,,,,,,,,,,,,,,,,7,weak,44,-102,1,0,0,response3disk,3,128,-11,5,1,0,0,rectangle,-11,5,1,0,0,6,5,0.000575,-11,5,1,0,0,0,127,127,81,1,0,,,,,,,,,,,,,,,,,,,,,
,,,,,,,,,,,,,,,,,,,,,,,,,,,,,,,,,,,,,,,,,,588ff21a2597a90001667ee4,606a0f629f8bb6be88bc7cae,2021-04-04_22h11.48.907,Colour_Similarity_Experiment,2020.2.10,Win32,60,60675255c767bca6388caeee,16.84805825,16.66033333,16.70493812,16.69274713,16.65613095,16.69274713,,,,,,,,,,,,,,,,,,,,PF,3,weak,,,,,,,,7,2.16169,,,,,,,,,,,,,,,,,,,,,,,,,,,,9,weak,69,105,1,0,0,response1disk,1,129,20,10,1,0,0,rectangle,20,10,1,0,0,6,0,0.000835,20,10,1,0,0,0,128,128,74,1,0,,,,,,,,,,,,,,,,,,,,,
,,,,,,,,,,,,,,,,,,,,,,,,,,,,,,,,,,,,,,,,,,588ff21a2597a90001667ee4,606a0f629f8bb6be88bc7cae,2021-04-04_22h11.48.907,Colour_Similarity_Experiment,2020.2.10,Win32,60,60675255c767bca6388caeee,16.84805825,16.66033333,16.70493812,16.69274713,16.65613095,16.69274713,,,,,,,,,,,,,,,,,,,,PF,3,strong,,,,,,,,5,1.761785,,,,,,,,,,,,,,,,,,,,,,,,,,,,7,strong,83,-55,1,0,0,response3disk,9,130,24,-3,1,0,0,rectangle,24,-3,1,0,0,6,6,0.001005,24,-3,1,0,0,0,129,129,155,1,0,,,,,,,,,,,,,,,,,,,,,
,,,,,,,,,,,,,,,,,,,,,,,,,,,,,,,,,,,,,,,,,,588ff21a2597a90001667ee4,606a0f629f8bb6be88bc7cae,2021-04-04_22h11.48.907,Colour_Similarity_Experiment,2020.2.10,Win32,60,60675255c767bca6388caeee,16.84805825,16.66033333,16.70493812,16.69274713,16.65613095,16.69274713,,,,,,,,,,,,,,,,,,,,PF,3,weak,,,,,,,,5,2.03387,,,,,,,,,,,,,,,,,,,,,,,,,,,,2,weak,98,-54,1,0,0,response3disk,2,131,36,-4,1,0,0,rectangle,36,-4,1,0,0,6,6,7.5E-05,36,-4,1,0,0,0,130,130,14,1,0,,,,,,,,,,,,,,,,,,,,,
,,,,,,,,,,,,,,,,,,,,,,,,,,,,,,,,,,,,,,,,,,588ff21a2597a90001667ee4,606a0f629f8bb6be88bc7cae,2021-04-04_22h11.48.907,Colour_Similarity_Experiment,2020.2.10,Win32,60,60675255c767bca6388caeee,16.84805825,16.66033333,16.70493812,16.69274713,16.65613095,16.69274713,,,,,,,,,,,,,,,,,,,,PF,3,strong,,,,,,,,5,2.50017,,,,,,,,,,,,,,,,,,,,,,,,,,,,9,strong,94,-29,1,0,0,response3disk,3,132,12,-1,1,0,0,rectangle,12,-1,1,0,0,6,1,0.0007,12,-1,1,0,0,0,131,131,141,1,0,,,,,,,,,,,,,,,,,,,,,
,,,,,,,,,,,,,,,,,,,,,,,,,,,,,,,,,,,,,,,,,,588ff21a2597a90001667ee4,606a0f629f8bb6be88bc7cae,2021-04-04_22h11.48.907,Colour_Similarity_Experiment,2020.2.10,Win32,60,60675255c767bca6388caeee,16.84805825,16.66033333,16.70493812,16.69274713,16.65613095,16.69274713,,,,,,,,,,,,,,,,,,,,PF,3,weak,,,,,,,,6,1.61626,,,,,,,,,,,,,,,,,,,,,,,,,,,,9,weak,111,61,1,0,0,response1disk,8,133,32,-1,1,0,0,rectangle,32,-1,1,0,0,6,4,0.000885,32,-1,1,0,0,0,132,132,67,1,0,,,,,,,,,,,,,,,,,,,,,
,,,,,,,,,,,,,,,,,,,,,,,,,,,,,,,,,,,,,,,,,,588ff21a2597a90001667ee4,606a0f629f8bb6be88bc7cae,2021-04-04_22h11.48.907,Colour_Similarity_Experiment,2020.2.10,Win32,60,60675255c767bca6388caeee,16.84805825,16.66033333,16.70493812,16.69274713,16.65613095,16.69274713,,,,,,,,,,,,,,,,,,,,PF,3,weak,,,,,,,,6,1.76178,,,,,,,,,,,,,,,,,,,,,,,,,,,,1,weak,94,27,1,0,0,response1disk,3,134,17,-1,1,0,0,rectangle,17,-1,1,0,0,6,6,0.000735,17,-1,1,0,0,0,133,133,1,1,0,,,,,,,,,,,,,,,,,,,,,
,,,,,,,,,,,,,,,,,,,,,,,,,,,,,,,,,,,,,,,,,,588ff21a2597a90001667ee4,606a0f629f8bb6be88bc7cae,2021-04-04_22h11.48.907,Colour_Similarity_Experiment,2020.2.10,Win32,60,60675255c767bca6388caeee,16.84805825,16.66033333,16.70493812,16.69274713,16.65613095,16.69274713,,,,,,,,,,,,,,,,,,,,PF,3,weak,,,,,,,,0,1.04528,,,,,,,,,,,,,,,,,,,,,,,,,,,,4,weak,-38,103,1,0,0,response7disk,3,135,-2,8,1,0,0,rectangle,-2,8,1,0,0,6,3,0.00061,-2,8,1,0,0,0,134,134,89,1,0,,,,,,,,,,,,,,,,,,,,,
,,,,,,,,,,,,,,,,,,,,,,,,,,,,,,,,,,,,,,,,,,588ff21a2597a90001667ee4,606a0f629f8bb6be88bc7cae,2021-04-04_22h11.48.907,Colour_Similarity_Experiment,2020.2.10,Win32,60,60675255c767bca6388caeee,16.84805825,16.66033333,16.70493812,16.69274713,16.65613095,16.69274713,,,,,,,,,,,,,,,,,,,,PF,3,strong,,,,,,,,6,1.56188,,,,,,,,,,,,,,,,,,,,,,,,,,,,8,strong,97,56,1,0,0,response1disk,6,136,-9,4,1,0,0,rectangle,-9,4,1,0,0,6,3,0.000105,-9,4,1,0,0,0,135,135,37,1,0,,,,,,,,,,,,,,,,,,,,,
,,,,,,,,,,,,,,,,,,,,,,,,,,,,,,,,,,,,,,,,,,588ff21a2597a90001667ee4,606a0f629f8bb6be88bc7cae,2021-04-04_22h11.48.907,Colour_Similarity_Experiment,2020.2.10,Win32,60,60675255c767bca6388caeee,16.84805825,16.66033333,16.70493812,16.69274713,16.65613095,16.69274713,,,,,,,,,,,,,,,,,,,,PF,3,strong,,,,,,,,6,2.528135,,,,,,,,,,,,,,,,,,,,,,,,,,,,7,strong,93,43,1,0,0,response1disk,1,137,-1,5,1,0,0,rectangle,-1,5,1,0,0,6,7,0.0007,-1,5,1,0,0,0,136,136,132,1,0,,,,,,,,,,,,,,,,,,,,,
,,,,,,,,,,,,,,,,,,,,,,,,,,,,,,,,,,,,,,,,,,588ff21a2597a90001667ee4,606a0f629f8bb6be88bc7cae,2021-04-04_22h11.48.907,Colour_Similarity_Experiment,2020.2.10,Win32,60,60675255c767bca6388caeee,16.84805825,16.66033333,16.70493812,16.69274713,16.65613095,16.69274713,,,,,,,,,,,,,,,,,,,,PF,3,strong,,,,,,,,7,3.84837,,,,,,,,,,,,,,,,,,,,,,,,,,,,2,strong,68,106,1,0,0,response1disk,7,138,15,6,1,0,0,rectangle,15,6,1,0,0,6,3,0.000615,15,6,1,0,0,0,137,137,63,1,0,,,,,,,,,,,,,,,,,,,,,
,,,,,,,,,,,,,,,,,,,,,,,,,,,,,,,,,,,,,,,,,,588ff21a2597a90001667ee4,606a0f629f8bb6be88bc7cae,2021-04-04_22h11.48.907,Colour_Similarity_Experiment,2020.2.10,Win32,60,60675255c767bca6388caeee,16.84805825,16.66033333,16.70493812,16.69274713,16.65613095,16.69274713,,,,,,,,,,,,,,,,,,,,PF,3,strong,,,,,,,,7,0.99998,,,,,,,,,,,,,,,,,,,,,,,,,,,,2,strong,63,114,1,0,0,response1disk,1,139,-14,0,1,0,0,rectangle,-14,0,1,0,0,6,6,0.00057,-14,0,1,0,0,0,138,138,85,1,0,,,,,,,,,,,,,,,,,,,,,
,,,,,,,,,,,,,,,,,,,,,,,,,,,,,,,,,,,,,,,,,,588ff21a2597a90001667ee4,606a0f629f8bb6be88bc7cae,2021-04-04_22h11.48.907,Colour_Similarity_Experiment,2020.2.10,Win32,60,60675255c767bca6388caeee,16.84805825,16.66033333,16.70493812,16.69274713,16.65613095,16.69274713,,,,,,,,,,,,,,,,,,,,PF,3,strong,,,,,,,,4,2.67855,,,,,,,,,,,,,,,,,,,,,,,,,,,,4,strong,40,-101,1,0,0,response3disk,2,140,-1,8,1,0,0,rectangle,-1,8,1,0,0,6,5,0.000985,-1,8,1,0,0,0,139,139,13,1,0,,,,,,,,,,,,,,,,,,,,,
,,,,,,,,,,,,,,,,,,,,,,,,,,,,,,,,,,,,,,,,,,588ff21a2597a90001667ee4,606a0f629f8bb6be88bc7cae,2021-04-04_22h11.48.907,Colour_Similarity_Experiment,2020.2.10,Win32,60,60675255c767bca6388caeee,16.84805825,16.66033333,16.70493812,16.69274713,16.65613095,16.69274713,,,,,,,,,,,,,,,,,,,,PF,3,strong,,,,,,,,5,2.6498,,,,,,,,,,,,,,,,,,,,,,,,,,,,1,strong,108,-47,1,0,0,response3disk,9,141,11,-1,1,0,0,rectangle,11,-1,1,0,0,6,0,0.000575,11,-1,1,0,0,0,140,140,123,1,0,,,,,,,,,,,,,,,,,,,,,
,,,,,,,,,,,,,,,,,,,,,,,,,,,,,,,,,,,,,,,,,,588ff21a2597a90001667ee4,606a0f629f8bb6be88bc7cae,2021-04-04_22h11.48.907,Colour_Similarity_Experiment,2020.2.10,Win32,60,60675255c767bca6388caeee,16.84805825,16.66033333,16.70493812,16.69274713,16.65613095,16.69274713,,,,,,,,,,,,,,,,,,,,PF,3,weak,,,,,,,,5,1.11182,,,,,,,,,,,,,,,,,,,,,,,,,,,,3,weak,96,-44,1,0,0,response3disk,2,142,-11,-3,1,0,0,rectangle,63,-116,1,0,0,4,4,2.016775,-12,2,1,0,0,0,141,141,36,1,1,response3disk_3,rectangle,,,,,,,,,,,,,,,,,,,
,,,,,,,,,,,,,,,,,,,,,,,,,,,,,,,,,,,,,,,,,,588ff21a2597a90001667ee4,606a0f629f8bb6be88bc7cae,2021-04-04_22h11.48.907,Colour_Similarity_Experiment,2020.2.10,Win32,60,60675255c767bca6388caeee,16.84805825,16.66033333,16.70493812,16.69274713,16.65613095,16.69274713,,,,,,,,,,,,,,,,,,,,PF,3,weak,,,,,,,,4,2.147095,,,,,,,,,,,,,,,,,,,,,,,,,,,,2,weak,43,-131,1,0,0,response3disk,5,143,16,12,1,0,0,rectangle,16,12,1,0,0,4,0,0.00066,16,12,1,0,0,0,142,142,147,1,0,,,,,,,,,,,,,,,,,,,,,
,,,,,,,,,,,,,,,,,,,,,,,,,,,,,,,,,,,,,,,,,,588ff21a2597a90001667ee4,606a0f629f8bb6be88bc7cae,2021-04-04_22h11.48.907,Colour_Similarity_Experiment,2020.2.10,Win32,60,60675255c767bca6388caeee,16.84805825,16.66033333,16.70493812,16.69274713,16.65613095,16.69274713,,,,,,,,,,,,,,,,,,,,PF,3,strong,,,,,,,,4,1.111685,,,,,,,,,,,,,,,,,,,,,,,,,,,,4,strong,55,-96,1,0,0,response3disk,8,144,14,-7,1,0,0,rectangle,14,-7,1,0,0,4,3,0.00062,14,-7,1,0,0,0,143,143,35,1,0,,,,,,,,,,,,,,,,,,,,,
,,,,,,,,,,,,,,,,,,,,,,,,,,,,,,,,,,,,,,,,,,588ff21a2597a90001667ee4,606a0f629f8bb6be88bc7cae,2021-04-04_22h11.48.907,Colour_Similarity_Experiment,2020.2.10,Win32,60,60675255c767bca6388caeee,16.84805825,16.66033333,16.70493812,16.69274713,16.65613095,16.69274713,,,,,,,,,,,,,,,,,,,,PF,3,weak,,,,,,,,4,2.56548,,,,,,,,,,,,,,,,,,,,,,,,,,,,6,weak,51,-110,1,0,0,response3disk,7,145,8,-10,1,0,0,rectangle,8,-10,1,0,0,4,1,0.000695,8,-10,1,0,0,0,144,144,50,1,0,,,,,,,,,,,,,,,,,,,,,
,,,,,,,,,,,,,,,,,,,,,,,,,,,,,,,,,,,,,,,,,,588ff21a2597a90001667ee4,606a0f629f8bb6be88bc7cae,2021-04-04_22h11.48.907,Colour_Similarity_Experiment,2020.2.10,Win32,60,60675255c767bca6388caeee,16.84805825,16.66033333,16.70493812,16.69274713,16.65613095,16.69274713,,,,,,,,,,,,,,,,,,,,PF,3,strong,,,,,,,,7,1.36658,,,,,,,,,,,,,,,,,,,,,,,,,,,,4,strong,87,118,1,0,0,response1disk,1,146,-26,-5,1,0,0,rectangle,-26,-5,1,0,0,4,4,0.000825,-26,-5,1,0,0,0,145,145,102,1,0,,,,,,,,,,,,,,,,,,,,,
,,,,,,,,,,,,,,,,,,,,,,,,,,,,,,,,,,,,,,,,,,588ff21a2597a90001667ee4,606a0f629f8bb6be88bc7cae,2021-04-04_22h11.48.907,Colour_Similarity_Experiment,2020.2.10,Win32,60,60675255c767bca6388caeee,16.84805825,16.66033333,16.70493812,16.69274713,16.65613095,16.69274713,,,,,,,,,,,,,,,,,,,,PF,3,weak,,,,,,,,6,2.94941,,,,,,,,,,,,,,,,,,,,,,,,,,,,8,weak,101,44,1,0,0,response1disk,6,147,-5,-6,1,0,0,rectangle,45,-106,1,0,0,4,4,1.920885,26,1,1,0,0,0,146,146,161,1,1,response3disk_3,rectangle,,,,,,,,,,,,,,,,,,,
,,,,,,,,,,,,,,,,,,,,,,,,,,,,,,,,,,,,,,,,,,588ff21a2597a90001667ee4,606a0f629f8bb6be88bc7cae,2021-04-04_22h11.48.907,Colour_Similarity_Experiment,2020.2.10,Win32,60,60675255c767bca6388caeee,16.84805825,16.66033333,16.70493812,16.69274713,16.65613095,16.69274713,,,,,,,,,,,,,,,,,,,,PF,3,weak,,,,,,,,6,2.61162,,,,,,,,,,,,,,,,,,,,,,,,,,,,3,weak,120,48,1,0,0,response1disk,3,148,12,-3,1,0,0,rectangle,12,-3,1,0,0,4,7,0.00073,12,-3,1,0,0,0,147,147,4,1,0,,,,,,,,,,,,,,,,,,,,,
,,,,,,,,,,,,,,,,,,,,,,,,,,,,,,,,,,,,,,,,,,588ff21a2597a90001667ee4,606a0f629f8bb6be88bc7cae,2021-04-04_22h11.48.907,Colour_Similarity_Experiment,2020.2.10,Win32,60,60675255c767bca6388caeee,16.84805825,16.66033333,16.70493812,16.69274713,16.65613095,16.69274713,,,,,,,,,,,,,,,,,,,,PF,3,weak,,,,,,,,6,8.344835,,,,,,,,,,,,,,,,,,,,,,,,,,,,1,weak,93,34,1,0,0,response1disk,8,149,3,4,1,0,0,rectangle,3,4,1,0,0,4,1,0.000885,3,4,1,0,0,0,148,148,65,1,0,,,,,,,,,,,,,,,,,,,,,
,,,,,,,,,,,,,,,,,,,,,,,,,,,,,,,,,,,,,,,,,,588ff21a2597a90001667ee4,606a0f629f8bb6be88bc7cae,2021-04-04_22h11.48.907,Colour_Similarity_Experiment,2020.2.10,Win32,60,60675255c767bca6388caeee,16.84805825,16.66033333,16.70493812,16.69274713,16.65613095,16.69274713,,,,,,,,,,,,,,,,,,,,PF,3,weak,,,,,,,,4,4.78385,,,,,,,,,,,,,,,,,,,,,,,,,,,,9,weak,32,-105,1,0,0,response3disk,2,150,4,-2,1,0,0,rectangle,4,-2,1,0,0,4,7,0.00133,4,-2,1,0,0,0,149,149,157,1,0,,,,,,,,,,,,,,,,,,,,,
,,,,,,,,,,,,,,,,,,,,,,,,,,,,,,,,,,,,,,,,,,588ff21a2597a90001667ee4,606a0f629f8bb6be88bc7cae,2021-04-04_22h11.48.907,Colour_Similarity_Experiment,2020.2.10,Win32,60,60675255c767bca6388caeee,16.84805825,16.66033333,16.70493812,16.69274713,16.65613095,16.69274713,,,,,,,,,,,,,,,,,,,,PF,3,strong,,,,,,,,5,1.64733,,,,,,,,,,,,,,,,,,,,,,,,,,,,9,strong,110,-46,1,0,0,response3disk,8,151,18,-20,1,0,0,rectangle,18,-20,1,0,0,4,3,0.000565,18,-20,1,0,0,0,150,150,6,1,0,,,,,,,,,,,,,,,,,,,,,
,,,,,,,,,,,,,,,,,,,,,,,,,,,,,,,,,,,,,,,,,,588ff21a2597a90001667ee4,606a0f629f8bb6be88bc7cae,2021-04-04_22h11.48.907,Colour_Similarity_Experiment,2020.2.10,Win32,60,60675255c767bca6388caeee,16.84805825,16.66033333,16.70493812,16.69274713,16.65613095,16.69274713,,,,,,,,,,,,,,,,,,,,PF,3,strong,,,,,,,,3,2.59656,,,,,,,,,,,,,,,,,,,,,,,,,,,,3,strong,-50,-110,1,0,0,response5disk,7,152,-9,6,1,0,0,rectangle,-9,6,1,0,0,4,6,0.00055,-9,6,1,0,0,0,151,151,118,1,0,,,,,,,,,,,,,,,,,,,,,
,,,,,,,,,,,,,,,,,,,,,,,,,,,,,,,,,,,,,,,,,,588ff21a2597a90001667ee4,606a0f629f8bb6be88bc7cae,2021-04-04_22h11.48.907,Colour_Similarity_Experiment,2020.2.10,Win32,60,60675255c767bca6388caeee,16.84805825,16.66033333,16.70493812,16.69274713,16.65613095,16.69274713,,,,,,,,,,,,,,,,,,,,PF,3,strong,,,,,,,,0,1.844925,,,,,,,,,,,,,,,,,,,,,,,,,,,,5,strong,-40,121,1,0,0,response7disk,8,153,-2,3,1,0,0,rectangle,-2,3,1,0,0,4,6,0.00011,-2,3,1,0,0,0,152,152,16,1,0,,,,,,,,,,,,,,,,,,,,,
,,,,,,,,,,,,,,,,,,,,,,,,,,,,,,,,,,,,,,,,,,588ff21a2597a90001667ee4,606a0f629f8bb6be88bc7cae,2021-04-04_22h11.48.907,Colour_Similarity_Experiment,2020.2.10,Win32,60,60675255c767bca6388caeee,16.84805825,16.66033333,16.70493812,16.69274713,16.65613095,16.69274713,,,,,,,,,,,,,,,,,,,,PF,3,strong,,,,,,,,1,1.729625,,,,,,,,,,,,,,,,,,,,,,,,,,,,3,strong,-87,40,1,0,0,response7disk,9,154,-12,4,1,0,0,rectangle,-12,4,1,0,0,4,1,0.00053,-12,4,1,0,0,0,153,153,143,1,0,,,,,,,,,,,,,,,,,,,,,
,,,,,,,,,,,,,,,,,,,,,,,,,,,,,,,,,,,,,,,,,,588ff21a2597a90001667ee4,606a0f629f8bb6be88bc7cae,2021-04-04_22h11.48.907,Colour_Similarity_Experiment,2020.2.10,Win32,60,60675255c767bca6388caeee,16.84805825,16.66033333,16.70493812,16.69274713,16.65613095,16.69274713,,,,,,,,,,,,,,,,,,,,PF,3,weak,,,,,,,,3,3.518215,,,,,,,,,,,,,,,,,,,,,,,,,,,,9,weak,-31,-83,1,0,0,response5disk,6,155,1,-7,1,0,0,rectangle,1,-7,1,0,0,4,4,0.000635,1,-7,1,0,0,0,154,154,148,1,0,,,,,,,,,,,,,,,,,,,,,
,,,,,,,,,,,,,,,,,,,,,,,,,,,,,,,,,,,,,,,,,,588ff21a2597a90001667ee4,606a0f629f8bb6be88bc7cae,2021-04-04_22h11.48.907,Colour_Similarity_Experiment,2020.2.10,Win32,60,60675255c767bca6388caeee,16.84805825,16.66033333,16.70493812,16.69274713,16.65613095,16.69274713,,,,,,,,,,,,,,,,,,,,PF,3,strong,,,,,,,,6,1.851665,,,,,,,,,,,,,,,,,,,,,,,,,,,,5,strong,150,31,1,0,0,response1disk,2,156,31,3,1,0,0,rectangle,-125,-48,1,0,0,4,2,6.883085,-13,-4,1,0,0,0,155,155,55,1,1,response5disk_3,rectangle,,,,,,,,,,,,,,,,,,,
,,,,,,,,,,,,,,,,,,,,,,,,,,,,,,,,,,,,,,,,,,588ff21a2597a90001667ee4,606a0f629f8bb6be88bc7cae,2021-04-04_22h11.48.907,Colour_Similarity_Experiment,2020.2.10,Win32,60,60675255c767bca6388caeee,16.84805825,16.66033333,16.70493812,16.69274713,16.65613095,16.69274713,,,,,,,,,,,,,,,,,,,,PF,3,weak,,,,,,,,0,1.844645,,,,,,,,,,,,,,,,,,,,,,,,,,,,8,weak,-26,108,1,0,0,response7disk,2,157,6,12,1,0,0,rectangle,6,12,1,0,0,4,4,0.000815,6,12,1,0,0,0,156,156,83,1,0,,,,,,,,,,,,,,,,,,,,,
,,,,,,,,,,,,,,,,,,,,,,,,,,,,,,,,,,,,,,,,,,588ff21a2597a90001667ee4,606a0f629f8bb6be88bc7cae,2021-04-04_22h11.48.907,Colour_Similarity_Experiment,2020.2.10,Win32,60,60675255c767bca6388caeee,16.84805825,16.66033333,16.70493812,16.69274713,16.65613095,16.69274713,,,,,,,,,,,,,,,,,,,,PF,3,weak,,,,,,,,7,2.17878,,,,,,,,,,,,,,,,,,,,,,,,,,,,4,weak,55,128,1,0,0,response1disk,8,158,-8,8,1,0,0,rectangle,-8,8,1,0,0,4,1,0.00086,-8,8,1,0,0,0,157,157,124,1,0,,,,,,,,,,,,,,,,,,,,,
,,,,,,,,,,,,,,,,,,,,,,,,,,,,,,,,,,,,,,,,,,588ff21a2597a90001667ee4,606a0f629f8bb6be88bc7cae,2021-04-04_22h11.48.907,Colour_Similarity_Experiment,2020.2.10,Win32,60,60675255c767bca6388caeee,16.84805825,16.66033333,16.70493812,16.69274713,16.65613095,16.69274713,,,,,,,,,,,,,,,,,,,,PF,3,weak,,,,,,,,5,1.278355,,,,,,,,,,,,,,,,,,,,,,,,,,,,1,weak,90,-56,1,0,0,response3disk,6,159,11,9,1,0,0,rectangle,11,9,1,0,0,4,3,0.00088,11,9,1,0,0,0,158,158,144,1,0,,,,,,,,,,,,,,,,,,,,,
,,,,,,,,,,,,,,,,,,,,,,,,,,,,,,,,,,,,,,,,,,588ff21a2597a90001667ee4,606a0f629f8bb6be88bc7cae,2021-04-04_22h11.48.907,Colour_Similarity_Experiment,2020.2.10,Win32,60,60675255c767bca6388caeee,16.84805825,16.66033333,16.70493812,16.69274713,16.65613095,16.69274713,,,,,,,,,,,,,,,,,,,,PF,3,weak,,,,,,,,7,1.07854,,,,,,,,,,,,,,,,,,,,,,,,,,,,8,weak,37,79,1,0,0,response1disk,4,160,-6,-9,1,0,0,rectangle,-6,-9,1,0,0,4,1,0.00059,-6,-9,1,0,0,0,159,159,78,1,0,,,,,,,,,,,,,,,,,,,,,
,,,,,,,,,,,,,,,,,,,,,,,,,,,,,,,,,,,,,,,,,,588ff21a2597a90001667ee4,606a0f629f8bb6be88bc7cae,2021-04-04_22h11.48.907,Colour_Similarity_Experiment,2020.2.10,Win32,60,60675255c767bca6388caeee,16.84805825,16.66033333,16.70493812,16.69274713,16.65613095,16.69274713,,,,,,,,,,,,,,,,,,,,PF,3,strong,,,,,,,,7,1.113775,,,,,,,,,,,,,,,,,,,,,,,,,,,,4,strong,52,100,1,0,0,response1disk,7,161,-10,-17,1,0,0,rectangle,-10,-17,1,0,0,4,1,0.0001,-10,-17,1,0,0,0,160,160,87,1,0,,,,,,,,,,,,,,,,,,,,,
,,,,,,,,,,,,,,,,,,,,,,,,,,,,,,,,,,,,,,,,,,588ff21a2597a90001667ee4,606a0f629f8bb6be88bc7cae,2021-04-04_22h11.48.907,Colour_Similarity_Experiment,2020.2.10,Win32,60,60675255c767bca6388caeee,16.84805825,16.66033333,16.70493812,16.69274713,16.65613095,16.69274713,,,,,,,,,,,,,,,,,,,,PF,3,strong,,,,,,,,7,1.566855,,,,,,,,,,,,,,,,,,,,,,,,,,,,8,strong,40,76,1,0,0,response1disk,4,162,-6,-17,1,0,0,rectangle,-6,-17,1,0,0,4,6,0.000565,-6,-17,1,0,0,0,161,161,88,1,0,,,,,,,,,,,,,,,,,,,,,
,,,,,,,,,,,,,,,,,,,,,,,,,,,,,,,,,,,,,,,,,,588ff21a2597a90001667ee4,606a0f629f8bb6be88bc7cae,2021-04-04_22h11.48.907,Colour_Similarity_Experiment,2020.2.10,Win32,60,60675255c767bca6388caeee,16.84805825,16.66033333,16.70493812,16.69274713,16.65613095,16.69274713,,,,,,,,,,,,,,,,,,,,,,,,,,,,,,,,,,,,,,,,,,,,,,,,,,,,,,,,,,,,,,,,,,,,,,,,,,,,,,,,,,,,,,,,,,,,,,,,0,0,0,0,1,,,,,,,,,,,,,,
,,,,,,,,,,,,,,,,,,,,,,,,,,,,,,,,,,,,,,,,,,588ff21a2597a90001667ee4,606a0f629f8bb6be88bc7cae,2021-04-04_22h11.48.907,Colour_Similarity_Experiment,2020.2.10,Win32,60,60675255c767bca6388caeee,16.84805825,16.66033333,16.70493812,16.69274713,16.65613095,16.69274713,,,,,,,,,,,,,,,,,,,,PF,3,weak,,,,,,,,7,1.378665,,,,,,,,,,,,,,,,,,,,,,,,,,,,8,weak,41,105,1,0,0,response1disk,8,163,8,12,1,0,0,rectangle,8,12,1,0,0,4,1,0.00082,8,12,1,0,0,0,0,0,153,1,0,,,,,,,,,,,,,,,,,,,,,
,,,,,,,,,,,,,,,,,,,,,,,,,,,,,,,,,,,,,,,,,,588ff21a2597a90001667ee4,606a0f629f8bb6be88bc7cae,2021-04-04_22h11.48.907,Colour_Similarity_Experiment,2020.2.10,Win32,60,60675255c767bca6388caeee,16.84805825,16.66033333,16.70493812,16.69274713,16.65613095,16.69274713,,,,,,,,,,,,,,,,,,,,PF,3,weak,,,,,,,,7,0.952165,,,,,,,,,,,,,,,,,,,,,,,,,,,,9,weak,41,98,1,0,0,response1disk,4,164,-17,-17,1,0,0,rectangle,-17,-17,1,0,0,4,3,0.000595,-17,-17,1,0,0,0,1,1,114,1,0,,,,,,,,,,,,,,,,,,,,,
,,,,,,,,,,,,,,,,,,,,,,,,,,,,,,,,,,,,,,,,,,588ff21a2597a90001667ee4,606a0f629f8bb6be88bc7cae,2021-04-04_22h11.48.907,Colour_Similarity_Experiment,2020.2.10,Win32,60,60675255c767bca6388caeee,16.84805825,16.66033333,16.70493812,16.69274713,16.65613095,16.69274713,,,,,,,,,,,,,,,,,,,,PF,3,weak,,,,,,,,7,1.6471,,,,,,,,,,,,,,,,,,,,,,,,,,,,6,weak,52,83,1,0,0,response1disk,1,165,-7,1,1,0,0,rectangle,-7,1,1,0,0,4,5,0.00081,-7,1,1,0,0,0,2,2,46,1,0,,,,,,,,,,,,,,,,,,,,,
,,,,,,,,,,,,,,,,,,,,,,,,,,,,,,,,,,,,,,,,,,588ff21a2597a90001667ee4,606a0f629f8bb6be88bc7cae,2021-04-04_22h11.48.907,Colour_Similarity_Experiment,2020.2.10,Win32,60,60675255c767bca6388caeee,16.84805825,16.66033333,16.70493812,16.69274713,16.65613095,16.69274713,,,,,,,,,,,,,,,,,,,,PF,3,weak,,,,,,,,7,1.363415,,,,,,,,,,,,,,,,,,,,,,,,,,,,1,weak,37,91,1,0,0,response1disk,7,166,-16,-2,1,0,0,rectangle,-16,-2,1,0,0,4,2,0.00052,-16,-2,1,0,0,0,3,3,150,1,0,,,,,,,,,,,,,,,,,,,,,
,,,,,,,,,,,,,,,,,,,,,,,,,,,,,,,,,,,,,,,,,,588ff21a2597a90001667ee4,606a0f629f8bb6be88bc7cae,2021-04-04_22h11.48.907,Colour_Similarity_Experiment,2020.2.10,Win32,60,60675255c767bca6388caeee,16.84805825,16.66033333,16.70493812,16.69274713,16.65613095,16.69274713,,,,,,,,,,,,,,,,,,,,PF,3,strong,,,,,,,,5,2.944945,,,,,,,,,,,,,,,,,,,,,,,,,,,,9,strong,93,-69,1,0,0,response3disk,9,167,-5,-2,1,0,0,rectangle,-5,-2,1,0,0,4,4,0.00057,-5,-2,1,0,0,0,4,4,17,1,0,,,,,,,,,,,,,,,,,,,,,
,,,,,,,,,,,,,,,,,,,,,,,,,,,,,,,,,,,,,,,,,,588ff21a2597a90001667ee4,606a0f629f8bb6be88bc7cae,2021-04-04_22h11.48.907,Colour_Similarity_Experiment,2020.2.10,Win32,60,60675255c767bca6388caeee,16.84805825,16.66033333,16.70493812,16.69274713,16.65613095,16.69274713,,,,,,,,,,,,,,,,,,,,PF,3,strong,,,,,,,,5,1.48029,,,,,,,,,,,,,,,,,,,,,,,,,,,,5,strong,92,-39,1,0,0,response3disk,4,168,0,8,1,0,0,rectangle,0,8,1,0,0,4,7,0.000545,0,8,1,0,0,0,5,5,8,1,0,,,,,,,,,,,,,,,,,,,,,
,,,,,,,,,,,,,,,,,,,,,,,,,,,,,,,,,,,,,,,,,,588ff21a2597a90001667ee4,606a0f629f8bb6be88bc7cae,2021-04-04_22h11.48.907,Colour_Similarity_Experiment,2020.2.10,Win32,60,60675255c767bca6388caeee,16.84805825,16.66033333,16.70493812,16.69274713,16.65613095,16.69274713,,,,,,,,,,,,,,,,,,,,PF,3,weak,,,,,,,,5,2.395275,,,,,,,,,,,,,,,,,,,,,,,,,,,,1,weak,84,-38,1,0,0,response3disk,5,169,-4,0,1,0,0,rectangle,-4,0,1,0,0,4,0,0.00056,-4,0,1,0,0,0,6,6,28,1,0,,,,,,,,,,,,,,,,,,,,,
,,,,,,,,,,,,,,,,,,,,,,,,,,,,,,,,,,,,,,,,,,588ff21a2597a90001667ee4,606a0f629f8bb6be88bc7cae,2021-04-04_22h11.48.907,Colour_Similarity_Experiment,2020.2.10,Win32,60,60675255c767bca6388caeee,16.84805825,16.66033333,16.70493812,16.69274713,16.65613095,16.69274713,,,,,,,,,,,,,,,,,,,,PF,3,strong,,,,,,,,6,1.395505,,,,,,,,,,,,,,,,,,,,,,,,,,,,5,strong,105,45,1,0,0,response1disk,6,170,-7,-6,1,0,0,rectangle,-7,-6,1,0,0,4,5,0.00058,-7,-6,1,0,0,0,7,7,12,1,0,,,,,,,,,,,,,,,,,,,,,
,,,,,,,,,,,,,,,,,,,,,,,,,,,,,,,,,,,,,,,,,,588ff21a2597a90001667ee4,606a0f629f8bb6be88bc7cae,2021-04-04_22h11.48.907,Colour_Similarity_Experiment,2020.2.10,Win32,60,60675255c767bca6388caeee,16.84805825,16.66033333,16.70493812,16.69274713,16.65613095,16.69274713,,,,,,,,,,,,,,,,,,,,PF,3,weak,,,,,,,,5,1.580575,,,,,,,,,,,,,,,,,,,,,,,,,,,,4,weak,93,-41,1,0,0,response3disk,2,171,4,-2,1,0,0,rectangle,4,-2,1,0,0,4,5,8E-05,4,-2,1,0,0,0,8,8,108,1,0,,,,,,,,,,,,,,,,,,,,,
,,,,,,,,,,,,,,,,,,,,,,,,,,,,,,,,,,,,,,,,,,588ff21a2597a90001667ee4,606a0f629f8bb6be88bc7cae,2021-04-04_22h11.48.907,Colour_Similarity_Experiment,2020.2.10,Win32,60,60675255c767bca6388caeee,16.84805825,16.66033333,16.70493812,16.69274713,16.65613095,16.69274713,,,,,,,,,,,,,,,,,,,,PF,3,strong,,,,,,,,6,1.713865,,,,,,,,,,,,,,,,,,,,,,,,,,,,3,strong,101,52,1,0,0,response1disk,8,172,16,14,1,0,0,rectangle,16,14,1,0,0,4,3,0.000825,16,14,1,0,0,0,9,9,44,1,0,,,,,,,,,,,,,,,,,,,,,
,,,,,,,,,,,,,,,,,,,,,,,,,,,,,,,,,,,,,,,,,,588ff21a2597a90001667ee4,606a0f629f8bb6be88bc7cae,2021-04-04_22h11.48.907,Colour_Similarity_Experiment,2020.2.10,Win32,60,60675255c767bca6388caeee,16.84805825,16.66033333,16.70493812,16.69274713,16.65613095,16.69274713,,,,,,,,,,,,,,,,,,,,PF,3,weak,,,,,,,,3,2.64493,,,,,,,,,,,,,,,,,,,,,,,,,,,,6,weak,-34,-119,1,0,0,response5disk,5,173,-5,0,1,0,0,rectangle,-5,0,1,0,0,4,4,0.00059,-5,0,1,0,0,0,10,10,59,1,0,,,,,,,,,,,,,,,,,,,,,
,,,,,,,,,,,,,,,,,,,,,,,,,,,,,,,,,,,,,,,,,,588ff21a2597a90001667ee4,606a0f629f8bb6be88bc7cae,2021-04-04_22h11.48.907,Colour_Similarity_Experiment,2020.2.10,Win32,60,60675255c767bca6388caeee,16.84805825,16.66033333,16.70493812,16.69274713,16.65613095,16.69274713,,,,,,,,,,,,,,,,,,,,PF,3,weak,,,,,,,,5,1.58339,,,,,,,,,,,,,,,,,,,,,,,,,,,,9,weak,93,-43,1,0,0,response3disk,9,174,5,-14,1,0,0,rectangle,5,-14,1,0,0,4,2,0.00082,5,-14,1,0,0,0,11,11,106,1,0,,,,,,,,,,,,,,,,,,,,,
,,,,,,,,,,,,,,,,,,,,,,,,,,,,,,,,,,,,,,,,,,588ff21a2597a90001667ee4,606a0f629f8bb6be88bc7cae,2021-04-04_22h11.48.907,Colour_Similarity_Experiment,2020.2.10,Win32,60,60675255c767bca6388caeee,16.84805825,16.66033333,16.70493812,16.69274713,16.65613095,16.69274713,,,,,,,,,,,,,,,,,,,,PF,3,weak,,,,,,,,5,1.94533,,,,,,,,,,,,,,,,,,,,,,,,,,,,2,weak,83,-51,1,0,0,response3disk,3,175,7,-2,1,0,0,rectangle,7,-2,1,0,0,4,1,0.00078,7,-2,1,0,0,0,12,12,69,1,0,,,,,,,,,,,,,,,,,,,,,
,,,,,,,,,,,,,,,,,,,,,,,,,,,,,,,,,,,,,,,,,,588ff21a2597a90001667ee4,606a0f629f8bb6be88bc7cae,2021-04-04_22h11.48.907,Colour_Similarity_Experiment,2020.2.10,Win32,60,60675255c767bca6388caeee,16.84805825,16.66033333,16.70493812,16.69274713,16.65613095,16.69274713,,,,,,,,,,,,,,,,,,,,PF,3,weak,,,,,,,,5,1.65175,,,,,,,,,,,,,,,,,,,,,,,,,,,,2,weak,93,-53,1,0,0,response3disk,9,176,-3,1,1,0,0,rectangle,-3,1,1,0,0,4,2,0.00058,-3,1,1,0,0,0,13,13,39,1,0,,,,,,,,,,,,,,,,,,,,,
,,,,,,,,,,,,,,,,,,,,,,,,,,,,,,,,,,,,,,,,,,588ff21a2597a90001667ee4,606a0f629f8bb6be88bc7cae,2021-04-04_22h11.48.907,Colour_Similarity_Experiment,2020.2.10,Win32,60,60675255c767bca6388caeee,16.84805825,16.66033333,16.70493812,16.69274713,16.65613095,16.69274713,,,,,,,,,,,,,,,,,,,,PF,3,weak,,,,,,,,2,1.633625,,,,,,,,,,,,,,,,,,,,,,,,,,,,3,weak,-81,-44,1,0,0,response5disk,8,177,-43,6,1,0,0,rectangle,-43,6,1,0,0,4,2,0.00013,-43,6,1,0,0,0,14,14,3,1,0,,,,,,,,,,,,,,,,,,,,,
,,,,,,,,,,,,,,,,,,,,,,,,,,,,,,,,,,,,,,,,,,588ff21a2597a90001667ee4,606a0f629f8bb6be88bc7cae,2021-04-04_22h11.48.907,Colour_Similarity_Experiment,2020.2.10,Win32,60,60675255c767bca6388caeee,16.84805825,16.66033333,16.70493812,16.69274713,16.65613095,16.69274713,,,,,,,,,,,,,,,,,,,,PF,3,weak,,,,,,,,4,4.89472,,,,,,,,,,,,,,,,,,,,,,,,,,,,6,weak,35,-108,1,0,0,response3disk,6,178,6,-7,1,0,0,rectangle,6,-7,1,0,0,4,5,0.00063,6,-7,1,0,0,0,15,15,0,1,0,,,,,,,,,,,,,,,,,,,,,
,,,,,,,,,,,,,,,,,,,,,,,,,,,,,,,,,,,,,,,,,,588ff21a2597a90001667ee4,606a0f629f8bb6be88bc7cae,2021-04-04_22h11.48.907,Colour_Similarity_Experiment,2020.2.10,Win32,60,60675255c767bca6388caeee,16.84805825,16.66033333,16.70493812,16.69274713,16.65613095,16.69274713,,,,,,,,,,,,,,,,,,,,PF,3,strong,,,,,,,,5,1.312905,,,,,,,,,,,,,,,,,,,,,,,,,,,,2,strong,93,-36,1,0,0,response3disk,9,179,0,6,1,0,0,rectangle,0,6,1,0,0,4,4,0.00059,0,6,1,0,0,0,16,16,72,1,0,,,,,,,,,,,,,,,,,,,,,
,,,,,,,,,,,,,,,,,,,,,,,,,,,,,,,,,,,,,,,,,,588ff21a2597a90001667ee4,606a0f629f8bb6be88bc7cae,2021-04-04_22h11.48.907,Colour_Similarity_Experiment,2020.2.10,Win32,60,60675255c767bca6388caeee,16.84805825,16.66033333,16.70493812,16.69274713,16.65613095,16.69274713,,,,,,,,,,,,,,,,,,,,PF,3,strong,,,,,,,,6,1.278155,,,,,,,,,,,,,,,,,,,,,,,,,,,,4,strong,88,37,1,0,0,response1disk,3,180,-6,11,1,0,0,rectangle,-6,11,1,0,0,4,1,0.00051,-6,11,1,0,0,0,17,17,77,1,0,,,,,,,,,,,,,,,,,,,,,
,,,,,,,,,,,,,,,,,,,,,,,,,,,,,,,,,,,,,,,,,,588ff21a2597a90001667ee4,606a0f629f8bb6be88bc7cae,2021-04-04_22h11.48.907,Colour_Similarity_Experiment,2020.2.10,Win32,60,60675255c767bca6388caeee,16.84805825,16.66033333,16.70493812,16.69274713,16.65613095,16.69274713,,,,,,,,,,,,,,,,,,,,PF,3,strong,,,,,,,,2,2.085865,,,,,,,,,,,,,,,,,,,,,,,,,,,,8,strong,-89,-37,1,0,0,response5disk,5,181,-31,1,1,0,0,rectangle,-31,1,1,0,0,4,7,0.00084,-31,1,1,0,0,0,18,18,152,1,0,,,,,,,,,,,,,,,,,,,,,
,,,,,,,,,,,,,,,,,,,,,,,,,,,,,,,,,,,,,,,,,,588ff21a2597a90001667ee4,606a0f629f8bb6be88bc7cae,2021-04-04_22h11.48.907,Colour_Similarity_Experiment,2020.2.10,Win32,60,60675255c767bca6388caeee,16.84805825,16.66033333,16.70493812,16.69274713,16.65613095,16.69274713,,,,,,,,,,,,,,,,,,,,PF,3,strong,,,,,,,,2,3.964935,,,,,,,,,,,,,,,,,,,,,,,,,,,,2,strong,-102,-58,1,0,0,response5disk,5,182,0,-17,1,0,0,rectangle,0,-17,1,0,0,4,5,0.00064,0,-17,1,0,0,0,19,19,80,1,0,,,,,,,,,,,,,,,,,,,,,
,,,,,,,,,,,,,,,,,,,,,,,,,,,,,,,,,,,,,,,,,,588ff21a2597a90001667ee4,606a0f629f8bb6be88bc7cae,2021-04-04_22h11.48.907,Colour_Similarity_Experiment,2020.2.10,Win32,60,60675255c767bca6388caeee,16.84805825,16.66033333,16.70493812,16.69274713,16.65613095,16.69274713,,,,,,,,,,,,,,,,,,,,PF,3,weak,,,,,,,,4,1.594865,,,,,,,,,,,,,,,,,,,,,,,,,,,,1,weak,43,-97,1,0,0,response3disk,9,183,15,1,1,0,0,rectangle,15,1,1,0,0,4,2,0.000865,15,1,1,0,0,0,20,20,15,1,0,,,,,,,,,,,,,,,,,,,,,
,,,,,,,,,,,,,,,,,,,,,,,,,,,,,,,,,,,,,,,,,,588ff21a2597a90001667ee4,606a0f629f8bb6be88bc7cae,2021-04-04_22h11.48.907,Colour_Similarity_Experiment,2020.2.10,Win32,60,60675255c767bca6388caeee,16.84805825,16.66033333,16.70493812,16.69274713,16.65613095,16.69274713,,,,,,,,,,,,,,,,,,,,PF,3,weak,,,,,,,,4,2.714745,,,,,,,,,,,,,,,,,,,,,,,,,,,,5,weak,43,-106,1,0,0,response3disk,1,184,3,-9,1,0,0,rectangle,-110,61,1,0,0,1,1,1.983745,-23,5,1,0,0,0,21,21,159,1,1,response7disk_3,rectangle,,,,,,,,,,,,,,,,,,,
,,,,,,,,,,,,,,,,,,,,,,,,,,,,,,,,,,,,,,,,,,588ff21a2597a90001667ee4,606a0f629f8bb6be88bc7cae,2021-04-04_22h11.48.907,Colour_Similarity_Experiment,2020.2.10,Win32,60,60675255c767bca6388caeee,16.84805825,16.66033333,16.70493812,16.69274713,16.65613095,16.69274713,,,,,,,,,,,,,,,,,,,,PF,3,weak,,,,,,,,6,3.012275,,,,,,,,,,,,,,,,,,,,,,,,,,,,8,weak,99,41,1,0,0,response1disk,5,185,-10,-5,1,0,0,rectangle,-10,-5,1,0,0,1,1,9.49999E-05,-10,-5,1,0,0,0,22,22,98,1,0,,,,,,,,,,,,,,,,,,,,,
,,,,,,,,,,,,,,,,,,,,,,,,,,,,,,,,,,,,,,,,,,588ff21a2597a90001667ee4,606a0f629f8bb6be88bc7cae,2021-04-04_22h11.48.907,Colour_Similarity_Experiment,2020.2.10,Win32,60,60675255c767bca6388caeee,16.84805825,16.66033333,16.70493812,16.69274713,16.65613095,16.69274713,,,,,,,,,,,,,,,,,,,,PF,3,strong,,,,,,,,3,1.58032,,,,,,,,,,,,,,,,,,,,,,,,,,,,5,strong,-36,-103,1,0,0,response5disk,7,186,19,-7,1,0,0,rectangle,19,-7,1,0,0,1,2,0.000895,19,-7,1,0,0,0,23,23,7,1,0,,,,,,,,,,,,,,,,,,,,,
,,,,,,,,,,,,,,,,,,,,,,,,,,,,,,,,,,,,,,,,,,588ff21a2597a90001667ee4,606a0f629f8bb6be88bc7cae,2021-04-04_22h11.48.907,Colour_Similarity_Experiment,2020.2.10,Win32,60,60675255c767bca6388caeee,16.84805825,16.66033333,16.70493812,16.69274713,16.65613095,16.69274713,,,,,,,,,,,,,,,,,,,,PF,3,weak,,,,,,,,6,1.7333,,,,,,,,,,,,,,,,,,,,,,,,,,,,9,weak,113,64,1,0,0,response1disk,3,187,-1,2,1,0,0,rectangle,-1,2,1,0,0,1,4,0.00052,-1,2,1,0,0,0,24,24,119,1,0,,,,,,,,,,,,,,,,,,,,,
,,,,,,,,,,,,,,,,,,,,,,,,,,,,,,,,,,,,,,,,,,588ff21a2597a90001667ee4,606a0f629f8bb6be88bc7cae,2021-04-04_22h11.48.907,Colour_Similarity_Experiment,2020.2.10,Win32,60,60675255c767bca6388caeee,16.84805825,16.66033333,16.70493812,16.69274713,16.65613095,16.69274713,,,,,,,,,,,,,,,,,,,,PF,3,weak,,,,,,,,2,1.28323,,,,,,,,,,,,,,,,,,,,,,,,,,,,9,weak,-121,-34,1,0,0,response5disk,5,188,-20,-2,1,0,0,rectangle,-20,-2,1,0,0,1,6,0.000515,-20,-2,1,0,0,0,25,25,134,1,0,,,,,,,,,,,,,,,,,,,,,
,,,,,,,,,,,,,,,,,,,,,,,,,,,,,,,,,,,,,,,,,,588ff21a2597a90001667ee4,606a0f629f8bb6be88bc7cae,2021-04-04_22h11.48.907,Colour_Similarity_Experiment,2020.2.10,Win32,60,60675255c767bca6388caeee,16.84805825,16.66033333,16.70493812,16.69274713,16.65613095,16.69274713,,,,,,,,,,,,,,,,,,,,PF,3,strong,,,,,,,,2,0.89974,,,,,,,,,,,,,,,,,,,,,,,,,,,,2,strong,-68,-45,1,0,0,response5disk,3,189,7,-14,1,0,0,rectangle,-66,-141,1,0,0,3,3,2.51679,-14,1,1,0,0,0,26,26,104,1,1,response5disk_3,rectangle,,,,,,,,,,,,,,,,,,,
,,,,,,,,,,,,,,,,,,,,,,,,,,,,,,,,,,,,,,,,,,588ff21a2597a90001667ee4,606a0f629f8bb6be88bc7cae,2021-04-04_22h11.48.907,Colour_Similarity_Experiment,2020.2.10,Win32,60,60675255c767bca6388caeee,16.84805825,16.66033333,16.70493812,16.69274713,16.65613095,16.69274713,,,,,,,,,,,,,,,,,,,,PF,3,weak,,,,,,,,7,1.41671,,,,,,,,,,,,,,,,,,,,,,,,,,,,7,weak,62,108,1,0,0,response1disk,7,190,-2,15,1,0,0,rectangle,-2,15,1,0,0,3,0,0.0007,-2,15,1,0,0,0,27,27,51,1,0,,,,,,,,,,,,,,,,,,,,,
,,,,,,,,,,,,,,,,,,,,,,,,,,,,,,,,,,,,,,,,,,588ff21a2597a90001667ee4,606a0f629f8bb6be88bc7cae,2021-04-04_22h11.48.907,Colour_Similarity_Experiment,2020.2.10,Win32,60,60675255c767bca6388caeee,16.84805825,16.66033333,16.70493812,16.69274713,16.65613095,16.69274713,,,,,,,,,,,,,,,,,,,,PF,3,weak,,,,,,,,0,0.79999,,,,,,,,,,,,,,,,,,,,,,,,,,,,5,weak,-39,109,1,0,0,response7disk,7,191,-23,4,1,0,0,rectangle,-23,4,1,0,0,3,1,0.000595,-23,4,1,0,0,0,28,28,146,1,0,,,,,,,,,,,,,,,,,,,,,
,,,,,,,,,,,,,,,,,,,,,,,,,,,,,,,,,,,,,,,,,,588ff21a2597a90001667ee4,606a0f629f8bb6be88bc7cae,2021-04-04_22h11.48.907,Colour_Similarity_Experiment,2020.2.10,Win32,60,60675255c767bca6388caeee,16.84805825,16.66033333,16.70493812,16.69274713,16.65613095,16.69274713,,,,,,,,,,,,,,,,,,,,PF,3,strong,,,,,,,,7,1.01639,,,,,,,,,,,,,,,,,,,,,,,,,,,,3,strong,75,128,1,0,0,response1disk,4,192,1,5,1,0,0,rectangle,1,5,1,0,0,3,2,0.000565,1,5,1,0,0,0,29,29,110,1,0,,,,,,,,,,,,,,,,,,,,,
,,,,,,,,,,,,,,,,,,,,,,,,,,,,,,,,,,,,,,,,,,588ff21a2597a90001667ee4,606a0f629f8bb6be88bc7cae,2021-04-04_22h11.48.907,Colour_Similarity_Experiment,2020.2.10,Win32,60,60675255c767bca6388caeee,16.84805825,16.66033333,16.70493812,16.69274713,16.65613095,16.69274713,,,,,,,,,,,,,,,,,,,,PF,3,weak,,,,,,,,7,0.816695,,,,,,,,,,,,,,,,,,,,,,,,,,,,3,weak,58,113,1,0,0,response1disk,1,193,-4,19,1,0,0,rectangle,-4,19,1,0,0,3,2,7.5E-05,-4,19,1,0,0,0,30,30,96,1,0,,,,,,,,,,,,,,,,,,,,,
,,,,,,,,,,,,,,,,,,,,,,,,,,,,,,,,,,,,,,,,,,588ff21a2597a90001667ee4,606a0f629f8bb6be88bc7cae,2021-04-04_22h11.48.907,Colour_Similarity_Experiment,2020.2.10,Win32,60,60675255c767bca6388caeee,16.84805825,16.66033333,16.70493812,16.69274713,16.65613095,16.69274713,,,,,,,,,,,,,,,,,,,,PF,3,weak,,,,,,,,7,0.84994,,,,,,,,,,,,,,,,,,,,,,,,,,,,3,weak,37,119,1,0,0,response1disk,4,194,-2,15,1,0,0,rectangle,-2,15,1,0,0,3,6,0.000645,-2,15,1,0,0,0,31,31,30,1,0,,,,,,,,,,,,,,,,,,,,,
