key_resp.keys,key_resp.rt,key_resp_16.keys,key_resp_16.rt,key_resp_2.keys,key_resp_2.rt,X Scale,ratio_pxpermm,screen_size_x,screen_size_y,testsize,key_resp_3.keys,key_resp_3.rt,key_resp_4.keys,key_resp_4.rt,line_size,key_resp_5.keys,key_resp_5.rt,key_resp_6.keys,key_resp_6.rt,key_resp_8.keys,key_resp_8.rt,key_resp_7.keys,key_resp_7.rt,key_resp_12.keys,key_resp_12.rt,key_resp_11.keys,key_resp_11.rt,key_resp_18.keys,key_resp_18.rt,key_resp_21.keys,key_resp_21.rt,key_resp_13.keys,key_resp_13.rt,key_resp_19.keys,key_resp_19.rt,ballposx,viewer_distance,trials.thisRepN,trials.thisTrialN,trials.thisN,trials.thisIndex,trials.ran,participant,session,date,expName,psychopyVersion,OS,frameRate,study_id,realFrameRate1,realFrameRate2,realFrameRate3,realFrameRate4,realFrameRate5,realFrameRate,viewerdistancecm,DVA_to_distance,radius_F,radius_P,r_F,R_P,key_resp_20.keys,key_resp_20.rt,key_resp_14.keys,key_resp_14.rt,key_resp_15.keys,key_resp_15.rt,key_resp_17.keys,key_resp_17.rt,key_resp_9.keys,key_resp_9.rt,key_resp_10.keys,key_resp_10.rt,Colour_1,Ecc,mask_frames,maskCon,mouse_5.x,mouse_5.y,mouse_5.leftButton,mouse_5.midButton,mouse_5.rightButton,mouse_5.clicked_name,Colour_2,similarity,response_time,mouse_10.x,mouse_10.y,mouse_10.leftButton,mouse_10.midButton,mouse_10.rightButton,mouse_10.clicked_name,mouse_7.x,mouse_7.y,mouse_7.leftButton,mouse_7.midButton,mouse_7.rightButton,catchnumberprac,mouse_6.x,mouse_6.y,mouse_6.leftButton,mouse_6.midButton,mouse_6.rightButton,duringprac.thisRepN,duringprac.thisTrialN,duringprac.thisN,duringprac.thisIndex,duringprac.ran,mouse_7.clicked_name,catchprac,mouse_6.clicked_name,key_resp_22.keys,key_resp_22.rt,Colour1,maskCon1,mouse.x,mouse.y,mouse.leftButton,mouse.midButton,mouse.rightButton,mouse.clicked_name,Colour2,trialnumber,mouse_2.x,mouse_2.y,mouse_2.leftButton,mouse_2.midButton,mouse_2.rightButton,mouse_2.clicked_name,mouse_3.x,mouse_3.y,mouse_3.leftButton,mouse_3.midButton,mouse_3.rightButton,catchresponse,catchnumber,response_time_catch,mouse_11.x,mouse_11.y,mouse_11.leftButton,mouse_11.midButton,mouse_11.rightButton,trials_2.thisRepN,trials_2.thisTrialN,trials_2.thisN,trials_2.thisIndex,trials_2.ran,Catch,mouse_3.clicked_name,mouse_11.clicked_name,trials_3.thisRepN,trials_3.thisTrialN,trials_3.thisN,trials_3.thisIndex,trials_3.ran,answer1,rt1,answer2,rt2,answer3,rt3,answer4,rt4,answer5,rt5,answer6,rt6,answer7,rt7
space,2.21356,space,5.798095,space,6.387875,46.2,4.62,554.1125541,311.6883117,2560,space,4.03349,space,10.265665,92.4,space,9.217385,space,14.540255,space,2.633795,space,3.64973,space,11.867615,space,19.68316,space,5.859815,space,1.83437,space,10.384195,return,3.581305,130.56,805.5079671,0,0,0,0,1,5b4b679dff74970001256d36,606a0f9a7f6602c70cdb5971,2021-04-04_20h13.04.445,Colour_Similarity_Experiment,2020.2.10,Win32,60,60675255c767bca6388caeee,17.15491903,16.70967049,16.66633663,16.66528317,16.66775223,16.66775223,,,,,,,,,,,,,,,,,,,,,,,,,,,,,,,,,,,,,,,,,,,,,,,,,,,,,,,,,,,,,,,,,,,,,,,,,,,,,,,,,,,,,,,,,,,,,,,,,,,,,,,,,,,,,,,,,,
,,,,,,,,,,,,,,,,,,,,,,,,,,,,,,,,,,return,3.3837,176.64,763.9631435,1,0,1,0,1,5b4b679dff74970001256d36,606a0f9a7f6602c70cdb5971,2021-04-04_20h13.04.445,Colour_Similarity_Experiment,2020.2.10,Win32,60,60675255c767bca6388caeee,17.15491903,16.70967049,16.66633663,16.66528317,16.66775223,16.66775223,,,,,,,,,,,,,,,,,,,,,,,,,,,,,,,,,,,,,,,,,,,,,,,,,,,,,,,,,,,,,,,,,,,,,,,,,,,,,,,,,,,,,,,,,,,,,,,,,,,,,,,,,,,,,,,,,,
,,,,,,,,,,,,,,,,,,,,,,,,,,,,,,,,,,return,3.079935,245.76,701.6459083,2,0,2,0,1,5b4b679dff74970001256d36,606a0f9a7f6602c70cdb5971,2021-04-04_20h13.04.445,Colour_Similarity_Experiment,2020.2.10,Win32,60,60675255c767bca6388caeee,17.15491903,16.70967049,16.66633663,16.66528317,16.66775223,16.66775223,,,,,,,,,,,,,,,,,,,,,,,,,,,,,,,,,,,,,,,,,,,,,,,,,,,,,,,,,,,,,,,,,,,,,,,,,,,,,,,,,,,,,,,,,,,,,,,,,,,,,,,,,,,,,,,,,,
,,,,,,,,,,,,,,,,,,,,,,,,,,,,,,,,,,return,3.30046,195.84,746.6528004,3,0,3,0,1,5b4b679dff74970001256d36,606a0f9a7f6602c70cdb5971,2021-04-04_20h13.04.445,Colour_Similarity_Experiment,2020.2.10,Win32,60,60675255c767bca6388caeee,17.15491903,16.70967049,16.66633663,16.66528317,16.66775223,16.66775223,,,,,,,,,,,,,,,,,,,,,,,,,,,,,,,,,,,,,,,,,,,,,,,,,,,,,,,,,,,,,,,,,,,,,,,,,,,,,,,,,,,,,,,,,,,,,,,,,,,,,,,,,,,,,,,,,,
,,,,,,,,,,,,,,,,,,,,,,,,,,,,,,,,,,return,2.782595,314.88,639.328673,4,0,4,0,1,5b4b679dff74970001256d36,606a0f9a7f6602c70cdb5971,2021-04-04_20h13.04.445,Colour_Similarity_Experiment,2020.2.10,Win32,60,60675255c767bca6388caeee,17.15491903,16.70967049,16.66633663,16.66528317,16.66775223,16.66775223,,,,,,,,,,,,,,,,,,,,,,,,,,,,,,,,,,,,,,,,,,,,,,,,,,,,,,,,,,,,,,,,,,,,,,,,,,,,,,,,,,,,,,,,,,,,,,,,,,,,,,,,,,,,,,,,,,
,,,,,,,,,,,,,,,,,,,,,,,,,,,,,,,,,,,,,,,,,,,5b4b679dff74970001256d36,606a0f9a7f6602c70cdb5971,2021-04-04_20h13.04.445,Colour_Similarity_Experiment,2020.2.10,Win32,60,60675255c767bca6388caeee,17.15491903,16.70967049,16.66633663,16.66528317,16.66775223,16.66775223,75,13.09129401,90.72266752,604.8177835,60.48177835,272.1680026,space,4.52658,space,6.23275,space,5.83384,space,8.21728,space,1.499965,space,2.68852,2,PF,3,weak,-55.99996352,-32.00002241,1,0,0,response5disk_5,6,2,15.417125,4.000038266,-7.33335501,1,0,0,rectangle_8,4.000038266,-7.33335501,1,0,0,6,4.000038266,-7.33335501,1,0,0,0,0,0,6,1,,,,,,,,,,,,,,,,,,,,,,,,,,,,,,,,,,,,,,,,,,,,,,,,,,,,,,,,,,,,,
,,,,,,,,,,,,,,,,,,,,,,,,,,,,,,,,,,,,,,,,,,,5b4b679dff74970001256d36,606a0f9a7f6602c70cdb5971,2021-04-04_20h13.04.445,Colour_Similarity_Experiment,2020.2.10,Win32,60,60675255c767bca6388caeee,17.15491903,16.70967049,16.66633663,16.66528317,16.66775223,16.66775223,,,,,,,,,,,,,,,,,,,4,PF,3,weak,80.00004053,29.99997944,1,0,0,response1disk_5,4,6,5.717075,1.33337152,-11.33335513,1,0,0,rectangle_8,1.33337152,-11.33335513,1,0,0,6,1.33337152,-11.33335513,1,0,0,0,1,1,1,1,,,,,,,,,,,,,,,,,,,,,,,,,,,,,,,,,,,,,,,,,,,,,,,,,,,,,,,,,,,,,
,,,,,,,,,,,,,,,,,,,,,,,,,,,,,,,,,,,,,,,,,,,5b4b679dff74970001256d36,606a0f9a7f6602c70cdb5971,2021-04-04_20h13.04.445,Colour_Similarity_Experiment,2020.2.10,Win32,60,60675255c767bca6388caeee,17.15491903,16.70967049,16.66633663,16.66528317,16.66775223,16.66775223,,,,,,,,,,,,,,,,,,,7,PF,3,weak,106.666708,39.33331305,1,0,0,response1disk_5,8,6,2.21686,6.666786393,-4.666688263,1,0,0,rectangle_8,6.666786393,-4.666688263,1,0,0,6,6.666786393,-4.666688263,1,0,0,0,2,2,5,1,,,,,,,,,,,,,,,,,,,,,,,,,,,,,,,,,,,,,,,,,,,,,,,,,,,,,,,,,,,,,
,,,,,,,,,,,,,,,,,,,,,,,,,,,,,,,,,,,,,,,,,,,5b4b679dff74970001256d36,606a0f9a7f6602c70cdb5971,2021-04-04_20h13.04.445,Colour_Similarity_Experiment,2020.2.10,Win32,60,60675255c767bca6388caeee,17.15491903,16.70967049,16.66633663,16.66528317,16.66775223,16.66775223,,,,,,,,,,,,,,,,,,,8,PF,3,weak,52.66678776,35.33331293,1,0,0,response1disk_5,6,6,1.85026,-36.66662961,-17.33335531,1,0,0,rectangle_8,-36.66662961,-17.33335531,1,0,0,6,-36.66662961,-17.33335531,1,0,0,0,3,3,4,1,,,,,,,,,,,,,,,,,,,,,,,,,,,,,,,,,,,,,,,,,,,,,,,,,,,,,,,,,,,,,
,,,,,,,,,,,,,,,,,,,,,,,,,,,,,,,,,,,,,,,,,,,5b4b679dff74970001256d36,606a0f9a7f6602c70cdb5971,2021-04-04_20h13.04.445,Colour_Similarity_Experiment,2020.2.10,Win32,60,60675255c767bca6388caeee,17.15491903,16.70967049,16.66633663,16.66528317,16.66775223,16.66775223,,,,,,,,,,,,,,,,,,,3,PF,3,strong,112.0000415,39.99997973,1,0,0,response1disk_5,6,6,2.78352,-2.666628599,-7.33335501,1,0,0,rectangle_8,-2.666628599,-7.33335501,1,0,0,6,-2.666628599,-7.33335501,1,0,0,0,4,4,0,1,,,,,,,,,,,,,,,,,,,,,,,,,,,,,,,,,,,,,,,,,,,,,,,,,,,,,,,,,,,,,
,,,,,,,,,,,,,,,,,,,,,,,,,,,,,,,,,,,,,,,,,,,5b4b679dff74970001256d36,606a0f9a7f6602c70cdb5971,2021-04-04_20h13.04.445,Colour_Similarity_Experiment,2020.2.10,Win32,60,60675255c767bca6388caeee,17.15491903,16.70967049,16.66633663,16.66528317,16.66775223,16.66775223,,,,,,,,,,,,,,,,,,,8,PF,3,strong,126.0000419,46.66660591,1,0,0,response1disk_5,7,6,1.083405,-22.6666292,-10.66668844,1,0,0,rectangle_8,114.6667082,47.33331329,1,0,0,6,-13.99996227,-16.66668862,1,0,0,0,5,5,2,1,response1disk_7,6,rectangle_4,,,,,,,,,,,,,,,,,,,,,,,,,,,,,,,,,,,,,,,,,,,,,,,,,,,,,,,,,,
,,,,,,,,,,,,,,,,,,,,,,,,,,,,,,,,,,,,,,,,,,,5b4b679dff74970001256d36,606a0f9a7f6602c70cdb5971,2021-04-04_20h13.04.445,Colour_Similarity_Experiment,2020.2.10,Win32,60,60675255c767bca6388caeee,17.15491903,16.70967049,16.66633663,16.66528317,16.66775223,16.66775223,,,,,,,,,,,,,,,,,,,3,PF,3,strong,93.33337426,-32.6666891,1,0,0,response3disk_5,3,5,2.831945,6.666786393,8.666645467,1,0,0,rectangle_8,6.666786393,8.666645467,1,0,0,6,6.666786393,8.666645467,1,0,0,0,6,6,3,1,,,,,,,,,,,,,,,,,,,,,,,,,,,,,,,,,,,,,,,,,,,,,,,,,,,,,,,,,,,,,
,,,,,,,,,,,,,,,,,,,,,,,,,,,,,,,,,,,,,,,,,,,5b4b679dff74970001256d36,606a0f9a7f6602c70cdb5971,2021-04-04_20h13.04.445,Colour_Similarity_Experiment,2020.2.10,Win32,60,60675255c767bca6388caeee,17.15491903,16.70967049,16.66633663,16.66528317,16.66775223,16.66775223,,,,,,,,,,,,,,,,,,,,PF,3,weak,,,,,,,,4,2.199735,,,,,,,,,,,,,,,,,,,,,,,,,,space,4.077875,1,weak,41.33337271,-74.00002366,1,0,0,response3disk,7,1,-14.66662896,-2.666688204,1,0,0,rectangle,-14.66662896,-2.666688204,1,0,0,,5,0.000735,-14.66662896,-2.666688204,1,0,0,0,0,0,150,1,0,,,,,,,,,,,,,,,,,,,,,
,,,,,,,,,,,,,,,,,,,,,,,,,,,,,,,,,,,,,,,,,,,5b4b679dff74970001256d36,606a0f9a7f6602c70cdb5971,2021-04-04_20h13.04.445,Colour_Similarity_Experiment,2020.2.10,Win32,60,60675255c767bca6388caeee,17.15491903,16.70967049,16.66633663,16.66528317,16.66775223,16.66775223,,,,,,,,,,,,,,,,,,,,PF,3,strong,,,,,,,,4,1.166775,,,,,,,,,,,,,,,,,,,,,,,,,,,,4,strong,52.66678776,-100.0000244,1,0,0,response3disk,3,2,-0.66662854,1.999978602,1,0,0,rectangle,-0.66662854,1.999978602,1,0,0,,5,0.00011,-0.66662854,1.999978602,1,0,0,0,1,1,77,1,0,,,,,,,,,,,,,,,,,,,,,
,,,,,,,,,,,,,,,,,,,,,,,,,,,,,,,,,,,,,,,,,,,5b4b679dff74970001256d36,606a0f9a7f6602c70cdb5971,2021-04-04_20h13.04.445,Colour_Similarity_Experiment,2020.2.10,Win32,60,60675255c767bca6388caeee,17.15491903,16.70967049,16.66633663,16.66528317,16.66775223,16.66775223,,,,,,,,,,,,,,,,,,,,PF,3,weak,,,,,,,,5,1.116715,,,,,,,,,,,,,,,,,,,,,,,,,,,,6,weak,59.33337325,-48.66668957,1,0,0,response3disk,9,3,-11.99996221,-12.6666885,1,0,0,rectangle,-11.99996221,-12.6666885,1,0,0,,7,0.000425,-11.99996221,-12.6666885,1,0,0,0,2,2,45,1,0,,,,,,,,,,,,,,,,,,,,,
,,,,,,,,,,,,,,,,,,,,,,,,,,,,,,,,,,,,,,,,,,,5b4b679dff74970001256d36,606a0f9a7f6602c70cdb5971,2021-04-04_20h13.04.445,Colour_Similarity_Experiment,2020.2.10,Win32,60,60675255c767bca6388caeee,17.15491903,16.70967049,16.66633663,16.66528317,16.66775223,16.66775223,,,,,,,,,,,,,,,,,,,,PF,3,weak,,,,,,,,6,1.083435,,,,,,,,,,,,,,,,,,,,,,,,,,,,4,weak,126.0000419,40.66660573,1,0,0,response1disk,4,4,-17.99996239,5.999978721,1,0,0,rectangle,-17.99996239,5.999978721,1,0,0,,4,0.00042,-17.99996239,5.999978721,1,0,0,0,3,3,70,1,0,,,,,,,,,,,,,,,,,,,,,
,,,,,,,,,,,,,,,,,,,,,,,,,,,,,,,,,,,,,,,,,,,5b4b679dff74970001256d36,606a0f9a7f6602c70cdb5971,2021-04-04_20h13.04.445,Colour_Similarity_Experiment,2020.2.10,Win32,60,60675255c767bca6388caeee,17.15491903,16.70967049,16.66633663,16.66528317,16.66775223,16.66775223,,,,,,,,,,,,,,,,,,,,PF,3,strong,,,,,,,,5,2.203025,,,,,,,,,,,,,,,,,,,,,,,,,,,,4,strong,95.33337432,-36.66668922,1,0,0,response3disk,6,5,13.33337188,-2.000021517,1,0,0,rectangle,13.33337188,-2.000021517,1,0,0,,5,0.00046,13.33337188,-2.000021517,1,0,0,0,4,4,122,1,0,,,,,,,,,,,,,,,,,,,,,
,,,,,,,,,,,,,,,,,,,,,,,,,,,,,,,,,,,,,,,,,,,5b4b679dff74970001256d36,606a0f9a7f6602c70cdb5971,2021-04-04_20h13.04.445,Colour_Similarity_Experiment,2020.2.10,Win32,60,60675255c767bca6388caeee,17.15491903,16.70967049,16.66633663,16.66528317,16.66775223,16.66775223,,,,,,,,,,,,,,,,,,,,PF,3,strong,,,,,,,,5,0.95006,,,,,,,,,,,,,,,,,,,,,,,,,,,,6,strong,88.00004077,-39.33335596,1,0,0,response3disk,7,6,-4.666628659,-2.000021517,1,0,0,rectangle,-4.666628659,-2.000021517,1,0,0,,5,0.00007,-4.666628659,-2.000021517,1,0,0,0,5,5,18,1,0,,,,,,,,,,,,,,,,,,,,,
,,,,,,,,,,,,,,,,,,,,,,,,,,,,,,,,,,,,,,,,,,,5b4b679dff74970001256d36,606a0f9a7f6602c70cdb5971,2021-04-04_20h13.04.445,Colour_Similarity_Experiment,2020.2.10,Win32,60,60675255c767bca6388caeee,17.15491903,16.70967049,16.66633663,16.66528317,16.66775223,16.66775223,,,,,,,,,,,,,,,,,,,,PF,3,weak,,,,,,,,5,0.716695,,,,,,,,,,,,,,,,,,,,,,,,,,,,6,weak,123.3333752,-64.00002337,1,0,0,response3disk,7,7,8.666786452,3.333311975,1,0,0,rectangle,8.666786452,3.333311975,1,0,0,,4,0.00045,8.666786452,3.333311975,1,0,0,0,6,6,50,1,0,,,,,,,,,,,,,,,,,,,,,
,,,,,,,,,,,,,,,,,,,,,,,,,,,,,,,,,,,,,,,,,,,5b4b679dff74970001256d36,606a0f9a7f6602c70cdb5971,2021-04-04_20h13.04.445,Colour_Similarity_Experiment,2020.2.10,Win32,60,60675255c767bca6388caeee,17.15491903,16.70967049,16.66633663,16.66528317,16.66775223,16.66775223,,,,,,,,,,,,,,,,,,,,PF,3,weak,,,,,,,,5,0.833405,,,,,,,,,,,,,,,,,,,,,,,,,,,,7,weak,87.33337408,-60.66668993,1,0,0,response3disk,8,8,12.66678657,-16.66668862,1,0,0,rectangle,12.66678657,-16.66668862,1,0,0,,1,0.00043,12.66678657,-16.66668862,1,0,0,0,7,7,140,1,0,,,,,,,,,,,,,,,,,,,,,
,,,,,,,,,,,,,,,,,,,,,,,,,,,,,,,,,,,,,,,,,,,5b4b679dff74970001256d36,606a0f9a7f6602c70cdb5971,2021-04-04_20h13.04.445,Colour_Similarity_Experiment,2020.2.10,Win32,60,60675255c767bca6388caeee,17.15491903,16.70967049,16.66633663,16.66528317,16.66775223,16.66775223,,,,,,,,,,,,,,,,,,,,PF,3,weak,,,,,,,,5,0.633345,,,,,,,,,,,,,,,,,,,,,,,,,,,,1,weak,69.33337355,-48.00002289,1,0,0,response3disk,4,9,6.666786393,-8.666688383,1,0,0,rectangle,6.666786393,-8.666688383,1,0,0,,1,6.5E-05,6.666786393,-8.666688383,1,0,0,0,8,8,139,1,0,,,,,,,,,,,,,,,,,,,,,
,,,,,,,,,,,,,,,,,,,,,,,,,,,,,,,,,,,,,,,,,,,5b4b679dff74970001256d36,606a0f9a7f6602c70cdb5971,2021-04-04_20h13.04.445,Colour_Similarity_Experiment,2020.2.10,Win32,60,60675255c767bca6388caeee,17.15491903,16.70967049,16.66633663,16.66528317,16.66775223,16.66775223,,,,,,,,,,,,,,,,,,,,PF,3,weak,,,,,,,,5,1.216755,,,,,,,,,,,,,,,,,,,,,,,,,,,,4,weak,86.00004071,-33.33335578,1,0,0,response3disk,2,10,-6.666628718,4.666645348,1,0,0,rectangle,-6.666628718,4.666645348,1,0,0,,1,0.000075,-6.666628718,4.666645348,1,0,0,0,9,9,108,1,0,,,,,,,,,,,,,,,,,,,,,
,,,,,,,,,,,,,,,,,,,,,,,,,,,,,,,,,,,,,,,,,,,5b4b679dff74970001256d36,606a0f9a7f6602c70cdb5971,2021-04-04_20h13.04.445,Colour_Similarity_Experiment,2020.2.10,Win32,60,60675255c767bca6388caeee,17.15491903,16.70967049,16.66633663,16.66528317,16.66775223,16.66775223,,,,,,,,,,,,,,,,,,,,PF,3,strong,,,,,,,,5,0.716675,,,,,,,,,,,,,,,,,,,,,,,,,,,,7,strong,88.66670746,-46.66668952,1,0,0,response3disk,5,11,3.33337158,-9.333355069,1,0,0,rectangle,3.33337158,-9.333355069,1,0,0,,3,0.000445,3.33337158,-9.333355069,1,0,0,0,10,10,156,1,0,,,,,,,,,,,,,,,,,,,,,
,,,,,,,,,,,,,,,,,,,,,,,,,,,,,,,,,,,,,,,,,,,5b4b679dff74970001256d36,606a0f9a7f6602c70cdb5971,2021-04-04_20h13.04.445,Colour_Similarity_Experiment,2020.2.10,Win32,60,60675255c767bca6388caeee,17.15491903,16.70967049,16.66633663,16.66528317,16.66775223,16.66775223,,,,,,,,,,,,,,,,,,,,PF,3,strong,,,,,,,,5,0.750055,,,,,,,,,,,,,,,,,,,,,,,,,,,,8,strong,74.00004035,-60.66668993,1,0,0,response3disk,6,12,3.33337158,-24.66668886,1,0,0,rectangle,3.33337158,-24.66668886,1,0,0,,6,0.000395,3.33337158,-24.66668886,1,0,0,0,11,11,37,1,0,,,,,,,,,,,,,,,,,,,,,
,,,,,,,,,,,,,,,,,,,,,,,,,,,,,,,,,,,,,,,,,,,5b4b679dff74970001256d36,606a0f9a7f6602c70cdb5971,2021-04-04_20h13.04.445,Colour_Similarity_Experiment,2020.2.10,Win32,60,60675255c767bca6388caeee,17.15491903,16.70967049,16.66633663,16.66528317,16.66775223,16.66775223,,,,,,,,,,,,,,,,,,,,PF,3,weak,,,,,,,,5,0.48332,,,,,,,,,,,,,,,,,,,,,,,,,,,,8,weak,106.0000413,-18.66668868,1,0,0,response3disk,8,13,-3.333213905,9.333312154,1,0,0,rectangle,-3.333213905,9.333312154,1,0,0,,7,0.00049,-3.333213905,9.333312154,1,0,0,0,12,12,153,1,0,,,,,,,,,,,,,,,,,,,,,
,,,,,,,,,,,,,,,,,,,,,,,,,,,,,,,,,,,,,,,,,,,5b4b679dff74970001256d36,606a0f9a7f6602c70cdb5971,2021-04-04_20h13.04.445,Colour_Similarity_Experiment,2020.2.10,Win32,60,60675255c767bca6388caeee,17.15491903,16.70967049,16.66633663,16.66528317,16.66775223,16.66775223,,,,,,,,,,,,,,,,,,,,PF,3,strong,,,,,,,,5,0.63342,,,,,,,,,,,,,,,,,,,,,,,,,,,,7,strong,88.00004077,-50.66668963,1,0,0,response3disk,1,14,4.666786333,-3.33335489,1,0,0,rectangle,4.666786333,-3.33335489,1,0,0,,1,0.000465,4.666786333,-3.33335489,1,0,0,0,13,13,132,1,0,,,,,,,,,,,,,,,,,,,,,
,,,,,,,,,,,,,,,,,,,,,,,,,,,,,,,,,,,,,,,,,,,5b4b679dff74970001256d36,606a0f9a7f6602c70cdb5971,2021-04-04_20h13.04.445,Colour_Similarity_Experiment,2020.2.10,Win32,60,60675255c767bca6388caeee,17.15491903,16.70967049,16.66633663,16.66528317,16.66775223,16.66775223,,,,,,,,,,,,,,,,,,,,PF,3,strong,,,,,,,,5,0.633375,,,,,,,,,,,,,,,,,,,,,,,,,,,,1,strong,69.33337355,-31.33335572,1,0,0,response3disk,9,15,-3.333213905,4.666645348,1,0,0,rectangle,-3.333213905,4.666645348,1,0,0,,7,0.0004,-3.333213905,4.666645348,1,0,0,0,14,14,123,1,0,,,,,,,,,,,,,,,,,,,,,
,,,,,,,,,,,,,,,,,,,,,,,,,,,,,,,,,,,,,,,,,,,5b4b679dff74970001256d36,606a0f9a7f6602c70cdb5971,2021-04-04_20h13.04.445,Colour_Similarity_Experiment,2020.2.10,Win32,60,60675255c767bca6388caeee,17.15491903,16.70967049,16.66633663,16.66528317,16.66775223,16.66775223,,,,,,,,,,,,,,,,,,,,PF,3,weak,,,,,,,,6,1.066125,,,,,,,,,,,,,,,,,,,,,,,,,,,,5,weak,94.00004095,22.66664588,1,0,0,response1disk,2,16,-8.666628778,-2.000021517,1,0,0,rectangle,-8.666628778,-2.000021517,1,0,0,,5,0.00039,-8.666628778,-2.000021517,1,0,0,0,15,15,129,1,0,,,,,,,,,,,,,,,,,,,,,
,,,,,,,,,,,,,,,,,,,,,,,,,,,,,,,,,,,,,,,,,,,5b4b679dff74970001256d36,606a0f9a7f6602c70cdb5971,2021-04-04_20h13.04.445,Colour_Similarity_Experiment,2020.2.10,Win32,60,60675255c767bca6388caeee,17.15491903,16.70967049,16.66633663,16.66528317,16.66775223,16.66775223,,,,,,,,,,,,,,,,,,,,PF,3,weak,,,,,,,,6,0.583345,,,,,,,,,,,,,,,,,,,,,,,,,,,,6,weak,108.0000414,26.666646,1,0,0,response1disk,3,17,0.666786214,-10.66668844,1,0,0,rectangle,0.666786214,-10.66668844,1,0,0,,4,0.0004,0.666786214,-10.66668844,1,0,0,0,16,16,26,1,0,,,,,,,,,,,,,,,,,,,,,
,,,,,,,,,,,,,,,,,,,,,,,,,,,,,,,,,,,,,,,,,,,5b4b679dff74970001256d36,606a0f9a7f6602c70cdb5971,2021-04-04_20h13.04.445,Colour_Similarity_Experiment,2020.2.10,Win32,60,60675255c767bca6388caeee,17.15491903,16.70967049,16.66633663,16.66528317,16.66775223,16.66775223,,,,,,,,,,,,,,,,,,,,PF,3,weak,,,,,,,,5,1.283345,,,,,,,,,,,,,,,,,,,,,,,,,,,,6,weak,68.00004017,-27.33335561,1,0,0,response3disk,1,18,8.000038385,2.666645288,1,0,0,rectangle,8.000038385,2.666645288,1,0,0,,3,0.000415,8.000038385,2.666645288,1,0,0,0,17,17,46,1,0,,,,,,,,,,,,,,,,,,,,,
,,,,,,,,,,,,,,,,,,,,,,,,,,,,,,,,,,,,,,,,,,,5b4b679dff74970001256d36,606a0f9a7f6602c70cdb5971,2021-04-04_20h13.04.445,Colour_Similarity_Experiment,2020.2.10,Win32,60,60675255c767bca6388caeee,17.15491903,16.70967049,16.66633663,16.66528317,16.66775223,16.66775223,,,,,,,,,,,,,,,,,,,,PF,3,strong,,,,,,,,5,0.683155,,,,,,,,,,,,,,,,,,,,,,,,,,,,2,strong,74.00004035,-39.33335596,1,0,0,response3disk,9,19,-17.99996239,-12.6666885,1,0,0,rectangle,-17.99996239,-12.6666885,1,0,0,,3,0.000065,-17.99996239,-12.6666885,1,0,0,0,18,18,72,1,0,,,,,,,,,,,,,,,,,,,,,
,,,,,,,,,,,,,,,,,,,,,,,,,,,,,,,,,,,,,,,,,,,5b4b679dff74970001256d36,606a0f9a7f6602c70cdb5971,2021-04-04_20h13.04.445,Colour_Similarity_Experiment,2020.2.10,Win32,60,60675255c767bca6388caeee,17.15491903,16.70967049,16.66633663,16.66528317,16.66775223,16.66775223,,,,,,,,,,,,,,,,,,,,PF,3,weak,,,,,,,,5,0.450025,,,,,,,,,,,,,,,,,,,,,,,,,,,,9,weak,84.00004065,-41.33335602,1,0,0,response3disk,2,20,-13.3332142,2.666645288,1,0,0,rectangle,-13.3332142,2.666645288,1,0,0,,3,0.000065,-13.3332142,2.666645288,1,0,0,0,19,19,157,1,0,,,,,,,,,,,,,,,,,,,,,
,,,,,,,,,,,,,,,,,,,,,,,,,,,,,,,,,,,,,,,,,,,5b4b679dff74970001256d36,606a0f9a7f6602c70cdb5971,2021-04-04_20h13.04.445,Colour_Similarity_Experiment,2020.2.10,Win32,60,60675255c767bca6388caeee,17.15491903,16.70967049,16.66633663,16.66528317,16.66775223,16.66775223,,,,,,,,,,,,,,,,,,,,PF,3,strong,,,,,,,,5,0.933585,,,,,,,,,,,,,,,,,,,,,,,,,,,,4,strong,51.33337301,-35.33335584,1,0,0,response3disk,2,21,-8.666628778,-12.00002182,1,0,0,rectangle,-8.666628778,-12.00002182,1,0,0,,4,0.00043,-8.666628778,-12.00002182,1,0,0,0,20,20,13,1,0,,,,,,,,,,,,,,,,,,,,,
,,,,,,,,,,,,,,,,,,,,,,,,,,,,,,,,,,,,,,,,,,,5b4b679dff74970001256d36,606a0f9a7f6602c70cdb5971,2021-04-04_20h13.04.445,Colour_Similarity_Experiment,2020.2.10,Win32,60,60675255c767bca6388caeee,17.15491903,16.70967049,16.66633663,16.66528317,16.66775223,16.66775223,,,,,,,,,,,,,,,,,,,,PF,3,strong,,,,,,,,5,0.71672,,,,,,,,,,,,,,,,,,,,,,,,,,,,7,strong,114.0000415,-55.33335644,1,0,0,response3disk,9,22,-20.66662914,-14.66668856,1,0,0,rectangle,-20.66662914,-14.66668856,1,0,0,,7,0.000405,-20.66662914,-14.66668856,1,0,0,0,21,21,155,1,0,,,,,,,,,,,,,,,,,,,,,
,,,,,,,,,,,,,,,,,,,,,,,,,,,,,,,,,,,,,,,,,,,5b4b679dff74970001256d36,606a0f9a7f6602c70cdb5971,2021-04-04_20h13.04.445,Colour_Similarity_Experiment,2020.2.10,Win32,60,60675255c767bca6388caeee,17.15491903,16.70967049,16.66633663,16.66528317,16.66775223,16.66775223,,,,,,,,,,,,,,,,,,,,PF,3,weak,,,,,,,,5,0.400065,,,,,,,,,,,,,,,,,,,,,,,,,,,,8,weak,106.0000413,-41.33335602,1,0,0,response3disk,6,23,1.33337152,-12.00002182,1,0,0,rectangle,70.00004023,48.66660597,1,0,0,6,6,4.200195,20.66678681,-3.33335489,1,0,0,0,22,22,161,1,1,response1disk_3,rectangle,,,,,,,,,,,,,,,,,,,
,,,,,,,,,,,,,,,,,,,,,,,,,,,,,,,,,,,,,,,,,,,5b4b679dff74970001256d36,606a0f9a7f6602c70cdb5971,2021-04-04_20h13.04.445,Colour_Similarity_Experiment,2020.2.10,Win32,60,60675255c767bca6388caeee,17.15491903,16.70967049,16.66633663,16.66528317,16.66775223,16.66775223,,,,,,,,,,,,,,,,,,,,PF,3,strong,,,,,,,,4,2.050125,,,,,,,,,,,,,,,,,,,,,,,,,,,,7,strong,54.66678782,-102.0000245,1,0,0,response3disk,8,24,4.666786333,-10.00002176,1,0,0,rectangle,52.66678776,111.3333152,1,0,0,7,7,3.566825,21.33337212,19.99997914,1,0,0,0,23,23,97,1,1,response1disk_3,rectangle,,,,,,,,,,,,,,,,,,,
,,,,,,,,,,,,,,,,,,,,,,,,,,,,,,,,,,,,,,,,,,,5b4b679dff74970001256d36,606a0f9a7f6602c70cdb5971,2021-04-04_20h13.04.445,Colour_Similarity_Experiment,2020.2.10,Win32,60,60675255c767bca6388caeee,17.15491903,16.70967049,16.66633663,16.66528317,16.66775223,16.66775223,,,,,,,,,,,,,,,,,,,,PF,3,weak,,,,,,,,4,1.58346,,,,,,,,,,,,,,,,,,,,,,,,,,,,2,weak,42.66678747,-86.00002402,1,0,0,response3disk,5,25,-5.999962032,-4.000021577,1,0,0,rectangle,-5.999962032,-4.000021577,1,0,0,7,3,0.000405,-5.999962032,-4.000021577,1,0,0,0,24,24,147,1,0,,,,,,,,,,,,,,,,,,,,,
,,,,,,,,,,,,,,,,,,,,,,,,,,,,,,,,,,,,,,,,,,,5b4b679dff74970001256d36,606a0f9a7f6602c70cdb5971,2021-04-04_20h13.04.445,Colour_Similarity_Experiment,2020.2.10,Win32,60,60675255c767bca6388caeee,17.15491903,16.70967049,16.66633663,16.66528317,16.66775223,16.66775223,,,,,,,,,,,,,,,,,,,,PF,3,weak,,,,,,,,4,0.93337,,,,,,,,,,,,,,,,,,,,,,,,,,,,4,weak,65.33337343,-94.66669095,1,0,0,response3disk,1,26,4.000038266,-6.666688323,1,0,0,rectangle,4.000038266,-6.666688323,1,0,0,7,7,0.00044,4.000038266,-6.666688323,1,0,0,0,25,25,115,1,0,,,,,,,,,,,,,,,,,,,,,
,,,,,,,,,,,,,,,,,,,,,,,,,,,,,,,,,,,,,,,,,,,5b4b679dff74970001256d36,606a0f9a7f6602c70cdb5971,2021-04-04_20h13.04.445,Colour_Similarity_Experiment,2020.2.10,Win32,60,60675255c767bca6388caeee,17.15491903,16.70967049,16.66633663,16.66528317,16.66775223,16.66775223,,,,,,,,,,,,,,,,,,,,PF,3,strong,,,,,,,,6,0.816735,,,,,,,,,,,,,,,,,,,,,,,,,,,,9,strong,104.0000412,55.33331352,1,0,0,response1disk,4,27,-8.666628778,-22.6666888,1,0,0,rectangle,-8.666628778,-22.6666888,1,0,0,7,7,0.000065,-8.666628778,-22.6666888,1,0,0,0,26,26,60,1,0,,,,,,,,,,,,,,,,,,,,,
,,,,,,,,,,,,,,,,,,,,,,,,,,,,,,,,,,,,,,,,,,,5b4b679dff74970001256d36,606a0f9a7f6602c70cdb5971,2021-04-04_20h13.04.445,Colour_Similarity_Experiment,2020.2.10,Win32,60,60675255c767bca6388caeee,17.15491903,16.70967049,16.66633663,16.66528317,16.66775223,16.66775223,,,,,,,,,,,,,,,,,,,,PF,3,strong,,,,,,,,6,0.96672,,,,,,,,,,,,,,,,,,,,,,,,,,,,6,strong,63.33337337,30.66664612,1,0,0,response1disk,6,28,12.0000385,-5.33335495,1,0,0,rectangle,12.0000385,-5.33335495,1,0,0,7,4,0.0004,12.0000385,-5.33335495,1,0,0,0,27,27,91,1,0,,,,,,,,,,,,,,,,,,,,,
,,,,,,,,,,,,,,,,,,,,,,,,,,,,,,,,,,,,,,,,,,,5b4b679dff74970001256d36,606a0f9a7f6602c70cdb5971,2021-04-04_20h13.04.445,Colour_Similarity_Experiment,2020.2.10,Win32,60,60675255c767bca6388caeee,17.15491903,16.70967049,16.66633663,16.66528317,16.66775223,16.66775223,,,,,,,,,,,,,,,,,,,,PF,3,strong,,,,,,,,3,1.78348,,,,,,,,,,,,,,,,,,,,,,,,,,,,3,strong,-25.33321456,-85.33335733,1,0,0,response5disk,3,29,30.66678711,1.333311915,1,0,0,rectangle,30.66678711,1.333311915,1,0,0,7,3,0.000445,30.66678711,1.333311915,1,0,0,0,28,28,68,1,0,,,,,,,,,,,,,,,,,,,,,
,,,,,,,,,,,,,,,,,,,,,,,,,,,,,,,,,,,,,,,,,,,5b4b679dff74970001256d36,606a0f9a7f6602c70cdb5971,2021-04-04_20h13.04.445,Colour_Similarity_Experiment,2020.2.10,Win32,60,60675255c767bca6388caeee,17.15491903,16.70967049,16.66633663,16.66528317,16.66775223,16.66775223,,,,,,,,,,,,,,,,,,,,PF,3,strong,,,,,,,,3,0.81668,,,,,,,,,,,,,,,,,,,,,,,,,,,,8,strong,-87.33321641,-108.0000247,1,0,0,response5disk,8,30,24.00003886,-18.00002199,1,0,0,rectangle,24.00003886,-18.00002199,1,0,0,5,3,6E-05,24.00003886,-18.00002199,1,0,0,0,29,29,48,1,0,,,,,,,,,,,,,,,,,,,,,
,,,,,,,,,,,,,,,,,,,,,,,,,,,,,,,,,,,,,,,,,,,5b4b679dff74970001256d36,606a0f9a7f6602c70cdb5971,2021-04-04_20h13.04.445,Colour_Similarity_Experiment,2020.2.10,Win32,60,60675255c767bca6388caeee,17.15491903,16.70967049,16.66633663,16.66528317,16.66775223,16.66775223,,,,,,,,,,,,,,,,,,,,PF,3,strong,,,,,,,,4,1.43344,,,,,,,,,,,,,,,,,,,,,,,,,,,,5,strong,34.66678723,-101.3333578,1,0,0,response3disk,6,31,-4.666628659,3.333311975,1,0,0,rectangle,-4.666628659,3.333311975,1,0,0,5,4,0.00043,-4.666628659,3.333311975,1,0,0,0,30,30,12,1,0,,,,,,,,,,,,,,,,,,,,,
,,,,,,,,,,,,,,,,,,,,,,,,,,,,,,,,,,,,,,,,,,,5b4b679dff74970001256d36,606a0f9a7f6602c70cdb5971,2021-04-04_20h13.04.445,Colour_Similarity_Experiment,2020.2.10,Win32,60,60675255c767bca6388caeee,17.15491903,16.70967049,16.66633663,16.66528317,16.66775223,16.66775223,,,,,,,,,,,,,,,,,,,,PF,3,weak,,,,,,,,3,2.3669,,,,,,,,,,,,,,,,,,,,,,,,,,,,4,weak,-31.99996281,-58.00002319,1,0,0,response5disk,6,32,11.33337182,0.666645229,1,0,0,rectangle,11.33337182,0.666645229,1,0,0,5,0,0.000415,11.33337182,0.666645229,1,0,0,0,31,31,120,1,0,,,,,,,,,,,,,,,,,,,,,
,,,,,,,,,,,,,,,,,,,,,,,,,,,,,,,,,,,,,,,,,,,5b4b679dff74970001256d36,606a0f9a7f6602c70cdb5971,2021-04-04_20h13.04.445,Colour_Similarity_Experiment,2020.2.10,Win32,60,60675255c767bca6388caeee,17.15491903,16.70967049,16.66633663,16.66528317,16.66775223,16.66775223,,,,,,,,,,,,,,,,,,,,PF,3,strong,,,,,,,,5,2.683575,,,,,,,,,,,,,,,,,,,,,,,,,,,,7,strong,76.66678848,-52.66668969,1,0,0,response3disk,6,33,-11.99996221,-8.000021696,1,0,0,rectangle,-11.99996221,-8.000021696,1,0,0,5,5,0.000445,-11.99996221,-8.000021696,1,0,0,0,32,32,31,1,0,,,,,,,,,,,,,,,,,,,,,
,,,,,,,,,,,,,,,,,,,,,,,,,,,,,,,,,,,,,,,,,,,5b4b679dff74970001256d36,606a0f9a7f6602c70cdb5971,2021-04-04_20h13.04.445,Colour_Similarity_Experiment,2020.2.10,Win32,60,60675255c767bca6388caeee,17.15491903,16.70967049,16.66633663,16.66528317,16.66775223,16.66775223,,,,,,,,,,,,,,,,,,,,PF,3,weak,,,,,,,,4,1.400085,,,,,,,,,,,,,,,,,,,,,,,,,,,,1,weak,35.33337253,-93.33335757,1,0,0,response3disk,1,34,8.000038385,-9.333355069,1,0,0,rectangle,60.666788,-106.0000246,1,0,0,4,0,0.43323,2.666786273,-8.666688383,1,0,0,0,33,33,76,1,1,response3disk_3,rectangle,,,,,,,,,,,,,,,,,,,
,,,,,,,,,,,,,,,,,,,,,,,,,,,,,,,,,,,,,,,,,,,5b4b679dff74970001256d36,606a0f9a7f6602c70cdb5971,2021-04-04_20h13.04.445,Colour_Similarity_Experiment,2020.2.10,Win32,60,60675255c767bca6388caeee,17.15491903,16.70967049,16.66633663,16.66528317,16.66775223,16.66775223,,,,,,,,,,,,,,,,,,,,PF,3,weak,,,,,,,,6,1.63332,,,,,,,,,,,,,,,,,,,,,,,,,,,,6,weak,80.6667886,53.33331347,1,0,0,response1disk,4,35,-5.333213965,-4.000021577,1,0,0,rectangle,-5.333213965,-4.000021577,1,0,0,4,0,0.00007,-5.333213965,-4.000021577,1,0,0,0,34,34,33,1,0,,,,,,,,,,,,,,,,,,,,,
,,,,,,,,,,,,,,,,,,,,,,,,,,,,,,,,,,,,,,,,,,,5b4b679dff74970001256d36,606a0f9a7f6602c70cdb5971,2021-04-04_20h13.04.445,Colour_Similarity_Experiment,2020.2.10,Win32,60,60675255c767bca6388caeee,17.15491903,16.70967049,16.66633663,16.66528317,16.66775223,16.66775223,,,,,,,,,,,,,,,,,,,,PF,3,weak,,,,,,,,4,0.650035,,,,,,,,,,,,,,,,,,,,,,,,,,,,3,weak,33.33337247,-64.66669005,1,0,0,response3disk,2,36,0.666786214,-3.33335489,1,0,0,rectangle,31.33337241,97.99998146,1,0,0,7,7,1.616745,10.00003844,-28.00002229,1,0,0,0,35,35,36,1,1,response1disk_3,rectangle,,,,,,,,,,,,,,,,,,,
,,,,,,,,,,,,,,,,,,,,,,,,,,,,,,,,,,,,,,,,,,,5b4b679dff74970001256d36,606a0f9a7f6602c70cdb5971,2021-04-04_20h13.04.445,Colour_Similarity_Experiment,2020.2.10,Win32,60,60675255c767bca6388caeee,17.15491903,16.70967049,16.66633663,16.66528317,16.66775223,16.66775223,,,,,,,,,,,,,,,,,,,,PF,3,strong,,,,,,,,4,1.43326,,,,,,,,,,,,,,,,,,,,,,,,,,,,2,strong,44.66678753,-85.33335733,1,0,0,response3disk,4,37,8.000038385,-4.000021577,1,0,0,rectangle,8.000038385,-4.000021577,1,0,0,7,2,0.00046,8.000038385,-4.000021577,1,0,0,0,36,36,145,1,0,,,,,,,,,,,,,,,,,,,,,
,,,,,,,,,,,,,,,,,,,,,,,,,,,,,,,,,,,,,,,,,,,5b4b679dff74970001256d36,606a0f9a7f6602c70cdb5971,2021-04-04_20h13.04.445,Colour_Similarity_Experiment,2020.2.10,Win32,60,60675255c767bca6388caeee,17.15491903,16.70967049,16.66633663,16.66528317,16.66775223,16.66775223,,,,,,,,,,,,,,,,,,,,PF,3,weak,,,,,,,,5,1.083425,,,,,,,,,,,,,,,,,,,,,,,,,,,,8,weak,92.00004089,-42.6666894,1,0,0,response3disk,5,38,-8.666628778,-1.333354831,1,0,0,rectangle,-8.666628778,-1.333354831,1,0,0,7,6,0.00042,-8.666628778,-1.333354831,1,0,0,0,37,37,98,1,0,,,,,,,,,,,,,,,,,,,,,
,,,,,,,,,,,,,,,,,,,,,,,,,,,,,,,,,,,,,,,,,,,5b4b679dff74970001256d36,606a0f9a7f6602c70cdb5971,2021-04-04_20h13.04.445,Colour_Similarity_Experiment,2020.2.10,Win32,60,60675255c767bca6388caeee,17.15491903,16.70967049,16.66633663,16.66528317,16.66775223,16.66775223,,,,,,,,,,,,,,,,,,,,PF,3,weak,,,,,,,,4,1.16671,,,,,,,,,,,,,,,,,,,,,,,,,,,,8,weak,52.0000397,-84.66669065,1,0,0,response3disk,9,39,3.8147E-05,-8.666688383,1,0,0,rectangle,3.8147E-05,-8.666688383,1,0,0,7,0,0.000485,3.8147E-05,-8.666688383,1,0,0,0,38,38,42,1,0,,,,,,,,,,,,,,,,,,,,,
,,,,,,,,,,,,,,,,,,,,,,,,,,,,,,,,,,,,,,,,,,,5b4b679dff74970001256d36,606a0f9a7f6602c70cdb5971,2021-04-04_20h13.04.445,Colour_Similarity_Experiment,2020.2.10,Win32,60,60675255c767bca6388caeee,17.15491903,16.70967049,16.66633663,16.66528317,16.66775223,16.66775223,,,,,,,,,,,,,,,,,,,,PF,3,weak,,,,,,,,4,0.86672,,,,,,,,,,,,,,,,,,,,,,,,,,,,9,weak,50.6667877,-87.33335739,1,0,0,response3disk,4,40,11.33337182,-13.33335519,1,0,0,rectangle,11.33337182,-13.33335519,1,0,0,7,4,0.000575,11.33337182,-13.33335519,1,0,0,0,39,39,114,1,0,,,,,,,,,,,,,,,,,,,,,
,,,,,,,,,,,,,,,,,,,,,,,,,,,,,,,,,,,,,,,,,,,5b4b679dff74970001256d36,606a0f9a7f6602c70cdb5971,2021-04-04_20h13.04.445,Colour_Similarity_Experiment,2020.2.10,Win32,60,60675255c767bca6388caeee,17.15491903,16.70967049,16.66633663,16.66528317,16.66775223,16.66775223,,,,,,,,,,,,,,,,,,,,PF,3,strong,,,,,,,,4,0.48336,,,,,,,,,,,,,,,,,,,,,,,,,,,,3,strong,65.33337343,-92.66669089,1,0,0,response3disk,7,41,11.33337182,-8.000021696,1,0,0,rectangle,11.33337182,-8.000021696,1,0,0,7,2,0.0004,11.33337182,-8.000021696,1,0,0,0,40,40,118,1,0,,,,,,,,,,,,,,,,,,,,,
,,,,,,,,,,,,,,,,,,,,,,,,,,,,,,,,,,,,,,,,,,,5b4b679dff74970001256d36,606a0f9a7f6602c70cdb5971,2021-04-04_20h13.04.445,Colour_Similarity_Experiment,2020.2.10,Win32,60,60675255c767bca6388caeee,17.15491903,16.70967049,16.66633663,16.66528317,16.66775223,16.66775223,,,,,,,,,,,,,,,,,,,,PF,3,weak,,,,,,,,5,0.73336,,,,,,,,,,,,,,,,,,,,,,,,,,,,5,weak,83.33337396,-52.00002301,1,0,0,response3disk,5,42,-6.666628718,-19.33335537,1,0,0,rectangle,-6.666628718,-19.33335537,1,0,0,7,4,0.000405,-6.666628718,-19.33335537,1,0,0,0,41,41,94,1,0,,,,,,,,,,,,,,,,,,,,,
,,,,,,,,,,,,,,,,,,,,,,,,,,,,,,,,,,,,,,,,,,,5b4b679dff74970001256d36,606a0f9a7f6602c70cdb5971,2021-04-04_20h13.04.445,Colour_Similarity_Experiment,2020.2.10,Win32,60,60675255c767bca6388caeee,17.15491903,16.70967049,16.66633663,16.66528317,16.66775223,16.66775223,,,,,,,,,,,,,,,,,,,,PF,3,weak,,,,,,,,4,0.866585,,,,,,,,,,,,,,,,,,,,,,,,,,,,6,weak,51.33337301,-74.66669035,1,0,0,response3disk,5,43,2.000038207,5.999978721,1,0,0,rectangle,2.000038207,5.999978721,1,0,0,7,7,0.0004,2.000038207,5.999978721,1,0,0,0,42,42,59,1,0,,,,,,,,,,,,,,,,,,,,,
,,,,,,,,,,,,,,,,,,,,,,,,,,,,,,,,,,,,,,,,,,,5b4b679dff74970001256d36,606a0f9a7f6602c70cdb5971,2021-04-04_20h13.04.445,Colour_Similarity_Experiment,2020.2.10,Win32,60,60675255c767bca6388caeee,17.15491903,16.70967049,16.66633663,16.66528317,16.66775223,16.66775223,,,,,,,,,,,,,,,,,,,,PF,3,weak,,,,,,,,4,0.366665,,,,,,,,,,,,,,,,,,,,,,,,,,,,1,weak,53.33337307,-77.3333571,1,0,0,response3disk,2,44,2.666786273,-4.000021577,1,0,0,rectangle,2.666786273,-4.000021577,1,0,0,7,0,0.000445,2.666786273,-4.000021577,1,0,0,0,43,43,24,1,0,,,,,,,,,,,,,,,,,,,,,
,,,,,,,,,,,,,,,,,,,,,,,,,,,,,,,,,,,,,,,,,,,5b4b679dff74970001256d36,606a0f9a7f6602c70cdb5971,2021-04-04_20h13.04.445,Colour_Similarity_Experiment,2020.2.10,Win32,60,60675255c767bca6388caeee,17.15491903,16.70967049,16.66633663,16.66528317,16.66775223,16.66775223,,,,,,,,,,,,,,,,,,,,PF,3,strong,,,,,,,,4,3.916825,,,,,,,,,,,,,,,,,,,,,,,,,,,,4,strong,40.66678741,-72.66669029,1,0,0,response3disk,4,45,22.0000388,24.66664594,1,0,0,rectangle,22.0000388,24.66664594,1,0,0,7,6,0.00039,22.0000388,24.66664594,1,0,0,0,44,44,84,1,0,,,,,,,,,,,,,,,,,,,,,
,,,,,,,,,,,,,,,,,,,,,,,,,,,,,,,,,,,,,,,,,,,5b4b679dff74970001256d36,606a0f9a7f6602c70cdb5971,2021-04-04_20h13.04.445,Colour_Similarity_Experiment,2020.2.10,Win32,60,60675255c767bca6388caeee,17.15491903,16.70967049,16.66633663,16.66528317,16.66775223,16.66775223,,,,,,,,,,,,,,,,,,,,PF,3,weak,,,,,,,,1,0.616975,,,,,,,,,,,,,,,,,,,,,,,,,,,,7,weak,-83.99996436,67.99998057,1,0,0,response7disk,4,46,3.33337158,-8.666688383,1,0,0,rectangle,3.33337158,-8.666688383,1,0,0,7,1,0.000415,3.33337158,-8.666688383,1,0,0,0,45,45,43,1,0,,,,,,,,,,,,,,,,,,,,,
,,,,,,,,,,,,,,,,,,,,,,,,,,,,,,,,,,,,,,,,,,,5b4b679dff74970001256d36,606a0f9a7f6602c70cdb5971,2021-04-04_20h13.04.445,Colour_Similarity_Experiment,2020.2.10,Win32,60,60675255c767bca6388caeee,17.15491903,16.70967049,16.66633663,16.66528317,16.66775223,16.66775223,,,,,,,,,,,,,,,,,,,,PF,3,weak,,,,,,,,3,1.41677,,,,,,,,,,,,,,,,,,,,,,,,,,,,7,weak,-49.99996334,-58.00002319,1,0,0,response5disk,1,47,21.33337212,7.333312094,1,0,0,rectangle,21.33337212,7.333312094,1,0,0,7,6,0.00041,21.33337212,7.333312094,1,0,0,0,46,46,53,1,0,,,,,,,,,,,,,,,,,,,,,
,,,,,,,,,,,,,,,,,,,,,,,,,,,,,,,,,,,,,,,,,,,5b4b679dff74970001256d36,606a0f9a7f6602c70cdb5971,2021-04-04_20h13.04.445,Colour_Similarity_Experiment,2020.2.10,Win32,60,60675255c767bca6388caeee,17.15491903,16.70967049,16.66633663,16.66528317,16.66775223,16.66775223,,,,,,,,,,,,,,,,,,,,PF,3,weak,,,,,,,,4,0.783375,,,,,,,,,,,,,,,,,,,,,,,,,,,,3,weak,31.33337241,-71.33335692,1,0,0,response3disk,1,48,4.666786333,-10.66668844,1,0,0,rectangle,4.666786333,-10.66668844,1,0,0,7,7,0.00042,4.666786333,-10.66668844,1,0,0,0,47,47,96,1,0,,,,,,,,,,,,,,,,,,,,,
,,,,,,,,,,,,,,,,,,,,,,,,,,,,,,,,,,,,,,,,,,,5b4b679dff74970001256d36,606a0f9a7f6602c70cdb5971,2021-04-04_20h13.04.445,Colour_Similarity_Experiment,2020.2.10,Win32,60,60675255c767bca6388caeee,17.15491903,16.70967049,16.66633663,16.66528317,16.66775223,16.66775223,,,,,,,,,,,,,,,,,,,,PF,3,strong,,,,,,,,4,0.26671,,,,,,,,,,,,,,,,,,,,,,,,,,,,4,strong,36.00003922,-80.66669053,1,0,0,response3disk,5,49,6.666786393,-11.33335513,1,0,0,rectangle,6.666786393,-11.33335513,1,0,0,7,1,0.00044,6.666786393,-11.33335513,1,0,0,0,48,48,116,1,0,,,,,,,,,,,,,,,,,,,,,
,,,,,,,,,,,,,,,,,,,,,,,,,,,,,,,,,,,,,,,,,,,5b4b679dff74970001256d36,606a0f9a7f6602c70cdb5971,2021-04-04_20h13.04.445,Colour_Similarity_Experiment,2020.2.10,Win32,60,60675255c767bca6388caeee,17.15491903,16.70967049,16.66633663,16.66528317,16.66775223,16.66775223,,,,,,,,,,,,,,,,,,,,PF,3,weak,,,,,,,,4,0.199855,,,,,,,,,,,,,,,,,,,,,,,,,,,,1,weak,42.66678747,-97.33335769,1,0,0,response3disk,9,50,-6.666628718,-15.33335525,1,0,0,rectangle,-6.666628718,-15.33335525,1,0,0,7,3,0.000535,-6.666628718,-15.33335525,1,0,0,0,49,49,15,1,0,,,,,,,,,,,,,,,,,,,,,
,,,,,,,,,,,,,,,,,,,,,,,,,,,,,,,,,,,,,,,,,,,5b4b679dff74970001256d36,606a0f9a7f6602c70cdb5971,2021-04-04_20h13.04.445,Colour_Similarity_Experiment,2020.2.10,Win32,60,60675255c767bca6388caeee,17.15491903,16.70967049,16.66633663,16.66528317,16.66775223,16.66775223,,,,,,,,,,,,,,,,,,,,PF,3,strong,,,,,,,,4,0.4167,,,,,,,,,,,,,,,,,,,,,,,,,,,,2,strong,41.33337271,-89.33335745,1,0,0,response3disk,8,51,3.8147E-05,-8.000021696,1,0,0,rectangle,3.8147E-05,-8.000021696,1,0,0,7,6,0.000385,3.8147E-05,-8.000021696,1,0,0,0,50,50,62,1,0,,,,,,,,,,,,,,,,,,,,,
,,,,,,,,,,,,,,,,,,,,,,,,,,,,,,,,,,,,,,,,,,,5b4b679dff74970001256d36,606a0f9a7f6602c70cdb5971,2021-04-04_20h13.04.445,Colour_Similarity_Experiment,2020.2.10,Win32,60,60675255c767bca6388caeee,17.15491903,16.70967049,16.66633663,16.66528317,16.66775223,16.66775223,,,,,,,,,,,,,,,,,,,,PF,3,strong,,,,,,,,3,0.716725,,,,,,,,,,,,,,,,,,,,,,,,,,,,1,strong,-22.6666292,-76.66669041,1,0,0,response5disk,3,52,34.00003916,-10.00002176,1,0,0,rectangle,34.00003916,-10.00002176,1,0,0,7,5,0.00038,34.00003916,-10.00002176,1,0,0,0,51,51,99,1,0,,,,,,,,,,,,,,,,,,,,,
,,,,,,,,,,,,,,,,,,,,,,,,,,,,,,,,,,,,,,,,,,,5b4b679dff74970001256d36,606a0f9a7f6602c70cdb5971,2021-04-04_20h13.04.445,Colour_Similarity_Experiment,2020.2.10,Win32,60,60675255c767bca6388caeee,17.15491903,16.70967049,16.66633663,16.66528317,16.66775223,16.66775223,,,,,,,,,,,,,,,,,,,,PF,3,weak,,,,,,,,4,0.94995,,,,,,,,,,,,,,,,,,,,,,,,,,,,5,weak,35.33337253,-62.00002331,1,0,0,response3disk,4,53,15.33337194,-10.66668844,1,0,0,rectangle,15.33337194,-10.66668844,1,0,0,7,4,0.0004,15.33337194,-10.66668844,1,0,0,0,52,52,54,1,0,,,,,,,,,,,,,,,,,,,,,
,,,,,,,,,,,,,,,,,,,,,,,,,,,,,,,,,,,,,,,,,,,5b4b679dff74970001256d36,606a0f9a7f6602c70cdb5971,2021-04-04_20h13.04.445,Colour_Similarity_Experiment,2020.2.10,Win32,60,60675255c767bca6388caeee,17.15491903,16.70967049,16.66633663,16.66528317,16.66775223,16.66775223,,,,,,,,,,,,,,,,,,,,PF,3,weak,,,,,,,,4,0.61681,,,,,,,,,,,,,,,,,,,,,,,,,,,,2,weak,40.00003934,-98.00002438,1,0,0,response3disk,4,54,-3.333213905,-3.33335489,1,0,0,rectangle,-3.333213905,-3.33335489,1,0,0,7,4,0.000055,-3.333213905,-3.33335489,1,0,0,0,53,53,127,1,0,,,,,,,,,,,,,,,,,,,,,
,,,,,,,,,,,,,,,,,,,,,,,,,,,,,,,,,,,,,,,,,,,5b4b679dff74970001256d36,606a0f9a7f6602c70cdb5971,2021-04-04_20h13.04.445,Colour_Similarity_Experiment,2020.2.10,Win32,60,60675255c767bca6388caeee,17.15491903,16.70967049,16.66633663,16.66528317,16.66775223,16.66775223,,,,,,,,,,,,,,,,,,,,PF,3,strong,,,,,,,,5,2.350155,,,,,,,,,,,,,,,,,,,,,,,,,,,,1,strong,112.6667082,-46.66668952,1,0,0,response3disk,2,55,-15.99996233,1.999978602,1,0,0,rectangle,-15.99996233,1.999978602,1,0,0,7,1,0.000415,-15.99996233,1.999978602,1,0,0,0,54,54,2,1,0,,,,,,,,,,,,,,,,,,,,,
,,,,,,,,,,,,,,,,,,,,,,,,,,,,,,,,,,,,,,,,,,,5b4b679dff74970001256d36,606a0f9a7f6602c70cdb5971,2021-04-04_20h13.04.445,Colour_Similarity_Experiment,2020.2.10,Win32,60,60675255c767bca6388caeee,17.15491903,16.70967049,16.66633663,16.66528317,16.66775223,16.66775223,,,,,,,,,,,,,,,,,,,,PF,3,weak,,,,,,,,4,0.41652,,,,,,,,,,,,,,,,,,,,,,,,,,,,9,weak,36.66678729,-88.66669077,1,0,0,response3disk,8,56,4.666786333,-13.33335519,1,0,0,rectangle,4.666786333,-13.33335519,1,0,0,7,3,0.000415,4.666786333,-13.33335519,1,0,0,0,55,55,67,1,0,,,,,,,,,,,,,,,,,,,,,
,,,,,,,,,,,,,,,,,,,,,,,,,,,,,,,,,,,,,,,,,,,5b4b679dff74970001256d36,606a0f9a7f6602c70cdb5971,2021-04-04_20h13.04.445,Colour_Similarity_Experiment,2020.2.10,Win32,60,60675255c767bca6388caeee,17.15491903,16.70967049,16.66633663,16.66528317,16.66775223,16.66775223,,,,,,,,,,,,,,,,,,,,PF,3,weak,,,,,,,,4,0.33337,,,,,,,,,,,,,,,,,,,,,,,,,,,,2,weak,63.33337337,-98.66669106,1,0,0,response3disk,2,57,-38.66662967,-2.666688204,1,0,0,rectangle,-38.66662967,-2.666688204,1,0,0,7,3,0.000065,-38.66662967,-2.666688204,1,0,0,0,56,56,14,1,0,,,,,,,,,,,,,,,,,,,,,
,,,,,,,,,,,,,,,,,,,,,,,,,,,,,,,,,,,,,,,,,,,5b4b679dff74970001256d36,606a0f9a7f6602c70cdb5971,2021-04-04_20h13.04.445,Colour_Similarity_Experiment,2020.2.10,Win32,60,60675255c767bca6388caeee,17.15491903,16.70967049,16.66633663,16.66528317,16.66775223,16.66775223,,,,,,,,,,,,,,,,,,,,PF,3,strong,,,,,,,,3,0.900025,,,,,,,,,,,,,,,,,,,,,,,,,,,,1,strong,-51.9999634,-61.33335662,1,0,0,response5disk,6,58,-8.666628778,-18.00002199,1,0,0,rectangle,-8.666628778,-18.00002199,1,0,0,7,3,0.00006,-8.666628778,-18.00002199,1,0,0,0,57,57,58,1,0,,,,,,,,,,,,,,,,,,,,,
,,,,,,,,,,,,,,,,,,,,,,,,,,,,,,,,,,,,,,,,,,,5b4b679dff74970001256d36,606a0f9a7f6602c70cdb5971,2021-04-04_20h13.04.445,Colour_Similarity_Experiment,2020.2.10,Win32,60,60675255c767bca6388caeee,17.15491903,16.70967049,16.66633663,16.66528317,16.66775223,16.66775223,,,,,,,,,,,,,,,,,,,,PF,3,strong,,,,,,,,6,0.533425,,,,,,,,,,,,,,,,,,,,,,,,,,,,2,strong,80.00004053,33.33331287,1,0,0,response1disk,5,59,16.00003862,-10.00002176,1,0,0,rectangle,16.00003862,-10.00002176,1,0,0,7,5,0.0004,16.00003862,-10.00002176,1,0,0,0,58,58,80,1,0,,,,,,,,,,,,,,,,,,,,,
,,,,,,,,,,,,,,,,,,,,,,,,,,,,,,,,,,,,,,,,,,,5b4b679dff74970001256d36,606a0f9a7f6602c70cdb5971,2021-04-04_20h13.04.445,Colour_Similarity_Experiment,2020.2.10,Win32,60,60675255c767bca6388caeee,17.15491903,16.70967049,16.66633663,16.66528317,16.66775223,16.66775223,,,,,,,,,,,,,,,,,,,,PF,3,weak,,,,,,,,4,1.08337,,,,,,,,,,,,,,,,,,,,,,,,,,,,9,weak,42.0000394,-71.33335692,1,0,0,response3disk,6,60,-26.66662931,-1.333354831,1,0,0,rectangle,-26.66662931,-1.333354831,1,0,0,7,3,0.000435,-26.66662931,-1.333354831,1,0,0,0,59,59,148,1,0,,,,,,,,,,,,,,,,,,,,,
,,,,,,,,,,,,,,,,,,,,,,,,,,,,,,,,,,,,,,,,,,,5b4b679dff74970001256d36,606a0f9a7f6602c70cdb5971,2021-04-04_20h13.04.445,Colour_Similarity_Experiment,2020.2.10,Win32,60,60675255c767bca6388caeee,17.15491903,16.70967049,16.66633663,16.66528317,16.66775223,16.66775223,,,,,,,,,,,,,,,,,,,,PF,3,strong,,,,,,,,4,0.883315,,,,,,,,,,,,,,,,,,,,,,,,,,,,8,strong,35.33337253,-78.66669047,1,0,0,response3disk,9,61,-38.66662967,-1.333354831,1,0,0,rectangle,-38.66662967,-1.333354831,1,0,0,7,3,0.00006,-38.66662967,-1.333354831,1,0,0,0,60,60,105,1,0,,,,,,,,,,,,,,,,,,,,,
,,,,,,,,,,,,,,,,,,,,,,,,,,,,,,,,,,,,,,,,,,,5b4b679dff74970001256d36,606a0f9a7f6602c70cdb5971,2021-04-04_20h13.04.445,Colour_Similarity_Experiment,2020.2.10,Win32,60,60675255c767bca6388caeee,17.15491903,16.70967049,16.66633663,16.66528317,16.66775223,16.66775223,,,,,,,,,,,,,,,,,,,,PF,3,strong,,,,,,,,4,0.95002,,,,,,,,,,,,,,,,,,,,,,,,,,,,7,strong,71.33337361,-82.66669059,1,0,0,response3disk,3,62,14.00003856,-6.000021636,1,0,0,rectangle,14.00003856,-6.000021636,1,0,0,7,4,0.000415,14.00003856,-6.000021636,1,0,0,0,61,61,73,1,0,,,,,,,,,,,,,,,,,,,,,
,,,,,,,,,,,,,,,,,,,,,,,,,,,,,,,,,,,,,,,,,,,5b4b679dff74970001256d36,606a0f9a7f6602c70cdb5971,2021-04-04_20h13.04.445,Colour_Similarity_Experiment,2020.2.10,Win32,60,60675255c767bca6388caeee,17.15491903,16.70967049,16.66633663,16.66528317,16.66775223,16.66775223,,,,,,,,,,,,,,,,,,,,PF,3,weak,,,,,,,,4,4.85028,,,,,,,,,,,,,,,,,,,,,,,,,,,,9,weak,33.33337247,-54.00002307,1,0,0,response3disk,1,63,12.66678657,-14.66668856,1,0,0,rectangle,12.66678657,-14.66668856,1,0,0,7,0,0.00038,12.66678657,-14.66668856,1,0,0,0,62,62,74,1,0,,,,,,,,,,,,,,,,,,,,,
,,,,,,,,,,,,,,,,,,,,,,,,,,,,,,,,,,,,,,,,,,,5b4b679dff74970001256d36,606a0f9a7f6602c70cdb5971,2021-04-04_20h13.04.445,Colour_Similarity_Experiment,2020.2.10,Win32,60,60675255c767bca6388caeee,17.15491903,16.70967049,16.66633663,16.66528317,16.66775223,16.66775223,,,,,,,,,,,,,,,,,,,,PF,3,strong,,,,,,,,3,1.48343,,,,,,,,,,,,,,,,,,,,,,,,,,,,2,strong,-26.66662931,-96.66669101,1,0,0,response5disk,2,64,4.000038266,25.99997932,1,0,0,rectangle,4.000038266,25.99997932,1,0,0,7,4,0.00041,4.000038266,25.99997932,1,0,0,0,63,63,142,1,0,,,,,,,,,,,,,,,,,,,,,
,,,,,,,,,,,,,,,,,,,,,,,,,,,,,,,,,,,,,,,,,,,5b4b679dff74970001256d36,606a0f9a7f6602c70cdb5971,2021-04-04_20h13.04.445,Colour_Similarity_Experiment,2020.2.10,Win32,60,60675255c767bca6388caeee,17.15491903,16.70967049,16.66633663,16.66528317,16.66775223,16.66775223,,,,,,,,,,,,,,,,,,,,PF,3,strong,,,,,,,,4,0.80006,,,,,,,,,,,,,,,,,,,,,,,,,,,,2,strong,44.00003946,-112.0000248,1,0,0,response3disk,6,65,-33.99996287,5.333312035,1,0,0,rectangle,-33.99996287,5.333312035,1,0,0,7,5,0.000435,-33.99996287,5.333312035,1,0,0,0,64,64,40,1,0,,,,,,,,,,,,,,,,,,,,,
,,,,,,,,,,,,,,,,,,,,,,,,,,,,,,,,,,,,,,,,,,,5b4b679dff74970001256d36,606a0f9a7f6602c70cdb5971,2021-04-04_20h13.04.445,Colour_Similarity_Experiment,2020.2.10,Win32,60,60675255c767bca6388caeee,17.15491903,16.70967049,16.66633663,16.66528317,16.66775223,16.66775223,,,,,,,,,,,,,,,,,,,,PF,3,weak,,,,,,,,4,0.78342,,,,,,,,,,,,,,,,,,,,,,,,,,,,2,weak,47.33337289,-98.00002438,1,0,0,response3disk,8,66,-12.6666289,16.66664571,1,0,0,rectangle,-12.6666289,16.66664571,1,0,0,7,3,0.000415,-12.6666289,16.66664571,1,0,0,0,65,65,52,1,0,,,,,,,,,,,,,,,,,,,,,
,,,,,,,,,,,,,,,,,,,,,,,,,,,,,,,,,,,,,,,,,,,5b4b679dff74970001256d36,606a0f9a7f6602c70cdb5971,2021-04-04_20h13.04.445,Colour_Similarity_Experiment,2020.2.10,Win32,60,60675255c767bca6388caeee,17.15491903,16.70967049,16.66633663,16.66528317,16.66775223,16.66775223,,,,,,,,,,,,,,,,,,,,PF,3,weak,,,,,,,,4,1.51671,,,,,,,,,,,,,,,,,,,,,,,,,,,,5,weak,42.66678747,-90.66669083,1,0,0,response3disk,7,67,6.666786393,-22.6666888,1,0,0,rectangle,6.666786393,-22.6666888,1,0,0,7,7,0.0004,6.666786393,-22.6666888,1,0,0,0,66,66,146,1,0,,,,,,,,,,,,,,,,,,,,,
,,,,,,,,,,,,,,,,,,,,,,,,,,,,,,,,,,,,,,,,,,,5b4b679dff74970001256d36,606a0f9a7f6602c70cdb5971,2021-04-04_20h13.04.445,Colour_Similarity_Experiment,2020.2.10,Win32,60,60675255c767bca6388caeee,17.15491903,16.70967049,16.66633663,16.66528317,16.66775223,16.66775223,,,,,,,,,,,,,,,,,,,,PF,3,strong,,,,,,,,4,0.60001,,,,,,,,,,,,,,,,,,,,,,,,,,,,1,strong,34.00003916,-70.66669023,1,0,0,response3disk,4,68,-12.6666289,3.999978662,1,0,0,rectangle,-12.6666289,3.999978662,1,0,0,7,4,0.00042,-12.6666289,3.999978662,1,0,0,0,67,67,135,1,0,,,,,,,,,,,,,,,,,,,,,
,,,,,,,,,,,,,,,,,,,,,,,,,,,,,,,,,,,,,,,,,,,5b4b679dff74970001256d36,606a0f9a7f6602c70cdb5971,2021-04-04_20h13.04.445,Colour_Similarity_Experiment,2020.2.10,Win32,60,60675255c767bca6388caeee,17.15491903,16.70967049,16.66633663,16.66528317,16.66775223,16.66775223,,,,,,,,,,,,,,,,,,,,PF,3,weak,,,,,,,,4,0.30006,,,,,,,,,,,,,,,,,,,,,,,,,,,,3,weak,23.33337218,-55.33335644,1,0,0,response3disk,6,69,4.666786333,4.666645348,1,0,0,rectangle,4.666786333,4.666645348,1,0,0,7,0,0.000385,4.666786333,4.666645348,1,0,0,0,68,68,47,1,0,,,,,,,,,,,,,,,,,,,,,
,,,,,,,,,,,,,,,,,,,,,,,,,,,,,,,,,,,,,,,,,,,5b4b679dff74970001256d36,606a0f9a7f6602c70cdb5971,2021-04-04_20h13.04.445,Colour_Similarity_Experiment,2020.2.10,Win32,60,60675255c767bca6388caeee,17.15491903,16.70967049,16.66633663,16.66528317,16.66775223,16.66775223,,,,,,,,,,,,,,,,,,,,PF,3,strong,,,,,,,,4,0.26685,,,,,,,,,,,,,,,,,,,,,,,,,,,,3,strong,30.66678711,-63.33335668,1,0,0,response3disk,9,70,0.666786214,-4.000021577,1,0,0,rectangle,0.666786214,-4.000021577,1,0,0,7,4,0.00038,0.666786214,-4.000021577,1,0,0,0,69,69,143,1,0,,,,,,,,,,,,,,,,,,,,,
,,,,,,,,,,,,,,,,,,,,,,,,,,,,,,,,,,,,,,,,,,,5b4b679dff74970001256d36,606a0f9a7f6602c70cdb5971,2021-04-04_20h13.04.445,Colour_Similarity_Experiment,2020.2.10,Win32,60,60675255c767bca6388caeee,17.15491903,16.70967049,16.66633663,16.66528317,16.66775223,16.66775223,,,,,,,,,,,,,,,,,,,,PF,3,strong,,,,,,,,4,0.28337,,,,,,,,,,,,,,,,,,,,,,,,,,,,8,strong,35.33337253,-76.00002372,1,0,0,response3disk,1,71,-5.333213965,-9.333355069,1,0,0,rectangle,-5.333213965,-9.333355069,1,0,0,7,4,0.000075,-5.333213965,-9.333355069,1,0,0,0,70,70,20,1,0,,,,,,,,,,,,,,,,,,,,,
,,,,,,,,,,,,,,,,,,,,,,,,,,,,,,,,,,,,,,,,,,,5b4b679dff74970001256d36,606a0f9a7f6602c70cdb5971,2021-04-04_20h13.04.445,Colour_Similarity_Experiment,2020.2.10,Win32,60,60675255c767bca6388caeee,17.15491903,16.70967049,16.66633663,16.66528317,16.66775223,16.66775223,,,,,,,,,,,,,,,,,,,,PF,3,weak,,,,,,,,3,1.566765,,,,,,,,,,,,,,,,,,,,,,,,,,,,3,weak,-25.33321456,-66.00002342,1,0,0,response5disk,9,72,-11.33321414,5.999978721,1,0,0,rectangle,-11.33321414,5.999978721,1,0,0,7,0,0.00041,-11.33321414,5.999978721,1,0,0,0,71,71,79,1,0,,,,,,,,,,,,,,,,,,,,,
,,,,,,,,,,,,,,,,,,,,,,,,,,,,,,,,,,,,,,,,,,,5b4b679dff74970001256d36,606a0f9a7f6602c70cdb5971,2021-04-04_20h13.04.445,Colour_Similarity_Experiment,2020.2.10,Win32,60,60675255c767bca6388caeee,17.15491903,16.70967049,16.66633663,16.66528317,16.66775223,16.66775223,,,,,,,,,,,,,,,,,,,,PF,3,weak,,,,,,,,4,0.76671,,,,,,,,,,,,,,,,,,,,,,,,,,,,1,weak,54.00003976,-84.66669065,1,0,0,response3disk,6,73,16.66678669,3.333311975,1,0,0,rectangle,16.66678669,3.333311975,1,0,0,7,6,0.00041,16.66678669,3.333311975,1,0,0,0,72,72,144,1,0,,,,,,,,,,,,,,,,,,,,,
,,,,,,,,,,,,,,,,,,,,,,,,,,,,,,,,,,,,,,,,,,,5b4b679dff74970001256d36,606a0f9a7f6602c70cdb5971,2021-04-04_20h13.04.445,Colour_Similarity_Experiment,2020.2.10,Win32,60,60675255c767bca6388caeee,17.15491903,16.70967049,16.66633663,16.66528317,16.66775223,16.66775223,,,,,,,,,,,,,,,,,,,,PF,3,weak,,,,,,,,4,0.750005,,,,,,,,,,,,,,,,,,,,,,,,,,,,4,weak,44.66678753,-99.33335775,1,0,0,response3disk,8,74,-8.666628778,7.333312094,1,0,0,rectangle,-8.666628778,7.333312094,1,0,0,7,0,0.000405,-8.666628778,7.333312094,1,0,0,0,73,73,124,1,0,,,,,,,,,,,,,,,,,,,,,
,,,,,,,,,,,,,,,,,,,,,,,,,,,,,,,,,,,,,,,,,,,5b4b679dff74970001256d36,606a0f9a7f6602c70cdb5971,2021-04-04_20h13.04.445,Colour_Similarity_Experiment,2020.2.10,Win32,60,60675255c767bca6388caeee,17.15491903,16.70967049,16.66633663,16.66528317,16.66775223,16.66775223,,,,,,,,,,,,,,,,,,,,PF,3,strong,,,,,,,,3,1.66684,,,,,,,,,,,,,,,,,,,,,,,,,,,,9,strong,-39.33321498,-94.00002426,1,0,0,response5disk,1,75,-7.333214025,-17.33335531,1,0,0,rectangle,-7.333214025,-17.33335531,1,0,0,7,0,0.000065,-7.333214025,-17.33335531,1,0,0,0,74,74,111,1,0,,,,,,,,,,,,,,,,,,,,,
,,,,,,,,,,,,,,,,,,,,,,,,,,,,,,,,,,,,,,,,,,,5b4b679dff74970001256d36,606a0f9a7f6602c70cdb5971,2021-04-04_20h13.04.445,Colour_Similarity_Experiment,2020.2.10,Win32,60,60675255c767bca6388caeee,17.15491903,16.70967049,16.66633663,16.66528317,16.66775223,16.66775223,,,,,,,,,,,,,,,,,,,,PF,3,strong,,,,,,,,4,0.73334,,,,,,,,,,,,,,,,,,,,,,,,,,,,1,strong,27.33337229,-88.66669077,1,0,0,response3disk,8,76,4.000038266,3.333311975,1,0,0,rectangle,4.000038266,3.333311975,1,0,0,7,3,0.000455,4.000038266,3.333311975,1,0,0,0,75,75,27,1,0,,,,,,,,,,,,,,,,,,,,,
,,,,,,,,,,,,,,,,,,,,,,,,,,,,,,,,,,,,,,,,,,,5b4b679dff74970001256d36,606a0f9a7f6602c70cdb5971,2021-04-04_20h13.04.445,Colour_Similarity_Experiment,2020.2.10,Win32,60,60675255c767bca6388caeee,17.15491903,16.70967049,16.66633663,16.66528317,16.66775223,16.66775223,,,,,,,,,,,,,,,,,,,,PF,3,strong,,,,,,,,4,0.51672,,,,,,,,,,,,,,,,,,,,,,,,,,,,3,strong,49.33337295,-50.66668963,1,0,0,response3disk,2,77,24.66678693,-10.66668844,1,0,0,rectangle,24.66678693,-10.66668844,1,0,0,7,5,0.000385,24.66678693,-10.66668844,1,0,0,0,76,76,93,1,0,,,,,,,,,,,,,,,,,,,,,
,,,,,,,,,,,,,,,,,,,,,,,,,,,,,,,,,,,,,,,,,,,5b4b679dff74970001256d36,606a0f9a7f6602c70cdb5971,2021-04-04_20h13.04.445,Colour_Similarity_Experiment,2020.2.10,Win32,60,60675255c767bca6388caeee,17.15491903,16.70967049,16.66633663,16.66528317,16.66775223,16.66775223,,,,,,,,,,,,,,,,,,,,PF,3,strong,,,,,,,,4,0.15001,,,,,,,,,,,,,,,,,,,,,,,,,,,,8,strong,58.00003988,-116.0000249,1,0,0,response3disk,5,78,14.00003856,-2.14577E-05,1,0,0,rectangle,14.00003856,-2.14577E-05,1,0,0,7,7,0.001005,14.00003856,-2.14577E-05,1,0,0,0,77,77,152,1,0,,,,,,,,,,,,,,,,,,,,,
,,,,,,,,,,,,,,,,,,,,,,,,,,,,,,,,,,,,,,,,,,,5b4b679dff74970001256d36,606a0f9a7f6602c70cdb5971,2021-04-04_20h13.04.445,Colour_Similarity_Experiment,2020.2.10,Win32,60,60675255c767bca6388caeee,17.15491903,16.70967049,16.66633663,16.66528317,16.66775223,16.66775223,,,,,,,,,,,,,,,,,,,,PF,3,weak,,,,,,,,4,0.30031,,,,,,,,,,,,,,,,,,,,,,,,,,,,8,weak,51.33337301,-83.33335727,1,0,0,response3disk,3,79,5.333371639,-12.00002182,1,0,0,rectangle,5.333371639,-12.00002182,1,0,0,7,7,5.5E-05,5.333371639,-12.00002182,1,0,0,0,78,78,71,1,0,,,,,,,,,,,,,,,,,,,,,
,,,,,,,,,,,,,,,,,,,,,,,,,,,,,,,,,,,,,,,,,,,5b4b679dff74970001256d36,606a0f9a7f6602c70cdb5971,2021-04-04_20h13.04.445,Colour_Similarity_Experiment,2020.2.10,Win32,60,60675255c767bca6388caeee,17.15491903,16.70967049,16.66633663,16.66528317,16.66775223,16.66775223,,,,,,,,,,,,,,,,,,,,PF,3,weak,,,,,,,,4,0.783305,,,,,,,,,,,,,,,,,,,,,,,,,,,,6,weak,34.66678723,-100.0000244,1,0,0,response3disk,2,80,13.33337188,-15.33335525,1,0,0,rectangle,13.33337188,-15.33335525,1,0,0,7,2,0.000415,13.33337188,-15.33335525,1,0,0,0,79,79,130,1,0,,,,,,,,,,,,,,,,,,,,,
,,,,,,,,,,,,,,,,,,,,,,,,,,,,,,,,,,,,,,,,,,,5b4b679dff74970001256d36,606a0f9a7f6602c70cdb5971,2021-04-04_20h13.04.445,Colour_Similarity_Experiment,2020.2.10,Win32,60,60675255c767bca6388caeee,17.15491903,16.70967049,16.66633663,16.66528317,16.66775223,16.66775223,,,,,,,,,,,,,,,,,,,,PF,3,strong,,,,,,,,6,1.650115,,,,,,,,,,,,,,,,,,,,,,,,,,,,6,strong,83.33337396,45.33331323,1,0,0,response1disk,9,81,-14.66662896,-16.00002193,1,0,0,rectangle,-89.99996454,45.33331323,1,0,0,1,1,2.000455,-29.99996275,-23.33335549,1,0,0,0,80,80,160,1,1,response7disk_3,rectangle,,,,,,,,,,,,,,,,,,,
,,,,,,,,,,,,,,,,,,,,,,,,,,,,,,,,,,,,,,,,,,,5b4b679dff74970001256d36,606a0f9a7f6602c70cdb5971,2021-04-04_20h13.04.445,Colour_Similarity_Experiment,2020.2.10,Win32,60,60675255c767bca6388caeee,17.15491903,16.70967049,16.66633663,16.66528317,16.66775223,16.66775223,,,,,,,,,,,,,,,,,,,,PF,3,weak,,,,,,,,4,0.849875,,,,,,,,,,,,,,,,,,,,,,,,,,,,6,weak,43.33337277,-115.3333582,1,0,0,response3disk,6,82,5.333371639,-4.666688263,1,0,0,rectangle,5.333371639,-4.666688263,1,0,0,1,1,6E-05,5.333371639,-4.666688263,1,0,0,0,81,81,0,1,0,,,,,,,,,,,,,,,,,,,,,
,,,,,,,,,,,,,,,,,,,,,,,,,,,,,,,,,,,,,,,,,,,5b4b679dff74970001256d36,606a0f9a7f6602c70cdb5971,2021-04-04_20h13.04.445,Colour_Similarity_Experiment,2020.2.10,Win32,60,60675255c767bca6388caeee,17.15491903,16.70967049,16.66633663,16.66528317,16.66775223,16.66775223,,,,,,,,,,,,,,,,,,,,PF,3,strong,,,,,,,,4,0.766665,,,,,,,,,,,,,,,,,,,,,,,,,,,,4,strong,27.33337229,-74.00002366,1,0,0,response3disk,7,83,4.666786333,5.999978721,1,0,0,rectangle,4.666786333,5.999978721,1,0,0,1,0,0.00042,4.666786333,5.999978721,1,0,0,0,82,82,87,1,0,,,,,,,,,,,,,,,,,,,,,
,,,,,,,,,,,,,,,,,,,,,,,,,,,,,,,,,,,,,,,,,,,5b4b679dff74970001256d36,606a0f9a7f6602c70cdb5971,2021-04-04_20h13.04.445,Colour_Similarity_Experiment,2020.2.10,Win32,60,60675255c767bca6388caeee,17.15491903,16.70967049,16.66633663,16.66528317,16.66775223,16.66775223,,,,,,,,,,,,,,,,,,,,PF,3,weak,,,,,,,,4,0.36671,,,,,,,,,,,,,,,,,,,,,,,,,,,,1,weak,44.66678753,-76.00002372,1,0,0,response3disk,5,84,3.8147E-05,2.666645288,1,0,0,rectangle,3.8147E-05,2.666645288,1,0,0,1,3,0.00037,3.8147E-05,2.666645288,1,0,0,0,83,83,28,1,0,,,,,,,,,,,,,,,,,,,,,
,,,,,,,,,,,,,,,,,,,,,,,,,,,,,,,,,,,,,,,,,,,5b4b679dff74970001256d36,606a0f9a7f6602c70cdb5971,2021-04-04_20h13.04.445,Colour_Similarity_Experiment,2020.2.10,Win32,60,60675255c767bca6388caeee,17.15491903,16.70967049,16.66633663,16.66528317,16.66775223,16.66775223,,,,,,,,,,,,,,,,,,,,PF,3,strong,,,,,,,,4,0.316675,,,,,,,,,,,,,,,,,,,,,,,,,,,,5,strong,35.33337253,-92.0000242,1,0,0,response3disk,5,85,3.8147E-05,-6.666688323,1,0,0,rectangle,3.8147E-05,-6.666688323,1,0,0,1,2,0.00042,3.8147E-05,-6.666688323,1,0,0,0,84,84,19,1,0,,,,,,,,,,,,,,,,,,,,,
,,,,,,,,,,,,,,,,,,,,,,,,,,,,,,,,,,,,,,,,,,,5b4b679dff74970001256d36,606a0f9a7f6602c70cdb5971,2021-04-04_20h13.04.445,Colour_Similarity_Experiment,2020.2.10,Win32,60,60675255c767bca6388caeee,17.15491903,16.70967049,16.66633663,16.66528317,16.66775223,16.66775223,,,,,,,,,,,,,,,,,,,,PF,3,strong,,,,,,,,3,1.15003,,,,,,,,,,,,,,,,,,,,,,,,,,,,5,strong,-37.33321492,-91.33335751,1,0,0,response5disk,3,86,22.66678687,-22.00002211,1,0,0,rectangle,22.66678687,-22.00002211,1,0,0,5,1,0.00041,22.66678687,-22.00002211,1,0,0,0,85,85,25,1,0,,,,,,,,,,,,,,,,,,,,,
,,,,,,,,,,,,,,,,,,,,,,,,,,,,,,,,,,,,,,,,,,,5b4b679dff74970001256d36,606a0f9a7f6602c70cdb5971,2021-04-04_20h13.04.445,Colour_Similarity_Experiment,2020.2.10,Win32,60,60675255c767bca6388caeee,17.15491903,16.70967049,16.66633663,16.66528317,16.66775223,16.66775223,,,,,,,,,,,,,,,,,,,,PF,3,strong,,,,,,,,4,0.93341,,,,,,,,,,,,,,,,,,,,,,,,,,,,5,strong,52.0000397,-102.6666912,1,0,0,response3disk,4,87,10.00003844,-6.666688323,1,0,0,rectangle,10.00003844,-6.666688323,1,0,0,5,0,0.00041,10.00003844,-6.666688323,1,0,0,0,86,86,8,1,0,,,,,,,,,,,,,,,,,,,,,
,,,,,,,,,,,,,,,,,,,,,,,,,,,,,,,,,,,,,,,,,,,5b4b679dff74970001256d36,606a0f9a7f6602c70cdb5971,2021-04-04_20h13.04.445,Colour_Similarity_Experiment,2020.2.10,Win32,60,60675255c767bca6388caeee,17.15491903,16.70967049,16.66633663,16.66528317,16.66775223,16.66775223,,,,,,,,,,,,,,,,,,,,PF,3,strong,,,,,,,,3,0.95005,,,,,,,,,,,,,,,,,,,,,,,,,,,,3,strong,-34.66662955,-84.66669065,1,0,0,response5disk,6,88,16.00003862,-8.666688383,1,0,0,rectangle,16.00003862,-8.666688383,1,0,0,5,1,0.000395,16.00003862,-8.666688383,1,0,0,0,87,87,95,1,0,,,,,,,,,,,,,,,,,,,,,
,,,,,,,,,,,,,,,,,,,,,,,,,,,,,,,,,,,,,,,,,,,5b4b679dff74970001256d36,606a0f9a7f6602c70cdb5971,2021-04-04_20h13.04.445,Colour_Similarity_Experiment,2020.2.10,Win32,60,60675255c767bca6388caeee,17.15491903,16.70967049,16.66633663,16.66528317,16.66775223,16.66775223,,,,,,,,,,,,,,,,,,,,PF,3,strong,,,,,,,,4,1.198705,,,,,,,,,,,,,,,,,,,,,,,,,,,,8,strong,23.33337218,-85.33335733,1,0,0,response3disk,3,89,12.0000385,-9.333355069,1,0,0,rectangle,12.0000385,-9.333355069,1,0,0,5,5,0.000385,12.0000385,-9.333355069,1,0,0,0,88,88,154,1,0,,,,,,,,,,,,,,,,,,,,,
,,,,,,,,,,,,,,,,,,,,,,,,,,,,,,,,,,,,,,,,,,,5b4b679dff74970001256d36,606a0f9a7f6602c70cdb5971,2021-04-04_20h13.04.445,Colour_Similarity_Experiment,2020.2.10,Win32,60,60675255c767bca6388caeee,17.15491903,16.70967049,16.66633663,16.66528317,16.66775223,16.66775223,,,,,,,,,,,,,,,,,,,,PF,3,weak,,,,,,,,4,0.18337,,,,,,,,,,,,,,,,,,,,,,,,,,,,1,weak,46.00003952,-83.33335727,1,0,0,response3disk,3,90,15.33337194,-16.66668862,1,0,0,rectangle,15.33337194,-16.66668862,1,0,0,5,5,0.000065,15.33337194,-16.66668862,1,0,0,0,89,89,1,1,0,,,,,,,,,,,,,,,,,,,,,
,,,,,,,,,,,,,,,,,,,,,,,,,,,,,,,,,,,,,,,,,,,5b4b679dff74970001256d36,606a0f9a7f6602c70cdb5971,2021-04-04_20h13.04.445,Colour_Similarity_Experiment,2020.2.10,Win32,60,60675255c767bca6388caeee,17.15491903,16.70967049,16.66633663,16.66528317,16.66775223,16.66775223,,,,,,,,,,,,,,,,,,,,PF,3,weak,,,,,,,,4,0.283365,,,,,,,,,,,,,,,,,,,,,,,,,,,,4,weak,46.66678758,-83.33335727,1,0,0,response3disk,5,91,22.66678687,-18.66668868,1,0,0,rectangle,22.66678687,-18.66668868,1,0,0,5,1,0.000375,22.66678687,-18.66668868,1,0,0,0,90,90,49,1,0,,,,,,,,,,,,,,,,,,,,,
,,,,,,,,,,,,,,,,,,,,,,,,,,,,,,,,,,,,,,,,,,,5b4b679dff74970001256d36,606a0f9a7f6602c70cdb5971,2021-04-04_20h13.04.445,Colour_Similarity_Experiment,2020.2.10,Win32,60,60675255c767bca6388caeee,17.15491903,16.70967049,16.66633663,16.66528317,16.66775223,16.66775223,,,,,,,,,,,,,,,,,,,,PF,3,strong,,,,,,,,4,0.349935,,,,,,,,,,,,,,,,,,,,,,,,,,,,9,strong,50.6667877,-114.6666915,1,0,0,response3disk,8,92,2.666786273,-6.000021636,1,0,0,rectangle,2.666786273,-6.000021636,1,0,0,5,3,0.00038,2.666786273,-6.000021636,1,0,0,0,91,91,6,1,0,,,,,,,,,,,,,,,,,,,,,
,,,,,,,,,,,,,,,,,,,,,,,,,,,,,,,,,,,,,,,,,,,5b4b679dff74970001256d36,606a0f9a7f6602c70cdb5971,2021-04-04_20h13.04.445,Colour_Similarity_Experiment,2020.2.10,Win32,60,60675255c767bca6388caeee,17.15491903,16.70967049,16.66633663,16.66528317,16.66775223,16.66775223,,,,,,,,,,,,,,,,,,,,PF,3,weak,,,,,,,,4,0.316635,,,,,,,,,,,,,,,,,,,,,,,,,,,,9,weak,55.33337313,-93.33335757,1,0,0,response3disk,5,93,16.00003862,-1.333354831,1,0,0,rectangle,16.00003862,-1.333354831,1,0,0,5,6,0.00041,16.00003862,-1.333354831,1,0,0,0,92,92,134,1,0,,,,,,,,,,,,,,,,,,,,,
,,,,,,,,,,,,,,,,,,,,,,,,,,,,,,,,,,,,,,,,,,,5b4b679dff74970001256d36,606a0f9a7f6602c70cdb5971,2021-04-04_20h13.04.445,Colour_Similarity_Experiment,2020.2.10,Win32,60,60675255c767bca6388caeee,17.15491903,16.70967049,16.66633663,16.66528317,16.66775223,16.66775223,,,,,,,,,,,,,,,,,,,,PF,3,strong,,,,,,,,3,0.533235,,,,,,,,,,,,,,,,,,,,,,,,,,,,3,strong,-29.99996275,-80.66669053,1,0,0,response5disk,5,94,4.666786333,5.999978721,1,0,0,rectangle,4.666786333,5.999978721,1,0,0,5,5,0.000375,4.666786333,5.999978721,1,0,0,0,93,93,101,1,0,,,,,,,,,,,,,,,,,,,,,
,,,,,,,,,,,,,,,,,,,,,,,,,,,,,,,,,,,,,,,,,,,5b4b679dff74970001256d36,606a0f9a7f6602c70cdb5971,2021-04-04_20h13.04.445,Colour_Similarity_Experiment,2020.2.10,Win32,60,60675255c767bca6388caeee,17.15491903,16.70967049,16.66633663,16.66528317,16.66775223,16.66775223,,,,,,,,,,,,,,,,,,,,PF,3,weak,,,,,,,,3,0.450015,,,,,,,,,,,,,,,,,,,,,,,,,,,,2,weak,-42.66662979,-75.33335704,1,0,0,response5disk,3,95,15.33337194,-8.000021696,1,0,0,rectangle,15.33337194,-8.000021696,1,0,0,5,7,0.000395,15.33337194,-8.000021696,1,0,0,0,94,94,69,1,0,,,,,,,,,,,,,,,,,,,,,
,,,,,,,,,,,,,,,,,,,,,,,,,,,,,,,,,,,,,,,,,,,5b4b679dff74970001256d36,606a0f9a7f6602c70cdb5971,2021-04-04_20h13.04.445,Colour_Similarity_Experiment,2020.2.10,Win32,60,60675255c767bca6388caeee,17.15491903,16.70967049,16.66633663,16.66528317,16.66775223,16.66775223,,,,,,,,,,,,,,,,,,,,PF,3,strong,,,,,,,,4,0.43287,,,,,,,,,,,,,,,,,,,,,,,,,,,,7,strong,32.66678717,-61.33335662,1,0,0,response3disk,7,96,13.33337188,-7.33335501,1,0,0,rectangle,13.33337188,-7.33335501,1,0,0,5,7,0.00006,13.33337188,-7.33335501,1,0,0,0,95,95,34,1,0,,,,,,,,,,,,,,,,,,,,,
,,,,,,,,,,,,,,,,,,,,,,,,,,,,,,,,,,,,,,,,,,,5b4b679dff74970001256d36,606a0f9a7f6602c70cdb5971,2021-04-04_20h13.04.445,Colour_Similarity_Experiment,2020.2.10,Win32,60,60675255c767bca6388caeee,17.15491903,16.70967049,16.66633663,16.66528317,16.66775223,16.66775223,,,,,,,,,,,,,,,,,,,,PF,3,strong,,,,,,,,4,0.316585,,,,,,,,,,,,,,,,,,,,,,,,,,,,8,strong,44.00003946,-84.66669065,1,0,0,response3disk,7,97,-4.666628659,2.666645288,1,0,0,rectangle,-4.666628659,2.666645288,1,0,0,5,0,0.00041,-4.666628659,2.666645288,1,0,0,0,96,96,86,1,0,,,,,,,,,,,,,,,,,,,,,
,,,,,,,,,,,,,,,,,,,,,,,,,,,,,,,,,,,,,,,,,,,5b4b679dff74970001256d36,606a0f9a7f6602c70cdb5971,2021-04-04_20h13.04.445,Colour_Similarity_Experiment,2020.2.10,Win32,60,60675255c767bca6388caeee,17.15491903,16.70967049,16.66633663,16.66528317,16.66775223,16.66775223,,,,,,,,,,,,,,,,,,,,PF,3,strong,,,,,,,,4,0.533365,,,,,,,,,,,,,,,,,,,,,,,,,,,,5,strong,45.33337283,-106.6666913,1,0,0,response3disk,2,98,0.666786214,-12.6666885,1,0,0,rectangle,-96.6666314,-39.33335596,1,0,0,5,2,2.21675,20.00003874,-2.14577E-05,1,0,0,0,97,97,55,1,1,response5disk_3,rectangle,,,,,,,,,,,,,,,,,,,
,,,,,,,,,,,,,,,,,,,,,,,,,,,,,,,,,,,,,,,,,,,5b4b679dff74970001256d36,606a0f9a7f6602c70cdb5971,2021-04-04_20h13.04.445,Colour_Similarity_Experiment,2020.2.10,Win32,60,60675255c767bca6388caeee,17.15491903,16.70967049,16.66633663,16.66528317,16.66775223,16.66775223,,,,,,,,,,,,,,,,,,,,PF,3,strong,,,,,,,,4,1.86744,,,,,,,,,,,,,,,,,,,,,,,,,,,,6,strong,30.00003904,-74.00002366,1,0,0,response3disk,8,99,-13.99996227,-2.666688204,1,0,0,rectangle,-13.99996227,-2.666688204,1,0,0,5,6,0.00043,-13.99996227,-2.666688204,1,0,0,0,98,98,133,1,0,,,,,,,,,,,,,,,,,,,,,
,,,,,,,,,,,,,,,,,,,,,,,,,,,,,,,,,,,,,,,,,,,5b4b679dff74970001256d36,606a0f9a7f6602c70cdb5971,2021-04-04_20h13.04.445,Colour_Similarity_Experiment,2020.2.10,Win32,60,60675255c767bca6388caeee,17.15491903,16.70967049,16.66633663,16.66528317,16.66775223,16.66775223,,,,,,,,,,,,,,,,,,,,PF,3,strong,,,,,,,,5,2.933565,,,,,,,,,,,,,,,,,,,,,,,,,,,,9,strong,103.3333746,-42.6666894,1,0,0,response3disk,7,100,2.000038207,4.666645348,1,0,0,rectangle,2.000038207,4.666645348,1,0,0,5,6,5E-05,2.000038207,4.666645348,1,0,0,0,99,99,100,1,0,,,,,,,,,,,,,,,,,,,,,
,,,,,,,,,,,,,,,,,,,,,,,,,,,,,,,,,,,,,,,,,,,5b4b679dff74970001256d36,606a0f9a7f6602c70cdb5971,2021-04-04_20h13.04.445,Colour_Similarity_Experiment,2020.2.10,Win32,60,60675255c767bca6388caeee,17.15491903,16.70967049,16.66633663,16.66528317,16.66775223,16.66775223,,,,,,,,,,,,,,,,,,,,PF,3,weak,,,,,,,,3,0.91467,,,,,,,,,,,,,,,,,,,,,,,,,,,,8,weak,-43.3332151,-96.66669101,1,0,0,response5disk,7,101,10.00003844,-5.33335495,1,0,0,rectangle,10.00003844,-5.33335495,1,0,0,5,5,0.000395,10.00003844,-5.33335495,1,0,0,0,100,100,23,1,0,,,,,,,,,,,,,,,,,,,,,
,,,,,,,,,,,,,,,,,,,,,,,,,,,,,,,,,,,,,,,,,,,5b4b679dff74970001256d36,606a0f9a7f6602c70cdb5971,2021-04-04_20h13.04.445,Colour_Similarity_Experiment,2020.2.10,Win32,60,60675255c767bca6388caeee,17.15491903,16.70967049,16.66633663,16.66528317,16.66775223,16.66775223,,,,,,,,,,,,,,,,,,,,PF,3,strong,,,,,,,,3,0.783405,,,,,,,,,,,,,,,,,,,,,,,,,,,,5,strong,-41.33321504,-68.66669017,1,0,0,response5disk,1,102,-6.666628718,9.99997884,1,0,0,rectangle,-6.666628718,9.99997884,1,0,0,5,0,0.00037,-6.666628718,9.99997884,1,0,0,0,101,101,131,1,0,,,,,,,,,,,,,,,,,,,,,
,,,,,,,,,,,,,,,,,,,,,,,,,,,,,,,,,,,,,,,,,,,5b4b679dff74970001256d36,606a0f9a7f6602c70cdb5971,2021-04-04_20h13.04.445,Colour_Similarity_Experiment,2020.2.10,Win32,60,60675255c767bca6388caeee,17.15491903,16.70967049,16.66633663,16.66528317,16.66775223,16.66775223,,,,,,,,,,,,,,,,,,,,PF,3,strong,,,,,,,,4,0.283305,,,,,,,,,,,,,,,,,,,,,,,,,,,,1,strong,36.00003922,-77.3333571,1,0,0,response3disk,7,103,-16.66662902,1.999978602,1,0,0,rectangle,-16.66662902,1.999978602,1,0,0,5,3,0.000385,-16.66662902,1.999978602,1,0,0,0,102,102,137,1,0,,,,,,,,,,,,,,,,,,,,,
,,,,,,,,,,,,,,,,,,,,,,,,,,,,,,,,,,,,,,,,,,,5b4b679dff74970001256d36,606a0f9a7f6602c70cdb5971,2021-04-04_20h13.04.445,Colour_Similarity_Experiment,2020.2.10,Win32,60,60675255c767bca6388caeee,17.15491903,16.70967049,16.66633663,16.66528317,16.66775223,16.66775223,,,,,,,,,,,,,,,,,,,,PF,3,weak,,,,,,,,6,1.816745,,,,,,,,,,,,,,,,,,,,,,,,,,,,4,weak,74.00004035,26.666646,1,0,0,response1disk,3,104,-10.66662884,1.333311915,1,0,0,rectangle,-10.66662884,1.333311915,1,0,0,5,7,0.00041,-10.66662884,1.333311915,1,0,0,0,103,103,89,1,0,,,,,,,,,,,,,,,,,,,,,
,,,,,,,,,,,,,,,,,,,,,,,,,,,,,,,,,,,,,,,,,,,5b4b679dff74970001256d36,606a0f9a7f6602c70cdb5971,2021-04-04_20h13.04.445,Colour_Similarity_Experiment,2020.2.10,Win32,60,60675255c767bca6388caeee,17.15491903,16.70967049,16.66633663,16.66528317,16.66775223,16.66775223,,,,,,,,,,,,,,,,,,,,PF,3,weak,,,,,,,,1,1.36678,,,,,,,,,,,,,,,,,,,,,,,,,,,,8,weak,-58.66663027,26.666646,1,0,0,response7disk,1,105,12.66678657,-19.33335537,1,0,0,rectangle,12.66678657,-19.33335537,1,0,0,5,5,0.000405,12.66678657,-19.33335537,1,0,0,0,104,104,57,1,0,,,,,,,,,,,,,,,,,,,,,
,,,,,,,,,,,,,,,,,,,,,,,,,,,,,,,,,,,,,,,,,,,5b4b679dff74970001256d36,606a0f9a7f6602c70cdb5971,2021-04-04_20h13.04.445,Colour_Similarity_Experiment,2020.2.10,Win32,60,60675255c767bca6388caeee,17.15491903,16.70967049,16.66633663,16.66528317,16.66775223,16.66775223,,,,,,,,,,,,,,,,,,,,PF,3,weak,,,,,,,,1,2.000085,,,,,,,,,,,,,,,,,,,,,,,,,,,,9,weak,-43.99996316,15.99997902,1,0,0,response7disk,7,106,21.33337212,11.33331221,1,0,0,rectangle,21.33337212,11.33331221,1,0,0,5,0,0.00042,21.33337212,11.33331221,1,0,0,0,105,105,121,1,0,,,,,,,,,,,,,,,,,,,,,
,,,,,,,,,,,,,,,,,,,,,,,,,,,,,,,,,,,,,,,,,,,5b4b679dff74970001256d36,606a0f9a7f6602c70cdb5971,2021-04-04_20h13.04.445,Colour_Similarity_Experiment,2020.2.10,Win32,60,60675255c767bca6388caeee,17.15491903,16.70967049,16.66633663,16.66528317,16.66775223,16.66775223,,,,,,,,,,,,,,,,,,,,PF,3,strong,,,,,,,,6,1.05004,,,,,,,,,,,,,,,,,,,,,,,,,,,,9,strong,21.33337212,20.66664582,1,0,0,response1disk,3,107,24.66678693,25.99997932,1,0,0,rectangle,24.66678693,25.99997932,1,0,0,7,1,0.000405,24.66678693,25.99997932,1,0,0,0,106,106,141,1,0,,,,,,,,,,,,,,,,,,,,,
,,,,,,,,,,,,,,,,,,,,,,,,,,,,,,,,,,,,,,,,,,,5b4b679dff74970001256d36,606a0f9a7f6602c70cdb5971,2021-04-04_20h13.04.445,Colour_Similarity_Experiment,2020.2.10,Win32,60,60675255c767bca6388caeee,17.15491903,16.70967049,16.66633663,16.66528317,16.66775223,16.66775223,,,,,,,,,,,,,,,,,,,,PF,3,weak,,,,,,,,7,0.916725,,,,,,,,,,,,,,,,,,,,,,,,,,,,7,weak,49.33337295,101.3333149,1,0,0,response1disk,7,108,12.0000385,-21.33335543,1,0,0,rectangle,12.0000385,-21.33335543,1,0,0,7,6,0.000405,12.0000385,-21.33335543,1,0,0,0,107,107,51,1,0,,,,,,,,,,,,,,,,,,,,,
,,,,,,,,,,,,,,,,,,,,,,,,,,,,,,,,,,,,,,,,,,,5b4b679dff74970001256d36,606a0f9a7f6602c70cdb5971,2021-04-04_20h13.04.445,Colour_Similarity_Experiment,2020.2.10,Win32,60,60675255c767bca6388caeee,17.15491903,16.70967049,16.66633663,16.66528317,16.66775223,16.66775223,,,,,,,,,,,,,,,,,,,,PF,3,strong,,,,,,,,5,2.38346,,,,,,,,,,,,,,,,,,,,,,,,,,,,8,strong,68.00004017,-32.00002241,1,0,0,response3disk,2,109,25.33337224,-10.00002176,1,0,0,rectangle,25.33337224,-10.00002176,1,0,0,7,7,0.000405,25.33337224,-10.00002176,1,0,0,0,108,108,22,1,0,,,,,,,,,,,,,,,,,,,,,
,,,,,,,,,,,,,,,,,,,,,,,,,,,,,,,,,,,,,,,,,,,5b4b679dff74970001256d36,606a0f9a7f6602c70cdb5971,2021-04-04_20h13.04.445,Colour_Similarity_Experiment,2020.2.10,Win32,60,60675255c767bca6388caeee,17.15491903,16.70967049,16.66633663,16.66528317,16.66775223,16.66775223,,,,,,,,,,,,,,,,,,,,PF,3,strong,,,,,,,,6,1.1834,,,,,,,,,,,,,,,,,,,,,,,,,,,,9,strong,79.33337384,33.99997956,1,0,0,response1disk,2,110,-11.33321414,7.333312094,1,0,0,rectangle,92.00004089,40.66660573,1,0,0,6,6,1.800055,43.33337277,3.333311975,1,0,0,0,109,109,11,1,1,response1disk_3,rectangle,,,,,,,,,,,,,,,,,,,
,,,,,,,,,,,,,,,,,,,,,,,,,,,,,,,,,,,,,,,,,,,5b4b679dff74970001256d36,606a0f9a7f6602c70cdb5971,2021-04-04_20h13.04.445,Colour_Similarity_Experiment,2020.2.10,Win32,60,60675255c767bca6388caeee,17.15491903,16.70967049,16.66633663,16.66528317,16.66775223,16.66775223,,,,,,,,,,,,,,,,,,,,PF,3,weak,,,,,,,,1,0.816755,,,,,,,,,,,,,,,,,,,,,,,,,,,,7,weak,-57.33321551,27.33331269,1,0,0,response7disk,5,111,-1.999961913,-7.33335501,1,0,0,rectangle,-1.999961913,-7.33335501,1,0,0,6,2,0.00043,-1.999961913,-7.33335501,1,0,0,0,110,110,92,1,0,,,,,,,,,,,,,,,,,,,,,
,,,,,,,,,,,,,,,,,,,,,,,,,,,,,,,,,,,,,,,,,,,5b4b679dff74970001256d36,606a0f9a7f6602c70cdb5971,2021-04-04_20h13.04.445,Colour_Similarity_Experiment,2020.2.10,Win32,60,60675255c767bca6388caeee,17.15491903,16.70967049,16.66633663,16.66528317,16.66775223,16.66775223,,,,,,,,,,,,,,,,,,,,PF,3,weak,,,,,,,,4,1.51667,,,,,,,,,,,,,,,,,,,,,,,,,,,,5,weak,32.0000391,-92.0000242,1,0,0,response3disk,1,112,42.0000394,-10.66668844,1,0,0,rectangle,40.00003934,-113.3333582,1,0,0,4,4,2.01664,5.333371639,-24.66668886,1,0,0,0,111,111,159,1,1,response3disk_3,rectangle,,,,,,,,,,,,,,,,,,,
,,,,,,,,,,,,,,,,,,,,,,,,,,,,,,,,,,,,,,,,,,,5b4b679dff74970001256d36,606a0f9a7f6602c70cdb5971,2021-04-04_20h13.04.445,Colour_Similarity_Experiment,2020.2.10,Win32,60,60675255c767bca6388caeee,17.15491903,16.70967049,16.66633663,16.66528317,16.66775223,16.66775223,,,,,,,,,,,,,,,,,,,,PF,3,strong,,,,,,,,4,2.183325,,,,,,,,,,,,,,,,,,,,,,,,,,,,4,strong,51.33337301,-123.3333585,1,0,0,response3disk,8,113,8.000038385,-19.33335537,1,0,0,rectangle,8.000038385,-19.33335537,1,0,0,4,2,0.00044,8.000038385,-19.33335537,1,0,0,0,112,112,35,1,0,,,,,,,,,,,,,,,,,,,,,
,,,,,,,,,,,,,,,,,,,,,,,,,,,,,,,,,,,,,,,,,,,5b4b679dff74970001256d36,606a0f9a7f6602c70cdb5971,2021-04-04_20h13.04.445,Colour_Similarity_Experiment,2020.2.10,Win32,60,60675255c767bca6388caeee,17.15491903,16.70967049,16.66633663,16.66528317,16.66775223,16.66775223,,,,,,,,,,,,,,,,,,,,PF,3,strong,,,,,,,,4,0.983295,,,,,,,,,,,,,,,,,,,,,,,,,,,,3,strong,56.66678788,-83.33335727,1,0,0,response3disk,4,114,-8.666628778,13.33331227,1,0,0,rectangle,-8.666628778,13.33331227,1,0,0,4,3,0.00039,-8.666628778,13.33331227,1,0,0,0,113,113,110,1,0,,,,,,,,,,,,,,,,,,,,,
,,,,,,,,,,,,,,,,,,,,,,,,,,,,,,,,,,,,,,,,,,,5b4b679dff74970001256d36,606a0f9a7f6602c70cdb5971,2021-04-04_20h13.04.445,Colour_Similarity_Experiment,2020.2.10,Win32,60,60675255c767bca6388caeee,17.15491903,16.70967049,16.66633663,16.66528317,16.66775223,16.66775223,,,,,,,,,,,,,,,,,,,,PF,3,weak,,,,,,,,3,0.349905,,,,,,,,,,,,,,,,,,,,,,,,,,,,2,weak,-32.66662949,-91.33335751,1,0,0,response5disk,6,115,12.66678657,-9.333355069,1,0,0,rectangle,12.66678657,-9.333355069,1,0,0,4,4,0.000455,12.66678657,-9.333355069,1,0,0,0,114,114,113,1,0,,,,,,,,,,,,,,,,,,,,,
,,,,,,,,,,,,,,,,,,,,,,,,,,,,,,,,,,,,,,,,,,,5b4b679dff74970001256d36,606a0f9a7f6602c70cdb5971,2021-04-04_20h13.04.445,Colour_Similarity_Experiment,2020.2.10,Win32,60,60675255c767bca6388caeee,17.15491903,16.70967049,16.66633663,16.66528317,16.66775223,16.66775223,,,,,,,,,,,,,,,,,,,,PF,3,weak,,,,,,,,4,0.299905,,,,,,,,,,,,,,,,,,,,,,,,,,,,5,weak,56.66678788,-94.66669095,1,0,0,response3disk,6,116,-36.66662961,13.33331227,1,0,0,rectangle,-36.66662961,13.33331227,1,0,0,4,4,0.000065,-36.66662961,13.33331227,1,0,0,0,115,115,103,1,0,,,,,,,,,,,,,,,,,,,,,
,,,,,,,,,,,,,,,,,,,,,,,,,,,,,,,,,,,,,,,,,,,5b4b679dff74970001256d36,606a0f9a7f6602c70cdb5971,2021-04-04_20h13.04.445,Colour_Similarity_Experiment,2020.2.10,Win32,60,60675255c767bca6388caeee,17.15491903,16.70967049,16.66633663,16.66528317,16.66775223,16.66775223,,,,,,,,,,,,,,,,,,,,PF,3,weak,,,,,,,,4,0.099985,,,,,,,,,,,,,,,,,,,,,,,,,,,,5,weak,51.33337301,-80.00002384,1,0,0,response3disk,8,117,4.000038266,4.666645348,1,0,0,rectangle,4.000038266,4.666645348,1,0,0,4,1,0.000395,4.000038266,4.666645348,1,0,0,0,116,116,149,1,0,,,,,,,,,,,,,,,,,,,,,
,,,,,,,,,,,,,,,,,,,,,,,,,,,,,,,,,,,,,,,,,,,5b4b679dff74970001256d36,606a0f9a7f6602c70cdb5971,2021-04-04_20h13.04.445,Colour_Similarity_Experiment,2020.2.10,Win32,60,60675255c767bca6388caeee,17.15491903,16.70967049,16.66633663,16.66528317,16.66775223,16.66775223,,,,,,,,,,,,,,,,,,,,PF,3,weak,,,,,,,,4,0.31668,,,,,,,,,,,,,,,,,,,,,,,,,,,,2,weak,36.00003922,-68.00002348,1,0,0,response3disk,9,118,-8.666628778,6.666645408,1,0,0,rectangle,-8.666628778,6.666645408,1,0,0,4,1,0.000055,-8.666628778,6.666645408,1,0,0,0,117,117,39,1,0,,,,,,,,,,,,,,,,,,,,,
,,,,,,,,,,,,,,,,,,,,,,,,,,,,,,,,,,,,,,,,,,,5b4b679dff74970001256d36,606a0f9a7f6602c70cdb5971,2021-04-04_20h13.04.445,Colour_Similarity_Experiment,2020.2.10,Win32,60,60675255c767bca6388caeee,17.15491903,16.70967049,16.66633663,16.66528317,16.66775223,16.66775223,,,,,,,,,,,,,,,,,,,,PF,3,strong,,,,,,,,5,1.633505,,,,,,,,,,,,,,,,,,,,,,,,,,,,5,strong,113.3333749,-82.0000239,1,0,0,response3disk,9,119,10.66678651,-14.66668856,1,0,0,rectangle,10.66678651,-14.66668856,1,0,0,4,6,0.000395,10.66678651,-14.66668856,1,0,0,0,118,118,61,1,0,,,,,,,,,,,,,,,,,,,,,
,,,,,,,,,,,,,,,,,,,,,,,,,,,,,,,,,,,,,,,,,,,5b4b679dff74970001256d36,606a0f9a7f6602c70cdb5971,2021-04-04_20h13.04.445,Colour_Similarity_Experiment,2020.2.10,Win32,60,60675255c767bca6388caeee,17.15491903,16.70967049,16.66633663,16.66528317,16.66775223,16.66775223,,,,,,,,,,,,,,,,,,,,PF,3,weak,,,,,,,,4,2.11682,,,,,,,,,,,,,,,,,,,,,,,,,,,,2,weak,31.33337241,-95.33335763,1,0,0,response3disk,7,120,-1.999961913,4.666645348,1,0,0,rectangle,-1.999961913,4.666645348,1,0,0,4,7,0.00037,-1.999961913,4.666645348,1,0,0,0,119,119,107,1,0,,,,,,,,,,,,,,,,,,,,,
,,,,,,,,,,,,,,,,,,,,,,,,,,,,,,,,,,,,,,,,,,,5b4b679dff74970001256d36,606a0f9a7f6602c70cdb5971,2021-04-04_20h13.04.445,Colour_Similarity_Experiment,2020.2.10,Win32,60,60675255c767bca6388caeee,17.15491903,16.70967049,16.66633663,16.66528317,16.66775223,16.66775223,,,,,,,,,,,,,,,,,,,,PF,3,weak,,,,,,,,4,0.350105,,,,,,,,,,,,,,,,,,,,,,,,,,,,4,weak,39.33337265,-82.0000239,1,0,0,response3disk,9,121,4.666786333,-8.666688383,1,0,0,rectangle,4.666786333,-8.666688383,1,0,0,4,6,0.000395,4.666786333,-8.666688383,1,0,0,0,120,120,75,1,0,,,,,,,,,,,,,,,,,,,,,
,,,,,,,,,,,,,,,,,,,,,,,,,,,,,,,,,,,,,,,,,,,5b4b679dff74970001256d36,606a0f9a7f6602c70cdb5971,2021-04-04_20h13.04.445,Colour_Similarity_Experiment,2020.2.10,Win32,60,60675255c767bca6388caeee,17.15491903,16.70967049,16.66633663,16.66528317,16.66775223,16.66775223,,,,,,,,,,,,,,,,,,,,PF,3,strong,,,,,,,,6,0.61668,,,,,,,,,,,,,,,,,,,,,,,,,,,,6,strong,102.0000412,41.99997979,1,0,0,response1disk,5,122,29.33337235,-0.666688144,1,0,0,rectangle,29.33337235,-0.666688144,1,0,0,4,4,0.00042,29.33337235,-0.666688144,1,0,0,0,121,121,126,1,0,,,,,,,,,,,,,,,,,,,,,
,,,,,,,,,,,,,,,,,,,,,,,,,,,,,,,,,,,,,,,,,,,5b4b679dff74970001256d36,606a0f9a7f6602c70cdb5971,2021-04-04_20h13.04.445,Colour_Similarity_Experiment,2020.2.10,Win32,60,60675255c767bca6388caeee,17.15491903,16.70967049,16.66633663,16.66528317,16.66775223,16.66775223,,,,,,,,,,,,,,,,,,,,PF,3,strong,,,,,,,,3,0.7834,,,,,,,,,,,,,,,,,,,,,,,,,,,,4,strong,-55.33321546,-73.33335698,1,0,0,response5disk,9,123,17.333372,-12.00002182,1,0,0,rectangle,17.333372,-12.00002182,1,0,0,4,0,0.00039,17.333372,-12.00002182,1,0,0,0,122,122,90,1,0,,,,,,,,,,,,,,,,,,,,,
,,,,,,,,,,,,,,,,,,,,,,,,,,,,,,,,,,,,,,,,,,,5b4b679dff74970001256d36,606a0f9a7f6602c70cdb5971,2021-04-04_20h13.04.445,Colour_Similarity_Experiment,2020.2.10,Win32,60,60675255c767bca6388caeee,17.15491903,16.70967049,16.66633663,16.66528317,16.66775223,16.66775223,,,,,,,,,,,,,,,,,,,,PF,3,strong,,,,,,,,4,0.283285,,,,,,,,,,,,,,,,,,,,,,,,,,,,2,strong,40.00003934,-84.00002396,1,0,0,response3disk,7,124,-35.33321486,5.999978721,1,0,0,rectangle,-35.33321486,5.999978721,1,0,0,4,3,0.00036,-35.33321486,5.999978721,1,0,0,0,123,123,63,1,0,,,,,,,,,,,,,,,,,,,,,
,,,,,,,,,,,,,,,,,,,,,,,,,,,,,,,,,,,,,,,,,,,5b4b679dff74970001256d36,606a0f9a7f6602c70cdb5971,2021-04-04_20h13.04.445,Colour_Similarity_Experiment,2020.2.10,Win32,60,60675255c767bca6388caeee,17.15491903,16.70967049,16.66633663,16.66528317,16.66775223,16.66775223,,,,,,,,,,,,,,,,,,,,PF,3,strong,,,,,,,,4,0.350035,,,,,,,,,,,,,,,,,,,,,,,,,,,,2,strong,32.0000391,-57.3333565,1,0,0,response3disk,3,125,-5.333213965,4.666645348,1,0,0,rectangle,73.33337367,-97.33335769,1,0,0,4,4,1.566725,34.66678723,-12.00002182,1,0,0,0,124,124,104,1,1,response3disk_3,rectangle,,,,,,,,,,,,,,,,,,,
,,,,,,,,,,,,,,,,,,,,,,,,,,,,,,,,,,,,,,,,,,,5b4b679dff74970001256d36,606a0f9a7f6602c70cdb5971,2021-04-04_20h13.04.445,Colour_Similarity_Experiment,2020.2.10,Win32,60,60675255c767bca6388caeee,17.15491903,16.70967049,16.66633663,16.66528317,16.66775223,16.66775223,,,,,,,,,,,,,,,,,,,,PF,3,weak,,,,,,,,4,0.666755,,,,,,,,,,,,,,,,,,,,,,,,,,,,4,weak,43.33337277,-82.66669059,1,0,0,response3disk,7,126,-5.999962032,-4.666688263,1,0,0,rectangle,-5.999962032,-4.666688263,1,0,0,4,6,0.00039,-5.999962032,-4.666688263,1,0,0,0,125,125,38,1,0,,,,,,,,,,,,,,,,,,,,,
,,,,,,,,,,,,,,,,,,,,,,,,,,,,,,,,,,,,,,,,,,,5b4b679dff74970001256d36,606a0f9a7f6602c70cdb5971,2021-04-04_20h13.04.445,Colour_Similarity_Experiment,2020.2.10,Win32,60,60675255c767bca6388caeee,17.15491903,16.70967049,16.66633663,16.66528317,16.66775223,16.66775223,,,,,,,,,,,,,,,,,,,,PF,3,weak,,,,,,,,4,0.016775,,,,,,,,,,,,,,,,,,,,,,,,,,,,5,weak,41.33337271,-74.00002366,1,0,0,response3disk,3,127,-17.33321432,9.333312154,1,0,0,rectangle,-17.33321432,9.333312154,1,0,0,4,4,0.000385,-17.33321432,9.333312154,1,0,0,0,126,126,109,1,0,,,,,,,,,,,,,,,,,,,,,
,,,,,,,,,,,,,,,,,,,,,,,,,,,,,,,,,,,,,,,,,,,5b4b679dff74970001256d36,606a0f9a7f6602c70cdb5971,2021-04-04_20h13.04.445,Colour_Similarity_Experiment,2020.2.10,Win32,60,60675255c767bca6388caeee,17.15491903,16.70967049,16.66633663,16.66528317,16.66775223,16.66775223,,,,,,,,,,,,,,,,,,,,PF,3,strong,,,,,,,,3,1.00006,,,,,,,,,,,,,,,,,,,,,,,,,,,,7,strong,-43.99996316,-90.66669083,1,0,0,response5disk,4,128,6.000038326,-10.00002176,1,0,0,rectangle,6.000038326,-10.00002176,1,0,0,4,6,0.000375,6.000038326,-10.00002176,1,0,0,0,127,127,158,1,0,,,,,,,,,,,,,,,,,,,,,
,,,,,,,,,,,,,,,,,,,,,,,,,,,,,,,,,,,,,,,,,,,5b4b679dff74970001256d36,606a0f9a7f6602c70cdb5971,2021-04-04_20h13.04.445,Colour_Similarity_Experiment,2020.2.10,Win32,60,60675255c767bca6388caeee,17.15491903,16.70967049,16.66633663,16.66528317,16.66775223,16.66775223,,,,,,,,,,,,,,,,,,,,PF,3,weak,,,,,,,,4,0.950075,,,,,,,,,,,,,,,,,,,,,,,,,,,,3,weak,58.66678794,-93.33335757,1,0,0,response3disk,7,129,16.66678669,-7.33335501,1,0,0,rectangle,16.66678669,-7.33335501,1,0,0,4,6,0.000055,16.66678669,-7.33335501,1,0,0,0,128,128,41,1,0,,,,,,,,,,,,,,,,,,,,,
,,,,,,,,,,,,,,,,,,,,,,,,,,,,,,,,,,,,,,,,,,,5b4b679dff74970001256d36,606a0f9a7f6602c70cdb5971,2021-04-04_20h13.04.445,Colour_Similarity_Experiment,2020.2.10,Win32,60,60675255c767bca6388caeee,17.15491903,16.70967049,16.66633663,16.66528317,16.66775223,16.66775223,,,,,,,,,,,,,,,,,,,,PF,3,strong,,,,,,,,3,0.600025,,,,,,,,,,,,,,,,,,,,,,,,,,,,8,strong,-33.99996287,-64.00002337,1,0,0,response5disk,4,130,20.00003874,-15.33335525,1,0,0,rectangle,20.00003874,-15.33335525,1,0,0,4,2,0.000375,20.00003874,-15.33335525,1,0,0,0,129,129,88,1,0,,,,,,,,,,,,,,,,,,,,,
,,,,,,,,,,,,,,,,,,,,,,,,,,,,,,,,,,,,,,,,,,,5b4b679dff74970001256d36,606a0f9a7f6602c70cdb5971,2021-04-04_20h13.04.445,Colour_Similarity_Experiment,2020.2.10,Win32,60,60675255c767bca6388caeee,17.15491903,16.70967049,16.66633663,16.66528317,16.66775223,16.66775223,,,,,,,,,,,,,,,,,,,,PF,3,weak,,,,,,,,3,1.58299,,,,,,,,,,,,,,,,,,,,,,,,,,,,6,weak,-53.99996346,-54.00002307,1,0,0,response5disk,8,131,-21.99996251,-23.33335549,1,0,0,rectangle,-21.99996251,-23.33335549,1,0,0,3,0,0.000385,-21.99996251,-23.33335549,1,0,0,0,130,130,64,1,0,,,,,,,,,,,,,,,,,,,,,
,,,,,,,,,,,,,,,,,,,,,,,,,,,,,,,,,,,,,,,,,,,5b4b679dff74970001256d36,606a0f9a7f6602c70cdb5971,2021-04-04_20h13.04.445,Colour_Similarity_Experiment,2020.2.10,Win32,60,60675255c767bca6388caeee,17.15491903,16.70967049,16.66633663,16.66528317,16.66775223,16.66775223,,,,,,,,,,,,,,,,,,,,PF,3,strong,,,,,,,,3,1.100055,,,,,,,,,,,,,,,,,,,,,,,,,,,,6,strong,-20.66662914,-104.6666912,1,0,0,response5disk,1,132,22.66678687,-7.33335501,1,0,0,rectangle,22.66678687,-7.33335501,1,0,0,3,4,0.000435,22.66678687,-7.33335501,1,0,0,0,131,131,5,1,0,,,,,,,,,,,,,,,,,,,,,
,,,,,,,,,,,,,,,,,,,,,,,,,,,,,,,,,,,,,,,,,,,5b4b679dff74970001256d36,606a0f9a7f6602c70cdb5971,2021-04-04_20h13.04.445,Colour_Similarity_Experiment,2020.2.10,Win32,60,60675255c767bca6388caeee,17.15491903,16.70967049,16.66633663,16.66528317,16.66775223,16.66775223,,,,,,,,,,,,,,,,,,,,PF,3,weak,,,,,,,,4,0.700125,,,,,,,,,,,,,,,,,,,,,,,,,,,,7,weak,38.00003928,-72.0000236,1,0,0,response3disk,3,133,-5.333213965,28.66664606,1,0,0,rectangle,-5.333213965,28.66664606,1,0,0,3,2,0.00039,-5.333213965,28.66664606,1,0,0,0,132,132,81,1,0,,,,,,,,,,,,,,,,,,,,,
,,,,,,,,,,,,,,,,,,,,,,,,,,,,,,,,,,,,,,,,,,,5b4b679dff74970001256d36,606a0f9a7f6602c70cdb5971,2021-04-04_20h13.04.445,Colour_Similarity_Experiment,2020.2.10,Win32,60,60675255c767bca6388caeee,17.15491903,16.70967049,16.66633663,16.66528317,16.66775223,16.66775223,,,,,,,,,,,,,,,,,,,,PF,3,strong,,,,,,,,4,0.34959,,,,,,,,,,,,,,,,,,,,,,,,,,,,9,strong,42.66678747,-58.66668987,1,0,0,response3disk,6,134,23.33337218,-6.000021636,1,0,0,rectangle,23.33337218,-6.000021636,1,0,0,3,7,0.00045,23.33337218,-6.000021636,1,0,0,0,133,133,117,1,0,,,,,,,,,,,,,,,,,,,,,
,,,,,,,,,,,,,,,,,,,,,,,,,,,,,,,,,,,,,,,,,,,5b4b679dff74970001256d36,606a0f9a7f6602c70cdb5971,2021-04-04_20h13.04.445,Colour_Similarity_Experiment,2020.2.10,Win32,60,60675255c767bca6388caeee,17.15491903,16.70967049,16.66633663,16.66528317,16.66775223,16.66775223,,,,,,,,,,,,,,,,,,,,PF,3,strong,,,,,,,,4,0.516685,,,,,,,,,,,,,,,,,,,,,,,,,,,,5,strong,48.66678764,-65.33335674,1,0,0,response3disk,8,135,14.66678663,-4.000021577,1,0,0,rectangle,14.66678663,-4.000021577,1,0,0,3,3,0.000405,14.66678663,-4.000021577,1,0,0,0,134,134,16,1,0,,,,,,,,,,,,,,,,,,,,,
,,,,,,,,,,,,,,,,,,,,,,,,,,,,,,,,,,,,,,,,,,,5b4b679dff74970001256d36,606a0f9a7f6602c70cdb5971,2021-04-04_20h13.04.445,Colour_Similarity_Experiment,2020.2.10,Win32,60,60675255c767bca6388caeee,17.15491903,16.70967049,16.66633663,16.66528317,16.66775223,16.66775223,,,,,,,,,,,,,,,,,,,,PF,3,strong,,,,,,,,3,0.34998,,,,,,,,,,,,,,,,,,,,,,,,,,,,7,strong,-34.66662955,-104.6666912,1,0,0,response5disk,2,136,23.33337218,-21.33335543,1,0,0,rectangle,23.33337218,-21.33335543,1,0,0,5,2,0.00039,23.33337218,-21.33335543,1,0,0,0,135,135,138,1,0,,,,,,,,,,,,,,,,,,,,,
,,,,,,,,,,,,,,,,,,,,,,,,,,,,,,,,,,,,,,,,,,,5b4b679dff74970001256d36,606a0f9a7f6602c70cdb5971,2021-04-04_20h13.04.445,Colour_Similarity_Experiment,2020.2.10,Win32,60,60675255c767bca6388caeee,17.15491903,16.70967049,16.66633663,16.66528317,16.66775223,16.66775223,,,,,,,,,,,,,,,,,,,,PF,3,strong,,,,,,,,3,1.183425,,,,,,,,,,,,,,,,,,,,,,,,,,,,1,strong,-46.66662991,-86.66669071,1,0,0,response5disk,1,137,23.33337218,-6.666688323,1,0,0,rectangle,23.33337218,-6.666688323,1,0,0,5,3,0.000395,23.33337218,-6.666688323,1,0,0,0,136,136,151,1,0,,,,,,,,,,,,,,,,,,,,,
,,,,,,,,,,,,,,,,,,,,,,,,,,,,,,,,,,,,,,,,,,,5b4b679dff74970001256d36,606a0f9a7f6602c70cdb5971,2021-04-04_20h13.04.445,Colour_Similarity_Experiment,2020.2.10,Win32,60,60675255c767bca6388caeee,17.15491903,16.70967049,16.66633663,16.66528317,16.66775223,16.66775223,,,,,,,,,,,,,,,,,,,,PF,3,weak,,,,,,,,1,1.91675,,,,,,,,,,,,,,,,,,,,,,,,,,,,3,weak,-69.33321587,26.666646,1,0,0,response7disk,3,138,-1.333213846,-10.66668844,1,0,0,rectangle,-1.333213846,-10.66668844,1,0,0,5,0,0.000385,-1.333213846,-10.66668844,1,0,0,0,137,137,4,1,0,,,,,,,,,,,,,,,,,,,,,
,,,,,,,,,,,,,,,,,,,,,,,,,,,,,,,,,,,,,,,,,,,5b4b679dff74970001256d36,606a0f9a7f6602c70cdb5971,2021-04-04_20h13.04.445,Colour_Similarity_Experiment,2020.2.10,Win32,60,60675255c767bca6388caeee,17.15491903,16.70967049,16.66633663,16.66528317,16.66775223,16.66775223,,,,,,,,,,,,,,,,,,,,PF,3,weak,,,,,,,,3,0.68324,,,,,,,,,,,,,,,,,,,,,,,,,,,,8,weak,-15.99996233,-74.00002366,1,0,0,response5disk,4,139,24.00003886,-10.00002176,1,0,0,rectangle,24.00003886,-10.00002176,1,0,0,5,3,0.000405,24.00003886,-10.00002176,1,0,0,0,138,138,78,1,0,,,,,,,,,,,,,,,,,,,,,
,,,,,,,,,,,,,,,,,,,,,,,,,,,,,,,,,,,,,,,,,,,5b4b679dff74970001256d36,606a0f9a7f6602c70cdb5971,2021-04-04_20h13.04.445,Colour_Similarity_Experiment,2020.2.10,Win32,60,60675255c767bca6388caeee,17.15491903,16.70967049,16.66633663,16.66528317,16.66775223,16.66775223,,,,,,,,,,,,,,,,,,,,PF,3,strong,,,,,,,,4,0.333365,,,,,,,,,,,,,,,,,,,,,,,,,,,,1,strong,28.66678705,-54.66668975,1,0,0,response3disk,5,140,30.00003904,-18.00002199,1,0,0,rectangle,30.00003904,-18.00002199,1,0,0,5,4,0.000395,30.00003904,-18.00002199,1,0,0,0,139,139,82,1,0,,,,,,,,,,,,,,,,,,,,,
,,,,,,,,,,,,,,,,,,,,,,,,,,,,,,,,,,,,,,,,,,,5b4b679dff74970001256d36,606a0f9a7f6602c70cdb5971,2021-04-04_20h13.04.445,Colour_Similarity_Experiment,2020.2.10,Win32,60,60675255c767bca6388caeee,17.15491903,16.70967049,16.66633663,16.66528317,16.66775223,16.66775223,,,,,,,,,,,,,,,,,,,,PF,3,strong,,,,,,,,3,0.78337,,,,,,,,,,,,,,,,,,,,,,,,,,,,9,strong,-41.9999631,-67.3333568,1,0,0,response5disk,5,141,15.33337194,-4.666688263,1,0,0,rectangle,15.33337194,-4.666688263,1,0,0,5,3,0.00043,15.33337194,-4.666688263,1,0,0,0,140,140,128,1,0,,,,,,,,,,,,,,,,,,,,,
,,,,,,,,,,,,,,,,,,,,,,,,,,,,,,,,,,,,,,,,,,,5b4b679dff74970001256d36,606a0f9a7f6602c70cdb5971,2021-04-04_20h13.04.445,Colour_Similarity_Experiment,2020.2.10,Win32,60,60675255c767bca6388caeee,17.15491903,16.70967049,16.66633663,16.66528317,16.66775223,16.66775223,,,,,,,,,,,,,,,,,,,,PF,3,weak,,,,,,,,3,0.700035,,,,,,,,,,,,,,,,,,,,,,,,,,,,9,weak,-48.66662997,-72.0000236,1,0,0,response5disk,9,142,18.00003868,-0.666688144,1,0,0,rectangle,18.00003868,-0.666688144,1,0,0,5,3,0.000065,18.00003868,-0.666688144,1,0,0,0,141,141,106,1,0,,,,,,,,,,,,,,,,,,,,,
,,,,,,,,,,,,,,,,,,,,,,,,,,,,,,,,,,,,,,,,,,,5b4b679dff74970001256d36,606a0f9a7f6602c70cdb5971,2021-04-04_20h13.04.445,Colour_Similarity_Experiment,2020.2.10,Win32,60,60675255c767bca6388caeee,17.15491903,16.70967049,16.66633663,16.66528317,16.66775223,16.66775223,,,,,,,,,,,,,,,,,,,,PF,3,weak,,,,,,,,4,1.0834,,,,,,,,,,,,,,,,,,,,,,,,,,,,3,weak,74.66678842,-94.66669095,1,0,0,response3disk,4,143,4.666786333,9.333312154,1,0,0,rectangle,4.666786333,9.333312154,1,0,0,5,2,0.000375,4.666786333,9.333312154,1,0,0,0,142,142,30,1,0,,,,,,,,,,,,,,,,,,,,,
,,,,,,,,,,,,,,,,,,,,,,,,,,,,,,,,,,,,,,,,,,,5b4b679dff74970001256d36,606a0f9a7f6602c70cdb5971,2021-04-04_20h13.04.445,Colour_Similarity_Experiment,2020.2.10,Win32,60,60675255c767bca6388caeee,17.15491903,16.70967049,16.66633663,16.66528317,16.66775223,16.66775223,,,,,,,,,,,,,,,,,,,,PF,3,strong,,,,,,,,4,0.38333,,,,,,,,,,,,,,,,,,,,,,,,,,,,6,strong,20.66678681,-82.66669059,1,0,0,response3disk,4,144,-9.999962151,-14.66668856,1,0,0,rectangle,-9.999962151,-14.66668856,1,0,0,5,1,0.000385,-9.999962151,-14.66668856,1,0,0,0,143,143,56,1,0,,,,,,,,,,,,,,,,,,,,,
,,,,,,,,,,,,,,,,,,,,,,,,,,,,,,,,,,,,,,,,,,,5b4b679dff74970001256d36,606a0f9a7f6602c70cdb5971,2021-04-04_20h13.04.445,Colour_Similarity_Experiment,2020.2.10,Win32,60,60675255c767bca6388caeee,17.15491903,16.70967049,16.66633663,16.66528317,16.66775223,16.66775223,,,,,,,,,,,,,,,,,,,,PF,3,weak,,,,,,,,4,0.31669,,,,,,,,,,,,,,,,,,,,,,,,,,,,3,weak,32.66678717,-82.0000239,1,0,0,response3disk,5,145,20.00003874,-13.33335519,1,0,0,rectangle,20.00003874,-13.33335519,1,0,0,5,4,0.00042,20.00003874,-13.33335519,1,0,0,0,144,144,66,1,0,,,,,,,,,,,,,,,,,,,,,
,,,,,,,,,,,,,,,,,,,,,,,,,,,,,,,,,,,,,,,,,,,5b4b679dff74970001256d36,606a0f9a7f6602c70cdb5971,2021-04-04_20h13.04.445,Colour_Similarity_Experiment,2020.2.10,Win32,60,60675255c767bca6388caeee,17.15491903,16.70967049,16.66633663,16.66528317,16.66775223,16.66775223,,,,,,,,,,,,,,,,,,,,PF,3,weak,,,,,,,,4,0.166695,,,,,,,,,,,,,,,,,,,,,,,,,,,,5,weak,54.00003976,-72.66669029,1,0,0,response3disk,9,146,14.00003856,-18.66668868,1,0,0,rectangle,-55.99996352,-86.66669071,1,0,0,3,3,1.883255,-8.666628778,-16.66668862,1,0,0,0,145,145,136,1,1,response5disk_3,rectangle,,,,,,,,,,,,,,,,,,,
,,,,,,,,,,,,,,,,,,,,,,,,,,,,,,,,,,,,,,,,,,,5b4b679dff74970001256d36,606a0f9a7f6602c70cdb5971,2021-04-04_20h13.04.445,Colour_Similarity_Experiment,2020.2.10,Win32,60,60675255c767bca6388caeee,17.15491903,16.70967049,16.66633663,16.66528317,16.66775223,16.66775223,,,,,,,,,,,,,,,,,,,,PF,3,weak,,,,,,,,4,1.116975,,,,,,,,,,,,,,,,,,,,,,,,,,,,8,weak,37.33337259,-92.0000242,1,0,0,response3disk,2,147,19.33337206,-24.66668886,1,0,0,rectangle,19.33337206,-24.66668886,1,0,0,4,7,0.00041,19.33337206,-24.66668886,1,0,0,0,146,146,83,1,0,,,,,,,,,,,,,,,,,,,,,
,,,,,,,,,,,,,,,,,,,,,,,,,,,,,,,,,,,,,,,,,,,5b4b679dff74970001256d36,606a0f9a7f6602c70cdb5971,2021-04-04_20h13.04.445,Colour_Similarity_Experiment,2020.2.10,Win32,60,60675255c767bca6388caeee,17.15491903,16.70967049,16.66633663,16.66528317,16.66775223,16.66775223,,,,,,,,,,,,,,,,,,,,PF,3,weak,,,,,,,,4,0.66678,,,,,,,,,,,,,,,,,,,,,,,,,,,,7,weak,42.66678747,-82.0000239,1,0,0,response3disk,6,148,-1.333213846,-4.000021577,1,0,0,rectangle,-1.333213846,-4.000021577,1,0,0,4,2,0.000385,-1.333213846,-4.000021577,1,0,0,0,147,147,29,1,0,,,,,,,,,,,,,,,,,,,,,
,,,,,,,,,,,,,,,,,,,,,,,,,,,,,,,,,,,,,,,,,,,5b4b679dff74970001256d36,606a0f9a7f6602c70cdb5971,2021-04-04_20h13.04.445,Colour_Similarity_Experiment,2020.2.10,Win32,60,60675255c767bca6388caeee,17.15491903,16.70967049,16.66633663,16.66528317,16.66775223,16.66775223,,,,,,,,,,,,,,,,,,,,PF,3,weak,,,,,,,,4,0.716745,,,,,,,,,,,,,,,,,,,,,,,,,,,,9,weak,59.33337325,-81.33335721,1,0,0,response3disk,3,149,22.66678687,-18.00002199,1,0,0,rectangle,22.66678687,-18.00002199,1,0,0,5,7,0.000405,22.66678687,-18.00002199,1,0,0,0,148,148,119,1,0,,,,,,,,,,,,,,,,,,,,,
,,,,,,,,,,,,,,,,,,,,,,,,,,,,,,,,,,,,,,,,,,,5b4b679dff74970001256d36,606a0f9a7f6602c70cdb5971,2021-04-04_20h13.04.445,Colour_Similarity_Experiment,2020.2.10,Win32,60,60675255c767bca6388caeee,17.15491903,16.70967049,16.66633663,16.66528317,16.66775223,16.66775223,,,,,,,,,,,,,,,,,,,,PF,3,strong,,,,,,,,3,1.183405,,,,,,,,,,,,,,,,,,,,,,,,,,,,9,strong,-29.99996275,-86.66669071,1,0,0,response5disk,9,150,-11.33321414,15.99997902,1,0,0,rectangle,-11.33321414,15.99997902,1,0,0,5,3,0.00038,-11.33321414,15.99997902,1,0,0,0,149,149,17,1,0,,,,,,,,,,,,,,,,,,,,,
,,,,,,,,,,,,,,,,,,,,,,,,,,,,,,,,,,,,,,,,,,,5b4b679dff74970001256d36,606a0f9a7f6602c70cdb5971,2021-04-04_20h13.04.445,Colour_Similarity_Experiment,2020.2.10,Win32,60,60675255c767bca6388caeee,17.15491903,16.70967049,16.66633663,16.66528317,16.66775223,16.66775223,,,,,,,,,,,,,,,,,,,,PF,3,strong,,,,,,,,4,0.95005,,,,,,,,,,,,,,,,,,,,,,,,,,,,4,strong,46.66678758,-82.0000239,1,0,0,response3disk,1,151,-9.999962151,9.99997884,1,0,0,rectangle,-9.999962151,9.99997884,1,0,0,5,6,0.000445,-9.999962151,9.99997884,1,0,0,0,150,150,102,1,0,,,,,,,,,,,,,,,,,,,,,
,,,,,,,,,,,,,,,,,,,,,,,,,,,,,,,,,,,,,,,,,,,5b4b679dff74970001256d36,606a0f9a7f6602c70cdb5971,2021-04-04_20h13.04.445,Colour_Similarity_Experiment,2020.2.10,Win32,60,60675255c767bca6388caeee,17.15491903,16.70967049,16.66633663,16.66528317,16.66775223,16.66775223,,,,,,,,,,,,,,,,,,,,PF,3,strong,,,,,,,,4,0.366545,,,,,,,,,,,,,,,,,,,,,,,,,,,,3,strong,57.33337319,-89.33335745,1,0,0,response3disk,1,152,6.000038326,25.99997932,1,0,0,rectangle,6.000038326,25.99997932,1,0,0,5,1,0.000395,6.000038326,25.99997932,1,0,0,0,151,151,125,1,0,,,,,,,,,,,,,,,,,,,,,
,,,,,,,,,,,,,,,,,,,,,,,,,,,,,,,,,,,,,,,,,,,5b4b679dff74970001256d36,606a0f9a7f6602c70cdb5971,2021-04-04_20h13.04.445,Colour_Similarity_Experiment,2020.2.10,Win32,60,60675255c767bca6388caeee,17.15491903,16.70967049,16.66633663,16.66528317,16.66775223,16.66775223,,,,,,,,,,,,,,,,,,,,PF,3,weak,,,,,,,,4,0.266535,,,,,,,,,,,,,,,,,,,,,,,,,,,,1,weak,61.33337331,-80.66669053,1,0,0,response3disk,8,153,-3.333213905,21.33331251,1,0,0,rectangle,-3.333213905,21.33331251,1,0,0,5,5,0.0004,-3.333213905,21.33331251,1,0,0,0,152,152,65,1,0,,,,,,,,,,,,,,,,,,,,,
,,,,,,,,,,,,,,,,,,,,,,,,,,,,,,,,,,,,,,,,,,,5b4b679dff74970001256d36,606a0f9a7f6602c70cdb5971,2021-04-04_20h13.04.445,Colour_Similarity_Experiment,2020.2.10,Win32,60,60675255c767bca6388caeee,17.15491903,16.70967049,16.66633663,16.66528317,16.66775223,16.66775223,,,,,,,,,,,,,,,,,,,,PF,3,weak,,,,,,,,3,0.366555,,,,,,,,,,,,,,,,,,,,,,,,,,,,3,weak,-25.99996263,-102.6666912,1,0,0,response5disk,8,154,31.33337241,9.99997884,1,0,0,rectangle,31.33337241,9.99997884,1,0,0,5,5,0.000055,31.33337241,9.99997884,1,0,0,0,153,153,3,1,0,,,,,,,,,,,,,,,,,,,,,
,,,,,,,,,,,,,,,,,,,,,,,,,,,,,,,,,,,,,,,,,,,5b4b679dff74970001256d36,606a0f9a7f6602c70cdb5971,2021-04-04_20h13.04.445,Colour_Similarity_Experiment,2020.2.10,Win32,60,60675255c767bca6388caeee,17.15491903,16.70967049,16.66633663,16.66528317,16.66775223,16.66775223,,,,,,,,,,,,,,,,,,,,PF,3,strong,,,,,,,,3,0.26512,,,,,,,,,,,,,,,,,,,,,,,,,,,,3,strong,-20.66662914,-88.00002408,1,0,0,response5disk,8,155,4.000038266,-15.33335525,1,0,0,rectangle,4.000038266,-15.33335525,1,0,0,5,7,0.000395,4.000038266,-15.33335525,1,0,0,0,154,154,44,1,0,,,,,,,,,,,,,,,,,,,,,
,,,,,,,,,,,,,,,,,,,,,,,,,,,,,,,,,,,,,,,,,,,5b4b679dff74970001256d36,606a0f9a7f6602c70cdb5971,2021-04-04_20h13.04.445,Colour_Similarity_Experiment,2020.2.10,Win32,60,60675255c767bca6388caeee,17.15491903,16.70967049,16.66633663,16.66528317,16.66775223,16.66775223,,,,,,,,,,,,,,,,,,,,PF,3,weak,,,,,,,,3,0.549905,,,,,,,,,,,,,,,,,,,,,,,,,,,,2,weak,-15.99996233,-81.33335721,1,0,0,response5disk,1,156,2.666786273,-0.666688144,1,0,0,rectangle,2.666786273,-0.666688144,1,0,0,5,7,5.5E-05,2.666786273,-0.666688144,1,0,0,0,155,155,9,1,0,,,,,,,,,,,,,,,,,,,,,
,,,,,,,,,,,,,,,,,,,,,,,,,,,,,,,,,,,,,,,,,,,5b4b679dff74970001256d36,606a0f9a7f6602c70cdb5971,2021-04-04_20h13.04.445,Colour_Similarity_Experiment,2020.2.10,Win32,60,60675255c767bca6388caeee,17.15491903,16.70967049,16.66633663,16.66528317,16.66775223,16.66775223,,,,,,,,,,,,,,,,,,,,PF,3,strong,,,,,,,,3,1.166765,,,,,,,,,,,,,,,,,,,,,,,,,,,,5,strong,-45.99996322,-84.66669065,1,0,0,response5disk,7,157,12.0000385,5.333312035,1,0,0,rectangle,12.0000385,5.333312035,1,0,0,5,4,0.00039,12.0000385,5.333312035,1,0,0,0,156,156,7,1,0,,,,,,,,,,,,,,,,,,,,,
,,,,,,,,,,,,,,,,,,,,,,,,,,,,,,,,,,,,,,,,,,,5b4b679dff74970001256d36,606a0f9a7f6602c70cdb5971,2021-04-04_20h13.04.445,Colour_Similarity_Experiment,2020.2.10,Win32,60,60675255c767bca6388caeee,17.15491903,16.70967049,16.66633663,16.66528317,16.66775223,16.66775223,,,,,,,,,,,,,,,,,,,,PF,3,weak,,,,,,,,4,0.88334,,,,,,,,,,,,,,,,,,,,,,,,,,,,7,weak,33.33337247,-75.33335704,1,0,0,response3disk,2,158,14.00003856,-4.000021577,1,0,0,rectangle,14.00003856,-4.000021577,1,0,0,5,0,0.000375,14.00003856,-4.000021577,1,0,0,0,157,157,32,1,0,,,,,,,,,,,,,,,,,,,,,
,,,,,,,,,,,,,,,,,,,,,,,,,,,,,,,,,,,,,,,,,,,5b4b679dff74970001256d36,606a0f9a7f6602c70cdb5971,2021-04-04_20h13.04.445,Colour_Similarity_Experiment,2020.2.10,Win32,60,60675255c767bca6388caeee,17.15491903,16.70967049,16.66633663,16.66528317,16.66775223,16.66775223,,,,,,,,,,,,,,,,,,,,PF,3,strong,,,,,,,,4,0.8667,,,,,,,,,,,,,,,,,,,,,,,,,,,,6,strong,36.66678729,-69.33335686,1,0,0,response3disk,2,159,-8.666628778,1.333311915,1,0,0,rectangle,-8.666628778,1.333311915,1,0,0,5,3,0.000385,-8.666628778,1.333311915,1,0,0,0,158,158,112,1,0,,,,,,,,,,,,,,,,,,,,,
,,,,,,,,,,,,,,,,,,,,,,,,,,,,,,,,,,,,,,,,,,,5b4b679dff74970001256d36,606a0f9a7f6602c70cdb5971,2021-04-04_20h13.04.445,Colour_Similarity_Experiment,2020.2.10,Win32,60,60675255c767bca6388caeee,17.15491903,16.70967049,16.66633663,16.66528317,16.66775223,16.66775223,,,,,,,,,,,,,,,,,,,,PF,3,strong,,,,,,,,4,0.23319,,,,,,,,,,,,,,,,,,,,,,,,,,,,6,strong,54.66678782,-76.00002372,1,0,0,response3disk,3,160,3.33337158,1.333311915,1,0,0,rectangle,3.33337158,1.333311915,1,0,0,5,3,0.00006,3.33337158,1.333311915,1,0,0,0,159,159,21,1,0,,,,,,,,,,,,,,,,,,,,,
,,,,,,,,,,,,,,,,,,,,,,,,,,,,,,,,,,,,,,,,,,,5b4b679dff74970001256d36,606a0f9a7f6602c70cdb5971,2021-04-04_20h13.04.445,Colour_Similarity_Experiment,2020.2.10,Win32,60,60675255c767bca6388caeee,17.15491903,16.70967049,16.66633663,16.66528317,16.66775223,16.66775223,,,,,,,,,,,,,,,,,,,,PF,3,weak,,,,,,,,4,1.783385,,,,,,,,,,,,,,,,,,,,,,,,,,,,7,weak,72.66678836,-84.66669065,1,0,0,response3disk,9,161,6.000038326,-6.666688323,1,0,0,rectangle,6.000038326,-6.666688323,1,0,0,5,5,0.000395,6.000038326,-6.666688323,1,0,0,0,160,160,10,1,0,,,,,,,,,,,,,,,,,,,,,
,,,,,,,,,,,,,,,,,,,,,,,,,,,,,,,,,,,,,,,,,,,5b4b679dff74970001256d36,606a0f9a7f6602c70cdb5971,2021-04-04_20h13.04.445,Colour_Similarity_Experiment,2020.2.10,Win32,60,60675255c767bca6388caeee,17.15491903,16.70967049,16.66633663,16.66528317,16.66775223,16.66775223,,,,,,,,,,,,,,,,,,,,PF,3,strong,,,,,,,,3,0.75003,,,,,,,,,,,,,,,,,,,,,,,,,,,,2,strong,-32.66662949,-118.000025,1,0,0,response5disk,1,162,50.00003964,13.99997896,1,0,0,rectangle,50.00003964,13.99997896,1,0,0,5,5,0.000065,50.00003964,13.99997896,1,0,0,0,161,161,85,1,0,,,,,,,,,,,,,,,,,,,,,
,,,,,,,,,,,,,,,,,,,,,,,,,,,,,,,,,,,,,,,,,,,5b4b679dff74970001256d36,606a0f9a7f6602c70cdb5971,2021-04-04_20h13.04.445,Colour_Similarity_Experiment,2020.2.10,Win32,60,60675255c767bca6388caeee,17.15491903,16.70967049,16.66633663,16.66528317,16.66775223,16.66775223,,,,,,,,,,,,,,,,,,,,,,,,,,,,,,,,,,,,,,,,,,,,,,,,,,,,,,,,,,,,,,,,,,,,,,,,,,,,,,,,,,,,,,,,,,,,,,,,0,0,0,0,1,,,,,,,,,,,,,,
,,,,,,,,,,,,,,,,,,,,,,,,,,,,,,,,,,,,,,,,,,,5b4b679dff74970001256d36,606a0f9a7f6602c70cdb5971,2021-04-04_20h13.04.445,Colour_Similarity_Experiment,2020.2.10,Win32,60,60675255c767bca6388caeee,17.15491903,16.70967049,16.66633663,16.66528317,16.66775223,16.66775223,,,,,,,,,,,,,,,,,,,,PF,3,weak,,,,,,,,3,0.68326,,,,,,,,,,,,,,,,,,,,,,,,,,,,1,weak,-47.99996328,-95.33335763,1,0,0,response5disk,7,163,2.000038207,11.33331221,1,0,0,rectangle,2.000038207,11.33331221,1,0,0,5,5,0.000065,2.000038207,11.33331221,1,0,0,0,0,0,150,1,0,,,,,,,,,,,,,,,,,,,,,
,,,,,,,,,,,,,,,,,,,,,,,,,,,,,,,,,,,,,,,,,,,5b4b679dff74970001256d36,606a0f9a7f6602c70cdb5971,2021-04-04_20h13.04.445,Colour_Similarity_Experiment,2020.2.10,Win32,60,60675255c767bca6388caeee,17.15491903,16.70967049,16.66633663,16.66528317,16.66775223,16.66775223,,,,,,,,,,,,,,,,,,,,PF,3,strong,,,,,,,,4,1.01669,,,,,,,,,,,,,,,,,,,,,,,,,,,,4,strong,51.33337301,-106.6666913,1,0,0,response3disk,3,164,24.00003886,-14.66668856,1,0,0,rectangle,24.00003886,-14.66668856,1,0,0,5,5,5E-05,24.00003886,-14.66668856,1,0,0,0,1,1,77,1,0,,,,,,,,,,,,,,,,,,,,,
,,,,,,,,,,,,,,,,,,,,,,,,,,,,,,,,,,,,,,,,,,,5b4b679dff74970001256d36,606a0f9a7f6602c70cdb5971,2021-04-04_20h13.04.445,Colour_Similarity_Experiment,2020.2.10,Win32,60,60675255c767bca6388caeee,17.15491903,16.70967049,16.66633663,16.66528317,16.66775223,16.66775223,,,,,,,,,,,,,,,,,,,,PF,3,weak,,,,,,,,4,0.266685,,,,,,,,,,,,,,,,,,,,,,,,,,,,6,weak,24.66678693,-76.00002372,1,0,0,response3disk,9,165,10.00003844,-2.666688204,1,0,0,rectangle,10.00003844,-2.666688204,1,0,0,5,7,0.000365,10.00003844,-2.666688204,1,0,0,0,2,2,45,1,0,,,,,,,,,,,,,,,,,,,,,
,,,,,,,,,,,,,,,,,,,,,,,,,,,,,,,,,,,,,,,,,,,5b4b679dff74970001256d36,606a0f9a7f6602c70cdb5971,2021-04-04_20h13.04.445,Colour_Similarity_Experiment,2020.2.10,Win32,60,60675255c767bca6388caeee,17.15491903,16.70967049,16.66633663,16.66528317,16.66775223,16.66775223,,,,,,,,,,,,,,,,,,,,PF,3,weak,,,,,,,,4,0.166725,,,,,,,,,,,,,,,,,,,,,,,,,,,,4,weak,40.00003934,-78.66669047,1,0,0,response3disk,4,166,34.66678723,-20.66668874,1,0,0,rectangle,34.66678723,-20.66668874,1,0,0,5,4,0.00036,34.66678723,-20.66668874,1,0,0,0,3,3,70,1,0,,,,,,,,,,,,,,,,,,,,,
