key_resp.keys,key_resp.rt,key_resp_16.keys,key_resp_16.rt,key_resp_2.keys,key_resp_2.rt,X Scale,ratio_pxpermm,screen_size_x,screen_size_y,testsize,key_resp_3.keys,key_resp_4.keys,key_resp_4.rt,line_size,key_resp_5.keys,key_resp_5.rt,key_resp_6.keys,key_resp_6.rt,key_resp_8.keys,key_resp_8.rt,key_resp_7.keys,key_resp_7.rt,key_resp_12.keys,key_resp_12.rt,key_resp_11.keys,key_resp_11.rt,key_resp_18.keys,key_resp_18.rt,key_resp_21.keys,key_resp_21.rt,key_resp_13.keys,key_resp_13.rt,key_resp_19.keys,key_resp_19.rt,ballposx,viewer_distance,trials.thisRepN,trials.thisTrialN,trials.thisN,trials.thisIndex,trials.ran,participant,session,date,expName,psychopyVersion,OS,frameRate,study_id,realFrameRate1,realFrameRate2,realFrameRate3,realFrameRate4,realFrameRate5,realFrameRate,viewerdistancecm,DVA_to_distance,radius_F,radius_P,r_F,R_P,key_resp_20.keys,key_resp_20.rt,key_resp_14.keys,key_resp_14.rt,key_resp_15.keys,key_resp_15.rt,key_resp_17.keys,key_resp_17.rt,key_resp_9.keys,key_resp_9.rt,key_resp_10.keys,key_resp_10.rt,Colour_1,Ecc,mask_frames,maskCon,mouse_5.x,mouse_5.y,mouse_5.leftButton,mouse_5.midButton,mouse_5.rightButton,mouse_5.clicked_name,Colour_2,similarity,response_time,mouse_10.x,mouse_10.y,mouse_10.leftButton,mouse_10.midButton,mouse_10.rightButton,mouse_10.clicked_name,mouse_7.x,mouse_7.y,mouse_7.leftButton,mouse_7.midButton,mouse_7.rightButton,mouse_7.clicked_name,catchprac,catchnumberprac,mouse_6.x,mouse_6.y,mouse_6.leftButton,mouse_6.midButton,mouse_6.rightButton,mouse_6.clicked_name,duringprac.thisRepN,duringprac.thisTrialN,duringprac.thisN,duringprac.thisIndex,duringprac.ran,key_resp_22.keys,key_resp_22.rt,Colour1,maskCon1,mouse.x,mouse.y,mouse.leftButton,mouse.midButton,mouse.rightButton,mouse.clicked_name,Colour2,trialnumber,mouse_2.x,mouse_2.y,mouse_2.leftButton,mouse_2.midButton,mouse_2.rightButton,mouse_2.clicked_name,mouse_3.x,mouse_3.y,mouse_3.leftButton,mouse_3.midButton,mouse_3.rightButton,catchresponse,catchnumber,response_time_catch,mouse_11.x,mouse_11.y,mouse_11.leftButton,mouse_11.midButton,mouse_11.rightButton,trials_2.thisRepN,trials_2.thisTrialN,trials_2.thisN,trials_2.thisIndex,trials_2.ran,Catch,mouse_3.clicked_name,mouse_11.clicked_name,trials_3.thisRepN,trials_3.thisTrialN,trials_3.thisN,trials_3.thisIndex,trials_3.ran,answer1,rt1,answer2,rt2,answer3,rt3,answer4,rt4,answer5,rt5,answer6,rt6,answer7,rt7
space,31.03745,space,424.92677,space,239.876965,51.8,5.18,370.6563707,208.4942085,1920,,space,7.278815,103.6,space,7.03014,space,7.697715,space,4.704165,space,3.659915,space,7.33425,space,6.99223,space,23.391055,space,46.56307,space,14.482195,return,3.203245,-391.68,932.512863,0,0,0,0,1,5baf06d756161d0001fe6dde,606a0f19fdff34be840b640b,2021-04-04_21h15.37.765,Colour_Similarity_Experiment,2020.2.10,Win32,60,60675255c767bca6388caeee,8.348204999,8.694109108,8.332488288,8.344062857,8.33653917,8.344062857,,,,,,,,,,,,,,,,,,,,,,,,,,,,,,,,,,,,,,,,,,,,,,,,,,,,,,,,,,,,,,,,,,,,,,,,,,,,,,,,,,,,,,,,,,,,,,,,,,,,,,,,,,,,,,,,,,
,,,,,,,,,,,,,,,,,,,,,,,,,,,,,,,,,return,2.79941,-250.56,819.036546,1,0,1,0,1,5baf06d756161d0001fe6dde,606a0f19fdff34be840b640b,2021-04-04_21h15.37.765,Colour_Similarity_Experiment,2020.2.10,Win32,60,60675255c767bca6388caeee,8.348204999,8.694109108,8.332488288,8.344062857,8.33653917,8.344062857,,,,,,,,,,,,,,,,,,,,,,,,,,,,,,,,,,,,,,,,,,,,,,,,,,,,,,,,,,,,,,,,,,,,,,,,,,,,,,,,,,,,,,,,,,,,,,,,,,,,,,,,,,,,,,,,,,
,,,,,,,,,,,,,,,,,,,,,,,,,,,,,,,,,return,2.62268,-190.08,770.4038388,2,0,2,0,1,5baf06d756161d0001fe6dde,606a0f19fdff34be840b640b,2021-04-04_21h15.37.765,Colour_Similarity_Experiment,2020.2.10,Win32,60,60675255c767bca6388caeee,8.348204999,8.694109108,8.332488288,8.344062857,8.33653917,8.344062857,,,,,,,,,,,,,,,,,,,,,,,,,,,,,,,,,,,,,,,,,,,,,,,,,,,,,,,,,,,,,,,,,,,,,,,,,,,,,,,,,,,,,,,,,,,,,,,,,,,,,,,,,,,,,,,,,,
,,,,,,,,,,,,,,,,,,,,,,,,,,,,,,,,,return,2.680875,-210.24,786.6147412,3,0,3,0,1,5baf06d756161d0001fe6dde,606a0f19fdff34be840b640b,2021-04-04_21h15.37.765,Colour_Similarity_Experiment,2020.2.10,Win32,60,60675255c767bca6388caeee,8.348204999,8.694109108,8.332488288,8.344062857,8.33653917,8.344062857,,,,,,,,,,,,,,,,,,,,,,,,,,,,,,,,,,,,,,,,,,,,,,,,,,,,,,,,,,,,,,,,,,,,,,,,,,,,,,,,,,,,,,,,,,,,,,,,,,,,,,,,,,,,,,,,,,
,,,,,,,,,,,,,,,,,,,,,,,,,,,,,,,,,return,2.355905,-97.92,696.2968563,4,0,4,0,1,5baf06d756161d0001fe6dde,606a0f19fdff34be840b640b,2021-04-04_21h15.37.765,Colour_Similarity_Experiment,2020.2.10,Win32,60,60675255c767bca6388caeee,8.348204999,8.694109108,8.332488288,8.344062857,8.33653917,8.344062857,,,,,,,,,,,,,,,,,,,,,,,,,,,,,,,,,,,,,,,,,,,,,,,,,,,,,,,,,,,,,,,,,,,,,,,,,,,,,,,,,,,,,,,,,,,,,,,,,,,,,,,,,,,,,,,,,,
,,,,,,,,,,,,,,,,,,,,,,,,,,,,,,,,,,,,,,,,,,5baf06d756161d0001fe6dde,606a0f19fdff34be840b640b,2021-04-04_21h15.37.765,Colour_Similarity_Experiment,2020.2.10,Win32,60,60675255c767bca6388caeee,8.348204999,8.694109108,8.332488288,8.344062857,8.33653917,8.344062857,79,13.78949636,107.1443867,714.2959115,71.42959115,321.4331602,space,4.48441,space,63.508735,space,41.37961,space,12.815615,space,2.220465,space,5.89504,8,PF,6,weak,-54,-119,1,0,0,response5disk_5,7,3,14.98551,9,2,1,0,0,rectangle_8,91,-114,1,0,0,response3disk_7,4,4,7,2,1,0,0,rectangle_4,0,0,0,1,1,,,,,,,,,,,,,,,,,,,,,,,,,,,,,,,,,,,,,,,,,,,,,,,,,,,,,,,,,,
,,,,,,,,,,,,,,,,,,,,,,,,,,,,,,,,,,,,,,,,,,5baf06d756161d0001fe6dde,606a0f19fdff34be840b640b,2021-04-04_21h15.37.765,Colour_Similarity_Experiment,2020.2.10,Win32,60,60675255c767bca6388caeee,8.348204999,8.694109108,8.332488288,8.344062857,8.33653917,8.344062857,,,,,,,,,,,,,,,,,,,2,PF,6,strong,-113,-41,1,0,0,response5disk_5,8,2,8.39093,1,4,1,0,0,rectangle_8,1,4,1,0,0,,,4,1,4,1,0,0,,0,1,1,2,1,,,,,,,,,,,,,,,,,,,,,,,,,,,,,,,,,,,,,,,,,,,,,,,,,,,,,,,,,,
,,,,,,,,,,,,,,,,,,,,,,,,,,,,,,,,,,,,,,,,,,5baf06d756161d0001fe6dde,606a0f19fdff34be840b640b,2021-04-04_21h15.37.765,Colour_Similarity_Experiment,2020.2.10,Win32,60,60675255c767bca6388caeee,8.348204999,8.694109108,8.332488288,8.344062857,8.33653917,8.344062857,,,,,,,,,,,,,,,,,,,6,PF,6,weak,116,72,1,0,0,response1disk_5,3,6,6.232425,7,-3,1,0,0,rectangle_8,7,-3,1,0,0,,,4,7,-3,1,0,0,,0,2,2,6,1,,,,,,,,,,,,,,,,,,,,,,,,,,,,,,,,,,,,,,,,,,,,,,,,,,,,,,,,,,
,,,,,,,,,,,,,,,,,,,,,,,,,,,,,,,,,,,,,,,,,,5baf06d756161d0001fe6dde,606a0f19fdff34be840b640b,2021-04-04_21h15.37.765,Colour_Similarity_Experiment,2020.2.10,Win32,60,60675255c767bca6388caeee,8.348204999,8.694109108,8.332488288,8.344062857,8.33653917,8.344062857,,,,,,,,,,,,,,,,,,,5,PF,6,strong,-42,-99,1,0,0,response5disk_5,5,3,5.47504,3,-9,1,0,0,rectangle_8,3,-9,1,0,0,,,4,3,-9,1,0,0,,0,3,3,0,1,,,,,,,,,,,,,,,,,,,,,,,,,,,,,,,,,,,,,,,,,,,,,,,,,,,,,,,,,,
,,,,,,,,,,,,,,,,,,,,,,,,,,,,,,,,,,,,,,,,,,5baf06d756161d0001fe6dde,606a0f19fdff34be840b640b,2021-04-04_21h15.37.765,Colour_Similarity_Experiment,2020.2.10,Win32,60,60675255c767bca6388caeee,8.348204999,8.694109108,8.332488288,8.344062857,8.33653917,8.344062857,,,,,,,,,,,,,,,,,,,7,PF,6,weak,122,-65,1,0,0,response3disk_5,7,5,5.063175,-1,1,1,0,0,rectangle_8,-1,1,1,0,0,,,4,-1,1,1,0,0,,0,4,4,4,1,,,,,,,,,,,,,,,,,,,,,,,,,,,,,,,,,,,,,,,,,,,,,,,,,,,,,,,,,,
,,,,,,,,,,,,,,,,,,,,,,,,,,,,,,,,,,,,,,,,,,5baf06d756161d0001fe6dde,606a0f19fdff34be840b640b,2021-04-04_21h15.37.765,Colour_Similarity_Experiment,2020.2.10,Win32,60,60675255c767bca6388caeee,8.348204999,8.694109108,8.332488288,8.344062857,8.33653917,8.344062857,,,,,,,,,,,,,,,,,,,5,PF,6,weak,125,50,1,0,0,response1disk_5,4,6,4.771935,-6,7,1,0,0,rectangle_8,41,-96,1,0,0,response3disk_7,4,4,7,-8,1,0,0,rectangle_4,0,5,5,5,1,,,,,,,,,,,,,,,,,,,,,,,,,,,,,,,,,,,,,,,,,,,,,,,,,,,,,,,,,,
,,,,,,,,,,,,,,,,,,,,,,,,,,,,,,,,,,,,,,,,,,5baf06d756161d0001fe6dde,606a0f19fdff34be840b640b,2021-04-04_21h15.37.765,Colour_Similarity_Experiment,2020.2.10,Win32,60,60675255c767bca6388caeee,8.348204999,8.694109108,8.332488288,8.344062857,8.33653917,8.344062857,,,,,,,,,,,,,,,,,,,8,PF,6,strong,-114,-55,1,0,0,response5disk_5,9,2,4.255385,1,5,1,0,0,rectangle_8,1,5,1,0,0,,,4,1,5,1,0,0,,0,6,6,3,1,,,,,,,,,,,,,,,,,,,,,,,,,,,,,,,,,,,,,,,,,,,,,,,,,,,,,,,,,,
,,,,,,,,,,,,,,,,,,,,,,,,,,,,,,,,,,,,,,,,,,5baf06d756161d0001fe6dde,606a0f19fdff34be840b640b,2021-04-04_21h15.37.765,Colour_Similarity_Experiment,2020.2.10,Win32,60,60675255c767bca6388caeee,8.348204999,8.694109108,8.332488288,8.344062857,8.33653917,8.344062857,,,,,,,,,,,,,,,,,,,,PF,6,strong,,,,,,,,5,4.341275,,,,,,,,,,,,,,,,,,,,,,,,,,space,3.404875,7,strong,92,-47,1,0,0,response3disk,5,1,0,-2,1,0,0,rectangle,0,-2,1,0,0,,7,0.00235,0,-2,1,0,0,0,0,0,156,1,0,,,,,,,,,,,,,,,,,,,,,
,,,,,,,,,,,,,,,,,,,,,,,,,,,,,,,,,,,,,,,,,,5baf06d756161d0001fe6dde,606a0f19fdff34be840b640b,2021-04-04_21h15.37.765,Colour_Similarity_Experiment,2020.2.10,Win32,60,60675255c767bca6388caeee,8.348204999,8.694109108,8.332488288,8.344062857,8.33653917,8.344062857,,,,,,,,,,,,,,,,,,,,PF,6,weak,,,,,,,,6,2.592125,,,,,,,,,,,,,,,,,,,,,,,,,,,,9,weak,118,55,1,0,0,response1disk,7,2,6,1,1,0,0,rectangle,6,1,1,0,0,,5,0.00126,6,1,1,0,0,0,1,1,121,1,0,,,,,,,,,,,,,,,,,,,,,
,,,,,,,,,,,,,,,,,,,,,,,,,,,,,,,,,,,,,,,,,,5baf06d756161d0001fe6dde,606a0f19fdff34be840b640b,2021-04-04_21h15.37.765,Colour_Similarity_Experiment,2020.2.10,Win32,60,60675255c767bca6388caeee,8.348204999,8.694109108,8.332488288,8.344062857,8.33653917,8.344062857,,,,,,,,,,,,,,,,,,,,PF,6,strong,,,,,,,,3,3.12513,,,,,,,,,,,,,,,,,,,,,,,,,,,,1,strong,-80,-112,1,0,0,response5disk,8,3,-4,3,1,0,0,rectangle,-4,3,1,0,0,,3,0.00161,-4,3,1,0,0,0,2,2,27,1,0,,,,,,,,,,,,,,,,,,,,,
,,,,,,,,,,,,,,,,,,,,,,,,,,,,,,,,,,,,,,,,,,5baf06d756161d0001fe6dde,606a0f19fdff34be840b640b,2021-04-04_21h15.37.765,Colour_Similarity_Experiment,2020.2.10,Win32,60,60675255c767bca6388caeee,8.348204999,8.694109108,8.332488288,8.344062857,8.33653917,8.344062857,,,,,,,,,,,,,,,,,,,,PF,6,strong,,,,,,,,6,1.833075,,,,,,,,,,,,,,,,,,,,,,,,,,,,4,strong,100,75,1,0,0,response1disk,2,4,2,-1,1,0,0,rectangle,2,-1,1,0,0,,7,0.001865,2,-1,1,0,0,0,3,3,13,1,0,,,,,,,,,,,,,,,,,,,,,
,,,,,,,,,,,,,,,,,,,,,,,,,,,,,,,,,,,,,,,,,,5baf06d756161d0001fe6dde,606a0f19fdff34be840b640b,2021-04-04_21h15.37.765,Colour_Similarity_Experiment,2020.2.10,Win32,60,60675255c767bca6388caeee,8.348204999,8.694109108,8.332488288,8.344062857,8.33653917,8.344062857,,,,,,,,,,,,,,,,,,,,PF,6,weak,,,,,,,,2,2.766585,,,,,,,,,,,,,,,,,,,,,,,,,,,,3,weak,-103,-66,1,0,0,response5disk,3,5,10,-2,1,0,0,rectangle,10,-2,1,0,0,,0,0.001485,10,-2,1,0,0,0,4,4,4,1,0,,,,,,,,,,,,,,,,,,,,,
,,,,,,,,,,,,,,,,,,,,,,,,,,,,,,,,,,,,,,,,,,5baf06d756161d0001fe6dde,606a0f19fdff34be840b640b,2021-04-04_21h15.37.765,Colour_Similarity_Experiment,2020.2.10,Win32,60,60675255c767bca6388caeee,8.348204999,8.694109108,8.332488288,8.344062857,8.33653917,8.344062857,,,,,,,,,,,,,,,,,,,,PF,6,strong,,,,,,,,2,1.10004,,,,,,,,,,,,,,,,,,,,,,,,,,,,5,strong,-107,-54,1,0,0,response5disk,3,6,-9,-9,1,0,0,rectangle,-9,-9,1,0,0,,3,0.00133,-9,-9,1,0,0,0,5,5,25,1,0,,,,,,,,,,,,,,,,,,,,,
,,,,,,,,,,,,,,,,,,,,,,,,,,,,,,,,,,,,,,,,,,5baf06d756161d0001fe6dde,606a0f19fdff34be840b640b,2021-04-04_21h15.37.765,Colour_Similarity_Experiment,2020.2.10,Win32,60,60675255c767bca6388caeee,8.348204999,8.694109108,8.332488288,8.344062857,8.33653917,8.344062857,,,,,,,,,,,,,,,,,,,,PF,6,weak,,,,,,,,6,1.84198,,,,,,,,,,,,,,,,,,,,,,,,,,,,8,weak,109,52,1,0,0,response1disk,4,7,13,5,1,0,0,rectangle,13,5,1,0,0,,1,0.001275,13,5,1,0,0,0,6,6,78,1,0,,,,,,,,,,,,,,,,,,,,,
,,,,,,,,,,,,,,,,,,,,,,,,,,,,,,,,,,,,,,,,,,5baf06d756161d0001fe6dde,606a0f19fdff34be840b640b,2021-04-04_21h15.37.765,Colour_Similarity_Experiment,2020.2.10,Win32,60,60675255c767bca6388caeee,8.348204999,8.694109108,8.332488288,8.344062857,8.33653917,8.344062857,,,,,,,,,,,,,,,,,,,,PF,6,weak,,,,,,,,3,1.932915,,,,,,,,,,,,,,,,,,,,,,,,,,,,5,weak,-44,-118,1,0,0,response5disk,3,8,-4,-13,1,0,0,rectangle,-4,-13,1,0,0,,0,0.00151,-4,-13,1,0,0,0,7,7,109,1,0,,,,,,,,,,,,,,,,,,,,,
,,,,,,,,,,,,,,,,,,,,,,,,,,,,,,,,,,,,,,,,,,5baf06d756161d0001fe6dde,606a0f19fdff34be840b640b,2021-04-04_21h15.37.765,Colour_Similarity_Experiment,2020.2.10,Win32,60,60675255c767bca6388caeee,8.348204999,8.694109108,8.332488288,8.344062857,8.33653917,8.344062857,,,,,,,,,,,,,,,,,,,,PF,6,strong,,,,,,,,2,1.258735,,,,,,,,,,,,,,,,,,,,,,,,,,,,7,strong,-89,-64,1,0,0,response5disk,8,9,-38,-15,1,0,0,rectangle,123,-53,1,0,0,5,5,7.93527,11,-12,1,0,0,0,8,8,97,1,1,response3disk_3,rectangle,,,,,,,,,,,,,,,,,,,
,,,,,,,,,,,,,,,,,,,,,,,,,,,,,,,,,,,,,,,,,,5baf06d756161d0001fe6dde,606a0f19fdff34be840b640b,2021-04-04_21h15.37.765,Colour_Similarity_Experiment,2020.2.10,Win32,60,60675255c767bca6388caeee,8.348204999,8.694109108,8.332488288,8.344062857,8.33653917,8.344062857,,,,,,,,,,,,,,,,,,,,PF,6,strong,,,,,,,,6,2.45844,,,,,,,,,,,,,,,,,,,,,,,,,,,,9,strong,122,64,1,0,0,response1disk,6,10,-5,4,1,0,0,rectangle,-5,4,1,0,0,5,1,0.001485,-5,4,1,0,0,0,9,9,117,1,0,,,,,,,,,,,,,,,,,,,,,
,,,,,,,,,,,,,,,,,,,,,,,,,,,,,,,,,,,,,,,,,,5baf06d756161d0001fe6dde,606a0f19fdff34be840b640b,2021-04-04_21h15.37.765,Colour_Similarity_Experiment,2020.2.10,Win32,60,60675255c767bca6388caeee,8.348204999,8.694109108,8.332488288,8.344062857,8.33653917,8.344062857,,,,,,,,,,,,,,,,,,,,PF,6,weak,,,,,,,,4,1.891585,,,,,,,,,,,,,,,,,,,,,,,,,,,,3,weak,54,-123,1,0,0,response3disk,9,11,-9,2,1,0,0,rectangle,-9,2,1,0,0,5,6,0.00143,-9,2,1,0,0,0,10,10,79,1,0,,,,,,,,,,,,,,,,,,,,,
,,,,,,,,,,,,,,,,,,,,,,,,,,,,,,,,,,,,,,,,,,5baf06d756161d0001fe6dde,606a0f19fdff34be840b640b,2021-04-04_21h15.37.765,Colour_Similarity_Experiment,2020.2.10,Win32,60,60675255c767bca6388caeee,8.348204999,8.694109108,8.332488288,8.344062857,8.33653917,8.344062857,,,,,,,,,,,,,,,,,,,,PF,6,strong,,,,,,,,5,2.16665,,,,,,,,,,,,,,,,,,,,,,,,,,,,3,strong,109,-62,1,0,0,response3disk,1,12,25,2,1,0,0,rectangle,25,2,1,0,0,5,2,0.00462,25,2,1,0,0,0,11,11,125,1,0,,,,,,,,,,,,,,,,,,,,,
,,,,,,,,,,,,,,,,,,,,,,,,,,,,,,,,,,,,,,,,,,5baf06d756161d0001fe6dde,606a0f19fdff34be840b640b,2021-04-04_21h15.37.765,Colour_Similarity_Experiment,2020.2.10,Win32,60,60675255c767bca6388caeee,8.348204999,8.694109108,8.332488288,8.344062857,8.33653917,8.344062857,,,,,,,,,,,,,,,,,,,,PF,6,strong,,,,,,,,5,1.450125,,,,,,,,,,,,,,,,,,,,,,,,,,,,9,strong,85,-35,1,0,0,response3disk,3,13,23,3,1,0,0,rectangle,23,3,1,0,0,5,7,0.0011,23,3,1,0,0,0,12,12,141,1,0,,,,,,,,,,,,,,,,,,,,,
,,,,,,,,,,,,,,,,,,,,,,,,,,,,,,,,,,,,,,,,,,5baf06d756161d0001fe6dde,606a0f19fdff34be840b640b,2021-04-04_21h15.37.765,Colour_Similarity_Experiment,2020.2.10,Win32,60,60675255c767bca6388caeee,8.348204999,8.694109108,8.332488288,8.344062857,8.33653917,8.344062857,,,,,,,,,,,,,,,,,,,,PF,6,weak,,,,,,,,4,1.79157,,,,,,,,,,,,,,,,,,,,,,,,,,,,2,weak,61,-125,1,0,0,response3disk,3,14,1,0,1,0,0,rectangle,1,0,1,0,0,5,1,0.00137,1,0,1,0,0,0,13,13,69,1,0,,,,,,,,,,,,,,,,,,,,,
,,,,,,,,,,,,,,,,,,,,,,,,,,,,,,,,,,,,,,,,,,5baf06d756161d0001fe6dde,606a0f19fdff34be840b640b,2021-04-04_21h15.37.765,Colour_Similarity_Experiment,2020.2.10,Win32,60,60675255c767bca6388caeee,8.348204999,8.694109108,8.332488288,8.344062857,8.33653917,8.344062857,,,,,,,,,,,,,,,,,,,,PF,6,strong,,,,,,,,4,1.183175,,,,,,,,,,,,,,,,,,,,,,,,,,,,8,strong,32,-107,1,0,0,response3disk,4,15,-5,3,1,0,0,rectangle,-5,3,1,0,0,5,3,0.001695,-5,3,1,0,0,0,14,14,88,1,0,,,,,,,,,,,,,,,,,,,,,
,,,,,,,,,,,,,,,,,,,,,,,,,,,,,,,,,,,,,,,,,,5baf06d756161d0001fe6dde,606a0f19fdff34be840b640b,2021-04-04_21h15.37.765,Colour_Similarity_Experiment,2020.2.10,Win32,60,60675255c767bca6388caeee,8.348204999,8.694109108,8.332488288,8.344062857,8.33653917,8.344062857,,,,,,,,,,,,,,,,,,,,PF,6,strong,,,,,,,,5,1.92513,,,,,,,,,,,,,,,,,,,,,,,,,,,,5,strong,115,-64,1,0,0,response3disk,5,16,19,-10,1,0,0,rectangle,19,-10,1,0,0,5,3,0.000195,19,-10,1,0,0,0,15,15,19,1,0,,,,,,,,,,,,,,,,,,,,,
,,,,,,,,,,,,,,,,,,,,,,,,,,,,,,,,,,,,,,,,,,5baf06d756161d0001fe6dde,606a0f19fdff34be840b640b,2021-04-04_21h15.37.765,Colour_Similarity_Experiment,2020.2.10,Win32,60,60675255c767bca6388caeee,8.348204999,8.694109108,8.332488288,8.344062857,8.33653917,8.344062857,,,,,,,,,,,,,,,,,,,,PF,6,strong,,,,,,,,3,1.30852,,,,,,,,,,,,,,,,,,,,,,,,,,,,2,strong,-54,-93,1,0,0,response5disk,8,17,-1,-1,1,0,0,rectangle,-1,-1,1,0,0,5,5,0.00153,-1,-1,1,0,0,0,16,16,62,1,0,,,,,,,,,,,,,,,,,,,,,
,,,,,,,,,,,,,,,,,,,,,,,,,,,,,,,,,,,,,,,,,,5baf06d756161d0001fe6dde,606a0f19fdff34be840b640b,2021-04-04_21h15.37.765,Colour_Similarity_Experiment,2020.2.10,Win32,60,60675255c767bca6388caeee,8.348204999,8.694109108,8.332488288,8.344062857,8.33653917,8.344062857,,,,,,,,,,,,,,,,,,,,PF,6,strong,,,,,,,,5,1.3336,,,,,,,,,,,,,,,,,,,,,,,,,,,,5,strong,93,-68,1,0,0,response3disk,6,18,5,-5,1,0,0,rectangle,5,-5,1,0,0,5,4,0.00054,5,-5,1,0,0,0,17,17,12,1,0,,,,,,,,,,,,,,,,,,,,,
,,,,,,,,,,,,,,,,,,,,,,,,,,,,,,,,,,,,,,,,,,5baf06d756161d0001fe6dde,606a0f19fdff34be840b640b,2021-04-04_21h15.37.765,Colour_Similarity_Experiment,2020.2.10,Win32,60,60675255c767bca6388caeee,8.348204999,8.694109108,8.332488288,8.344062857,8.33653917,8.344062857,,,,,,,,,,,,,,,,,,,,PF,6,strong,,,,,,,,5,1.01698,,,,,,,,,,,,,,,,,,,,,,,,,,,,8,strong,105,-45,1,0,0,response3disk,7,19,6,7,1,0,0,rectangle,6,7,1,0,0,5,4,0.00019,6,7,1,0,0,0,18,18,86,1,0,,,,,,,,,,,,,,,,,,,,,
,,,,,,,,,,,,,,,,,,,,,,,,,,,,,,,,,,,,,,,,,,5baf06d756161d0001fe6dde,606a0f19fdff34be840b640b,2021-04-04_21h15.37.765,Colour_Similarity_Experiment,2020.2.10,Win32,60,60675255c767bca6388caeee,8.348204999,8.694109108,8.332488288,8.344062857,8.33653917,8.344062857,,,,,,,,,,,,,,,,,,,,PF,6,strong,,,,,,,,6,1.125315,,,,,,,,,,,,,,,,,,,,,,,,,,,,5,strong,132,68,1,0,0,response1disk,2,20,-4,-4,1,0,0,rectangle,54,133,1,0,0,7,7,8.090715,8,4,1,0,0,0,19,19,55,1,1,response1disk_3,rectangle,,,,,,,,,,,,,,,,,,,
,,,,,,,,,,,,,,,,,,,,,,,,,,,,,,,,,,,,,,,,,,5baf06d756161d0001fe6dde,606a0f19fdff34be840b640b,2021-04-04_21h15.37.765,Colour_Similarity_Experiment,2020.2.10,Win32,60,60675255c767bca6388caeee,8.348204999,8.694109108,8.332488288,8.344062857,8.33653917,8.344062857,,,,,,,,,,,,,,,,,,,,PF,6,weak,,,,,,,,1,2.80722,,,,,,,,,,,,,,,,,,,,,,,,,,,,8,weak,-107,39,1,0,0,response7disk,8,21,-10,-14,1,0,0,rectangle,-10,-14,1,0,0,7,3,0.00146,-10,-14,1,0,0,0,20,20,153,1,0,,,,,,,,,,,,,,,,,,,,,
,,,,,,,,,,,,,,,,,,,,,,,,,,,,,,,,,,,,,,,,,,5baf06d756161d0001fe6dde,606a0f19fdff34be840b640b,2021-04-04_21h15.37.765,Colour_Similarity_Experiment,2020.2.10,Win32,60,60675255c767bca6388caeee,8.348204999,8.694109108,8.332488288,8.344062857,8.33653917,8.344062857,,,,,,,,,,,,,,,,,,,,PF,6,weak,,,,,,,,4,1.383335,,,,,,,,,,,,,,,,,,,,,,,,,,,,2,weak,25,-92,1,0,0,response3disk,7,22,5,2,1,0,0,rectangle,5,2,1,0,0,7,6,0.00108,5,2,1,0,0,0,21,21,107,1,0,,,,,,,,,,,,,,,,,,,,,
,,,,,,,,,,,,,,,,,,,,,,,,,,,,,,,,,,,,,,,,,,5baf06d756161d0001fe6dde,606a0f19fdff34be840b640b,2021-04-04_21h15.37.765,Colour_Similarity_Experiment,2020.2.10,Win32,60,60675255c767bca6388caeee,8.348204999,8.694109108,8.332488288,8.344062857,8.33653917,8.344062857,,,,,,,,,,,,,,,,,,,,PF,6,strong,,,,,,,,5,4.49148,,,,,,,,,,,,,,,,,,,,,,,,,,,,8,strong,118,-51,1,0,0,response3disk,1,23,16,-8,1,0,0,rectangle,16,-8,1,0,0,7,2,0.00109,16,-8,1,0,0,0,22,22,20,1,0,,,,,,,,,,,,,,,,,,,,,
,,,,,,,,,,,,,,,,,,,,,,,,,,,,,,,,,,,,,,,,,,5baf06d756161d0001fe6dde,606a0f19fdff34be840b640b,2021-04-04_21h15.37.765,Colour_Similarity_Experiment,2020.2.10,Win32,60,60675255c767bca6388caeee,8.348204999,8.694109108,8.332488288,8.344062857,8.33653917,8.344062857,,,,,,,,,,,,,,,,,,,,PF,6,weak,,,,,,,,5,0.933695,,,,,,,,,,,,,,,,,,,,,,,,,,,,2,weak,102,-53,1,0,0,response3disk,1,24,5,-5,1,0,0,rectangle,5,-5,1,0,0,7,5,0.00139,5,-5,1,0,0,0,23,23,9,1,0,,,,,,,,,,,,,,,,,,,,,
,,,,,,,,,,,,,,,,,,,,,,,,,,,,,,,,,,,,,,,,,,5baf06d756161d0001fe6dde,606a0f19fdff34be840b640b,2021-04-04_21h15.37.765,Colour_Similarity_Experiment,2020.2.10,Win32,60,60675255c767bca6388caeee,8.348204999,8.694109108,8.332488288,8.344062857,8.33653917,8.344062857,,,,,,,,,,,,,,,,,,,,PF,6,strong,,,,,,,,6,1.258295,,,,,,,,,,,,,,,,,,,,,,,,,,,,5,strong,131,47,1,0,0,response1disk,4,25,-17,5,1,0,0,rectangle,-17,5,1,0,0,7,4,0.00142,-17,5,1,0,0,0,24,24,8,1,0,,,,,,,,,,,,,,,,,,,,,
,,,,,,,,,,,,,,,,,,,,,,,,,,,,,,,,,,,,,,,,,,5baf06d756161d0001fe6dde,606a0f19fdff34be840b640b,2021-04-04_21h15.37.765,Colour_Similarity_Experiment,2020.2.10,Win32,60,60675255c767bca6388caeee,8.348204999,8.694109108,8.332488288,8.344062857,8.33653917,8.344062857,,,,,,,,,,,,,,,,,,,,PF,6,strong,,,,,,,,6,0.84181,,,,,,,,,,,,,,,,,,,,,,,,,,,,3,strong,132,32,1,0,0,response1disk,7,26,16,-4,1,0,0,rectangle,16,-4,1,0,0,7,0,0.001095,16,-4,1,0,0,0,25,25,118,1,0,,,,,,,,,,,,,,,,,,,,,
,,,,,,,,,,,,,,,,,,,,,,,,,,,,,,,,,,,,,,,,,,5baf06d756161d0001fe6dde,606a0f19fdff34be840b640b,2021-04-04_21h15.37.765,Colour_Similarity_Experiment,2020.2.10,Win32,60,60675255c767bca6388caeee,8.348204999,8.694109108,8.332488288,8.344062857,8.33653917,8.344062857,,,,,,,,,,,,,,,,,,,,PF,6,strong,,,,,,,,7,1.07513,,,,,,,,,,,,,,,,,,,,,,,,,,,,7,strong,71,106,1,0,0,response1disk,2,27,23,8,1,0,0,rectangle,23,8,1,0,0,7,6,0.00117,23,8,1,0,0,0,26,26,138,1,0,,,,,,,,,,,,,,,,,,,,,
,,,,,,,,,,,,,,,,,,,,,,,,,,,,,,,,,,,,,,,,,,5baf06d756161d0001fe6dde,606a0f19fdff34be840b640b,2021-04-04_21h15.37.765,Colour_Similarity_Experiment,2020.2.10,Win32,60,60675255c767bca6388caeee,8.348204999,8.694109108,8.332488288,8.344062857,8.33653917,8.344062857,,,,,,,,,,,,,,,,,,,,PF,6,weak,,,,,,,,6,1.449685,,,,,,,,,,,,,,,,,,,,,,,,,,,,4,weak,96,80,1,0,0,response1disk,1,28,-30,4,1,0,0,rectangle,-30,4,1,0,0,7,7,0.00098,-30,4,1,0,0,0,27,27,115,1,0,,,,,,,,,,,,,,,,,,,,,
,,,,,,,,,,,,,,,,,,,,,,,,,,,,,,,,,,,,,,,,,,5baf06d756161d0001fe6dde,606a0f19fdff34be840b640b,2021-04-04_21h15.37.765,Colour_Similarity_Experiment,2020.2.10,Win32,60,60675255c767bca6388caeee,8.348204999,8.694109108,8.332488288,8.344062857,8.33653917,8.344062857,,,,,,,,,,,,,,,,,,,,PF,6,weak,,,,,,,,6,1.25856,,,,,,,,,,,,,,,,,,,,,,,,,,,,1,weak,106,61,1,0,0,response1disk,6,29,-10,-5,1,0,0,rectangle,-10,-5,1,0,0,7,4,0.001225,-10,-5,1,0,0,0,28,28,144,1,0,,,,,,,,,,,,,,,,,,,,,
,,,,,,,,,,,,,,,,,,,,,,,,,,,,,,,,,,,,,,,,,,5baf06d756161d0001fe6dde,606a0f19fdff34be840b640b,2021-04-04_21h15.37.765,Colour_Similarity_Experiment,2020.2.10,Win32,60,60675255c767bca6388caeee,8.348204999,8.694109108,8.332488288,8.344062857,8.33653917,8.344062857,,,,,,,,,,,,,,,,,,,,PF,6,strong,,,,,,,,6,1.35844,,,,,,,,,,,,,,,,,,,,,,,,,,,,9,strong,119,72,1,0,0,response1disk,1,30,21,3,1,0,0,rectangle,21,3,1,0,0,7,6,0.00133,21,3,1,0,0,0,29,29,111,1,0,,,,,,,,,,,,,,,,,,,,,
,,,,,,,,,,,,,,,,,,,,,,,,,,,,,,,,,,,,,,,,,,5baf06d756161d0001fe6dde,606a0f19fdff34be840b640b,2021-04-04_21h15.37.765,Colour_Similarity_Experiment,2020.2.10,Win32,60,60675255c767bca6388caeee,8.348204999,8.694109108,8.332488288,8.344062857,8.33653917,8.344062857,,,,,,,,,,,,,,,,,,,,PF,6,strong,,,,,,,,6,0.900275,,,,,,,,,,,,,,,,,,,,,,,,,,,,7,strong,112,73,1,0,0,response1disk,3,31,15,3,1,0,0,rectangle,15,3,1,0,0,7,7,0.000965,15,3,1,0,0,0,30,30,73,1,0,,,,,,,,,,,,,,,,,,,,,
,,,,,,,,,,,,,,,,,,,,,,,,,,,,,,,,,,,,,,,,,,5baf06d756161d0001fe6dde,606a0f19fdff34be840b640b,2021-04-04_21h15.37.765,Colour_Similarity_Experiment,2020.2.10,Win32,60,60675255c767bca6388caeee,8.348204999,8.694109108,8.332488288,8.344062857,8.33653917,8.344062857,,,,,,,,,,,,,,,,,,,,PF,6,strong,,,,,,,,3,1.15878,,,,,,,,,,,,,,,,,,,,,,,,,,,,3,strong,-60,-101,1,0,0,response5disk,9,32,5,5,1,0,0,rectangle,5,5,1,0,0,7,4,0.00265,5,5,1,0,0,0,31,31,143,1,0,,,,,,,,,,,,,,,,,,,,,
,,,,,,,,,,,,,,,,,,,,,,,,,,,,,,,,,,,,,,,,,,5baf06d756161d0001fe6dde,606a0f19fdff34be840b640b,2021-04-04_21h15.37.765,Colour_Similarity_Experiment,2020.2.10,Win32,60,60675255c767bca6388caeee,8.348204999,8.694109108,8.332488288,8.344062857,8.33653917,8.344062857,,,,,,,,,,,,,,,,,,,,PF,6,weak,,,,,,,,5,1.0502,,,,,,,,,,,,,,,,,,,,,,,,,,,,8,weak,132,-41,1,0,0,response3disk,3,33,1,-6,1,0,0,rectangle,1,-6,1,0,0,7,0,0.00149,1,-6,1,0,0,0,32,32,71,1,0,,,,,,,,,,,,,,,,,,,,,
,,,,,,,,,,,,,,,,,,,,,,,,,,,,,,,,,,,,,,,,,,5baf06d756161d0001fe6dde,606a0f19fdff34be840b640b,2021-04-04_21h15.37.765,Colour_Similarity_Experiment,2020.2.10,Win32,60,60675255c767bca6388caeee,8.348204999,8.694109108,8.332488288,8.344062857,8.33653917,8.344062857,,,,,,,,,,,,,,,,,,,,PF,6,weak,,,,,,,,3,1.02473,,,,,,,,,,,,,,,,,,,,,,,,,,,,4,weak,-53,-91,1,0,0,response5disk,5,34,-16,-2,1,0,0,rectangle,-16,-2,1,0,0,7,0,0.000155,-16,-2,1,0,0,0,33,33,49,1,0,,,,,,,,,,,,,,,,,,,,,
,,,,,,,,,,,,,,,,,,,,,,,,,,,,,,,,,,,,,,,,,,5baf06d756161d0001fe6dde,606a0f19fdff34be840b640b,2021-04-04_21h15.37.765,Colour_Similarity_Experiment,2020.2.10,Win32,60,60675255c767bca6388caeee,8.348204999,8.694109108,8.332488288,8.344062857,8.33653917,8.344062857,,,,,,,,,,,,,,,,,,,,PF,6,strong,,,,,,,,4,1.247625,,,,,,,,,,,,,,,,,,,,,,,,,,,,8,strong,52,-107,1,0,0,response3disk,6,35,-14,1,1,0,0,rectangle,-14,1,1,0,0,7,6,0.00145,-14,1,1,0,0,0,34,34,37,1,0,,,,,,,,,,,,,,,,,,,,,
,,,,,,,,,,,,,,,,,,,,,,,,,,,,,,,,,,,,,,,,,,5baf06d756161d0001fe6dde,606a0f19fdff34be840b640b,2021-04-04_21h15.37.765,Colour_Similarity_Experiment,2020.2.10,Win32,60,60675255c767bca6388caeee,8.348204999,8.694109108,8.332488288,8.344062857,8.33653917,8.344062857,,,,,,,,,,,,,,,,,,,,PF,6,weak,,,,,,,,2,4.65816,,,,,,,,,,,,,,,,,,,,,,,,,,,,5,weak,-104,-48,1,0,0,response5disk,4,36,-4,-1,1,0,0,rectangle,-4,-1,1,0,0,7,7,0.001365,-4,-1,1,0,0,0,35,35,54,1,0,,,,,,,,,,,,,,,,,,,,,
,,,,,,,,,,,,,,,,,,,,,,,,,,,,,,,,,,,,,,,,,,5baf06d756161d0001fe6dde,606a0f19fdff34be840b640b,2021-04-04_21h15.37.765,Colour_Similarity_Experiment,2020.2.10,Win32,60,60675255c767bca6388caeee,8.348204999,8.694109108,8.332488288,8.344062857,8.33653917,8.344062857,,,,,,,,,,,,,,,,,,,,PF,6,strong,,,,,,,,3,1.458695,,,,,,,,,,,,,,,,,,,,,,,,,,,,1,strong,-39,-79,1,0,0,response5disk,4,37,1,-5,1,0,0,rectangle,1,-5,1,0,0,7,4,0.00178,1,-5,1,0,0,0,36,36,135,1,0,,,,,,,,,,,,,,,,,,,,,
,,,,,,,,,,,,,,,,,,,,,,,,,,,,,,,,,,,,,,,,,,5baf06d756161d0001fe6dde,606a0f19fdff34be840b640b,2021-04-04_21h15.37.765,Colour_Similarity_Experiment,2020.2.10,Win32,60,60675255c767bca6388caeee,8.348204999,8.694109108,8.332488288,8.344062857,8.33653917,8.344062857,,,,,,,,,,,,,,,,,,,,PF,6,weak,,,,,,,,2,1.113695,,,,,,,,,,,,,,,,,,,,,,,,,,,,7,weak,-98,-55,1,0,0,response5disk,9,38,-11,0,1,0,0,rectangle,-11,0,1,0,0,7,7,0.001455,-11,0,1,0,0,0,37,37,10,1,0,,,,,,,,,,,,,,,,,,,,,
,,,,,,,,,,,,,,,,,,,,,,,,,,,,,,,,,,,,,,,,,,5baf06d756161d0001fe6dde,606a0f19fdff34be840b640b,2021-04-04_21h15.37.765,Colour_Similarity_Experiment,2020.2.10,Win32,60,60675255c767bca6388caeee,8.348204999,8.694109108,8.332488288,8.344062857,8.33653917,8.344062857,,,,,,,,,,,,,,,,,,,,PF,6,strong,,,,,,,,2,1.067015,,,,,,,,,,,,,,,,,,,,,,,,,,,,4,strong,-105,-59,1,0,0,response5disk,5,39,-5,-5,1,0,0,rectangle,-5,-5,1,0,0,7,0,0.001335,-5,-5,1,0,0,0,38,38,116,1,0,,,,,,,,,,,,,,,,,,,,,
,,,,,,,,,,,,,,,,,,,,,,,,,,,,,,,,,,,,,,,,,,5baf06d756161d0001fe6dde,606a0f19fdff34be840b640b,2021-04-04_21h15.37.765,Colour_Similarity_Experiment,2020.2.10,Win32,60,60675255c767bca6388caeee,8.348204999,8.694109108,8.332488288,8.344062857,8.33653917,8.344062857,,,,,,,,,,,,,,,,,,,,PF,6,strong,,,,,,,,3,1.94179,,,,,,,,,,,,,,,,,,,,,,,,,,,,2,strong,-49,-87,1,0,0,response5disk,9,40,-1,-1,1,0,0,rectangle,-1,-1,1,0,0,7,6,0.001455,-1,-1,1,0,0,0,39,39,72,1,0,,,,,,,,,,,,,,,,,,,,,
,,,,,,,,,,,,,,,,,,,,,,,,,,,,,,,,,,,,,,,,,,5baf06d756161d0001fe6dde,606a0f19fdff34be840b640b,2021-04-04_21h15.37.765,Colour_Similarity_Experiment,2020.2.10,Win32,60,60675255c767bca6388caeee,8.348204999,8.694109108,8.332488288,8.344062857,8.33653917,8.344062857,,,,,,,,,,,,,,,,,,,,PF,6,weak,,,,,,,,2,0.97539,,,,,,,,,,,,,,,,,,,,,,,,,,,,5,weak,-73,-44,1,0,0,response5disk,5,41,0,-3,1,0,0,rectangle,0,-3,1,0,0,7,3,0.001365,0,-3,1,0,0,0,40,40,94,1,0,,,,,,,,,,,,,,,,,,,,,
,,,,,,,,,,,,,,,,,,,,,,,,,,,,,,,,,,,,,,,,,,5baf06d756161d0001fe6dde,606a0f19fdff34be840b640b,2021-04-04_21h15.37.765,Colour_Similarity_Experiment,2020.2.10,Win32,60,60675255c767bca6388caeee,8.348204999,8.694109108,8.332488288,8.344062857,8.33653917,8.344062857,,,,,,,,,,,,,,,,,,,,PF,6,strong,,,,,,,,4,1.041865,,,,,,,,,,,,,,,,,,,,,,,,,,,,8,strong,65,-87,1,0,0,response3disk,3,42,12,3,1,0,0,rectangle,12,3,1,0,0,7,3,0.00022,12,3,1,0,0,0,41,41,154,1,0,,,,,,,,,,,,,,,,,,,,,
,,,,,,,,,,,,,,,,,,,,,,,,,,,,,,,,,,,,,,,,,,5baf06d756161d0001fe6dde,606a0f19fdff34be840b640b,2021-04-04_21h15.37.765,Colour_Similarity_Experiment,2020.2.10,Win32,60,60675255c767bca6388caeee,8.348204999,8.694109108,8.332488288,8.344062857,8.33653917,8.344062857,,,,,,,,,,,,,,,,,,,,PF,6,strong,,,,,,,,6,1.36456,,,,,,,,,,,,,,,,,,,,,,,,,,,,4,strong,111,55,1,0,0,response1disk,1,43,13,6,1,0,0,rectangle,13,6,1,0,0,7,2,0.0011,13,6,1,0,0,0,42,42,102,1,0,,,,,,,,,,,,,,,,,,,,,
,,,,,,,,,,,,,,,,,,,,,,,,,,,,,,,,,,,,,,,,,,5baf06d756161d0001fe6dde,606a0f19fdff34be840b640b,2021-04-04_21h15.37.765,Colour_Similarity_Experiment,2020.2.10,Win32,60,60675255c767bca6388caeee,8.348204999,8.694109108,8.332488288,8.344062857,8.33653917,8.344062857,,,,,,,,,,,,,,,,,,,,PF,6,weak,,,,,,,,6,1.663885,,,,,,,,,,,,,,,,,,,,,,,,,,,,6,weak,89,62,1,0,0,response1disk,4,44,-11,-18,1,0,0,rectangle,-11,-18,1,0,0,7,2,0.00018,-11,-18,1,0,0,0,43,43,33,1,0,,,,,,,,,,,,,,,,,,,,,
,,,,,,,,,,,,,,,,,,,,,,,,,,,,,,,,,,,,,,,,,,5baf06d756161d0001fe6dde,606a0f19fdff34be840b640b,2021-04-04_21h15.37.765,Colour_Similarity_Experiment,2020.2.10,Win32,60,60675255c767bca6388caeee,8.348204999,8.694109108,8.332488288,8.344062857,8.33653917,8.344062857,,,,,,,,,,,,,,,,,,,,PF,6,strong,,,,,,,,5,1.40084,,,,,,,,,,,,,,,,,,,,,,,,,,,,2,strong,94,-47,1,0,0,response3disk,7,45,29,-15,1,0,0,rectangle,29,-15,1,0,0,7,4,0.00125,29,-15,1,0,0,0,44,44,63,1,0,,,,,,,,,,,,,,,,,,,,,
,,,,,,,,,,,,,,,,,,,,,,,,,,,,,,,,,,,,,,,,,,5baf06d756161d0001fe6dde,606a0f19fdff34be840b640b,2021-04-04_21h15.37.765,Colour_Similarity_Experiment,2020.2.10,Win32,60,60675255c767bca6388caeee,8.348204999,8.694109108,8.332488288,8.344062857,8.33653917,8.344062857,,,,,,,,,,,,,,,,,,,,PF,6,weak,,,,,,,,6,1.0086,,,,,,,,,,,,,,,,,,,,,,,,,,,,8,weak,126,52,1,0,0,response1disk,2,46,18,19,1,0,0,rectangle,18,19,1,0,0,7,5,0.001125,18,19,1,0,0,0,45,45,83,1,0,,,,,,,,,,,,,,,,,,,,,
,,,,,,,,,,,,,,,,,,,,,,,,,,,,,,,,,,,,,,,,,,5baf06d756161d0001fe6dde,606a0f19fdff34be840b640b,2021-04-04_21h15.37.765,Colour_Similarity_Experiment,2020.2.10,Win32,60,60675255c767bca6388caeee,8.348204999,8.694109108,8.332488288,8.344062857,8.33653917,8.344062857,,,,,,,,,,,,,,,,,,,,PF,6,strong,,,,,,,,7,1.474675,,,,,,,,,,,,,,,,,,,,,,,,,,,,8,strong,64,118,1,0,0,response1disk,5,47,24,-3,1,0,0,rectangle,24,-3,1,0,0,7,7,0.00152,24,-3,1,0,0,0,46,46,152,1,0,,,,,,,,,,,,,,,,,,,,,
,,,,,,,,,,,,,,,,,,,,,,,,,,,,,,,,,,,,,,,,,,5baf06d756161d0001fe6dde,606a0f19fdff34be840b640b,2021-04-04_21h15.37.765,Colour_Similarity_Experiment,2020.2.10,Win32,60,60675255c767bca6388caeee,8.348204999,8.694109108,8.332488288,8.344062857,8.33653917,8.344062857,,,,,,,,,,,,,,,,,,,,PF,6,weak,,,,,,,,2,0.9339,,,,,,,,,,,,,,,,,,,,,,,,,,,,7,weak,-124,-79,1,0,0,response5disk,7,48,-9,-13,1,0,0,rectangle,-9,-13,1,0,0,7,0,0.001235,-9,-13,1,0,0,0,47,47,51,1,0,,,,,,,,,,,,,,,,,,,,,
,,,,,,,,,,,,,,,,,,,,,,,,,,,,,,,,,,,,,,,,,,5baf06d756161d0001fe6dde,606a0f19fdff34be840b640b,2021-04-04_21h15.37.765,Colour_Similarity_Experiment,2020.2.10,Win32,60,60675255c767bca6388caeee,8.348204999,8.694109108,8.332488288,8.344062857,8.33653917,8.344062857,,,,,,,,,,,,,,,,,,,,PF,6,weak,,,,,,,,3,1.10884,,,,,,,,,,,,,,,,,,,,,,,,,,,,4,weak,-30,-74,1,0,0,response5disk,9,49,-5,-6,1,0,0,rectangle,-5,-6,1,0,0,7,2,0.001725,-5,-6,1,0,0,0,48,48,75,1,0,,,,,,,,,,,,,,,,,,,,,
,,,,,,,,,,,,,,,,,,,,,,,,,,,,,,,,,,,,,,,,,,5baf06d756161d0001fe6dde,606a0f19fdff34be840b640b,2021-04-04_21h15.37.765,Colour_Similarity_Experiment,2020.2.10,Win32,60,60675255c767bca6388caeee,8.348204999,8.694109108,8.332488288,8.344062857,8.33653917,8.344062857,,,,,,,,,,,,,,,,,,,,PF,6,weak,,,,,,,,6,1.591415,,,,,,,,,,,,,,,,,,,,,,,,,,,,5,weak,107,45,1,0,0,response1disk,6,50,-4,-6,1,0,0,rectangle,-4,-6,1,0,0,7,7,0.001055,-4,-6,1,0,0,0,49,49,103,1,0,,,,,,,,,,,,,,,,,,,,,
,,,,,,,,,,,,,,,,,,,,,,,,,,,,,,,,,,,,,,,,,,5baf06d756161d0001fe6dde,606a0f19fdff34be840b640b,2021-04-04_21h15.37.765,Colour_Similarity_Experiment,2020.2.10,Win32,60,60675255c767bca6388caeee,8.348204999,8.694109108,8.332488288,8.344062857,8.33653917,8.344062857,,,,,,,,,,,,,,,,,,,,PF,6,weak,,,,,,,,7,1.875225,,,,,,,,,,,,,,,,,,,,,,,,,,,,9,weak,37,113,1,0,0,response1disk,3,51,11,12,1,0,0,rectangle,11,12,1,0,0,7,1,0.001065,11,12,1,0,0,0,50,50,119,1,0,,,,,,,,,,,,,,,,,,,,,
,,,,,,,,,,,,,,,,,,,,,,,,,,,,,,,,,,,,,,,,,,5baf06d756161d0001fe6dde,606a0f19fdff34be840b640b,2021-04-04_21h15.37.765,Colour_Similarity_Experiment,2020.2.10,Win32,60,60675255c767bca6388caeee,8.348204999,8.694109108,8.332488288,8.344062857,8.33653917,8.344062857,,,,,,,,,,,,,,,,,,,,PF,6,weak,,,,,,,,3,0.988825,,,,,,,,,,,,,,,,,,,,,,,,,,,,1,weak,-53,-98,1,0,0,response5disk,5,52,-7,-5,1,0,0,rectangle,-7,-5,1,0,0,7,6,0.00121,-7,-5,1,0,0,0,51,51,28,1,0,,,,,,,,,,,,,,,,,,,,,
,,,,,,,,,,,,,,,,,,,,,,,,,,,,,,,,,,,,,,,,,,5baf06d756161d0001fe6dde,606a0f19fdff34be840b640b,2021-04-04_21h15.37.765,Colour_Similarity_Experiment,2020.2.10,Win32,60,60675255c767bca6388caeee,8.348204999,8.694109108,8.332488288,8.344062857,8.33653917,8.344062857,,,,,,,,,,,,,,,,,,,,PF,6,weak,,,,,,,,5,0.875215,,,,,,,,,,,,,,,,,,,,,,,,,,,,5,weak,113,-50,1,0,0,response3disk,7,53,25,-8,1,0,0,rectangle,25,-8,1,0,0,7,5,0.000975,25,-8,1,0,0,0,52,52,146,1,0,,,,,,,,,,,,,,,,,,,,,
,,,,,,,,,,,,,,,,,,,,,,,,,,,,,,,,,,,,,,,,,,5baf06d756161d0001fe6dde,606a0f19fdff34be840b640b,2021-04-04_21h15.37.765,Colour_Similarity_Experiment,2020.2.10,Win32,60,60675255c767bca6388caeee,8.348204999,8.694109108,8.332488288,8.344062857,8.33653917,8.344062857,,,,,,,,,,,,,,,,,,,,PF,6,strong,,,,,,,,5,1.48354,,,,,,,,,,,,,,,,,,,,,,,,,,,,4,strong,102,-42,1,0,0,response3disk,8,54,18,-1,1,0,0,rectangle,18,-1,1,0,0,7,1,0.00103,18,-1,1,0,0,0,53,53,35,1,0,,,,,,,,,,,,,,,,,,,,,
,,,,,,,,,,,,,,,,,,,,,,,,,,,,,,,,,,,,,,,,,,5baf06d756161d0001fe6dde,606a0f19fdff34be840b640b,2021-04-04_21h15.37.765,Colour_Similarity_Experiment,2020.2.10,Win32,60,60675255c767bca6388caeee,8.348204999,8.694109108,8.332488288,8.344062857,8.33653917,8.344062857,,,,,,,,,,,,,,,,,,,,PF,6,strong,,,,,,,,7,2.12502,,,,,,,,,,,,,,,,,,,,,,,,,,,,2,strong,76,115,1,0,0,response1disk,1,55,16,5,1,0,0,rectangle,16,5,1,0,0,7,5,0.00103,16,5,1,0,0,0,54,54,85,1,0,,,,,,,,,,,,,,,,,,,,,
,,,,,,,,,,,,,,,,,,,,,,,,,,,,,,,,,,,,,,,,,,5baf06d756161d0001fe6dde,606a0f19fdff34be840b640b,2021-04-04_21h15.37.765,Colour_Similarity_Experiment,2020.2.10,Win32,60,60675255c767bca6388caeee,8.348204999,8.694109108,8.332488288,8.344062857,8.33653917,8.344062857,,,,,,,,,,,,,,,,,,,,PF,6,strong,,,,,,,,6,0.85034,,,,,,,,,,,,,,,,,,,,,,,,,,,,1,strong,117,37,1,0,0,response1disk,1,56,15,-1,1,0,0,rectangle,15,-1,1,0,0,7,1,0.00136,15,-1,1,0,0,0,55,55,151,1,0,,,,,,,,,,,,,,,,,,,,,
,,,,,,,,,,,,,,,,,,,,,,,,,,,,,,,,,,,,,,,,,,5baf06d756161d0001fe6dde,606a0f19fdff34be840b640b,2021-04-04_21h15.37.765,Colour_Similarity_Experiment,2020.2.10,Win32,60,60675255c767bca6388caeee,8.348204999,8.694109108,8.332488288,8.344062857,8.33653917,8.344062857,,,,,,,,,,,,,,,,,,,,PF,6,weak,,,,,,,,6,1.05047,,,,,,,,,,,,,,,,,,,,,,,,,,,,1,weak,113,63,1,0,0,response1disk,3,57,15,4,1,0,0,rectangle,15,4,1,0,0,7,0,0.001745,15,4,1,0,0,0,56,56,1,1,0,,,,,,,,,,,,,,,,,,,,,
,,,,,,,,,,,,,,,,,,,,,,,,,,,,,,,,,,,,,,,,,,5baf06d756161d0001fe6dde,606a0f19fdff34be840b640b,2021-04-04_21h15.37.765,Colour_Similarity_Experiment,2020.2.10,Win32,60,60675255c767bca6388caeee,8.348204999,8.694109108,8.332488288,8.344062857,8.33653917,8.344062857,,,,,,,,,,,,,,,,,,,,PF,6,strong,,,,,,,,6,0.8578,,,,,,,,,,,,,,,,,,,,,,,,,,,,2,strong,85,68,1,0,0,response1disk,3,58,-18,8,1,0,0,rectangle,-54,123,1,0,0,0,0,9.165785,-6,-8,1,0,0,0,57,57,104,1,1,response7disk_3,rectangle,,,,,,,,,,,,,,,,,,,
,,,,,,,,,,,,,,,,,,,,,,,,,,,,,,,,,,,,,,,,,,5baf06d756161d0001fe6dde,606a0f19fdff34be840b640b,2021-04-04_21h15.37.765,Colour_Similarity_Experiment,2020.2.10,Win32,60,60675255c767bca6388caeee,8.348204999,8.694109108,8.332488288,8.344062857,8.33653917,8.344062857,,,,,,,,,,,,,,,,,,,,PF,6,weak,,,,,,,,3,2.45869,,,,,,,,,,,,,,,,,,,,,,,,,,,,6,weak,-47,-100,1,0,0,response5disk,8,59,0,-10,1,0,0,rectangle,0,-10,1,0,0,0,6,0.001445,0,-10,1,0,0,0,58,58,64,1,0,,,,,,,,,,,,,,,,,,,,,
,,,,,,,,,,,,,,,,,,,,,,,,,,,,,,,,,,,,,,,,,,5baf06d756161d0001fe6dde,606a0f19fdff34be840b640b,2021-04-04_21h15.37.765,Colour_Similarity_Experiment,2020.2.10,Win32,60,60675255c767bca6388caeee,8.348204999,8.694109108,8.332488288,8.344062857,8.33653917,8.344062857,,,,,,,,,,,,,,,,,,,,PF,6,weak,,,,,,,,6,1.03355,,,,,,,,,,,,,,,,,,,,,,,,,,,,6,weak,125,44,1,0,0,response1disk,2,60,17,20,1,0,0,rectangle,17,20,1,0,0,0,3,0.00135,17,20,1,0,0,0,59,59,130,1,0,,,,,,,,,,,,,,,,,,,,,
,,,,,,,,,,,,,,,,,,,,,,,,,,,,,,,,,,,,,,,,,,5baf06d756161d0001fe6dde,606a0f19fdff34be840b640b,2021-04-04_21h15.37.765,Colour_Similarity_Experiment,2020.2.10,Win32,60,60675255c767bca6388caeee,8.348204999,8.694109108,8.332488288,8.344062857,8.33653917,8.344062857,,,,,,,,,,,,,,,,,,,,PF,6,weak,,,,,,,,6,0.77209,,,,,,,,,,,,,,,,,,,,,,,,,,,,1,weak,112,50,1,0,0,response1disk,8,61,17,-2,1,0,0,rectangle,17,-2,1,0,0,0,3,0.000165,17,-2,1,0,0,0,60,60,65,1,0,,,,,,,,,,,,,,,,,,,,,
,,,,,,,,,,,,,,,,,,,,,,,,,,,,,,,,,,,,,,,,,,5baf06d756161d0001fe6dde,606a0f19fdff34be840b640b,2021-04-04_21h15.37.765,Colour_Similarity_Experiment,2020.2.10,Win32,60,60675255c767bca6388caeee,8.348204999,8.694109108,8.332488288,8.344062857,8.33653917,8.344062857,,,,,,,,,,,,,,,,,,,,PF,6,weak,,,,,,,,5,0.900215,,,,,,,,,,,,,,,,,,,,,,,,,,,,2,weak,100,-63,1,0,0,response3disk,2,62,-6,-3,1,0,0,rectangle,-6,-3,1,0,0,0,7,0.00113,-6,-3,1,0,0,0,61,61,14,1,0,,,,,,,,,,,,,,,,,,,,,
,,,,,,,,,,,,,,,,,,,,,,,,,,,,,,,,,,,,,,,,,,5baf06d756161d0001fe6dde,606a0f19fdff34be840b640b,2021-04-04_21h15.37.765,Colour_Similarity_Experiment,2020.2.10,Win32,60,60675255c767bca6388caeee,8.348204999,8.694109108,8.332488288,8.344062857,8.33653917,8.344062857,,,,,,,,,,,,,,,,,,,,PF,6,weak,,,,,,,,6,0.625225,,,,,,,,,,,,,,,,,,,,,,,,,,,,9,weak,98,69,1,0,0,response1disk,2,63,1,15,1,0,0,rectangle,1,15,1,0,0,0,6,0.00101,1,15,1,0,0,0,62,62,157,1,0,,,,,,,,,,,,,,,,,,,,,
,,,,,,,,,,,,,,,,,,,,,,,,,,,,,,,,,,,,,,,,,,5baf06d756161d0001fe6dde,606a0f19fdff34be840b640b,2021-04-04_21h15.37.765,Colour_Similarity_Experiment,2020.2.10,Win32,60,60675255c767bca6388caeee,8.348204999,8.694109108,8.332488288,8.344062857,8.33653917,8.344062857,,,,,,,,,,,,,,,,,,,,PF,6,weak,,,,,,,,3,1.90791,,,,,,,,,,,,,,,,,,,,,,,,,,,,8,weak,-66,-93,1,0,0,response5disk,7,64,-3,11,1,0,0,rectangle,-3,11,1,0,0,0,0,0.00164,-3,11,1,0,0,0,63,63,23,1,0,,,,,,,,,,,,,,,,,,,,,
,,,,,,,,,,,,,,,,,,,,,,,,,,,,,,,,,,,,,,,,,,5baf06d756161d0001fe6dde,606a0f19fdff34be840b640b,2021-04-04_21h15.37.765,Colour_Similarity_Experiment,2020.2.10,Win32,60,60675255c767bca6388caeee,8.348204999,8.694109108,8.332488288,8.344062857,8.33653917,8.344062857,,,,,,,,,,,,,,,,,,,,PF,6,weak,,,,,,,,6,1.205485,,,,,,,,,,,,,,,,,,,,,,,,,,,,8,weak,109,58,1,0,0,response1disk,5,65,28,12,1,0,0,rectangle,28,12,1,0,0,0,4,0.00095,28,12,1,0,0,0,64,64,98,1,0,,,,,,,,,,,,,,,,,,,,,
,,,,,,,,,,,,,,,,,,,,,,,,,,,,,,,,,,,,,,,,,,5baf06d756161d0001fe6dde,606a0f19fdff34be840b640b,2021-04-04_21h15.37.765,Colour_Similarity_Experiment,2020.2.10,Win32,60,60675255c767bca6388caeee,8.348204999,8.694109108,8.332488288,8.344062857,8.33653917,8.344062857,,,,,,,,,,,,,,,,,,,,PF,6,strong,,,,,,,,6,0.758565,,,,,,,,,,,,,,,,,,,,,,,,,,,,9,strong,77,29,1,0,0,response1disk,2,66,2,-8,1,0,0,rectangle,-68,-124,1,0,0,3,3,5.856875,13,1,1,0,0,0,65,65,11,1,1,response5disk_3,rectangle,,,,,,,,,,,,,,,,,,,
,,,,,,,,,,,,,,,,,,,,,,,,,,,,,,,,,,,,,,,,,,5baf06d756161d0001fe6dde,606a0f19fdff34be840b640b,2021-04-04_21h15.37.765,Colour_Similarity_Experiment,2020.2.10,Win32,60,60675255c767bca6388caeee,8.348204999,8.694109108,8.332488288,8.344062857,8.33653917,8.344062857,,,,,,,,,,,,,,,,,,,,PF,6,weak,,,,,,,,5,1.55015,,,,,,,,,,,,,,,,,,,,,,,,,,,,9,weak,125,-39,1,0,0,response3disk,4,67,11,0,1,0,0,rectangle,11,0,1,0,0,3,1,0.00117,11,0,1,0,0,0,66,66,114,1,0,,,,,,,,,,,,,,,,,,,,,
,,,,,,,,,,,,,,,,,,,,,,,,,,,,,,,,,,,,,,,,,,5baf06d756161d0001fe6dde,606a0f19fdff34be840b640b,2021-04-04_21h15.37.765,Colour_Similarity_Experiment,2020.2.10,Win32,60,60675255c767bca6388caeee,8.348204999,8.694109108,8.332488288,8.344062857,8.33653917,8.344062857,,,,,,,,,,,,,,,,,,,,PF,6,weak,,,,,,,,6,0.775495,,,,,,,,,,,,,,,,,,,,,,,,,,,,7,weak,140,91,1,0,0,response1disk,4,68,21,3,1,0,0,rectangle,21,3,1,0,0,3,7,0.0012,21,3,1,0,0,0,67,67,43,1,0,,,,,,,,,,,,,,,,,,,,,
,,,,,,,,,,,,,,,,,,,,,,,,,,,,,,,,,,,,,,,,,,5baf06d756161d0001fe6dde,606a0f19fdff34be840b640b,2021-04-04_21h15.37.765,Colour_Similarity_Experiment,2020.2.10,Win32,60,60675255c767bca6388caeee,8.348204999,8.694109108,8.332488288,8.344062857,8.33653917,8.344062857,,,,,,,,,,,,,,,,,,,,PF,6,strong,,,,,,,,7,1.03907,,,,,,,,,,,,,,,,,,,,,,,,,,,,8,strong,55,94,1,0,0,response1disk,2,69,25,12,1,0,0,rectangle,25,12,1,0,0,3,1,0.00102,25,12,1,0,0,0,68,68,22,1,0,,,,,,,,,,,,,,,,,,,,,
,,,,,,,,,,,,,,,,,,,,,,,,,,,,,,,,,,,,,,,,,,5baf06d756161d0001fe6dde,606a0f19fdff34be840b640b,2021-04-04_21h15.37.765,Colour_Similarity_Experiment,2020.2.10,Win32,60,60675255c767bca6388caeee,8.348204999,8.694109108,8.332488288,8.344062857,8.33653917,8.344062857,,,,,,,,,,,,,,,,,,,,PF,6,strong,,,,,,,,6,1.36697,,,,,,,,,,,,,,,,,,,,,,,,,,,,9,strong,126,58,1,0,0,response1disk,7,70,-2,9,1,0,0,rectangle,-2,9,1,0,0,3,4,0.00132,-2,9,1,0,0,0,69,69,100,1,0,,,,,,,,,,,,,,,,,,,,,
,,,,,,,,,,,,,,,,,,,,,,,,,,,,,,,,,,,,,,,,,,5baf06d756161d0001fe6dde,606a0f19fdff34be840b640b,2021-04-04_21h15.37.765,Colour_Similarity_Experiment,2020.2.10,Win32,60,60675255c767bca6388caeee,8.348204999,8.694109108,8.332488288,8.344062857,8.33653917,8.344062857,,,,,,,,,,,,,,,,,,,,PF,6,strong,,,,,,,,3,1.40014,,,,,,,,,,,,,,,,,,,,,,,,,,,,2,strong,-31,-95,1,0,0,response5disk,2,71,8,-4,1,0,0,rectangle,8,-4,1,0,0,3,0,0.00106,8,-4,1,0,0,0,70,70,142,1,0,,,,,,,,,,,,,,,,,,,,,
,,,,,,,,,,,,,,,,,,,,,,,,,,,,,,,,,,,,,,,,,,5baf06d756161d0001fe6dde,606a0f19fdff34be840b640b,2021-04-04_21h15.37.765,Colour_Similarity_Experiment,2020.2.10,Win32,60,60675255c767bca6388caeee,8.348204999,8.694109108,8.332488288,8.344062857,8.33653917,8.344062857,,,,,,,,,,,,,,,,,,,,PF,6,weak,,,,,,,,6,1.38341,,,,,,,,,,,,,,,,,,,,,,,,,,,,2,weak,110,77,1,0,0,response1disk,6,72,-2,15,1,0,0,rectangle,-2,15,1,0,0,3,1,0.00104,-2,15,1,0,0,0,71,71,113,1,0,,,,,,,,,,,,,,,,,,,,,
,,,,,,,,,,,,,,,,,,,,,,,,,,,,,,,,,,,,,,,,,,5baf06d756161d0001fe6dde,606a0f19fdff34be840b640b,2021-04-04_21h15.37.765,Colour_Similarity_Experiment,2020.2.10,Win32,60,60675255c767bca6388caeee,8.348204999,8.694109108,8.332488288,8.344062857,8.33653917,8.344062857,,,,,,,,,,,,,,,,,,,,PF,6,strong,,,,,,,,2,1.241865,,,,,,,,,,,,,,,,,,,,,,,,,,,,6,strong,-115,-43,1,0,0,response5disk,6,73,-13,7,1,0,0,rectangle,-13,7,1,0,0,3,7,0.001085,-13,7,1,0,0,0,72,72,91,1,0,,,,,,,,,,,,,,,,,,,,,
,,,,,,,,,,,,,,,,,,,,,,,,,,,,,,,,,,,,,,,,,,5baf06d756161d0001fe6dde,606a0f19fdff34be840b640b,2021-04-04_21h15.37.765,Colour_Similarity_Experiment,2020.2.10,Win32,60,60675255c767bca6388caeee,8.348204999,8.694109108,8.332488288,8.344062857,8.33653917,8.344062857,,,,,,,,,,,,,,,,,,,,PF,6,strong,,,,,,,,4,1.208355,,,,,,,,,,,,,,,,,,,,,,,,,,,,6,strong,63,-121,1,0,0,response3disk,4,74,-15,18,1,0,0,rectangle,-15,18,1,0,0,3,7,0.00019,-15,18,1,0,0,0,73,73,56,1,0,,,,,,,,,,,,,,,,,,,,,
,,,,,,,,,,,,,,,,,,,,,,,,,,,,,,,,,,,,,,,,,,5baf06d756161d0001fe6dde,606a0f19fdff34be840b640b,2021-04-04_21h15.37.765,Colour_Similarity_Experiment,2020.2.10,Win32,60,60675255c767bca6388caeee,8.348204999,8.694109108,8.332488288,8.344062857,8.33653917,8.344062857,,,,,,,,,,,,,,,,,,,,PF,6,weak,,,,,,,,5,1.00029,,,,,,,,,,,,,,,,,,,,,,,,,,,,6,weak,116,-34,1,0,0,response3disk,5,75,5,-3,1,0,0,rectangle,5,-3,1,0,0,3,5,0.001135,5,-3,1,0,0,0,74,74,59,1,0,,,,,,,,,,,,,,,,,,,,,
,,,,,,,,,,,,,,,,,,,,,,,,,,,,,,,,,,,,,,,,,,5baf06d756161d0001fe6dde,606a0f19fdff34be840b640b,2021-04-04_21h15.37.765,Colour_Similarity_Experiment,2020.2.10,Win32,60,60675255c767bca6388caeee,8.348204999,8.694109108,8.332488288,8.344062857,8.33653917,8.344062857,,,,,,,,,,,,,,,,,,,,PF,6,strong,,,,,,,,1,1.441885,,,,,,,,,,,,,,,,,,,,,,,,,,,,4,strong,-89,51,1,0,0,response7disk,3,76,13,9,1,0,0,rectangle,13,9,1,0,0,3,1,0.0013,13,9,1,0,0,0,75,75,77,1,0,,,,,,,,,,,,,,,,,,,,,
,,,,,,,,,,,,,,,,,,,,,,,,,,,,,,,,,,,,,,,,,,5baf06d756161d0001fe6dde,606a0f19fdff34be840b640b,2021-04-04_21h15.37.765,Colour_Similarity_Experiment,2020.2.10,Win32,60,60675255c767bca6388caeee,8.348204999,8.694109108,8.332488288,8.344062857,8.33653917,8.344062857,,,,,,,,,,,,,,,,,,,,PF,6,strong,,,,,,,,5,1.19191,,,,,,,,,,,,,,,,,,,,,,,,,,,,4,strong,129,-67,1,0,0,response3disk,7,77,5,-9,1,0,0,rectangle,5,-9,1,0,0,3,4,0.001355,5,-9,1,0,0,0,76,76,87,1,0,,,,,,,,,,,,,,,,,,,,,
,,,,,,,,,,,,,,,,,,,,,,,,,,,,,,,,,,,,,,,,,,5baf06d756161d0001fe6dde,606a0f19fdff34be840b640b,2021-04-04_21h15.37.765,Colour_Similarity_Experiment,2020.2.10,Win32,60,60675255c767bca6388caeee,8.348204999,8.694109108,8.332488288,8.344062857,8.33653917,8.344062857,,,,,,,,,,,,,,,,,,,,PF,6,weak,,,,,,,,6,1.875355,,,,,,,,,,,,,,,,,,,,,,,,,,,,4,weak,138,87,1,0,0,response1disk,2,78,17,2,1,0,0,rectangle,17,2,1,0,0,3,7,0.00114,17,2,1,0,0,0,77,77,108,1,0,,,,,,,,,,,,,,,,,,,,,
,,,,,,,,,,,,,,,,,,,,,,,,,,,,,,,,,,,,,,,,,,5baf06d756161d0001fe6dde,606a0f19fdff34be840b640b,2021-04-04_21h15.37.765,Colour_Similarity_Experiment,2020.2.10,Win32,60,60675255c767bca6388caeee,8.348204999,8.694109108,8.332488288,8.344062857,8.33653917,8.344062857,,,,,,,,,,,,,,,,,,,,PF,6,weak,,,,,,,,1,1.05002,,,,,,,,,,,,,,,,,,,,,,,,,,,,6,weak,-107,44,1,0,0,response7disk,9,79,-24,-4,1,0,0,rectangle,-24,-4,1,0,0,3,1,0.001105,-24,-4,1,0,0,0,78,78,45,1,0,,,,,,,,,,,,,,,,,,,,,
,,,,,,,,,,,,,,,,,,,,,,,,,,,,,,,,,,,,,,,,,,5baf06d756161d0001fe6dde,606a0f19fdff34be840b640b,2021-04-04_21h15.37.765,Colour_Similarity_Experiment,2020.2.10,Win32,60,60675255c767bca6388caeee,8.348204999,8.694109108,8.332488288,8.344062857,8.33653917,8.344062857,,,,,,,,,,,,,,,,,,,,PF,6,strong,,,,,,,,1,0.84204,,,,,,,,,,,,,,,,,,,,,,,,,,,,5,strong,-93,40,1,0,0,response7disk,9,80,1,-1,1,0,0,rectangle,1,-1,1,0,0,3,0,0.00114,1,-1,1,0,0,0,79,79,61,1,0,,,,,,,,,,,,,,,,,,,,,
,,,,,,,,,,,,,,,,,,,,,,,,,,,,,,,,,,,,,,,,,,5baf06d756161d0001fe6dde,606a0f19fdff34be840b640b,2021-04-04_21h15.37.765,Colour_Similarity_Experiment,2020.2.10,Win32,60,60675255c767bca6388caeee,8.348204999,8.694109108,8.332488288,8.344062857,8.33653917,8.344062857,,,,,,,,,,,,,,,,,,,,PF,6,strong,,,,,,,,6,1.12519,,,,,,,,,,,,,,,,,,,,,,,,,,,,3,strong,123,50,1,0,0,response1disk,2,81,20,-5,1,0,0,rectangle,20,-5,1,0,0,3,5,0.000905,20,-5,1,0,0,0,80,80,93,1,0,,,,,,,,,,,,,,,,,,,,,
,,,,,,,,,,,,,,,,,,,,,,,,,,,,,,,,,,,,,,,,,,5baf06d756161d0001fe6dde,606a0f19fdff34be840b640b,2021-04-04_21h15.37.765,Colour_Similarity_Experiment,2020.2.10,Win32,60,60675255c767bca6388caeee,8.348204999,8.694109108,8.332488288,8.344062857,8.33653917,8.344062857,,,,,,,,,,,,,,,,,,,,PF,6,weak,,,,,,,,5,0.858735,,,,,,,,,,,,,,,,,,,,,,,,,,,,7,weak,125,-60,1,0,0,response3disk,5,82,24,-2,1,0,0,rectangle,24,-2,1,0,0,3,1,0.00127,24,-2,1,0,0,0,81,81,92,1,0,,,,,,,,,,,,,,,,,,,,,
,,,,,,,,,,,,,,,,,,,,,,,,,,,,,,,,,,,,,,,,,,5baf06d756161d0001fe6dde,606a0f19fdff34be840b640b,2021-04-04_21h15.37.765,Colour_Similarity_Experiment,2020.2.10,Win32,60,60675255c767bca6388caeee,8.348204999,8.694109108,8.332488288,8.344062857,8.33653917,8.344062857,,,,,,,,,,,,,,,,,,,,PF,6,weak,,,,,,,,6,0.73359,,,,,,,,,,,,,,,,,,,,,,,,,,,,3,weak,110,51,1,0,0,response1disk,6,83,-15,-7,1,0,0,rectangle,-15,-7,1,0,0,3,0,0.00113,-15,-7,1,0,0,0,82,82,47,1,0,,,,,,,,,,,,,,,,,,,,,
,,,,,,,,,,,,,,,,,,,,,,,,,,,,,,,,,,,,,,,,,,5baf06d756161d0001fe6dde,606a0f19fdff34be840b640b,2021-04-04_21h15.37.765,Colour_Similarity_Experiment,2020.2.10,Win32,60,60675255c767bca6388caeee,8.348204999,8.694109108,8.332488288,8.344062857,8.33653917,8.344062857,,,,,,,,,,,,,,,,,,,,PF,6,weak,,,,,,,,1,1.05026,,,,,,,,,,,,,,,,,,,,,,,,,,,,9,weak,-112,50,1,0,0,response7disk,9,84,1,-5,1,0,0,rectangle,1,-5,1,0,0,3,6,0.00125,1,-5,1,0,0,0,83,83,106,1,0,,,,,,,,,,,,,,,,,,,,,
,,,,,,,,,,,,,,,,,,,,,,,,,,,,,,,,,,,,,,,,,,5baf06d756161d0001fe6dde,606a0f19fdff34be840b640b,2021-04-04_21h15.37.765,Colour_Similarity_Experiment,2020.2.10,Win32,60,60675255c767bca6388caeee,8.348204999,8.694109108,8.332488288,8.344062857,8.33653917,8.344062857,,,,,,,,,,,,,,,,,,,,PF,6,weak,,,,,,,,3,1.025325,,,,,,,,,,,,,,,,,,,,,,,,,,,,9,weak,-37,-120,1,0,0,response5disk,5,85,13,-2,1,0,0,rectangle,13,-2,1,0,0,3,2,0.00118,13,-2,1,0,0,0,84,84,134,1,0,,,,,,,,,,,,,,,,,,,,,
,,,,,,,,,,,,,,,,,,,,,,,,,,,,,,,,,,,,,,,,,,5baf06d756161d0001fe6dde,606a0f19fdff34be840b640b,2021-04-04_21h15.37.765,Colour_Similarity_Experiment,2020.2.10,Win32,60,60675255c767bca6388caeee,8.348204999,8.694109108,8.332488288,8.344062857,8.33653917,8.344062857,,,,,,,,,,,,,,,,,,,,PF,6,weak,,,,,,,,5,1.347285,,,,,,,,,,,,,,,,,,,,,,,,,,,,2,weak,112,-66,1,0,0,response3disk,8,86,8,-8,1,0,0,rectangle,8,-8,1,0,0,3,3,0.00154,8,-8,1,0,0,0,85,85,52,1,0,,,,,,,,,,,,,,,,,,,,,
,,,,,,,,,,,,,,,,,,,,,,,,,,,,,,,,,,,,,,,,,,5baf06d756161d0001fe6dde,606a0f19fdff34be840b640b,2021-04-04_21h15.37.765,Colour_Similarity_Experiment,2020.2.10,Win32,60,60675255c767bca6388caeee,8.348204999,8.694109108,8.332488288,8.344062857,8.33653917,8.344062857,,,,,,,,,,,,,,,,,,,,PF,6,weak,,,,,,,,2,1.39192,,,,,,,,,,,,,,,,,,,,,,,,,,,,4,weak,-104,-56,1,0,0,response5disk,8,87,-7,-5,1,0,0,rectangle,-7,-5,1,0,0,3,4,0.00092,-7,-5,1,0,0,0,86,86,124,1,0,,,,,,,,,,,,,,,,,,,,,
,,,,,,,,,,,,,,,,,,,,,,,,,,,,,,,,,,,,,,,,,,5baf06d756161d0001fe6dde,606a0f19fdff34be840b640b,2021-04-04_21h15.37.765,Colour_Similarity_Experiment,2020.2.10,Win32,60,60675255c767bca6388caeee,8.348204999,8.694109108,8.332488288,8.344062857,8.33653917,8.344062857,,,,,,,,,,,,,,,,,,,,PF,6,strong,,,,,,,,6,1.30549,,,,,,,,,,,,,,,,,,,,,,,,,,,,3,strong,118,57,1,0,0,response1disk,5,88,10,7,1,0,0,rectangle,10,7,1,0,0,3,3,0.001015,10,7,1,0,0,0,87,87,101,1,0,,,,,,,,,,,,,,,,,,,,,
,,,,,,,,,,,,,,,,,,,,,,,,,,,,,,,,,,,,,,,,,,5baf06d756161d0001fe6dde,606a0f19fdff34be840b640b,2021-04-04_21h15.37.765,Colour_Similarity_Experiment,2020.2.10,Win32,60,60675255c767bca6388caeee,8.348204999,8.694109108,8.332488288,8.344062857,8.33653917,8.344062857,,,,,,,,,,,,,,,,,,,,PF,6,strong,,,,,,,,1,1.400065,,,,,,,,,,,,,,,,,,,,,,,,,,,,8,strong,-84,74,1,0,0,response7disk,8,89,19,9,1,0,0,rectangle,19,9,1,0,0,3,1,0.00114,19,9,1,0,0,0,88,88,48,1,0,,,,,,,,,,,,,,,,,,,,,
,,,,,,,,,,,,,,,,,,,,,,,,,,,,,,,,,,,,,,,,,,5baf06d756161d0001fe6dde,606a0f19fdff34be840b640b,2021-04-04_21h15.37.765,Colour_Similarity_Experiment,2020.2.10,Win32,60,60675255c767bca6388caeee,8.348204999,8.694109108,8.332488288,8.344062857,8.33653917,8.344062857,,,,,,,,,,,,,,,,,,,,PF,6,weak,,,,,,,,6,1.21678,,,,,,,,,,,,,,,,,,,,,,,,,,,,3,weak,104,53,1,0,0,response1disk,1,90,24,4,1,0,0,rectangle,24,4,1,0,0,3,1,0.000155,24,4,1,0,0,0,89,89,96,1,0,,,,,,,,,,,,,,,,,,,,,
,,,,,,,,,,,,,,,,,,,,,,,,,,,,,,,,,,,,,,,,,,5baf06d756161d0001fe6dde,606a0f19fdff34be840b640b,2021-04-04_21h15.37.765,Colour_Similarity_Experiment,2020.2.10,Win32,60,60675255c767bca6388caeee,8.348204999,8.694109108,8.332488288,8.344062857,8.33653917,8.344062857,,,,,,,,,,,,,,,,,,,,PF,6,weak,,,,,,,,5,0.799815,,,,,,,,,,,,,,,,,,,,,,,,,,,,3,weak,110,-52,1,0,0,response3disk,7,91,5,-3,1,0,0,rectangle,5,-3,1,0,0,3,1,0.00015,5,-3,1,0,0,0,90,90,41,1,0,,,,,,,,,,,,,,,,,,,,,
,,,,,,,,,,,,,,,,,,,,,,,,,,,,,,,,,,,,,,,,,,5baf06d756161d0001fe6dde,606a0f19fdff34be840b640b,2021-04-04_21h15.37.765,Colour_Similarity_Experiment,2020.2.10,Win32,60,60675255c767bca6388caeee,8.348204999,8.694109108,8.332488288,8.344062857,8.33653917,8.344062857,,,,,,,,,,,,,,,,,,,,PF,6,weak,,,,,,,,7,1.54183,,,,,,,,,,,,,,,,,,,,,,,,,,,,6,weak,61,96,1,0,0,response1disk,3,92,5,-3,1,0,0,rectangle,5,-3,1,0,0,3,6,0.00113,5,-3,1,0,0,0,91,91,26,1,0,,,,,,,,,,,,,,,,,,,,,
,,,,,,,,,,,,,,,,,,,,,,,,,,,,,,,,,,,,,,,,,,5baf06d756161d0001fe6dde,606a0f19fdff34be840b640b,2021-04-04_21h15.37.765,Colour_Similarity_Experiment,2020.2.10,Win32,60,60675255c767bca6388caeee,8.348204999,8.694109108,8.332488288,8.344062857,8.33653917,8.344062857,,,,,,,,,,,,,,,,,,,,PF,6,weak,,,,,,,,6,1.21676,,,,,,,,,,,,,,,,,,,,,,,,,,,,7,weak,128,58,1,0,0,response1disk,1,93,18,-1,1,0,0,rectangle,18,-1,1,0,0,3,3,0.00127,18,-1,1,0,0,0,92,92,53,1,0,,,,,,,,,,,,,,,,,,,,,
,,,,,,,,,,,,,,,,,,,,,,,,,,,,,,,,,,,,,,,,,,5baf06d756161d0001fe6dde,606a0f19fdff34be840b640b,2021-04-04_21h15.37.765,Colour_Similarity_Experiment,2020.2.10,Win32,60,60675255c767bca6388caeee,8.348204999,8.694109108,8.332488288,8.344062857,8.33653917,8.344062857,,,,,,,,,,,,,,,,,,,,PF,6,strong,,,,,,,,4,1.691945,,,,,,,,,,,,,,,,,,,,,,,,,,,,5,strong,69,-119,1,0,0,response3disk,7,94,18,-7,1,0,0,rectangle,18,-7,1,0,0,3,1,0.00049,18,-7,1,0,0,0,93,93,7,1,0,,,,,,,,,,,,,,,,,,,,,
,,,,,,,,,,,,,,,,,,,,,,,,,,,,,,,,,,,,,,,,,,5baf06d756161d0001fe6dde,606a0f19fdff34be840b640b,2021-04-04_21h15.37.765,Colour_Similarity_Experiment,2020.2.10,Win32,60,60675255c767bca6388caeee,8.348204999,8.694109108,8.332488288,8.344062857,8.33653917,8.344062857,,,,,,,,,,,,,,,,,,,,PF,6,weak,,,,,,,,7,1.01661,,,,,,,,,,,,,,,,,,,,,,,,,,,,6,weak,50,105,1,0,0,response1disk,1,95,-2,-14,1,0,0,rectangle,-2,-14,1,0,0,3,3,0.00107,-2,-14,1,0,0,0,94,94,46,1,0,,,,,,,,,,,,,,,,,,,,,
,,,,,,,,,,,,,,,,,,,,,,,,,,,,,,,,,,,,,,,,,,5baf06d756161d0001fe6dde,606a0f19fdff34be840b640b,2021-04-04_21h15.37.765,Colour_Similarity_Experiment,2020.2.10,Win32,60,60675255c767bca6388caeee,8.348204999,8.694109108,8.332488288,8.344062857,8.33653917,8.344062857,,,,,,,,,,,,,,,,,,,,PF,6,strong,,,,,,,,4,1.46393,,,,,,,,,,,,,,,,,,,,,,,,,,,,9,strong,59,-123,1,0,0,response3disk,8,96,-1,-1,1,0,0,rectangle,-1,-1,1,0,0,3,1,0.001095,-1,-1,1,0,0,0,95,95,6,1,0,,,,,,,,,,,,,,,,,,,,,
,,,,,,,,,,,,,,,,,,,,,,,,,,,,,,,,,,,,,,,,,,5baf06d756161d0001fe6dde,606a0f19fdff34be840b640b,2021-04-04_21h15.37.765,Colour_Similarity_Experiment,2020.2.10,Win32,60,60675255c767bca6388caeee,8.348204999,8.694109108,8.332488288,8.344062857,8.33653917,8.344062857,,,,,,,,,,,,,,,,,,,,PF,6,strong,,,,,,,,6,1.13365,,,,,,,,,,,,,,,,,,,,,,,,,,,,6,strong,127,44,1,0,0,response1disk,3,97,11,13,1,0,0,rectangle,11,13,1,0,0,3,6,0.00113,11,13,1,0,0,0,96,96,21,1,0,,,,,,,,,,,,,,,,,,,,,
,,,,,,,,,,,,,,,,,,,,,,,,,,,,,,,,,,,,,,,,,,5baf06d756161d0001fe6dde,606a0f19fdff34be840b640b,2021-04-04_21h15.37.765,Colour_Similarity_Experiment,2020.2.10,Win32,60,60675255c767bca6388caeee,8.348204999,8.694109108,8.332488288,8.344062857,8.33653917,8.344062857,,,,,,,,,,,,,,,,,,,,PF,6,strong,,,,,,,,6,1.20581,,,,,,,,,,,,,,,,,,,,,,,,,,,,1,strong,135,65,1,0,0,response1disk,6,98,-5,12,1,0,0,rectangle,-5,12,1,0,0,3,1,0.001285,-5,12,1,0,0,0,97,97,58,1,0,,,,,,,,,,,,,,,,,,,,,
,,,,,,,,,,,,,,,,,,,,,,,,,,,,,,,,,,,,,,,,,,5baf06d756161d0001fe6dde,606a0f19fdff34be840b640b,2021-04-04_21h15.37.765,Colour_Similarity_Experiment,2020.2.10,Win32,60,60675255c767bca6388caeee,8.348204999,8.694109108,8.332488288,8.344062857,8.33653917,8.344062857,,,,,,,,,,,,,,,,,,,,PF,6,weak,,,,,,,,4,1.705655,,,,,,,,,,,,,,,,,,,,,,,,,,,,8,weak,63,-105,1,0,0,response3disk,6,99,-5,0,1,0,0,rectangle,103,-43,1,0,0,5,5,4.475505,12,10,1,0,0,0,98,98,161,1,1,response3disk_3,rectangle,,,,,,,,,,,,,,,,,,,
,,,,,,,,,,,,,,,,,,,,,,,,,,,,,,,,,,,,,,,,,,5baf06d756161d0001fe6dde,606a0f19fdff34be840b640b,2021-04-04_21h15.37.765,Colour_Similarity_Experiment,2020.2.10,Win32,60,60675255c767bca6388caeee,8.348204999,8.694109108,8.332488288,8.344062857,8.33653917,8.344062857,,,,,,,,,,,,,,,,,,,,PF,6,weak,,,,,,,,4,2.991495,,,,,,,,,,,,,,,,,,,,,,,,,,,,5,weak,40,-137,1,0,0,response3disk,8,100,-14,19,1,0,0,rectangle,-14,19,1,0,0,5,2,0.00259,-14,19,1,0,0,0,99,99,149,1,0,,,,,,,,,,,,,,,,,,,,,
,,,,,,,,,,,,,,,,,,,,,,,,,,,,,,,,,,,,,,,,,,5baf06d756161d0001fe6dde,606a0f19fdff34be840b640b,2021-04-04_21h15.37.765,Colour_Similarity_Experiment,2020.2.10,Win32,60,60675255c767bca6388caeee,8.348204999,8.694109108,8.332488288,8.344062857,8.33653917,8.344062857,,,,,,,,,,,,,,,,,,,,PF,6,strong,,,,,,,,6,1.556095,,,,,,,,,,,,,,,,,,,,,,,,,,,,1,strong,118,54,1,0,0,response1disk,2,101,-3,-9,1,0,0,rectangle,-3,-9,1,0,0,5,0,0.00304,-3,-9,1,0,0,0,100,100,2,1,0,,,,,,,,,,,,,,,,,,,,,
,,,,,,,,,,,,,,,,,,,,,,,,,,,,,,,,,,,,,,,,,,5baf06d756161d0001fe6dde,606a0f19fdff34be840b640b,2021-04-04_21h15.37.765,Colour_Similarity_Experiment,2020.2.10,Win32,60,60675255c767bca6388caeee,8.348204999,8.694109108,8.332488288,8.344062857,8.33653917,8.344062857,,,,,,,,,,,,,,,,,,,,PF,6,weak,,,,,,,,5,1.158655,,,,,,,,,,,,,,,,,,,,,,,,,,,,2,weak,85,-56,1,0,0,response3disk,9,102,-25,-5,1,0,0,rectangle,-25,-5,1,0,0,5,5,0.001275,-25,-5,1,0,0,0,101,101,39,1,0,,,,,,,,,,,,,,,,,,,,,
,,,,,,,,,,,,,,,,,,,,,,,,,,,,,,,,,,,,,,,,,,5baf06d756161d0001fe6dde,606a0f19fdff34be840b640b,2021-04-04_21h15.37.765,Colour_Similarity_Experiment,2020.2.10,Win32,60,60675255c767bca6388caeee,8.348204999,8.694109108,8.332488288,8.344062857,8.33653917,8.344062857,,,,,,,,,,,,,,,,,,,,PF,6,weak,,,,,,,,6,0.79751,,,,,,,,,,,,,,,,,,,,,,,,,,,,8,weak,130,51,1,0,0,response1disk,1,103,4,-8,1,0,0,rectangle,4,-8,1,0,0,5,5,0.000195,4,-8,1,0,0,0,102,102,57,1,0,,,,,,,,,,,,,,,,,,,,,
,,,,,,,,,,,,,,,,,,,,,,,,,,,,,,,,,,,,,,,,,,5baf06d756161d0001fe6dde,606a0f19fdff34be840b640b,2021-04-04_21h15.37.765,Colour_Similarity_Experiment,2020.2.10,Win32,60,60675255c767bca6388caeee,8.348204999,8.694109108,8.332488288,8.344062857,8.33653917,8.344062857,,,,,,,,,,,,,,,,,,,,PF,6,strong,,,,,,,,2,1.225135,,,,,,,,,,,,,,,,,,,,,,,,,,,,9,strong,-79,-36,1,0,0,response5disk,9,104,-4,-12,1,0,0,rectangle,-4,-12,1,0,0,5,2,0.000995,-4,-12,1,0,0,0,103,103,17,1,0,,,,,,,,,,,,,,,,,,,,,
,,,,,,,,,,,,,,,,,,,,,,,,,,,,,,,,,,,,,,,,,,5baf06d756161d0001fe6dde,606a0f19fdff34be840b640b,2021-04-04_21h15.37.765,Colour_Similarity_Experiment,2020.2.10,Win32,60,60675255c767bca6388caeee,8.348204999,8.694109108,8.332488288,8.344062857,8.33653917,8.344062857,,,,,,,,,,,,,,,,,,,,PF,6,strong,,,,,,,,5,1.675105,,,,,,,,,,,,,,,,,,,,,,,,,,,,2,strong,115,-74,1,0,0,response3disk,6,105,-18,11,1,0,0,rectangle,-18,11,1,0,0,5,6,0.00093,-18,11,1,0,0,0,104,104,40,1,0,,,,,,,,,,,,,,,,,,,,,
,,,,,,,,,,,,,,,,,,,,,,,,,,,,,,,,,,,,,,,,,,5baf06d756161d0001fe6dde,606a0f19fdff34be840b640b,2021-04-04_21h15.37.765,Colour_Similarity_Experiment,2020.2.10,Win32,60,60675255c767bca6388caeee,8.348204999,8.694109108,8.332488288,8.344062857,8.33653917,8.344062857,,,,,,,,,,,,,,,,,,,,PF,6,weak,,,,,,,,6,2.03349,,,,,,,,,,,,,,,,,,,,,,,,,,,,7,weak,130,58,1,0,0,response1disk,3,106,10,6,1,0,0,rectangle,10,6,1,0,0,5,0,0.002025,10,6,1,0,0,0,105,105,81,1,0,,,,,,,,,,,,,,,,,,,,,
,,,,,,,,,,,,,,,,,,,,,,,,,,,,,,,,,,,,,,,,,,5baf06d756161d0001fe6dde,606a0f19fdff34be840b640b,2021-04-04_21h15.37.765,Colour_Similarity_Experiment,2020.2.10,Win32,60,60675255c767bca6388caeee,8.348204999,8.694109108,8.332488288,8.344062857,8.33653917,8.344062857,,,,,,,,,,,,,,,,,,,,PF,6,weak,,,,,,,,1,1.30013,,,,,,,,,,,,,,,,,,,,,,,,,,,,3,weak,-99,85,1,0,0,response7disk,4,107,2,15,1,0,0,rectangle,2,15,1,0,0,5,6,0.001215,2,15,1,0,0,0,106,106,30,1,0,,,,,,,,,,,,,,,,,,,,,
,,,,,,,,,,,,,,,,,,,,,,,,,,,,,,,,,,,,,,,,,,5baf06d756161d0001fe6dde,606a0f19fdff34be840b640b,2021-04-04_21h15.37.765,Colour_Similarity_Experiment,2020.2.10,Win32,60,60675255c767bca6388caeee,8.348204999,8.694109108,8.332488288,8.344062857,8.33653917,8.344062857,,,,,,,,,,,,,,,,,,,,PF,6,strong,,,,,,,,1,1.20005,,,,,,,,,,,,,,,,,,,,,,,,,,,,1,strong,-87,57,1,0,0,response7disk,9,108,14,9,1,0,0,rectangle,14,9,1,0,0,5,6,0.00056,14,9,1,0,0,0,107,107,123,1,0,,,,,,,,,,,,,,,,,,,,,
,,,,,,,,,,,,,,,,,,,,,,,,,,,,,,,,,,,,,,,,,,5baf06d756161d0001fe6dde,606a0f19fdff34be840b640b,2021-04-04_21h15.37.765,Colour_Similarity_Experiment,2020.2.10,Win32,60,60675255c767bca6388caeee,8.348204999,8.694109108,8.332488288,8.344062857,8.33653917,8.344062857,,,,,,,,,,,,,,,,,,,,PF,6,weak,,,,,,,,4,1.188275,,,,,,,,,,,,,,,,,,,,,,,,,,,,9,weak,55,-90,1,0,0,response3disk,6,109,-7,8,1,0,0,rectangle,-7,8,1,0,0,5,1,0.00099,-7,8,1,0,0,0,108,108,148,1,0,,,,,,,,,,,,,,,,,,,,,
,,,,,,,,,,,,,,,,,,,,,,,,,,,,,,,,,,,,,,,,,,5baf06d756161d0001fe6dde,606a0f19fdff34be840b640b,2021-04-04_21h15.37.765,Colour_Similarity_Experiment,2020.2.10,Win32,60,60675255c767bca6388caeee,8.348204999,8.694109108,8.332488288,8.344062857,8.33653917,8.344062857,,,,,,,,,,,,,,,,,,,,PF,6,weak,,,,,,,,4,1.48895,,,,,,,,,,,,,,,,,,,,,,,,,,,,8,weak,54,-111,1,0,0,response3disk,9,110,-7,-4,1,0,0,rectangle,-7,-4,1,0,0,5,2,0.00106,-7,-4,1,0,0,0,109,109,42,1,0,,,,,,,,,,,,,,,,,,,,,
,,,,,,,,,,,,,,,,,,,,,,,,,,,,,,,,,,,,,,,,,,5baf06d756161d0001fe6dde,606a0f19fdff34be840b640b,2021-04-04_21h15.37.765,Colour_Similarity_Experiment,2020.2.10,Win32,60,60675255c767bca6388caeee,8.348204999,8.694109108,8.332488288,8.344062857,8.33653917,8.344062857,,,,,,,,,,,,,,,,,,,,PF,6,strong,,,,,,,,5,1.855805,,,,,,,,,,,,,,,,,,,,,,,,,,,,3,strong,122,-27,1,0,0,response3disk,8,111,10,-19,1,0,0,rectangle,10,-19,1,0,0,5,6,0.00107,10,-19,1,0,0,0,110,110,44,1,0,,,,,,,,,,,,,,,,,,,,,
,,,,,,,,,,,,,,,,,,,,,,,,,,,,,,,,,,,,,,,,,,5baf06d756161d0001fe6dde,606a0f19fdff34be840b640b,2021-04-04_21h15.37.765,Colour_Similarity_Experiment,2020.2.10,Win32,60,60675255c767bca6388caeee,8.348204999,8.694109108,8.332488288,8.344062857,8.33653917,8.344062857,,,,,,,,,,,,,,,,,,,,PF,6,weak,,,,,,,,4,1.16642,,,,,,,,,,,,,,,,,,,,,,,,,,,,1,weak,70,-125,1,0,0,response3disk,2,112,5,2,1,0,0,rectangle,5,2,1,0,0,5,0,0.00103,5,2,1,0,0,0,111,111,24,1,0,,,,,,,,,,,,,,,,,,,,,
,,,,,,,,,,,,,,,,,,,,,,,,,,,,,,,,,,,,,,,,,,5baf06d756161d0001fe6dde,606a0f19fdff34be840b640b,2021-04-04_21h15.37.765,Colour_Similarity_Experiment,2020.2.10,Win32,60,60675255c767bca6388caeee,8.348204999,8.694109108,8.332488288,8.344062857,8.33653917,8.344062857,,,,,,,,,,,,,,,,,,,,PF,6,strong,,,,,,,,7,1.59203,,,,,,,,,,,,,,,,,,,,,,,,,,,,7,strong,46,111,1,0,0,response1disk,1,113,-5,8,1,0,0,rectangle,-5,8,1,0,0,5,7,0.00129,-5,8,1,0,0,0,112,112,132,1,0,,,,,,,,,,,,,,,,,,,,,
,,,,,,,,,,,,,,,,,,,,,,,,,,,,,,,,,,,,,,,,,,5baf06d756161d0001fe6dde,606a0f19fdff34be840b640b,2021-04-04_21h15.37.765,Colour_Similarity_Experiment,2020.2.10,Win32,60,60675255c767bca6388caeee,8.348204999,8.694109108,8.332488288,8.344062857,8.33653917,8.344062857,,,,,,,,,,,,,,,,,,,,PF,6,strong,,,,,,,,6,1.45,,,,,,,,,,,,,,,,,,,,,,,,,,,,3,strong,109,32,1,0,0,response1disk,3,114,22,-12,1,0,0,rectangle,22,-12,1,0,0,5,4,0.00083,22,-12,1,0,0,0,113,113,68,1,0,,,,,,,,,,,,,,,,,,,,,
,,,,,,,,,,,,,,,,,,,,,,,,,,,,,,,,,,,,,,,,,,5baf06d756161d0001fe6dde,606a0f19fdff34be840b640b,2021-04-04_21h15.37.765,Colour_Similarity_Experiment,2020.2.10,Win32,60,60675255c767bca6388caeee,8.348204999,8.694109108,8.332488288,8.344062857,8.33653917,8.344062857,,,,,,,,,,,,,,,,,,,,PF,6,weak,,,,,,,,0,1.358095,,,,,,,,,,,,,,,,,,,,,,,,,,,,4,weak,-39,104,1,0,0,response7disk,4,115,9,-8,1,0,0,rectangle,9,-8,1,0,0,5,6,0.00109,9,-8,1,0,0,0,114,114,70,1,0,,,,,,,,,,,,,,,,,,,,,
,,,,,,,,,,,,,,,,,,,,,,,,,,,,,,,,,,,,,,,,,,5baf06d756161d0001fe6dde,606a0f19fdff34be840b640b,2021-04-04_21h15.37.765,Colour_Similarity_Experiment,2020.2.10,Win32,60,60675255c767bca6388caeee,8.348204999,8.694109108,8.332488288,8.344062857,8.33653917,8.344062857,,,,,,,,,,,,,,,,,,,,PF,6,weak,,,,,,,,3,3.265805,,,,,,,,,,,,,,,,,,,,,,,,,,,,1,weak,-59,-107,1,0,0,response5disk,4,116,11,12,1,0,0,rectangle,11,12,1,0,0,5,3,0.00105,11,12,1,0,0,0,115,115,139,1,0,,,,,,,,,,,,,,,,,,,,,
,,,,,,,,,,,,,,,,,,,,,,,,,,,,,,,,,,,,,,,,,,5baf06d756161d0001fe6dde,606a0f19fdff34be840b640b,2021-04-04_21h15.37.765,Colour_Similarity_Experiment,2020.2.10,Win32,60,60675255c767bca6388caeee,8.348204999,8.694109108,8.332488288,8.344062857,8.33653917,8.344062857,,,,,,,,,,,,,,,,,,,,PF,6,strong,,,,,,,,5,1.19184,,,,,,,,,,,,,,,,,,,,,,,,,,,,2,strong,142,-37,1,0,0,response3disk,5,117,12,-2,1,0,0,rectangle,12,-2,1,0,0,5,4,0.00084,12,-2,1,0,0,0,116,116,80,1,0,,,,,,,,,,,,,,,,,,,,,
,,,,,,,,,,,,,,,,,,,,,,,,,,,,,,,,,,,,,,,,,,5baf06d756161d0001fe6dde,606a0f19fdff34be840b640b,2021-04-04_21h15.37.765,Colour_Similarity_Experiment,2020.2.10,Win32,60,60675255c767bca6388caeee,8.348204999,8.694109108,8.332488288,8.344062857,8.33653917,8.344062857,,,,,,,,,,,,,,,,,,,,PF,6,weak,,,,,,,,5,1.583495,,,,,,,,,,,,,,,,,,,,,,,,,,,,6,weak,94,-30,1,0,0,response3disk,6,118,24,-10,1,0,0,rectangle,24,-10,1,0,0,5,0,0.001075,24,-10,1,0,0,0,117,117,0,1,0,,,,,,,,,,,,,,,,,,,,,
,,,,,,,,,,,,,,,,,,,,,,,,,,,,,,,,,,,,,,,,,,5baf06d756161d0001fe6dde,606a0f19fdff34be840b640b,2021-04-04_21h15.37.765,Colour_Similarity_Experiment,2020.2.10,Win32,60,60675255c767bca6388caeee,8.348204999,8.694109108,8.332488288,8.344062857,8.33653917,8.344062857,,,,,,,,,,,,,,,,,,,,PF,6,strong,,,,,,,,2,1.20555,,,,,,,,,,,,,,,,,,,,,,,,,,,,7,strong,-87,-35,1,0,0,response5disk,7,119,23,2,1,0,0,rectangle,23,2,1,0,0,5,0,0.000135,23,2,1,0,0,0,118,118,34,1,0,,,,,,,,,,,,,,,,,,,,,
,,,,,,,,,,,,,,,,,,,,,,,,,,,,,,,,,,,,,,,,,,5baf06d756161d0001fe6dde,606a0f19fdff34be840b640b,2021-04-04_21h15.37.765,Colour_Similarity_Experiment,2020.2.10,Win32,60,60675255c767bca6388caeee,8.348204999,8.694109108,8.332488288,8.344062857,8.33653917,8.344062857,,,,,,,,,,,,,,,,,,,,PF,6,strong,,,,,,,,3,1.37524,,,,,,,,,,,,,,,,,,,,,,,,,,,,7,strong,-53,-112,1,0,0,response5disk,6,120,-6,-6,1,0,0,rectangle,-6,-6,1,0,0,5,5,0.00103,-6,-6,1,0,0,0,119,119,31,1,0,,,,,,,,,,,,,,,,,,,,,
,,,,,,,,,,,,,,,,,,,,,,,,,,,,,,,,,,,,,,,,,,5baf06d756161d0001fe6dde,606a0f19fdff34be840b640b,2021-04-04_21h15.37.765,Colour_Similarity_Experiment,2020.2.10,Win32,60,60675255c767bca6388caeee,8.348204999,8.694109108,8.332488288,8.344062857,8.33653917,8.344062857,,,,,,,,,,,,,,,,,,,,PF,6,strong,,,,,,,,3,1.533125,,,,,,,,,,,,,,,,,,,,,,,,,,,,3,strong,-43,-97,1,0,0,response5disk,6,121,-18,7,1,0,0,rectangle,-18,7,1,0,0,5,0,0.000855,-18,7,1,0,0,0,120,120,95,1,0,,,,,,,,,,,,,,,,,,,,,
,,,,,,,,,,,,,,,,,,,,,,,,,,,,,,,,,,,,,,,,,,5baf06d756161d0001fe6dde,606a0f19fdff34be840b640b,2021-04-04_21h15.37.765,Colour_Similarity_Experiment,2020.2.10,Win32,60,60675255c767bca6388caeee,8.348204999,8.694109108,8.332488288,8.344062857,8.33653917,8.344062857,,,,,,,,,,,,,,,,,,,,PF,6,strong,,,,,,,,2,1.091735,,,,,,,,,,,,,,,,,,,,,,,,,,,,3,strong,-85,-47,1,0,0,response5disk,4,122,-10,-16,1,0,0,rectangle,-10,-16,1,0,0,5,7,0.001315,-10,-16,1,0,0,0,121,121,110,1,0,,,,,,,,,,,,,,,,,,,,,
,,,,,,,,,,,,,,,,,,,,,,,,,,,,,,,,,,,,,,,,,,5baf06d756161d0001fe6dde,606a0f19fdff34be840b640b,2021-04-04_21h15.37.765,Colour_Similarity_Experiment,2020.2.10,Win32,60,60675255c767bca6388caeee,8.348204999,8.694109108,8.332488288,8.344062857,8.33653917,8.344062857,,,,,,,,,,,,,,,,,,,,PF,6,weak,,,,,,,,1,1.15599,,,,,,,,,,,,,,,,,,,,,,,,,,,,6,weak,-99,29,1,0,0,response7disk,7,123,-25,-2,1,0,0,rectangle,-25,-2,1,0,0,5,7,0.00018,-25,-2,1,0,0,0,122,122,50,1,0,,,,,,,,,,,,,,,,,,,,,
,,,,,,,,,,,,,,,,,,,,,,,,,,,,,,,,,,,,,,,,,,5baf06d756161d0001fe6dde,606a0f19fdff34be840b640b,2021-04-04_21h15.37.765,Colour_Similarity_Experiment,2020.2.10,Win32,60,60675255c767bca6388caeee,8.348204999,8.694109108,8.332488288,8.344062857,8.33653917,8.344062857,,,,,,,,,,,,,,,,,,,,PF,6,weak,,,,,,,,2,1.81381,,,,,,,,,,,,,,,,,,,,,,,,,,,,1,weak,-103,-66,1,0,0,response5disk,7,124,-5,-9,1,0,0,rectangle,-5,-9,1,0,0,5,4,0.00128,-5,-9,1,0,0,0,123,123,150,1,0,,,,,,,,,,,,,,,,,,,,,
,,,,,,,,,,,,,,,,,,,,,,,,,,,,,,,,,,,,,,,,,,5baf06d756161d0001fe6dde,606a0f19fdff34be840b640b,2021-04-04_21h15.37.765,Colour_Similarity_Experiment,2020.2.10,Win32,60,60675255c767bca6388caeee,8.348204999,8.694109108,8.332488288,8.344062857,8.33653917,8.344062857,,,,,,,,,,,,,,,,,,,,PF,6,strong,,,,,,,,5,1.042025,,,,,,,,,,,,,,,,,,,,,,,,,,,,6,strong,114,-66,1,0,0,response3disk,5,125,-3,-19,1,0,0,rectangle,-3,-19,1,0,0,5,4,0.0002,-3,-19,1,0,0,0,124,124,126,1,0,,,,,,,,,,,,,,,,,,,,,
,,,,,,,,,,,,,,,,,,,,,,,,,,,,,,,,,,,,,,,,,,5baf06d756161d0001fe6dde,606a0f19fdff34be840b640b,2021-04-04_21h15.37.765,Colour_Similarity_Experiment,2020.2.10,Win32,60,60675255c767bca6388caeee,8.348204999,8.694109108,8.332488288,8.344062857,8.33653917,8.344062857,,,,,,,,,,,,,,,,,,,,PF,6,strong,,,,,,,,6,0.900345,,,,,,,,,,,,,,,,,,,,,,,,,,,,9,strong,131,68,1,0,0,response1disk,4,126,-2,-13,1,0,0,rectangle,-2,-13,1,0,0,5,3,0.00135,-2,-13,1,0,0,0,125,125,60,1,0,,,,,,,,,,,,,,,,,,,,,
,,,,,,,,,,,,,,,,,,,,,,,,,,,,,,,,,,,,,,,,,,5baf06d756161d0001fe6dde,606a0f19fdff34be840b640b,2021-04-04_21h15.37.765,Colour_Similarity_Experiment,2020.2.10,Win32,60,60675255c767bca6388caeee,8.348204999,8.694109108,8.332488288,8.344062857,8.33653917,8.344062857,,,,,,,,,,,,,,,,,,,,PF,6,strong,,,,,,,,6,0.71692,,,,,,,,,,,,,,,,,,,,,,,,,,,,1,strong,95,54,1,0,0,response1disk,3,127,-1,-12,1,0,0,rectangle,-1,-12,1,0,0,5,4,0.00128,-1,-12,1,0,0,0,126,126,99,1,0,,,,,,,,,,,,,,,,,,,,,
,,,,,,,,,,,,,,,,,,,,,,,,,,,,,,,,,,,,,,,,,,5baf06d756161d0001fe6dde,606a0f19fdff34be840b640b,2021-04-04_21h15.37.765,Colour_Similarity_Experiment,2020.2.10,Win32,60,60675255c767bca6388caeee,8.348204999,8.694109108,8.332488288,8.344062857,8.33653917,8.344062857,,,,,,,,,,,,,,,,,,,,PF,6,strong,,,,,,,,6,0.816735,,,,,,,,,,,,,,,,,,,,,,,,,,,,5,strong,77,50,1,0,0,response1disk,8,128,-18,-16,1,0,0,rectangle,-18,-16,1,0,0,5,0,0.000955,-18,-16,1,0,0,0,127,127,16,1,0,,,,,,,,,,,,,,,,,,,,,
,,,,,,,,,,,,,,,,,,,,,,,,,,,,,,,,,,,,,,,,,,5baf06d756161d0001fe6dde,606a0f19fdff34be840b640b,2021-04-04_21h15.37.765,Colour_Similarity_Experiment,2020.2.10,Win32,60,60675255c767bca6388caeee,8.348204999,8.694109108,8.332488288,8.344062857,8.33653917,8.344062857,,,,,,,,,,,,,,,,,,,,PF,6,weak,,,,,,,,4,2.66694,,,,,,,,,,,,,,,,,,,,,,,,,,,,7,weak,69,-105,1,0,0,response3disk,6,129,-6,-5,1,0,0,rectangle,-6,-5,1,0,0,5,2,0.00124,-6,-5,1,0,0,0,128,128,29,1,0,,,,,,,,,,,,,,,,,,,,,
,,,,,,,,,,,,,,,,,,,,,,,,,,,,,,,,,,,,,,,,,,5baf06d756161d0001fe6dde,606a0f19fdff34be840b640b,2021-04-04_21h15.37.765,Colour_Similarity_Experiment,2020.2.10,Win32,60,60675255c767bca6388caeee,8.348204999,8.694109108,8.332488288,8.344062857,8.33653917,8.344062857,,,,,,,,,,,,,,,,,,,,PF,6,strong,,,,,,,,4,0.991805,,,,,,,,,,,,,,,,,,,,,,,,,,,,4,strong,39,-117,1,0,0,response3disk,6,130,-11,-14,1,0,0,rectangle,-11,-14,1,0,0,5,0,0.001,-11,-14,1,0,0,0,129,129,122,1,0,,,,,,,,,,,,,,,,,,,,,
,,,,,,,,,,,,,,,,,,,,,,,,,,,,,,,,,,,,,,,,,,5baf06d756161d0001fe6dde,606a0f19fdff34be840b640b,2021-04-04_21h15.37.765,Colour_Similarity_Experiment,2020.2.10,Win32,60,60675255c767bca6388caeee,8.348204999,8.694109108,8.332488288,8.344062857,8.33653917,8.344062857,,,,,,,,,,,,,,,,,,,,PF,6,strong,,,,,,,,2,0.972345,,,,,,,,,,,,,,,,,,,,,,,,,,,,4,strong,-81,-45,1,0,0,response5disk,4,131,-14,-11,1,0,0,rectangle,-14,-11,1,0,0,5,7,0.00105,-14,-11,1,0,0,0,130,130,84,1,0,,,,,,,,,,,,,,,,,,,,,
,,,,,,,,,,,,,,,,,,,,,,,,,,,,,,,,,,,,,,,,,,5baf06d756161d0001fe6dde,606a0f19fdff34be840b640b,2021-04-04_21h15.37.765,Colour_Similarity_Experiment,2020.2.10,Win32,60,60675255c767bca6388caeee,8.348204999,8.694109108,8.332488288,8.344062857,8.33653917,8.344062857,,,,,,,,,,,,,,,,,,,,PF,6,strong,,,,,,,,5,0.89741,,,,,,,,,,,,,,,,,,,,,,,,,,,,1,strong,105,-52,1,0,0,response3disk,7,132,14,-7,1,0,0,rectangle,14,-7,1,0,0,5,2,0.00102,14,-7,1,0,0,0,131,131,137,1,0,,,,,,,,,,,,,,,,,,,,,
,,,,,,,,,,,,,,,,,,,,,,,,,,,,,,,,,,,,,,,,,,5baf06d756161d0001fe6dde,606a0f19fdff34be840b640b,2021-04-04_21h15.37.765,Colour_Similarity_Experiment,2020.2.10,Win32,60,60675255c767bca6388caeee,8.348204999,8.694109108,8.332488288,8.344062857,8.33653917,8.344062857,,,,,,,,,,,,,,,,,,,,PF,6,strong,,,,,,,,6,1.900315,,,,,,,,,,,,,,,,,,,,,,,,,,,,1,strong,129,89,1,0,0,response1disk,5,133,24,10,1,0,0,rectangle,24,10,1,0,0,5,0,0.001345,24,10,1,0,0,0,132,132,82,1,0,,,,,,,,,,,,,,,,,,,,,
,,,,,,,,,,,,,,,,,,,,,,,,,,,,,,,,,,,,,,,,,,5baf06d756161d0001fe6dde,606a0f19fdff34be840b640b,2021-04-04_21h15.37.765,Colour_Similarity_Experiment,2020.2.10,Win32,60,60675255c767bca6388caeee,8.348204999,8.694109108,8.332488288,8.344062857,8.33653917,8.344062857,,,,,,,,,,,,,,,,,,,,PF,6,weak,,,,,,,,4,0.65037,,,,,,,,,,,,,,,,,,,,,,,,,,,,2,weak,75,-91,1,0,0,response3disk,4,134,6,-11,1,0,0,rectangle,6,-11,1,0,0,5,7,0.001215,6,-11,1,0,0,0,133,133,127,1,0,,,,,,,,,,,,,,,,,,,,,
,,,,,,,,,,,,,,,,,,,,,,,,,,,,,,,,,,,,,,,,,,5baf06d756161d0001fe6dde,606a0f19fdff34be840b640b,2021-04-04_21h15.37.765,Colour_Similarity_Experiment,2020.2.10,Win32,60,60675255c767bca6388caeee,8.348204999,8.694109108,8.332488288,8.344062857,8.33653917,8.344062857,,,,,,,,,,,,,,,,,,,,PF,6,strong,,,,,,,,5,0.90035,,,,,,,,,,,,,,,,,,,,,,,,,,,,6,strong,85,-48,1,0,0,response3disk,8,135,-22,-14,1,0,0,rectangle,-22,-14,1,0,0,5,6,0.00047,-22,-14,1,0,0,0,134,134,133,1,0,,,,,,,,,,,,,,,,,,,,,
,,,,,,,,,,,,,,,,,,,,,,,,,,,,,,,,,,,,,,,,,,5baf06d756161d0001fe6dde,606a0f19fdff34be840b640b,2021-04-04_21h15.37.765,Colour_Similarity_Experiment,2020.2.10,Win32,60,60675255c767bca6388caeee,8.348204999,8.694109108,8.332488288,8.344062857,8.33653917,8.344062857,,,,,,,,,,,,,,,,,,,,PF,6,weak,,,,,,,,3,0.97529,,,,,,,,,,,,,,,,,,,,,,,,,,,,3,weak,-55,-97,1,0,0,response5disk,5,136,-10,0,1,0,0,rectangle,-10,0,1,0,0,5,3,0.000915,-10,0,1,0,0,0,135,135,66,1,0,,,,,,,,,,,,,,,,,,,,,
,,,,,,,,,,,,,,,,,,,,,,,,,,,,,,,,,,,,,,,,,,5baf06d756161d0001fe6dde,606a0f19fdff34be840b640b,2021-04-04_21h15.37.765,Colour_Similarity_Experiment,2020.2.10,Win32,60,60675255c767bca6388caeee,8.348204999,8.694109108,8.332488288,8.344062857,8.33653917,8.344062857,,,,,,,,,,,,,,,,,,,,PF,6,strong,,,,,,,,6,1.08367,,,,,,,,,,,,,,,,,,,,,,,,,,,,5,strong,102,62,1,0,0,response1disk,1,137,5,-4,1,0,0,rectangle,5,-4,1,0,0,5,1,0.00129,5,-4,1,0,0,0,136,136,131,1,0,,,,,,,,,,,,,,,,,,,,,
,,,,,,,,,,,,,,,,,,,,,,,,,,,,,,,,,,,,,,,,,,5baf06d756161d0001fe6dde,606a0f19fdff34be840b640b,2021-04-04_21h15.37.765,Colour_Similarity_Experiment,2020.2.10,Win32,60,60675255c767bca6388caeee,8.348204999,8.694109108,8.332488288,8.344062857,8.33653917,8.344062857,,,,,,,,,,,,,,,,,,,,PF,6,strong,,,,,,,,4,1.475095,,,,,,,,,,,,,,,,,,,,,,,,,,,,7,strong,55,-133,1,0,0,response3disk,4,138,-7,-16,1,0,0,rectangle,-7,-16,1,0,0,5,7,0.00095,-7,-16,1,0,0,0,137,137,158,1,0,,,,,,,,,,,,,,,,,,,,,
,,,,,,,,,,,,,,,,,,,,,,,,,,,,,,,,,,,,,,,,,,5baf06d756161d0001fe6dde,606a0f19fdff34be840b640b,2021-04-04_21h15.37.765,Colour_Similarity_Experiment,2020.2.10,Win32,60,60675255c767bca6388caeee,8.348204999,8.694109108,8.332488288,8.344062857,8.33653917,8.344062857,,,,,,,,,,,,,,,,,,,,PF,6,weak,,,,,,,,4,1.88051,,,,,,,,,,,,,,,,,,,,,,,,,,,,1,weak,60,-101,1,0,0,response3disk,9,139,13,-3,1,0,0,rectangle,13,-3,1,0,0,5,4,0.001505,13,-3,1,0,0,0,138,138,15,1,0,,,,,,,,,,,,,,,,,,,,,
,,,,,,,,,,,,,,,,,,,,,,,,,,,,,,,,,,,,,,,,,,5baf06d756161d0001fe6dde,606a0f19fdff34be840b640b,2021-04-04_21h15.37.765,Colour_Similarity_Experiment,2020.2.10,Win32,60,60675255c767bca6388caeee,8.348204999,8.694109108,8.332488288,8.344062857,8.33653917,8.344062857,,,,,,,,,,,,,,,,,,,,PF,6,strong,,,,,,,,5,0.76678,,,,,,,,,,,,,,,,,,,,,,,,,,,,9,strong,108,-41,1,0,0,response3disk,5,140,19,-10,1,0,0,rectangle,19,-10,1,0,0,5,7,0.001125,19,-10,1,0,0,0,139,139,128,1,0,,,,,,,,,,,,,,,,,,,,,
,,,,,,,,,,,,,,,,,,,,,,,,,,,,,,,,,,,,,,,,,,5baf06d756161d0001fe6dde,606a0f19fdff34be840b640b,2021-04-04_21h15.37.765,Colour_Similarity_Experiment,2020.2.10,Win32,60,60675255c767bca6388caeee,8.348204999,8.694109108,8.332488288,8.344062857,8.33653917,8.344062857,,,,,,,,,,,,,,,,,,,,PF,6,strong,,,,,,,,7,1.44175,,,,,,,,,,,,,,,,,,,,,,,,,,,,6,strong,72,118,1,0,0,response1disk,7,141,20,18,1,0,0,rectangle,20,18,1,0,0,5,1,0.001075,20,18,1,0,0,0,140,140,18,1,0,,,,,,,,,,,,,,,,,,,,,
,,,,,,,,,,,,,,,,,,,,,,,,,,,,,,,,,,,,,,,,,,5baf06d756161d0001fe6dde,606a0f19fdff34be840b640b,2021-04-04_21h15.37.765,Colour_Similarity_Experiment,2020.2.10,Win32,60,60675255c767bca6388caeee,8.348204999,8.694109108,8.332488288,8.344062857,8.33653917,8.344062857,,,,,,,,,,,,,,,,,,,,PF,6,weak,,,,,,,,7,0.70907,,,,,,,,,,,,,,,,,,,,,,,,,,,,3,weak,66,87,1,0,0,response1disk,2,142,15,-17,1,0,0,rectangle,-55,122,1,0,0,0,0,1.842485,4,11,1,0,0,0,141,141,36,1,1,response7disk_3,rectangle,,,,,,,,,,,,,,,,,,,
,,,,,,,,,,,,,,,,,,,,,,,,,,,,,,,,,,,,,,,,,,5baf06d756161d0001fe6dde,606a0f19fdff34be840b640b,2021-04-04_21h15.37.765,Colour_Similarity_Experiment,2020.2.10,Win32,60,60675255c767bca6388caeee,8.348204999,8.694109108,8.332488288,8.344062857,8.33653917,8.344062857,,,,,,,,,,,,,,,,,,,,PF,6,weak,,,,,,,,6,1.814185,,,,,,,,,,,,,,,,,,,,,,,,,,,,4,weak,101,77,1,0,0,response1disk,7,143,5,0,1,0,0,rectangle,5,0,1,0,0,0,5,0.001195,5,0,1,0,0,0,142,142,38,1,0,,,,,,,,,,,,,,,,,,,,,
,,,,,,,,,,,,,,,,,,,,,,,,,,,,,,,,,,,,,,,,,,5baf06d756161d0001fe6dde,606a0f19fdff34be840b640b,2021-04-04_21h15.37.765,Colour_Similarity_Experiment,2020.2.10,Win32,60,60675255c767bca6388caeee,8.348204999,8.694109108,8.332488288,8.344062857,8.33653917,8.344062857,,,,,,,,,,,,,,,,,,,,PF,6,weak,,,,,,,,6,49.46881,,,,,,,,,,,,,,,,,,,,,,,,,,,,3,weak,166,102,1,0,0,response1disk,8,144,20,21,1,0,0,rectangle,20,21,1,0,0,0,0,0.001635,20,21,1,0,0,0,143,143,3,1,0,,,,,,,,,,,,,,,,,,,,,
,,,,,,,,,,,,,,,,,,,,,,,,,,,,,,,,,,,,,,,,,,5baf06d756161d0001fe6dde,606a0f19fdff34be840b640b,2021-04-04_21h15.37.765,Colour_Similarity_Experiment,2020.2.10,Win32,60,60675255c767bca6388caeee,8.348204999,8.694109108,8.332488288,8.344062857,8.33653917,8.344062857,,,,,,,,,,,,,,,,,,,,PF,6,strong,,,,,,,,6,1.78927,,,,,,,,,,,,,,,,,,,,,,,,,,,,6,strong,122,51,1,0,0,response1disk,1,145,28,15,1,0,0,rectangle,28,15,1,0,0,0,6,0.00127,28,15,1,0,0,0,144,144,5,1,0,,,,,,,,,,,,,,,,,,,,,
,,,,,,,,,,,,,,,,,,,,,,,,,,,,,,,,,,,,,,,,,,5baf06d756161d0001fe6dde,606a0f19fdff34be840b640b,2021-04-04_21h15.37.765,Colour_Similarity_Experiment,2020.2.10,Win32,60,60675255c767bca6388caeee,8.348204999,8.694109108,8.332488288,8.344062857,8.33653917,8.344062857,,,,,,,,,,,,,,,,,,,,PF,6,weak,,,,,,,,6,0.880405,,,,,,,,,,,,,,,,,,,,,,,,,,,,4,weak,137,74,1,0,0,response1disk,3,146,16,-5,1,0,0,rectangle,16,-5,1,0,0,0,6,0.00012,16,-5,1,0,0,0,145,145,89,1,0,,,,,,,,,,,,,,,,,,,,,
,,,,,,,,,,,,,,,,,,,,,,,,,,,,,,,,,,,,,,,,,,5baf06d756161d0001fe6dde,606a0f19fdff34be840b640b,2021-04-04_21h15.37.765,Colour_Similarity_Experiment,2020.2.10,Win32,60,60675255c767bca6388caeee,8.348204999,8.694109108,8.332488288,8.344062857,8.33653917,8.344062857,,,,,,,,,,,,,,,,,,,,PF,6,weak,,,,,,,,1,1.10833,,,,,,,,,,,,,,,,,,,,,,,,,,,,7,weak,-89,47,1,0,0,response7disk,8,147,8,3,1,0,0,rectangle,8,3,1,0,0,0,5,0.001325,8,3,1,0,0,0,146,146,140,1,0,,,,,,,,,,,,,,,,,,,,,
,,,,,,,,,,,,,,,,,,,,,,,,,,,,,,,,,,,,,,,,,,5baf06d756161d0001fe6dde,606a0f19fdff34be840b640b,2021-04-04_21h15.37.765,Colour_Similarity_Experiment,2020.2.10,Win32,60,60675255c767bca6388caeee,8.348204999,8.694109108,8.332488288,8.344062857,8.33653917,8.344062857,,,,,,,,,,,,,,,,,,,,PF,6,weak,,,,,,,,2,1.93336,,,,,,,,,,,,,,,,,,,,,,,,,,,,2,weak,-70,-29,1,0,0,response5disk,5,148,10,18,1,0,0,rectangle,10,18,1,0,0,0,2,0.001165,10,18,1,0,0,0,147,147,147,1,0,,,,,,,,,,,,,,,,,,,,,
,,,,,,,,,,,,,,,,,,,,,,,,,,,,,,,,,,,,,,,,,,5baf06d756161d0001fe6dde,606a0f19fdff34be840b640b,2021-04-04_21h15.37.765,Colour_Similarity_Experiment,2020.2.10,Win32,60,60675255c767bca6388caeee,8.348204999,8.694109108,8.332488288,8.344062857,8.33653917,8.344062857,,,,,,,,,,,,,,,,,,,,PF,6,strong,,,,,,,,2,1.12236,,,,,,,,,,,,,,,,,,,,,,,,,,,,4,strong,-77,-38,1,0,0,response5disk,9,149,16,14,1,0,0,rectangle,16,14,1,0,0,0,4,0.001015,16,14,1,0,0,0,148,148,90,1,0,,,,,,,,,,,,,,,,,,,,,
,,,,,,,,,,,,,,,,,,,,,,,,,,,,,,,,,,,,,,,,,,5baf06d756161d0001fe6dde,606a0f19fdff34be840b640b,2021-04-04_21h15.37.765,Colour_Similarity_Experiment,2020.2.10,Win32,60,60675255c767bca6388caeee,8.348204999,8.694109108,8.332488288,8.344062857,8.33653917,8.344062857,,,,,,,,,,,,,,,,,,,,PF,6,weak,,,,,,,,6,1.247145,,,,,,,,,,,,,,,,,,,,,,,,,,,,5,weak,135,48,1,0,0,response1disk,2,150,10,8,1,0,0,rectangle,10,8,1,0,0,0,1,0.000985,10,8,1,0,0,0,149,149,129,1,0,,,,,,,,,,,,,,,,,,,,,
,,,,,,,,,,,,,,,,,,,,,,,,,,,,,,,,,,,,,,,,,,5baf06d756161d0001fe6dde,606a0f19fdff34be840b640b,2021-04-04_21h15.37.765,Colour_Similarity_Experiment,2020.2.10,Win32,60,60675255c767bca6388caeee,8.348204999,8.694109108,8.332488288,8.344062857,8.33653917,8.344062857,,,,,,,,,,,,,,,,,,,,PF,6,strong,,,,,,,,2,1.45849,,,,,,,,,,,,,,,,,,,,,,,,,,,,7,strong,-117,-68,1,0,0,response5disk,9,151,0,12,1,0,0,rectangle,0,12,1,0,0,0,6,0.001355,0,12,1,0,0,0,150,150,155,1,0,,,,,,,,,,,,,,,,,,,,,
,,,,,,,,,,,,,,,,,,,,,,,,,,,,,,,,,,,,,,,,,,5baf06d756161d0001fe6dde,606a0f19fdff34be840b640b,2021-04-04_21h15.37.765,Colour_Similarity_Experiment,2020.2.10,Win32,60,60675255c767bca6388caeee,8.348204999,8.694109108,8.332488288,8.344062857,8.33653917,8.344062857,,,,,,,,,,,,,,,,,,,,PF,6,strong,,,,,,,,2,1.34232,,,,,,,,,,,,,,,,,,,,,,,,,,,,6,strong,-111,-61,1,0,0,response5disk,9,152,20,13,1,0,0,rectangle,90,-131,1,0,0,4,4,1.636115,-25,-5,1,0,0,0,151,151,160,1,1,response3disk_3,rectangle,,,,,,,,,,,,,,,,,,,
,,,,,,,,,,,,,,,,,,,,,,,,,,,,,,,,,,,,,,,,,,5baf06d756161d0001fe6dde,606a0f19fdff34be840b640b,2021-04-04_21h15.37.765,Colour_Similarity_Experiment,2020.2.10,Win32,60,60675255c767bca6388caeee,8.348204999,8.694109108,8.332488288,8.344062857,8.33653917,8.344062857,,,,,,,,,,,,,,,,,,,,PF,6,weak,,,,,,,,5,1.63374,,,,,,,,,,,,,,,,,,,,,,,,,,,,4,weak,119,-55,1,0,0,response3disk,6,153,-8,-5,1,0,0,rectangle,-8,-5,1,0,0,4,7,0.00076,-8,-5,1,0,0,0,152,152,120,1,0,,,,,,,,,,,,,,,,,,,,,
,,,,,,,,,,,,,,,,,,,,,,,,,,,,,,,,,,,,,,,,,,5baf06d756161d0001fe6dde,606a0f19fdff34be840b640b,2021-04-04_21h15.37.765,Colour_Similarity_Experiment,2020.2.10,Win32,60,60675255c767bca6388caeee,8.348204999,8.694109108,8.332488288,8.344062857,8.33653917,8.344062857,,,,,,,,,,,,,,,,,,,,PF,6,strong,,,,,,,,1,0.96723,,,,,,,,,,,,,,,,,,,,,,,,,,,,8,strong,-126,59,1,0,0,response7disk,9,154,-15,-12,1,0,0,rectangle,-15,-12,1,0,0,4,0,0.00155,-15,-12,1,0,0,0,153,153,105,1,0,,,,,,,,,,,,,,,,,,,,,
,,,,,,,,,,,,,,,,,,,,,,,,,,,,,,,,,,,,,,,,,,5baf06d756161d0001fe6dde,606a0f19fdff34be840b640b,2021-04-04_21h15.37.765,Colour_Similarity_Experiment,2020.2.10,Win32,60,60675255c767bca6388caeee,8.348204999,8.694109108,8.332488288,8.344062857,8.33653917,8.344062857,,,,,,,,,,,,,,,,,,,,PF,6,weak,,,,,,,,6,1.27508,,,,,,,,,,,,,,,,,,,,,,,,,,,,1,weak,101,41,1,0,0,response1disk,1,155,24,2,1,0,0,rectangle,90,114,1,0,0,7,7,1.94954,7,-13,1,0,0,0,154,154,76,1,1,response1disk_3,rectangle,,,,,,,,,,,,,,,,,,,
,,,,,,,,,,,,,,,,,,,,,,,,,,,,,,,,,,,,,,,,,,5baf06d756161d0001fe6dde,606a0f19fdff34be840b640b,2021-04-04_21h15.37.765,Colour_Similarity_Experiment,2020.2.10,Win32,60,60675255c767bca6388caeee,8.348204999,8.694109108,8.332488288,8.344062857,8.33653917,8.344062857,,,,,,,,,,,,,,,,,,,,PF,6,strong,,,,,,,,4,1.13362,,,,,,,,,,,,,,,,,,,,,,,,,,,,2,strong,87,-122,1,0,0,response3disk,4,156,15,-5,1,0,0,rectangle,15,-5,1,0,0,7,1,0.001345,15,-5,1,0,0,0,155,155,145,1,0,,,,,,,,,,,,,,,,,,,,,
,,,,,,,,,,,,,,,,,,,,,,,,,,,,,,,,,,,,,,,,,,5baf06d756161d0001fe6dde,606a0f19fdff34be840b640b,2021-04-04_21h15.37.765,Colour_Similarity_Experiment,2020.2.10,Win32,60,60675255c767bca6388caeee,8.348204999,8.694109108,8.332488288,8.344062857,8.33653917,8.344062857,,,,,,,,,,,,,,,,,,,,PF,6,weak,,,,,,,,1,1.35856,,,,,,,,,,,,,,,,,,,,,,,,,,,,9,weak,-99,63,1,0,0,response7disk,8,157,3,3,1,0,0,rectangle,3,3,1,0,0,7,4,0.001305,3,3,1,0,0,0,156,156,67,1,0,,,,,,,,,,,,,,,,,,,,,
,,,,,,,,,,,,,,,,,,,,,,,,,,,,,,,,,,,,,,,,,,5baf06d756161d0001fe6dde,606a0f19fdff34be840b640b,2021-04-04_21h15.37.765,Colour_Similarity_Experiment,2020.2.10,Win32,60,60675255c767bca6388caeee,8.348204999,8.694109108,8.332488288,8.344062857,8.33653917,8.344062857,,,,,,,,,,,,,,,,,,,,PF,6,weak,,,,,,,,4,4.358155,,,,,,,,,,,,,,,,,,,,,,,,,,,,7,weak,67,-90,1,0,0,response3disk,2,158,14,3,1,0,0,rectangle,14,3,1,0,0,7,4,0.000165,14,3,1,0,0,0,157,157,32,1,0,,,,,,,,,,,,,,,,,,,,,
,,,,,,,,,,,,,,,,,,,,,,,,,,,,,,,,,,,,,,,,,,5baf06d756161d0001fe6dde,606a0f19fdff34be840b640b,2021-04-04_21h15.37.765,Colour_Similarity_Experiment,2020.2.10,Win32,60,60675255c767bca6388caeee,8.348204999,8.694109108,8.332488288,8.344062857,8.33653917,8.344062857,,,,,,,,,,,,,,,,,,,,PF,6,weak,,,,,,,,7,1.183295,,,,,,,,,,,,,,,,,,,,,,,,,,,,5,weak,106,157,1,0,0,response1disk,1,159,13,-3,1,0,0,rectangle,57,127,1,0,0,7,7,1.465765,-18,-9,1,0,0,0,158,158,159,1,1,response1disk_3,rectangle,,,,,,,,,,,,,,,,,,,
,,,,,,,,,,,,,,,,,,,,,,,,,,,,,,,,,,,,,,,,,,5baf06d756161d0001fe6dde,606a0f19fdff34be840b640b,2021-04-04_21h15.37.765,Colour_Similarity_Experiment,2020.2.10,Win32,60,60675255c767bca6388caeee,8.348204999,8.694109108,8.332488288,8.344062857,8.33653917,8.344062857,,,,,,,,,,,,,,,,,,,,PF,6,weak,,,,,,,,5,1.69177,,,,,,,,,,,,,,,,,,,,,,,,,,,,9,weak,115,-38,1,0,0,response3disk,1,160,2,1,1,0,0,rectangle,2,1,1,0,0,7,4,0.00142,2,1,1,0,0,0,159,159,74,1,0,,,,,,,,,,,,,,,,,,,,,
,,,,,,,,,,,,,,,,,,,,,,,,,,,,,,,,,,,,,,,,,,5baf06d756161d0001fe6dde,606a0f19fdff34be840b640b,2021-04-04_21h15.37.765,Colour_Similarity_Experiment,2020.2.10,Win32,60,60675255c767bca6388caeee,8.348204999,8.694109108,8.332488288,8.344062857,8.33653917,8.344062857,,,,,,,,,,,,,,,,,,,,PF,6,strong,,,,,,,,3,1.667045,,,,,,,,,,,,,,,,,,,,,,,,,,,,6,strong,-46,-112,1,0,0,response5disk,2,161,29,9,1,0,0,rectangle,29,9,1,0,0,7,5,0.00085,29,9,1,0,0,0,160,160,112,1,0,,,,,,,,,,,,,,,,,,,,,
,,,,,,,,,,,,,,,,,,,,,,,,,,,,,,,,,,,,,,,,,,5baf06d756161d0001fe6dde,606a0f19fdff34be840b640b,2021-04-04_21h15.37.765,Colour_Similarity_Experiment,2020.2.10,Win32,60,60675255c767bca6388caeee,8.348204999,8.694109108,8.332488288,8.344062857,8.33653917,8.344062857,,,,,,,,,,,,,,,,,,,,PF,6,weak,,,,,,,,5,0.98359,,,,,,,,,,,,,,,,,,,,,,,,,,,,5,weak,92,-49,1,0,0,response3disk,9,162,13,-1,1,0,0,rectangle,-56,-134,1,0,0,3,3,2.36321,10,4,1,0,0,0,161,161,136,1,1,response5disk_3,rectangle,,,,,,,,,,,,,,,,,,,
,,,,,,,,,,,,,,,,,,,,,,,,,,,,,,,,,,,,,,,,,,5baf06d756161d0001fe6dde,606a0f19fdff34be840b640b,2021-04-04_21h15.37.765,Colour_Similarity_Experiment,2020.2.10,Win32,60,60675255c767bca6388caeee,8.348204999,8.694109108,8.332488288,8.344062857,8.33653917,8.344062857,,,,,,,,,,,,,,,,,,,,,,,,,,,,,,,,,,,,,,,,,,,,,,,,,,,,,,,,,,,,,,,,,,,,,,,,,,,,,,,,,,,,,,,,,,,,,,,,0,0,0,0,1,,,,,,,,,,,,,,
,,,,,,,,,,,,,,,,,,,,,,,,,,,,,,,,,,,,,,,,,,5baf06d756161d0001fe6dde,606a0f19fdff34be840b640b,2021-04-04_21h15.37.765,Colour_Similarity_Experiment,2020.2.10,Win32,60,60675255c767bca6388caeee,8.348204999,8.694109108,8.332488288,8.344062857,8.33653917,8.344062857,,,,,,,,,,,,,,,,,,,,PF,6,strong,,,,,,,,5,1.050125,,,,,,,,,,,,,,,,,,,,,,,,,,,,7,strong,95,-62,1,0,0,response3disk,5,163,8,6,1,0,0,rectangle,8,6,1,0,0,3,7,0.001035,8,6,1,0,0,0,0,0,156,1,0,,,,,,,,,,,,,,,,,,,,,
,,,,,,,,,,,,,,,,,,,,,,,,,,,,,,,,,,,,,,,,,,5baf06d756161d0001fe6dde,606a0f19fdff34be840b640b,2021-04-04_21h15.37.765,Colour_Similarity_Experiment,2020.2.10,Win32,60,60675255c767bca6388caeee,8.348204999,8.694109108,8.332488288,8.344062857,8.33653917,8.344062857,,,,,,,,,,,,,,,,,,,,PF,6,weak,,,,,,,,4,2.04164,,,,,,,,,,,,,,,,,,,,,,,,,,,,9,weak,84,-98,1,0,0,response3disk,7,164,11,9,1,0,0,rectangle,11,9,1,0,0,3,5,0.001015,11,9,1,0,0,0,1,1,121,1,0,,,,,,,,,,,,,,,,,,,,,
,,,,,,,,,,,,,,,,,,,,,,,,,,,,,,,,,,,,,,,,,,5baf06d756161d0001fe6dde,606a0f19fdff34be840b640b,2021-04-04_21h15.37.765,Colour_Similarity_Experiment,2020.2.10,Win32,60,60675255c767bca6388caeee,8.348204999,8.694109108,8.332488288,8.344062857,8.33653917,8.344062857,,,,,,,,,,,,,,,,,,,,PF,6,strong,,,,,,,,3,1.46811,,,,,,,,,,,,,,,,,,,,,,,,,,,,1,strong,-46,-103,1,0,0,response5disk,8,165,4,-10,1,0,0,rectangle,4,-10,1,0,0,3,3,0.00135,4,-10,1,0,0,0,2,2,27,1,0,,,,,,,,,,,,,,,,,,,,,
,,,,,,,,,,,,,,,,,,,,,,,,,,,,,,,,,,,,,,,,,,5baf06d756161d0001fe6dde,606a0f19fdff34be840b640b,2021-04-04_21h15.37.765,Colour_Similarity_Experiment,2020.2.10,Win32,60,60675255c767bca6388caeee,8.348204999,8.694109108,8.332488288,8.344062857,8.33653917,8.344062857,,,,,,,,,,,,,,,,,,,,PF,6,strong,,,,,,,,5,0.922815,,,,,,,,,,,,,,,,,,,,,,,,,,,,4,strong,110,-45,1,0,0,response3disk,2,166,4,-6,1,0,0,rectangle,4,-6,1,0,0,3,7,0.000595,4,-6,1,0,0,0,3,3,13,1,0,,,,,,,,,,,,,,,,,,,,,
,,,,,,,,,,,,,,,,,,,,,,,,,,,,,,,,,,,,,,,,,,5baf06d756161d0001fe6dde,606a0f19fdff34be840b640b,2021-04-04_21h15.37.765,Colour_Similarity_Experiment,2020.2.10,Win32,60,60675255c767bca6388caeee,8.348204999,8.694109108,8.332488288,8.344062857,8.33653917,8.344062857,,,,,,,,,,,,,,,,,,,,PF,6,weak,,,,,,,,2,1.25852,,,,,,,,,,,,,,,,,,,,,,,,,,,,3,weak,-77,-44,1,0,0,response5disk,3,167,5,-3,1,0,0,rectangle,5,-3,1,0,0,3,0,0.00106,5,-3,1,0,0,0,4,4,4,1,0,,,,,,,,,,,,,,,,,,,,,
,,,,,,,,,,,,,,,,,,,,,,,,,,,,,,,,,,,,,,,,,,5baf06d756161d0001fe6dde,606a0f19fdff34be840b640b,2021-04-04_21h15.37.765,Colour_Similarity_Experiment,2020.2.10,Win32,60,60675255c767bca6388caeee,8.348204999,8.694109108,8.332488288,8.344062857,8.33653917,8.344062857,,,,,,,,,,,,,,,,,,,,PF,6,strong,,,,,,,,6,3.43336,,,,,,,,,,,,,,,,,,,,,,,,,,,,5,strong,106,65,1,0,0,response1disk,3,168,5,-2,1,0,0,rectangle,5,-2,1,0,0,3,3,0.0013,5,-2,1,0,0,0,5,5,25,1,0,,,,,,,,,,,,,,,,,,,,,
,,,,,,,,,,,,,,,,,,,,,,,,,,,,,,,,,,,,,,,,,,5baf06d756161d0001fe6dde,606a0f19fdff34be840b640b,2021-04-04_21h15.37.765,Colour_Similarity_Experiment,2020.2.10,Win32,60,60675255c767bca6388caeee,8.348204999,8.694109108,8.332488288,8.344062857,8.33653917,8.344062857,,,,,,,,,,,,,,,,,,,,PF,6,weak,,,,,,,,6,1.0583,,,,,,,,,,,,,,,,,,,,,,,,,,,,8,weak,128,56,1,0,0,response1disk,4,169,11,-10,1,0,0,rectangle,11,-10,1,0,0,3,1,0.000995,11,-10,1,0,0,0,6,6,78,1,0,,,,,,,,,,,,,,,,,,,,,
,,,,,,,,,,,,,,,,,,,,,,,,,,,,,,,,,,,,,,,,,,5baf06d756161d0001fe6dde,606a0f19fdff34be840b640b,2021-04-04_21h15.37.765,Colour_Similarity_Experiment,2020.2.10,Win32,60,60675255c767bca6388caeee,8.348204999,8.694109108,8.332488288,8.344062857,8.33653917,8.344062857,,,,,,,,,,,,,,,,,,,,PF,6,weak,,,,,,,,5,1.725405,,,,,,,,,,,,,,,,,,,,,,,,,,,,5,weak,108,-60,1,0,0,response3disk,3,170,0,-3,1,0,0,rectangle,0,-3,1,0,0,3,0,0.000995,0,-3,1,0,0,0,7,7,109,1,0,,,,,,,,,,,,,,,,,,,,,
,,,,,,,,,,,,,,,,,,,,,,,,,,,,,,,,,,,,,,,,,,5baf06d756161d0001fe6dde,606a0f19fdff34be840b640b,2021-04-04_21h15.37.765,Colour_Similarity_Experiment,2020.2.10,Win32,60,60675255c767bca6388caeee,8.348204999,8.694109108,8.332488288,8.344062857,8.33653917,8.344062857,,,,,,,,,,,,,,,,,,,,PF,6,strong,,,,,,,,1,1.333515,,,,,,,,,,,,,,,,,,,,,,,,,,,,7,strong,-92,60,1,0,0,response7disk,8,171,13,4,1,0,0,rectangle,112,-57,1,0,0,5,5,1.674555,-11,14,1,0,0,0,8,8,97,1,1,response3disk_3,rectangle,,,,,,,,,,,,,,,,,,,
,,,,,,,,,,,,,,,,,,,,,,,,,,,,,,,,,,,,,,,,,,5baf06d756161d0001fe6dde,606a0f19fdff34be840b640b,2021-04-04_21h15.37.765,Colour_Similarity_Experiment,2020.2.10,Win32,60,60675255c767bca6388caeee,8.348204999,8.694109108,8.332488288,8.344062857,8.33653917,8.344062857,,,,,,,,,,,,,,,,,,,,PF,6,strong,,,,,,,,6,1.108265,,,,,,,,,,,,,,,,,,,,,,,,,,,,9,strong,123,52,1,0,0,response1disk,6,172,5,6,1,0,0,rectangle,5,6,1,0,0,5,1,0.00104,5,6,1,0,0,0,9,9,117,1,0,,,,,,,,,,,,,,,,,,,,,
,,,,,,,,,,,,,,,,,,,,,,,,,,,,,,,,,,,,,,,,,,5baf06d756161d0001fe6dde,606a0f19fdff34be840b640b,2021-04-04_21h15.37.765,Colour_Similarity_Experiment,2020.2.10,Win32,60,60675255c767bca6388caeee,8.348204999,8.694109108,8.332488288,8.344062857,8.33653917,8.344062857,,,,,,,,,,,,,,,,,,,,PF,6,weak,,,,,,,,6,0.74165,,,,,,,,,,,,,,,,,,,,,,,,,,,,3,weak,109,41,1,0,0,response1disk,9,173,-13,-7,1,0,0,rectangle,-13,-7,1,0,0,5,6,0.001035,-13,-7,1,0,0,0,10,10,79,1,0,,,,,,,,,,,,,,,,,,,,,
,,,,,,,,,,,,,,,,,,,,,,,,,,,,,,,,,,,,,,,,,,5baf06d756161d0001fe6dde,606a0f19fdff34be840b640b,2021-04-04_21h15.37.765,Colour_Similarity_Experiment,2020.2.10,Win32,60,60675255c767bca6388caeee,8.348204999,8.694109108,8.332488288,8.344062857,8.33653917,8.344062857,,,,,,,,,,,,,,,,,,,,PF,6,strong,,,,,,,,6,0.850605,,,,,,,,,,,,,,,,,,,,,,,,,,,,3,strong,136,59,1,0,0,response1disk,1,174,-11,-6,1,0,0,rectangle,-11,-6,1,0,0,5,2,0.001245,-11,-6,1,0,0,0,11,11,125,1,0,,,,,,,,,,,,,,,,,,,,,
,,,,,,,,,,,,,,,,,,,,,,,,,,,,,,,,,,,,,,,,,,5baf06d756161d0001fe6dde,606a0f19fdff34be840b640b,2021-04-04_21h15.37.765,Colour_Similarity_Experiment,2020.2.10,Win32,60,60675255c767bca6388caeee,8.348204999,8.694109108,8.332488288,8.344062857,8.33653917,8.344062857,,,,,,,,,,,,,,,,,,,,PF,6,strong,,,,,,,,4,1.2918,,,,,,,,,,,,,,,,,,,,,,,,,,,,9,strong,43,-109,1,0,0,response3disk,3,175,6,-3,1,0,0,rectangle,6,-3,1,0,0,5,7,0.00102,6,-3,1,0,0,0,12,12,141,1,0,,,,,,,,,,,,,,,,,,,,,
,,,,,,,,,,,,,,,,,,,,,,,,,,,,,,,,,,,,,,,,,,5baf06d756161d0001fe6dde,606a0f19fdff34be840b640b,2021-04-04_21h15.37.765,Colour_Similarity_Experiment,2020.2.10,Win32,60,60675255c767bca6388caeee,8.348204999,8.694109108,8.332488288,8.344062857,8.33653917,8.344062857,,,,,,,,,,,,,,,,,,,,PF,6,weak,,,,,,,,2,1.208535,,,,,,,,,,,,,,,,,,,,,,,,,,,,2,weak,-103,-67,1,0,0,response5disk,3,176,8,-13,1,0,0,rectangle,8,-13,1,0,0,5,1,0.001025,8,-13,1,0,0,0,13,13,69,1,0,,,,,,,,,,,,,,,,,,,,,
,,,,,,,,,,,,,,,,,,,,,,,,,,,,,,,,,,,,,,,,,,5baf06d756161d0001fe6dde,606a0f19fdff34be840b640b,2021-04-04_21h15.37.765,Colour_Similarity_Experiment,2020.2.10,Win32,60,60675255c767bca6388caeee,8.348204999,8.694109108,8.332488288,8.344062857,8.33653917,8.344062857,,,,,,,,,,,,,,,,,,,,PF,6,strong,,,,,,,,3,1.00853,,,,,,,,,,,,,,,,,,,,,,,,,,,,8,strong,-57,-100,1,0,0,response5disk,4,177,5,1,1,0,0,rectangle,5,1,1,0,0,5,3,0.00108,5,1,1,0,0,0,14,14,88,1,0,,,,,,,,,,,,,,,,,,,,,
,,,,,,,,,,,,,,,,,,,,,,,,,,,,,,,,,,,,,,,,,,5baf06d756161d0001fe6dde,606a0f19fdff34be840b640b,2021-04-04_21h15.37.765,Colour_Similarity_Experiment,2020.2.10,Win32,60,60675255c767bca6388caeee,8.348204999,8.694109108,8.332488288,8.344062857,8.33653917,8.344062857,,,,,,,,,,,,,,,,,,,,PF,6,strong,,,,,,,,1,1.808425,,,,,,,,,,,,,,,,,,,,,,,,,,,,5,strong,-113,64,1,0,0,response7disk,5,178,3,3,1,0,0,rectangle,3,3,1,0,0,5,3,0.000165,3,3,1,0,0,0,15,15,19,1,0,,,,,,,,,,,,,,,,,,,,,
,,,,,,,,,,,,,,,,,,,,,,,,,,,,,,,,,,,,,,,,,,5baf06d756161d0001fe6dde,606a0f19fdff34be840b640b,2021-04-04_21h15.37.765,Colour_Similarity_Experiment,2020.2.10,Win32,60,60675255c767bca6388caeee,8.348204999,8.694109108,8.332488288,8.344062857,8.33653917,8.344062857,,,,,,,,,,,,,,,,,,,,PF,6,strong,,,,,,,,4,1.20015,,,,,,,,,,,,,,,,,,,,,,,,,,,,2,strong,42,-100,1,0,0,response3disk,8,179,6,6,1,0,0,rectangle,6,6,1,0,0,5,5,0.00094,6,6,1,0,0,0,16,16,62,1,0,,,,,,,,,,,,,,,,,,,,,
,,,,,,,,,,,,,,,,,,,,,,,,,,,,,,,,,,,,,,,,,,5baf06d756161d0001fe6dde,606a0f19fdff34be840b640b,2021-04-04_21h15.37.765,Colour_Similarity_Experiment,2020.2.10,Win32,60,60675255c767bca6388caeee,8.348204999,8.694109108,8.332488288,8.344062857,8.33653917,8.344062857,,,,,,,,,,,,,,,,,,,,PF,6,strong,,,,,,,,6,1.27252,,,,,,,,,,,,,,,,,,,,,,,,,,,,5,strong,115,69,1,0,0,response1disk,6,180,14,2,1,0,0,rectangle,14,2,1,0,0,5,4,0.001165,14,2,1,0,0,0,17,17,12,1,0,,,,,,,,,,,,,,,,,,,,,
,,,,,,,,,,,,,,,,,,,,,,,,,,,,,,,,,,,,,,,,,,5baf06d756161d0001fe6dde,606a0f19fdff34be840b640b,2021-04-04_21h15.37.765,Colour_Similarity_Experiment,2020.2.10,Win32,60,60675255c767bca6388caeee,8.348204999,8.694109108,8.332488288,8.344062857,8.33653917,8.344062857,,,,,,,,,,,,,,,,,,,,PF,6,strong,,,,,,,,5,1.097115,,,,,,,,,,,,,,,,,,,,,,,,,,,,8,strong,128,-59,1,0,0,response3disk,7,181,3,19,1,0,0,rectangle,3,19,1,0,0,5,4,0.00015,3,19,1,0,0,0,18,18,86,1,0,,,,,,,,,,,,,,,,,,,,,
,,,,,,,,,,,,,,,,,,,,,,,,,,,,,,,,,,,,,,,,,,5baf06d756161d0001fe6dde,606a0f19fdff34be840b640b,2021-04-04_21h15.37.765,Colour_Similarity_Experiment,2020.2.10,Win32,60,60675255c767bca6388caeee,8.348204999,8.694109108,8.332488288,8.344062857,8.33653917,8.344062857,,,,,,,,,,,,,,,,,,,,PF,6,strong,,,,,,,,3,0.86692,,,,,,,,,,,,,,,,,,,,,,,,,,,,5,strong,-44,-79,1,0,0,response5disk,2,182,-6,-13,1,0,0,rectangle,44,113,1,0,0,7,7,1.524805,-4,6,1,0,0,0,19,19,55,1,1,response1disk_3,rectangle,,,,,,,,,,,,,,,,,,,
,,,,,,,,,,,,,,,,,,,,,,,,,,,,,,,,,,,,,,,,,,5baf06d756161d0001fe6dde,606a0f19fdff34be840b640b,2021-04-04_21h15.37.765,Colour_Similarity_Experiment,2020.2.10,Win32,60,60675255c767bca6388caeee,8.348204999,8.694109108,8.332488288,8.344062857,8.33653917,8.344062857,,,,,,,,,,,,,,,,,,,,PF,6,weak,,,,,,,,0,1.080115,,,,,,,,,,,,,,,,,,,,,,,,,,,,8,weak,-46,106,1,0,0,response7disk,8,183,3,-9,1,0,0,rectangle,3,-9,1,0,0,7,3,0.000935,3,-9,1,0,0,0,20,20,153,1,0,,,,,,,,,,,,,,,,,,,,,
,,,,,,,,,,,,,,,,,,,,,,,,,,,,,,,,,,,,,,,,,,5baf06d756161d0001fe6dde,606a0f19fdff34be840b640b,2021-04-04_21h15.37.765,Colour_Similarity_Experiment,2020.2.10,Win32,60,60675255c767bca6388caeee,8.348204999,8.694109108,8.332488288,8.344062857,8.33653917,8.344062857,,,,,,,,,,,,,,,,,,,,PF,6,weak,,,,,,,,4,1.833165,,,,,,,,,,,,,,,,,,,,,,,,,,,,2,weak,42,-117,1,0,0,response3disk,7,184,-1,14,1,0,0,rectangle,-1,14,1,0,0,7,6,0.00091,-1,14,1,0,0,0,21,21,107,1,0,,,,,,,,,,,,,,,,,,,,,
,,,,,,,,,,,,,,,,,,,,,,,,,,,,,,,,,,,,,,,,,,5baf06d756161d0001fe6dde,606a0f19fdff34be840b640b,2021-04-04_21h15.37.765,Colour_Similarity_Experiment,2020.2.10,Win32,60,60675255c767bca6388caeee,8.348204999,8.694109108,8.332488288,8.344062857,8.33653917,8.344062857,,,,,,,,,,,,,,,,,,,,PF,6,strong,,,,,,,,7,1.04746,,,,,,,,,,,,,,,,,,,,,,,,,,,,8,strong,68,105,1,0,0,response1disk,1,185,1,-12,1,0,0,rectangle,1,-12,1,0,0,7,2,0.00129,1,-12,1,0,0,0,22,22,20,1,0,,,,,,,,,,,,,,,,,,,,,
,,,,,,,,,,,,,,,,,,,,,,,,,,,,,,,,,,,,,,,,,,5baf06d756161d0001fe6dde,606a0f19fdff34be840b640b,2021-04-04_21h15.37.765,Colour_Similarity_Experiment,2020.2.10,Win32,60,60675255c767bca6388caeee,8.348204999,8.694109108,8.332488288,8.344062857,8.33653917,8.344062857,,,,,,,,,,,,,,,,,,,,PF,6,weak,,,,,,,,6,1.630715,,,,,,,,,,,,,,,,,,,,,,,,,,,,2,weak,125,60,1,0,0,response1disk,1,186,22,0,1,0,0,rectangle,22,0,1,0,0,7,5,0.001435,22,0,1,0,0,0,23,23,9,1,0,,,,,,,,,,,,,,,,,,,,,
,,,,,,,,,,,,,,,,,,,,,,,,,,,,,,,,,,,,,,,,,,5baf06d756161d0001fe6dde,606a0f19fdff34be840b640b,2021-04-04_21h15.37.765,Colour_Similarity_Experiment,2020.2.10,Win32,60,60675255c767bca6388caeee,8.348204999,8.694109108,8.332488288,8.344062857,8.33653917,8.344062857,,,,,,,,,,,,,,,,,,,,PF,6,strong,,,,,,,,3,1.408575,,,,,,,,,,,,,,,,,,,,,,,,,,,,5,strong,-38,-119,1,0,0,response5disk,4,187,-4,-10,1,0,0,rectangle,-4,-10,1,0,0,7,4,0.00123,-4,-10,1,0,0,0,24,24,8,1,0,,,,,,,,,,,,,,,,,,,,,
,,,,,,,,,,,,,,,,,,,,,,,,,,,,,,,,,,,,,,,,,,5baf06d756161d0001fe6dde,606a0f19fdff34be840b640b,2021-04-04_21h15.37.765,Colour_Similarity_Experiment,2020.2.10,Win32,60,60675255c767bca6388caeee,8.348204999,8.694109108,8.332488288,8.344062857,8.33653917,8.344062857,,,,,,,,,,,,,,,,,,,,PF,6,strong,,,,,,,,2,1.51654,,,,,,,,,,,,,,,,,,,,,,,,,,,,3,strong,-94,-53,1,0,0,response5disk,7,188,24,-3,1,0,0,rectangle,24,-3,1,0,0,7,0,0.000995,24,-3,1,0,0,0,25,25,118,1,0,,,,,,,,,,,,,,,,,,,,,
,,,,,,,,,,,,,,,,,,,,,,,,,,,,,,,,,,,,,,,,,,5baf06d756161d0001fe6dde,606a0f19fdff34be840b640b,2021-04-04_21h15.37.765,Colour_Similarity_Experiment,2020.2.10,Win32,60,60675255c767bca6388caeee,8.348204999,8.694109108,8.332488288,8.344062857,8.33653917,8.344062857,,,,,,,,,,,,,,,,,,,,PF,6,strong,,,,,,,,6,0.99853,,,,,,,,,,,,,,,,,,,,,,,,,,,,7,strong,122,72,1,0,0,response1disk,2,189,5,2,1,0,0,rectangle,5,2,1,0,0,7,6,0.00103,5,2,1,0,0,0,26,26,138,1,0,,,,,,,,,,,,,,,,,,,,,
,,,,,,,,,,,,,,,,,,,,,,,,,,,,,,,,,,,,,,,,,,5baf06d756161d0001fe6dde,606a0f19fdff34be840b640b,2021-04-04_21h15.37.765,Colour_Similarity_Experiment,2020.2.10,Win32,60,60675255c767bca6388caeee,8.348204999,8.694109108,8.332488288,8.344062857,8.33653917,8.344062857,,,,,,,,,,,,,,,,,,,,PF,6,weak,,,,,,,,7,1.2668,,,,,,,,,,,,,,,,,,,,,,,,,,,,4,weak,70,115,1,0,0,response1disk,1,190,-5,-5,1,0,0,rectangle,-5,-5,1,0,0,7,7,0.000925,-5,-5,1,0,0,0,27,27,115,1,0,,,,,,,,,,,,,,,,,,,,,
,,,,,,,,,,,,,,,,,,,,,,,,,,,,,,,,,,,,,,,,,,5baf06d756161d0001fe6dde,606a0f19fdff34be840b640b,2021-04-04_21h15.37.765,Colour_Similarity_Experiment,2020.2.10,Win32,60,60675255c767bca6388caeee,8.348204999,8.694109108,8.332488288,8.344062857,8.33653917,8.344062857,,,,,,,,,,,,,,,,,,,,PF,6,weak,,,,,,,,4,0.99174,,,,,,,,,,,,,,,,,,,,,,,,,,,,1,weak,94,-107,1,0,0,response3disk,6,191,17,6,1,0,0,rectangle,17,6,1,0,0,7,4,0.00099,17,6,1,0,0,0,28,28,144,1,0,,,,,,,,,,,,,,,,,,,,,
,,,,,,,,,,,,,,,,,,,,,,,,,,,,,,,,,,,,,,,,,,5baf06d756161d0001fe6dde,606a0f19fdff34be840b640b,2021-04-04_21h15.37.765,Colour_Similarity_Experiment,2020.2.10,Win32,60,60675255c767bca6388caeee,8.348204999,8.694109108,8.332488288,8.344062857,8.33653917,8.344062857,,,,,,,,,,,,,,,,,,,,PF,6,strong,,,,,,,,7,1.600735,,,,,,,,,,,,,,,,,,,,,,,,,,,,9,strong,50,113,1,0,0,response1disk,1,192,0,-7,1,0,0,rectangle,0,-7,1,0,0,7,6,0.00099,0,-7,1,0,0,0,29,29,111,1,0,,,,,,,,,,,,,,,,,,,,,
,,,,,,,,,,,,,,,,,,,,,,,,,,,,,,,,,,,,,,,,,,5baf06d756161d0001fe6dde,606a0f19fdff34be840b640b,2021-04-04_21h15.37.765,Colour_Similarity_Experiment,2020.2.10,Win32,60,60675255c767bca6388caeee,8.348204999,8.694109108,8.332488288,8.344062857,8.33653917,8.344062857,,,,,,,,,,,,,,,,,,,,PF,6,strong,,,,,,,,5,1.156755,,,,,,,,,,,,,,,,,,,,,,,,,,,,7,strong,113,-48,1,0,0,response3disk,3,193,6,2,1,0,0,rectangle,6,2,1,0,0,7,7,0.0012,6,2,1,0,0,0,30,30,73,1,0,,,,,,,,,,,,,,,,,,,,,
,,,,,,,,,,,,,,,,,,,,,,,,,,,,,,,,,,,,,,,,,,5baf06d756161d0001fe6dde,606a0f19fdff34be840b640b,2021-04-04_21h15.37.765,Colour_Similarity_Experiment,2020.2.10,Win32,60,60675255c767bca6388caeee,8.348204999,8.694109108,8.332488288,8.344062857,8.33653917,8.344062857,,,,,,,,,,,,,,,,,,,,PF,6,strong,,,,,,,,6,1.033375,,,,,,,,,,,,,,,,,,,,,,,,,,,,3,strong,112,58,1,0,0,response1disk,9,194,-20,-9,1,0,0,rectangle,-20,-9,1,0,0,7,4,0.00089,-20,-9,1,0,0,0,31,31,143,1,0,,,,,,,,,,,,,,,,,,,,,
