key_resp.keys,key_resp.rt,key_resp_16.keys,key_resp_16.rt,key_resp_2.keys,key_resp_2.rt,X Scale,ratio_pxpermm,screen_size_x,screen_size_y,testsize,key_resp_3.keys,key_resp_4.keys,key_resp_4.rt,line_size,key_resp_5.keys,key_resp_5.rt,key_resp_6.keys,key_resp_6.rt,key_resp_8.keys,key_resp_8.rt,key_resp_7.keys,key_resp_7.rt,key_resp_12.keys,key_resp_12.rt,key_resp_11.keys,key_resp_11.rt,key_resp_18.keys,key_resp_18.rt,key_resp_21.keys,key_resp_21.rt,key_resp_13.keys,key_resp_13.rt,key_resp_19.keys,key_resp_19.rt,ballposx,viewer_distance,trials.thisRepN,trials.thisTrialN,trials.thisN,trials.thisIndex,trials.ran,participant,session,date,expName,psychopyVersion,OS,frameRate,study_id,realFrameRate1,realFrameRate2,realFrameRate3,realFrameRate4,realFrameRate5,realFrameRate,viewerdistancecm,DVA_to_distance,radius_F,radius_P,r_F,R_P,key_resp_20.keys,key_resp_20.rt,key_resp_14.keys,key_resp_14.rt,key_resp_15.keys,key_resp_15.rt,key_resp_17.keys,key_resp_17.rt,key_resp_9.keys,key_resp_9.rt,key_resp_10.keys,key_resp_10.rt,Colour_1,Ecc,mask_frames,maskCon,mouse_5.x,mouse_5.y,mouse_5.leftButton,mouse_5.midButton,mouse_5.rightButton,mouse_5.clicked_name,Colour_2,similarity,response_time,mouse_10.x,mouse_10.y,mouse_10.leftButton,mouse_10.midButton,mouse_10.rightButton,mouse_10.clicked_name,mouse_7.x,mouse_7.y,mouse_7.leftButton,mouse_7.midButton,mouse_7.rightButton,catchnumberprac,mouse_6.x,mouse_6.y,mouse_6.leftButton,mouse_6.midButton,mouse_6.rightButton,duringprac.thisRepN,duringprac.thisTrialN,duringprac.thisN,duringprac.thisIndex,duringprac.ran,mouse_7.clicked_name,catchprac,mouse_6.clicked_name,key_resp_22.keys,key_resp_22.rt,Colour1,maskCon1,mouse.x,mouse.y,mouse.leftButton,mouse.midButton,mouse.rightButton,mouse.clicked_name,Colour2,trialnumber,mouse_2.x,mouse_2.y,mouse_2.leftButton,mouse_2.midButton,mouse_2.rightButton,mouse_2.clicked_name,mouse_3.x,mouse_3.y,mouse_3.leftButton,mouse_3.midButton,mouse_3.rightButton,catchresponse,catchnumber,response_time_catch,mouse_11.x,mouse_11.y,mouse_11.leftButton,mouse_11.midButton,mouse_11.rightButton,trials_2.thisRepN,trials_2.thisTrialN,trials_2.thisN,trials_2.thisIndex,trials_2.ran,Catch,mouse_3.clicked_name,mouse_11.clicked_name,trials_3.thisRepN,trials_3.thisTrialN,trials_3.thisN,trials_3.thisIndex,trials_3.ran,answer1,rt1,answer2,rt2,answer3,rt3,answer4,rt4,answer5,rt5,answer6,rt6,answer7,rt7
space,2.889,space,68.579,space,8.41,40.1,4.01,340.6483791,191.521197,1366,,space,32.318,80.2,space,17.502,space,5.22,space,11.365,space,5.996,space,7.698,space,28.381,space,11.415,space,17.635,space,28.324,return,5.602,-143.43,716.5460865,0,0,0,0,1,5bb18bbb70f8df0001bedd32,606a0fa34270f67cfdcbd93e,2021-04-04_12h36.05.614,Colour_Similarity_Experiment,2020.2.10,Win32,60,60675255c767bca6388caeee,21.21551724,17.4177665,17.01791531,17.21371611,17.54896676,17.4177665,,,,,,,,,,,,,,,,,,,,,,,,,,,,,,,,,,,,,,,,,,,,,,,,,,,,,,,,,,,,,,,,,,,,,,,,,,,,,,,,,,,,,,,,,,,,,,,,,,,,,,,,,,,,,,,,,,
,,,,,,,,,,,,,,,,,,,,,,,,,,,,,,,,,return,5.562,-157.773,731.4445695,1,0,1,0,1,5bb18bbb70f8df0001bedd32,606a0fa34270f67cfdcbd93e,2021-04-04_12h36.05.614,Colour_Similarity_Experiment,2020.2.10,Win32,60,60675255c767bca6388caeee,21.21551724,17.4177665,17.01791531,17.21371611,17.54896676,17.4177665,,,,,,,,,,,,,,,,,,,,,,,,,,,,,,,,,,,,,,,,,,,,,,,,,,,,,,,,,,,,,,,,,,,,,,,,,,,,,,,,,,,,,,,,,,,,,,,,,,,,,,,,,,,,,,,,,,
,,,,,,,,,,,,,,,,,,,,,,,,,,,,,,,,,return,5.382,-141.381,714.4177318,2,0,2,0,1,5bb18bbb70f8df0001bedd32,606a0fa34270f67cfdcbd93e,2021-04-04_12h36.05.614,Colour_Similarity_Experiment,2020.2.10,Win32,60,60675255c767bca6388caeee,21.21551724,17.4177665,17.01791531,17.21371611,17.54896676,17.4177665,,,,,,,,,,,,,,,,,,,,,,,,,,,,,,,,,,,,,,,,,,,,,,,,,,,,,,,,,,,,,,,,,,,,,,,,,,,,,,,,,,,,,,,,,,,,,,,,,,,,,,,,,,,,,,,,,,
,,,,,,,,,,,,,,,,,,,,,,,,,,,,,,,,,return,5.461,-147.528,720.8027959,3,0,3,0,1,5bb18bbb70f8df0001bedd32,606a0fa34270f67cfdcbd93e,2021-04-04_12h36.05.614,Colour_Similarity_Experiment,2020.2.10,Win32,60,60675255c767bca6388caeee,21.21551724,17.4177665,17.01791531,17.21371611,17.54896676,17.4177665,,,,,,,,,,,,,,,,,,,,,,,,,,,,,,,,,,,,,,,,,,,,,,,,,,,,,,,,,,,,,,,,,,,,,,,,,,,,,,,,,,,,,,,,,,,,,,,,,,,,,,,,,,,,,,,,,,
,,,,,,,,,,,,,,,,,,,,,,,,,,,,,,,,,return,5.364,-124.989,697.3908941,4,0,4,0,1,5bb18bbb70f8df0001bedd32,606a0fa34270f67cfdcbd93e,2021-04-04_12h36.05.614,Colour_Similarity_Experiment,2020.2.10,Win32,60,60675255c767bca6388caeee,21.21551724,17.4177665,17.01791531,17.21371611,17.54896676,17.4177665,,,,,,,,,,,,,,,,,,,,,,,,,,,,,,,,,,,,,,,,,,,,,,,,,,,,,,,,,,,,,,,,,,,,,,,,,,,,,,,,,,,,,,,,,,,,,,,,,,,,,,,,,,,,,,,,,,
,,,,,,,,,,,,,,,,,,,,,,,,,,,,,,,,,,,,,,,,,,5bb18bbb70f8df0001bedd32,606a0fa34270f67cfdcbd93e,2021-04-04_12h36.05.614,Colour_Similarity_Experiment,2020.2.10,Win32,60,60675255c767bca6388caeee,21.21551724,17.4177665,17.01791531,17.21371611,17.54896676,17.4177665,72,12.56764225,75.59436816,503.9624544,50.39624544,226.7831045,space,7.559,space,24.497,space,71.355,space,28.073,space,8.8,space,4.578,2,PF,3,weak,-47,-65,1,0,0,response5disk_5,6,3,32.889,-5,5,1,0,0,rectangle_8,-5,5,1,0,0,6,-5,5,1,0,0,0,0,0,4,1,,,,,,,,,,,,,,,,,,,,,,,,,,,,,,,,,,,,,,,,,,,,,,,,,,,,,,,,,,,,,
,,,,,,,,,,,,,,,,,,,,,,,,,,,,,,,,,,,,,,,,,,5bb18bbb70f8df0001bedd32,606a0fa34270f67cfdcbd93e,2021-04-04_12h36.05.614,Colour_Similarity_Experiment,2020.2.10,Win32,60,60675255c767bca6388caeee,21.21551724,17.4177665,17.01791531,17.21371611,17.54896676,17.4177665,,,,,,,,,,,,,,,,,,,4,PF,3,strong,62,-69,1,0,0,response3disk_5,9,4,16.104,-2,3,1,0,0,rectangle_8,-2,3,1,0,0,6,-2,3,1,0,0,0,1,1,0,1,,,,,,,,,,,,,,,,,,,,,,,,,,,,,,,,,,,,,,,,,,,,,,,,,,,,,,,,,,,,,
,,,,,,,,,,,,,,,,,,,,,,,,,,,,,,,,,,,,,,,,,,5bb18bbb70f8df0001bedd32,606a0fa34270f67cfdcbd93e,2021-04-04_12h36.05.614,Colour_Similarity_Experiment,2020.2.10,Win32,60,60675255c767bca6388caeee,21.21551724,17.4177665,17.01791531,17.21371611,17.54896676,17.4177665,,,,,,,,,,,,,,,,,,,2,PF,3,strong,37,-72,1,0,0,response3disk_5,7,4,14.667,-6,2,1,0,0,rectangle_8,-6,2,1,0,0,6,-6,2,1,0,0,0,2,2,2,1,,,,,,,,,,,,,,,,,,,,,,,,,,,,,,,,,,,,,,,,,,,,,,,,,,,,,,,,,,,,,
,,,,,,,,,,,,,,,,,,,,,,,,,,,,,,,,,,,,,,,,,,5bb18bbb70f8df0001bedd32,606a0fa34270f67cfdcbd93e,2021-04-04_12h36.05.614,Colour_Similarity_Experiment,2020.2.10,Win32,60,60675255c767bca6388caeee,21.21551724,17.4177665,17.01791531,17.21371611,17.54896676,17.4177665,,,,,,,,,,,,,,,,,,,2,PF,3,weak,-51,72,1,0,0,response7disk_5,7,0,4.133,-4,4,1,0,0,rectangle_8,-4,4,1,0,0,6,-4,4,1,0,0,0,3,3,5,1,,,,,,,,,,,,,,,,,,,,,,,,,,,,,,,,,,,,,,,,,,,,,,,,,,,,,,,,,,,,,
,,,,,,,,,,,,,,,,,,,,,,,,,,,,,,,,,,,,,,,,,,5bb18bbb70f8df0001bedd32,606a0fa34270f67cfdcbd93e,2021-04-04_12h36.05.614,Colour_Similarity_Experiment,2020.2.10,Win32,60,60675255c767bca6388caeee,21.21551724,17.4177665,17.01791531,17.21371611,17.54896676,17.4177665,,,,,,,,,,,,,,,,,,,1,PF,3,strong,52,84,1,0,0,response1disk_5,1,7,3.533,2,-1,1,0,0,rectangle_8,2,-1,1,0,0,6,2,-1,1,0,0,0,4,4,3,1,,,,,,,,,,,,,,,,,,,,,,,,,,,,,,,,,,,,,,,,,,,,,,,,,,,,,,,,,,,,,
,,,,,,,,,,,,,,,,,,,,,,,,,,,,,,,,,,,,,,,,,,5bb18bbb70f8df0001bedd32,606a0fa34270f67cfdcbd93e,2021-04-04_12h36.05.614,Colour_Similarity_Experiment,2020.2.10,Win32,60,60675255c767bca6388caeee,21.21551724,17.4177665,17.01791531,17.21371611,17.54896676,17.4177665,,,,,,,,,,,,,,,,,,,1,PF,3,weak,-74,86,1,0,0,response7disk_5,7,0,11.667,-1,1,1,0,0,rectangle_8,97,49,1,0,0,6,-3,-1,1,0,0,0,5,5,1,1,response1disk_7,6,rectangle_4,,,,,,,,,,,,,,,,,,,,,,,,,,,,,,,,,,,,,,,,,,,,,,,,,,,,,,,,,,
,,,,,,,,,,,,,,,,,,,,,,,,,,,,,,,,,,,,,,,,,,5bb18bbb70f8df0001bedd32,606a0fa34270f67cfdcbd93e,2021-04-04_12h36.05.614,Colour_Similarity_Experiment,2020.2.10,Win32,60,60675255c767bca6388caeee,21.21551724,17.4177665,17.01791531,17.21371611,17.54896676,17.4177665,,,,,,,,,,,,,,,,,,,2,PF,3,weak,-58,-29,1,0,0,response5disk_5,5,2,9.373,4,-1,1,0,0,rectangle_8,4,-1,1,0,0,6,4,-1,1,0,0,0,6,6,6,1,,,,,,,,,,,,,,,,,,,,,,,,,,,,,,,,,,,,,,,,,,,,,,,,,,,,,,,,,,,,,
,,,,,,,,,,,,,,,,,,,,,,,,,,,,,,,,,,,,,,,,,,5bb18bbb70f8df0001bedd32,606a0fa34270f67cfdcbd93e,2021-04-04_12h36.05.614,Colour_Similarity_Experiment,2020.2.10,Win32,60,60675255c767bca6388caeee,21.21551724,17.4177665,17.01791531,17.21371611,17.54896676,17.4177665,,,,,,,,,,,,,,,,,,,,PF,3,strong,,,,,,,,2,9.001,,,,,,,,,,,,,,,,,,,,,,,,,,space,4.476,7,strong,-59,-35,1,0,0,response5disk,6,1,11,8,1,0,0,rectangle,11,8,1,0,0,,5,0.005,11,8,1,0,0,0,0,0,31,1,0,,,,,,,,,,,,,,,,,,,,,
,,,,,,,,,,,,,,,,,,,,,,,,,,,,,,,,,,,,,,,,,,5bb18bbb70f8df0001bedd32,606a0fa34270f67cfdcbd93e,2021-04-04_12h36.05.614,Colour_Similarity_Experiment,2020.2.10,Win32,60,60675255c767bca6388caeee,21.21551724,17.4177665,17.01791531,17.21371611,17.54896676,17.4177665,,,,,,,,,,,,,,,,,,,,PF,3,strong,,,,,,,,4,12.416,,,,,,,,,,,,,,,,,,,,,,,,,,,,3,strong,28,-72,1,0,0,response3disk,4,2,-10,-3,1,0,0,rectangle,-10,-3,1,0,0,,0,0.005,-10,-3,1,0,0,0,1,1,110,1,0,,,,,,,,,,,,,,,,,,,,,
,,,,,,,,,,,,,,,,,,,,,,,,,,,,,,,,,,,,,,,,,,5bb18bbb70f8df0001bedd32,606a0fa34270f67cfdcbd93e,2021-04-04_12h36.05.614,Colour_Similarity_Experiment,2020.2.10,Win32,60,60675255c767bca6388caeee,21.21551724,17.4177665,17.01791531,17.21371611,17.54896676,17.4177665,,,,,,,,,,,,,,,,,,,,PF,3,weak,,,,,,,,7,3.647,,,,,,,,,,,,,,,,,,,,,,,,,,,,2,weak,73,95,1,0,0,response1disk,9,3,4,-8,1,0,0,rectangle,4,-8,1,0,0,,6,0.002,4,-8,1,0,0,0,2,2,39,1,0,,,,,,,,,,,,,,,,,,,,,
,,,,,,,,,,,,,,,,,,,,,,,,,,,,,,,,,,,,,,,,,,5bb18bbb70f8df0001bedd32,606a0fa34270f67cfdcbd93e,2021-04-04_12h36.05.614,Colour_Similarity_Experiment,2020.2.10,Win32,60,60675255c767bca6388caeee,21.21551724,17.4177665,17.01791531,17.21371611,17.54896676,17.4177665,,,,,,,,,,,,,,,,,,,,PF,3,strong,,,,,,,,4,4.591,,,,,,,,,,,,,,,,,,,,,,,,,,,,8,strong,31,-65,1,0,0,response3disk,1,4,15,0,1,0,0,rectangle,15,0,1,0,0,,4,0.004,15,0,1,0,0,0,3,3,20,1,0,,,,,,,,,,,,,,,,,,,,,
,,,,,,,,,,,,,,,,,,,,,,,,,,,,,,,,,,,,,,,,,,5bb18bbb70f8df0001bedd32,606a0fa34270f67cfdcbd93e,2021-04-04_12h36.05.614,Colour_Similarity_Experiment,2020.2.10,Win32,60,60675255c767bca6388caeee,21.21551724,17.4177665,17.01791531,17.21371611,17.54896676,17.4177665,,,,,,,,,,,,,,,,,,,,PF,3,weak,,,,,,,,3,3.106,,,,,,,,,,,,,,,,,,,,,,,,,,,,2,weak,-62,-68,1,0,0,response5disk,2,5,11,-2,1,0,0,rectangle,11,-2,1,0,0,,5,0.006,11,-2,1,0,0,0,4,4,14,1,0,,,,,,,,,,,,,,,,,,,,,
,,,,,,,,,,,,,,,,,,,,,,,,,,,,,,,,,,,,,,,,,,5bb18bbb70f8df0001bedd32,606a0fa34270f67cfdcbd93e,2021-04-04_12h36.05.614,Colour_Similarity_Experiment,2020.2.10,Win32,60,60675255c767bca6388caeee,21.21551724,17.4177665,17.01791531,17.21371611,17.54896676,17.4177665,,,,,,,,,,,,,,,,,,,,PF,3,weak,,,,,,,,7,3.249,,,,,,,,,,,,,,,,,,,,,,,,,,,,8,weak,75,91,1,0,0,response1disk,8,6,8,-1,1,0,0,rectangle,8,-1,1,0,0,,6,0.002,8,-1,1,0,0,0,5,5,153,1,0,,,,,,,,,,,,,,,,,,,,,
,,,,,,,,,,,,,,,,,,,,,,,,,,,,,,,,,,,,,,,,,,5bb18bbb70f8df0001bedd32,606a0fa34270f67cfdcbd93e,2021-04-04_12h36.05.614,Colour_Similarity_Experiment,2020.2.10,Win32,60,60675255c767bca6388caeee,21.21551724,17.4177665,17.01791531,17.21371611,17.54896676,17.4177665,,,,,,,,,,,,,,,,,,,,PF,3,weak,,,,,,,,7,2.418,,,,,,,,,,,,,,,,,,,,,,,,,,,,5,weak,67,86,1,0,0,response1disk,3,7,9,-3,1,0,0,rectangle,9,-3,1,0,0,,6,0.001,9,-3,1,0,0,0,6,6,109,1,0,,,,,,,,,,,,,,,,,,,,,
,,,,,,,,,,,,,,,,,,,,,,,,,,,,,,,,,,,,,,,,,,5bb18bbb70f8df0001bedd32,606a0fa34270f67cfdcbd93e,2021-04-04_12h36.05.614,Colour_Similarity_Experiment,2020.2.10,Win32,60,60675255c767bca6388caeee,21.21551724,17.4177665,17.01791531,17.21371611,17.54896676,17.4177665,,,,,,,,,,,,,,,,,,,,PF,3,strong,,,,,,,,0,4.782,,,,,,,,,,,,,,,,,,,,,,,,,,,,4,strong,-42,77,1,0,0,response7disk,2,8,-2,6,1,0,0,rectangle,-2,6,1,0,0,,1,0.005,-2,6,1,0,0,0,7,7,13,1,0,,,,,,,,,,,,,,,,,,,,,
,,,,,,,,,,,,,,,,,,,,,,,,,,,,,,,,,,,,,,,,,,5bb18bbb70f8df0001bedd32,606a0fa34270f67cfdcbd93e,2021-04-04_12h36.05.614,Colour_Similarity_Experiment,2020.2.10,Win32,60,60675255c767bca6388caeee,21.21551724,17.4177665,17.01791531,17.21371611,17.54896676,17.4177665,,,,,,,,,,,,,,,,,,,,PF,3,weak,,,,,,,,7,2.6,,,,,,,,,,,,,,,,,,,,,,,,,,,,9,weak,61,92,1,0,0,response1disk,4,9,-1,-9,1,0,0,rectangle,-1,-9,1,0,0,,2,0.005,-1,-9,1,0,0,0,8,8,114,1,0,,,,,,,,,,,,,,,,,,,,,
,,,,,,,,,,,,,,,,,,,,,,,,,,,,,,,,,,,,,,,,,,5bb18bbb70f8df0001bedd32,606a0fa34270f67cfdcbd93e,2021-04-04_12h36.05.614,Colour_Similarity_Experiment,2020.2.10,Win32,60,60675255c767bca6388caeee,21.21551724,17.4177665,17.01791531,17.21371611,17.54896676,17.4177665,,,,,,,,,,,,,,,,,,,,PF,3,strong,,,,,,,,2,4.289,,,,,,,,,,,,,,,,,,,,,,,,,,,,8,strong,-71,-57,1,0,0,response5disk,3,10,7,-10,1,0,0,rectangle,7,-10,1,0,0,,0,0.003,7,-10,1,0,0,0,9,9,154,1,0,,,,,,,,,,,,,,,,,,,,,
,,,,,,,,,,,,,,,,,,,,,,,,,,,,,,,,,,,,,,,,,,5bb18bbb70f8df0001bedd32,606a0fa34270f67cfdcbd93e,2021-04-04_12h36.05.614,Colour_Similarity_Experiment,2020.2.10,Win32,60,60675255c767bca6388caeee,21.21551724,17.4177665,17.01791531,17.21371611,17.54896676,17.4177665,,,,,,,,,,,,,,,,,,,,PF,3,weak,,,,,,,,7,1.974,,,,,,,,,,,,,,,,,,,,,,,,,,,,9,weak,51,75,1,0,0,response1disk,8,11,-5,3,1,0,0,rectangle,-5,3,1,0,0,,5,0.003,-5,3,1,0,0,0,10,10,67,1,0,,,,,,,,,,,,,,,,,,,,,
,,,,,,,,,,,,,,,,,,,,,,,,,,,,,,,,,,,,,,,,,,5bb18bbb70f8df0001bedd32,606a0fa34270f67cfdcbd93e,2021-04-04_12h36.05.614,Colour_Similarity_Experiment,2020.2.10,Win32,60,60675255c767bca6388caeee,21.21551724,17.4177665,17.01791531,17.21371611,17.54896676,17.4177665,,,,,,,,,,,,,,,,,,,,PF,3,weak,,,,,,,,4,4.454,,,,,,,,,,,,,,,,,,,,,,,,,,,,8,weak,33,-68,1,0,0,response3disk,1,12,4,-8,1,0,0,rectangle,4,-8,1,0,0,,7,0.003,4,-8,1,0,0,0,11,11,57,1,0,,,,,,,,,,,,,,,,,,,,,
,,,,,,,,,,,,,,,,,,,,,,,,,,,,,,,,,,,,,,,,,,5bb18bbb70f8df0001bedd32,606a0fa34270f67cfdcbd93e,2021-04-04_12h36.05.614,Colour_Similarity_Experiment,2020.2.10,Win32,60,60675255c767bca6388caeee,21.21551724,17.4177665,17.01791531,17.21371611,17.54896676,17.4177665,,,,,,,,,,,,,,,,,,,,PF,3,strong,,,,,,,,7,2.166,,,,,,,,,,,,,,,,,,,,,,,,,,,,7,strong,58,97,1,0,0,response1disk,4,13,-3,-1,1,0,0,rectangle,-3,-1,1,0,0,,3,0.005,-3,-1,1,0,0,0,12,12,158,1,0,,,,,,,,,,,,,,,,,,,,,
,,,,,,,,,,,,,,,,,,,,,,,,,,,,,,,,,,,,,,,,,,5bb18bbb70f8df0001bedd32,606a0fa34270f67cfdcbd93e,2021-04-04_12h36.05.614,Colour_Similarity_Experiment,2020.2.10,Win32,60,60675255c767bca6388caeee,21.21551724,17.4177665,17.01791531,17.21371611,17.54896676,17.4177665,,,,,,,,,,,,,,,,,,,,PF,3,weak,,,,,,,,5,4.251,,,,,,,,,,,,,,,,,,,,,,,,,,,,5,weak,93,-69,1,0,0,response3disk,7,14,-1,-5,1,0,0,rectangle,-1,-5,1,0,0,,5,0.006,-1,-5,1,0,0,0,13,13,146,1,0,,,,,,,,,,,,,,,,,,,,,
,,,,,,,,,,,,,,,,,,,,,,,,,,,,,,,,,,,,,,,,,,5bb18bbb70f8df0001bedd32,606a0fa34270f67cfdcbd93e,2021-04-04_12h36.05.614,Colour_Similarity_Experiment,2020.2.10,Win32,60,60675255c767bca6388caeee,21.21551724,17.4177665,17.01791531,17.21371611,17.54896676,17.4177665,,,,,,,,,,,,,,,,,,,,PF,3,strong,,,,,,,,5,2.916,,,,,,,,,,,,,,,,,,,,,,,,,,,,4,strong,102,-62,1,0,0,response3disk,3,15,5,-1,1,0,0,rectangle,5,-1,1,0,0,,6,0.005,5,-1,1,0,0,0,14,14,77,1,0,,,,,,,,,,,,,,,,,,,,,
,,,,,,,,,,,,,,,,,,,,,,,,,,,,,,,,,,,,,,,,,,5bb18bbb70f8df0001bedd32,606a0fa34270f67cfdcbd93e,2021-04-04_12h36.05.614,Colour_Similarity_Experiment,2020.2.10,Win32,60,60675255c767bca6388caeee,21.21551724,17.4177665,17.01791531,17.21371611,17.54896676,17.4177665,,,,,,,,,,,,,,,,,,,,PF,3,strong,,,,,,,,5,1.351,,,,,,,,,,,,,,,,,,,,,,,,,,,,6,strong,73,-39,1,0,0,response3disk,7,16,4,-3,1,0,0,rectangle,4,-3,1,0,0,,5,0.004,4,-3,1,0,0,0,15,15,18,1,0,,,,,,,,,,,,,,,,,,,,,
,,,,,,,,,,,,,,,,,,,,,,,,,,,,,,,,,,,,,,,,,,5bb18bbb70f8df0001bedd32,606a0fa34270f67cfdcbd93e,2021-04-04_12h36.05.614,Colour_Similarity_Experiment,2020.2.10,Win32,60,60675255c767bca6388caeee,21.21551724,17.4177665,17.01791531,17.21371611,17.54896676,17.4177665,,,,,,,,,,,,,,,,,,,,PF,3,strong,,,,,,,,6,8.649,,,,,,,,,,,,,,,,,,,,,,,,,,,,2,strong,92,36,1,0,0,response1disk,9,17,-10,1,1,0,0,rectangle,-10,1,1,0,0,,0,0.003,-10,1,1,0,0,0,16,16,72,1,0,,,,,,,,,,,,,,,,,,,,,
,,,,,,,,,,,,,,,,,,,,,,,,,,,,,,,,,,,,,,,,,,5bb18bbb70f8df0001bedd32,606a0fa34270f67cfdcbd93e,2021-04-04_12h36.05.614,Colour_Similarity_Experiment,2020.2.10,Win32,60,60675255c767bca6388caeee,21.21551724,17.4177665,17.01791531,17.21371611,17.54896676,17.4177665,,,,,,,,,,,,,,,,,,,,PF,3,weak,,,,,,,,6,6.349,,,,,,,,,,,,,,,,,,,,,,,,,,,,7,weak,103,65,1,0,0,response1disk,6,18,4,4,1,0,0,rectangle,4,4,1,0,0,,4,0.003,4,4,1,0,0,0,17,17,29,1,0,,,,,,,,,,,,,,,,,,,,,
,,,,,,,,,,,,,,,,,,,,,,,,,,,,,,,,,,,,,,,,,,5bb18bbb70f8df0001bedd32,606a0fa34270f67cfdcbd93e,2021-04-04_12h36.05.614,Colour_Similarity_Experiment,2020.2.10,Win32,60,60675255c767bca6388caeee,21.21551724,17.4177665,17.01791531,17.21371611,17.54896676,17.4177665,,,,,,,,,,,,,,,,,,,,PF,3,weak,,,,,,,,7,2.924,,,,,,,,,,,,,,,,,,,,,,,,,,,,8,weak,72,98,1,0,0,response1disk,2,19,-6,-4,1,0,0,rectangle,-6,-4,1,0,0,,7,0.002,-6,-4,1,0,0,0,18,18,83,1,0,,,,,,,,,,,,,,,,,,,,,
,,,,,,,,,,,,,,,,,,,,,,,,,,,,,,,,,,,,,,,,,,5bb18bbb70f8df0001bedd32,606a0fa34270f67cfdcbd93e,2021-04-04_12h36.05.614,Colour_Similarity_Experiment,2020.2.10,Win32,60,60675255c767bca6388caeee,21.21551724,17.4177665,17.01791531,17.21371611,17.54896676,17.4177665,,,,,,,,,,,,,,,,,,,,PF,3,weak,,,,,,,,7,2.099,,,,,,,,,,,,,,,,,,,,,,,,,,,,1,weak,56,83,1,0,0,response1disk,7,20,3,1,1,0,0,rectangle,3,1,1,0,0,,6,0.004,3,1,1,0,0,0,19,19,150,1,0,,,,,,,,,,,,,,,,,,,,,
,,,,,,,,,,,,,,,,,,,,,,,,,,,,,,,,,,,,,,,,,,5bb18bbb70f8df0001bedd32,606a0fa34270f67cfdcbd93e,2021-04-04_12h36.05.614,Colour_Similarity_Experiment,2020.2.10,Win32,60,60675255c767bca6388caeee,21.21551724,17.4177665,17.01791531,17.21371611,17.54896676,17.4177665,,,,,,,,,,,,,,,,,,,,PF,3,strong,,,,,,,,5,5.078,,,,,,,,,,,,,,,,,,,,,,,,,,,,3,strong,108,-37,1,0,0,response3disk,3,21,5,-3,1,0,0,rectangle,5,-3,1,0,0,,7,0.005,5,-3,1,0,0,0,20,20,68,1,0,,,,,,,,,,,,,,,,,,,,,
,,,,,,,,,,,,,,,,,,,,,,,,,,,,,,,,,,,,,,,,,,5bb18bbb70f8df0001bedd32,606a0fa34270f67cfdcbd93e,2021-04-04_12h36.05.614,Colour_Similarity_Experiment,2020.2.10,Win32,60,60675255c767bca6388caeee,21.21551724,17.4177665,17.01791531,17.21371611,17.54896676,17.4177665,,,,,,,,,,,,,,,,,,,,PF,3,strong,,,,,,,,5,3.817,,,,,,,,,,,,,,,,,,,,,,,,,,,,6,strong,99,-40,1,0,0,response3disk,6,22,-2,-2,1,0,0,rectangle,-2,-2,1,0,0,,6,0.005,-2,-2,1,0,0,0,21,21,91,1,0,,,,,,,,,,,,,,,,,,,,,
,,,,,,,,,,,,,,,,,,,,,,,,,,,,,,,,,,,,,,,,,,5bb18bbb70f8df0001bedd32,606a0fa34270f67cfdcbd93e,2021-04-04_12h36.05.614,Colour_Similarity_Experiment,2020.2.10,Win32,60,60675255c767bca6388caeee,21.21551724,17.4177665,17.01791531,17.21371611,17.54896676,17.4177665,,,,,,,,,,,,,,,,,,,,PF,3,strong,,,,,,,,7,2.185,,,,,,,,,,,,,,,,,,,,,,,,,,,,9,strong,53,84,1,0,0,response1disk,1,23,0,-11,1,0,0,rectangle,0,-11,1,0,0,,0,0.002,0,-11,1,0,0,0,22,22,111,1,0,,,,,,,,,,,,,,,,,,,,,
,,,,,,,,,,,,,,,,,,,,,,,,,,,,,,,,,,,,,,,,,,5bb18bbb70f8df0001bedd32,606a0fa34270f67cfdcbd93e,2021-04-04_12h36.05.614,Colour_Similarity_Experiment,2020.2.10,Win32,60,60675255c767bca6388caeee,21.21551724,17.4177665,17.01791531,17.21371611,17.54896676,17.4177665,,,,,,,,,,,,,,,,,,,,PF,3,strong,,,,,,,,7,1.531,,,,,,,,,,,,,,,,,,,,,,,,,,,,5,strong,53,101,1,0,0,response1disk,6,24,6,5,1,0,0,rectangle,6,5,1,0,0,,5,0.003,6,5,1,0,0,0,23,23,12,1,0,,,,,,,,,,,,,,,,,,,,,
,,,,,,,,,,,,,,,,,,,,,,,,,,,,,,,,,,,,,,,,,,5bb18bbb70f8df0001bedd32,606a0fa34270f67cfdcbd93e,2021-04-04_12h36.05.614,Colour_Similarity_Experiment,2020.2.10,Win32,60,60675255c767bca6388caeee,21.21551724,17.4177665,17.01791531,17.21371611,17.54896676,17.4177665,,,,,,,,,,,,,,,,,,,,PF,3,strong,,,,,,,,5,2.755,,,,,,,,,,,,,,,,,,,,,,,,,,,,5,strong,75,-23,1,0,0,response3disk,8,25,10,0,1,0,0,rectangle,10,0,1,0,0,,3,0.003,10,0,1,0,0,0,24,24,16,1,0,,,,,,,,,,,,,,,,,,,,,
,,,,,,,,,,,,,,,,,,,,,,,,,,,,,,,,,,,,,,,,,,5bb18bbb70f8df0001bedd32,606a0fa34270f67cfdcbd93e,2021-04-04_12h36.05.614,Colour_Similarity_Experiment,2020.2.10,Win32,60,60675255c767bca6388caeee,21.21551724,17.4177665,17.01791531,17.21371611,17.54896676,17.4177665,,,,,,,,,,,,,,,,,,,,PF,3,weak,,,,,,,,5,2.95,,,,,,,,,,,,,,,,,,,,,,,,,,,,9,weak,82,-48,1,0,0,response3disk,5,26,5,1,1,0,0,rectangle,5,1,1,0,0,,1,0.006,5,1,1,0,0,0,25,25,134,1,0,,,,,,,,,,,,,,,,,,,,,
,,,,,,,,,,,,,,,,,,,,,,,,,,,,,,,,,,,,,,,,,,5bb18bbb70f8df0001bedd32,606a0fa34270f67cfdcbd93e,2021-04-04_12h36.05.614,Colour_Similarity_Experiment,2020.2.10,Win32,60,60675255c767bca6388caeee,21.21551724,17.4177665,17.01791531,17.21371611,17.54896676,17.4177665,,,,,,,,,,,,,,,,,,,,PF,3,strong,,,,,,,,5,6.799,,,,,,,,,,,,,,,,,,,,,,,,,,,,6,strong,82,-41,1,0,0,response3disk,8,27,6,-5,1,0,0,rectangle,6,-5,1,0,0,,4,0.005,6,-5,1,0,0,0,26,26,133,1,0,,,,,,,,,,,,,,,,,,,,,
,,,,,,,,,,,,,,,,,,,,,,,,,,,,,,,,,,,,,,,,,,5bb18bbb70f8df0001bedd32,606a0fa34270f67cfdcbd93e,2021-04-04_12h36.05.614,Colour_Similarity_Experiment,2020.2.10,Win32,60,60675255c767bca6388caeee,21.21551724,17.4177665,17.01791531,17.21371611,17.54896676,17.4177665,,,,,,,,,,,,,,,,,,,,PF,3,strong,,,,,,,,4,7.772,,,,,,,,,,,,,,,,,,,,,,,,,,,,4,strong,51,-96,1,0,0,response3disk,1,28,7,4,1,0,0,rectangle,7,4,1,0,0,,5,0.004,7,4,1,0,0,0,27,27,102,1,0,,,,,,,,,,,,,,,,,,,,,
,,,,,,,,,,,,,,,,,,,,,,,,,,,,,,,,,,,,,,,,,,5bb18bbb70f8df0001bedd32,606a0fa34270f67cfdcbd93e,2021-04-04_12h36.05.614,Colour_Similarity_Experiment,2020.2.10,Win32,60,60675255c767bca6388caeee,21.21551724,17.4177665,17.01791531,17.21371611,17.54896676,17.4177665,,,,,,,,,,,,,,,,,,,,PF,3,weak,,,,,,,,6,3.554,,,,,,,,,,,,,,,,,,,,,,,,,,,,6,weak,98,67,1,0,0,response1disk,6,29,1,-4,1,0,0,rectangle,1,-4,1,0,0,,5,0.001,1,-4,1,0,0,0,28,28,0,1,0,,,,,,,,,,,,,,,,,,,,,
,,,,,,,,,,,,,,,,,,,,,,,,,,,,,,,,,,,,,,,,,,5bb18bbb70f8df0001bedd32,606a0fa34270f67cfdcbd93e,2021-04-04_12h36.05.614,Colour_Similarity_Experiment,2020.2.10,Win32,60,60675255c767bca6388caeee,21.21551724,17.4177665,17.01791531,17.21371611,17.54896676,17.4177665,,,,,,,,,,,,,,,,,,,,PF,3,strong,,,,,,,,4,4.625,,,,,,,,,,,,,,,,,,,,,,,,,,,,8,strong,33,-73,1,0,0,response3disk,4,30,-5,-3,1,0,0,rectangle,-5,-3,1,0,0,,7,0.004,-5,-3,1,0,0,0,29,29,88,1,0,,,,,,,,,,,,,,,,,,,,,
,,,,,,,,,,,,,,,,,,,,,,,,,,,,,,,,,,,,,,,,,,5bb18bbb70f8df0001bedd32,606a0fa34270f67cfdcbd93e,2021-04-04_12h36.05.614,Colour_Similarity_Experiment,2020.2.10,Win32,60,60675255c767bca6388caeee,21.21551724,17.4177665,17.01791531,17.21371611,17.54896676,17.4177665,,,,,,,,,,,,,,,,,,,,PF,3,weak,,,,,,,,4,5.053,,,,,,,,,,,,,,,,,,,,,,,,,,,,5,weak,37,-53,1,0,0,response3disk,6,31,5,0,1,0,0,rectangle,5,0,1,0,0,,1,0.004,5,0,1,0,0,0,30,30,103,1,0,,,,,,,,,,,,,,,,,,,,,
,,,,,,,,,,,,,,,,,,,,,,,,,,,,,,,,,,,,,,,,,,5bb18bbb70f8df0001bedd32,606a0fa34270f67cfdcbd93e,2021-04-04_12h36.05.614,Colour_Similarity_Experiment,2020.2.10,Win32,60,60675255c767bca6388caeee,21.21551724,17.4177665,17.01791531,17.21371611,17.54896676,17.4177665,,,,,,,,,,,,,,,,,,,,PF,3,strong,,,,,,,,6,2.538,,,,,,,,,,,,,,,,,,,,,,,,,,,,9,strong,79,52,1,0,0,response1disk,9,32,-3,-3,1,0,0,rectangle,-3,-3,1,0,0,,4,0.006,-3,-3,1,0,0,0,31,31,17,1,0,,,,,,,,,,,,,,,,,,,,,
,,,,,,,,,,,,,,,,,,,,,,,,,,,,,,,,,,,,,,,,,,5bb18bbb70f8df0001bedd32,606a0fa34270f67cfdcbd93e,2021-04-04_12h36.05.614,Colour_Similarity_Experiment,2020.2.10,Win32,60,60675255c767bca6388caeee,21.21551724,17.4177665,17.01791531,17.21371611,17.54896676,17.4177665,,,,,,,,,,,,,,,,,,,,PF,3,weak,,,,,,,,0,2.723,,,,,,,,,,,,,,,,,,,,,,,,,,,,1,weak,-55,87,1,0,0,response7disk,9,33,0,2,1,0,0,rectangle,0,2,1,0,0,,6,0.003,0,2,1,0,0,0,32,32,15,1,0,,,,,,,,,,,,,,,,,,,,,
,,,,,,,,,,,,,,,,,,,,,,,,,,,,,,,,,,,,,,,,,,5bb18bbb70f8df0001bedd32,606a0fa34270f67cfdcbd93e,2021-04-04_12h36.05.614,Colour_Similarity_Experiment,2020.2.10,Win32,60,60675255c767bca6388caeee,21.21551724,17.4177665,17.01791531,17.21371611,17.54896676,17.4177665,,,,,,,,,,,,,,,,,,,,PF,3,strong,,,,,,,,4,4.75,,,,,,,,,,,,,,,,,,,,,,,,,,,,6,strong,32,-55,1,0,0,response3disk,5,34,4,-2,1,0,0,rectangle,4,-2,1,0,0,,0,0.002,4,-2,1,0,0,0,33,33,126,1,0,,,,,,,,,,,,,,,,,,,,,
,,,,,,,,,,,,,,,,,,,,,,,,,,,,,,,,,,,,,,,,,,5bb18bbb70f8df0001bedd32,606a0fa34270f67cfdcbd93e,2021-04-04_12h36.05.614,Colour_Similarity_Experiment,2020.2.10,Win32,60,60675255c767bca6388caeee,21.21551724,17.4177665,17.01791531,17.21371611,17.54896676,17.4177665,,,,,,,,,,,,,,,,,,,,PF,3,weak,,,,,,,,1,2.952,,,,,,,,,,,,,,,,,,,,,,,,,,,,3,weak,-86,52,1,0,0,response7disk,6,35,-2,2,1,0,0,rectangle,-2,2,1,0,0,,1,0.005,-2,2,1,0,0,0,34,34,47,1,0,,,,,,,,,,,,,,,,,,,,,
,,,,,,,,,,,,,,,,,,,,,,,,,,,,,,,,,,,,,,,,,,5bb18bbb70f8df0001bedd32,606a0fa34270f67cfdcbd93e,2021-04-04_12h36.05.614,Colour_Similarity_Experiment,2020.2.10,Win32,60,60675255c767bca6388caeee,21.21551724,17.4177665,17.01791531,17.21371611,17.54896676,17.4177665,,,,,,,,,,,,,,,,,,,,PF,3,strong,,,,,,,,2,3.694,,,,,,,,,,,,,,,,,,,,,,,,,,,,8,strong,-70,-29,1,0,0,response5disk,7,36,-2,7,1,0,0,rectangle,-2,7,1,0,0,,1,0.002,-2,7,1,0,0,0,35,35,86,1,0,,,,,,,,,,,,,,,,,,,,,
,,,,,,,,,,,,,,,,,,,,,,,,,,,,,,,,,,,,,,,,,,5bb18bbb70f8df0001bedd32,606a0fa34270f67cfdcbd93e,2021-04-04_12h36.05.614,Colour_Similarity_Experiment,2020.2.10,Win32,60,60675255c767bca6388caeee,21.21551724,17.4177665,17.01791531,17.21371611,17.54896676,17.4177665,,,,,,,,,,,,,,,,,,,,PF,3,strong,,,,,,,,5,4.838,,,,,,,,,,,,,,,,,,,,,,,,,,,,1,strong,69,-41,1,0,0,response3disk,3,37,6,3,1,0,0,rectangle,6,3,1,0,0,,4,0.004,6,3,1,0,0,0,36,36,99,1,0,,,,,,,,,,,,,,,,,,,,,
,,,,,,,,,,,,,,,,,,,,,,,,,,,,,,,,,,,,,,,,,,5bb18bbb70f8df0001bedd32,606a0fa34270f67cfdcbd93e,2021-04-04_12h36.05.614,Colour_Similarity_Experiment,2020.2.10,Win32,60,60675255c767bca6388caeee,21.21551724,17.4177665,17.01791531,17.21371611,17.54896676,17.4177665,,,,,,,,,,,,,,,,,,,,PF,3,weak,,,,,,,,7,3.101,,,,,,,,,,,,,,,,,,,,,,,,,,,,6,weak,48,85,1,0,0,response1disk,8,38,-3,2,1,0,0,rectangle,-3,2,1,0,0,,2,0.004,-3,2,1,0,0,0,37,37,64,1,0,,,,,,,,,,,,,,,,,,,,,
,,,,,,,,,,,,,,,,,,,,,,,,,,,,,,,,,,,,,,,,,,5bb18bbb70f8df0001bedd32,606a0fa34270f67cfdcbd93e,2021-04-04_12h36.05.614,Colour_Similarity_Experiment,2020.2.10,Win32,60,60675255c767bca6388caeee,21.21551724,17.4177665,17.01791531,17.21371611,17.54896676,17.4177665,,,,,,,,,,,,,,,,,,,,PF,3,weak,,,,,,,,7,1.864,,,,,,,,,,,,,,,,,,,,,,,,,,,,7,weak,51,85,1,0,0,response1disk,2,39,-3,6,1,0,0,rectangle,-3,6,1,0,0,,6,0.006,-3,6,1,0,0,0,38,38,32,1,0,,,,,,,,,,,,,,,,,,,,,
,,,,,,,,,,,,,,,,,,,,,,,,,,,,,,,,,,,,,,,,,,5bb18bbb70f8df0001bedd32,606a0fa34270f67cfdcbd93e,2021-04-04_12h36.05.614,Colour_Similarity_Experiment,2020.2.10,Win32,60,60675255c767bca6388caeee,21.21551724,17.4177665,17.01791531,17.21371611,17.54896676,17.4177665,,,,,,,,,,,,,,,,,,,,PF,3,strong,,,,,,,,7,1.271,,,,,,,,,,,,,,,,,,,,,,,,,,,,2,strong,38,81,1,0,0,response1disk,8,40,-1,4,1,0,0,rectangle,-1,4,1,0,0,,3,0.003,-1,4,1,0,0,0,39,39,62,1,0,,,,,,,,,,,,,,,,,,,,,
,,,,,,,,,,,,,,,,,,,,,,,,,,,,,,,,,,,,,,,,,,5bb18bbb70f8df0001bedd32,606a0fa34270f67cfdcbd93e,2021-04-04_12h36.05.614,Colour_Similarity_Experiment,2020.2.10,Win32,60,60675255c767bca6388caeee,21.21551724,17.4177665,17.01791531,17.21371611,17.54896676,17.4177665,,,,,,,,,,,,,,,,,,,,PF,3,weak,,,,,,,,5,3.002,,,,,,,,,,,,,,,,,,,,,,,,,,,,5,weak,72,-42,1,0,0,response3disk,5,41,4,-4,1,0,0,rectangle,4,-4,1,0,0,,6,0.004,4,-4,1,0,0,0,40,40,94,1,0,,,,,,,,,,,,,,,,,,,,,
,,,,,,,,,,,,,,,,,,,,,,,,,,,,,,,,,,,,,,,,,,5bb18bbb70f8df0001bedd32,606a0fa34270f67cfdcbd93e,2021-04-04_12h36.05.614,Colour_Similarity_Experiment,2020.2.10,Win32,60,60675255c767bca6388caeee,21.21551724,17.4177665,17.01791531,17.21371611,17.54896676,17.4177665,,,,,,,,,,,,,,,,,,,,PF,3,weak,,,,,,,,4,2.005,,,,,,,,,,,,,,,,,,,,,,,,,,,,1,weak,32,-62,1,0,0,response3disk,4,42,0,-4,1,0,0,rectangle,0,-4,1,0,0,,1,0.005,0,-4,1,0,0,0,41,41,139,1,0,,,,,,,,,,,,,,,,,,,,,
,,,,,,,,,,,,,,,,,,,,,,,,,,,,,,,,,,,,,,,,,,5bb18bbb70f8df0001bedd32,606a0fa34270f67cfdcbd93e,2021-04-04_12h36.05.614,Colour_Similarity_Experiment,2020.2.10,Win32,60,60675255c767bca6388caeee,21.21551724,17.4177665,17.01791531,17.21371611,17.54896676,17.4177665,,,,,,,,,,,,,,,,,,,,PF,3,strong,,,,,,,,6,6.468,,,,,,,,,,,,,,,,,,,,,,,,,,,,4,strong,76,43,1,0,0,response1disk,8,43,10,-5,1,0,0,rectangle,10,-5,1,0,0,,1,0,10,-5,1,0,0,0,42,42,35,1,0,,,,,,,,,,,,,,,,,,,,,
,,,,,,,,,,,,,,,,,,,,,,,,,,,,,,,,,,,,,,,,,,5bb18bbb70f8df0001bedd32,606a0fa34270f67cfdcbd93e,2021-04-04_12h36.05.614,Colour_Similarity_Experiment,2020.2.10,Win32,60,60675255c767bca6388caeee,21.21551724,17.4177665,17.01791531,17.21371611,17.54896676,17.4177665,,,,,,,,,,,,,,,,,,,,PF,3,weak,,,,,,,,1,2.069,,,,,,,,,,,,,,,,,,,,,,,,,,,,5,weak,-89,40,1,0,0,response7disk,9,44,-5,-7,1,0,0,rectangle,-40,82,1,0,0,0,0,3.483,-9,11,1,0,0,0,43,43,136,1,1,response7disk_3,rectangle,,,,,,,,,,,,,,,,,,,
,,,,,,,,,,,,,,,,,,,,,,,,,,,,,,,,,,,,,,,,,,5bb18bbb70f8df0001bedd32,606a0fa34270f67cfdcbd93e,2021-04-04_12h36.05.614,Colour_Similarity_Experiment,2020.2.10,Win32,60,60675255c767bca6388caeee,21.21551724,17.4177665,17.01791531,17.21371611,17.54896676,17.4177665,,,,,,,,,,,,,,,,,,,,PF,3,weak,,,,,,,,4,6.225,,,,,,,,,,,,,,,,,,,,,,,,,,,,8,weak,31,-82,1,0,0,response3disk,5,45,-2,-1,1,0,0,rectangle,-2,-1,1,0,0,0,6,0.003,-2,-1,1,0,0,0,44,44,98,1,0,,,,,,,,,,,,,,,,,,,,,
,,,,,,,,,,,,,,,,,,,,,,,,,,,,,,,,,,,,,,,,,,5bb18bbb70f8df0001bedd32,606a0fa34270f67cfdcbd93e,2021-04-04_12h36.05.614,Colour_Similarity_Experiment,2020.2.10,Win32,60,60675255c767bca6388caeee,21.21551724,17.4177665,17.01791531,17.21371611,17.54896676,17.4177665,,,,,,,,,,,,,,,,,,,,PF,3,weak,,,,,,,,7,2.256,,,,,,,,,,,,,,,,,,,,,,,,,,,,5,weak,49,69,1,0,0,response1disk,1,46,-2,-3,1,0,0,rectangle,-83,53,1,0,0,1,1,3.533,12,11,1,0,0,0,45,45,159,1,1,response7disk_3,rectangle,,,,,,,,,,,,,,,,,,,
,,,,,,,,,,,,,,,,,,,,,,,,,,,,,,,,,,,,,,,,,,5bb18bbb70f8df0001bedd32,606a0fa34270f67cfdcbd93e,2021-04-04_12h36.05.614,Colour_Similarity_Experiment,2020.2.10,Win32,60,60675255c767bca6388caeee,21.21551724,17.4177665,17.01791531,17.21371611,17.54896676,17.4177665,,,,,,,,,,,,,,,,,,,,PF,3,weak,,,,,,,,3,2.983,,,,,,,,,,,,,,,,,,,,,,,,,,,,2,weak,-31,-46,1,0,0,response5disk,8,47,-3,1,1,0,0,rectangle,-3,1,1,0,0,1,5,0.008,-3,1,1,0,0,0,46,46,52,1,0,,,,,,,,,,,,,,,,,,,,,
,,,,,,,,,,,,,,,,,,,,,,,,,,,,,,,,,,,,,,,,,,5bb18bbb70f8df0001bedd32,606a0fa34270f67cfdcbd93e,2021-04-04_12h36.05.614,Colour_Similarity_Experiment,2020.2.10,Win32,60,60675255c767bca6388caeee,21.21551724,17.4177665,17.01791531,17.21371611,17.54896676,17.4177665,,,,,,,,,,,,,,,,,,,,PF,3,strong,,,,,,,,5,2.321,,,,,,,,,,,,,,,,,,,,,,,,,,,,1,strong,54,-41,1,0,0,response3disk,7,48,4,-1,1,0,0,rectangle,4,-1,1,0,0,1,3,0.004,4,-1,1,0,0,0,47,47,137,1,0,,,,,,,,,,,,,,,,,,,,,
,,,,,,,,,,,,,,,,,,,,,,,,,,,,,,,,,,,,,,,,,,5bb18bbb70f8df0001bedd32,606a0fa34270f67cfdcbd93e,2021-04-04_12h36.05.614,Colour_Similarity_Experiment,2020.2.10,Win32,60,60675255c767bca6388caeee,21.21551724,17.4177665,17.01791531,17.21371611,17.54896676,17.4177665,,,,,,,,,,,,,,,,,,,,PF,3,strong,,,,,,,,3,2.35,,,,,,,,,,,,,,,,,,,,,,,,,,,,2,strong,-45,-75,1,0,0,response5disk,5,49,-6,-6,1,0,0,rectangle,-6,-6,1,0,0,1,0,0.003,-6,-6,1,0,0,0,48,48,80,1,0,,,,,,,,,,,,,,,,,,,,,
,,,,,,,,,,,,,,,,,,,,,,,,,,,,,,,,,,,,,,,,,,5bb18bbb70f8df0001bedd32,606a0fa34270f67cfdcbd93e,2021-04-04_12h36.05.614,Colour_Similarity_Experiment,2020.2.10,Win32,60,60675255c767bca6388caeee,21.21551724,17.4177665,17.01791531,17.21371611,17.54896676,17.4177665,,,,,,,,,,,,,,,,,,,,PF,3,strong,,,,,,,,7,1.572,,,,,,,,,,,,,,,,,,,,,,,,,,,,5,strong,46,88,1,0,0,response1disk,2,50,6,4,1,0,0,rectangle,-94,40,1,0,0,1,1,3.549,-2,10,1,0,0,0,49,49,55,1,1,response7disk_3,rectangle,,,,,,,,,,,,,,,,,,,
,,,,,,,,,,,,,,,,,,,,,,,,,,,,,,,,,,,,,,,,,,5bb18bbb70f8df0001bedd32,606a0fa34270f67cfdcbd93e,2021-04-04_12h36.05.614,Colour_Similarity_Experiment,2020.2.10,Win32,60,60675255c767bca6388caeee,21.21551724,17.4177665,17.01791531,17.21371611,17.54896676,17.4177665,,,,,,,,,,,,,,,,,,,,PF,3,strong,,,,,,,,4,3.963,,,,,,,,,,,,,,,,,,,,,,,,,,,,6,strong,40,-91,1,0,0,response3disk,3,51,-1,0,1,0,0,rectangle,-1,0,1,0,0,1,4,0.005,-1,0,1,0,0,0,50,50,21,1,0,,,,,,,,,,,,,,,,,,,,,
,,,,,,,,,,,,,,,,,,,,,,,,,,,,,,,,,,,,,,,,,,5bb18bbb70f8df0001bedd32,606a0fa34270f67cfdcbd93e,2021-04-04_12h36.05.614,Colour_Similarity_Experiment,2020.2.10,Win32,60,60675255c767bca6388caeee,21.21551724,17.4177665,17.01791531,17.21371611,17.54896676,17.4177665,,,,,,,,,,,,,,,,,,,,PF,3,weak,,,,,,,,7,5.257,,,,,,,,,,,,,,,,,,,,,,,,,,,,4,weak,51,88,1,0,0,response1disk,1,52,0,-5,1,0,0,rectangle,0,-5,1,0,0,1,4,0.001,0,-5,1,0,0,0,51,51,115,1,0,,,,,,,,,,,,,,,,,,,,,
,,,,,,,,,,,,,,,,,,,,,,,,,,,,,,,,,,,,,,,,,,5bb18bbb70f8df0001bedd32,606a0fa34270f67cfdcbd93e,2021-04-04_12h36.05.614,Colour_Similarity_Experiment,2020.2.10,Win32,60,60675255c767bca6388caeee,21.21551724,17.4177665,17.01791531,17.21371611,17.54896676,17.4177665,,,,,,,,,,,,,,,,,,,,PF,3,weak,,,,,,,,7,1.403,,,,,,,,,,,,,,,,,,,,,,,,,,,,6,weak,38,100,1,0,0,response1disk,5,53,3,-3,1,0,0,rectangle,3,-3,1,0,0,1,7,0.006,3,-3,1,0,0,0,52,52,59,1,0,,,,,,,,,,,,,,,,,,,,,
,,,,,,,,,,,,,,,,,,,,,,,,,,,,,,,,,,,,,,,,,,5bb18bbb70f8df0001bedd32,606a0fa34270f67cfdcbd93e,2021-04-04_12h36.05.614,Colour_Similarity_Experiment,2020.2.10,Win32,60,60675255c767bca6388caeee,21.21551724,17.4177665,17.01791531,17.21371611,17.54896676,17.4177665,,,,,,,,,,,,,,,,,,,,PF,3,weak,,,,,,,,0,2.284,,,,,,,,,,,,,,,,,,,,,,,,,,,,3,weak,-63,89,1,0,0,response7disk,5,54,-2,-11,1,0,0,rectangle,-2,-11,1,0,0,1,6,0.002,-2,-11,1,0,0,0,53,53,66,1,0,,,,,,,,,,,,,,,,,,,,,
,,,,,,,,,,,,,,,,,,,,,,,,,,,,,,,,,,,,,,,,,,5bb18bbb70f8df0001bedd32,606a0fa34270f67cfdcbd93e,2021-04-04_12h36.05.614,Colour_Similarity_Experiment,2020.2.10,Win32,60,60675255c767bca6388caeee,21.21551724,17.4177665,17.01791531,17.21371611,17.54896676,17.4177665,,,,,,,,,,,,,,,,,,,,PF,3,strong,,,,,,,,5,1.621,,,,,,,,,,,,,,,,,,,,,,,,,,,,8,strong,62,-35,1,0,0,response3disk,9,55,-2,1,1,0,0,rectangle,-2,1,1,0,0,1,7,0.005,-2,1,1,0,0,0,54,54,105,1,0,,,,,,,,,,,,,,,,,,,,,
,,,,,,,,,,,,,,,,,,,,,,,,,,,,,,,,,,,,,,,,,,5bb18bbb70f8df0001bedd32,606a0fa34270f67cfdcbd93e,2021-04-04_12h36.05.614,Colour_Similarity_Experiment,2020.2.10,Win32,60,60675255c767bca6388caeee,21.21551724,17.4177665,17.01791531,17.21371611,17.54896676,17.4177665,,,,,,,,,,,,,,,,,,,,PF,3,strong,,,,,,,,0,1.456,,,,,,,,,,,,,,,,,,,,,,,,,,,,5,strong,-36,74,1,0,0,response7disk,9,56,0,14,1,0,0,rectangle,0,14,1,0,0,1,7,0,0,14,1,0,0,0,55,55,61,1,0,,,,,,,,,,,,,,,,,,,,,
,,,,,,,,,,,,,,,,,,,,,,,,,,,,,,,,,,,,,,,,,,5bb18bbb70f8df0001bedd32,606a0fa34270f67cfdcbd93e,2021-04-04_12h36.05.614,Colour_Similarity_Experiment,2020.2.10,Win32,60,60675255c767bca6388caeee,21.21551724,17.4177665,17.01791531,17.21371611,17.54896676,17.4177665,,,,,,,,,,,,,,,,,,,,PF,3,strong,,,,,,,,7,1.42,,,,,,,,,,,,,,,,,,,,,,,,,,,,1,strong,45,83,1,0,0,response1disk,2,57,-4,-4,1,0,0,rectangle,-4,-4,1,0,0,1,5,0.005,-4,-4,1,0,0,0,56,56,2,1,0,,,,,,,,,,,,,,,,,,,,,
,,,,,,,,,,,,,,,,,,,,,,,,,,,,,,,,,,,,,,,,,,5bb18bbb70f8df0001bedd32,606a0fa34270f67cfdcbd93e,2021-04-04_12h36.05.614,Colour_Similarity_Experiment,2020.2.10,Win32,60,60675255c767bca6388caeee,21.21551724,17.4177665,17.01791531,17.21371611,17.54896676,17.4177665,,,,,,,,,,,,,,,,,,,,PF,3,weak,,,,,,,,5,4.103,,,,,,,,,,,,,,,,,,,,,,,,,,,,3,weak,96,-31,1,0,0,response3disk,4,58,10,8,1,0,0,rectangle,10,8,1,0,0,1,6,0.003,10,8,1,0,0,0,57,57,30,1,0,,,,,,,,,,,,,,,,,,,,,
,,,,,,,,,,,,,,,,,,,,,,,,,,,,,,,,,,,,,,,,,,5bb18bbb70f8df0001bedd32,606a0fa34270f67cfdcbd93e,2021-04-04_12h36.05.614,Colour_Similarity_Experiment,2020.2.10,Win32,60,60675255c767bca6388caeee,21.21551724,17.4177665,17.01791531,17.21371611,17.54896676,17.4177665,,,,,,,,,,,,,,,,,,,,PF,3,weak,,,,,,,,0,3.087,,,,,,,,,,,,,,,,,,,,,,,,,,,,6,weak,-44,82,1,0,0,response7disk,4,59,-8,0,1,0,0,rectangle,-8,0,1,0,0,1,1,0.006,-8,0,1,0,0,0,58,58,33,1,0,,,,,,,,,,,,,,,,,,,,,
,,,,,,,,,,,,,,,,,,,,,,,,,,,,,,,,,,,,,,,,,,5bb18bbb70f8df0001bedd32,606a0fa34270f67cfdcbd93e,2021-04-04_12h36.05.614,Colour_Similarity_Experiment,2020.2.10,Win32,60,60675255c767bca6388caeee,21.21551724,17.4177665,17.01791531,17.21371611,17.54896676,17.4177665,,,,,,,,,,,,,,,,,,,,PF,3,strong,,,,,,,,7,1.74,,,,,,,,,,,,,,,,,,,,,,,,,,,,7,strong,47,76,1,0,0,response1disk,1,60,4,1,1,0,0,rectangle,4,1,1,0,0,1,4,0.004,4,1,1,0,0,0,59,59,132,1,0,,,,,,,,,,,,,,,,,,,,,
,,,,,,,,,,,,,,,,,,,,,,,,,,,,,,,,,,,,,,,,,,5bb18bbb70f8df0001bedd32,606a0fa34270f67cfdcbd93e,2021-04-04_12h36.05.614,Colour_Similarity_Experiment,2020.2.10,Win32,60,60675255c767bca6388caeee,21.21551724,17.4177665,17.01791531,17.21371611,17.54896676,17.4177665,,,,,,,,,,,,,,,,,,,,PF,3,weak,,,,,,,,7,2.033,,,,,,,,,,,,,,,,,,,,,,,,,,,,1,weak,59,86,1,0,0,response1disk,6,61,2,5,1,0,0,rectangle,2,5,1,0,0,1,5,0.004,2,5,1,0,0,0,60,60,144,1,0,,,,,,,,,,,,,,,,,,,,,
,,,,,,,,,,,,,,,,,,,,,,,,,,,,,,,,,,,,,,,,,,5bb18bbb70f8df0001bedd32,606a0fa34270f67cfdcbd93e,2021-04-04_12h36.05.614,Colour_Similarity_Experiment,2020.2.10,Win32,60,60675255c767bca6388caeee,21.21551724,17.4177665,17.01791531,17.21371611,17.54896676,17.4177665,,,,,,,,,,,,,,,,,,,,PF,3,strong,,,,,,,,4,2.97,,,,,,,,,,,,,,,,,,,,,,,,,,,,9,strong,35,-72,1,0,0,response3disk,8,62,-1,-2,1,0,0,rectangle,-1,-2,1,0,0,1,2,0.003,-1,-2,1,0,0,0,61,61,6,1,0,,,,,,,,,,,,,,,,,,,,,
,,,,,,,,,,,,,,,,,,,,,,,,,,,,,,,,,,,,,,,,,,5bb18bbb70f8df0001bedd32,606a0fa34270f67cfdcbd93e,2021-04-04_12h36.05.614,Colour_Similarity_Experiment,2020.2.10,Win32,60,60675255c767bca6388caeee,21.21551724,17.4177665,17.01791531,17.21371611,17.54896676,17.4177665,,,,,,,,,,,,,,,,,,,,PF,3,strong,,,,,,,,7,1.384,,,,,,,,,,,,,,,,,,,,,,,,,,,,2,strong,65,114,1,0,0,response1disk,2,63,6,5,1,0,0,rectangle,6,5,1,0,0,1,1,0.005,6,5,1,0,0,0,62,62,142,1,0,,,,,,,,,,,,,,,,,,,,,
,,,,,,,,,,,,,,,,,,,,,,,,,,,,,,,,,,,,,,,,,,5bb18bbb70f8df0001bedd32,606a0fa34270f67cfdcbd93e,2021-04-04_12h36.05.614,Colour_Similarity_Experiment,2020.2.10,Win32,60,60675255c767bca6388caeee,21.21551724,17.4177665,17.01791531,17.21371611,17.54896676,17.4177665,,,,,,,,,,,,,,,,,,,,PF,3,strong,,,,,,,,7,1.617,,,,,,,,,,,,,,,,,,,,,,,,,,,,5,strong,39,91,1,0,0,response1disk,5,64,5,2,1,0,0,rectangle,5,2,1,0,0,1,0,0.006,5,2,1,0,0,0,63,63,19,1,0,,,,,,,,,,,,,,,,,,,,,
,,,,,,,,,,,,,,,,,,,,,,,,,,,,,,,,,,,,,,,,,,5bb18bbb70f8df0001bedd32,606a0fa34270f67cfdcbd93e,2021-04-04_12h36.05.614,Colour_Similarity_Experiment,2020.2.10,Win32,60,60675255c767bca6388caeee,21.21551724,17.4177665,17.01791531,17.21371611,17.54896676,17.4177665,,,,,,,,,,,,,,,,,,,,PF,3,weak,,,,,,,,6,5.852,,,,,,,,,,,,,,,,,,,,,,,,,,,,2,weak,99,32,1,0,0,response1disk,3,65,11,-1,1,0,0,rectangle,11,-1,1,0,0,1,6,0.006,11,-1,1,0,0,0,64,64,69,1,0,,,,,,,,,,,,,,,,,,,,,
,,,,,,,,,,,,,,,,,,,,,,,,,,,,,,,,,,,,,,,,,,5bb18bbb70f8df0001bedd32,606a0fa34270f67cfdcbd93e,2021-04-04_12h36.05.614,Colour_Similarity_Experiment,2020.2.10,Win32,60,60675255c767bca6388caeee,21.21551724,17.4177665,17.01791531,17.21371611,17.54896676,17.4177665,,,,,,,,,,,,,,,,,,,,PF,3,strong,,,,,,,,5,3.02,,,,,,,,,,,,,,,,,,,,,,,,,,,,4,strong,87,-47,1,0,0,response3disk,7,66,1,-1,1,0,0,rectangle,1,-1,1,0,0,1,2,0.006,1,-1,1,0,0,0,65,65,87,1,0,,,,,,,,,,,,,,,,,,,,,
,,,,,,,,,,,,,,,,,,,,,,,,,,,,,,,,,,,,,,,,,,5bb18bbb70f8df0001bedd32,606a0fa34270f67cfdcbd93e,2021-04-04_12h36.05.614,Colour_Similarity_Experiment,2020.2.10,Win32,60,60675255c767bca6388caeee,21.21551724,17.4177665,17.01791531,17.21371611,17.54896676,17.4177665,,,,,,,,,,,,,,,,,,,,PF,3,weak,,,,,,,,0,1.123,,,,,,,,,,,,,,,,,,,,,,,,,,,,4,weak,-46,81,1,0,0,response7disk,7,67,-7,6,1,0,0,rectangle,-7,6,1,0,0,1,6,0.004,-7,6,1,0,0,0,66,66,38,1,0,,,,,,,,,,,,,,,,,,,,,
,,,,,,,,,,,,,,,,,,,,,,,,,,,,,,,,,,,,,,,,,,5bb18bbb70f8df0001bedd32,606a0fa34270f67cfdcbd93e,2021-04-04_12h36.05.614,Colour_Similarity_Experiment,2020.2.10,Win32,60,60675255c767bca6388caeee,21.21551724,17.4177665,17.01791531,17.21371611,17.54896676,17.4177665,,,,,,,,,,,,,,,,,,,,PF,3,strong,,,,,,,,7,1.667,,,,,,,,,,,,,,,,,,,,,,,,,,,,8,strong,36,96,1,0,0,response1disk,2,68,5,2,1,0,0,rectangle,5,2,1,0,0,1,0,0.005,5,2,1,0,0,0,67,67,22,1,0,,,,,,,,,,,,,,,,,,,,,
,,,,,,,,,,,,,,,,,,,,,,,,,,,,,,,,,,,,,,,,,,5bb18bbb70f8df0001bedd32,606a0fa34270f67cfdcbd93e,2021-04-04_12h36.05.614,Colour_Similarity_Experiment,2020.2.10,Win32,60,60675255c767bca6388caeee,21.21551724,17.4177665,17.01791531,17.21371611,17.54896676,17.4177665,,,,,,,,,,,,,,,,,,,,PF,3,weak,,,,,,,,0,1.278,,,,,,,,,,,,,,,,,,,,,,,,,,,,3,weak,-45,79,1,0,0,response7disk,2,69,2,11,1,0,0,rectangle,100,60,1,0,0,6,6,2.999,-2,-11,1,0,0,0,68,68,36,1,1,response1disk_3,rectangle,,,,,,,,,,,,,,,,,,,
,,,,,,,,,,,,,,,,,,,,,,,,,,,,,,,,,,,,,,,,,,5bb18bbb70f8df0001bedd32,606a0fa34270f67cfdcbd93e,2021-04-04_12h36.05.614,Colour_Similarity_Experiment,2020.2.10,Win32,60,60675255c767bca6388caeee,21.21551724,17.4177665,17.01791531,17.21371611,17.54896676,17.4177665,,,,,,,,,,,,,,,,,,,,PF,3,weak,,,,,,,,3,3.143,,,,,,,,,,,,,,,,,,,,,,,,,,,,4,weak,-55,-66,1,0,0,response5disk,3,70,5,-2,1,0,0,rectangle,5,-2,1,0,0,6,4,0.005,5,-2,1,0,0,0,69,69,89,1,0,,,,,,,,,,,,,,,,,,,,,
,,,,,,,,,,,,,,,,,,,,,,,,,,,,,,,,,,,,,,,,,,5bb18bbb70f8df0001bedd32,606a0fa34270f67cfdcbd93e,2021-04-04_12h36.05.614,Colour_Similarity_Experiment,2020.2.10,Win32,60,60675255c767bca6388caeee,21.21551724,17.4177665,17.01791531,17.21371611,17.54896676,17.4177665,,,,,,,,,,,,,,,,,,,,PF,3,weak,,,,,,,,0,1.267,,,,,,,,,,,,,,,,,,,,,,,,,,,,8,weak,-27,77,1,0,0,response7disk,3,71,0,-1,1,0,0,rectangle,0,-1,1,0,0,6,0,0.004,0,-1,1,0,0,0,70,70,71,1,0,,,,,,,,,,,,,,,,,,,,,
,,,,,,,,,,,,,,,,,,,,,,,,,,,,,,,,,,,,,,,,,,5bb18bbb70f8df0001bedd32,606a0fa34270f67cfdcbd93e,2021-04-04_12h36.05.614,Colour_Similarity_Experiment,2020.2.10,Win32,60,60675255c767bca6388caeee,21.21551724,17.4177665,17.01791531,17.21371611,17.54896676,17.4177665,,,,,,,,,,,,,,,,,,,,PF,3,weak,,,,,,,,3,4.469,,,,,,,,,,,,,,,,,,,,,,,,,,,,9,weak,-30,-62,1,0,0,response5disk,2,72,-6,8,1,0,0,rectangle,-6,8,1,0,0,6,2,0.003,-6,8,1,0,0,0,71,71,157,1,0,,,,,,,,,,,,,,,,,,,,,
,,,,,,,,,,,,,,,,,,,,,,,,,,,,,,,,,,,,,,,,,,5bb18bbb70f8df0001bedd32,606a0fa34270f67cfdcbd93e,2021-04-04_12h36.05.614,Colour_Similarity_Experiment,2020.2.10,Win32,60,60675255c767bca6388caeee,21.21551724,17.4177665,17.01791531,17.21371611,17.54896676,17.4177665,,,,,,,,,,,,,,,,,,,,PF,3,weak,,,,,,,,6,3.6,,,,,,,,,,,,,,,,,,,,,,,,,,,,6,weak,95,47,1,0,0,response1disk,7,73,0,-2,1,0,0,rectangle,0,-2,1,0,0,6,2,0.001,0,-2,1,0,0,0,72,72,50,1,0,,,,,,,,,,,,,,,,,,,,,
,,,,,,,,,,,,,,,,,,,,,,,,,,,,,,,,,,,,,,,,,,5bb18bbb70f8df0001bedd32,606a0fa34270f67cfdcbd93e,2021-04-04_12h36.05.614,Colour_Similarity_Experiment,2020.2.10,Win32,60,60675255c767bca6388caeee,21.21551724,17.4177665,17.01791531,17.21371611,17.54896676,17.4177665,,,,,,,,,,,,,,,,,,,,PF,3,weak,,,,,,,,6,2.716,,,,,,,,,,,,,,,,,,,,,,,,,,,,3,weak,81,51,1,0,0,response1disk,3,74,4,2,1,0,0,rectangle,4,2,1,0,0,6,0,0.005,4,2,1,0,0,0,73,73,4,1,0,,,,,,,,,,,,,,,,,,,,,
,,,,,,,,,,,,,,,,,,,,,,,,,,,,,,,,,,,,,,,,,,5bb18bbb70f8df0001bedd32,606a0fa34270f67cfdcbd93e,2021-04-04_12h36.05.614,Colour_Similarity_Experiment,2020.2.10,Win32,60,60675255c767bca6388caeee,21.21551724,17.4177665,17.01791531,17.21371611,17.54896676,17.4177665,,,,,,,,,,,,,,,,,,,,PF,3,weak,,,,,,,,0,1.996,,,,,,,,,,,,,,,,,,,,,,,,,,,,9,weak,-39,78,1,0,0,response7disk,3,75,12,4,1,0,0,rectangle,12,4,1,0,0,6,6,0.005,12,4,1,0,0,0,74,74,119,1,0,,,,,,,,,,,,,,,,,,,,,
,,,,,,,,,,,,,,,,,,,,,,,,,,,,,,,,,,,,,,,,,,5bb18bbb70f8df0001bedd32,606a0fa34270f67cfdcbd93e,2021-04-04_12h36.05.614,Colour_Similarity_Experiment,2020.2.10,Win32,60,60675255c767bca6388caeee,21.21551724,17.4177665,17.01791531,17.21371611,17.54896676,17.4177665,,,,,,,,,,,,,,,,,,,,PF,3,weak,,,,,,,,0,2.583,,,,,,,,,,,,,,,,,,,,,,,,,,,,2,weak,-33,73,1,0,0,response7disk,7,76,3,9,1,0,0,rectangle,3,9,1,0,0,6,1,0.003,3,9,1,0,0,0,75,75,107,1,0,,,,,,,,,,,,,,,,,,,,,
,,,,,,,,,,,,,,,,,,,,,,,,,,,,,,,,,,,,,,,,,,5bb18bbb70f8df0001bedd32,606a0fa34270f67cfdcbd93e,2021-04-04_12h36.05.614,Colour_Similarity_Experiment,2020.2.10,Win32,60,60675255c767bca6388caeee,21.21551724,17.4177665,17.01791531,17.21371611,17.54896676,17.4177665,,,,,,,,,,,,,,,,,,,,PF,3,strong,,,,,,,,5,2.918,,,,,,,,,,,,,,,,,,,,,,,,,,,,4,strong,91,-37,1,0,0,response3disk,4,77,9,-2,1,0,0,rectangle,9,-2,1,0,0,6,7,0.005,9,-2,1,0,0,0,76,76,84,1,0,,,,,,,,,,,,,,,,,,,,,
,,,,,,,,,,,,,,,,,,,,,,,,,,,,,,,,,,,,,,,,,,5bb18bbb70f8df0001bedd32,606a0fa34270f67cfdcbd93e,2021-04-04_12h36.05.614,Colour_Similarity_Experiment,2020.2.10,Win32,60,60675255c767bca6388caeee,21.21551724,17.4177665,17.01791531,17.21371611,17.54896676,17.4177665,,,,,,,,,,,,,,,,,,,,PF,3,weak,,,,,,,,7,1.485,,,,,,,,,,,,,,,,,,,,,,,,,,,,3,weak,46,78,1,0,0,response1disk,9,78,1,-4,1,0,0,rectangle,1,-4,1,0,0,6,0,0.004,1,-4,1,0,0,0,77,77,79,1,0,,,,,,,,,,,,,,,,,,,,,
,,,,,,,,,,,,,,,,,,,,,,,,,,,,,,,,,,,,,,,,,,5bb18bbb70f8df0001bedd32,606a0fa34270f67cfdcbd93e,2021-04-04_12h36.05.614,Colour_Similarity_Experiment,2020.2.10,Win32,60,60675255c767bca6388caeee,21.21551724,17.4177665,17.01791531,17.21371611,17.54896676,17.4177665,,,,,,,,,,,,,,,,,,,,PF,3,strong,,,,,,,,7,5.3,,,,,,,,,,,,,,,,,,,,,,,,,,,,6,strong,37,69,1,0,0,response1disk,4,79,-2,2,1,0,0,rectangle,-2,2,1,0,0,6,6,0.003,-2,2,1,0,0,0,78,78,56,1,0,,,,,,,,,,,,,,,,,,,,,
,,,,,,,,,,,,,,,,,,,,,,,,,,,,,,,,,,,,,,,,,,5bb18bbb70f8df0001bedd32,606a0fa34270f67cfdcbd93e,2021-04-04_12h36.05.614,Colour_Similarity_Experiment,2020.2.10,Win32,60,60675255c767bca6388caeee,21.21551724,17.4177665,17.01791531,17.21371611,17.54896676,17.4177665,,,,,,,,,,,,,,,,,,,,PF,3,strong,,,,,,,,3,1.62,,,,,,,,,,,,,,,,,,,,,,,,,,,,7,strong,-26,-73,1,0,0,response5disk,5,80,-3,2,1,0,0,rectangle,-3,2,1,0,0,6,3,0.002,-3,2,1,0,0,0,79,79,156,1,0,,,,,,,,,,,,,,,,,,,,,
,,,,,,,,,,,,,,,,,,,,,,,,,,,,,,,,,,,,,,,,,,5bb18bbb70f8df0001bedd32,606a0fa34270f67cfdcbd93e,2021-04-04_12h36.05.614,Colour_Similarity_Experiment,2020.2.10,Win32,60,60675255c767bca6388caeee,21.21551724,17.4177665,17.01791531,17.21371611,17.54896676,17.4177665,,,,,,,,,,,,,,,,,,,,PF,3,strong,,,,,,,,2,1.835,,,,,,,,,,,,,,,,,,,,,,,,,,,,3,strong,-82,-33,1,0,0,response5disk,6,81,-5,-4,1,0,0,rectangle,-5,-4,1,0,0,6,1,0.003,-5,-4,1,0,0,0,80,80,95,1,0,,,,,,,,,,,,,,,,,,,,,
,,,,,,,,,,,,,,,,,,,,,,,,,,,,,,,,,,,,,,,,,,5bb18bbb70f8df0001bedd32,606a0fa34270f67cfdcbd93e,2021-04-04_12h36.05.614,Colour_Similarity_Experiment,2020.2.10,Win32,60,60675255c767bca6388caeee,21.21551724,17.4177665,17.01791531,17.21371611,17.54896676,17.4177665,,,,,,,,,,,,,,,,,,,,PF,3,weak,,,,,,,,2,1.584,,,,,,,,,,,,,,,,,,,,,,,,,,,,8,weak,-68,-43,1,0,0,response5disk,4,82,18,-1,1,0,0,rectangle,18,-1,1,0,0,6,7,0.004,18,-1,1,0,0,0,81,81,78,1,0,,,,,,,,,,,,,,,,,,,,,
,,,,,,,,,,,,,,,,,,,,,,,,,,,,,,,,,,,,,,,,,,5bb18bbb70f8df0001bedd32,606a0fa34270f67cfdcbd93e,2021-04-04_12h36.05.614,Colour_Similarity_Experiment,2020.2.10,Win32,60,60675255c767bca6388caeee,21.21551724,17.4177665,17.01791531,17.21371611,17.54896676,17.4177665,,,,,,,,,,,,,,,,,,,,PF,3,weak,,,,,,,,3,2.104,,,,,,,,,,,,,,,,,,,,,,,,,,,,6,weak,-47,-70,1,0,0,response5disk,2,83,-3,-5,1,0,0,rectangle,-3,-5,1,0,0,6,6,0.005,-3,-5,1,0,0,0,82,82,130,1,0,,,,,,,,,,,,,,,,,,,,,
,,,,,,,,,,,,,,,,,,,,,,,,,,,,,,,,,,,,,,,,,,5bb18bbb70f8df0001bedd32,606a0fa34270f67cfdcbd93e,2021-04-04_12h36.05.614,Colour_Similarity_Experiment,2020.2.10,Win32,60,60675255c767bca6388caeee,21.21551724,17.4177665,17.01791531,17.21371611,17.54896676,17.4177665,,,,,,,,,,,,,,,,,,,,PF,3,strong,,,,,,,,3,1.521,,,,,,,,,,,,,,,,,,,,,,,,,,,,8,strong,-57,-79,1,0,0,response5disk,5,84,1,-7,1,0,0,rectangle,1,-7,1,0,0,6,6,0.001,1,-7,1,0,0,0,83,83,152,1,0,,,,,,,,,,,,,,,,,,,,,
,,,,,,,,,,,,,,,,,,,,,,,,,,,,,,,,,,,,,,,,,,5bb18bbb70f8df0001bedd32,606a0fa34270f67cfdcbd93e,2021-04-04_12h36.05.614,Colour_Similarity_Experiment,2020.2.10,Win32,60,60675255c767bca6388caeee,21.21551724,17.4177665,17.01791531,17.21371611,17.54896676,17.4177665,,,,,,,,,,,,,,,,,,,,PF,3,weak,,,,,,,,0,1.801,,,,,,,,,,,,,,,,,,,,,,,,,,,,2,weak,-42,100,1,0,0,response7disk,5,85,-6,3,1,0,0,rectangle,-6,3,1,0,0,6,5,0.006,-6,3,1,0,0,0,84,84,147,1,0,,,,,,,,,,,,,,,,,,,,,
,,,,,,,,,,,,,,,,,,,,,,,,,,,,,,,,,,,,,,,,,,5bb18bbb70f8df0001bedd32,606a0fa34270f67cfdcbd93e,2021-04-04_12h36.05.614,Colour_Similarity_Experiment,2020.2.10,Win32,60,60675255c767bca6388caeee,21.21551724,17.4177665,17.01791531,17.21371611,17.54896676,17.4177665,,,,,,,,,,,,,,,,,,,,PF,3,weak,,,,,,,,1,1.616,,,,,,,,,,,,,,,,,,,,,,,,,,,,4,weak,-90,39,1,0,0,response7disk,6,86,-17,-1,1,0,0,rectangle,-17,-1,1,0,0,6,5,0.001,-17,-1,1,0,0,0,85,85,120,1,0,,,,,,,,,,,,,,,,,,,,,
,,,,,,,,,,,,,,,,,,,,,,,,,,,,,,,,,,,,,,,,,,5bb18bbb70f8df0001bedd32,606a0fa34270f67cfdcbd93e,2021-04-04_12h36.05.614,Colour_Similarity_Experiment,2020.2.10,Win32,60,60675255c767bca6388caeee,21.21551724,17.4177665,17.01791531,17.21371611,17.54896676,17.4177665,,,,,,,,,,,,,,,,,,,,PF,3,strong,,,,,,,,3,2.54,,,,,,,,,,,,,,,,,,,,,,,,,,,,3,strong,-21,-82,1,0,0,response5disk,2,87,-4,-4,1,0,0,rectangle,-4,-4,1,0,0,6,4,0.005,-4,-4,1,0,0,0,86,86,93,1,0,,,,,,,,,,,,,,,,,,,,,
,,,,,,,,,,,,,,,,,,,,,,,,,,,,,,,,,,,,,,,,,,5bb18bbb70f8df0001bedd32,606a0fa34270f67cfdcbd93e,2021-04-04_12h36.05.614,Colour_Similarity_Experiment,2020.2.10,Win32,60,60675255c767bca6388caeee,21.21551724,17.4177665,17.01791531,17.21371611,17.54896676,17.4177665,,,,,,,,,,,,,,,,,,,,PF,3,weak,,,,,,,,7,1.966,,,,,,,,,,,,,,,,,,,,,,,,,,,,3,weak,44,77,1,0,0,response1disk,8,88,1,0,1,0,0,rectangle,1,0,1,0,0,6,0,0.004,1,0,1,0,0,0,87,87,3,1,0,,,,,,,,,,,,,,,,,,,,,
,,,,,,,,,,,,,,,,,,,,,,,,,,,,,,,,,,,,,,,,,,5bb18bbb70f8df0001bedd32,606a0fa34270f67cfdcbd93e,2021-04-04_12h36.05.614,Colour_Similarity_Experiment,2020.2.10,Win32,60,60675255c767bca6388caeee,21.21551724,17.4177665,17.01791531,17.21371611,17.54896676,17.4177665,,,,,,,,,,,,,,,,,,,,PF,3,weak,,,,,,,,7,1.509,,,,,,,,,,,,,,,,,,,,,,,,,,,,6,weak,43,81,1,0,0,response1disk,3,89,-1,-8,1,0,0,rectangle,-1,-8,1,0,0,6,6,0.005,-1,-8,1,0,0,0,88,88,26,1,0,,,,,,,,,,,,,,,,,,,,,
,,,,,,,,,,,,,,,,,,,,,,,,,,,,,,,,,,,,,,,,,,5bb18bbb70f8df0001bedd32,606a0fa34270f67cfdcbd93e,2021-04-04_12h36.05.614,Colour_Similarity_Experiment,2020.2.10,Win32,60,60675255c767bca6388caeee,21.21551724,17.4177665,17.01791531,17.21371611,17.54896676,17.4177665,,,,,,,,,,,,,,,,,,,,PF,3,weak,,,,,,,,3,1.506,,,,,,,,,,,,,,,,,,,,,,,,,,,,7,weak,-41,-99,1,0,0,response5disk,5,90,3,3,1,0,0,rectangle,3,3,1,0,0,6,0,0.006,3,3,1,0,0,0,89,89,92,1,0,,,,,,,,,,,,,,,,,,,,,
,,,,,,,,,,,,,,,,,,,,,,,,,,,,,,,,,,,,,,,,,,5bb18bbb70f8df0001bedd32,606a0fa34270f67cfdcbd93e,2021-04-04_12h36.05.614,Colour_Similarity_Experiment,2020.2.10,Win32,60,60675255c767bca6388caeee,21.21551724,17.4177665,17.01791531,17.21371611,17.54896676,17.4177665,,,,,,,,,,,,,,,,,,,,PF,3,weak,,,,,,,,6,6.184,,,,,,,,,,,,,,,,,,,,,,,,,,,,7,weak,99,50,1,0,0,response1disk,8,91,5,2,1,0,0,rectangle,5,2,1,0,0,6,4,0.003,5,2,1,0,0,0,90,90,140,1,0,,,,,,,,,,,,,,,,,,,,,
,,,,,,,,,,,,,,,,,,,,,,,,,,,,,,,,,,,,,,,,,,5bb18bbb70f8df0001bedd32,606a0fa34270f67cfdcbd93e,2021-04-04_12h36.05.614,Colour_Similarity_Experiment,2020.2.10,Win32,60,60675255c767bca6388caeee,21.21551724,17.4177665,17.01791531,17.21371611,17.54896676,17.4177665,,,,,,,,,,,,,,,,,,,,PF,3,strong,,,,,,,,7,1.302,,,,,,,,,,,,,,,,,,,,,,,,,,,,5,strong,44,81,1,0,0,response1disk,3,92,5,3,1,0,0,rectangle,5,3,1,0,0,6,4,0.001,5,3,1,0,0,0,91,91,25,1,0,,,,,,,,,,,,,,,,,,,,,
,,,,,,,,,,,,,,,,,,,,,,,,,,,,,,,,,,,,,,,,,,5bb18bbb70f8df0001bedd32,606a0fa34270f67cfdcbd93e,2021-04-04_12h36.05.614,Colour_Similarity_Experiment,2020.2.10,Win32,60,60675255c767bca6388caeee,21.21551724,17.4177665,17.01791531,17.21371611,17.54896676,17.4177665,,,,,,,,,,,,,,,,,,,,PF,3,weak,,,,,,,,3,2.234,,,,,,,,,,,,,,,,,,,,,,,,,,,,4,weak,-56,-72,1,0,0,response5disk,5,93,-2,8,1,0,0,rectangle,-2,8,1,0,0,6,1,0.004,-2,8,1,0,0,0,92,92,49,1,0,,,,,,,,,,,,,,,,,,,,,
,,,,,,,,,,,,,,,,,,,,,,,,,,,,,,,,,,,,,,,,,,5bb18bbb70f8df0001bedd32,606a0fa34270f67cfdcbd93e,2021-04-04_12h36.05.614,Colour_Similarity_Experiment,2020.2.10,Win32,60,60675255c767bca6388caeee,21.21551724,17.4177665,17.01791531,17.21371611,17.54896676,17.4177665,,,,,,,,,,,,,,,,,,,,PF,3,strong,,,,,,,,5,7.782,,,,,,,,,,,,,,,,,,,,,,,,,,,,1,strong,72,-45,1,0,0,response3disk,9,94,1,0,1,0,0,rectangle,1,0,1,0,0,6,3,0.003,1,0,1,0,0,0,93,93,123,1,0,,,,,,,,,,,,,,,,,,,,,
,,,,,,,,,,,,,,,,,,,,,,,,,,,,,,,,,,,,,,,,,,5bb18bbb70f8df0001bedd32,606a0fa34270f67cfdcbd93e,2021-04-04_12h36.05.614,Colour_Similarity_Experiment,2020.2.10,Win32,60,60675255c767bca6388caeee,21.21551724,17.4177665,17.01791531,17.21371611,17.54896676,17.4177665,,,,,,,,,,,,,,,,,,,,PF,3,strong,,,,,,,,7,1.436,,,,,,,,,,,,,,,,,,,,,,,,,,,,2,strong,53,95,1,0,0,response1disk,3,95,1,-6,1,0,0,rectangle,74,-37,1,0,0,5,5,2.666,-3,2,1,0,0,0,94,94,104,1,1,response3disk_3,rectangle,,,,,,,,,,,,,,,,,,,
,,,,,,,,,,,,,,,,,,,,,,,,,,,,,,,,,,,,,,,,,,5bb18bbb70f8df0001bedd32,606a0fa34270f67cfdcbd93e,2021-04-04_12h36.05.614,Colour_Similarity_Experiment,2020.2.10,Win32,60,60675255c767bca6388caeee,21.21551724,17.4177665,17.01791531,17.21371611,17.54896676,17.4177665,,,,,,,,,,,,,,,,,,,,PF,3,strong,,,,,,,,4,2.034,,,,,,,,,,,,,,,,,,,,,,,,,,,,4,strong,55,-79,1,0,0,response3disk,6,96,2,-6,1,0,0,rectangle,2,-6,1,0,0,5,4,0.005,2,-6,1,0,0,0,95,95,122,1,0,,,,,,,,,,,,,,,,,,,,,
,,,,,,,,,,,,,,,,,,,,,,,,,,,,,,,,,,,,,,,,,,5bb18bbb70f8df0001bedd32,606a0fa34270f67cfdcbd93e,2021-04-04_12h36.05.614,Colour_Similarity_Experiment,2020.2.10,Win32,60,60675255c767bca6388caeee,21.21551724,17.4177665,17.01791531,17.21371611,17.54896676,17.4177665,,,,,,,,,,,,,,,,,,,,PF,3,weak,,,,,,,,5,2.126,,,,,,,,,,,,,,,,,,,,,,,,,,,,6,weak,92,-34,1,0,0,response3disk,9,97,5,-7,1,0,0,rectangle,5,-7,1,0,0,5,6,0.004,5,-7,1,0,0,0,96,96,45,1,0,,,,,,,,,,,,,,,,,,,,,
,,,,,,,,,,,,,,,,,,,,,,,,,,,,,,,,,,,,,,,,,,5bb18bbb70f8df0001bedd32,606a0fa34270f67cfdcbd93e,2021-04-04_12h36.05.614,Colour_Similarity_Experiment,2020.2.10,Win32,60,60675255c767bca6388caeee,21.21551724,17.4177665,17.01791531,17.21371611,17.54896676,17.4177665,,,,,,,,,,,,,,,,,,,,PF,3,strong,,,,,,,,3,2.003,,,,,,,,,,,,,,,,,,,,,,,,,,,,2,strong,-55,-87,1,0,0,response5disk,1,98,-4,4,1,0,0,rectangle,-4,4,1,0,0,5,0,0.004,-4,4,1,0,0,0,97,97,85,1,0,,,,,,,,,,,,,,,,,,,,,
,,,,,,,,,,,,,,,,,,,,,,,,,,,,,,,,,,,,,,,,,,5bb18bbb70f8df0001bedd32,606a0fa34270f67cfdcbd93e,2021-04-04_12h36.05.614,Colour_Similarity_Experiment,2020.2.10,Win32,60,60675255c767bca6388caeee,21.21551724,17.4177665,17.01791531,17.21371611,17.54896676,17.4177665,,,,,,,,,,,,,,,,,,,,PF,3,strong,,,,,,,,7,1.488,,,,,,,,,,,,,,,,,,,,,,,,,,,,9,strong,48,73,1,0,0,response1disk,6,99,0,3,1,0,0,rectangle,0,3,1,0,0,5,4,0.003,0,3,1,0,0,0,98,98,117,1,0,,,,,,,,,,,,,,,,,,,,,
,,,,,,,,,,,,,,,,,,,,,,,,,,,,,,,,,,,,,,,,,,5bb18bbb70f8df0001bedd32,606a0fa34270f67cfdcbd93e,2021-04-04_12h36.05.614,Colour_Similarity_Experiment,2020.2.10,Win32,60,60675255c767bca6388caeee,21.21551724,17.4177665,17.01791531,17.21371611,17.54896676,17.4177665,,,,,,,,,,,,,,,,,,,,PF,3,strong,,,,,,,,4,1.5,,,,,,,,,,,,,,,,,,,,,,,,,,,,3,strong,31,-89,1,0,0,response3disk,9,100,-2,-2,1,0,0,rectangle,-2,-2,1,0,0,5,4,0.001,-2,-2,1,0,0,0,99,99,143,1,0,,,,,,,,,,,,,,,,,,,,,
,,,,,,,,,,,,,,,,,,,,,,,,,,,,,,,,,,,,,,,,,,5bb18bbb70f8df0001bedd32,606a0fa34270f67cfdcbd93e,2021-04-04_12h36.05.614,Colour_Similarity_Experiment,2020.2.10,Win32,60,60675255c767bca6388caeee,21.21551724,17.4177665,17.01791531,17.21371611,17.54896676,17.4177665,,,,,,,,,,,,,,,,,,,,PF,3,strong,,,,,,,,1,2.083,,,,,,,,,,,,,,,,,,,,,,,,,,,,7,strong,-94,53,1,0,0,response7disk,8,101,-2,-4,1,0,0,rectangle,20,70,1,0,0,7,7,1.866,0,8,1,0,0,0,100,100,97,1,1,response1disk_3,rectangle,,,,,,,,,,,,,,,,,,,
,,,,,,,,,,,,,,,,,,,,,,,,,,,,,,,,,,,,,,,,,,5bb18bbb70f8df0001bedd32,606a0fa34270f67cfdcbd93e,2021-04-04_12h36.05.614,Colour_Similarity_Experiment,2020.2.10,Win32,60,60675255c767bca6388caeee,21.21551724,17.4177665,17.01791531,17.21371611,17.54896676,17.4177665,,,,,,,,,,,,,,,,,,,,PF,3,weak,,,,,,,,7,1.503,,,,,,,,,,,,,,,,,,,,,,,,,,,,7,weak,40,87,1,0,0,response1disk,4,102,0,2,1,0,0,rectangle,0,2,1,0,0,7,5,0.006,0,2,1,0,0,0,101,101,43,1,0,,,,,,,,,,,,,,,,,,,,,
,,,,,,,,,,,,,,,,,,,,,,,,,,,,,,,,,,,,,,,,,,5bb18bbb70f8df0001bedd32,606a0fa34270f67cfdcbd93e,2021-04-04_12h36.05.614,Colour_Similarity_Experiment,2020.2.10,Win32,60,60675255c767bca6388caeee,21.21551724,17.4177665,17.01791531,17.21371611,17.54896676,17.4177665,,,,,,,,,,,,,,,,,,,,PF,3,strong,,,,,,,,4,1.748,,,,,,,,,,,,,,,,,,,,,,,,,,,,9,strong,36,-78,1,0,0,response3disk,7,103,-7,-9,1,0,0,rectangle,-7,-9,1,0,0,7,0,0.003,-7,-9,1,0,0,0,102,102,100,1,0,,,,,,,,,,,,,,,,,,,,,
,,,,,,,,,,,,,,,,,,,,,,,,,,,,,,,,,,,,,,,,,,5bb18bbb70f8df0001bedd32,606a0fa34270f67cfdcbd93e,2021-04-04_12h36.05.614,Colour_Similarity_Experiment,2020.2.10,Win32,60,60675255c767bca6388caeee,21.21551724,17.4177665,17.01791531,17.21371611,17.54896676,17.4177665,,,,,,,,,,,,,,,,,,,,PF,3,weak,,,,,,,,3,1.5,,,,,,,,,,,,,,,,,,,,,,,,,,,,2,weak,-55,-75,1,0,0,response5disk,6,104,-10,-4,1,0,0,rectangle,-10,-4,1,0,0,7,2,0.004,-10,-4,1,0,0,0,103,103,113,1,0,,,,,,,,,,,,,,,,,,,,,
,,,,,,,,,,,,,,,,,,,,,,,,,,,,,,,,,,,,,,,,,,5bb18bbb70f8df0001bedd32,606a0fa34270f67cfdcbd93e,2021-04-04_12h36.05.614,Colour_Similarity_Experiment,2020.2.10,Win32,60,60675255c767bca6388caeee,21.21551724,17.4177665,17.01791531,17.21371611,17.54896676,17.4177665,,,,,,,,,,,,,,,,,,,,PF,3,strong,,,,,,,,6,1.607,,,,,,,,,,,,,,,,,,,,,,,,,,,,6,strong,86,35,1,0,0,response1disk,9,105,6,-2,1,0,0,rectangle,66,-25,1,0,0,5,5,2.049,1,3,1,0,0,0,104,104,160,1,1,response3disk_3,rectangle,,,,,,,,,,,,,,,,,,,
,,,,,,,,,,,,,,,,,,,,,,,,,,,,,,,,,,,,,,,,,,5bb18bbb70f8df0001bedd32,606a0fa34270f67cfdcbd93e,2021-04-04_12h36.05.614,Colour_Similarity_Experiment,2020.2.10,Win32,60,60675255c767bca6388caeee,21.21551724,17.4177665,17.01791531,17.21371611,17.54896676,17.4177665,,,,,,,,,,,,,,,,,,,,PF,3,weak,,,,,,,,3,2.016,,,,,,,,,,,,,,,,,,,,,,,,,,,,9,weak,-31,-76,1,0,0,response5disk,1,106,6,3,1,0,0,rectangle,6,3,1,0,0,5,5,0.001,6,3,1,0,0,0,105,105,74,1,0,,,,,,,,,,,,,,,,,,,,,
,,,,,,,,,,,,,,,,,,,,,,,,,,,,,,,,,,,,,,,,,,5bb18bbb70f8df0001bedd32,606a0fa34270f67cfdcbd93e,2021-04-04_12h36.05.614,Colour_Similarity_Experiment,2020.2.10,Win32,60,60675255c767bca6388caeee,21.21551724,17.4177665,17.01791531,17.21371611,17.54896676,17.4177665,,,,,,,,,,,,,,,,,,,,PF,3,weak,,,,,,,,3,1.624,,,,,,,,,,,,,,,,,,,,,,,,,,,,7,weak,-39,-70,1,0,0,response5disk,9,107,-1,9,1,0,0,rectangle,-1,9,1,0,0,5,0,0.005,-1,9,1,0,0,0,106,106,10,1,0,,,,,,,,,,,,,,,,,,,,,
,,,,,,,,,,,,,,,,,,,,,,,,,,,,,,,,,,,,,,,,,,5bb18bbb70f8df0001bedd32,606a0fa34270f67cfdcbd93e,2021-04-04_12h36.05.614,Colour_Similarity_Experiment,2020.2.10,Win32,60,60675255c767bca6388caeee,21.21551724,17.4177665,17.01791531,17.21371611,17.54896676,17.4177665,,,,,,,,,,,,,,,,,,,,PF,3,weak,,,,,,,,0,1.204,,,,,,,,,,,,,,,,,,,,,,,,,,,,9,weak,-40,89,1,0,0,response7disk,9,108,2,7,1,0,0,rectangle,2,7,1,0,0,5,2,0.002,2,7,1,0,0,0,107,107,106,1,0,,,,,,,,,,,,,,,,,,,,,
,,,,,,,,,,,,,,,,,,,,,,,,,,,,,,,,,,,,,,,,,,5bb18bbb70f8df0001bedd32,606a0fa34270f67cfdcbd93e,2021-04-04_12h36.05.614,Colour_Similarity_Experiment,2020.2.10,Win32,60,60675255c767bca6388caeee,21.21551724,17.4177665,17.01791531,17.21371611,17.54896676,17.4177665,,,,,,,,,,,,,,,,,,,,PF,3,weak,,,,,,,,4,2.455,,,,,,,,,,,,,,,,,,,,,,,,,,,,9,weak,40,-70,1,0,0,response3disk,7,109,-3,-8,1,0,0,rectangle,-3,-8,1,0,0,5,1,0.004,-3,-8,1,0,0,0,108,108,121,1,0,,,,,,,,,,,,,,,,,,,,,
,,,,,,,,,,,,,,,,,,,,,,,,,,,,,,,,,,,,,,,,,,5bb18bbb70f8df0001bedd32,606a0fa34270f67cfdcbd93e,2021-04-04_12h36.05.614,Colour_Similarity_Experiment,2020.2.10,Win32,60,60675255c767bca6388caeee,21.21551724,17.4177665,17.01791531,17.21371611,17.54896676,17.4177665,,,,,,,,,,,,,,,,,,,,PF,3,strong,,,,,,,,0,1.319,,,,,,,,,,,,,,,,,,,,,,,,,,,,5,strong,-46,98,1,0,0,response7disk,7,110,-1,-1,1,0,0,rectangle,-1,-1,1,0,0,5,2,0.005,-1,-1,1,0,0,0,109,109,7,1,0,,,,,,,,,,,,,,,,,,,,,
,,,,,,,,,,,,,,,,,,,,,,,,,,,,,,,,,,,,,,,,,,5bb18bbb70f8df0001bedd32,606a0fa34270f67cfdcbd93e,2021-04-04_12h36.05.614,Colour_Similarity_Experiment,2020.2.10,Win32,60,60675255c767bca6388caeee,21.21551724,17.4177665,17.01791531,17.21371611,17.54896676,17.4177665,,,,,,,,,,,,,,,,,,,,PF,3,weak,,,,,,,,0,1.055,,,,,,,,,,,,,,,,,,,,,,,,,,,,3,weak,-44,92,1,0,0,response7disk,7,111,-4,-2,1,0,0,rectangle,-4,-2,1,0,0,5,7,0.003,-4,-2,1,0,0,0,110,110,41,1,0,,,,,,,,,,,,,,,,,,,,,
,,,,,,,,,,,,,,,,,,,,,,,,,,,,,,,,,,,,,,,,,,5bb18bbb70f8df0001bedd32,606a0fa34270f67cfdcbd93e,2021-04-04_12h36.05.614,Colour_Similarity_Experiment,2020.2.10,Win32,60,60675255c767bca6388caeee,21.21551724,17.4177665,17.01791531,17.21371611,17.54896676,17.4177665,,,,,,,,,,,,,,,,,,,,PF,3,strong,,,,,,,,5,1.869,,,,,,,,,,,,,,,,,,,,,,,,,,,,1,strong,76,-60,0,0,1,response3disk,4,112,-14,10,1,0,0,rectangle,-14,10,1,0,0,5,2,0.003,-14,10,1,0,0,0,111,111,135,1,0,,,,,,,,,,,,,,,,,,,,,
,,,,,,,,,,,,,,,,,,,,,,,,,,,,,,,,,,,,,,,,,,5bb18bbb70f8df0001bedd32,606a0fa34270f67cfdcbd93e,2021-04-04_12h36.05.614,Colour_Similarity_Experiment,2020.2.10,Win32,60,60675255c767bca6388caeee,21.21551724,17.4177665,17.01791531,17.21371611,17.54896676,17.4177665,,,,,,,,,,,,,,,,,,,,PF,3,strong,,,,,,,,5,1.219,,,,,,,,,,,,,,,,,,,,,,,,,,,,3,strong,89,-26,1,0,0,response3disk,7,113,3,7,1,0,0,rectangle,3,7,1,0,0,5,6,0.007,3,7,1,0,0,0,112,112,118,1,0,,,,,,,,,,,,,,,,,,,,,
,,,,,,,,,,,,,,,,,,,,,,,,,,,,,,,,,,,,,,,,,,5bb18bbb70f8df0001bedd32,606a0fa34270f67cfdcbd93e,2021-04-04_12h36.05.614,Colour_Similarity_Experiment,2020.2.10,Win32,60,60675255c767bca6388caeee,21.21551724,17.4177665,17.01791531,17.21371611,17.54896676,17.4177665,,,,,,,,,,,,,,,,,,,,PF,3,strong,,,,,,,,4,2.341,,,,,,,,,,,,,,,,,,,,,,,,,,,,1,strong,50,-77,1,0,0,response3disk,8,114,-13,-4,1,0,0,rectangle,-13,-4,1,0,0,5,5,0.005,-13,-4,1,0,0,0,113,113,27,1,0,,,,,,,,,,,,,,,,,,,,,
,,,,,,,,,,,,,,,,,,,,,,,,,,,,,,,,,,,,,,,,,,5bb18bbb70f8df0001bedd32,606a0fa34270f67cfdcbd93e,2021-04-04_12h36.05.614,Colour_Similarity_Experiment,2020.2.10,Win32,60,60675255c767bca6388caeee,21.21551724,17.4177665,17.01791531,17.21371611,17.54896676,17.4177665,,,,,,,,,,,,,,,,,,,,PF,3,weak,,,,,,,,4,1.326,,,,,,,,,,,,,,,,,,,,,,,,,,,,8,weak,43,-86,1,0,0,response3disk,6,115,2,-1,1,0,0,rectangle,-34,79,1,0,0,0,0,2.299,15,-6,1,0,0,0,114,114,161,1,1,response7disk_3,rectangle,,,,,,,,,,,,,,,,,,,
,,,,,,,,,,,,,,,,,,,,,,,,,,,,,,,,,,,,,,,,,,5bb18bbb70f8df0001bedd32,606a0fa34270f67cfdcbd93e,2021-04-04_12h36.05.614,Colour_Similarity_Experiment,2020.2.10,Win32,60,60675255c767bca6388caeee,21.21551724,17.4177665,17.01791531,17.21371611,17.54896676,17.4177665,,,,,,,,,,,,,,,,,,,,PF,3,strong,,,,,,,,1,3.868,,,,,,,,,,,,,,,,,,,,,,,,,,,,1,strong,-91,37,1,0,0,response7disk,6,116,3,-1,1,0,0,rectangle,3,-1,1,0,0,0,5,0.007,3,-1,1,0,0,0,115,115,58,1,0,,,,,,,,,,,,,,,,,,,,,
,,,,,,,,,,,,,,,,,,,,,,,,,,,,,,,,,,,,,,,,,,5bb18bbb70f8df0001bedd32,606a0fa34270f67cfdcbd93e,2021-04-04_12h36.05.614,Colour_Similarity_Experiment,2020.2.10,Win32,60,60675255c767bca6388caeee,21.21551724,17.4177665,17.01791531,17.21371611,17.54896676,17.4177665,,,,,,,,,,,,,,,,,,,,PF,3,strong,,,,,,,,7,2.587,,,,,,,,,,,,,,,,,,,,,,,,,,,,9,strong,68,89,1,0,0,response1disk,2,117,0,0,1,0,0,rectangle,32,85,1,0,0,7,7,1.599,-6,-7,1,0,0,0,116,116,11,1,1,response1disk_3,rectangle,,,,,,,,,,,,,,,,,,,
,,,,,,,,,,,,,,,,,,,,,,,,,,,,,,,,,,,,,,,,,,5bb18bbb70f8df0001bedd32,606a0fa34270f67cfdcbd93e,2021-04-04_12h36.05.614,Colour_Similarity_Experiment,2020.2.10,Win32,60,60675255c767bca6388caeee,21.21551724,17.4177665,17.01791531,17.21371611,17.54896676,17.4177665,,,,,,,,,,,,,,,,,,,,PF,3,strong,,,,,,,,3,1.958,,,,,,,,,,,,,,,,,,,,,,,,,,,,5,strong,-25,-54,1,0,0,response5disk,1,118,8,3,1,0,0,rectangle,8,3,1,0,0,7,7,0.001,8,3,1,0,0,0,117,117,131,1,0,,,,,,,,,,,,,,,,,,,,,
,,,,,,,,,,,,,,,,,,,,,,,,,,,,,,,,,,,,,,,,,,5bb18bbb70f8df0001bedd32,606a0fa34270f67cfdcbd93e,2021-04-04_12h36.05.614,Colour_Similarity_Experiment,2020.2.10,Win32,60,60675255c767bca6388caeee,21.21551724,17.4177665,17.01791531,17.21371611,17.54896676,17.4177665,,,,,,,,,,,,,,,,,,,,PF,3,weak,,,,,,,,3,1.952,,,,,,,,,,,,,,,,,,,,,,,,,,,,4,weak,-38,-61,1,0,0,response5disk,9,119,4,-7,1,0,0,rectangle,4,-7,1,0,0,7,0,0.004,4,-7,1,0,0,0,118,118,75,1,0,,,,,,,,,,,,,,,,,,,,,
,,,,,,,,,,,,,,,,,,,,,,,,,,,,,,,,,,,,,,,,,,5bb18bbb70f8df0001bedd32,606a0fa34270f67cfdcbd93e,2021-04-04_12h36.05.614,Colour_Similarity_Experiment,2020.2.10,Win32,60,60675255c767bca6388caeee,21.21551724,17.4177665,17.01791531,17.21371611,17.54896676,17.4177665,,,,,,,,,,,,,,,,,,,,PF,3,strong,,,,,,,,0,1.073,,,,,,,,,,,,,,,,,,,,,,,,,,,,4,strong,-29,71,1,0,0,response7disk,9,120,3,5,1,0,0,rectangle,3,5,1,0,0,7,5,0.002,3,5,1,0,0,0,119,119,90,1,0,,,,,,,,,,,,,,,,,,,,,
,,,,,,,,,,,,,,,,,,,,,,,,,,,,,,,,,,,,,,,,,,5bb18bbb70f8df0001bedd32,606a0fa34270f67cfdcbd93e,2021-04-04_12h36.05.614,Colour_Similarity_Experiment,2020.2.10,Win32,60,60675255c767bca6388caeee,21.21551724,17.4177665,17.01791531,17.21371611,17.54896676,17.4177665,,,,,,,,,,,,,,,,,,,,PF,3,weak,,,,,,,,7,1.435,,,,,,,,,,,,,,,,,,,,,,,,,,,,5,weak,39,79,1,0,0,response1disk,2,121,-1,-5,1,0,0,rectangle,-1,-5,1,0,0,7,7,0.003,-1,-5,1,0,0,0,120,120,129,1,0,,,,,,,,,,,,,,,,,,,,,
,,,,,,,,,,,,,,,,,,,,,,,,,,,,,,,,,,,,,,,,,,5bb18bbb70f8df0001bedd32,606a0fa34270f67cfdcbd93e,2021-04-04_12h36.05.614,Colour_Similarity_Experiment,2020.2.10,Win32,60,60675255c767bca6388caeee,21.21551724,17.4177665,17.01791531,17.21371611,17.54896676,17.4177665,,,,,,,,,,,,,,,,,,,,PF,3,strong,,,,,,,,7,1.684,,,,,,,,,,,,,,,,,,,,,,,,,,,,9,strong,61,89,1,0,0,response1disk,5,122,5,5,1,0,0,rectangle,5,5,1,0,0,7,5,0.005,5,5,1,0,0,0,121,121,128,1,0,,,,,,,,,,,,,,,,,,,,,
,,,,,,,,,,,,,,,,,,,,,,,,,,,,,,,,,,,,,,,,,,5bb18bbb70f8df0001bedd32,606a0fa34270f67cfdcbd93e,2021-04-04_12h36.05.614,Colour_Similarity_Experiment,2020.2.10,Win32,60,60675255c767bca6388caeee,21.21551724,17.4177665,17.01791531,17.21371611,17.54896676,17.4177665,,,,,,,,,,,,,,,,,,,,PF,3,weak,,,,,,,,5,2.954,,,,,,,,,,,,,,,,,,,,,,,,,,,,8,weak,75,-58,1,0,0,response3disk,9,123,3,3,1,0,0,rectangle,3,3,1,0,0,7,1,0.004,3,3,1,0,0,0,122,122,42,1,0,,,,,,,,,,,,,,,,,,,,,
,,,,,,,,,,,,,,,,,,,,,,,,,,,,,,,,,,,,,,,,,,5bb18bbb70f8df0001bedd32,606a0fa34270f67cfdcbd93e,2021-04-04_12h36.05.614,Colour_Similarity_Experiment,2020.2.10,Win32,60,60675255c767bca6388caeee,21.21551724,17.4177665,17.01791531,17.21371611,17.54896676,17.4177665,,,,,,,,,,,,,,,,,,,,PF,3,weak,,,,,,,,1,2.454,,,,,,,,,,,,,,,,,,,,,,,,,,,,5,weak,-83,39,1,0,0,response7disk,8,124,7,0,1,0,0,rectangle,7,0,1,0,0,7,5,0.006,7,0,1,0,0,0,123,123,149,1,0,,,,,,,,,,,,,,,,,,,,,
,,,,,,,,,,,,,,,,,,,,,,,,,,,,,,,,,,,,,,,,,,5bb18bbb70f8df0001bedd32,606a0fa34270f67cfdcbd93e,2021-04-04_12h36.05.614,Colour_Similarity_Experiment,2020.2.10,Win32,60,60675255c767bca6388caeee,21.21551724,17.4177665,17.01791531,17.21371611,17.54896676,17.4177665,,,,,,,,,,,,,,,,,,,,PF,3,strong,,,,,,,,7,1.351,,,,,,,,,,,,,,,,,,,,,,,,,,,,2,strong,49,96,1,0,0,response1disk,4,125,8,1,1,0,0,rectangle,8,1,1,0,0,7,1,0.005,8,1,1,0,0,0,124,124,145,1,0,,,,,,,,,,,,,,,,,,,,,
,,,,,,,,,,,,,,,,,,,,,,,,,,,,,,,,,,,,,,,,,,5bb18bbb70f8df0001bedd32,606a0fa34270f67cfdcbd93e,2021-04-04_12h36.05.614,Colour_Similarity_Experiment,2020.2.10,Win32,60,60675255c767bca6388caeee,21.21551724,17.4177665,17.01791531,17.21371611,17.54896676,17.4177665,,,,,,,,,,,,,,,,,,,,PF,3,weak,,,,,,,,7,1.552,,,,,,,,,,,,,,,,,,,,,,,,,,,,7,weak,38,65,1,0,0,response1disk,1,126,7,7,1,0,0,rectangle,7,7,1,0,0,7,3,0.002,7,7,1,0,0,0,125,125,53,1,0,,,,,,,,,,,,,,,,,,,,,
,,,,,,,,,,,,,,,,,,,,,,,,,,,,,,,,,,,,,,,,,,5bb18bbb70f8df0001bedd32,606a0fa34270f67cfdcbd93e,2021-04-04_12h36.05.614,Colour_Similarity_Experiment,2020.2.10,Win32,60,60675255c767bca6388caeee,21.21551724,17.4177665,17.01791531,17.21371611,17.54896676,17.4177665,,,,,,,,,,,,,,,,,,,,PF,3,weak,,,,,,,,3,1.429,,,,,,,,,,,,,,,,,,,,,,,,,,,,1,weak,-30,-66,1,0,0,response5disk,2,127,-1,8,1,0,0,rectangle,-1,8,1,0,0,7,1,0.003,-1,8,1,0,0,0,126,126,24,1,0,,,,,,,,,,,,,,,,,,,,,
,,,,,,,,,,,,,,,,,,,,,,,,,,,,,,,,,,,,,,,,,,5bb18bbb70f8df0001bedd32,606a0fa34270f67cfdcbd93e,2021-04-04_12h36.05.614,Colour_Similarity_Experiment,2020.2.10,Win32,60,60675255c767bca6388caeee,21.21551724,17.4177665,17.01791531,17.21371611,17.54896676,17.4177665,,,,,,,,,,,,,,,,,,,,PF,3,strong,,,,,,,,3,3.42,,,,,,,,,,,,,,,,,,,,,,,,,,,,7,strong,-31,-80,1,0,0,response5disk,3,128,1,-1,1,0,0,rectangle,1,-1,1,0,0,7,6,0.004,1,-1,1,0,0,0,127,127,73,1,0,,,,,,,,,,,,,,,,,,,,,
,,,,,,,,,,,,,,,,,,,,,,,,,,,,,,,,,,,,,,,,,,5bb18bbb70f8df0001bedd32,606a0fa34270f67cfdcbd93e,2021-04-04_12h36.05.614,Colour_Similarity_Experiment,2020.2.10,Win32,60,60675255c767bca6388caeee,21.21551724,17.4177665,17.01791531,17.21371611,17.54896676,17.4177665,,,,,,,,,,,,,,,,,,,,PF,3,weak,,,,,,,,0,1.199,,,,,,,,,,,,,,,,,,,,,,,,,,,,1,weak,-32,62,1,0,0,response7disk,3,129,-6,1,1,0,0,rectangle,-6,1,1,0,0,7,7,0.005,-6,1,1,0,0,0,128,128,1,1,0,,,,,,,,,,,,,,,,,,,,,
,,,,,,,,,,,,,,,,,,,,,,,,,,,,,,,,,,,,,,,,,,5bb18bbb70f8df0001bedd32,606a0fa34270f67cfdcbd93e,2021-04-04_12h36.05.614,Colour_Similarity_Experiment,2020.2.10,Win32,60,60675255c767bca6388caeee,21.21551724,17.4177665,17.01791531,17.21371611,17.54896676,17.4177665,,,,,,,,,,,,,,,,,,,,PF,3,weak,,,,,,,,1,1.924,,,,,,,,,,,,,,,,,,,,,,,,,,,,5,weak,-94,51,1,0,0,response7disk,4,130,0,1,1,0,0,rectangle,0,1,1,0,0,7,4,0.005,0,1,1,0,0,0,129,129,54,1,0,,,,,,,,,,,,,,,,,,,,,
,,,,,,,,,,,,,,,,,,,,,,,,,,,,,,,,,,,,,,,,,,5bb18bbb70f8df0001bedd32,606a0fa34270f67cfdcbd93e,2021-04-04_12h36.05.614,Colour_Similarity_Experiment,2020.2.10,Win32,60,60675255c767bca6388caeee,21.21551724,17.4177665,17.01791531,17.21371611,17.54896676,17.4177665,,,,,,,,,,,,,,,,,,,,PF,3,weak,,,,,,,,7,1.555,,,,,,,,,,,,,,,,,,,,,,,,,,,,3,weak,47,73,1,0,0,response1disk,1,131,-1,1,1,0,0,rectangle,-1,1,1,0,0,7,1,0.006,-1,1,1,0,0,0,130,130,96,1,0,,,,,,,,,,,,,,,,,,,,,
,,,,,,,,,,,,,,,,,,,,,,,,,,,,,,,,,,,,,,,,,,5bb18bbb70f8df0001bedd32,606a0fa34270f67cfdcbd93e,2021-04-04_12h36.05.614,Colour_Similarity_Experiment,2020.2.10,Win32,60,60675255c767bca6388caeee,21.21551724,17.4177665,17.01791531,17.21371611,17.54896676,17.4177665,,,,,,,,,,,,,,,,,,,,PF,3,weak,,,,,,,,7,1.904,,,,,,,,,,,,,,,,,,,,,,,,,,,,4,weak,41,70,1,0,0,response1disk,4,132,-2,-1,1,0,0,rectangle,-2,-1,1,0,0,7,5,0.004,-2,-1,1,0,0,0,131,131,70,1,0,,,,,,,,,,,,,,,,,,,,,
,,,,,,,,,,,,,,,,,,,,,,,,,,,,,,,,,,,,,,,,,,5bb18bbb70f8df0001bedd32,606a0fa34270f67cfdcbd93e,2021-04-04_12h36.05.614,Colour_Similarity_Experiment,2020.2.10,Win32,60,60675255c767bca6388caeee,21.21551724,17.4177665,17.01791531,17.21371611,17.54896676,17.4177665,,,,,,,,,,,,,,,,,,,,PF,3,weak,,,,,,,,4,3.588,,,,,,,,,,,,,,,,,,,,,,,,,,,,8,weak,20,-78,1,0,0,response3disk,7,133,-6,-5,1,0,0,rectangle,-6,-5,1,0,0,7,6,0.005,-6,-5,1,0,0,0,132,132,23,1,0,,,,,,,,,,,,,,,,,,,,,
,,,,,,,,,,,,,,,,,,,,,,,,,,,,,,,,,,,,,,,,,,5bb18bbb70f8df0001bedd32,606a0fa34270f67cfdcbd93e,2021-04-04_12h36.05.614,Colour_Similarity_Experiment,2020.2.10,Win32,60,60675255c767bca6388caeee,21.21551724,17.4177665,17.01791531,17.21371611,17.54896676,17.4177665,,,,,,,,,,,,,,,,,,,,PF,3,strong,,,,,,,,4,1.384,,,,,,,,,,,,,,,,,,,,,,,,,,,,9,strong,35,-69,1,0,0,response3disk,3,134,-5,-3,1,0,0,rectangle,-5,-3,1,0,0,7,4,0.005,-5,-3,1,0,0,0,133,133,141,1,0,,,,,,,,,,,,,,,,,,,,,
,,,,,,,,,,,,,,,,,,,,,,,,,,,,,,,,,,,,,,,,,,5bb18bbb70f8df0001bedd32,606a0fa34270f67cfdcbd93e,2021-04-04_12h36.05.614,Colour_Similarity_Experiment,2020.2.10,Win32,60,60675255c767bca6388caeee,21.21551724,17.4177665,17.01791531,17.21371611,17.54896676,17.4177665,,,,,,,,,,,,,,,,,,,,PF,3,strong,,,,,,,,6,3.288,,,,,,,,,,,,,,,,,,,,,,,,,,,,3,strong,85,58,1,0,0,response1disk,8,135,-6,-3,1,0,0,rectangle,-6,-3,1,0,0,7,1,0.004,-6,-3,1,0,0,0,134,134,44,1,0,,,,,,,,,,,,,,,,,,,,,
,,,,,,,,,,,,,,,,,,,,,,,,,,,,,,,,,,,,,,,,,,5bb18bbb70f8df0001bedd32,606a0fa34270f67cfdcbd93e,2021-04-04_12h36.05.614,Colour_Similarity_Experiment,2020.2.10,Win32,60,60675255c767bca6388caeee,21.21551724,17.4177665,17.01791531,17.21371611,17.54896676,17.4177665,,,,,,,,,,,,,,,,,,,,PF,3,weak,,,,,,,,5,2.152,,,,,,,,,,,,,,,,,,,,,,,,,,,,1,weak,81,-43,1,0,0,response3disk,5,136,1,1,1,0,0,rectangle,1,1,1,0,0,7,4,0.004,1,1,1,0,0,0,135,135,28,1,0,,,,,,,,,,,,,,,,,,,,,
,,,,,,,,,,,,,,,,,,,,,,,,,,,,,,,,,,,,,,,,,,5bb18bbb70f8df0001bedd32,606a0fa34270f67cfdcbd93e,2021-04-04_12h36.05.614,Colour_Similarity_Experiment,2020.2.10,Win32,60,60675255c767bca6388caeee,21.21551724,17.4177665,17.01791531,17.21371611,17.54896676,17.4177665,,,,,,,,,,,,,,,,,,,,PF,3,weak,,,,,,,,7,1.971,,,,,,,,,,,,,,,,,,,,,,,,,,,,6,weak,54,84,1,0,0,response1disk,1,137,6,-4,1,0,0,rectangle,6,-4,1,0,0,7,6,0.005,6,-4,1,0,0,0,136,136,46,1,0,,,,,,,,,,,,,,,,,,,,,
,,,,,,,,,,,,,,,,,,,,,,,,,,,,,,,,,,,,,,,,,,5bb18bbb70f8df0001bedd32,606a0fa34270f67cfdcbd93e,2021-04-04_12h36.05.614,Colour_Similarity_Experiment,2020.2.10,Win32,60,60675255c767bca6388caeee,21.21551724,17.4177665,17.01791531,17.21371611,17.54896676,17.4177665,,,,,,,,,,,,,,,,,,,,PF,3,strong,,,,,,,,3,2.569,,,,,,,,,,,,,,,,,,,,,,,,,,,,7,strong,-31,-81,1,0,0,response5disk,9,138,11,4,1,0,0,rectangle,11,4,1,0,0,7,5,0.003,11,4,1,0,0,0,137,137,155,1,0,,,,,,,,,,,,,,,,,,,,,
,,,,,,,,,,,,,,,,,,,,,,,,,,,,,,,,,,,,,,,,,,5bb18bbb70f8df0001bedd32,606a0fa34270f67cfdcbd93e,2021-04-04_12h36.05.614,Colour_Similarity_Experiment,2020.2.10,Win32,60,60675255c767bca6388caeee,21.21551724,17.4177665,17.01791531,17.21371611,17.54896676,17.4177665,,,,,,,,,,,,,,,,,,,,PF,3,weak,,,,,,,,7,1.792,,,,,,,,,,,,,,,,,,,,,,,,,,,,2,weak,51,59,1,0,0,response1disk,4,139,14,4,1,0,0,rectangle,14,4,1,0,0,7,0,0.005,14,4,1,0,0,0,138,138,127,1,0,,,,,,,,,,,,,,,,,,,,,
,,,,,,,,,,,,,,,,,,,,,,,,,,,,,,,,,,,,,,,,,,5bb18bbb70f8df0001bedd32,606a0fa34270f67cfdcbd93e,2021-04-04_12h36.05.614,Colour_Similarity_Experiment,2020.2.10,Win32,60,60675255c767bca6388caeee,21.21551724,17.4177665,17.01791531,17.21371611,17.54896676,17.4177665,,,,,,,,,,,,,,,,,,,,PF,3,weak,,,,,,,,7,1.221,,,,,,,,,,,,,,,,,,,,,,,,,,,,1,weak,54,87,1,0,0,response1disk,1,140,12,5,1,0,0,rectangle,-86,46,1,0,0,1,1,1.776,15,-4,1,0,0,0,139,139,76,1,1,response7disk_3,rectangle,,,,,,,,,,,,,,,,,,,
,,,,,,,,,,,,,,,,,,,,,,,,,,,,,,,,,,,,,,,,,,5bb18bbb70f8df0001bedd32,606a0fa34270f67cfdcbd93e,2021-04-04_12h36.05.614,Colour_Similarity_Experiment,2020.2.10,Win32,60,60675255c767bca6388caeee,21.21551724,17.4177665,17.01791531,17.21371611,17.54896676,17.4177665,,,,,,,,,,,,,,,,,,,,PF,3,weak,,,,,,,,4,2.372,,,,,,,,,,,,,,,,,,,,,,,,,,,,4,weak,32,-56,1,0,0,response3disk,2,141,5,9,1,0,0,rectangle,5,9,1,0,0,1,7,0.005,5,9,1,0,0,0,140,140,108,1,0,,,,,,,,,,,,,,,,,,,,,
,,,,,,,,,,,,,,,,,,,,,,,,,,,,,,,,,,,,,,,,,,5bb18bbb70f8df0001bedd32,606a0fa34270f67cfdcbd93e,2021-04-04_12h36.05.614,Colour_Similarity_Experiment,2020.2.10,Win32,60,60675255c767bca6388caeee,21.21551724,17.4177665,17.01791531,17.21371611,17.54896676,17.4177665,,,,,,,,,,,,,,,,,,,,PF,3,strong,,,,,,,,7,1.7,,,,,,,,,,,,,,,,,,,,,,,,,,,,8,strong,34,66,1,0,0,response1disk,8,142,9,12,1,0,0,rectangle,9,12,1,0,0,1,3,0.003,9,12,1,0,0,0,141,141,48,1,0,,,,,,,,,,,,,,,,,,,,,
,,,,,,,,,,,,,,,,,,,,,,,,,,,,,,,,,,,,,,,,,,5bb18bbb70f8df0001bedd32,606a0fa34270f67cfdcbd93e,2021-04-04_12h36.05.614,Colour_Similarity_Experiment,2020.2.10,Win32,60,60675255c767bca6388caeee,21.21551724,17.4177665,17.01791531,17.21371611,17.54896676,17.4177665,,,,,,,,,,,,,,,,,,,,PF,3,strong,,,,,,,,4,2.584,,,,,,,,,,,,,,,,,,,,,,,,,,,,7,strong,56,-79,1,0,0,response3disk,7,143,3,-5,1,0,0,rectangle,3,-5,1,0,0,1,2,0.005,3,-5,1,0,0,0,142,142,34,1,0,,,,,,,,,,,,,,,,,,,,,
,,,,,,,,,,,,,,,,,,,,,,,,,,,,,,,,,,,,,,,,,,5bb18bbb70f8df0001bedd32,606a0fa34270f67cfdcbd93e,2021-04-04_12h36.05.614,Colour_Similarity_Experiment,2020.2.10,Win32,60,60675255c767bca6388caeee,21.21551724,17.4177665,17.01791531,17.21371611,17.54896676,17.4177665,,,,,,,,,,,,,,,,,,,,PF,3,strong,,,,,,,,3,1.65,,,,,,,,,,,,,,,,,,,,,,,,,,,,4,strong,-47,-75,1,0,0,response5disk,5,144,2,-2,1,0,0,rectangle,2,-2,1,0,0,1,5,0.005,2,-2,1,0,0,0,143,143,116,1,0,,,,,,,,,,,,,,,,,,,,,
,,,,,,,,,,,,,,,,,,,,,,,,,,,,,,,,,,,,,,,,,,5bb18bbb70f8df0001bedd32,606a0fa34270f67cfdcbd93e,2021-04-04_12h36.05.614,Colour_Similarity_Experiment,2020.2.10,Win32,60,60675255c767bca6388caeee,21.21551724,17.4177665,17.01791531,17.21371611,17.54896676,17.4177665,,,,,,,,,,,,,,,,,,,,PF,3,strong,,,,,,,,7,1.703,,,,,,,,,,,,,,,,,,,,,,,,,,,,1,strong,36,91,1,0,0,response1disk,1,145,-2,1,1,0,0,rectangle,-2,1,1,0,0,1,1,0.004,-2,1,1,0,0,0,144,144,151,1,0,,,,,,,,,,,,,,,,,,,,,
,,,,,,,,,,,,,,,,,,,,,,,,,,,,,,,,,,,,,,,,,,5bb18bbb70f8df0001bedd32,606a0fa34270f67cfdcbd93e,2021-04-04_12h36.05.614,Colour_Similarity_Experiment,2020.2.10,Win32,60,60675255c767bca6388caeee,21.21551724,17.4177665,17.01791531,17.21371611,17.54896676,17.4177665,,,,,,,,,,,,,,,,,,,,PF,3,weak,,,,,,,,7,1.866,,,,,,,,,,,,,,,,,,,,,,,,,,,,7,weak,45,92,1,0,0,response1disk,7,146,-5,8,1,0,0,rectangle,-5,8,1,0,0,1,2,0.003,-5,8,1,0,0,0,145,145,51,1,0,,,,,,,,,,,,,,,,,,,,,
,,,,,,,,,,,,,,,,,,,,,,,,,,,,,,,,,,,,,,,,,,5bb18bbb70f8df0001bedd32,606a0fa34270f67cfdcbd93e,2021-04-04_12h36.05.614,Colour_Similarity_Experiment,2020.2.10,Win32,60,60675255c767bca6388caeee,21.21551724,17.4177665,17.01791531,17.21371611,17.54896676,17.4177665,,,,,,,,,,,,,,,,,,,,PF,3,weak,,,,,,,,5,1.605,,,,,,,,,,,,,,,,,,,,,,,,,,,,1,weak,74,-47,1,0,0,response3disk,8,147,-4,-4,1,0,0,rectangle,-4,-4,1,0,0,1,1,0.003,-4,-4,1,0,0,0,146,146,65,1,0,,,,,,,,,,,,,,,,,,,,,
,,,,,,,,,,,,,,,,,,,,,,,,,,,,,,,,,,,,,,,,,,5bb18bbb70f8df0001bedd32,606a0fa34270f67cfdcbd93e,2021-04-04_12h36.05.614,Colour_Similarity_Experiment,2020.2.10,Win32,60,60675255c767bca6388caeee,21.21551724,17.4177665,17.01791531,17.21371611,17.54896676,17.4177665,,,,,,,,,,,,,,,,,,,,PF,3,strong,,,,,,,,5,1.219,,,,,,,,,,,,,,,,,,,,,,,,,,,,2,strong,84,-27,1,0,0,response3disk,7,148,3,-9,1,0,0,rectangle,3,-9,1,0,0,1,2,0.003,3,-9,1,0,0,0,147,147,63,1,0,,,,,,,,,,,,,,,,,,,,,
,,,,,,,,,,,,,,,,,,,,,,,,,,,,,,,,,,,,,,,,,,5bb18bbb70f8df0001bedd32,606a0fa34270f67cfdcbd93e,2021-04-04_12h36.05.614,Colour_Similarity_Experiment,2020.2.10,Win32,60,60675255c767bca6388caeee,21.21551724,17.4177665,17.01791531,17.21371611,17.54896676,17.4177665,,,,,,,,,,,,,,,,,,,,PF,3,weak,,,,,,,,2,5.852,,,,,,,,,,,,,,,,,,,,,,,,,,,,9,weak,-87,-38,1,0,0,response5disk,6,149,1,9,1,0,0,rectangle,1,9,1,0,0,1,5,0.005,1,9,1,0,0,0,148,148,148,1,0,,,,,,,,,,,,,,,,,,,,,
,,,,,,,,,,,,,,,,,,,,,,,,,,,,,,,,,,,,,,,,,,5bb18bbb70f8df0001bedd32,606a0fa34270f67cfdcbd93e,2021-04-04_12h36.05.614,Colour_Similarity_Experiment,2020.2.10,Win32,60,60675255c767bca6388caeee,21.21551724,17.4177665,17.01791531,17.21371611,17.54896676,17.4177665,,,,,,,,,,,,,,,,,,,,PF,3,strong,,,,,,,,5,2.223,,,,,,,,,,,,,,,,,,,,,,,,,,,,7,strong,65,-36,1,0,0,response3disk,2,150,5,-7,1,0,0,rectangle,5,-7,1,0,0,1,3,0.004,5,-7,1,0,0,0,149,149,138,1,0,,,,,,,,,,,,,,,,,,,,,
,,,,,,,,,,,,,,,,,,,,,,,,,,,,,,,,,,,,,,,,,,5bb18bbb70f8df0001bedd32,606a0fa34270f67cfdcbd93e,2021-04-04_12h36.05.614,Colour_Similarity_Experiment,2020.2.10,Win32,60,60675255c767bca6388caeee,21.21551724,17.4177665,17.01791531,17.21371611,17.54896676,17.4177665,,,,,,,,,,,,,,,,,,,,PF,3,weak,,,,,,,,7,2.804,,,,,,,,,,,,,,,,,,,,,,,,,,,,4,weak,50,96,1,0,0,response1disk,8,151,2,5,1,0,0,rectangle,2,5,1,0,0,1,5,0.004,2,5,1,0,0,0,150,150,124,1,0,,,,,,,,,,,,,,,,,,,,,
,,,,,,,,,,,,,,,,,,,,,,,,,,,,,,,,,,,,,,,,,,5bb18bbb70f8df0001bedd32,606a0fa34270f67cfdcbd93e,2021-04-04_12h36.05.614,Colour_Similarity_Experiment,2020.2.10,Win32,60,60675255c767bca6388caeee,21.21551724,17.4177665,17.01791531,17.21371611,17.54896676,17.4177665,,,,,,,,,,,,,,,,,,,,PF,3,strong,,,,,,,,4,1.816,,,,,,,,,,,,,,,,,,,,,,,,,,,,3,strong,45,-68,1,0,0,response3disk,5,152,-4,-2,1,0,0,rectangle,-4,-2,1,0,0,1,1,0.005,-4,-2,1,0,0,0,151,151,101,1,0,,,,,,,,,,,,,,,,,,,,,
,,,,,,,,,,,,,,,,,,,,,,,,,,,,,,,,,,,,,,,,,,5bb18bbb70f8df0001bedd32,606a0fa34270f67cfdcbd93e,2021-04-04_12h36.05.614,Colour_Similarity_Experiment,2020.2.10,Win32,60,60675255c767bca6388caeee,21.21551724,17.4177665,17.01791531,17.21371611,17.54896676,17.4177665,,,,,,,,,,,,,,,,,,,,PF,3,strong,,,,,,,,1,2.225,,,,,,,,,,,,,,,,,,,,,,,,,,,,8,strong,-77,38,1,0,0,response7disk,6,153,-4,1,1,0,0,rectangle,-4,1,1,0,0,1,2,0.002,-4,1,1,0,0,0,152,152,37,1,0,,,,,,,,,,,,,,,,,,,,,
,,,,,,,,,,,,,,,,,,,,,,,,,,,,,,,,,,,,,,,,,,5bb18bbb70f8df0001bedd32,606a0fa34270f67cfdcbd93e,2021-04-04_12h36.05.614,Colour_Similarity_Experiment,2020.2.10,Win32,60,60675255c767bca6388caeee,21.21551724,17.4177665,17.01791531,17.21371611,17.54896676,17.4177665,,,,,,,,,,,,,,,,,,,,PF,3,strong,,,,,,,,3,1.321,,,,,,,,,,,,,,,,,,,,,,,,,,,,5,strong,-19,-62,1,0,0,response5disk,4,154,-7,-2,1,0,0,rectangle,-7,-2,1,0,0,1,3,0.005,-7,-2,1,0,0,0,153,153,8,1,0,,,,,,,,,,,,,,,,,,,,,
,,,,,,,,,,,,,,,,,,,,,,,,,,,,,,,,,,,,,,,,,,5bb18bbb70f8df0001bedd32,606a0fa34270f67cfdcbd93e,2021-04-04_12h36.05.614,Colour_Similarity_Experiment,2020.2.10,Win32,60,60675255c767bca6388caeee,21.21551724,17.4177665,17.01791531,17.21371611,17.54896676,17.4177665,,,,,,,,,,,,,,,,,,,,PF,3,strong,,,,,,,,7,1.507,,,,,,,,,,,,,,,,,,,,,,,,,,,,3,strong,38,102,1,0,0,response1disk,1,155,-1,-5,1,0,0,rectangle,-1,-5,1,0,0,1,5,0.002,-1,-5,1,0,0,0,154,154,125,1,0,,,,,,,,,,,,,,,,,,,,,
,,,,,,,,,,,,,,,,,,,,,,,,,,,,,,,,,,,,,,,,,,5bb18bbb70f8df0001bedd32,606a0fa34270f67cfdcbd93e,2021-04-04_12h36.05.614,Colour_Similarity_Experiment,2020.2.10,Win32,60,60675255c767bca6388caeee,21.21551724,17.4177665,17.01791531,17.21371611,17.54896676,17.4177665,,,,,,,,,,,,,,,,,,,,PF,3,strong,,,,,,,,0,1.456,,,,,,,,,,,,,,,,,,,,,,,,,,,,6,strong,-42,109,1,0,0,response7disk,1,156,5,5,1,0,0,rectangle,5,5,1,0,0,1,1,0.004,5,5,1,0,0,0,155,155,5,1,0,,,,,,,,,,,,,,,,,,,,,
,,,,,,,,,,,,,,,,,,,,,,,,,,,,,,,,,,,,,,,,,,5bb18bbb70f8df0001bedd32,606a0fa34270f67cfdcbd93e,2021-04-04_12h36.05.614,Colour_Similarity_Experiment,2020.2.10,Win32,60,60675255c767bca6388caeee,21.21551724,17.4177665,17.01791531,17.21371611,17.54896676,17.4177665,,,,,,,,,,,,,,,,,,,,PF,3,strong,,,,,,,,7,2.271,,,,,,,,,,,,,,,,,,,,,,,,,,,,1,strong,36,98,1,0,0,response1disk,5,157,-3,-8,1,0,0,rectangle,-3,-8,1,0,0,1,7,0.004,-3,-8,1,0,0,0,156,156,82,1,0,,,,,,,,,,,,,,,,,,,,,
,,,,,,,,,,,,,,,,,,,,,,,,,,,,,,,,,,,,,,,,,,5bb18bbb70f8df0001bedd32,606a0fa34270f67cfdcbd93e,2021-04-04_12h36.05.614,Colour_Similarity_Experiment,2020.2.10,Win32,60,60675255c767bca6388caeee,21.21551724,17.4177665,17.01791531,17.21371611,17.54896676,17.4177665,,,,,,,,,,,,,,,,,,,,PF,3,strong,,,,,,,,3,1.838,,,,,,,,,,,,,,,,,,,,,,,,,,,,9,strong,-37,-58,1,0,0,response5disk,4,158,1,-8,1,0,0,rectangle,1,-8,1,0,0,1,4,0.005,1,-8,1,0,0,0,157,157,60,1,0,,,,,,,,,,,,,,,,,,,,,
,,,,,,,,,,,,,,,,,,,,,,,,,,,,,,,,,,,,,,,,,,5bb18bbb70f8df0001bedd32,606a0fa34270f67cfdcbd93e,2021-04-04_12h36.05.614,Colour_Similarity_Experiment,2020.2.10,Win32,60,60675255c767bca6388caeee,21.21551724,17.4177665,17.01791531,17.21371611,17.54896676,17.4177665,,,,,,,,,,,,,,,,,,,,PF,3,weak,,,,,,,,1,1.467,,,,,,,,,,,,,,,,,,,,,,,,,,,,7,weak,-100,55,1,0,0,response7disk,3,159,0,6,1,0,0,rectangle,0,6,1,0,0,1,6,0.006,0,6,1,0,0,0,158,158,81,1,0,,,,,,,,,,,,,,,,,,,,,
,,,,,,,,,,,,,,,,,,,,,,,,,,,,,,,,,,,,,,,,,,5bb18bbb70f8df0001bedd32,606a0fa34270f67cfdcbd93e,2021-04-04_12h36.05.614,Colour_Similarity_Experiment,2020.2.10,Win32,60,60675255c767bca6388caeee,21.21551724,17.4177665,17.01791531,17.21371611,17.54896676,17.4177665,,,,,,,,,,,,,,,,,,,,PF,3,strong,,,,,,,,2,1.601,,,,,,,,,,,,,,,,,,,,,,,,,,,,6,strong,-83,-36,1,0,0,response5disk,2,160,4,8,1,0,0,rectangle,4,8,1,0,0,1,2,0.004,4,8,1,0,0,0,159,159,112,1,0,,,,,,,,,,,,,,,,,,,,,
,,,,,,,,,,,,,,,,,,,,,,,,,,,,,,,,,,,,,,,,,,5bb18bbb70f8df0001bedd32,606a0fa34270f67cfdcbd93e,2021-04-04_12h36.05.614,Colour_Similarity_Experiment,2020.2.10,Win32,60,60675255c767bca6388caeee,21.21551724,17.4177665,17.01791531,17.21371611,17.54896676,17.4177665,,,,,,,,,,,,,,,,,,,,PF,3,strong,,,,,,,,5,1.688,,,,,,,,,,,,,,,,,,,,,,,,,,,,2,strong,58,-34,1,0,0,response3disk,6,161,6,-7,1,0,0,rectangle,6,-7,1,0,0,1,5,0.007,6,-7,1,0,0,0,160,160,40,1,0,,,,,,,,,,,,,,,,,,,,,
,,,,,,,,,,,,,,,,,,,,,,,,,,,,,,,,,,,,,,,,,,5bb18bbb70f8df0001bedd32,606a0fa34270f67cfdcbd93e,2021-04-04_12h36.05.614,Colour_Similarity_Experiment,2020.2.10,Win32,60,60675255c767bca6388caeee,21.21551724,17.4177665,17.01791531,17.21371611,17.54896676,17.4177665,,,,,,,,,,,,,,,,,,,,PF,3,weak,,,,,,,,7,1.555,,,,,,,,,,,,,,,,,,,,,,,,,,,,2,weak,56,75,1,0,0,response1disk,1,162,5,12,1,0,0,rectangle,5,12,1,0,0,1,7,0.005,5,12,1,0,0,0,161,161,9,1,0,,,,,,,,,,,,,,,,,,,,,
,,,,,,,,,,,,,,,,,,,,,,,,,,,,,,,,,,,,,,,,,,5bb18bbb70f8df0001bedd32,606a0fa34270f67cfdcbd93e,2021-04-04_12h36.05.614,Colour_Similarity_Experiment,2020.2.10,Win32,60,60675255c767bca6388caeee,21.21551724,17.4177665,17.01791531,17.21371611,17.54896676,17.4177665,,,,,,,,,,,,,,,,,,,,,,,,,,,,,,,,,,,,,,,,,,,,,,,,,,,,,,,,,,,,,,,,,,,,,,,,,,,,,,,,,,,,,,,,,,,,,,,,0,0,0,0,1,,,,,,,,,,,,,,
,,,,,,,,,,,,,,,,,,,,,,,,,,,,,,,,,,,,,,,,,,5bb18bbb70f8df0001bedd32,606a0fa34270f67cfdcbd93e,2021-04-04_12h36.05.614,Colour_Similarity_Experiment,2020.2.10,Win32,60,60675255c767bca6388caeee,21.21551724,17.4177665,17.01791531,17.21371611,17.54896676,17.4177665,,,,,,,,,,,,,,,,,,,,PF,3,strong,,,,,,,,7,3.7,,,,,,,,,,,,,,,,,,,,,,,,,,,,7,strong,50,76,1,0,0,response1disk,6,163,-7,-10,1,0,0,rectangle,-7,-10,1,0,0,1,5,0.005,-7,-10,1,0,0,0,0,0,31,1,0,,,,,,,,,,,,,,,,,,,,,
,,,,,,,,,,,,,,,,,,,,,,,,,,,,,,,,,,,,,,,,,,5bb18bbb70f8df0001bedd32,606a0fa34270f67cfdcbd93e,2021-04-04_12h36.05.614,Colour_Similarity_Experiment,2020.2.10,Win32,60,60675255c767bca6388caeee,21.21551724,17.4177665,17.01791531,17.21371611,17.54896676,17.4177665,,,,,,,,,,,,,,,,,,,,PF,3,strong,,,,,,,,3,1.25,,,,,,,,,,,,,,,,,,,,,,,,,,,,3,strong,-43,-89,1,0,0,response5disk,4,164,-1,3,1,0,0,rectangle,-1,3,1,0,0,1,0,0.003,-1,3,1,0,0,0,1,1,110,1,0,,,,,,,,,,,,,,,,,,,,,
,,,,,,,,,,,,,,,,,,,,,,,,,,,,,,,,,,,,,,,,,,5bb18bbb70f8df0001bedd32,606a0fa34270f67cfdcbd93e,2021-04-04_12h36.05.614,Colour_Similarity_Experiment,2020.2.10,Win32,60,60675255c767bca6388caeee,21.21551724,17.4177665,17.01791531,17.21371611,17.54896676,17.4177665,,,,,,,,,,,,,,,,,,,,PF,3,weak,,,,,,,,7,1.587,,,,,,,,,,,,,,,,,,,,,,,,,,,,2,weak,49,74,1,0,0,response1disk,9,165,-7,-6,1,0,0,rectangle,-7,-6,1,0,0,1,6,0.006,-7,-6,1,0,0,0,2,2,39,1,0,,,,,,,,,,,,,,,,,,,,,
,,,,,,,,,,,,,,,,,,,,,,,,,,,,,,,,,,,,,,,,,,5bb18bbb70f8df0001bedd32,606a0fa34270f67cfdcbd93e,2021-04-04_12h36.05.614,Colour_Similarity_Experiment,2020.2.10,Win32,60,60675255c767bca6388caeee,21.21551724,17.4177665,17.01791531,17.21371611,17.54896676,17.4177665,,,,,,,,,,,,,,,,,,,,PF,3,strong,,,,,,,,3,2.534,,,,,,,,,,,,,,,,,,,,,,,,,,,,8,strong,-55,-85,1,0,0,response5disk,1,166,0,-1,1,0,0,rectangle,0,-1,1,0,0,1,4,0.002,0,-1,1,0,0,0,3,3,20,1,0,,,,,,,,,,,,,,,,,,,,,
,,,,,,,,,,,,,,,,,,,,,,,,,,,,,,,,,,,,,,,,,,5bb18bbb70f8df0001bedd32,606a0fa34270f67cfdcbd93e,2021-04-04_12h36.05.614,Colour_Similarity_Experiment,2020.2.10,Win32,60,60675255c767bca6388caeee,21.21551724,17.4177665,17.01791531,17.21371611,17.54896676,17.4177665,,,,,,,,,,,,,,,,,,,,PF,3,weak,,,,,,,,2,1.689,,,,,,,,,,,,,,,,,,,,,,,,,,,,2,weak,-89,-45,1,0,0,response5disk,2,167,-5,3,1,0,0,rectangle,-5,3,1,0,0,1,5,0.003,-5,3,1,0,0,0,4,4,14,1,0,,,,,,,,,,,,,,,,,,,,,
,,,,,,,,,,,,,,,,,,,,,,,,,,,,,,,,,,,,,,,,,,5bb18bbb70f8df0001bedd32,606a0fa34270f67cfdcbd93e,2021-04-04_12h36.05.614,Colour_Similarity_Experiment,2020.2.10,Win32,60,60675255c767bca6388caeee,21.21551724,17.4177665,17.01791531,17.21371611,17.54896676,17.4177665,,,,,,,,,,,,,,,,,,,,PF,3,weak,,,,,,,,7,1.853,,,,,,,,,,,,,,,,,,,,,,,,,,,,8,weak,45,70,1,0,0,response1disk,8,168,7,6,1,0,0,rectangle,7,6,1,0,0,1,6,0.004,7,6,1,0,0,0,5,5,153,1,0,,,,,,,,,,,,,,,,,,,,,
,,,,,,,,,,,,,,,,,,,,,,,,,,,,,,,,,,,,,,,,,,5bb18bbb70f8df0001bedd32,606a0fa34270f67cfdcbd93e,2021-04-04_12h36.05.614,Colour_Similarity_Experiment,2020.2.10,Win32,60,60675255c767bca6388caeee,21.21551724,17.4177665,17.01791531,17.21371611,17.54896676,17.4177665,,,,,,,,,,,,,,,,,,,,PF,3,weak,,,,,,,,7,1.299,,,,,,,,,,,,,,,,,,,,,,,,,,,,5,weak,30,71,1,0,0,response1disk,3,169,-6,-1,1,0,0,rectangle,-6,-1,1,0,0,1,6,0.001,-6,-1,1,0,0,0,6,6,109,1,0,,,,,,,,,,,,,,,,,,,,,
,,,,,,,,,,,,,,,,,,,,,,,,,,,,,,,,,,,,,,,,,,5bb18bbb70f8df0001bedd32,606a0fa34270f67cfdcbd93e,2021-04-04_12h36.05.614,Colour_Similarity_Experiment,2020.2.10,Win32,60,60675255c767bca6388caeee,21.21551724,17.4177665,17.01791531,17.21371611,17.54896676,17.4177665,,,,,,,,,,,,,,,,,,,,PF,3,strong,,,,,,,,3,2.57,,,,,,,,,,,,,,,,,,,,,,,,,,,,4,strong,-26,-72,1,0,0,response5disk,2,170,12,-4,1,0,0,rectangle,12,-4,1,0,0,1,1,0.004,12,-4,1,0,0,0,7,7,13,1,0,,,,,,,,,,,,,,,,,,,,,
,,,,,,,,,,,,,,,,,,,,,,,,,,,,,,,,,,,,,,,,,,5bb18bbb70f8df0001bedd32,606a0fa34270f67cfdcbd93e,2021-04-04_12h36.05.614,Colour_Similarity_Experiment,2020.2.10,Win32,60,60675255c767bca6388caeee,21.21551724,17.4177665,17.01791531,17.21371611,17.54896676,17.4177665,,,,,,,,,,,,,,,,,,,,PF,3,weak,,,,,,,,3,1.578,,,,,,,,,,,,,,,,,,,,,,,,,,,,9,weak,-27,-69,1,0,0,response5disk,4,171,1,-9,1,0,0,rectangle,1,-9,1,0,0,1,2,0.003,1,-9,1,0,0,0,8,8,114,1,0,,,,,,,,,,,,,,,,,,,,,
,,,,,,,,,,,,,,,,,,,,,,,,,,,,,,,,,,,,,,,,,,5bb18bbb70f8df0001bedd32,606a0fa34270f67cfdcbd93e,2021-04-04_12h36.05.614,Colour_Similarity_Experiment,2020.2.10,Win32,60,60675255c767bca6388caeee,21.21551724,17.4177665,17.01791531,17.21371611,17.54896676,17.4177665,,,,,,,,,,,,,,,,,,,,PF,3,strong,,,,,,,,2,2.916,,,,,,,,,,,,,,,,,,,,,,,,,,,,8,strong,-68,-56,1,0,0,response5disk,3,172,6,3,1,0,0,rectangle,6,3,1,0,0,1,0,0.002,6,3,1,0,0,0,9,9,154,1,0,,,,,,,,,,,,,,,,,,,,,
,,,,,,,,,,,,,,,,,,,,,,,,,,,,,,,,,,,,,,,,,,5bb18bbb70f8df0001bedd32,606a0fa34270f67cfdcbd93e,2021-04-04_12h36.05.614,Colour_Similarity_Experiment,2020.2.10,Win32,60,60675255c767bca6388caeee,21.21551724,17.4177665,17.01791531,17.21371611,17.54896676,17.4177665,,,,,,,,,,,,,,,,,,,,PF,3,weak,,,,,,,,7,1.738,,,,,,,,,,,,,,,,,,,,,,,,,,,,9,weak,34,81,1,0,0,response1disk,8,173,-4,0,1,0,0,rectangle,-4,0,1,0,0,1,5,0.005,-4,0,1,0,0,0,10,10,67,1,0,,,,,,,,,,,,,,,,,,,,,
,,,,,,,,,,,,,,,,,,,,,,,,,,,,,,,,,,,,,,,,,,5bb18bbb70f8df0001bedd32,606a0fa34270f67cfdcbd93e,2021-04-04_12h36.05.614,Colour_Similarity_Experiment,2020.2.10,Win32,60,60675255c767bca6388caeee,21.21551724,17.4177665,17.01791531,17.21371611,17.54896676,17.4177665,,,,,,,,,,,,,,,,,,,,PF,3,weak,,,,,,,,3,1.899,,,,,,,,,,,,,,,,,,,,,,,,,,,,8,weak,-29,-72,1,0,0,response5disk,1,174,-4,-6,1,0,0,rectangle,-4,-6,1,0,0,1,7,0.005,-4,-6,1,0,0,0,11,11,57,1,0,,,,,,,,,,,,,,,,,,,,,
,,,,,,,,,,,,,,,,,,,,,,,,,,,,,,,,,,,,,,,,,,5bb18bbb70f8df0001bedd32,606a0fa34270f67cfdcbd93e,2021-04-04_12h36.05.614,Colour_Similarity_Experiment,2020.2.10,Win32,60,60675255c767bca6388caeee,21.21551724,17.4177665,17.01791531,17.21371611,17.54896676,17.4177665,,,,,,,,,,,,,,,,,,,,PF,3,strong,,,,,,,,7,2.533,,,,,,,,,,,,,,,,,,,,,,,,,,,,7,strong,42,105,1,0,0,response1disk,4,175,-3,-6,1,0,0,rectangle,-3,-6,1,0,0,1,3,0.004,-3,-6,1,0,0,0,12,12,158,1,0,,,,,,,,,,,,,,,,,,,,,
,,,,,,,,,,,,,,,,,,,,,,,,,,,,,,,,,,,,,,,,,,5bb18bbb70f8df0001bedd32,606a0fa34270f67cfdcbd93e,2021-04-04_12h36.05.614,Colour_Similarity_Experiment,2020.2.10,Win32,60,60675255c767bca6388caeee,21.21551724,17.4177665,17.01791531,17.21371611,17.54896676,17.4177665,,,,,,,,,,,,,,,,,,,,PF,3,weak,,,,,,,,4,2.356,,,,,,,,,,,,,,,,,,,,,,,,,,,,5,weak,36,-89,1,0,0,response3disk,7,176,4,-4,1,0,0,rectangle,4,-4,1,0,0,1,5,0.003,4,-4,1,0,0,0,13,13,146,1,0,,,,,,,,,,,,,,,,,,,,,
,,,,,,,,,,,,,,,,,,,,,,,,,,,,,,,,,,,,,,,,,,5bb18bbb70f8df0001bedd32,606a0fa34270f67cfdcbd93e,2021-04-04_12h36.05.614,Colour_Similarity_Experiment,2020.2.10,Win32,60,60675255c767bca6388caeee,21.21551724,17.4177665,17.01791531,17.21371611,17.54896676,17.4177665,,,,,,,,,,,,,,,,,,,,PF,3,strong,,,,,,,,4,1.522,,,,,,,,,,,,,,,,,,,,,,,,,,,,4,strong,33,-83,1,0,0,response3disk,3,177,9,-3,1,0,0,rectangle,9,-3,1,0,0,1,6,0.004,9,-3,1,0,0,0,14,14,77,1,0,,,,,,,,,,,,,,,,,,,,,
,,,,,,,,,,,,,,,,,,,,,,,,,,,,,,,,,,,,,,,,,,5bb18bbb70f8df0001bedd32,606a0fa34270f67cfdcbd93e,2021-04-04_12h36.05.614,Colour_Similarity_Experiment,2020.2.10,Win32,60,60675255c767bca6388caeee,21.21551724,17.4177665,17.01791531,17.21371611,17.54896676,17.4177665,,,,,,,,,,,,,,,,,,,,PF,3,strong,,,,,,,,4,1.717,,,,,,,,,,,,,,,,,,,,,,,,,,,,6,strong,49,-61,1,0,0,response3disk,7,178,6,-1,1,0,0,rectangle,6,-1,1,0,0,1,5,0.006,6,-1,1,0,0,0,15,15,18,1,0,,,,,,,,,,,,,,,,,,,,,
,,,,,,,,,,,,,,,,,,,,,,,,,,,,,,,,,,,,,,,,,,5bb18bbb70f8df0001bedd32,606a0fa34270f67cfdcbd93e,2021-04-04_12h36.05.614,Colour_Similarity_Experiment,2020.2.10,Win32,60,60675255c767bca6388caeee,21.21551724,17.4177665,17.01791531,17.21371611,17.54896676,17.4177665,,,,,,,,,,,,,,,,,,,,PF,3,strong,,,,,,,,3,2.434,,,,,,,,,,,,,,,,,,,,,,,,,,,,2,strong,-41,-57,1,0,0,response5disk,9,179,11,7,1,0,0,rectangle,11,7,1,0,0,1,0,0.005,11,7,1,0,0,0,16,16,72,1,0,,,,,,,,,,,,,,,,,,,,,
,,,,,,,,,,,,,,,,,,,,,,,,,,,,,,,,,,,,,,,,,,5bb18bbb70f8df0001bedd32,606a0fa34270f67cfdcbd93e,2021-04-04_12h36.05.614,Colour_Similarity_Experiment,2020.2.10,Win32,60,60675255c767bca6388caeee,21.21551724,17.4177665,17.01791531,17.21371611,17.54896676,17.4177665,,,,,,,,,,,,,,,,,,,,PF,3,weak,,,,,,,,5,7.566,,,,,,,,,,,,,,,,,,,,,,,,,,,,7,weak,73,-31,1,0,0,response3disk,6,180,-14,-2,1,0,0,rectangle,-14,-2,1,0,0,1,4,0.005,-14,-2,1,0,0,0,17,17,29,1,0,,,,,,,,,,,,,,,,,,,,,
,,,,,,,,,,,,,,,,,,,,,,,,,,,,,,,,,,,,,,,,,,5bb18bbb70f8df0001bedd32,606a0fa34270f67cfdcbd93e,2021-04-04_12h36.05.614,Colour_Similarity_Experiment,2020.2.10,Win32,60,60675255c767bca6388caeee,21.21551724,17.4177665,17.01791531,17.21371611,17.54896676,17.4177665,,,,,,,,,,,,,,,,,,,,PF,3,weak,,,,,,,,7,7.036,,,,,,,,,,,,,,,,,,,,,,,,,,,,8,weak,49,98,1,0,0,response1disk,2,181,-6,-6,1,0,0,rectangle,-6,-6,1,0,0,1,7,0.003,-6,-6,1,0,0,0,18,18,83,1,0,,,,,,,,,,,,,,,,,,,,,
,,,,,,,,,,,,,,,,,,,,,,,,,,,,,,,,,,,,,,,,,,5bb18bbb70f8df0001bedd32,606a0fa34270f67cfdcbd93e,2021-04-04_12h36.05.614,Colour_Similarity_Experiment,2020.2.10,Win32,60,60675255c767bca6388caeee,21.21551724,17.4177665,17.01791531,17.21371611,17.54896676,17.4177665,,,,,,,,,,,,,,,,,,,,PF,3,weak,,,,,,,,7,2.723,,,,,,,,,,,,,,,,,,,,,,,,,,,,1,weak,57,88,1,0,0,response1disk,7,182,-1,6,1,0,0,rectangle,-1,6,1,0,0,1,6,0.003,-1,6,1,0,0,0,19,19,150,1,0,,,,,,,,,,,,,,,,,,,,,
,,,,,,,,,,,,,,,,,,,,,,,,,,,,,,,,,,,,,,,,,,5bb18bbb70f8df0001bedd32,606a0fa34270f67cfdcbd93e,2021-04-04_12h36.05.614,Colour_Similarity_Experiment,2020.2.10,Win32,60,60675255c767bca6388caeee,21.21551724,17.4177665,17.01791531,17.21371611,17.54896676,17.4177665,,,,,,,,,,,,,,,,,,,,PF,3,strong,,,,,,,,7,1.188,,,,,,,,,,,,,,,,,,,,,,,,,,,,3,strong,61,100,1,0,0,response1disk,3,183,4,-5,1,0,0,rectangle,4,-5,1,0,0,1,7,0.004,4,-5,1,0,0,0,20,20,68,1,0,,,,,,,,,,,,,,,,,,,,,
,,,,,,,,,,,,,,,,,,,,,,,,,,,,,,,,,,,,,,,,,,5bb18bbb70f8df0001bedd32,606a0fa34270f67cfdcbd93e,2021-04-04_12h36.05.614,Colour_Similarity_Experiment,2020.2.10,Win32,60,60675255c767bca6388caeee,21.21551724,17.4177665,17.01791531,17.21371611,17.54896676,17.4177665,,,,,,,,,,,,,,,,,,,,PF,3,strong,,,,,,,,4,1.858,,,,,,,,,,,,,,,,,,,,,,,,,,,,6,strong,48,-56,0,0,1,response3disk,6,184,7,-6,1,0,0,rectangle,7,-6,1,0,0,1,6,0.007,7,-6,1,0,0,0,21,21,91,1,0,,,,,,,,,,,,,,,,,,,,,
,,,,,,,,,,,,,,,,,,,,,,,,,,,,,,,,,,,,,,,,,,5bb18bbb70f8df0001bedd32,606a0fa34270f67cfdcbd93e,2021-04-04_12h36.05.614,Colour_Similarity_Experiment,2020.2.10,Win32,60,60675255c767bca6388caeee,21.21551724,17.4177665,17.01791531,17.21371611,17.54896676,17.4177665,,,,,,,,,,,,,,,,,,,,PF,3,strong,,,,,,,,7,1.519,,,,,,,,,,,,,,,,,,,,,,,,,,,,9,strong,31,53,1,0,0,response1disk,1,185,11,12,1,0,0,rectangle,11,12,1,0,0,1,0,0.004,11,12,1,0,0,0,22,22,111,1,0,,,,,,,,,,,,,,,,,,,,,
,,,,,,,,,,,,,,,,,,,,,,,,,,,,,,,,,,,,,,,,,,5bb18bbb70f8df0001bedd32,606a0fa34270f67cfdcbd93e,2021-04-04_12h36.05.614,Colour_Similarity_Experiment,2020.2.10,Win32,60,60675255c767bca6388caeee,21.21551724,17.4177665,17.01791531,17.21371611,17.54896676,17.4177665,,,,,,,,,,,,,,,,,,,,PF,3,strong,,,,,,,,3,4.25,,,,,,,,,,,,,,,,,,,,,,,,,,,,5,strong,-30,-80,1,0,0,response5disk,6,186,-5,8,1,0,0,rectangle,-5,8,1,0,0,1,5,0.004,-5,8,1,0,0,0,23,23,12,1,0,,,,,,,,,,,,,,,,,,,,,
,,,,,,,,,,,,,,,,,,,,,,,,,,,,,,,,,,,,,,,,,,5bb18bbb70f8df0001bedd32,606a0fa34270f67cfdcbd93e,2021-04-04_12h36.05.614,Colour_Similarity_Experiment,2020.2.10,Win32,60,60675255c767bca6388caeee,21.21551724,17.4177665,17.01791531,17.21371611,17.54896676,17.4177665,,,,,,,,,,,,,,,,,,,,PF,3,strong,,,,,,,,5,17.665,,,,,,,,,,,,,,,,,,,,,,,,,,,,5,strong,75,-38,1,0,0,response3disk,8,187,5,-1,1,0,0,rectangle,5,-1,1,0,0,1,3,0.007,5,-1,1,0,0,0,24,24,16,1,0,,,,,,,,,,,,,,,,,,,,,
,,,,,,,,,,,,,,,,,,,,,,,,,,,,,,,,,,,,,,,,,,5bb18bbb70f8df0001bedd32,606a0fa34270f67cfdcbd93e,2021-04-04_12h36.05.614,Colour_Similarity_Experiment,2020.2.10,Win32,60,60675255c767bca6388caeee,21.21551724,17.4177665,17.01791531,17.21371611,17.54896676,17.4177665,,,,,,,,,,,,,,,,,,,,PF,3,weak,,,,,,,,5,2.786,,,,,,,,,,,,,,,,,,,,,,,,,,,,9,weak,62,-35,1,0,0,response3disk,5,188,-8,-1,1,0,0,rectangle,-8,-1,1,0,0,1,1,0.005,-8,-1,1,0,0,0,25,25,134,1,0,,,,,,,,,,,,,,,,,,,,,
,,,,,,,,,,,,,,,,,,,,,,,,,,,,,,,,,,,,,,,,,,5bb18bbb70f8df0001bedd32,606a0fa34270f67cfdcbd93e,2021-04-04_12h36.05.614,Colour_Similarity_Experiment,2020.2.10,Win32,60,60675255c767bca6388caeee,21.21551724,17.4177665,17.01791531,17.21371611,17.54896676,17.4177665,,,,,,,,,,,,,,,,,,,,PF,3,strong,,,,,,,,5,1.226,,,,,,,,,,,,,,,,,,,,,,,,,,,,6,strong,47,-23,1,0,0,response3disk,8,189,7,-2,1,0,0,rectangle,7,-2,1,0,0,1,4,0.002,7,-2,1,0,0,0,26,26,133,1,0,,,,,,,,,,,,,,,,,,,,,
,,,,,,,,,,,,,,,,,,,,,,,,,,,,,,,,,,,,,,,,,,5bb18bbb70f8df0001bedd32,606a0fa34270f67cfdcbd93e,2021-04-04_12h36.05.614,Colour_Similarity_Experiment,2020.2.10,Win32,60,60675255c767bca6388caeee,21.21551724,17.4177665,17.01791531,17.21371611,17.54896676,17.4177665,,,,,,,,,,,,,,,,,,,,PF,3,strong,,,,,,,,3,1.351,,,,,,,,,,,,,,,,,,,,,,,,,,,,4,strong,-44,-72,1,0,0,response5disk,1,190,-5,-14,1,0,0,rectangle,-5,-14,1,0,0,1,5,0.005,-5,-14,1,0,0,0,27,27,102,1,0,,,,,,,,,,,,,,,,,,,,,
,,,,,,,,,,,,,,,,,,,,,,,,,,,,,,,,,,,,,,,,,,5bb18bbb70f8df0001bedd32,606a0fa34270f67cfdcbd93e,2021-04-04_12h36.05.614,Colour_Similarity_Experiment,2020.2.10,Win32,60,60675255c767bca6388caeee,21.21551724,17.4177665,17.01791531,17.21371611,17.54896676,17.4177665,,,,,,,,,,,,,,,,,,,,PF,3,weak,,,,,,,,7,1.717,,,,,,,,,,,,,,,,,,,,,,,,,,,,6,weak,36,68,1,0,0,response1disk,6,191,1,6,1,0,0,rectangle,1,6,1,0,0,1,5,0,1,6,1,0,0,0,28,28,0,1,0,,,,,,,,,,,,,,,,,,,,,
,,,,,,,,,,,,,,,,,,,,,,,,,,,,,,,,,,,,,,,,,,5bb18bbb70f8df0001bedd32,606a0fa34270f67cfdcbd93e,2021-04-04_12h36.05.614,Colour_Similarity_Experiment,2020.2.10,Win32,60,60675255c767bca6388caeee,21.21551724,17.4177665,17.01791531,17.21371611,17.54896676,17.4177665,,,,,,,,,,,,,,,,,,,,PF,3,strong,,,,,,,,3,1.564,,,,,,,,,,,,,,,,,,,,,,,,,,,,8,strong,-45,-83,1,0,0,response5disk,4,192,-11,-5,1,0,0,rectangle,-11,-5,1,0,0,1,7,0.004,-11,-5,1,0,0,0,29,29,88,1,0,,,,,,,,,,,,,,,,,,,,,
,,,,,,,,,,,,,,,,,,,,,,,,,,,,,,,,,,,,,,,,,,5bb18bbb70f8df0001bedd32,606a0fa34270f67cfdcbd93e,2021-04-04_12h36.05.614,Colour_Similarity_Experiment,2020.2.10,Win32,60,60675255c767bca6388caeee,21.21551724,17.4177665,17.01791531,17.21371611,17.54896676,17.4177665,,,,,,,,,,,,,,,,,,,,PF,3,weak,,,,,,,,3,1.75,,,,,,,,,,,,,,,,,,,,,,,,,,,,5,weak,-25,-57,1,0,0,response5disk,6,193,-9,-11,1,0,0,rectangle,-9,-11,1,0,0,1,1,0.006,-9,-11,1,0,0,0,30,30,103,1,0,,,,,,,,,,,,,,,,,,,,,
,,,,,,,,,,,,,,,,,,,,,,,,,,,,,,,,,,,,,,,,,,5bb18bbb70f8df0001bedd32,606a0fa34270f67cfdcbd93e,2021-04-04_12h36.05.614,Colour_Similarity_Experiment,2020.2.10,Win32,60,60675255c767bca6388caeee,21.21551724,17.4177665,17.01791531,17.21371611,17.54896676,17.4177665,,,,,,,,,,,,,,,,,,,,PF,3,strong,,,,,,,,5,1.603,,,,,,,,,,,,,,,,,,,,,,,,,,,,9,strong,77,-40,1,0,0,response3disk,9,194,4,-4,1,0,0,rectangle,4,-4,1,0,0,1,4,0.004,4,-4,1,0,0,0,31,31,17,1,0,,,,,,,,,,,,,,,,,,,,,
,,,,,,,,,,,,,,,,,,,,,,,,,,,,,,,,,,,,,,,,,,5bb18bbb70f8df0001bedd32,606a0fa34270f67cfdcbd93e,2021-04-04_12h36.05.614,Colour_Similarity_Experiment,2020.2.10,Win32,60,60675255c767bca6388caeee,21.21551724,17.4177665,17.01791531,17.21371611,17.54896676,17.4177665,,,,,,,,,,,,,,,,,,,,PF,3,weak,,,,,,,,0,1.184,,,,,,,,,,,,,,,,,,,,,,,,,,,,1,weak,-52,87,1,0,0,response7disk,9,195,-3,14,1,0,0,rectangle,-3,14,1,0,0,1,6,0.006,-3,14,1,0,0,0,32,32,15,1,0,,,,,,,,,,,,,,,,,,,,,
,,,,,,,,,,,,,,,,,,,,,,,,,,,,,,,,,,,,,,,,,,5bb18bbb70f8df0001bedd32,606a0fa34270f67cfdcbd93e,2021-04-04_12h36.05.614,Colour_Similarity_Experiment,2020.2.10,Win32,60,60675255c767bca6388caeee,21.21551724,17.4177665,17.01791531,17.21371611,17.54896676,17.4177665,,,,,,,,,,,,,,,,,,,,PF,3,strong,,,,,,,,5,2.241,,,,,,,,,,,,,,,,,,,,,,,,,,,,6,strong,56,-34,1,0,0,response3disk,5,196,0,-8,1,0,0,rectangle,0,-8,1,0,0,1,0,0.003,0,-8,1,0,0,0,33,33,126,1,0,,,,,,,,,,,,,,,,,,,,,
,,,,,,,,,,,,,,,,,,,,,,,,,,,,,,,,,,,,,,,,,,5bb18bbb70f8df0001bedd32,606a0fa34270f67cfdcbd93e,2021-04-04_12h36.05.614,Colour_Similarity_Experiment,2020.2.10,Win32,60,60675255c767bca6388caeee,21.21551724,17.4177665,17.01791531,17.21371611,17.54896676,17.4177665,,,,,,,,,,,,,,,,,,,,PF,3,weak,,,,,,,,1,1.916,,,,,,,,,,,,,,,,,,,,,,,,,,,,3,weak,-92,33,1,0,0,response7disk,6,197,-4,-3,1,0,0,rectangle,-4,-3,1,0,0,1,1,0.004,-4,-3,1,0,0,0,34,34,47,1,0,,,,,,,,,,,,,,,,,,,,,
,,,,,,,,,,,,,,,,,,,,,,,,,,,,,,,,,,,,,,,,,,5bb18bbb70f8df0001bedd32,606a0fa34270f67cfdcbd93e,2021-04-04_12h36.05.614,Colour_Similarity_Experiment,2020.2.10,Win32,60,60675255c767bca6388caeee,21.21551724,17.4177665,17.01791531,17.21371611,17.54896676,17.4177665,,,,,,,,,,,,,,,,,,,,PF,3,strong,,,,,,,,1,2.621,,,,,,,,,,,,,,,,,,,,,,,,,,,,8,strong,-93,33,1,0,0,response7disk,7,198,7,3,1,0,0,rectangle,7,3,1,0,0,1,1,0.001,7,3,1,0,0,0,35,35,86,1,0,,,,,,,,,,,,,,,,,,,,,
