key_resp.keys,key_resp.rt,key_resp_16.keys,key_resp_16.rt,key_resp_2.keys,key_resp_2.rt,X Scale,ratio_pxpermm,screen_size_x,screen_size_y,testsize,key_resp_3.keys,key_resp_4.keys,key_resp_4.rt,line_size,key_resp_5.keys,key_resp_5.rt,key_resp_6.keys,key_resp_6.rt,key_resp_8.keys,key_resp_8.rt,key_resp_7.keys,key_resp_7.rt,key_resp_12.keys,key_resp_12.rt,key_resp_11.keys,key_resp_11.rt,key_resp_18.keys,key_resp_18.rt,key_resp_21.keys,key_resp_21.rt,key_resp_13.keys,key_resp_13.rt,key_resp_19.keys,key_resp_19.rt,ballposx,viewer_distance,trials.thisRepN,trials.thisTrialN,trials.thisN,trials.thisIndex,trials.ran,participant,session,date,expName,psychopyVersion,OS,frameRate,study_id,realFrameRate1,realFrameRate2,realFrameRate3,realFrameRate4,realFrameRate5,realFrameRate,viewerdistancecm,DVA_to_distance,radius_F,radius_P,r_F,R_P,key_resp_20.keys,key_resp_20.rt,key_resp_14.keys,key_resp_14.rt,key_resp_15.keys,key_resp_15.rt,key_resp_17.keys,key_resp_17.rt,key_resp_9.keys,key_resp_9.rt,key_resp_10.keys,key_resp_10.rt,Colour_1,Ecc,mask_frames,maskCon,mouse_5.x,mouse_5.y,mouse_5.leftButton,mouse_5.midButton,mouse_5.rightButton,mouse_5.clicked_name,Colour_2,similarity,response_time,mouse_10.x,mouse_10.y,mouse_10.leftButton,mouse_10.midButton,mouse_10.rightButton,mouse_10.clicked_name,mouse_7.x,mouse_7.y,mouse_7.leftButton,mouse_7.midButton,mouse_7.rightButton,catchnumberprac,mouse_6.x,mouse_6.y,mouse_6.leftButton,mouse_6.midButton,mouse_6.rightButton,duringprac.thisRepN,duringprac.thisTrialN,duringprac.thisN,duringprac.thisIndex,duringprac.ran,mouse_7.clicked_name,mouse_6.clicked_name,key_resp_22.keys,key_resp_22.rt,Colour1,maskCon1,mouse.x,mouse.y,mouse.leftButton,mouse.midButton,mouse.rightButton,mouse.clicked_name,Colour2,trialnumber,mouse_2.x,mouse_2.y,mouse_2.leftButton,mouse_2.midButton,mouse_2.rightButton,mouse_2.clicked_name,mouse_3.x,mouse_3.y,mouse_3.leftButton,mouse_3.midButton,mouse_3.rightButton,catchresponse,catchnumber,response_time_catch,mouse_11.x,mouse_11.y,mouse_11.leftButton,mouse_11.midButton,mouse_11.rightButton,trials_2.thisRepN,trials_2.thisTrialN,trials_2.thisN,trials_2.thisIndex,trials_2.ran,Catch,mouse_3.clicked_name,mouse_11.clicked_name,trials_3.thisRepN,trials_3.thisTrialN,trials_3.thisN,trials_3.thisIndex,trials_3.ran,answer1,rt1,answer2,rt2,answer3,rt3,answer4,rt4,answer5,rt5,answer6,rt6,answer7,rt7
space,6.9,space,10.266,space,11.945,41.4,4.14,329.9516908,185.5072464,1366,,space,26.579,82.8,space,24.628,space,11.657,space,8.603,space,16.898,space,17.266,space,13.75,space,18.551,space,14.477,space,28.101,return,12.51,-663.876,1217.672516,0,0,0,0,1,5c9cb670b472d0001295f377,606a2fb13c0e7c91a79b5a39,2021-04-05_00h30.50.550,Colour_Similarity_Experiment,2020.2.10,Win32,60,60675255c767bca6388caeee,26.77245509,22.96444444,21.25227964,22.36607893,24.32572993,22.96444444,,,,,,,,,,,,,,,,,,,,,,,,,,,,,,,,,,,,,,,,,,,,,,,,,,,,,,,,,,,,,,,,,,,,,,,,,,,,,,,,,,,,,,,,,,,,,,,,,,,,,,,,,,,,,,,,,
,,,,,,,,,,,,,,,,,,,,,,,,,,,,,,,,,return,10.653,-491.76,1044.504641,1,0,1,0,1,5c9cb670b472d0001295f377,606a2fb13c0e7c91a79b5a39,2021-04-05_00h30.50.550,Colour_Similarity_Experiment,2020.2.10,Win32,60,60675255c767bca6388caeee,26.77245509,22.96444444,21.25227964,22.36607893,24.32572993,22.96444444,,,,,,,,,,,,,,,,,,,,,,,,,,,,,,,,,,,,,,,,,,,,,,,,,,,,,,,,,,,,,,,,,,,,,,,,,,,,,,,,,,,,,,,,,,,,,,,,,,,,,,,,,,,,,,,,,
,,,,,,,,,,,,,,,,,,,,,,,,,,,,,,,,,return,11.559,-577.818,1131.088578,2,0,2,0,1,5c9cb670b472d0001295f377,606a2fb13c0e7c91a79b5a39,2021-04-05_00h30.50.550,Colour_Similarity_Experiment,2020.2.10,Win32,60,60675255c767bca6388caeee,26.77245509,22.96444444,21.25227964,22.36607893,24.32572993,22.96444444,,,,,,,,,,,,,,,,,,,,,,,,,,,,,,,,,,,,,,,,,,,,,,,,,,,,,,,,,,,,,,,,,,,,,,,,,,,,,,,,,,,,,,,,,,,,,,,,,,,,,,,,,,,,,,,,,
,,,,,,,,,,,,,,,,,,,,,,,,,,,,,,,,,return,11.355,-571.671,1124.904012,3,0,3,0,1,5c9cb670b472d0001295f377,606a2fb13c0e7c91a79b5a39,2021-04-05_00h30.50.550,Colour_Similarity_Experiment,2020.2.10,Win32,60,60675255c767bca6388caeee,26.77245509,22.96444444,21.25227964,22.36607893,24.32572993,22.96444444,,,,,,,,,,,,,,,,,,,,,,,,,,,,,,,,,,,,,,,,,,,,,,,,,,,,,,,,,,,,,,,,,,,,,,,,,,,,,,,,,,,,,,,,,,,,,,,,,,,,,,,,,,,,,,,,,
,,,,,,,,,,,,,,,,,,,,,,,,,,,,,,,,,return,11.857,-610.602,1164.072936,4,0,4,0,1,5c9cb670b472d0001295f377,606a2fb13c0e7c91a79b5a39,2021-04-05_00h30.50.550,Colour_Similarity_Experiment,2020.2.10,Win32,60,60675255c767bca6388caeee,26.77245509,22.96444444,21.25227964,22.36607893,24.32572993,22.96444444,,,,,,,,,,,,,,,,,,,,,,,,,,,,,,,,,,,,,,,,,,,,,,,,,,,,,,,,,,,,,,,,,,,,,,,,,,,,,,,,,,,,,,,,,,,,,,,,,,,,,,,,,,,,,,,,,
,,,,,,,,,,,,,,,,,,,,,,,,,,,,,,,,,,,,,,,,,,5c9cb670b472d0001295f377,606a2fb13c0e7c91a79b5a39,2021-04-05_00h30.50.550,Colour_Similarity_Experiment,2020.2.10,Win32,60,60675255c767bca6388caeee,26.77245509,22.96444444,21.25227964,22.36607893,24.32572993,22.96444444,113,19.72421631,122.4873833,816.5825554,81.65825554,367.4621499,space,9.504,space,73.082,space,53.115,space,23.715,space,6.952,space,7.851,5,PF,2,strong,95.5,34.5,1,0,0,response1disk_5,4,6,7.561,10.5,9.5,1,0,0,rectangle_8,10.5,9.5,1,0,0,2,10.5,9.5,1,0,0,0,0,0,3,1,,,,,,,,,,,,,,,,,,,,,,,,,,,,,,,,,,,,,,,,,,,,,,,,,,,,,,,,,,,,
,,,,,,,,,,,,,,,,,,,,,,,,,,,,,,,,,,,,,,,,,,5c9cb670b472d0001295f377,606a2fb13c0e7c91a79b5a39,2021-04-05_00h30.50.550,Colour_Similarity_Experiment,2020.2.10,Win32,60,60675255c767bca6388caeee,26.77245509,22.96444444,21.25227964,22.36607893,24.32572993,22.96444444,,,,,,,,,,,,,,,,,,,2,PF,2,strong,40.5,-81.5,1,0,0,response3disk_5,8,4,7.937,5.5,-3.5,1,0,0,rectangle_8,5.5,-3.5,1,0,0,2,5.5,-3.5,1,0,0,0,1,1,2,1,,,,,,,,,,,,,,,,,,,,,,,,,,,,,,,,,,,,,,,,,,,,,,,,,,,,,,,,,,,,
,,,,,,,,,,,,,,,,,,,,,,,,,,,,,,,,,,,,,,,,,,5c9cb670b472d0001295f377,606a2fb13c0e7c91a79b5a39,2021-04-05_00h30.50.550,Colour_Similarity_Experiment,2020.2.10,Win32,60,60675255c767bca6388caeee,26.77245509,22.96444444,21.25227964,22.36607893,24.32572993,22.96444444,,,,,,,,,,,,,,,,,,,8,PF,2,weak,-74.5,-32.5,1,0,0,response5disk_5,7,2,4.948,-1.5,-6.5,1,0,0,rectangle_8,-1.5,-6.5,1,0,0,2,-1.5,-6.5,1,0,0,0,2,2,4,1,,,,,,,,,,,,,,,,,,,,,,,,,,,,,,,,,,,,,,,,,,,,,,,,,,,,,,,,,,,,
,,,,,,,,,,,,,,,,,,,,,,,,,,,,,,,,,,,,,,,,,,5c9cb670b472d0001295f377,606a2fb13c0e7c91a79b5a39,2021-04-05_00h30.50.550,Colour_Similarity_Experiment,2020.2.10,Win32,60,60675255c767bca6388caeee,26.77245509,22.96444444,21.25227964,22.36607893,24.32572993,22.96444444,,,,,,,,,,,,,,,,,,,1,PF,2,weak,-38.5,-71.5,1,0,0,response5disk_5,7,3,3.072,-2.5,-0.5,1,0,0,rectangle_8,-92.5,-29.5,1,0,0,2,9.5,3.5,1,0,0,0,3,3,6,1,response5disk_7,rectangle_4,,,,,,,,,,,,,,,,,,,,,,,,,,,,,,,,,,,,,,,,,,,,,,,,,,,,,,,,,,
,,,,,,,,,,,,,,,,,,,,,,,,,,,,,,,,,,,,,,,,,,5c9cb670b472d0001295f377,606a2fb13c0e7c91a79b5a39,2021-04-05_00h30.50.550,Colour_Similarity_Experiment,2020.2.10,Win32,60,60675255c767bca6388caeee,26.77245509,22.96444444,21.25227964,22.36607893,24.32572993,22.96444444,,,,,,,,,,,,,,,,,,,1,PF,2,strong,53.5,83.5,1,0,0,response1disk_5,6,7,4.096,10.5,-1.5,1,0,0,rectangle_8,-72.5,-38.5,1,0,0,2,10.5,-3.5,1,0,0,0,4,4,0,1,response5disk_7,rectangle_4,,,,,,,,,,,,,,,,,,,,,,,,,,,,,,,,,,,,,,,,,,,,,,,,,,,,,,,,,,
,,,,,,,,,,,,,,,,,,,,,,,,,,,,,,,,,,,,,,,,,,5c9cb670b472d0001295f377,606a2fb13c0e7c91a79b5a39,2021-04-05_00h30.50.550,Colour_Similarity_Experiment,2020.2.10,Win32,60,60675255c767bca6388caeee,26.77245509,22.96444444,21.25227964,22.36607893,24.32572993,22.96444444,,,,,,,,,,,,,,,,,,,8,PF,2,weak,38.5,-94.5,1,0,0,response3disk_5,1,4,2.663,-0.5,0.5,1,0,0,rectangle_8,-0.5,0.5,1,0,0,2,-0.5,0.5,1,0,0,0,5,5,5,1,,,,,,,,,,,,,,,,,,,,,,,,,,,,,,,,,,,,,,,,,,,,,,,,,,,,,,,,,,,,
,,,,,,,,,,,,,,,,,,,,,,,,,,,,,,,,,,,,,,,,,,5c9cb670b472d0001295f377,606a2fb13c0e7c91a79b5a39,2021-04-05_00h30.50.550,Colour_Similarity_Experiment,2020.2.10,Win32,60,60675255c767bca6388caeee,26.77245509,22.96444444,21.25227964,22.36607893,24.32572993,22.96444444,,,,,,,,,,,,,,,,,,,7,PF,2,weak,69.5,-34.5,1,0,0,response3disk_5,5,5,2.771,1.5,1.5,1,0,0,rectangle_8,1.5,1.5,1,0,0,2,1.5,1.5,1,0,0,0,6,6,1,1,,,,,,,,,,,,,,,,,,,,,,,,,,,,,,,,,,,,,,,,,,,,,,,,,,,,,,,,,,,,
,,,,,,,,,,,,,,,,,,,,,,,,,,,,,,,,,,,,,,,,,,5c9cb670b472d0001295f377,606a2fb13c0e7c91a79b5a39,2021-04-05_00h30.50.550,Colour_Similarity_Experiment,2020.2.10,Win32,60,60675255c767bca6388caeee,26.77245509,22.96444444,21.25227964,22.36607893,24.32572993,22.96444444,,,,,,,,,,,,,,,,,,,,PF,2,strong,,,,,,,,4,2.31,,,,,,,,,,,,,,,,,,,,,,,,,space,6.281,9,strong,40.5,-91.5,1,0,0,response3disk,8,1,2.5,0.5,1,0,0,rectangle,2.5,0.5,1,0,0,,2,0.007,2.5,0.5,1,0,0,0,0,0,6,1,0,,,,,,,,,,,,,,,,,,,,,
,,,,,,,,,,,,,,,,,,,,,,,,,,,,,,,,,,,,,,,,,,5c9cb670b472d0001295f377,606a2fb13c0e7c91a79b5a39,2021-04-05_00h30.50.550,Colour_Similarity_Experiment,2020.2.10,Win32,60,60675255c767bca6388caeee,26.77245509,22.96444444,21.25227964,22.36607893,24.32572993,22.96444444,,,,,,,,,,,,,,,,,,,,PF,2,strong,,,,,,,,2,4.946,,,,,,,,,,,,,,,,,,,,,,,,,,,6,strong,-71.5,-53.5,1,0,0,response5disk,5,2,-3.5,-1.5,1,0,0,rectangle,-3.5,-1.5,1,0,0,,1,0.006,-3.5,-1.5,1,0,0,0,1,1,126,1,0,,,,,,,,,,,,,,,,,,,,,
,,,,,,,,,,,,,,,,,,,,,,,,,,,,,,,,,,,,,,,,,,5c9cb670b472d0001295f377,606a2fb13c0e7c91a79b5a39,2021-04-05_00h30.50.550,Colour_Similarity_Experiment,2020.2.10,Win32,60,60675255c767bca6388caeee,26.77245509,22.96444444,21.25227964,22.36607893,24.32572993,22.96444444,,,,,,,,,,,,,,,,,,,,PF,2,weak,,,,,,,,3,1.916,,,,,,,,,,,,,,,,,,,,,,,,,,,8,weak,-42.5,-94.5,1,0,0,response5disk,9,3,2.5,1.5,1,0,0,rectangle,2.5,1.5,1,0,0,,6,0.004,2.5,1.5,1,0,0,0,2,2,42,1,0,,,,,,,,,,,,,,,,,,,,,
,,,,,,,,,,,,,,,,,,,,,,,,,,,,,,,,,,,,,,,,,,5c9cb670b472d0001295f377,606a2fb13c0e7c91a79b5a39,2021-04-05_00h30.50.550,Colour_Similarity_Experiment,2020.2.10,Win32,60,60675255c767bca6388caeee,26.77245509,22.96444444,21.25227964,22.36607893,24.32572993,22.96444444,,,,,,,,,,,,,,,,,,,,PF,2,weak,,,,,,,,3,1.589,,,,,,,,,,,,,,,,,,,,,,,,,,,5,weak,-38.5,-86.5,1,0,0,response5disk,9,4,8.5,-4.5,1,0,0,rectangle,23.5,-95.5,1,0,0,4,4,2.986,0.5,-3.5,1,0,0,0,3,3,136,1,1,response3disk_3,rectangle,,,,,,,,,,,,,,,,,,,
,,,,,,,,,,,,,,,,,,,,,,,,,,,,,,,,,,,,,,,,,,5c9cb670b472d0001295f377,606a2fb13c0e7c91a79b5a39,2021-04-05_00h30.50.550,Colour_Similarity_Experiment,2020.2.10,Win32,60,60675255c767bca6388caeee,26.77245509,22.96444444,21.25227964,22.36607893,24.32572993,22.96444444,,,,,,,,,,,,,,,,,,,,PF,2,strong,,,,,,,,4,2.027,,,,,,,,,,,,,,,,,,,,,,,,,,,1,strong,35.5,-92.5,1,0,0,response3disk,8,5,3.5,-5.5,1,0,0,rectangle,3.5,-5.5,1,0,0,4,4,0.001,3.5,-5.5,1,0,0,0,4,4,27,1,0,,,,,,,,,,,,,,,,,,,,,
,,,,,,,,,,,,,,,,,,,,,,,,,,,,,,,,,,,,,,,,,,5c9cb670b472d0001295f377,606a2fb13c0e7c91a79b5a39,2021-04-05_00h30.50.550,Colour_Similarity_Experiment,2020.2.10,Win32,60,60675255c767bca6388caeee,26.77245509,22.96444444,21.25227964,22.36607893,24.32572993,22.96444444,,,,,,,,,,,,,,,,,,,,PF,2,weak,,,,,,,,5,2.195,,,,,,,,,,,,,,,,,,,,,,,,,,,7,weak,79.5,-62.5,1,0,0,response3disk,3,6,-7.5,1.5,1,0,0,rectangle,-7.5,1.5,1,0,0,4,4,0.001,-7.5,1.5,1,0,0,0,5,5,81,1,0,,,,,,,,,,,,,,,,,,,,,
,,,,,,,,,,,,,,,,,,,,,,,,,,,,,,,,,,,,,,,,,,5c9cb670b472d0001295f377,606a2fb13c0e7c91a79b5a39,2021-04-05_00h30.50.550,Colour_Similarity_Experiment,2020.2.10,Win32,60,60675255c767bca6388caeee,26.77245509,22.96444444,21.25227964,22.36607893,24.32572993,22.96444444,,,,,,,,,,,,,,,,,,,,PF,2,strong,,,,,,,,3,3.358,,,,,,,,,,,,,,,,,,,,,,,,,,,9,strong,-45.5,-96.5,1,0,0,response5disk,3,7,-9.5,0.5,1,0,0,rectangle,-9.5,0.5,1,0,0,4,4,0.001,-9.5,0.5,1,0,0,0,6,6,141,1,0,,,,,,,,,,,,,,,,,,,,,
,,,,,,,,,,,,,,,,,,,,,,,,,,,,,,,,,,,,,,,,,,5c9cb670b472d0001295f377,606a2fb13c0e7c91a79b5a39,2021-04-05_00h30.50.550,Colour_Similarity_Experiment,2020.2.10,Win32,60,60675255c767bca6388caeee,26.77245509,22.96444444,21.25227964,22.36607893,24.32572993,22.96444444,,,,,,,,,,,,,,,,,,,,PF,2,strong,,,,,,,,4,1.596,,,,,,,,,,,,,,,,,,,,,,,,,,,4,strong,25.5,-92.5,1,0,0,response3disk,9,8,1.5,-2.5,1,0,0,rectangle,1.5,-2.5,1,0,0,4,7,0.003,1.5,-2.5,1,0,0,0,7,7,90,1,0,,,,,,,,,,,,,,,,,,,,,
,,,,,,,,,,,,,,,,,,,,,,,,,,,,,,,,,,,,,,,,,,5c9cb670b472d0001295f377,606a2fb13c0e7c91a79b5a39,2021-04-05_00h30.50.550,Colour_Similarity_Experiment,2020.2.10,Win32,60,60675255c767bca6388caeee,26.77245509,22.96444444,21.25227964,22.36607893,24.32572993,22.96444444,,,,,,,,,,,,,,,,,,,,PF,2,strong,,,,,,,,2,2.433,,,,,,,,,,,,,,,,,,,,,,,,,,,9,strong,-90.5,-29.5,1,0,0,response5disk,1,9,-4.5,-2.5,1,0,0,rectangle,-4.5,-2.5,1,0,0,4,0,0.003,-4.5,-2.5,1,0,0,0,8,8,111,1,0,,,,,,,,,,,,,,,,,,,,,
,,,,,,,,,,,,,,,,,,,,,,,,,,,,,,,,,,,,,,,,,,5c9cb670b472d0001295f377,606a2fb13c0e7c91a79b5a39,2021-04-05_00h30.50.550,Colour_Similarity_Experiment,2020.2.10,Win32,60,60675255c767bca6388caeee,26.77245509,22.96444444,21.25227964,22.36607893,24.32572993,22.96444444,,,,,,,,,,,,,,,,,,,,PF,2,strong,,,,,,,,6,1.781,,,,,,,,,,,,,,,,,,,,,,,,,,,2,strong,90.5,46.5,1,0,0,response1disk,8,10,4.5,-5.5,1,0,0,rectangle,4.5,-5.5,1,0,0,4,4,0.004,4.5,-5.5,1,0,0,0,9,9,62,1,0,,,,,,,,,,,,,,,,,,,,,
,,,,,,,,,,,,,,,,,,,,,,,,,,,,,,,,,,,,,,,,,,5c9cb670b472d0001295f377,606a2fb13c0e7c91a79b5a39,2021-04-05_00h30.50.550,Colour_Similarity_Experiment,2020.2.10,Win32,60,60675255c767bca6388caeee,26.77245509,22.96444444,21.25227964,22.36607893,24.32572993,22.96444444,,,,,,,,,,,,,,,,,,,,PF,2,weak,,,,,,,,4,1.492,,,,,,,,,,,,,,,,,,,,,,,,,,,6,weak,33.5,-81.5,1,0,0,response3disk,5,11,4.5,-2.5,1,0,0,rectangle,4.5,-2.5,1,0,0,4,7,0.003,4.5,-2.5,1,0,0,0,10,10,59,1,0,,,,,,,,,,,,,,,,,,,,,
,,,,,,,,,,,,,,,,,,,,,,,,,,,,,,,,,,,,,,,,,,5c9cb670b472d0001295f377,606a2fb13c0e7c91a79b5a39,2021-04-05_00h30.50.550,Colour_Similarity_Experiment,2020.2.10,Win32,60,60675255c767bca6388caeee,26.77245509,22.96444444,21.25227964,22.36607893,24.32572993,22.96444444,,,,,,,,,,,,,,,,,,,,PF,2,strong,,,,,,,,4,1.513,,,,,,,,,,,,,,,,,,,,,,,,,,,2,strong,43.5,-104.5,1,0,0,response3disk,5,12,0.5,-6.5,1,0,0,rectangle,0.5,-6.5,1,0,0,4,2,0.005,0.5,-6.5,1,0,0,0,11,11,80,1,0,,,,,,,,,,,,,,,,,,,,,
,,,,,,,,,,,,,,,,,,,,,,,,,,,,,,,,,,,,,,,,,,5c9cb670b472d0001295f377,606a2fb13c0e7c91a79b5a39,2021-04-05_00h30.50.550,Colour_Similarity_Experiment,2020.2.10,Win32,60,60675255c767bca6388caeee,26.77245509,22.96444444,21.25227964,22.36607893,24.32572993,22.96444444,,,,,,,,,,,,,,,,,,,,PF,2,weak,,,,,,,,3,1.55,,,,,,,,,,,,,,,,,,,,,,,,,,,7,weak,-37.5,-84.5,1,0,0,response5disk,7,13,4.5,0.5,1,0,0,rectangle,4.5,0.5,1,0,0,4,2,0.001,4.5,0.5,1,0,0,0,12,12,51,1,0,,,,,,,,,,,,,,,,,,,,,
,,,,,,,,,,,,,,,,,,,,,,,,,,,,,,,,,,,,,,,,,,5c9cb670b472d0001295f377,606a2fb13c0e7c91a79b5a39,2021-04-05_00h30.50.550,Colour_Similarity_Experiment,2020.2.10,Win32,60,60675255c767bca6388caeee,26.77245509,22.96444444,21.25227964,22.36607893,24.32572993,22.96444444,,,,,,,,,,,,,,,,,,,,PF,2,weak,,,,,,,,4,1.241,,,,,,,,,,,,,,,,,,,,,,,,,,,8,weak,38.5,-89.5,1,0,0,response3disk,4,14,11.5,3.5,1,0,0,rectangle,11.5,3.5,1,0,0,4,5,0.003,11.5,3.5,1,0,0,0,13,13,78,1,0,,,,,,,,,,,,,,,,,,,,,
,,,,,,,,,,,,,,,,,,,,,,,,,,,,,,,,,,,,,,,,,,5c9cb670b472d0001295f377,606a2fb13c0e7c91a79b5a39,2021-04-05_00h30.50.550,Colour_Similarity_Experiment,2020.2.10,Win32,60,60675255c767bca6388caeee,26.77245509,22.96444444,21.25227964,22.36607893,24.32572993,22.96444444,,,,,,,,,,,,,,,,,,,,PF,2,strong,,,,,,,,3,1.764,,,,,,,,,,,,,,,,,,,,,,,,,,,8,strong,-40.5,-68.5,1,0,0,response5disk,1,15,13.5,-5.5,1,0,0,rectangle,13.5,-5.5,1,0,0,4,0,0.003,13.5,-5.5,1,0,0,0,14,14,20,1,0,,,,,,,,,,,,,,,,,,,,,
,,,,,,,,,,,,,,,,,,,,,,,,,,,,,,,,,,,,,,,,,,5c9cb670b472d0001295f377,606a2fb13c0e7c91a79b5a39,2021-04-05_00h30.50.550,Colour_Similarity_Experiment,2020.2.10,Win32,60,60675255c767bca6388caeee,26.77245509,22.96444444,21.25227964,22.36607893,24.32572993,22.96444444,,,,,,,,,,,,,,,,,,,,PF,2,strong,,,,,,,,7,1.318,,,,,,,,,,,,,,,,,,,,,,,,,,,4,strong,40.5,67.5,1,0,0,response1disk,8,16,6.5,-1.5,1,0,0,rectangle,6.5,-1.5,1,0,0,4,4,0.002,6.5,-1.5,1,0,0,0,15,15,35,1,0,,,,,,,,,,,,,,,,,,,,,
,,,,,,,,,,,,,,,,,,,,,,,,,,,,,,,,,,,,,,,,,,5c9cb670b472d0001295f377,606a2fb13c0e7c91a79b5a39,2021-04-05_00h30.50.550,Colour_Similarity_Experiment,2020.2.10,Win32,60,60675255c767bca6388caeee,26.77245509,22.96444444,21.25227964,22.36607893,24.32572993,22.96444444,,,,,,,,,,,,,,,,,,,,PF,2,strong,,,,,,,,2,1.466,,,,,,,,,,,,,,,,,,,,,,,,,,,4,strong,-81.5,-42.5,1,0,0,response5disk,3,17,3.5,-3.5,1,0,0,rectangle,3.5,-3.5,1,0,0,4,7,0.008,3.5,-3.5,1,0,0,0,16,16,77,1,0,,,,,,,,,,,,,,,,,,,,,
,,,,,,,,,,,,,,,,,,,,,,,,,,,,,,,,,,,,,,,,,,5c9cb670b472d0001295f377,606a2fb13c0e7c91a79b5a39,2021-04-05_00h30.50.550,Colour_Similarity_Experiment,2020.2.10,Win32,60,60675255c767bca6388caeee,26.77245509,22.96444444,21.25227964,22.36607893,24.32572993,22.96444444,,,,,,,,,,,,,,,,,,,,PF,2,strong,,,,,,,,2,1.539,,,,,,,,,,,,,,,,,,,,,,,,,,,2,strong,-99.5,-42.5,1,0,0,response5disk,3,18,4.5,-0.5,1,0,0,rectangle,-90.5,-41.5,1,0,0,4,2,2.587,-10.5,-2.5,1,0,0,0,17,17,104,1,1,response5disk_3,rectangle,,,,,,,,,,,,,,,,,,,
,,,,,,,,,,,,,,,,,,,,,,,,,,,,,,,,,,,,,,,,,,5c9cb670b472d0001295f377,606a2fb13c0e7c91a79b5a39,2021-04-05_00h30.50.550,Colour_Similarity_Experiment,2020.2.10,Win32,60,60675255c767bca6388caeee,26.77245509,22.96444444,21.25227964,22.36607893,24.32572993,22.96444444,,,,,,,,,,,,,,,,,,,,PF,2,weak,,,,,,,,3,1.461,,,,,,,,,,,,,,,,,,,,,,,,,,,9,weak,-49.5,-69.5,1,0,0,response5disk,8,19,0.5,5.5,1,0,0,rectangle,0.5,5.5,1,0,0,4,1,0.004,0.5,5.5,1,0,0,0,18,18,67,1,0,,,,,,,,,,,,,,,,,,,,,
,,,,,,,,,,,,,,,,,,,,,,,,,,,,,,,,,,,,,,,,,,5c9cb670b472d0001295f377,606a2fb13c0e7c91a79b5a39,2021-04-05_00h30.50.550,Colour_Similarity_Experiment,2020.2.10,Win32,60,60675255c767bca6388caeee,26.77245509,22.96444444,21.25227964,22.36607893,24.32572993,22.96444444,,,,,,,,,,,,,,,,,,,,PF,2,weak,,,,,,,,3,1.582,,,,,,,,,,,,,,,,,,,,,,,,,,,4,weak,-51.5,-74.5,1,0,0,response5disk,5,20,-3.5,0.5,1,0,0,rectangle,-3.5,0.5,1,0,0,4,3,0.006,-3.5,0.5,1,0,0,0,19,19,49,1,0,,,,,,,,,,,,,,,,,,,,,
,,,,,,,,,,,,,,,,,,,,,,,,,,,,,,,,,,,,,,,,,,5c9cb670b472d0001295f377,606a2fb13c0e7c91a79b5a39,2021-04-05_00h30.50.550,Colour_Similarity_Experiment,2020.2.10,Win32,60,60675255c767bca6388caeee,26.77245509,22.96444444,21.25227964,22.36607893,24.32572993,22.96444444,,,,,,,,,,,,,,,,,,,,PF,2,weak,,,,,,,,4,1.274,,,,,,,,,,,,,,,,,,,,,,,,,,,3,weak,35.5,-98.5,1,0,0,response3disk,8,21,1.5,-0.5,1,0,0,rectangle,1.5,-0.5,1,0,0,4,5,0.006,1.5,-0.5,1,0,0,0,20,20,3,1,0,,,,,,,,,,,,,,,,,,,,,
,,,,,,,,,,,,,,,,,,,,,,,,,,,,,,,,,,,,,,,,,,5c9cb670b472d0001295f377,606a2fb13c0e7c91a79b5a39,2021-04-05_00h30.50.550,Colour_Similarity_Experiment,2020.2.10,Win32,60,60675255c767bca6388caeee,26.77245509,22.96444444,21.25227964,22.36607893,24.32572993,22.96444444,,,,,,,,,,,,,,,,,,,,PF,2,weak,,,,,,,,3,1.399,,,,,,,,,,,,,,,,,,,,,,,,,,,4,weak,-25.5,-96.5,1,0,0,response5disk,2,22,2.5,0.5,1,0,0,rectangle,2.5,0.5,1,0,0,4,2,0.004,2.5,0.5,1,0,0,0,21,21,108,1,0,,,,,,,,,,,,,,,,,,,,,
,,,,,,,,,,,,,,,,,,,,,,,,,,,,,,,,,,,,,,,,,,5c9cb670b472d0001295f377,606a2fb13c0e7c91a79b5a39,2021-04-05_00h30.50.550,Colour_Similarity_Experiment,2020.2.10,Win32,60,60675255c767bca6388caeee,26.77245509,22.96444444,21.25227964,22.36607893,24.32572993,22.96444444,,,,,,,,,,,,,,,,,,,,PF,2,weak,,,,,,,,3,1.473,,,,,,,,,,,,,,,,,,,,,,,,,,,1,weak,-15.5,-74.5,1,0,0,response5disk,7,23,-1.5,10.5,1,0,0,rectangle,-1.5,10.5,1,0,0,4,1,0.004,-1.5,10.5,1,0,0,0,22,22,150,1,0,,,,,,,,,,,,,,,,,,,,,
,,,,,,,,,,,,,,,,,,,,,,,,,,,,,,,,,,,,,,,,,,5c9cb670b472d0001295f377,606a2fb13c0e7c91a79b5a39,2021-04-05_00h30.50.550,Colour_Similarity_Experiment,2020.2.10,Win32,60,60675255c767bca6388caeee,26.77245509,22.96444444,21.25227964,22.36607893,24.32572993,22.96444444,,,,,,,,,,,,,,,,,,,,PF,2,weak,,,,,,,,2,1.198,,,,,,,,,,,,,,,,,,,,,,,,,,,3,weak,-84.5,-45.5,1,0,0,response5disk,4,24,20.5,0.5,1,0,0,rectangle,20.5,0.5,1,0,0,4,5,0.004,20.5,0.5,1,0,0,0,23,23,30,1,0,,,,,,,,,,,,,,,,,,,,,
,,,,,,,,,,,,,,,,,,,,,,,,,,,,,,,,,,,,,,,,,,5c9cb670b472d0001295f377,606a2fb13c0e7c91a79b5a39,2021-04-05_00h30.50.550,Colour_Similarity_Experiment,2020.2.10,Win32,60,60675255c767bca6388caeee,26.77245509,22.96444444,21.25227964,22.36607893,24.32572993,22.96444444,,,,,,,,,,,,,,,,,,,,PF,2,strong,,,,,,,,5,1.295,,,,,,,,,,,,,,,,,,,,,,,,,,,3,strong,72.5,-45.5,1,0,0,response3disk,6,25,-14.5,0.5,1,0,0,rectangle,-14.5,0.5,1,0,0,4,1,0.004,-14.5,0.5,1,0,0,0,24,24,95,1,0,,,,,,,,,,,,,,,,,,,,,
,,,,,,,,,,,,,,,,,,,,,,,,,,,,,,,,,,,,,,,,,,5c9cb670b472d0001295f377,606a2fb13c0e7c91a79b5a39,2021-04-05_00h30.50.550,Colour_Similarity_Experiment,2020.2.10,Win32,60,60675255c767bca6388caeee,26.77245509,22.96444444,21.25227964,22.36607893,24.32572993,22.96444444,,,,,,,,,,,,,,,,,,,,PF,2,strong,,,,,,,,3,1.849,,,,,,,,,,,,,,,,,,,,,,,,,,,9,strong,-36.5,-71.5,1,0,0,response5disk,2,26,-3.5,7.5,1,0,0,rectangle,76.5,33.5,1,0,0,6,6,2.803,-9.5,3.5,1,0,0,0,25,25,11,1,1,response1disk_3,rectangle,,,,,,,,,,,,,,,,,,,
,,,,,,,,,,,,,,,,,,,,,,,,,,,,,,,,,,,,,,,,,,5c9cb670b472d0001295f377,606a2fb13c0e7c91a79b5a39,2021-04-05_00h30.50.550,Colour_Similarity_Experiment,2020.2.10,Win32,60,60675255c767bca6388caeee,26.77245509,22.96444444,21.25227964,22.36607893,24.32572993,22.96444444,,,,,,,,,,,,,,,,,,,,PF,2,strong,,,,,,,,3,1.878,,,,,,,,,,,,,,,,,,,,,,,,,,,1,strong,-33.5,-70.5,1,0,0,response5disk,4,27,8.5,-3.5,1,0,0,rectangle,8.5,-3.5,1,0,0,6,7,0.004,8.5,-3.5,1,0,0,0,26,26,135,1,0,,,,,,,,,,,,,,,,,,,,,
,,,,,,,,,,,,,,,,,,,,,,,,,,,,,,,,,,,,,,,,,,5c9cb670b472d0001295f377,606a2fb13c0e7c91a79b5a39,2021-04-05_00h30.50.550,Colour_Similarity_Experiment,2020.2.10,Win32,60,60675255c767bca6388caeee,26.77245509,22.96444444,21.25227964,22.36607893,24.32572993,22.96444444,,,,,,,,,,,,,,,,,,,,PF,2,weak,,,,,,,,3,1.784,,,,,,,,,,,,,,,,,,,,,,,,,,,5,weak,-53.5,-81.5,1,0,0,response5disk,8,28,-2.5,3.5,1,0,0,rectangle,-2.5,3.5,1,0,0,6,2,0.003,-2.5,3.5,1,0,0,0,27,27,149,1,0,,,,,,,,,,,,,,,,,,,,,
,,,,,,,,,,,,,,,,,,,,,,,,,,,,,,,,,,,,,,,,,,5c9cb670b472d0001295f377,606a2fb13c0e7c91a79b5a39,2021-04-05_00h30.50.550,Colour_Similarity_Experiment,2020.2.10,Win32,60,60675255c767bca6388caeee,26.77245509,22.96444444,21.25227964,22.36607893,24.32572993,22.96444444,,,,,,,,,,,,,,,,,,,,PF,2,weak,,,,,,,,3,1.393,,,,,,,,,,,,,,,,,,,,,,,,,,,7,weak,-29.5,-82.5,1,0,0,response5disk,1,29,2.5,7.5,1,0,0,rectangle,2.5,7.5,1,0,0,6,2,0.001,2.5,7.5,1,0,0,0,28,28,53,1,0,,,,,,,,,,,,,,,,,,,,,
,,,,,,,,,,,,,,,,,,,,,,,,,,,,,,,,,,,,,,,,,,5c9cb670b472d0001295f377,606a2fb13c0e7c91a79b5a39,2021-04-05_00h30.50.550,Colour_Similarity_Experiment,2020.2.10,Win32,60,60675255c767bca6388caeee,26.77245509,22.96444444,21.25227964,22.36607893,24.32572993,22.96444444,,,,,,,,,,,,,,,,,,,,PF,2,strong,,,,,,,,4,1.155,,,,,,,,,,,,,,,,,,,,,,,,,,,8,strong,23.5,-67.5,1,0,0,response3disk,6,30,6.5,-2.5,1,0,0,rectangle,6.5,-2.5,1,0,0,6,0,0.003,6.5,-2.5,1,0,0,0,29,29,37,1,0,,,,,,,,,,,,,,,,,,,,,
,,,,,,,,,,,,,,,,,,,,,,,,,,,,,,,,,,,,,,,,,,5c9cb670b472d0001295f377,606a2fb13c0e7c91a79b5a39,2021-04-05_00h30.50.550,Colour_Similarity_Experiment,2020.2.10,Win32,60,60675255c767bca6388caeee,26.77245509,22.96444444,21.25227964,22.36607893,24.32572993,22.96444444,,,,,,,,,,,,,,,,,,,,PF,2,strong,,,,,,,,6,1.643,,,,,,,,,,,,,,,,,,,,,,,,,,,4,strong,73.5,43.5,1,0,0,response1disk,6,31,-0.5,-6.5,1,0,0,rectangle,-0.5,-6.5,1,0,0,6,4,0.007,-0.5,-6.5,1,0,0,0,30,30,122,1,0,,,,,,,,,,,,,,,,,,,,,
,,,,,,,,,,,,,,,,,,,,,,,,,,,,,,,,,,,,,,,,,,5c9cb670b472d0001295f377,606a2fb13c0e7c91a79b5a39,2021-04-05_00h30.50.550,Colour_Similarity_Experiment,2020.2.10,Win32,60,60675255c767bca6388caeee,26.77245509,22.96444444,21.25227964,22.36607893,24.32572993,22.96444444,,,,,,,,,,,,,,,,,,,,PF,2,weak,,,,,,,,5,1.157,,,,,,,,,,,,,,,,,,,,,,,,,,,2,weak,54.5,-34.5,1,0,0,response3disk,5,32,-3.5,-1.5,1,0,0,rectangle,-3.5,-1.5,1,0,0,6,6,0.003,-3.5,-1.5,1,0,0,0,31,31,147,1,0,,,,,,,,,,,,,,,,,,,,,
,,,,,,,,,,,,,,,,,,,,,,,,,,,,,,,,,,,,,,,,,,5c9cb670b472d0001295f377,606a2fb13c0e7c91a79b5a39,2021-04-05_00h30.50.550,Colour_Similarity_Experiment,2020.2.10,Win32,60,60675255c767bca6388caeee,26.77245509,22.96444444,21.25227964,22.36607893,24.32572993,22.96444444,,,,,,,,,,,,,,,,,,,,PF,2,strong,,,,,,,,1,1.995,,,,,,,,,,,,,,,,,,,,,,,,,,,6,strong,-61.5,28.5,1,0,0,response7disk,7,33,13.5,1.5,1,0,0,rectangle,13.5,1.5,1,0,0,6,5,0.004,13.5,1.5,1,0,0,0,32,32,18,1,0,,,,,,,,,,,,,,,,,,,,,
,,,,,,,,,,,,,,,,,,,,,,,,,,,,,,,,,,,,,,,,,,5c9cb670b472d0001295f377,606a2fb13c0e7c91a79b5a39,2021-04-05_00h30.50.550,Colour_Similarity_Experiment,2020.2.10,Win32,60,60675255c767bca6388caeee,26.77245509,22.96444444,21.25227964,22.36607893,24.32572993,22.96444444,,,,,,,,,,,,,,,,,,,,PF,2,strong,,,,,,,,6,1.359,,,,,,,,,,,,,,,,,,,,,,,,,,,2,strong,74.5,33.5,1,0,0,response1disk,4,34,4.5,6.5,1,0,0,rectangle,4.5,6.5,1,0,0,6,3,0.004,4.5,6.5,1,0,0,0,33,33,145,1,0,,,,,,,,,,,,,,,,,,,,,
,,,,,,,,,,,,,,,,,,,,,,,,,,,,,,,,,,,,,,,,,,5c9cb670b472d0001295f377,606a2fb13c0e7c91a79b5a39,2021-04-05_00h30.50.550,Colour_Similarity_Experiment,2020.2.10,Win32,60,60675255c767bca6388caeee,26.77245509,22.96444444,21.25227964,22.36607893,24.32572993,22.96444444,,,,,,,,,,,,,,,,,,,,PF,2,weak,,,,,,,,5,1.126,,,,,,,,,,,,,,,,,,,,,,,,,,,9,weak,52.5,-29.5,1,0,0,response3disk,3,35,0.5,0.5,1,0,0,rectangle,0.5,0.5,1,0,0,6,1,0.007,0.5,0.5,1,0,0,0,34,34,119,1,0,,,,,,,,,,,,,,,,,,,,,
,,,,,,,,,,,,,,,,,,,,,,,,,,,,,,,,,,,,,,,,,,5c9cb670b472d0001295f377,606a2fb13c0e7c91a79b5a39,2021-04-05_00h30.50.550,Colour_Similarity_Experiment,2020.2.10,Win32,60,60675255c767bca6388caeee,26.77245509,22.96444444,21.25227964,22.36607893,24.32572993,22.96444444,,,,,,,,,,,,,,,,,,,,PF,2,weak,,,,,,,,4,1.65,,,,,,,,,,,,,,,,,,,,,,,,,,,2,weak,40.5,-65.5,1,0,0,response3disk,9,36,-7.5,10.5,1,0,0,rectangle,-7.5,10.5,1,0,0,6,1,0.001,-7.5,10.5,1,0,0,0,35,35,39,1,0,,,,,,,,,,,,,,,,,,,,,
,,,,,,,,,,,,,,,,,,,,,,,,,,,,,,,,,,,,,,,,,,5c9cb670b472d0001295f377,606a2fb13c0e7c91a79b5a39,2021-04-05_00h30.50.550,Colour_Similarity_Experiment,2020.2.10,Win32,60,60675255c767bca6388caeee,26.77245509,22.96444444,21.25227964,22.36607893,24.32572993,22.96444444,,,,,,,,,,,,,,,,,,,,PF,2,strong,,,,,,,,2,1.836,,,,,,,,,,,,,,,,,,,,,,,,,,,8,strong,-68.5,-38.5,1,0,0,response5disk,7,37,-5.5,-4.5,1,0,0,rectangle,-5.5,-4.5,1,0,0,6,7,0.003,-5.5,-4.5,1,0,0,0,36,36,86,1,0,,,,,,,,,,,,,,,,,,,,,
,,,,,,,,,,,,,,,,,,,,,,,,,,,,,,,,,,,,,,,,,,5c9cb670b472d0001295f377,606a2fb13c0e7c91a79b5a39,2021-04-05_00h30.50.550,Colour_Similarity_Experiment,2020.2.10,Win32,60,60675255c767bca6388caeee,26.77245509,22.96444444,21.25227964,22.36607893,24.32572993,22.96444444,,,,,,,,,,,,,,,,,,,,PF,2,strong,,,,,,,,2,1.289,,,,,,,,,,,,,,,,,,,,,,,,,,,1,strong,-82.5,-33.5,1,0,0,response5disk,9,38,4.5,-0.5,1,0,0,rectangle,4.5,-0.5,1,0,0,6,6,0.004,4.5,-0.5,1,0,0,0,37,37,123,1,0,,,,,,,,,,,,,,,,,,,,,
,,,,,,,,,,,,,,,,,,,,,,,,,,,,,,,,,,,,,,,,,,5c9cb670b472d0001295f377,606a2fb13c0e7c91a79b5a39,2021-04-05_00h30.50.550,Colour_Similarity_Experiment,2020.2.10,Win32,60,60675255c767bca6388caeee,26.77245509,22.96444444,21.25227964,22.36607893,24.32572993,22.96444444,,,,,,,,,,,,,,,,,,,,PF,2,weak,,,,,,,,3,1.348,,,,,,,,,,,,,,,,,,,,,,,,,,,3,weak,-51.5,-64.5,1,0,0,response5disk,7,39,-4.5,-2.5,1,0,0,rectangle,-4.5,-2.5,1,0,0,6,5,0.005,-4.5,-2.5,1,0,0,0,38,38,41,1,0,,,,,,,,,,,,,,,,,,,,,
,,,,,,,,,,,,,,,,,,,,,,,,,,,,,,,,,,,,,,,,,,5c9cb670b472d0001295f377,606a2fb13c0e7c91a79b5a39,2021-04-05_00h30.50.550,Colour_Similarity_Experiment,2020.2.10,Win32,60,60675255c767bca6388caeee,26.77245509,22.96444444,21.25227964,22.36607893,24.32572993,22.96444444,,,,,,,,,,,,,,,,,,,,PF,2,weak,,,,,,,,5,2.307,,,,,,,,,,,,,,,,,,,,,,,,,,,1,weak,69.5,-47.5,1,0,0,response3disk,3,40,-7.5,-2.5,1,0,0,rectangle,-7.5,-2.5,1,0,0,6,3,0.003,-7.5,-2.5,1,0,0,0,39,39,1,1,0,,,,,,,,,,,,,,,,,,,,,
,,,,,,,,,,,,,,,,,,,,,,,,,,,,,,,,,,,,,,,,,,5c9cb670b472d0001295f377,606a2fb13c0e7c91a79b5a39,2021-04-05_00h30.50.550,Colour_Similarity_Experiment,2020.2.10,Win32,60,60675255c767bca6388caeee,26.77245509,22.96444444,21.25227964,22.36607893,24.32572993,22.96444444,,,,,,,,,,,,,,,,,,,,PF,2,weak,,,,,,,,4,1.129,,,,,,,,,,,,,,,,,,,,,,,,,,,8,weak,33.5,-62.5,1,0,0,response3disk,2,41,-9.5,0.5,1,0,0,rectangle,-9.5,0.5,1,0,0,6,7,0.004,-9.5,0.5,1,0,0,0,40,40,83,1,0,,,,,,,,,,,,,,,,,,,,,
,,,,,,,,,,,,,,,,,,,,,,,,,,,,,,,,,,,,,,,,,,5c9cb670b472d0001295f377,606a2fb13c0e7c91a79b5a39,2021-04-05_00h30.50.550,Colour_Similarity_Experiment,2020.2.10,Win32,60,60675255c767bca6388caeee,26.77245509,22.96444444,21.25227964,22.36607893,24.32572993,22.96444444,,,,,,,,,,,,,,,,,,,,PF,2,weak,,,,,,,,1,1.417,,,,,,,,,,,,,,,,,,,,,,,,,,,4,weak,-62.5,31.5,1,0,0,response7disk,3,42,8.5,-2.5,1,0,0,rectangle,8.5,-2.5,1,0,0,6,5,0.003,8.5,-2.5,1,0,0,0,41,41,89,1,0,,,,,,,,,,,,,,,,,,,,,
,,,,,,,,,,,,,,,,,,,,,,,,,,,,,,,,,,,,,,,,,,5c9cb670b472d0001295f377,606a2fb13c0e7c91a79b5a39,2021-04-05_00h30.50.550,Colour_Similarity_Experiment,2020.2.10,Win32,60,60675255c767bca6388caeee,26.77245509,22.96444444,21.25227964,22.36607893,24.32572993,22.96444444,,,,,,,,,,,,,,,,,,,,PF,2,weak,,,,,,,,5,1.115,,,,,,,,,,,,,,,,,,,,,,,,,,,3,weak,61.5,-47.5,1,0,0,response3disk,6,43,-15.5,3.5,1,0,0,rectangle,-15.5,3.5,1,0,0,6,6,0.003,-15.5,3.5,1,0,0,0,42,42,47,1,0,,,,,,,,,,,,,,,,,,,,,
,,,,,,,,,,,,,,,,,,,,,,,,,,,,,,,,,,,,,,,,,,5c9cb670b472d0001295f377,606a2fb13c0e7c91a79b5a39,2021-04-05_00h30.50.550,Colour_Similarity_Experiment,2020.2.10,Win32,60,60675255c767bca6388caeee,26.77245509,22.96444444,21.25227964,22.36607893,24.32572993,22.96444444,,,,,,,,,,,,,,,,,,,,PF,2,strong,,,,,,,,4,1.749,,,,,,,,,,,,,,,,,,,,,,,,,,,2,strong,36.5,-55.5,1,0,0,response3disk,1,44,1.5,-1.5,1,0,0,rectangle,1.5,-1.5,1,0,0,6,1,0.003,1.5,-1.5,1,0,0,0,43,43,85,1,0,,,,,,,,,,,,,,,,,,,,,
,,,,,,,,,,,,,,,,,,,,,,,,,,,,,,,,,,,,,,,,,,5c9cb670b472d0001295f377,606a2fb13c0e7c91a79b5a39,2021-04-05_00h30.50.550,Colour_Similarity_Experiment,2020.2.10,Win32,60,60675255c767bca6388caeee,26.77245509,22.96444444,21.25227964,22.36607893,24.32572993,22.96444444,,,,,,,,,,,,,,,,,,,,PF,2,strong,,,,,,,,5,1.005,,,,,,,,,,,,,,,,,,,,,,,,,,,3,strong,58.5,-38.5,1,0,0,response3disk,7,45,3.5,1.5,1,0,0,rectangle,3.5,1.5,1,0,0,6,5,0.003,3.5,1.5,1,0,0,0,44,44,118,1,0,,,,,,,,,,,,,,,,,,,,,
,,,,,,,,,,,,,,,,,,,,,,,,,,,,,,,,,,,,,,,,,,5c9cb670b472d0001295f377,606a2fb13c0e7c91a79b5a39,2021-04-05_00h30.50.550,Colour_Similarity_Experiment,2020.2.10,Win32,60,60675255c767bca6388caeee,26.77245509,22.96444444,21.25227964,22.36607893,24.32572993,22.96444444,,,,,,,,,,,,,,,,,,,,PF,2,strong,,,,,,,,6,1.349,,,,,,,,,,,,,,,,,,,,,,,,,,,7,strong,49.5,30.5,1,0,0,response1disk,2,46,6.5,5.5,1,0,0,rectangle,6.5,5.5,1,0,0,6,7,0.006,6.5,5.5,1,0,0,0,45,45,138,1,0,,,,,,,,,,,,,,,,,,,,,
,,,,,,,,,,,,,,,,,,,,,,,,,,,,,,,,,,,,,,,,,,5c9cb670b472d0001295f377,606a2fb13c0e7c91a79b5a39,2021-04-05_00h30.50.550,Colour_Similarity_Experiment,2020.2.10,Win32,60,60675255c767bca6388caeee,26.77245509,22.96444444,21.25227964,22.36607893,24.32572993,22.96444444,,,,,,,,,,,,,,,,,,,,PF,2,weak,,,,,,,,6,1.335,,,,,,,,,,,,,,,,,,,,,,,,,,,9,weak,57.5,25.5,1,0,0,response1disk,2,47,-3.5,5.5,1,0,0,rectangle,-3.5,5.5,1,0,0,6,5,0.003,-3.5,5.5,1,0,0,0,46,46,157,1,0,,,,,,,,,,,,,,,,,,,,,
,,,,,,,,,,,,,,,,,,,,,,,,,,,,,,,,,,,,,,,,,,5c9cb670b472d0001295f377,606a2fb13c0e7c91a79b5a39,2021-04-05_00h30.50.550,Colour_Similarity_Experiment,2020.2.10,Win32,60,60675255c767bca6388caeee,26.77245509,22.96444444,21.25227964,22.36607893,24.32572993,22.96444444,,,,,,,,,,,,,,,,,,,,PF,2,strong,,,,,,,,1,1.456,,,,,,,,,,,,,,,,,,,,,,,,,,,8,strong,-71.5,35.5,1,0,0,response7disk,8,48,-5.5,-1.5,1,0,0,rectangle,-5.5,-1.5,1,0,0,6,3,0.004,-5.5,-1.5,1,0,0,0,47,47,48,1,0,,,,,,,,,,,,,,,,,,,,,
,,,,,,,,,,,,,,,,,,,,,,,,,,,,,,,,,,,,,,,,,,5c9cb670b472d0001295f377,606a2fb13c0e7c91a79b5a39,2021-04-05_00h30.50.550,Colour_Similarity_Experiment,2020.2.10,Win32,60,60675255c767bca6388caeee,26.77245509,22.96444444,21.25227964,22.36607893,24.32572993,22.96444444,,,,,,,,,,,,,,,,,,,,PF,2,weak,,,,,,,,2,1.643,,,,,,,,,,,,,,,,,,,,,,,,,,,8,weak,-84.5,-31.5,1,0,0,response5disk,6,49,3.5,-2.5,1,0,0,rectangle,28.5,84.5,1,0,0,7,7,2.299,-5.5,4.5,1,0,0,0,48,48,161,1,1,response1disk_3,rectangle,,,,,,,,,,,,,,,,,,,
,,,,,,,,,,,,,,,,,,,,,,,,,,,,,,,,,,,,,,,,,,5c9cb670b472d0001295f377,606a2fb13c0e7c91a79b5a39,2021-04-05_00h30.50.550,Colour_Similarity_Experiment,2020.2.10,Win32,60,60675255c767bca6388caeee,26.77245509,22.96444444,21.25227964,22.36607893,24.32572993,22.96444444,,,,,,,,,,,,,,,,,,,,PF,2,weak,,,,,,,,4,1.168,,,,,,,,,,,,,,,,,,,,,,,,,,,8,weak,28.5,-65.5,1,0,0,response3disk,7,50,10.5,1.5,1,0,0,rectangle,10.5,1.5,1,0,0,7,3,0.002,10.5,1.5,1,0,0,0,49,49,23,1,0,,,,,,,,,,,,,,,,,,,,,
,,,,,,,,,,,,,,,,,,,,,,,,,,,,,,,,,,,,,,,,,,5c9cb670b472d0001295f377,606a2fb13c0e7c91a79b5a39,2021-04-05_00h30.50.550,Colour_Similarity_Experiment,2020.2.10,Win32,60,60675255c767bca6388caeee,26.77245509,22.96444444,21.25227964,22.36607893,24.32572993,22.96444444,,,,,,,,,,,,,,,,,,,,PF,2,strong,,,,,,,,7,1.782,,,,,,,,,,,,,,,,,,,,,,,,,,,1,strong,27.5,55.5,1,0,0,response1disk,6,51,7.5,2.5,1,0,0,rectangle,7.5,2.5,1,0,0,7,3,0.001,7.5,2.5,1,0,0,0,50,50,58,1,0,,,,,,,,,,,,,,,,,,,,,
,,,,,,,,,,,,,,,,,,,,,,,,,,,,,,,,,,,,,,,,,,5c9cb670b472d0001295f377,606a2fb13c0e7c91a79b5a39,2021-04-05_00h30.50.550,Colour_Similarity_Experiment,2020.2.10,Win32,60,60675255c767bca6388caeee,26.77245509,22.96444444,21.25227964,22.36607893,24.32572993,22.96444444,,,,,,,,,,,,,,,,,,,,PF,2,strong,,,,,,,,5,1.155,,,,,,,,,,,,,,,,,,,,,,,,,,,7,strong,46.5,-29.5,1,0,0,response3disk,5,52,9.5,0.5,1,0,0,rectangle,9.5,0.5,1,0,0,7,3,0.002,9.5,0.5,1,0,0,0,51,51,156,1,0,,,,,,,,,,,,,,,,,,,,,
,,,,,,,,,,,,,,,,,,,,,,,,,,,,,,,,,,,,,,,,,,5c9cb670b472d0001295f377,606a2fb13c0e7c91a79b5a39,2021-04-05_00h30.50.550,Colour_Similarity_Experiment,2020.2.10,Win32,60,60675255c767bca6388caeee,26.77245509,22.96444444,21.25227964,22.36607893,24.32572993,22.96444444,,,,,,,,,,,,,,,,,,,,PF,2,strong,,,,,,,,4,1.325,,,,,,,,,,,,,,,,,,,,,,,,,,,9,strong,42.5,-54.5,1,0,0,response3disk,7,53,13.5,1.5,1,0,0,rectangle,13.5,1.5,1,0,0,7,2,0.003,13.5,1.5,1,0,0,0,52,52,100,1,0,,,,,,,,,,,,,,,,,,,,,
,,,,,,,,,,,,,,,,,,,,,,,,,,,,,,,,,,,,,,,,,,5c9cb670b472d0001295f377,606a2fb13c0e7c91a79b5a39,2021-04-05_00h30.50.550,Colour_Similarity_Experiment,2020.2.10,Win32,60,60675255c767bca6388caeee,26.77245509,22.96444444,21.25227964,22.36607893,24.32572993,22.96444444,,,,,,,,,,,,,,,,,,,,PF,2,weak,,,,,,,,4,1.098,,,,,,,,,,,,,,,,,,,,,,,,,,,9,weak,25.5,-55.5,1,0,0,response3disk,9,54,5.5,5.5,1,0,0,rectangle,5.5,5.5,1,0,0,7,0,0.003,5.5,5.5,1,0,0,0,53,53,106,1,0,,,,,,,,,,,,,,,,,,,,,
,,,,,,,,,,,,,,,,,,,,,,,,,,,,,,,,,,,,,,,,,,5c9cb670b472d0001295f377,606a2fb13c0e7c91a79b5a39,2021-04-05_00h30.50.550,Colour_Similarity_Experiment,2020.2.10,Win32,60,60675255c767bca6388caeee,26.77245509,22.96444444,21.25227964,22.36607893,24.32572993,22.96444444,,,,,,,,,,,,,,,,,,,,PF,2,weak,,,,,,,,3,2.214,,,,,,,,,,,,,,,,,,,,,,,,,,,5,weak,-26.5,-65.5,1,0,0,response5disk,5,55,10.5,8.5,1,0,0,rectangle,10.5,8.5,1,0,0,7,7,0.003,10.5,8.5,1,0,0,0,54,54,94,1,0,,,,,,,,,,,,,,,,,,,,,
,,,,,,,,,,,,,,,,,,,,,,,,,,,,,,,,,,,,,,,,,,5c9cb670b472d0001295f377,606a2fb13c0e7c91a79b5a39,2021-04-05_00h30.50.550,Colour_Similarity_Experiment,2020.2.10,Win32,60,60675255c767bca6388caeee,26.77245509,22.96444444,21.25227964,22.36607893,24.32572993,22.96444444,,,,,,,,,,,,,,,,,,,,PF,2,strong,,,,,,,,7,1.616,,,,,,,,,,,,,,,,,,,,,,,,,,,5,strong,45.5,62.5,1,0,0,response1disk,8,56,3.5,-1.5,1,0,0,rectangle,3.5,-1.5,1,0,0,7,5,0.004,3.5,-1.5,1,0,0,0,55,55,16,1,0,,,,,,,,,,,,,,,,,,,,,
,,,,,,,,,,,,,,,,,,,,,,,,,,,,,,,,,,,,,,,,,,5c9cb670b472d0001295f377,606a2fb13c0e7c91a79b5a39,2021-04-05_00h30.50.550,Colour_Similarity_Experiment,2020.2.10,Win32,60,60675255c767bca6388caeee,26.77245509,22.96444444,21.25227964,22.36607893,24.32572993,22.96444444,,,,,,,,,,,,,,,,,,,,PF,2,weak,,,,,,,,2,1.499,,,,,,,,,,,,,,,,,,,,,,,,,,,1,weak,-63.5,-38.5,1,0,0,response5disk,4,57,3.5,-3.5,1,0,0,rectangle,3.5,-3.5,1,0,0,7,5,0,3.5,-3.5,1,0,0,0,56,56,139,1,0,,,,,,,,,,,,,,,,,,,,,
,,,,,,,,,,,,,,,,,,,,,,,,,,,,,,,,,,,,,,,,,,5c9cb670b472d0001295f377,606a2fb13c0e7c91a79b5a39,2021-04-05_00h30.50.550,Colour_Similarity_Experiment,2020.2.10,Win32,60,60675255c767bca6388caeee,26.77245509,22.96444444,21.25227964,22.36607893,24.32572993,22.96444444,,,,,,,,,,,,,,,,,,,,PF,2,weak,,,,,,,,4,1.092,,,,,,,,,,,,,,,,,,,,,,,,,,,3,weak,21.5,-67.5,1,0,0,response3disk,1,58,7.5,-6.5,1,0,0,rectangle,7.5,-6.5,1,0,0,7,0,0.007,7.5,-6.5,1,0,0,0,57,57,96,1,0,,,,,,,,,,,,,,,,,,,,,
,,,,,,,,,,,,,,,,,,,,,,,,,,,,,,,,,,,,,,,,,,5c9cb670b472d0001295f377,606a2fb13c0e7c91a79b5a39,2021-04-05_00h30.50.550,Colour_Similarity_Experiment,2020.2.10,Win32,60,60675255c767bca6388caeee,26.77245509,22.96444444,21.25227964,22.36607893,24.32572993,22.96444444,,,,,,,,,,,,,,,,,,,,PF,2,strong,,,,,,,,3,1.123,,,,,,,,,,,,,,,,,,,,,,,,,,,3,strong,-38.5,-45.5,1,0,0,response5disk,1,59,4.5,-0.5,1,0,0,rectangle,4.5,-0.5,1,0,0,7,5,0.004,4.5,-0.5,1,0,0,0,58,58,125,1,0,,,,,,,,,,,,,,,,,,,,,
,,,,,,,,,,,,,,,,,,,,,,,,,,,,,,,,,,,,,,,,,,5c9cb670b472d0001295f377,606a2fb13c0e7c91a79b5a39,2021-04-05_00h30.50.550,Colour_Similarity_Experiment,2020.2.10,Win32,60,60675255c767bca6388caeee,26.77245509,22.96444444,21.25227964,22.36607893,24.32572993,22.96444444,,,,,,,,,,,,,,,,,,,,PF,2,strong,,,,,,,,3,1.499,,,,,,,,,,,,,,,,,,,,,,,,,,,5,strong,-33.5,-63.5,1,0,0,response5disk,6,60,-2.5,1.5,1,0,0,rectangle,-2.5,1.5,1,0,0,7,7,0.003,-2.5,1.5,1,0,0,0,59,59,12,1,0,,,,,,,,,,,,,,,,,,,,,
,,,,,,,,,,,,,,,,,,,,,,,,,,,,,,,,,,,,,,,,,,5c9cb670b472d0001295f377,606a2fb13c0e7c91a79b5a39,2021-04-05_00h30.50.550,Colour_Similarity_Experiment,2020.2.10,Win32,60,60675255c767bca6388caeee,26.77245509,22.96444444,21.25227964,22.36607893,24.32572993,22.96444444,,,,,,,,,,,,,,,,,,,,PF,2,strong,,,,,,,,5,1.717,,,,,,,,,,,,,,,,,,,,,,,,,,,6,strong,70.5,-47.5,1,0,0,response3disk,8,61,-4.5,1.5,1,0,0,rectangle,-4.5,1.5,1,0,0,7,6,0.006,-4.5,1.5,1,0,0,0,60,60,133,1,0,,,,,,,,,,,,,,,,,,,,,
,,,,,,,,,,,,,,,,,,,,,,,,,,,,,,,,,,,,,,,,,,5c9cb670b472d0001295f377,606a2fb13c0e7c91a79b5a39,2021-04-05_00h30.50.550,Colour_Similarity_Experiment,2020.2.10,Win32,60,60675255c767bca6388caeee,26.77245509,22.96444444,21.25227964,22.36607893,24.32572993,22.96444444,,,,,,,,,,,,,,,,,,,,PF,2,weak,,,,,,,,3,1.318,,,,,,,,,,,,,,,,,,,,,,,,,,,7,weak,-27.5,-81.5,1,0,0,response5disk,4,62,-1.5,-0.5,1,0,0,rectangle,-1.5,-0.5,1,0,0,7,5,0.004,-1.5,-0.5,1,0,0,0,61,61,43,1,0,,,,,,,,,,,,,,,,,,,,,
,,,,,,,,,,,,,,,,,,,,,,,,,,,,,,,,,,,,,,,,,,5c9cb670b472d0001295f377,606a2fb13c0e7c91a79b5a39,2021-04-05_00h30.50.550,Colour_Similarity_Experiment,2020.2.10,Win32,60,60675255c767bca6388caeee,26.77245509,22.96444444,21.25227964,22.36607893,24.32572993,22.96444444,,,,,,,,,,,,,,,,,,,,PF,2,strong,,,,,,,,6,1.257,,,,,,,,,,,,,,,,,,,,,,,,,,,9,strong,58.5,28.5,1,0,0,response1disk,4,63,-2.5,4.5,1,0,0,rectangle,-2.5,4.5,1,0,0,7,0,0.004,-2.5,4.5,1,0,0,0,62,62,60,1,0,,,,,,,,,,,,,,,,,,,,,
,,,,,,,,,,,,,,,,,,,,,,,,,,,,,,,,,,,,,,,,,,5c9cb670b472d0001295f377,606a2fb13c0e7c91a79b5a39,2021-04-05_00h30.50.550,Colour_Similarity_Experiment,2020.2.10,Win32,60,60675255c767bca6388caeee,26.77245509,22.96444444,21.25227964,22.36607893,24.32572993,22.96444444,,,,,,,,,,,,,,,,,,,,PF,2,weak,,,,,,,,5,1.628,,,,,,,,,,,,,,,,,,,,,,,,,,,1,weak,61.5,-46.5,1,0,0,response3disk,2,64,11.5,-2.5,1,0,0,rectangle,11.5,-2.5,1,0,0,7,0,0.001,11.5,-2.5,1,0,0,0,63,63,24,1,0,,,,,,,,,,,,,,,,,,,,,
,,,,,,,,,,,,,,,,,,,,,,,,,,,,,,,,,,,,,,,,,,5c9cb670b472d0001295f377,606a2fb13c0e7c91a79b5a39,2021-04-05_00h30.50.550,Colour_Similarity_Experiment,2020.2.10,Win32,60,60675255c767bca6388caeee,26.77245509,22.96444444,21.25227964,22.36607893,24.32572993,22.96444444,,,,,,,,,,,,,,,,,,,,PF,2,strong,,,,,,,,4,1.314,,,,,,,,,,,,,,,,,,,,,,,,,,,8,strong,25.5,-62.5,1,0,0,response3disk,9,65,-0.5,0.5,1,0,0,rectangle,-0.5,0.5,1,0,0,7,2,0.004,-0.5,0.5,1,0,0,0,64,64,105,1,0,,,,,,,,,,,,,,,,,,,,,
,,,,,,,,,,,,,,,,,,,,,,,,,,,,,,,,,,,,,,,,,,5c9cb670b472d0001295f377,606a2fb13c0e7c91a79b5a39,2021-04-05_00h30.50.550,Colour_Similarity_Experiment,2020.2.10,Win32,60,60675255c767bca6388caeee,26.77245509,22.96444444,21.25227964,22.36607893,24.32572993,22.96444444,,,,,,,,,,,,,,,,,,,,PF,2,strong,,,,,,,,6,1.454,,,,,,,,,,,,,,,,,,,,,,,,,,,8,strong,68.5,32.5,1,0,0,response1disk,2,66,10.5,-8.5,1,0,0,rectangle,10.5,-8.5,1,0,0,7,4,0.003,10.5,-8.5,1,0,0,0,65,65,22,1,0,,,,,,,,,,,,,,,,,,,,,
,,,,,,,,,,,,,,,,,,,,,,,,,,,,,,,,,,,,,,,,,,5c9cb670b472d0001295f377,606a2fb13c0e7c91a79b5a39,2021-04-05_00h30.50.550,Colour_Similarity_Experiment,2020.2.10,Win32,60,60675255c767bca6388caeee,26.77245509,22.96444444,21.25227964,22.36607893,24.32572993,22.96444444,,,,,,,,,,,,,,,,,,,,PF,2,strong,,,,,,,,0,1.678,,,,,,,,,,,,,,,,,,,,,,,,,,,2,strong,-42.5,61.5,1,0,0,response7disk,2,67,-0.5,-7.5,1,0,0,rectangle,-0.5,-7.5,1,0,0,7,7,0.006,-0.5,-7.5,1,0,0,0,66,66,142,1,0,,,,,,,,,,,,,,,,,,,,,
,,,,,,,,,,,,,,,,,,,,,,,,,,,,,,,,,,,,,,,,,,5c9cb670b472d0001295f377,606a2fb13c0e7c91a79b5a39,2021-04-05_00h30.50.550,Colour_Similarity_Experiment,2020.2.10,Win32,60,60675255c767bca6388caeee,26.77245509,22.96444444,21.25227964,22.36607893,24.32572993,22.96444444,,,,,,,,,,,,,,,,,,,,PF,2,strong,,,,,,,,5,1.098,,,,,,,,,,,,,,,,,,,,,,,,,,,1,strong,66.5,-38.5,1,0,0,response3disk,3,68,5.5,-2.5,1,0,0,rectangle,5.5,-2.5,1,0,0,7,5,0.002,5.5,-2.5,1,0,0,0,67,67,99,1,0,,,,,,,,,,,,,,,,,,,,,
,,,,,,,,,,,,,,,,,,,,,,,,,,,,,,,,,,,,,,,,,,5c9cb670b472d0001295f377,606a2fb13c0e7c91a79b5a39,2021-04-05_00h30.50.550,Colour_Similarity_Experiment,2020.2.10,Win32,60,60675255c767bca6388caeee,26.77245509,22.96444444,21.25227964,22.36607893,24.32572993,22.96444444,,,,,,,,,,,,,,,,,,,,PF,2,weak,,,,,,,,6,1.268,,,,,,,,,,,,,,,,,,,,,,,,,,,6,weak,54.5,37.5,1,0,0,response1disk,8,69,11.5,-1.5,1,0,0,rectangle,11.5,-1.5,1,0,0,7,4,0.003,11.5,-1.5,1,0,0,0,68,68,64,1,0,,,,,,,,,,,,,,,,,,,,,
,,,,,,,,,,,,,,,,,,,,,,,,,,,,,,,,,,,,,,,,,,5c9cb670b472d0001295f377,606a2fb13c0e7c91a79b5a39,2021-04-05_00h30.50.550,Colour_Similarity_Experiment,2020.2.10,Win32,60,60675255c767bca6388caeee,26.77245509,22.96444444,21.25227964,22.36607893,24.32572993,22.96444444,,,,,,,,,,,,,,,,,,,,PF,2,strong,,,,,,,,5,1.129,,,,,,,,,,,,,,,,,,,,,,,,,,,6,strong,51.5,-32.5,1,0,0,response3disk,3,70,-1.5,1.5,1,0,0,rectangle,-1.5,1.5,1,0,0,7,6,0.005,-1.5,1.5,1,0,0,0,69,69,21,1,0,,,,,,,,,,,,,,,,,,,,,
,,,,,,,,,,,,,,,,,,,,,,,,,,,,,,,,,,,,,,,,,,5c9cb670b472d0001295f377,606a2fb13c0e7c91a79b5a39,2021-04-05_00h30.50.550,Colour_Similarity_Experiment,2020.2.10,Win32,60,60675255c767bca6388caeee,26.77245509,22.96444444,21.25227964,22.36607893,24.32572993,22.96444444,,,,,,,,,,,,,,,,,,,,PF,2,weak,,,,,,,,1,1.477,,,,,,,,,,,,,,,,,,,,,,,,,,,5,weak,-68.5,30.5,1,0,0,response7disk,3,71,-0.5,3.5,1,0,0,rectangle,-0.5,3.5,1,0,0,7,4,0.005,-0.5,3.5,1,0,0,0,70,70,109,1,0,,,,,,,,,,,,,,,,,,,,,
,,,,,,,,,,,,,,,,,,,,,,,,,,,,,,,,,,,,,,,,,,5c9cb670b472d0001295f377,606a2fb13c0e7c91a79b5a39,2021-04-05_00h30.50.550,Colour_Similarity_Experiment,2020.2.10,Win32,60,60675255c767bca6388caeee,26.77245509,22.96444444,21.25227964,22.36607893,24.32572993,22.96444444,,,,,,,,,,,,,,,,,,,,PF,2,weak,,,,,,,,2,1.724,,,,,,,,,,,,,,,,,,,,,,,,,,,1,weak,-61.5,-38.5,1,0,0,response5disk,9,72,0.5,-0.5,1,0,0,rectangle,0.5,-0.5,1,0,0,7,1,0.003,0.5,-0.5,1,0,0,0,71,71,15,1,0,,,,,,,,,,,,,,,,,,,,,
,,,,,,,,,,,,,,,,,,,,,,,,,,,,,,,,,,,,,,,,,,5c9cb670b472d0001295f377,606a2fb13c0e7c91a79b5a39,2021-04-05_00h30.50.550,Colour_Similarity_Experiment,2020.2.10,Win32,60,60675255c767bca6388caeee,26.77245509,22.96444444,21.25227964,22.36607893,24.32572993,22.96444444,,,,,,,,,,,,,,,,,,,,PF,2,weak,,,,,,,,6,1.33,,,,,,,,,,,,,,,,,,,,,,,,,,,4,weak,53.5,31.5,1,0,0,response1disk,8,73,2.5,-1.5,1,0,0,rectangle,2.5,-1.5,1,0,0,7,6,0.003,2.5,-1.5,1,0,0,0,72,72,124,1,0,,,,,,,,,,,,,,,,,,,,,
,,,,,,,,,,,,,,,,,,,,,,,,,,,,,,,,,,,,,,,,,,5c9cb670b472d0001295f377,606a2fb13c0e7c91a79b5a39,2021-04-05_00h30.50.550,Colour_Similarity_Experiment,2020.2.10,Win32,60,60675255c767bca6388caeee,26.77245509,22.96444444,21.25227964,22.36607893,24.32572993,22.96444444,,,,,,,,,,,,,,,,,,,,PF,2,strong,,,,,,,,6,1.766,,,,,,,,,,,,,,,,,,,,,,,,,,,3,strong,52.5,27.5,1,0,0,response1disk,8,74,3.5,-0.5,1,0,0,rectangle,3.5,-0.5,1,0,0,7,0,0.008,3.5,-0.5,1,0,0,0,73,73,44,1,0,,,,,,,,,,,,,,,,,,,,,
,,,,,,,,,,,,,,,,,,,,,,,,,,,,,,,,,,,,,,,,,,5c9cb670b472d0001295f377,606a2fb13c0e7c91a79b5a39,2021-04-05_00h30.50.550,Colour_Similarity_Experiment,2020.2.10,Win32,60,60675255c767bca6388caeee,26.77245509,22.96444444,21.25227964,22.36607893,24.32572993,22.96444444,,,,,,,,,,,,,,,,,,,,PF,2,weak,,,,,,,,5,1.003,,,,,,,,,,,,,,,,,,,,,,,,,,,2,weak,43.5,-29.5,1,0,0,response3disk,1,75,10.5,-2.5,1,0,0,rectangle,10.5,-2.5,1,0,0,7,4,0.005,10.5,-2.5,1,0,0,0,74,74,9,1,0,,,,,,,,,,,,,,,,,,,,,
,,,,,,,,,,,,,,,,,,,,,,,,,,,,,,,,,,,,,,,,,,5c9cb670b472d0001295f377,606a2fb13c0e7c91a79b5a39,2021-04-05_00h30.50.550,Colour_Similarity_Experiment,2020.2.10,Win32,60,60675255c767bca6388caeee,26.77245509,22.96444444,21.25227964,22.36607893,24.32572993,22.96444444,,,,,,,,,,,,,,,,,,,,PF,2,strong,,,,,,,,2,1.385,,,,,,,,,,,,,,,,,,,,,,,,,,,5,strong,-57.5,-27.5,1,0,0,response5disk,2,76,10.5,3.5,1,0,0,rectangle,35.5,-77.5,1,0,0,4,4,2.766,-5.5,0.5,1,0,0,0,75,75,55,1,1,response3disk_3,rectangle,,,,,,,,,,,,,,,,,,,
,,,,,,,,,,,,,,,,,,,,,,,,,,,,,,,,,,,,,,,,,,5c9cb670b472d0001295f377,606a2fb13c0e7c91a79b5a39,2021-04-05_00h30.50.550,Colour_Similarity_Experiment,2020.2.10,Win32,60,60675255c767bca6388caeee,26.77245509,22.96444444,21.25227964,22.36607893,24.32572993,22.96444444,,,,,,,,,,,,,,,,,,,,PF,2,weak,,,,,,,,1,1.459,,,,,,,,,,,,,,,,,,,,,,,,,,,4,weak,-61.5,29.5,1,0,0,response7disk,7,77,3.5,-1.5,1,0,0,rectangle,3.5,-1.5,1,0,0,4,7,0.004,3.5,-1.5,1,0,0,0,76,76,38,1,0,,,,,,,,,,,,,,,,,,,,,
,,,,,,,,,,,,,,,,,,,,,,,,,,,,,,,,,,,,,,,,,,5c9cb670b472d0001295f377,606a2fb13c0e7c91a79b5a39,2021-04-05_00h30.50.550,Colour_Similarity_Experiment,2020.2.10,Win32,60,60675255c767bca6388caeee,26.77245509,22.96444444,21.25227964,22.36607893,24.32572993,22.96444444,,,,,,,,,,,,,,,,,,,,PF,2,strong,,,,,,,,0,1.693,,,,,,,,,,,,,,,,,,,,,,,,,,,5,strong,-45.5,64.5,1,0,0,response7disk,4,78,0.5,-3.5,1,0,0,rectangle,0.5,-3.5,1,0,0,4,1,0.004,0.5,-3.5,1,0,0,0,77,77,8,1,0,,,,,,,,,,,,,,,,,,,,,
,,,,,,,,,,,,,,,,,,,,,,,,,,,,,,,,,,,,,,,,,,5c9cb670b472d0001295f377,606a2fb13c0e7c91a79b5a39,2021-04-05_00h30.50.550,Colour_Similarity_Experiment,2020.2.10,Win32,60,60675255c767bca6388caeee,26.77245509,22.96444444,21.25227964,22.36607893,24.32572993,22.96444444,,,,,,,,,,,,,,,,,,,,PF,2,strong,,,,,,,,2,1.32,,,,,,,,,,,,,,,,,,,,,,,,,,,5,strong,-62.5,-25.5,1,0,0,response5disk,7,79,7.5,-6.5,1,0,0,rectangle,7.5,-6.5,1,0,0,4,2,0.003,7.5,-6.5,1,0,0,0,78,78,7,1,0,,,,,,,,,,,,,,,,,,,,,
,,,,,,,,,,,,,,,,,,,,,,,,,,,,,,,,,,,,,,,,,,5c9cb670b472d0001295f377,606a2fb13c0e7c91a79b5a39,2021-04-05_00h30.50.550,Colour_Similarity_Experiment,2020.2.10,Win32,60,60675255c767bca6388caeee,26.77245509,22.96444444,21.25227964,22.36607893,24.32572993,22.96444444,,,,,,,,,,,,,,,,,,,,PF,2,weak,,,,,,,,3,0.94,,,,,,,,,,,,,,,,,,,,,,,,,,,9,weak,-28.5,-46.5,1,0,0,response5disk,5,80,0.5,-7.5,1,0,0,rectangle,0.5,-7.5,1,0,0,4,7,0.003,0.5,-7.5,1,0,0,0,79,79,134,1,0,,,,,,,,,,,,,,,,,,,,,
,,,,,,,,,,,,,,,,,,,,,,,,,,,,,,,,,,,,,,,,,,5c9cb670b472d0001295f377,606a2fb13c0e7c91a79b5a39,2021-04-05_00h30.50.550,Colour_Similarity_Experiment,2020.2.10,Win32,60,60675255c767bca6388caeee,26.77245509,22.96444444,21.25227964,22.36607893,24.32572993,22.96444444,,,,,,,,,,,,,,,,,,,,PF,2,weak,,,,,,,,6,1.279,,,,,,,,,,,,,,,,,,,,,,,,,,,2,weak,49.5,28.5,1,0,0,response1disk,8,81,3.5,3.5,1,0,0,rectangle,3.5,3.5,1,0,0,4,0,0.003,3.5,3.5,1,0,0,0,80,80,52,1,0,,,,,,,,,,,,,,,,,,,,,
,,,,,,,,,,,,,,,,,,,,,,,,,,,,,,,,,,,,,,,,,,5c9cb670b472d0001295f377,606a2fb13c0e7c91a79b5a39,2021-04-05_00h30.50.550,Colour_Similarity_Experiment,2020.2.10,Win32,60,60675255c767bca6388caeee,26.77245509,22.96444444,21.25227964,22.36607893,24.32572993,22.96444444,,,,,,,,,,,,,,,,,,,,PF,2,weak,,,,,,,,3,1.66,,,,,,,,,,,,,,,,,,,,,,,,,,,5,weak,-29.5,-71.5,1,0,0,response5disk,7,82,10.5,10.5,1,0,0,rectangle,10.5,10.5,1,0,0,4,1,0.004,10.5,10.5,1,0,0,0,81,81,146,1,0,,,,,,,,,,,,,,,,,,,,,
,,,,,,,,,,,,,,,,,,,,,,,,,,,,,,,,,,,,,,,,,,5c9cb670b472d0001295f377,606a2fb13c0e7c91a79b5a39,2021-04-05_00h30.50.550,Colour_Similarity_Experiment,2020.2.10,Win32,60,60675255c767bca6388caeee,26.77245509,22.96444444,21.25227964,22.36607893,24.32572993,22.96444444,,,,,,,,,,,,,,,,,,,,PF,2,weak,,,,,,,,2,1.457,,,,,,,,,,,,,,,,,,,,,,,,,,,5,weak,-64.5,-45.5,1,0,0,response5disk,6,83,10.5,-1.5,1,0,0,rectangle,10.5,-1.5,1,0,0,4,6,0.005,10.5,-1.5,1,0,0,0,82,82,103,1,0,,,,,,,,,,,,,,,,,,,,,
,,,,,,,,,,,,,,,,,,,,,,,,,,,,,,,,,,,,,,,,,,5c9cb670b472d0001295f377,606a2fb13c0e7c91a79b5a39,2021-04-05_00h30.50.550,Colour_Similarity_Experiment,2020.2.10,Win32,60,60675255c767bca6388caeee,26.77245509,22.96444444,21.25227964,22.36607893,24.32572993,22.96444444,,,,,,,,,,,,,,,,,,,,PF,2,weak,,,,,,,,3,1.691,,,,,,,,,,,,,,,,,,,,,,,,,,,6,weak,-27.5,-63.5,1,0,0,response5disk,3,84,9.5,1.5,1,0,0,rectangle,9.5,1.5,1,0,0,4,2,0.006,9.5,1.5,1,0,0,0,83,83,26,1,0,,,,,,,,,,,,,,,,,,,,,
,,,,,,,,,,,,,,,,,,,,,,,,,,,,,,,,,,,,,,,,,,5c9cb670b472d0001295f377,606a2fb13c0e7c91a79b5a39,2021-04-05_00h30.50.550,Colour_Similarity_Experiment,2020.2.10,Win32,60,60675255c767bca6388caeee,26.77245509,22.96444444,21.25227964,22.36607893,24.32572993,22.96444444,,,,,,,,,,,,,,,,,,,,PF,2,weak,,,,,,,,4,1.226,,,,,,,,,,,,,,,,,,,,,,,,,,,5,weak,36.5,-70.5,1,0,0,response3disk,2,85,2.5,-1.5,1,0,0,rectangle,2.5,-1.5,1,0,0,4,0,0.003,2.5,-1.5,1,0,0,0,84,84,129,1,0,,,,,,,,,,,,,,,,,,,,,
,,,,,,,,,,,,,,,,,,,,,,,,,,,,,,,,,,,,,,,,,,5c9cb670b472d0001295f377,606a2fb13c0e7c91a79b5a39,2021-04-05_00h30.50.550,Colour_Similarity_Experiment,2020.2.10,Win32,60,60675255c767bca6388caeee,26.77245509,22.96444444,21.25227964,22.36607893,24.32572993,22.96444444,,,,,,,,,,,,,,,,,,,,PF,2,weak,,,,,,,,5,1.121,,,,,,,,,,,,,,,,,,,,,,,,,,,7,weak,69.5,-26.5,1,0,0,response3disk,2,86,0.5,3.5,1,0,0,rectangle,0.5,3.5,1,0,0,4,1,0.002,0.5,3.5,1,0,0,0,85,85,32,1,0,,,,,,,,,,,,,,,,,,,,,
,,,,,,,,,,,,,,,,,,,,,,,,,,,,,,,,,,,,,,,,,,5c9cb670b472d0001295f377,606a2fb13c0e7c91a79b5a39,2021-04-05_00h30.50.550,Colour_Similarity_Experiment,2020.2.10,Win32,60,60675255c767bca6388caeee,26.77245509,22.96444444,21.25227964,22.36607893,24.32572993,22.96444444,,,,,,,,,,,,,,,,,,,,PF,2,weak,,,,,,,,2,1.556,,,,,,,,,,,,,,,,,,,,,,,,,,,2,weak,-78.5,-32.5,1,0,0,response5disk,3,87,-8.5,-2.5,1,0,0,rectangle,-8.5,-2.5,1,0,0,4,0,0.003,-8.5,-2.5,1,0,0,0,86,86,69,1,0,,,,,,,,,,,,,,,,,,,,,
,,,,,,,,,,,,,,,,,,,,,,,,,,,,,,,,,,,,,,,,,,5c9cb670b472d0001295f377,606a2fb13c0e7c91a79b5a39,2021-04-05_00h30.50.550,Colour_Similarity_Experiment,2020.2.10,Win32,60,60675255c767bca6388caeee,26.77245509,22.96444444,21.25227964,22.36607893,24.32572993,22.96444444,,,,,,,,,,,,,,,,,,,,PF,2,strong,,,,,,,,1,1.753,,,,,,,,,,,,,,,,,,,,,,,,,,,4,strong,-58.5,28.5,1,0,0,response7disk,5,88,-9.5,-0.5,1,0,0,rectangle,-9.5,-0.5,1,0,0,4,4,0.003,-9.5,-0.5,1,0,0,0,87,87,116,1,0,,,,,,,,,,,,,,,,,,,,,
,,,,,,,,,,,,,,,,,,,,,,,,,,,,,,,,,,,,,,,,,,5c9cb670b472d0001295f377,606a2fb13c0e7c91a79b5a39,2021-04-05_00h30.50.550,Colour_Similarity_Experiment,2020.2.10,Win32,60,60675255c767bca6388caeee,26.77245509,22.96444444,21.25227964,22.36607893,24.32572993,22.96444444,,,,,,,,,,,,,,,,,,,,PF,2,strong,,,,,,,,0,1.468,,,,,,,,,,,,,,,,,,,,,,,,,,,6,strong,-34.5,49.5,1,0,0,response7disk,4,89,-17.5,4.5,1,0,0,rectangle,-17.5,4.5,1,0,0,4,0,0.004,-17.5,4.5,1,0,0,0,88,88,56,1,0,,,,,,,,,,,,,,,,,,,,,
,,,,,,,,,,,,,,,,,,,,,,,,,,,,,,,,,,,,,,,,,,5c9cb670b472d0001295f377,606a2fb13c0e7c91a79b5a39,2021-04-05_00h30.50.550,Colour_Similarity_Experiment,2020.2.10,Win32,60,60675255c767bca6388caeee,26.77245509,22.96444444,21.25227964,22.36607893,24.32572993,22.96444444,,,,,,,,,,,,,,,,,,,,PF,2,weak,,,,,,,,3,1.434,,,,,,,,,,,,,,,,,,,,,,,,,,,6,weak,-32.5,-59.5,1,0,0,response5disk,2,90,-2.5,0.5,1,0,0,rectangle,-2.5,0.5,1,0,0,4,1,0.004,-2.5,0.5,1,0,0,0,89,89,130,1,0,,,,,,,,,,,,,,,,,,,,,
,,,,,,,,,,,,,,,,,,,,,,,,,,,,,,,,,,,,,,,,,,5c9cb670b472d0001295f377,606a2fb13c0e7c91a79b5a39,2021-04-05_00h30.50.550,Colour_Similarity_Experiment,2020.2.10,Win32,60,60675255c767bca6388caeee,26.77245509,22.96444444,21.25227964,22.36607893,24.32572993,22.96444444,,,,,,,,,,,,,,,,,,,,PF,2,strong,,,,,,,,0,1.32,,,,,,,,,,,,,,,,,,,,,,,,,,,4,strong,-39.5,67.5,1,0,0,response7disk,4,91,-9.5,-5.5,1,0,0,rectangle,-9.5,-5.5,1,0,0,4,5,0.005,-9.5,-5.5,1,0,0,0,90,90,84,1,0,,,,,,,,,,,,,,,,,,,,,
,,,,,,,,,,,,,,,,,,,,,,,,,,,,,,,,,,,,,,,,,,5c9cb670b472d0001295f377,606a2fb13c0e7c91a79b5a39,2021-04-05_00h30.50.550,Colour_Similarity_Experiment,2020.2.10,Win32,60,60675255c767bca6388caeee,26.77245509,22.96444444,21.25227964,22.36607893,24.32572993,22.96444444,,,,,,,,,,,,,,,,,,,,PF,2,weak,,,,,,,,2,1.331,,,,,,,,,,,,,,,,,,,,,,,,,,,2,weak,-55.5,-33.5,1,0,0,response5disk,6,92,-8.5,-6.5,1,0,0,rectangle,-8.5,-6.5,1,0,0,4,1,0.005,-8.5,-6.5,1,0,0,0,91,91,113,1,0,,,,,,,,,,,,,,,,,,,,,
,,,,,,,,,,,,,,,,,,,,,,,,,,,,,,,,,,,,,,,,,,5c9cb670b472d0001295f377,606a2fb13c0e7c91a79b5a39,2021-04-05_00h30.50.550,Colour_Similarity_Experiment,2020.2.10,Win32,60,60675255c767bca6388caeee,26.77245509,22.96444444,21.25227964,22.36607893,24.32572993,22.96444444,,,,,,,,,,,,,,,,,,,,PF,2,weak,,,,,,,,3,1.426,,,,,,,,,,,,,,,,,,,,,,,,,,,4,weak,-44.5,-76.5,1,0,0,response5disk,6,93,4.5,0.5,1,0,0,rectangle,4.5,0.5,1,0,0,4,1,0,4.5,0.5,1,0,0,0,92,92,120,1,0,,,,,,,,,,,,,,,,,,,,,
,,,,,,,,,,,,,,,,,,,,,,,,,,,,,,,,,,,,,,,,,,5c9cb670b472d0001295f377,606a2fb13c0e7c91a79b5a39,2021-04-05_00h30.50.550,Colour_Similarity_Experiment,2020.2.10,Win32,60,60675255c767bca6388caeee,26.77245509,22.96444444,21.25227964,22.36607893,24.32572993,22.96444444,,,,,,,,,,,,,,,,,,,,PF,2,weak,,,,,,,,4,0.918,,,,,,,,,,,,,,,,,,,,,,,,,,,8,weak,23.5,-64.5,1,0,0,response3disk,5,94,0.5,-4.5,1,0,0,rectangle,0.5,-4.5,1,0,0,4,7,0.013,0.5,-4.5,1,0,0,0,93,93,98,1,0,,,,,,,,,,,,,,,,,,,,,
,,,,,,,,,,,,,,,,,,,,,,,,,,,,,,,,,,,,,,,,,,5c9cb670b472d0001295f377,606a2fb13c0e7c91a79b5a39,2021-04-05_00h30.50.550,Colour_Similarity_Experiment,2020.2.10,Win32,60,60675255c767bca6388caeee,26.77245509,22.96444444,21.25227964,22.36607893,24.32572993,22.96444444,,,,,,,,,,,,,,,,,,,,PF,2,weak,,,,,,,,5,1.057,,,,,,,,,,,,,,,,,,,,,,,,,,,3,weak,44.5,-29.5,1,0,0,response3disk,9,95,6.5,-2.5,1,0,0,rectangle,6.5,-2.5,1,0,0,4,7,0.001,6.5,-2.5,1,0,0,0,94,94,79,1,0,,,,,,,,,,,,,,,,,,,,,
,,,,,,,,,,,,,,,,,,,,,,,,,,,,,,,,,,,,,,,,,,5c9cb670b472d0001295f377,606a2fb13c0e7c91a79b5a39,2021-04-05_00h30.50.550,Colour_Similarity_Experiment,2020.2.10,Win32,60,60675255c767bca6388caeee,26.77245509,22.96444444,21.25227964,22.36607893,24.32572993,22.96444444,,,,,,,,,,,,,,,,,,,,PF,2,weak,,,,,,,,2,1.905,,,,,,,,,,,,,,,,,,,,,,,,,,,1,weak,-51.5,-34.5,1,0,0,response5disk,1,96,2.5,2.5,1,0,0,rectangle,-32.5,62.5,1,0,0,0,0,2.908,2.5,4.5,1,0,0,0,95,95,76,1,1,response7disk_3,rectangle,,,,,,,,,,,,,,,,,,,
,,,,,,,,,,,,,,,,,,,,,,,,,,,,,,,,,,,,,,,,,,5c9cb670b472d0001295f377,606a2fb13c0e7c91a79b5a39,2021-04-05_00h30.50.550,Colour_Similarity_Experiment,2020.2.10,Win32,60,60675255c767bca6388caeee,26.77245509,22.96444444,21.25227964,22.36607893,24.32572993,22.96444444,,,,,,,,,,,,,,,,,,,,PF,2,weak,,,,,,,,0,1.32,,,,,,,,,,,,,,,,,,,,,,,,,,,7,weak,-42.5,59.5,1,0,0,response7disk,6,97,7.5,-9.5,1,0,0,rectangle,7.5,-9.5,1,0,0,0,1,0.003,7.5,-9.5,1,0,0,0,96,96,29,1,0,,,,,,,,,,,,,,,,,,,,,
,,,,,,,,,,,,,,,,,,,,,,,,,,,,,,,,,,,,,,,,,,5c9cb670b472d0001295f377,606a2fb13c0e7c91a79b5a39,2021-04-05_00h30.50.550,Colour_Similarity_Experiment,2020.2.10,Win32,60,60675255c767bca6388caeee,26.77245509,22.96444444,21.25227964,22.36607893,24.32572993,22.96444444,,,,,,,,,,,,,,,,,,,,PF,2,strong,,,,,,,,4,1.608,,,,,,,,,,,,,,,,,,,,,,,,,,,2,strong,21.5,-68.5,1,0,0,response3disk,6,98,7.5,-7.5,1,0,0,rectangle,7.5,-7.5,1,0,0,0,6,0.003,7.5,-7.5,1,0,0,0,97,97,40,1,0,,,,,,,,,,,,,,,,,,,,,
,,,,,,,,,,,,,,,,,,,,,,,,,,,,,,,,,,,,,,,,,,5c9cb670b472d0001295f377,606a2fb13c0e7c91a79b5a39,2021-04-05_00h30.50.550,Colour_Similarity_Experiment,2020.2.10,Win32,60,60675255c767bca6388caeee,26.77245509,22.96444444,21.25227964,22.36607893,24.32572993,22.96444444,,,,,,,,,,,,,,,,,,,,PF,2,strong,,,,,,,,5,1.082,,,,,,,,,,,,,,,,,,,,,,,,,,,3,strong,88.5,-41.5,1,0,0,response3disk,9,99,22.5,-9.5,1,0,0,rectangle,22.5,-9.5,1,0,0,0,2,0.003,22.5,-9.5,1,0,0,0,98,98,143,1,0,,,,,,,,,,,,,,,,,,,,,
,,,,,,,,,,,,,,,,,,,,,,,,,,,,,,,,,,,,,,,,,,5c9cb670b472d0001295f377,606a2fb13c0e7c91a79b5a39,2021-04-05_00h30.50.550,Colour_Similarity_Experiment,2020.2.10,Win32,60,60675255c767bca6388caeee,26.77245509,22.96444444,21.25227964,22.36607893,24.32572993,22.96444444,,,,,,,,,,,,,,,,,,,,PF,2,strong,,,,,,,,6,1.22,,,,,,,,,,,,,,,,,,,,,,,,,,,9,strong,77.5,35.5,1,0,0,response1disk,5,100,15.5,-0.5,1,0,0,rectangle,15.5,-0.5,1,0,0,0,4,0.003,15.5,-0.5,1,0,0,0,99,99,128,1,0,,,,,,,,,,,,,,,,,,,,,
,,,,,,,,,,,,,,,,,,,,,,,,,,,,,,,,,,,,,,,,,,5c9cb670b472d0001295f377,606a2fb13c0e7c91a79b5a39,2021-04-05_00h30.50.550,Colour_Similarity_Experiment,2020.2.10,Win32,60,60675255c767bca6388caeee,26.77245509,22.96444444,21.25227964,22.36607893,24.32572993,22.96444444,,,,,,,,,,,,,,,,,,,,PF,2,strong,,,,,,,,1,1.588,,,,,,,,,,,,,,,,,,,,,,,,,,,3,strong,-62.5,36.5,1,0,0,response7disk,2,101,-5.5,2.5,1,0,0,rectangle,-5.5,2.5,1,0,0,0,6,0.003,-5.5,2.5,1,0,0,0,100,100,93,1,0,,,,,,,,,,,,,,,,,,,,,
,,,,,,,,,,,,,,,,,,,,,,,,,,,,,,,,,,,,,,,,,,5c9cb670b472d0001295f377,606a2fb13c0e7c91a79b5a39,2021-04-05_00h30.50.550,Colour_Similarity_Experiment,2020.2.10,Win32,60,60675255c767bca6388caeee,26.77245509,22.96444444,21.25227964,22.36607893,24.32572993,22.96444444,,,,,,,,,,,,,,,,,,,,PF,2,weak,,,,,,,,2,1.172,,,,,,,,,,,,,,,,,,,,,,,,,,,8,weak,-73.5,-35.5,1,0,0,response5disk,1,102,12.5,-2.5,1,0,0,rectangle,12.5,-2.5,1,0,0,0,4,0.003,12.5,-2.5,1,0,0,0,101,101,57,1,0,,,,,,,,,,,,,,,,,,,,,
,,,,,,,,,,,,,,,,,,,,,,,,,,,,,,,,,,,,,,,,,,5c9cb670b472d0001295f377,606a2fb13c0e7c91a79b5a39,2021-04-05_00h30.50.550,Colour_Similarity_Experiment,2020.2.10,Win32,60,60675255c767bca6388caeee,26.77245509,22.96444444,21.25227964,22.36607893,24.32572993,22.96444444,,,,,,,,,,,,,,,,,,,,PF,2,weak,,,,,,,,6,1.452,,,,,,,,,,,,,,,,,,,,,,,,,,,4,weak,72.5,32.5,1,0,0,response1disk,1,103,10.5,2.5,1,0,0,rectangle,10.5,2.5,1,0,0,0,0,0.002,10.5,2.5,1,0,0,0,102,102,115,1,0,,,,,,,,,,,,,,,,,,,,,
,,,,,,,,,,,,,,,,,,,,,,,,,,,,,,,,,,,,,,,,,,5c9cb670b472d0001295f377,606a2fb13c0e7c91a79b5a39,2021-04-05_00h30.50.550,Colour_Similarity_Experiment,2020.2.10,Win32,60,60675255c767bca6388caeee,26.77245509,22.96444444,21.25227964,22.36607893,24.32572993,22.96444444,,,,,,,,,,,,,,,,,,,,PF,2,strong,,,,,,,,4,1.46,,,,,,,,,,,,,,,,,,,,,,,,,,,8,strong,33.5,-79.5,1,0,0,response3disk,4,104,9.5,0.5,1,0,0,rectangle,9.5,0.5,1,0,0,0,2,0.004,9.5,0.5,1,0,0,0,103,103,88,1,0,,,,,,,,,,,,,,,,,,,,,
,,,,,,,,,,,,,,,,,,,,,,,,,,,,,,,,,,,,,,,,,,5c9cb670b472d0001295f377,606a2fb13c0e7c91a79b5a39,2021-04-05_00h30.50.550,Colour_Similarity_Experiment,2020.2.10,Win32,60,60675255c767bca6388caeee,26.77245509,22.96444444,21.25227964,22.36607893,24.32572993,22.96444444,,,,,,,,,,,,,,,,,,,,PF,2,weak,,,,,,,,2,1.466,,,,,,,,,,,,,,,,,,,,,,,,,,,3,weak,-73.5,-37.5,1,0,0,response5disk,3,105,6.5,10.5,1,0,0,rectangle,6.5,10.5,1,0,0,0,5,0.002,6.5,10.5,1,0,0,0,104,104,4,1,0,,,,,,,,,,,,,,,,,,,,,
,,,,,,,,,,,,,,,,,,,,,,,,,,,,,,,,,,,,,,,,,,5c9cb670b472d0001295f377,606a2fb13c0e7c91a79b5a39,2021-04-05_00h30.50.550,Colour_Similarity_Experiment,2020.2.10,Win32,60,60675255c767bca6388caeee,26.77245509,22.96444444,21.25227964,22.36607893,24.32572993,22.96444444,,,,,,,,,,,,,,,,,,,,PF,2,weak,,,,,,,,1,1.449,,,,,,,,,,,,,,,,,,,,,,,,,,,8,weak,-58.5,30.5,1,0,0,response7disk,8,106,8.5,-6.5,1,0,0,rectangle,8.5,-6.5,1,0,0,0,0,0.003,8.5,-6.5,1,0,0,0,105,105,153,1,0,,,,,,,,,,,,,,,,,,,,,
,,,,,,,,,,,,,,,,,,,,,,,,,,,,,,,,,,,,,,,,,,5c9cb670b472d0001295f377,606a2fb13c0e7c91a79b5a39,2021-04-05_00h30.50.550,Colour_Similarity_Experiment,2020.2.10,Win32,60,60675255c767bca6388caeee,26.77245509,22.96444444,21.25227964,22.36607893,24.32572993,22.96444444,,,,,,,,,,,,,,,,,,,,PF,2,strong,,,,,,,,1,1.321,,,,,,,,,,,,,,,,,,,,,,,,,,,3,strong,-70.5,43.5,1,0,0,response7disk,5,107,3.5,1.5,1,0,0,rectangle,3.5,1.5,1,0,0,0,5,0.004,3.5,1.5,1,0,0,0,106,106,101,1,0,,,,,,,,,,,,,,,,,,,,,
,,,,,,,,,,,,,,,,,,,,,,,,,,,,,,,,,,,,,,,,,,5c9cb670b472d0001295f377,606a2fb13c0e7c91a79b5a39,2021-04-05_00h30.50.550,Colour_Similarity_Experiment,2020.2.10,Win32,60,60675255c767bca6388caeee,26.77245509,22.96444444,21.25227964,22.36607893,24.32572993,22.96444444,,,,,,,,,,,,,,,,,,,,PF,2,strong,,,,,,,,0,1.523,,,,,,,,,,,,,,,,,,,,,,,,,,,5,strong,-28.5,59.5,1,0,0,response7disk,3,108,-1.5,1.5,1,0,0,rectangle,-1.5,1.5,1,0,0,0,7,0.002,-1.5,1.5,1,0,0,0,107,107,25,1,0,,,,,,,,,,,,,,,,,,,,,
,,,,,,,,,,,,,,,,,,,,,,,,,,,,,,,,,,,,,,,,,,5c9cb670b472d0001295f377,606a2fb13c0e7c91a79b5a39,2021-04-05_00h30.50.550,Colour_Similarity_Experiment,2020.2.10,Win32,60,60675255c767bca6388caeee,26.77245509,22.96444444,21.25227964,22.36607893,24.32572993,22.96444444,,,,,,,,,,,,,,,,,,,,PF,2,strong,,,,,,,,4,1.367,,,,,,,,,,,,,,,,,,,,,,,,,,,6,strong,31.5,-75.5,1,0,0,response3disk,2,109,10.5,1.5,1,0,0,rectangle,10.5,1.5,1,0,0,0,0,0.011,10.5,1.5,1,0,0,0,108,108,112,1,0,,,,,,,,,,,,,,,,,,,,,
,,,,,,,,,,,,,,,,,,,,,,,,,,,,,,,,,,,,,,,,,,5c9cb670b472d0001295f377,606a2fb13c0e7c91a79b5a39,2021-04-05_00h30.50.550,Colour_Similarity_Experiment,2020.2.10,Win32,60,60675255c767bca6388caeee,26.77245509,22.96444444,21.25227964,22.36607893,24.32572993,22.96444444,,,,,,,,,,,,,,,,,,,,PF,2,strong,,,,,,,,0,1.147,,,,,,,,,,,,,,,,,,,,,,,,,,,7,strong,-40.5,69.5,1,0,0,response7disk,6,110,-5.5,4.5,1,0,0,rectangle,-5.5,4.5,1,0,0,0,3,0.003,-5.5,4.5,1,0,0,0,109,109,31,1,0,,,,,,,,,,,,,,,,,,,,,
,,,,,,,,,,,,,,,,,,,,,,,,,,,,,,,,,,,,,,,,,,5c9cb670b472d0001295f377,606a2fb13c0e7c91a79b5a39,2021-04-05_00h30.50.550,Colour_Similarity_Experiment,2020.2.10,Win32,60,60675255c767bca6388caeee,26.77245509,22.96444444,21.25227964,22.36607893,24.32572993,22.96444444,,,,,,,,,,,,,,,,,,,,PF,2,weak,,,,,,,,2,1.591,,,,,,,,,,,,,,,,,,,,,,,,,,,9,weak,-57.5,-21.5,1,0,0,response5disk,4,111,16.5,4.5,1,0,0,rectangle,16.5,4.5,1,0,0,0,1,0.003,16.5,4.5,1,0,0,0,110,110,114,1,0,,,,,,,,,,,,,,,,,,,,,
,,,,,,,,,,,,,,,,,,,,,,,,,,,,,,,,,,,,,,,,,,5c9cb670b472d0001295f377,606a2fb13c0e7c91a79b5a39,2021-04-05_00h30.50.550,Colour_Similarity_Experiment,2020.2.10,Win32,60,60675255c767bca6388caeee,26.77245509,22.96444444,21.25227964,22.36607893,24.32572993,22.96444444,,,,,,,,,,,,,,,,,,,,PF,2,weak,,,,,,,,2,1.188,,,,,,,,,,,,,,,,,,,,,,,,,,,9,weak,-54.5,-32.5,1,0,0,response5disk,1,112,-0.5,1.5,1,0,0,rectangle,-0.5,1.5,1,0,0,0,2,0.002,-0.5,1.5,1,0,0,0,111,111,74,1,0,,,,,,,,,,,,,,,,,,,,,
,,,,,,,,,,,,,,,,,,,,,,,,,,,,,,,,,,,,,,,,,,5c9cb670b472d0001295f377,606a2fb13c0e7c91a79b5a39,2021-04-05_00h30.50.550,Colour_Similarity_Experiment,2020.2.10,Win32,60,60675255c767bca6388caeee,26.77245509,22.96444444,21.25227964,22.36607893,24.32572993,22.96444444,,,,,,,,,,,,,,,,,,,,PF,2,weak,,,,,,,,5,1.911,,,,,,,,,,,,,,,,,,,,,,,,,,,7,weak,76.5,-36.5,1,0,0,response3disk,9,113,7.5,1.5,1,0,0,rectangle,7.5,1.5,1,0,0,0,5,0.003,7.5,1.5,1,0,0,0,112,112,10,1,0,,,,,,,,,,,,,,,,,,,,,
,,,,,,,,,,,,,,,,,,,,,,,,,,,,,,,,,,,,,,,,,,5c9cb670b472d0001295f377,606a2fb13c0e7c91a79b5a39,2021-04-05_00h30.50.550,Colour_Similarity_Experiment,2020.2.10,Win32,60,60675255c767bca6388caeee,26.77245509,22.96444444,21.25227964,22.36607893,24.32572993,22.96444444,,,,,,,,,,,,,,,,,,,,PF,2,strong,,,,,,,,5,1.189,,,,,,,,,,,,,,,,,,,,,,,,,,,1,strong,59.5,-30.5,1,0,0,response3disk,2,114,9.5,0.5,1,0,0,rectangle,9.5,0.5,1,0,0,0,0,0.003,9.5,0.5,1,0,0,0,113,113,2,1,0,,,,,,,,,,,,,,,,,,,,,
,,,,,,,,,,,,,,,,,,,,,,,,,,,,,,,,,,,,,,,,,,5c9cb670b472d0001295f377,606a2fb13c0e7c91a79b5a39,2021-04-05_00h30.50.550,Colour_Similarity_Experiment,2020.2.10,Win32,60,60675255c767bca6388caeee,26.77245509,22.96444444,21.25227964,22.36607893,24.32572993,22.96444444,,,,,,,,,,,,,,,,,,,,PF,2,weak,,,,,,,,1,1.003,,,,,,,,,,,,,,,,,,,,,,,,,,,9,weak,-74.5,41.5,1,0,0,response7disk,7,115,-7.5,0.5,1,0,0,rectangle,-7.5,0.5,1,0,0,0,0,0.001,-7.5,0.5,1,0,0,0,114,114,121,1,0,,,,,,,,,,,,,,,,,,,,,
,,,,,,,,,,,,,,,,,,,,,,,,,,,,,,,,,,,,,,,,,,5c9cb670b472d0001295f377,606a2fb13c0e7c91a79b5a39,2021-04-05_00h30.50.550,Colour_Similarity_Experiment,2020.2.10,Win32,60,60675255c767bca6388caeee,26.77245509,22.96444444,21.25227964,22.36607893,24.32572993,22.96444444,,,,,,,,,,,,,,,,,,,,PF,2,strong,,,,,,,,0,1.341,,,,,,,,,,,,,,,,,,,,,,,,,,,5,strong,-32.5,64.5,1,0,0,response7disk,5,116,-3.5,9.5,1,0,0,rectangle,-3.5,9.5,1,0,0,0,2,0.004,-3.5,9.5,1,0,0,0,115,115,19,1,0,,,,,,,,,,,,,,,,,,,,,
,,,,,,,,,,,,,,,,,,,,,,,,,,,,,,,,,,,,,,,,,,5c9cb670b472d0001295f377,606a2fb13c0e7c91a79b5a39,2021-04-05_00h30.50.550,Colour_Similarity_Experiment,2020.2.10,Win32,60,60675255c767bca6388caeee,26.77245509,22.96444444,21.25227964,22.36607893,24.32572993,22.96444444,,,,,,,,,,,,,,,,,,,,PF,2,weak,,,,,,,,6,1.481,,,,,,,,,,,,,,,,,,,,,,,,,,,4,weak,79.5,32.5,1,0,0,response1disk,9,117,12.5,7.5,1,0,0,rectangle,12.5,7.5,1,0,0,0,1,0.004,12.5,7.5,1,0,0,0,116,116,75,1,0,,,,,,,,,,,,,,,,,,,,,
,,,,,,,,,,,,,,,,,,,,,,,,,,,,,,,,,,,,,,,,,,5c9cb670b472d0001295f377,606a2fb13c0e7c91a79b5a39,2021-04-05_00h30.50.550,Colour_Similarity_Experiment,2020.2.10,Win32,60,60675255c767bca6388caeee,26.77245509,22.96444444,21.25227964,22.36607893,24.32572993,22.96444444,,,,,,,,,,,,,,,,,,,,PF,2,strong,,,,,,,,6,1.24,,,,,,,,,,,,,,,,,,,,,,,,,,,4,strong,77.5,46.5,1,0,0,response1disk,2,118,14.5,10.5,1,0,0,rectangle,14.5,10.5,1,0,0,0,1,0.001,14.5,10.5,1,0,0,0,117,117,13,1,0,,,,,,,,,,,,,,,,,,,,,
,,,,,,,,,,,,,,,,,,,,,,,,,,,,,,,,,,,,,,,,,,5c9cb670b472d0001295f377,606a2fb13c0e7c91a79b5a39,2021-04-05_00h30.50.550,Colour_Similarity_Experiment,2020.2.10,Win32,60,60675255c767bca6388caeee,26.77245509,22.96444444,21.25227964,22.36607893,24.32572993,22.96444444,,,,,,,,,,,,,,,,,,,,PF,2,weak,,,,,,,,3,1.327,,,,,,,,,,,,,,,,,,,,,,,,,,,7,weak,-38.5,-68.5,1,0,0,response5disk,5,119,4.5,3.5,1,0,0,rectangle,4.5,3.5,1,0,0,0,2,0.006,4.5,3.5,1,0,0,0,118,118,92,1,0,,,,,,,,,,,,,,,,,,,,,
,,,,,,,,,,,,,,,,,,,,,,,,,,,,,,,,,,,,,,,,,,5c9cb670b472d0001295f377,606a2fb13c0e7c91a79b5a39,2021-04-05_00h30.50.550,Colour_Similarity_Experiment,2020.2.10,Win32,60,60675255c767bca6388caeee,26.77245509,22.96444444,21.25227964,22.36607893,24.32572993,22.96444444,,,,,,,,,,,,,,,,,,,,PF,2,strong,,,,,,,,6,1.485,,,,,,,,,,,,,,,,,,,,,,,,,,,6,strong,81.5,44.5,1,0,0,response1disk,9,120,3.5,7.5,1,0,0,rectangle,92.5,-47.5,1,0,0,5,5,1.895,10.5,-1.5,1,0,0,0,119,119,160,1,1,response3disk_3,rectangle,,,,,,,,,,,,,,,,,,,
,,,,,,,,,,,,,,,,,,,,,,,,,,,,,,,,,,,,,,,,,,5c9cb670b472d0001295f377,606a2fb13c0e7c91a79b5a39,2021-04-05_00h30.50.550,Colour_Similarity_Experiment,2020.2.10,Win32,60,60675255c767bca6388caeee,26.77245509,22.96444444,21.25227964,22.36607893,24.32572993,22.96444444,,,,,,,,,,,,,,,,,,,,PF,2,strong,,,,,,,,5,1.059,,,,,,,,,,,,,,,,,,,,,,,,,,,2,strong,70.5,-34.5,1,0,0,response3disk,9,121,13.5,2.5,1,0,0,rectangle,13.5,2.5,1,0,0,5,2,0.005,13.5,2.5,1,0,0,0,120,120,72,1,0,,,,,,,,,,,,,,,,,,,,,
,,,,,,,,,,,,,,,,,,,,,,,,,,,,,,,,,,,,,,,,,,5c9cb670b472d0001295f377,606a2fb13c0e7c91a79b5a39,2021-04-05_00h30.50.550,Colour_Similarity_Experiment,2020.2.10,Win32,60,60675255c767bca6388caeee,26.77245509,22.96444444,21.25227964,22.36607893,24.32572993,22.96444444,,,,,,,,,,,,,,,,,,,,PF,2,weak,,,,,,,,6,0.988,,,,,,,,,,,,,,,,,,,,,,,,,,,2,weak,59.5,40.5,1,0,0,response1disk,4,122,8.5,4.5,1,0,0,rectangle,8.5,4.5,1,0,0,5,0,0.006,8.5,4.5,1,0,0,0,121,121,127,1,0,,,,,,,,,,,,,,,,,,,,,
,,,,,,,,,,,,,,,,,,,,,,,,,,,,,,,,,,,,,,,,,,5c9cb670b472d0001295f377,606a2fb13c0e7c91a79b5a39,2021-04-05_00h30.50.550,Colour_Similarity_Experiment,2020.2.10,Win32,60,60675255c767bca6388caeee,26.77245509,22.96444444,21.25227964,22.36607893,24.32572993,22.96444444,,,,,,,,,,,,,,,,,,,,PF,2,strong,,,,,,,,1,1.294,,,,,,,,,,,,,,,,,,,,,,,,,,,4,strong,-55.5,33.5,1,0,0,response7disk,1,123,11.5,9.5,1,0,0,rectangle,11.5,9.5,1,0,0,5,7,0.006,11.5,9.5,1,0,0,0,122,122,102,1,0,,,,,,,,,,,,,,,,,,,,,
,,,,,,,,,,,,,,,,,,,,,,,,,,,,,,,,,,,,,,,,,,5c9cb670b472d0001295f377,606a2fb13c0e7c91a79b5a39,2021-04-05_00h30.50.550,Colour_Similarity_Experiment,2020.2.10,Win32,60,60675255c767bca6388caeee,26.77245509,22.96444444,21.25227964,22.36607893,24.32572993,22.96444444,,,,,,,,,,,,,,,,,,,,PF,2,strong,,,,,,,,7,1.4,,,,,,,,,,,,,,,,,,,,,,,,,,,7,strong,38.5,66.5,1,0,0,response1disk,1,124,0.5,3.5,1,0,0,rectangle,0.5,3.5,1,0,0,5,0,0.003,0.5,3.5,1,0,0,0,123,123,132,1,0,,,,,,,,,,,,,,,,,,,,,
,,,,,,,,,,,,,,,,,,,,,,,,,,,,,,,,,,,,,,,,,,5c9cb670b472d0001295f377,606a2fb13c0e7c91a79b5a39,2021-04-05_00h30.50.550,Colour_Similarity_Experiment,2020.2.10,Win32,60,60675255c767bca6388caeee,26.77245509,22.96444444,21.25227964,22.36607893,24.32572993,22.96444444,,,,,,,,,,,,,,,,,,,,PF,2,strong,,,,,,,,6,1.299,,,,,,,,,,,,,,,,,,,,,,,,,,,4,strong,58.5,47.5,1,0,0,response1disk,7,125,-4.5,3.5,1,0,0,rectangle,-4.5,3.5,1,0,0,5,7,0.003,-4.5,3.5,1,0,0,0,124,124,87,1,0,,,,,,,,,,,,,,,,,,,,,
,,,,,,,,,,,,,,,,,,,,,,,,,,,,,,,,,,,,,,,,,,5c9cb670b472d0001295f377,606a2fb13c0e7c91a79b5a39,2021-04-05_00h30.50.550,Colour_Similarity_Experiment,2020.2.10,Win32,60,60675255c767bca6388caeee,26.77245509,22.96444444,21.25227964,22.36607893,24.32572993,22.96444444,,,,,,,,,,,,,,,,,,,,PF,2,strong,,,,,,,,6,1.186,,,,,,,,,,,,,,,,,,,,,,,,,,,1,strong,63.5,35.5,1,0,0,response1disk,5,126,0.5,-0.5,1,0,0,rectangle,0.5,-0.5,1,0,0,5,4,0.006,0.5,-0.5,1,0,0,0,125,125,82,1,0,,,,,,,,,,,,,,,,,,,,,
,,,,,,,,,,,,,,,,,,,,,,,,,,,,,,,,,,,,,,,,,,5c9cb670b472d0001295f377,606a2fb13c0e7c91a79b5a39,2021-04-05_00h30.50.550,Colour_Similarity_Experiment,2020.2.10,Win32,60,60675255c767bca6388caeee,26.77245509,22.96444444,21.25227964,22.36607893,24.32572993,22.96444444,,,,,,,,,,,,,,,,,,,,PF,2,weak,,,,,,,,3,1.382,,,,,,,,,,,,,,,,,,,,,,,,,,,3,weak,-38.5,-64.5,1,0,0,response5disk,2,127,0.5,-3.5,1,0,0,rectangle,-28.5,78.5,1,0,0,0,0,3.997,2.5,0.5,1,0,0,0,126,126,36,1,1,response7disk_3,rectangle,,,,,,,,,,,,,,,,,,,
,,,,,,,,,,,,,,,,,,,,,,,,,,,,,,,,,,,,,,,,,,5c9cb670b472d0001295f377,606a2fb13c0e7c91a79b5a39,2021-04-05_00h30.50.550,Colour_Similarity_Experiment,2020.2.10,Win32,60,60675255c767bca6388caeee,26.77245509,22.96444444,21.25227964,22.36607893,24.32572993,22.96444444,,,,,,,,,,,,,,,,,,,,PF,2,weak,,,,,,,,6,1.149,,,,,,,,,,,,,,,,,,,,,,,,,,,1,weak,66.5,29.5,1,0,0,response1disk,6,128,4.5,-2.5,1,0,0,rectangle,4.5,-2.5,1,0,0,0,7,0.003,4.5,-2.5,1,0,0,0,127,127,144,1,0,,,,,,,,,,,,,,,,,,,,,
,,,,,,,,,,,,,,,,,,,,,,,,,,,,,,,,,,,,,,,,,,5c9cb670b472d0001295f377,606a2fb13c0e7c91a79b5a39,2021-04-05_00h30.50.550,Colour_Similarity_Experiment,2020.2.10,Win32,60,60675255c767bca6388caeee,26.77245509,22.96444444,21.25227964,22.36607893,24.32572993,22.96444444,,,,,,,,,,,,,,,,,,,,PF,2,weak,,,,,,,,3,1.4,,,,,,,,,,,,,,,,,,,,,,,,,,,1,weak,-58.5,-61.5,1,0,0,response5disk,8,129,11.5,1.5,1,0,0,rectangle,11.5,1.5,1,0,0,0,2,0.004,11.5,1.5,1,0,0,0,128,128,65,1,0,,,,,,,,,,,,,,,,,,,,,
,,,,,,,,,,,,,,,,,,,,,,,,,,,,,,,,,,,,,,,,,,5c9cb670b472d0001295f377,606a2fb13c0e7c91a79b5a39,2021-04-05_00h30.50.550,Colour_Similarity_Experiment,2020.2.10,Win32,60,60675255c767bca6388caeee,26.77245509,22.96444444,21.25227964,22.36607893,24.32572993,22.96444444,,,,,,,,,,,,,,,,,,,,PF,2,strong,,,,,,,,5,1.833,,,,,,,,,,,,,,,,,,,,,,,,,,,8,strong,63.5,-41.5,1,0,0,response3disk,3,130,10.5,-2.5,1,0,0,rectangle,10.5,-2.5,1,0,0,0,3,0.005,10.5,-2.5,1,0,0,0,129,129,154,1,0,,,,,,,,,,,,,,,,,,,,,
,,,,,,,,,,,,,,,,,,,,,,,,,,,,,,,,,,,,,,,,,,5c9cb670b472d0001295f377,606a2fb13c0e7c91a79b5a39,2021-04-05_00h30.50.550,Colour_Similarity_Experiment,2020.2.10,Win32,60,60675255c767bca6388caeee,26.77245509,22.96444444,21.25227964,22.36607893,24.32572993,22.96444444,,,,,,,,,,,,,,,,,,,,PF,2,strong,,,,,,,,6,1.377,,,,,,,,,,,,,,,,,,,,,,,,,,,5,strong,63.5,39.5,1,0,0,response1disk,1,131,6.5,7.5,1,0,0,rectangle,6.5,7.5,1,0,0,0,5,0.004,6.5,7.5,1,0,0,0,130,130,131,1,0,,,,,,,,,,,,,,,,,,,,,
,,,,,,,,,,,,,,,,,,,,,,,,,,,,,,,,,,,,,,,,,,5c9cb670b472d0001295f377,606a2fb13c0e7c91a79b5a39,2021-04-05_00h30.50.550,Colour_Similarity_Experiment,2020.2.10,Win32,60,60675255c767bca6388caeee,26.77245509,22.96444444,21.25227964,22.36607893,24.32572993,22.96444444,,,,,,,,,,,,,,,,,,,,PF,2,weak,,,,,,,,3,1.497,,,,,,,,,,,,,,,,,,,,,,,,,,,5,weak,-26.5,-55.5,1,0,0,response5disk,1,132,-11.5,1.5,1,0,0,rectangle,-38.5,-55.5,1,0,0,3,3,2.737,3.5,-0.5,1,0,0,0,131,131,159,1,1,response5disk_3,rectangle,,,,,,,,,,,,,,,,,,,
,,,,,,,,,,,,,,,,,,,,,,,,,,,,,,,,,,,,,,,,,,5c9cb670b472d0001295f377,606a2fb13c0e7c91a79b5a39,2021-04-05_00h30.50.550,Colour_Similarity_Experiment,2020.2.10,Win32,60,60675255c767bca6388caeee,26.77245509,22.96444444,21.25227964,22.36607893,24.32572993,22.96444444,,,,,,,,,,,,,,,,,,,,PF,2,weak,,,,,,,,0,1.224,,,,,,,,,,,,,,,,,,,,,,,,,,,4,weak,-32.5,81.5,1,0,0,response7disk,4,133,-9.5,5.5,1,0,0,rectangle,-9.5,5.5,1,0,0,3,7,0.003,-9.5,5.5,1,0,0,0,132,132,70,1,0,,,,,,,,,,,,,,,,,,,,,
,,,,,,,,,,,,,,,,,,,,,,,,,,,,,,,,,,,,,,,,,,5c9cb670b472d0001295f377,606a2fb13c0e7c91a79b5a39,2021-04-05_00h30.50.550,Colour_Similarity_Experiment,2020.2.10,Win32,60,60675255c767bca6388caeee,26.77245509,22.96444444,21.25227964,22.36607893,24.32572993,22.96444444,,,,,,,,,,,,,,,,,,,,PF,2,strong,,,,,,,,6,1.307,,,,,,,,,,,,,,,,,,,,,,,,,,,6,strong,63.5,28.5,1,0,0,response1disk,1,134,10.5,0.5,1,0,0,rectangle,10.5,0.5,1,0,0,3,1,0.003,10.5,0.5,1,0,0,0,133,133,5,1,0,,,,,,,,,,,,,,,,,,,,,
,,,,,,,,,,,,,,,,,,,,,,,,,,,,,,,,,,,,,,,,,,5c9cb670b472d0001295f377,606a2fb13c0e7c91a79b5a39,2021-04-05_00h30.50.550,Colour_Similarity_Experiment,2020.2.10,Win32,60,60675255c767bca6388caeee,26.77245509,22.96444444,21.25227964,22.36607893,24.32572993,22.96444444,,,,,,,,,,,,,,,,,,,,PF,2,weak,,,,,,,,1,1.187,,,,,,,,,,,,,,,,,,,,,,,,,,,8,weak,-76.5,42.5,1,0,0,response7disk,3,135,-12.5,7.5,1,0,0,rectangle,-12.5,7.5,1,0,0,3,6,0.003,-12.5,7.5,1,0,0,0,134,134,71,1,0,,,,,,,,,,,,,,,,,,,,,
,,,,,,,,,,,,,,,,,,,,,,,,,,,,,,,,,,,,,,,,,,5c9cb670b472d0001295f377,606a2fb13c0e7c91a79b5a39,2021-04-05_00h30.50.550,Colour_Similarity_Experiment,2020.2.10,Win32,60,60675255c767bca6388caeee,26.77245509,22.96444444,21.25227964,22.36607893,24.32572993,22.96444444,,,,,,,,,,,,,,,,,,,,PF,2,weak,,,,,,,,3,1.465,,,,,,,,,,,,,,,,,,,,,,,,,,,6,weak,-25.5,-65.5,1,0,0,response5disk,4,136,2.5,3.5,1,0,0,rectangle,2.5,3.5,1,0,0,3,7,0.003,2.5,3.5,1,0,0,0,135,135,33,1,0,,,,,,,,,,,,,,,,,,,,,
,,,,,,,,,,,,,,,,,,,,,,,,,,,,,,,,,,,,,,,,,,5c9cb670b472d0001295f377,606a2fb13c0e7c91a79b5a39,2021-04-05_00h30.50.550,Colour_Similarity_Experiment,2020.2.10,Win32,60,60675255c767bca6388caeee,26.77245509,22.96444444,21.25227964,22.36607893,24.32572993,22.96444444,,,,,,,,,,,,,,,,,,,,PF,2,strong,,,,,,,,1,1.406,,,,,,,,,,,,,,,,,,,,,,,,,,,7,strong,-74.5,38.5,1,0,0,response7disk,8,137,-9.5,-7.5,1,0,0,rectangle,46.5,38.5,1,0,0,6,6,2.983,1.5,3.5,1,0,0,0,136,136,97,1,1,response1disk_3,rectangle,,,,,,,,,,,,,,,,,,,
,,,,,,,,,,,,,,,,,,,,,,,,,,,,,,,,,,,,,,,,,,5c9cb670b472d0001295f377,606a2fb13c0e7c91a79b5a39,2021-04-05_00h30.50.550,Colour_Similarity_Experiment,2020.2.10,Win32,60,60675255c767bca6388caeee,26.77245509,22.96444444,21.25227964,22.36607893,24.32572993,22.96444444,,,,,,,,,,,,,,,,,,,,PF,2,strong,,,,,,,,6,2.127,,,,,,,,,,,,,,,,,,,,,,,,,,,9,strong,74.5,32.5,1,0,0,response1disk,6,138,-3.5,2.5,1,0,0,rectangle,-3.5,2.5,1,0,0,6,6,0.001,-3.5,2.5,1,0,0,0,137,137,117,1,0,,,,,,,,,,,,,,,,,,,,,
,,,,,,,,,,,,,,,,,,,,,,,,,,,,,,,,,,,,,,,,,,5c9cb670b472d0001295f377,606a2fb13c0e7c91a79b5a39,2021-04-05_00h30.50.550,Colour_Similarity_Experiment,2020.2.10,Win32,60,60675255c767bca6388caeee,26.77245509,22.96444444,21.25227964,22.36607893,24.32572993,22.96444444,,,,,,,,,,,,,,,,,,,,PF,2,strong,,,,,,,,5,1.152,,,,,,,,,,,,,,,,,,,,,,,,,,,8,strong,48.5,-28.5,1,0,0,response3disk,5,139,17.5,-2.5,1,0,0,rectangle,17.5,-2.5,1,0,0,6,5,0.006,17.5,-2.5,1,0,0,0,138,138,152,1,0,,,,,,,,,,,,,,,,,,,,,
,,,,,,,,,,,,,,,,,,,,,,,,,,,,,,,,,,,,,,,,,,5c9cb670b472d0001295f377,606a2fb13c0e7c91a79b5a39,2021-04-05_00h30.50.550,Colour_Similarity_Experiment,2020.2.10,Win32,60,60675255c767bca6388caeee,26.77245509,22.96444444,21.25227964,22.36607893,24.32572993,22.96444444,,,,,,,,,,,,,,,,,,,,PF,2,strong,,,,,,,,6,1.207,,,,,,,,,,,,,,,,,,,,,,,,,,,7,strong,53.5,29.5,1,0,0,response1disk,4,140,14.5,4.5,1,0,0,rectangle,14.5,4.5,1,0,0,6,6,0.004,14.5,4.5,1,0,0,0,139,139,158,1,0,,,,,,,,,,,,,,,,,,,,,
,,,,,,,,,,,,,,,,,,,,,,,,,,,,,,,,,,,,,,,,,,5c9cb670b472d0001295f377,606a2fb13c0e7c91a79b5a39,2021-04-05_00h30.50.550,Colour_Similarity_Experiment,2020.2.10,Win32,60,60675255c767bca6388caeee,26.77245509,22.96444444,21.25227964,22.36607893,24.32572993,22.96444444,,,,,,,,,,,,,,,,,,,,PF,2,strong,,,,,,,,0,1.266,,,,,,,,,,,,,,,,,,,,,,,,,,,3,strong,-39.5,69.5,1,0,0,response7disk,4,141,-3.5,-5.5,1,0,0,rectangle,-3.5,-5.5,1,0,0,6,5,0.003,-3.5,-5.5,1,0,0,0,140,140,110,1,0,,,,,,,,,,,,,,,,,,,,,
,,,,,,,,,,,,,,,,,,,,,,,,,,,,,,,,,,,,,,,,,,5c9cb670b472d0001295f377,606a2fb13c0e7c91a79b5a39,2021-04-05_00h30.50.550,Colour_Similarity_Experiment,2020.2.10,Win32,60,60675255c767bca6388caeee,26.77245509,22.96444444,21.25227964,22.36607893,24.32572993,22.96444444,,,,,,,,,,,,,,,,,,,,PF,2,weak,,,,,,,,1,1.684,,,,,,,,,,,,,,,,,,,,,,,,,,,2,weak,-67.5,43.5,1,0,0,response7disk,2,142,2.5,-2.5,1,0,0,rectangle,2.5,-2.5,1,0,0,6,0,0.003,2.5,-2.5,1,0,0,0,141,141,14,1,0,,,,,,,,,,,,,,,,,,,,,
,,,,,,,,,,,,,,,,,,,,,,,,,,,,,,,,,,,,,,,,,,5c9cb670b472d0001295f377,606a2fb13c0e7c91a79b5a39,2021-04-05_00h30.50.550,Colour_Similarity_Experiment,2020.2.10,Win32,60,60675255c767bca6388caeee,26.77245509,22.96444444,21.25227964,22.36607893,24.32572993,22.96444444,,,,,,,,,,,,,,,,,,,,PF,2,strong,,,,,,,,0,1.251,,,,,,,,,,,,,,,,,,,,,,,,,,,7,strong,-20.5,57.5,1,0,0,response7disk,7,143,-6.5,7.5,1,0,0,rectangle,-6.5,7.5,1,0,0,6,3,0.005,-6.5,7.5,1,0,0,0,142,142,34,1,0,,,,,,,,,,,,,,,,,,,,,
,,,,,,,,,,,,,,,,,,,,,,,,,,,,,,,,,,,,,,,,,,5c9cb670b472d0001295f377,606a2fb13c0e7c91a79b5a39,2021-04-05_00h30.50.550,Colour_Similarity_Experiment,2020.2.10,Win32,60,60675255c767bca6388caeee,26.77245509,22.96444444,21.25227964,22.36607893,24.32572993,22.96444444,,,,,,,,,,,,,,,,,,,,PF,2,weak,,,,,,,,0,1.1,,,,,,,,,,,,,,,,,,,,,,,,,,,9,weak,-27.5,59.5,1,0,0,response7disk,6,144,2.5,0.5,1,0,0,rectangle,2.5,0.5,1,0,0,6,7,0.003,2.5,0.5,1,0,0,0,143,143,148,1,0,,,,,,,,,,,,,,,,,,,,,
,,,,,,,,,,,,,,,,,,,,,,,,,,,,,,,,,,,,,,,,,,5c9cb670b472d0001295f377,606a2fb13c0e7c91a79b5a39,2021-04-05_00h30.50.550,Colour_Similarity_Experiment,2020.2.10,Win32,60,60675255c767bca6388caeee,26.77245509,22.96444444,21.25227964,22.36607893,24.32572993,22.96444444,,,,,,,,,,,,,,,,,,,,PF,2,weak,,,,,,,,2,0.989,,,,,,,,,,,,,,,,,,,,,,,,,,,2,weak,-55.5,-26.5,1,0,0,response5disk,7,145,10.5,4.5,1,0,0,rectangle,10.5,4.5,1,0,0,6,4,0.006,10.5,4.5,1,0,0,0,144,144,107,1,0,,,,,,,,,,,,,,,,,,,,,
,,,,,,,,,,,,,,,,,,,,,,,,,,,,,,,,,,,,,,,,,,5c9cb670b472d0001295f377,606a2fb13c0e7c91a79b5a39,2021-04-05_00h30.50.550,Colour_Similarity_Experiment,2020.2.10,Win32,60,60675255c767bca6388caeee,26.77245509,22.96444444,21.25227964,22.36607893,24.32572993,22.96444444,,,,,,,,,,,,,,,,,,,,PF,2,weak,,,,,,,,6,1.393,,,,,,,,,,,,,,,,,,,,,,,,,,,1,weak,63.5,24.5,1,0,0,response1disk,5,146,6.5,-0.5,1,0,0,rectangle,6.5,-0.5,1,0,0,6,2,0.003,6.5,-0.5,1,0,0,0,145,145,28,1,0,,,,,,,,,,,,,,,,,,,,,
,,,,,,,,,,,,,,,,,,,,,,,,,,,,,,,,,,,,,,,,,,5c9cb670b472d0001295f377,606a2fb13c0e7c91a79b5a39,2021-04-05_00h30.50.550,Colour_Similarity_Experiment,2020.2.10,Win32,60,60675255c767bca6388caeee,26.77245509,22.96444444,21.25227964,22.36607893,24.32572993,22.96444444,,,,,,,,,,,,,,,,,,,,PF,2,strong,,,,,,,,0,1.207,,,,,,,,,,,,,,,,,,,,,,,,,,,6,strong,-38.5,57.5,1,0,0,response7disk,6,147,0.5,0.5,1,0,0,rectangle,0.5,0.5,1,0,0,6,4,0.004,0.5,0.5,1,0,0,0,146,146,91,1,0,,,,,,,,,,,,,,,,,,,,,
,,,,,,,,,,,,,,,,,,,,,,,,,,,,,,,,,,,,,,,,,,5c9cb670b472d0001295f377,606a2fb13c0e7c91a79b5a39,2021-04-05_00h30.50.550,Colour_Similarity_Experiment,2020.2.10,Win32,60,60675255c767bca6388caeee,26.77245509,22.96444444,21.25227964,22.36607893,24.32572993,22.96444444,,,,,,,,,,,,,,,,,,,,PF,2,weak,,,,,,,,3,1.828,,,,,,,,,,,,,,,,,,,,,,,,,,,6,weak,-32.5,-57.5,1,0,0,response5disk,9,148,15.5,-2.5,1,0,0,rectangle,15.5,-2.5,1,0,0,6,1,0.003,15.5,-2.5,1,0,0,0,147,147,45,1,0,,,,,,,,,,,,,,,,,,,,,
,,,,,,,,,,,,,,,,,,,,,,,,,,,,,,,,,,,,,,,,,,5c9cb670b472d0001295f377,606a2fb13c0e7c91a79b5a39,2021-04-05_00h30.50.550,Colour_Similarity_Experiment,2020.2.10,Win32,60,60675255c767bca6388caeee,26.77245509,22.96444444,21.25227964,22.36607893,24.32572993,22.96444444,,,,,,,,,,,,,,,,,,,,PF,2,strong,,,,,,,,6,1.11,,,,,,,,,,,,,,,,,,,,,,,,,,,5,strong,50.5,30.5,1,0,0,response1disk,9,149,10.5,0.5,1,0,0,rectangle,10.5,0.5,1,0,0,6,2,0.002,10.5,0.5,1,0,0,0,148,148,61,1,0,,,,,,,,,,,,,,,,,,,,,
,,,,,,,,,,,,,,,,,,,,,,,,,,,,,,,,,,,,,,,,,,5c9cb670b472d0001295f377,606a2fb13c0e7c91a79b5a39,2021-04-05_00h30.50.550,Colour_Similarity_Experiment,2020.2.10,Win32,60,60675255c767bca6388caeee,26.77245509,22.96444444,21.25227964,22.36607893,24.32572993,22.96444444,,,,,,,,,,,,,,,,,,,,PF,2,strong,,,,,,,,6,1.312,,,,,,,,,,,,,,,,,,,,,,,,,,,7,strong,46.5,31.5,1,0,0,response1disk,9,150,12.5,4.5,1,0,0,rectangle,12.5,4.5,1,0,0,6,5,0.003,12.5,4.5,1,0,0,0,149,149,155,1,0,,,,,,,,,,,,,,,,,,,,,
,,,,,,,,,,,,,,,,,,,,,,,,,,,,,,,,,,,,,,,,,,5c9cb670b472d0001295f377,606a2fb13c0e7c91a79b5a39,2021-04-05_00h30.50.550,Colour_Similarity_Experiment,2020.2.10,Win32,60,60675255c767bca6388caeee,26.77245509,22.96444444,21.25227964,22.36607893,24.32572993,22.96444444,,,,,,,,,,,,,,,,,,,,PF,2,strong,,,,,,,,6,1.189,,,,,,,,,,,,,,,,,,,,,,,,,,,2,strong,59.5,23.5,1,0,0,response1disk,7,151,-3.5,-4.5,1,0,0,rectangle,-3.5,-4.5,1,0,0,6,1,0.005,-3.5,-4.5,1,0,0,0,150,150,63,1,0,,,,,,,,,,,,,,,,,,,,,
,,,,,,,,,,,,,,,,,,,,,,,,,,,,,,,,,,,,,,,,,,5c9cb670b472d0001295f377,606a2fb13c0e7c91a79b5a39,2021-04-05_00h30.50.550,Colour_Similarity_Experiment,2020.2.10,Win32,60,60675255c767bca6388caeee,26.77245509,22.96444444,21.25227964,22.36607893,24.32572993,22.96444444,,,,,,,,,,,,,,,,,,,,PF,2,strong,,,,,,,,0,1.3,,,,,,,,,,,,,,,,,,,,,,,,,,,1,strong,-29.5,58.5,1,0,0,response7disk,1,152,-12.5,-0.5,1,0,0,rectangle,-12.5,-0.5,1,0,0,6,7,0.004,-12.5,-0.5,1,0,0,0,151,151,151,1,0,,,,,,,,,,,,,,,,,,,,,
,,,,,,,,,,,,,,,,,,,,,,,,,,,,,,,,,,,,,,,,,,5c9cb670b472d0001295f377,606a2fb13c0e7c91a79b5a39,2021-04-05_00h30.50.550,Colour_Similarity_Experiment,2020.2.10,Win32,60,60675255c767bca6388caeee,26.77245509,22.96444444,21.25227964,22.36607893,24.32572993,22.96444444,,,,,,,,,,,,,,,,,,,,PF,2,strong,,,,,,,,0,1.175,,,,,,,,,,,,,,,,,,,,,,,,,,,3,strong,-33.5,63.5,1,0,0,response7disk,3,153,-9.5,6.5,1,0,0,rectangle,-9.5,6.5,1,0,0,6,5,0.003,-9.5,6.5,1,0,0,0,152,152,68,1,0,,,,,,,,,,,,,,,,,,,,,
,,,,,,,,,,,,,,,,,,,,,,,,,,,,,,,,,,,,,,,,,,5c9cb670b472d0001295f377,606a2fb13c0e7c91a79b5a39,2021-04-05_00h30.50.550,Colour_Similarity_Experiment,2020.2.10,Win32,60,60675255c767bca6388caeee,26.77245509,22.96444444,21.25227964,22.36607893,24.32572993,22.96444444,,,,,,,,,,,,,,,,,,,,PF,2,strong,,,,,,,,3,1.492,,,,,,,,,,,,,,,,,,,,,,,,,,,1,strong,-20.5,-58.5,1,0,0,response5disk,7,154,4.5,0.5,1,0,0,rectangle,4.5,0.5,1,0,0,6,6,0.003,4.5,0.5,1,0,0,0,153,153,137,1,0,,,,,,,,,,,,,,,,,,,,,
,,,,,,,,,,,,,,,,,,,,,,,,,,,,,,,,,,,,,,,,,,5c9cb670b472d0001295f377,606a2fb13c0e7c91a79b5a39,2021-04-05_00h30.50.550,Colour_Similarity_Experiment,2020.2.10,Win32,60,60675255c767bca6388caeee,26.77245509,22.96444444,21.25227964,22.36607893,24.32572993,22.96444444,,,,,,,,,,,,,,,,,,,,PF,2,weak,,,,,,,,0,1.261,,,,,,,,,,,,,,,,,,,,,,,,,,,5,weak,-30.5,58.5,1,0,0,response7disk,4,155,-7.5,2.5,1,0,0,rectangle,-7.5,2.5,1,0,0,6,7,0.002,-7.5,2.5,1,0,0,0,154,154,54,1,0,,,,,,,,,,,,,,,,,,,,,
,,,,,,,,,,,,,,,,,,,,,,,,,,,,,,,,,,,,,,,,,,5c9cb670b472d0001295f377,606a2fb13c0e7c91a79b5a39,2021-04-05_00h30.50.550,Colour_Similarity_Experiment,2020.2.10,Win32,60,60675255c767bca6388caeee,26.77245509,22.96444444,21.25227964,22.36607893,24.32572993,22.96444444,,,,,,,,,,,,,,,,,,,,PF,2,weak,,,,,,,,2,1.579,,,,,,,,,,,,,,,,,,,,,,,,,,,7,weak,-82.5,-34.5,1,0,0,response5disk,8,156,-3.5,0.5,1,0,0,rectangle,-3.5,0.5,1,0,0,6,3,0.002,-3.5,0.5,1,0,0,0,155,155,140,1,0,,,,,,,,,,,,,,,,,,,,,
,,,,,,,,,,,,,,,,,,,,,,,,,,,,,,,,,,,,,,,,,,5c9cb670b472d0001295f377,606a2fb13c0e7c91a79b5a39,2021-04-05_00h30.50.550,Colour_Similarity_Experiment,2020.2.10,Win32,60,60675255c767bca6388caeee,26.77245509,22.96444444,21.25227964,22.36607893,24.32572993,22.96444444,,,,,,,,,,,,,,,,,,,,PF,2,strong,,,,,,,,3,1.824,,,,,,,,,,,,,,,,,,,,,,,,,,,7,strong,-31.5,-45.5,1,0,0,response5disk,3,157,12.5,0.5,1,0,0,rectangle,12.5,0.5,1,0,0,6,1,0.003,12.5,0.5,1,0,0,0,156,156,73,1,0,,,,,,,,,,,,,,,,,,,,,
,,,,,,,,,,,,,,,,,,,,,,,,,,,,,,,,,,,,,,,,,,5c9cb670b472d0001295f377,606a2fb13c0e7c91a79b5a39,2021-04-05_00h30.50.550,Colour_Similarity_Experiment,2020.2.10,Win32,60,60675255c767bca6388caeee,26.77245509,22.96444444,21.25227964,22.36607893,24.32572993,22.96444444,,,,,,,,,,,,,,,,,,,,PF,2,weak,,,,,,,,2,1.196,,,,,,,,,,,,,,,,,,,,,,,,,,,3,weak,-68.5,-38.5,1,0,0,response5disk,5,158,10.5,-0.5,1,0,0,rectangle,10.5,-0.5,1,0,0,6,6,0.002,10.5,-0.5,1,0,0,0,157,157,66,1,0,,,,,,,,,,,,,,,,,,,,,
,,,,,,,,,,,,,,,,,,,,,,,,,,,,,,,,,,,,,,,,,,5c9cb670b472d0001295f377,606a2fb13c0e7c91a79b5a39,2021-04-05_00h30.50.550,Colour_Similarity_Experiment,2020.2.10,Win32,60,60675255c767bca6388caeee,26.77245509,22.96444444,21.25227964,22.36607893,24.32572993,22.96444444,,,,,,,,,,,,,,,,,,,,PF,2,strong,,,,,,,,1,1.183,,,,,,,,,,,,,,,,,,,,,,,,,,,9,strong,-65.5,32.5,1,0,0,response7disk,9,159,-8.5,-3.5,1,0,0,rectangle,-8.5,-3.5,1,0,0,6,3,0.004,-8.5,-3.5,1,0,0,0,158,158,17,1,0,,,,,,,,,,,,,,,,,,,,,
,,,,,,,,,,,,,,,,,,,,,,,,,,,,,,,,,,,,,,,,,,5c9cb670b472d0001295f377,606a2fb13c0e7c91a79b5a39,2021-04-05_00h30.50.550,Colour_Similarity_Experiment,2020.2.10,Win32,60,60675255c767bca6388caeee,26.77245509,22.96444444,21.25227964,22.36607893,24.32572993,22.96444444,,,,,,,,,,,,,,,,,,,,PF,2,weak,,,,,,,,2,1.368,,,,,,,,,,,,,,,,,,,,,,,,,,,6,weak,-70.5,-43.5,1,0,0,response5disk,6,160,7.5,5.5,1,0,0,rectangle,7.5,5.5,1,0,0,6,6,0.003,7.5,5.5,1,0,0,0,159,159,0,1,0,,,,,,,,,,,,,,,,,,,,,
,,,,,,,,,,,,,,,,,,,,,,,,,,,,,,,,,,,,,,,,,,5c9cb670b472d0001295f377,606a2fb13c0e7c91a79b5a39,2021-04-05_00h30.50.550,Colour_Similarity_Experiment,2020.2.10,Win32,60,60675255c767bca6388caeee,26.77245509,22.96444444,21.25227964,22.36607893,24.32572993,22.96444444,,,,,,,,,,,,,,,,,,,,PF,2,weak,,,,,,,,0,1.343,,,,,,,,,,,,,,,,,,,,,,,,,,,6,weak,-39.5,73.5,1,0,0,response7disk,7,161,-13.5,0.5,1,0,0,rectangle,-13.5,0.5,1,0,0,6,6,0,-13.5,0.5,1,0,0,0,160,160,50,1,0,,,,,,,,,,,,,,,,,,,,,
,,,,,,,,,,,,,,,,,,,,,,,,,,,,,,,,,,,,,,,,,,5c9cb670b472d0001295f377,606a2fb13c0e7c91a79b5a39,2021-04-05_00h30.50.550,Colour_Similarity_Experiment,2020.2.10,Win32,60,60675255c767bca6388caeee,26.77245509,22.96444444,21.25227964,22.36607893,24.32572993,22.96444444,,,,,,,,,,,,,,,,,,,,PF,2,weak,,,,,,,,3,1.419,,,,,,,,,,,,,,,,,,,,,,,,,,,6,weak,-39.5,-71.5,1,0,0,response5disk,1,162,11.5,0.5,1,0,0,rectangle,11.5,0.5,1,0,0,6,7,0.002,11.5,0.5,1,0,0,0,161,161,46,1,0,,,,,,,,,,,,,,,,,,,,,
,,,,,,,,,,,,,,,,,,,,,,,,,,,,,,,,,,,,,,,,,,5c9cb670b472d0001295f377,606a2fb13c0e7c91a79b5a39,2021-04-05_00h30.50.550,Colour_Similarity_Experiment,2020.2.10,Win32,60,60675255c767bca6388caeee,26.77245509,22.96444444,21.25227964,22.36607893,24.32572993,22.96444444,,,,,,,,,,,,,,,,,,,,,,,,,,,,,,,,,,,,,,,,,,,,,,,,,,,,,,,,,,,,,,,,,,,,,,,,,,,,,,,,,,,,,,,,,,,,,,,0,0,0,0,1,,,,,,,,,,,,,,
,,,,,,,,,,,,,,,,,,,,,,,,,,,,,,,,,,,,,,,,,,5c9cb670b472d0001295f377,606a2fb13c0e7c91a79b5a39,2021-04-05_00h30.50.550,Colour_Similarity_Experiment,2020.2.10,Win32,60,60675255c767bca6388caeee,26.77245509,22.96444444,21.25227964,22.36607893,24.32572993,22.96444444,,,,,,,,,,,,,,,,,,,,PF,2,strong,,,,,,,,6,1.567,,,,,,,,,,,,,,,,,,,,,,,,,,,9,strong,49.5,30.5,1,0,0,response1disk,8,163,-6.5,0.5,1,0,0,rectangle,-6.5,0.5,1,0,0,6,2,0.003,-6.5,0.5,1,0,0,0,0,0,6,1,0,,,,,,,,,,,,,,,,,,,,,
,,,,,,,,,,,,,,,,,,,,,,,,,,,,,,,,,,,,,,,,,,5c9cb670b472d0001295f377,606a2fb13c0e7c91a79b5a39,2021-04-05_00h30.50.550,Colour_Similarity_Experiment,2020.2.10,Win32,60,60675255c767bca6388caeee,26.77245509,22.96444444,21.25227964,22.36607893,24.32572993,22.96444444,,,,,,,,,,,,,,,,,,,,PF,2,strong,,,,,,,,6,1.299,,,,,,,,,,,,,,,,,,,,,,,,,,,6,strong,54.5,25.5,1,0,0,response1disk,5,164,0.5,-1.5,1,0,0,rectangle,0.5,-1.5,1,0,0,6,1,0.003,0.5,-1.5,1,0,0,0,1,1,126,1,0,,,,,,,,,,,,,,,,,,,,,
,,,,,,,,,,,,,,,,,,,,,,,,,,,,,,,,,,,,,,,,,,5c9cb670b472d0001295f377,606a2fb13c0e7c91a79b5a39,2021-04-05_00h30.50.550,Colour_Similarity_Experiment,2020.2.10,Win32,60,60675255c767bca6388caeee,26.77245509,22.96444444,21.25227964,22.36607893,24.32572993,22.96444444,,,,,,,,,,,,,,,,,,,,PF,2,weak,,,,,,,,4,1.666,,,,,,,,,,,,,,,,,,,,,,,,,,,8,weak,23.5,-55.5,1,0,0,response3disk,9,165,2.5,7.5,1,0,0,rectangle,2.5,7.5,1,0,0,6,6,0.003,2.5,7.5,1,0,0,0,2,2,42,1,0,,,,,,,,,,,,,,,,,,,,,
,,,,,,,,,,,,,,,,,,,,,,,,,,,,,,,,,,,,,,,,,,5c9cb670b472d0001295f377,606a2fb13c0e7c91a79b5a39,2021-04-05_00h30.50.550,Colour_Similarity_Experiment,2020.2.10,Win32,60,60675255c767bca6388caeee,26.77245509,22.96444444,21.25227964,22.36607893,24.32572993,22.96444444,,,,,,,,,,,,,,,,,,,,PF,2,weak,,,,,,,,5,1.134,,,,,,,,,,,,,,,,,,,,,,,,,,,5,weak,48.5,-30.5,1,0,0,response3disk,9,166,15.5,3.5,1,0,0,rectangle,37.5,-69.5,1,0,0,4,4,2.124,10.5,-0.5,1,0,0,0,3,3,136,1,1,response3disk_3,rectangle,,,,,,,,,,,,,,,,,,,
,,,,,,,,,,,,,,,,,,,,,,,,,,,,,,,,,,,,,,,,,,5c9cb670b472d0001295f377,606a2fb13c0e7c91a79b5a39,2021-04-05_00h30.50.550,Colour_Similarity_Experiment,2020.2.10,Win32,60,60675255c767bca6388caeee,26.77245509,22.96444444,21.25227964,22.36607893,24.32572993,22.96444444,,,,,,,,,,,,,,,,,,,,PF,2,strong,,,,,,,,4,1.161,,,,,,,,,,,,,,,,,,,,,,,,,,,1,strong,30.5,-56.5,1,0,0,response3disk,8,167,16.5,-0.5,1,0,0,rectangle,16.5,-0.5,1,0,0,4,4,0.002,16.5,-0.5,1,0,0,0,4,4,27,1,0,,,,,,,,,,,,,,,,,,,,,
,,,,,,,,,,,,,,,,,,,,,,,,,,,,,,,,,,,,,,,,,,5c9cb670b472d0001295f377,606a2fb13c0e7c91a79b5a39,2021-04-05_00h30.50.550,Colour_Similarity_Experiment,2020.2.10,Win32,60,60675255c767bca6388caeee,26.77245509,22.96444444,21.25227964,22.36607893,24.32572993,22.96444444,,,,,,,,,,,,,,,,,,,,PF,2,weak,,,,,,,,2,1.356,,,,,,,,,,,,,,,,,,,,,,,,,,,7,weak,-77.5,-39.5,1,0,0,response5disk,3,168,0.5,-4.5,1,0,0,rectangle,0.5,-4.5,1,0,0,4,4,0,0.5,-4.5,1,0,0,0,5,5,81,1,0,,,,,,,,,,,,,,,,,,,,,
,,,,,,,,,,,,,,,,,,,,,,,,,,,,,,,,,,,,,,,,,,5c9cb670b472d0001295f377,606a2fb13c0e7c91a79b5a39,2021-04-05_00h30.50.550,Colour_Similarity_Experiment,2020.2.10,Win32,60,60675255c767bca6388caeee,26.77245509,22.96444444,21.25227964,22.36607893,24.32572993,22.96444444,,,,,,,,,,,,,,,,,,,,PF,2,strong,,,,,,,,4,1.172,,,,,,,,,,,,,,,,,,,,,,,,,,,9,strong,22.5,-65.5,1,0,0,response3disk,3,169,3.5,-3.5,1,0,0,rectangle,3.5,-3.5,1,0,0,4,4,0.001,3.5,-3.5,1,0,0,0,6,6,141,1,0,,,,,,,,,,,,,,,,,,,,,
,,,,,,,,,,,,,,,,,,,,,,,,,,,,,,,,,,,,,,,,,,5c9cb670b472d0001295f377,606a2fb13c0e7c91a79b5a39,2021-04-05_00h30.50.550,Colour_Similarity_Experiment,2020.2.10,Win32,60,60675255c767bca6388caeee,26.77245509,22.96444444,21.25227964,22.36607893,24.32572993,22.96444444,,,,,,,,,,,,,,,,,,,,PF,2,strong,,,,,,,,5,1.341,,,,,,,,,,,,,,,,,,,,,,,,,,,4,strong,56.5,-38.5,1,0,0,response3disk,9,170,5.5,-0.5,1,0,0,rectangle,5.5,-0.5,1,0,0,4,7,0.005,5.5,-0.5,1,0,0,0,7,7,90,1,0,,,,,,,,,,,,,,,,,,,,,
,,,,,,,,,,,,,,,,,,,,,,,,,,,,,,,,,,,,,,,,,,5c9cb670b472d0001295f377,606a2fb13c0e7c91a79b5a39,2021-04-05_00h30.50.550,Colour_Similarity_Experiment,2020.2.10,Win32,60,60675255c767bca6388caeee,26.77245509,22.96444444,21.25227964,22.36607893,24.32572993,22.96444444,,,,,,,,,,,,,,,,,,,,PF,2,strong,,,,,,,,2,1.316,,,,,,,,,,,,,,,,,,,,,,,,,,,9,strong,-68.5,-28.5,1,0,0,response5disk,1,171,23.5,-5.5,1,0,0,rectangle,23.5,-5.5,1,0,0,4,0,0.003,23.5,-5.5,1,0,0,0,8,8,111,1,0,,,,,,,,,,,,,,,,,,,,,
,,,,,,,,,,,,,,,,,,,,,,,,,,,,,,,,,,,,,,,,,,5c9cb670b472d0001295f377,606a2fb13c0e7c91a79b5a39,2021-04-05_00h30.50.550,Colour_Similarity_Experiment,2020.2.10,Win32,60,60675255c767bca6388caeee,26.77245509,22.96444444,21.25227964,22.36607893,24.32572993,22.96444444,,,,,,,,,,,,,,,,,,,,PF,2,strong,,,,,,,,5,1.372,,,,,,,,,,,,,,,,,,,,,,,,,,,2,strong,78.5,-38.5,1,0,0,response3disk,8,172,21.5,-4.5,1,0,0,rectangle,21.5,-4.5,1,0,0,4,4,0.003,21.5,-4.5,1,0,0,0,9,9,62,1,0,,,,,,,,,,,,,,,,,,,,,
,,,,,,,,,,,,,,,,,,,,,,,,,,,,,,,,,,,,,,,,,,5c9cb670b472d0001295f377,606a2fb13c0e7c91a79b5a39,2021-04-05_00h30.50.550,Colour_Similarity_Experiment,2020.2.10,Win32,60,60675255c767bca6388caeee,26.77245509,22.96444444,21.25227964,22.36607893,24.32572993,22.96444444,,,,,,,,,,,,,,,,,,,,PF,2,weak,,,,,,,,3,1.368,,,,,,,,,,,,,,,,,,,,,,,,,,,6,weak,-23.5,-59.5,1,0,0,response5disk,5,173,1.5,4.5,1,0,0,rectangle,1.5,4.5,1,0,0,4,7,0.004,1.5,4.5,1,0,0,0,10,10,59,1,0,,,,,,,,,,,,,,,,,,,,,
,,,,,,,,,,,,,,,,,,,,,,,,,,,,,,,,,,,,,,,,,,5c9cb670b472d0001295f377,606a2fb13c0e7c91a79b5a39,2021-04-05_00h30.50.550,Colour_Similarity_Experiment,2020.2.10,Win32,60,60675255c767bca6388caeee,26.77245509,22.96444444,21.25227964,22.36607893,24.32572993,22.96444444,,,,,,,,,,,,,,,,,,,,PF,2,strong,,,,,,,,4,1.424,,,,,,,,,,,,,,,,,,,,,,,,,,,2,strong,27.5,-58.5,1,0,0,response3disk,5,174,2.5,-1.5,1,0,0,rectangle,2.5,-1.5,1,0,0,4,2,0.003,2.5,-1.5,1,0,0,0,11,11,80,1,0,,,,,,,,,,,,,,,,,,,,,
,,,,,,,,,,,,,,,,,,,,,,,,,,,,,,,,,,,,,,,,,,5c9cb670b472d0001295f377,606a2fb13c0e7c91a79b5a39,2021-04-05_00h30.50.550,Colour_Similarity_Experiment,2020.2.10,Win32,60,60675255c767bca6388caeee,26.77245509,22.96444444,21.25227964,22.36607893,24.32572993,22.96444444,,,,,,,,,,,,,,,,,,,,PF,2,weak,,,,,,,,2,1.499,,,,,,,,,,,,,,,,,,,,,,,,,,,7,weak,-78.5,-42.5,1,0,0,response5disk,7,175,3.5,-0.5,1,0,0,rectangle,3.5,-0.5,1,0,0,4,2,0.001,3.5,-0.5,1,0,0,0,12,12,51,1,0,,,,,,,,,,,,,,,,,,,,,
,,,,,,,,,,,,,,,,,,,,,,,,,,,,,,,,,,,,,,,,,,5c9cb670b472d0001295f377,606a2fb13c0e7c91a79b5a39,2021-04-05_00h30.50.550,Colour_Similarity_Experiment,2020.2.10,Win32,60,60675255c767bca6388caeee,26.77245509,22.96444444,21.25227964,22.36607893,24.32572993,22.96444444,,,,,,,,,,,,,,,,,,,,PF,2,weak,,,,,,,,2,1.299,,,,,,,,,,,,,,,,,,,,,,,,,,,8,weak,-67.5,-35.5,1,0,0,response5disk,4,176,-2.5,-6.5,1,0,0,rectangle,-2.5,-6.5,1,0,0,4,5,0.003,-2.5,-6.5,1,0,0,0,13,13,78,1,0,,,,,,,,,,,,,,,,,,,,,
,,,,,,,,,,,,,,,,,,,,,,,,,,,,,,,,,,,,,,,,,,5c9cb670b472d0001295f377,606a2fb13c0e7c91a79b5a39,2021-04-05_00h30.50.550,Colour_Similarity_Experiment,2020.2.10,Win32,60,60675255c767bca6388caeee,26.77245509,22.96444444,21.25227964,22.36607893,24.32572993,22.96444444,,,,,,,,,,,,,,,,,,,,PF,2,strong,,,,,,,,5,1.566,,,,,,,,,,,,,,,,,,,,,,,,,,,8,strong,71.5,-44.5,1,0,0,response3disk,1,177,3.5,-2.5,1,0,0,rectangle,3.5,-2.5,1,0,0,4,0,0.004,3.5,-2.5,1,0,0,0,14,14,20,1,0,,,,,,,,,,,,,,,,,,,,,
,,,,,,,,,,,,,,,,,,,,,,,,,,,,,,,,,,,,,,,,,,5c9cb670b472d0001295f377,606a2fb13c0e7c91a79b5a39,2021-04-05_00h30.50.550,Colour_Similarity_Experiment,2020.2.10,Win32,60,60675255c767bca6388caeee,26.77245509,22.96444444,21.25227964,22.36607893,24.32572993,22.96444444,,,,,,,,,,,,,,,,,,,,PF,2,strong,,,,,,,,6,1.206,,,,,,,,,,,,,,,,,,,,,,,,,,,4,strong,66.5,26.5,1,0,0,response1disk,8,178,18.5,3.5,1,0,0,rectangle,18.5,3.5,1,0,0,4,4,0.003,18.5,3.5,1,0,0,0,15,15,35,1,0,,,,,,,,,,,,,,,,,,,,,
,,,,,,,,,,,,,,,,,,,,,,,,,,,,,,,,,,,,,,,,,,5c9cb670b472d0001295f377,606a2fb13c0e7c91a79b5a39,2021-04-05_00h30.50.550,Colour_Similarity_Experiment,2020.2.10,Win32,60,60675255c767bca6388caeee,26.77245509,22.96444444,21.25227964,22.36607893,24.32572993,22.96444444,,,,,,,,,,,,,,,,,,,,PF,2,strong,,,,,,,,0,1.351,,,,,,,,,,,,,,,,,,,,,,,,,,,4,strong,-35.5,66.5,1,0,0,response7disk,3,179,0.5,-3.5,1,0,0,rectangle,0.5,-3.5,1,0,0,4,7,0.004,0.5,-3.5,1,0,0,0,16,16,77,1,0,,,,,,,,,,,,,,,,,,,,,
,,,,,,,,,,,,,,,,,,,,,,,,,,,,,,,,,,,,,,,,,,5c9cb670b472d0001295f377,606a2fb13c0e7c91a79b5a39,2021-04-05_00h30.50.550,Colour_Similarity_Experiment,2020.2.10,Win32,60,60675255c767bca6388caeee,26.77245509,22.96444444,21.25227964,22.36607893,24.32572993,22.96444444,,,,,,,,,,,,,,,,,,,,PF,2,strong,,,,,,,,0,1.278,,,,,,,,,,,,,,,,,,,,,,,,,,,2,strong,-22.5,51.5,1,0,0,response7disk,3,180,-3.5,6.5,1,0,0,rectangle,-68.5,-41.5,1,0,0,4,2,2.032,-0.5,-2.5,1,0,0,0,17,17,104,1,1,response5disk_3,rectangle,,,,,,,,,,,,,,,,,,,
,,,,,,,,,,,,,,,,,,,,,,,,,,,,,,,,,,,,,,,,,,5c9cb670b472d0001295f377,606a2fb13c0e7c91a79b5a39,2021-04-05_00h30.50.550,Colour_Similarity_Experiment,2020.2.10,Win32,60,60675255c767bca6388caeee,26.77245509,22.96444444,21.25227964,22.36607893,24.32572993,22.96444444,,,,,,,,,,,,,,,,,,,,PF,2,weak,,,,,,,,0,1.488,,,,,,,,,,,,,,,,,,,,,,,,,,,9,weak,-26.5,52.5,1,0,0,response7disk,8,181,13.5,-8.5,1,0,0,rectangle,13.5,-8.5,1,0,0,4,1,0.003,13.5,-8.5,1,0,0,0,18,18,67,1,0,,,,,,,,,,,,,,,,,,,,,
,,,,,,,,,,,,,,,,,,,,,,,,,,,,,,,,,,,,,,,,,,5c9cb670b472d0001295f377,606a2fb13c0e7c91a79b5a39,2021-04-05_00h30.50.550,Colour_Similarity_Experiment,2020.2.10,Win32,60,60675255c767bca6388caeee,26.77245509,22.96444444,21.25227964,22.36607893,24.32572993,22.96444444,,,,,,,,,,,,,,,,,,,,PF,2,weak,,,,,,,,0,1.805,,,,,,,,,,,,,,,,,,,,,,,,,,,4,weak,-34.5,59.5,1,0,0,response7disk,5,182,3.5,1.5,1,0,0,rectangle,3.5,1.5,1,0,0,4,3,0.004,3.5,1.5,1,0,0,0,19,19,49,1,0,,,,,,,,,,,,,,,,,,,,,
,,,,,,,,,,,,,,,,,,,,,,,,,,,,,,,,,,,,,,,,,,5c9cb670b472d0001295f377,606a2fb13c0e7c91a79b5a39,2021-04-05_00h30.50.550,Colour_Similarity_Experiment,2020.2.10,Win32,60,60675255c767bca6388caeee,26.77245509,22.96444444,21.25227964,22.36607893,24.32572993,22.96444444,,,,,,,,,,,,,,,,,,,,PF,2,weak,,,,,,,,3,1.63,,,,,,,,,,,,,,,,,,,,,,,,,,,3,weak,-32.5,-54.5,1,0,0,response5disk,8,183,-4.5,-1.5,1,0,0,rectangle,-4.5,-1.5,1,0,0,4,5,0.005,-4.5,-1.5,1,0,0,0,20,20,3,1,0,,,,,,,,,,,,,,,,,,,,,
,,,,,,,,,,,,,,,,,,,,,,,,,,,,,,,,,,,,,,,,,,5c9cb670b472d0001295f377,606a2fb13c0e7c91a79b5a39,2021-04-05_00h30.50.550,Colour_Similarity_Experiment,2020.2.10,Win32,60,60675255c767bca6388caeee,26.77245509,22.96444444,21.25227964,22.36607893,24.32572993,22.96444444,,,,,,,,,,,,,,,,,,,,PF,2,weak,,,,,,,,5,1.068,,,,,,,,,,,,,,,,,,,,,,,,,,,4,weak,55.5,-27.5,1,0,0,response3disk,2,184,9.5,-2.5,1,0,0,rectangle,9.5,-2.5,1,0,0,4,2,0.003,9.5,-2.5,1,0,0,0,21,21,108,1,0,,,,,,,,,,,,,,,,,,,,,
,,,,,,,,,,,,,,,,,,,,,,,,,,,,,,,,,,,,,,,,,,5c9cb670b472d0001295f377,606a2fb13c0e7c91a79b5a39,2021-04-05_00h30.50.550,Colour_Similarity_Experiment,2020.2.10,Win32,60,60675255c767bca6388caeee,26.77245509,22.96444444,21.25227964,22.36607893,24.32572993,22.96444444,,,,,,,,,,,,,,,,,,,,PF,2,weak,,,,,,,,4,1.326,,,,,,,,,,,,,,,,,,,,,,,,,,,1,weak,34.5,-75.5,1,0,0,response3disk,7,185,3.5,-2.5,1,0,0,rectangle,3.5,-2.5,1,0,0,4,1,0.003,3.5,-2.5,1,0,0,0,22,22,150,1,0,,,,,,,,,,,,,,,,,,,,,
,,,,,,,,,,,,,,,,,,,,,,,,,,,,,,,,,,,,,,,,,,5c9cb670b472d0001295f377,606a2fb13c0e7c91a79b5a39,2021-04-05_00h30.50.550,Colour_Similarity_Experiment,2020.2.10,Win32,60,60675255c767bca6388caeee,26.77245509,22.96444444,21.25227964,22.36607893,24.32572993,22.96444444,,,,,,,,,,,,,,,,,,,,PF,2,weak,,,,,,,,0,1.441,,,,,,,,,,,,,,,,,,,,,,,,,,,3,weak,-28.5,62.5,1,0,0,response7disk,4,186,3.5,1.5,1,0,0,rectangle,3.5,1.5,1,0,0,4,5,0.003,3.5,1.5,1,0,0,0,23,23,30,1,0,,,,,,,,,,,,,,,,,,,,,
,,,,,,,,,,,,,,,,,,,,,,,,,,,,,,,,,,,,,,,,,,5c9cb670b472d0001295f377,606a2fb13c0e7c91a79b5a39,2021-04-05_00h30.50.550,Colour_Similarity_Experiment,2020.2.10,Win32,60,60675255c767bca6388caeee,26.77245509,22.96444444,21.25227964,22.36607893,24.32572993,22.96444444,,,,,,,,,,,,,,,,,,,,PF,2,strong,,,,,,,,1,1.117,,,,,,,,,,,,,,,,,,,,,,,,,,,3,strong,-51.5,37.5,1,0,0,response7disk,6,187,-16.5,8.5,1,0,0,rectangle,-16.5,8.5,1,0,0,4,1,0.004,-16.5,8.5,1,0,0,0,24,24,95,1,0,,,,,,,,,,,,,,,,,,,,,
,,,,,,,,,,,,,,,,,,,,,,,,,,,,,,,,,,,,,,,,,,5c9cb670b472d0001295f377,606a2fb13c0e7c91a79b5a39,2021-04-05_00h30.50.550,Colour_Similarity_Experiment,2020.2.10,Win32,60,60675255c767bca6388caeee,26.77245509,22.96444444,21.25227964,22.36607893,24.32572993,22.96444444,,,,,,,,,,,,,,,,,,,,PF,2,strong,,,,,,,,3,1.487,,,,,,,,,,,,,,,,,,,,,,,,,,,9,strong,-37.5,-79.5,1,0,0,response5disk,2,188,-2.5,8.5,1,0,0,rectangle,69.5,34.5,1,0,0,6,6,3.329,-2.5,3.5,1,0,0,0,25,25,11,1,1,response1disk_3,rectangle,,,,,,,,,,,,,,,,,,,
,,,,,,,,,,,,,,,,,,,,,,,,,,,,,,,,,,,,,,,,,,5c9cb670b472d0001295f377,606a2fb13c0e7c91a79b5a39,2021-04-05_00h30.50.550,Colour_Similarity_Experiment,2020.2.10,Win32,60,60675255c767bca6388caeee,26.77245509,22.96444444,21.25227964,22.36607893,24.32572993,22.96444444,,,,,,,,,,,,,,,,,,,,PF,2,strong,,,,,,,,5,0.918,,,,,,,,,,,,,,,,,,,,,,,,,,,1,strong,57.5,-35.5,1,0,0,response3disk,4,189,8.5,-1.5,1,0,0,rectangle,8.5,-1.5,1,0,0,6,7,0.004,8.5,-1.5,1,0,0,0,26,26,135,1,0,,,,,,,,,,,,,,,,,,,,,
,,,,,,,,,,,,,,,,,,,,,,,,,,,,,,,,,,,,,,,,,,5c9cb670b472d0001295f377,606a2fb13c0e7c91a79b5a39,2021-04-05_00h30.50.550,Colour_Similarity_Experiment,2020.2.10,Win32,60,60675255c767bca6388caeee,26.77245509,22.96444444,21.25227964,22.36607893,24.32572993,22.96444444,,,,,,,,,,,,,,,,,,,,PF,2,weak,,,,,,,,2,1.65,,,,,,,,,,,,,,,,,,,,,,,,,,,5,weak,-77.5,-48.5,1,0,0,response5disk,8,190,18.5,3.5,1,0,0,rectangle,18.5,3.5,1,0,0,6,2,0.003,18.5,3.5,1,0,0,0,27,27,149,1,0,,,,,,,,,,,,,,,,,,,,,
