key_resp.keys,key_resp.rt,key_resp_16.keys,key_resp_16.rt,key_resp_2.keys,key_resp_2.rt,X Scale,ratio_pxpermm,screen_size_x,screen_size_y,testsize,key_resp_3.keys,key_resp_4.keys,key_resp_4.rt,line_size,key_resp_5.keys,key_resp_5.rt,key_resp_6.keys,key_resp_6.rt,key_resp_8.keys,key_resp_8.rt,key_resp_7.keys,key_resp_7.rt,key_resp_12.keys,key_resp_12.rt,key_resp_11.keys,key_resp_11.rt,key_resp_18.keys,key_resp_18.rt,key_resp_21.keys,key_resp_21.rt,key_resp_13.keys,key_resp_13.rt,key_resp_19.keys,key_resp_19.rt,ballposx,viewer_distance,trials.thisRepN,trials.thisTrialN,trials.thisN,trials.thisIndex,trials.ran,participant,session,date,expName,psychopyVersion,OS,frameRate,study_id,realFrameRate1,realFrameRate2,realFrameRate3,realFrameRate4,realFrameRate5,realFrameRate,viewerdistancecm,DVA_to_distance,radius_F,radius_P,r_F,R_P,key_resp_20.keys,key_resp_20.rt,key_resp_14.keys,key_resp_14.rt,key_resp_15.keys,key_resp_15.rt,key_resp_17.keys,key_resp_17.rt,key_resp_9.keys,key_resp_9.rt,key_resp_10.keys,key_resp_10.rt,Colour_1,Ecc,mask_frames,maskCon,mouse_5.x,mouse_5.y,mouse_5.leftButton,mouse_5.midButton,mouse_5.rightButton,mouse_5.clicked_name,Colour_2,similarity,response_time,mouse_10.x,mouse_10.y,mouse_10.leftButton,mouse_10.midButton,mouse_10.rightButton,mouse_10.clicked_name,mouse_7.x,mouse_7.y,mouse_7.leftButton,mouse_7.midButton,mouse_7.rightButton,mouse_7.clicked_name,catchprac,catchnumberprac,mouse_6.x,mouse_6.y,mouse_6.leftButton,mouse_6.midButton,mouse_6.rightButton,mouse_6.clicked_name,duringprac.thisRepN,duringprac.thisTrialN,duringprac.thisN,duringprac.thisIndex,duringprac.ran,key_resp_22.keys,key_resp_22.rt,Colour1,maskCon1,mouse.x,mouse.y,mouse.leftButton,mouse.midButton,mouse.rightButton,mouse.clicked_name,Colour2,trialnumber,mouse_2.x,mouse_2.y,mouse_2.leftButton,mouse_2.midButton,mouse_2.rightButton,mouse_2.clicked_name,mouse_3.x,mouse_3.y,mouse_3.leftButton,mouse_3.midButton,mouse_3.rightButton,catchresponse,catchnumber,response_time_catch,mouse_11.x,mouse_11.y,mouse_11.leftButton,mouse_11.midButton,mouse_11.rightButton,trials_2.thisRepN,trials_2.thisTrialN,trials_2.thisN,trials_2.thisIndex,trials_2.ran,Catch,mouse_3.clicked_name,mouse_11.clicked_name,trials_3.thisRepN,trials_3.thisTrialN,trials_3.thisN,trials_3.thisIndex,trials_3.ran,answer1,rt1,answer2,rt2,answer3,rt3,answer4,rt4,answer5,rt5,answer6,rt6,answer7,rt7
space,5.096,space,0.944,space,14.564,41.2,4.12,466.0194175,262.1359223,1920,,space,9.015,82.4,space,5.92,space,3.401,space,1.092,space,6.92,space,8.37,space,10.81,space,9.018,space,14.653,space,8.316,return,4.372,-1091.52,1879.966287,0,0,0,0,1,5e585dd09fb4700726f31d43,606a0f3cb3a4483d0c1948b0,2021-04-04_21h12.34.961,Colour_Similarity_Experiment,2020.2.10,Win32,60,60675255c767bca6388caeee,7.326804124,7.148148148,7.233085989,7.064162754,7.277318641,7.233085989,,,,,,,,,,,,,,,,,,,,,,,,,,,,,,,,,,,,,,,,,,,,,,,,,,,,,,,,,,,,,,,,,,,,,,,,,,,,,,,,,,,,,,,,,,,,,,,,,,,,,,,,,,,,,,,,,,
,,,,,,,,,,,,,,,,,,,,,,,,,,,,,,,,,return,3.78,-846.72,1632.474597,1,0,1,0,1,5e585dd09fb4700726f31d43,606a0f3cb3a4483d0c1948b0,2021-04-04_21h12.34.961,Colour_Similarity_Experiment,2020.2.10,Win32,60,60675255c767bca6388caeee,7.326804124,7.148148148,7.233085989,7.064162754,7.277318641,7.233085989,,,,,,,,,,,,,,,,,,,,,,,,,,,,,,,,,,,,,,,,,,,,,,,,,,,,,,,,,,,,,,,,,,,,,,,,,,,,,,,,,,,,,,,,,,,,,,,,,,,,,,,,,,,,,,,,,,
,,,,,,,,,,,,,,,,,,,,,,,,,,,,,,,,,return,3.853,-878.4,1664.502934,2,0,2,0,1,5e585dd09fb4700726f31d43,606a0f3cb3a4483d0c1948b0,2021-04-04_21h12.34.961,Colour_Similarity_Experiment,2020.2.10,Win32,60,60675255c767bca6388caeee,7.326804124,7.148148148,7.233085989,7.064162754,7.277318641,7.233085989,,,,,,,,,,,,,,,,,,,,,,,,,,,,,,,,,,,,,,,,,,,,,,,,,,,,,,,,,,,,,,,,,,,,,,,,,,,,,,,,,,,,,,,,,,,,,,,,,,,,,,,,,,,,,,,,,,
,,,,,,,,,,,,,,,,,,,,,,,,,,,,,,,,,return,3.84,-875.52,1661.591267,3,0,3,0,1,5e585dd09fb4700726f31d43,606a0f3cb3a4483d0c1948b0,2021-04-04_21h12.34.961,Colour_Similarity_Experiment,2020.2.10,Win32,60,60675255c767bca6388caeee,7.326804124,7.148148148,7.233085989,7.064162754,7.277318641,7.233085989,,,,,,,,,,,,,,,,,,,,,,,,,,,,,,,,,,,,,,,,,,,,,,,,,,,,,,,,,,,,,,,,,,,,,,,,,,,,,,,,,,,,,,,,,,,,,,,,,,,,,,,,,,,,,,,,,,
,,,,,,,,,,,,,,,,,,,,,,,,,,,,,,,,,return,4.11,-984.96,1772.23461,4,0,4,0,1,5e585dd09fb4700726f31d43,606a0f3cb3a4483d0c1948b0,2021-04-04_21h12.34.961,Colour_Similarity_Experiment,2020.2.10,Win32,60,60675255c767bca6388caeee,7.326804124,7.148148148,7.233085989,7.064162754,7.277318641,7.233085989,,,,,,,,,,,,,,,,,,,,,,,,,,,,,,,,,,,,,,,,,,,,,,,,,,,,,,,,,,,,,,,,,,,,,,,,,,,,,,,,,,,,,,,,,,,,,,,,,,,,,,,,,,,,,,,,,,
,,,,,,,,,,,,,,,,,,,,,,,,,,,,,,,,,,,,,,,,,,5e585dd09fb4700726f31d43,606a0f3cb3a4483d0c1948b0,2021-04-04_21h12.34.961,Colour_Similarity_Experiment,2020.2.10,Win32,60,60675255c767bca6388caeee,7.326804124,7.148148148,7.233085989,7.064162754,7.277318641,7.233085989,166,28.97539742,179.067956,1193.786374,119.3786374,537.2038681,space,6.942,space,12.609,space,12.089,space,4.425,space,2.995,space,7.098,5,PF,7,strong,-68,-67,1,0,0,response5disk_5,1,2,15.522,-16,-2,1,0,0,rectangle_8,-49,-113,1,0,0,response5disk_7,3,3,-12,2,1,0,0,rectangle_4,0,0,0,2,1,,,,,,,,,,,,,,,,,,,,,,,,,,,,,,,,,,,,,,,,,,,,,,,,,,,,,,,,,,
,,,,,,,,,,,,,,,,,,,,,,,,,,,,,,,,,,,,,,,,,,5e585dd09fb4700726f31d43,606a0f3cb3a4483d0c1948b0,2021-04-04_21h12.34.961,Colour_Similarity_Experiment,2020.2.10,Win32,60,60675255c767bca6388caeee,7.326804124,7.148148148,7.233085989,7.064162754,7.277318641,7.233085989,,,,,,,,,,,,,,,,,,,5,PF,7,strong,43,109,1,0,0,response1disk_5,3,7,9.342,-7,-3,1,0,0,rectangle_8,-7,-3,1,0,0,,,3,-7,-3,1,0,0,,0,1,1,3,1,,,,,,,,,,,,,,,,,,,,,,,,,,,,,,,,,,,,,,,,,,,,,,,,,,,,,,,,,,
,,,,,,,,,,,,,,,,,,,,,,,,,,,,,,,,,,,,,,,,,,5e585dd09fb4700726f31d43,606a0f3cb3a4483d0c1948b0,2021-04-04_21h12.34.961,Colour_Similarity_Experiment,2020.2.10,Win32,60,60675255c767bca6388caeee,7.326804124,7.148148148,7.233085989,7.064162754,7.277318641,7.233085989,,,,,,,,,,,,,,,,,,,7,PF,7,weak,88,66,1,0,0,response1disk_5,9,6,8.877,6,4,1,0,0,rectangle_8,6,4,1,0,0,,,3,6,4,1,0,0,,0,2,2,1,1,,,,,,,,,,,,,,,,,,,,,,,,,,,,,,,,,,,,,,,,,,,,,,,,,,,,,,,,,,
,,,,,,,,,,,,,,,,,,,,,,,,,,,,,,,,,,,,,,,,,,5e585dd09fb4700726f31d43,606a0f3cb3a4483d0c1948b0,2021-04-04_21h12.34.961,Colour_Similarity_Experiment,2020.2.10,Win32,60,60675255c767bca6388caeee,7.326804124,7.148148148,7.233085989,7.064162754,7.277318641,7.233085989,,,,,,,,,,,,,,,,,,,8,PF,7,weak,110,-49,1,0,0,response3disk_5,9,5,2.862,4,1,1,0,0,rectangle_8,-60,-129,1,0,0,response5disk_7,3,3,0,-8,1,0,0,rectangle_4,0,3,3,4,1,,,,,,,,,,,,,,,,,,,,,,,,,,,,,,,,,,,,,,,,,,,,,,,,,,,,,,,,,,
,,,,,,,,,,,,,,,,,,,,,,,,,,,,,,,,,,,,,,,,,,5e585dd09fb4700726f31d43,606a0f3cb3a4483d0c1948b0,2021-04-04_21h12.34.961,Colour_Similarity_Experiment,2020.2.10,Win32,60,60675255c767bca6388caeee,7.326804124,7.148148148,7.233085989,7.064162754,7.277318641,7.233085989,,,,,,,,,,,,,,,,,,,3,PF,7,weak,67,93,1,0,0,response1disk_5,9,7,2.187,-8,-6,1,0,0,rectangle_8,-8,-6,1,0,0,,,3,-8,-6,1,0,0,,0,4,4,6,1,,,,,,,,,,,,,,,,,,,,,,,,,,,,,,,,,,,,,,,,,,,,,,,,,,,,,,,,,,
,,,,,,,,,,,,,,,,,,,,,,,,,,,,,,,,,,,,,,,,,,5e585dd09fb4700726f31d43,606a0f3cb3a4483d0c1948b0,2021-04-04_21h12.34.961,Colour_Similarity_Experiment,2020.2.10,Win32,60,60675255c767bca6388caeee,7.326804124,7.148148148,7.233085989,7.064162754,7.277318641,7.233085989,,,,,,,,,,,,,,,,,,,4,PF,7,weak,65,136,1,0,0,response1disk_5,7,7,0.98,-5,0,1,0,0,rectangle_8,-5,0,1,0,0,,,3,-5,0,1,0,0,,0,5,5,5,1,,,,,,,,,,,,,,,,,,,,,,,,,,,,,,,,,,,,,,,,,,,,,,,,,,,,,,,,,,
,,,,,,,,,,,,,,,,,,,,,,,,,,,,,,,,,,,,,,,,,,5e585dd09fb4700726f31d43,606a0f3cb3a4483d0c1948b0,2021-04-04_21h12.34.961,Colour_Similarity_Experiment,2020.2.10,Win32,60,60675255c767bca6388caeee,7.326804124,7.148148148,7.233085989,7.064162754,7.277318641,7.233085989,,,,,,,,,,,,,,,,,,,7,PF,7,strong,62,146,1,0,0,response1disk_5,2,7,1.251,-17,-5,1,0,0,rectangle_8,-17,-5,1,0,0,,,3,-17,-5,1,0,0,,0,6,6,0,1,,,,,,,,,,,,,,,,,,,,,,,,,,,,,,,,,,,,,,,,,,,,,,,,,,,,,,,,,,
,,,,,,,,,,,,,,,,,,,,,,,,,,,,,,,,,,,,,,,,,,5e585dd09fb4700726f31d43,606a0f3cb3a4483d0c1948b0,2021-04-04_21h12.34.961,Colour_Similarity_Experiment,2020.2.10,Win32,60,60675255c767bca6388caeee,7.326804124,7.148148148,7.233085989,7.064162754,7.277318641,7.233085989,,,,,,,,,,,,,,,,,,,,PF,7,weak,,,,,,,,7,1.866,,,,,,,,,,,,,,,,,,,,,,,,,,space,6.432,2,weak,71,117,1,0,0,response1disk,3,1,-8,9,1,0,0,rectangle,-8,9,1,0,0,,5,0,-8,9,1,0,0,0,0,0,69,1,0,,,,,,,,,,,,,,,,,,,,,
,,,,,,,,,,,,,,,,,,,,,,,,,,,,,,,,,,,,,,,,,,5e585dd09fb4700726f31d43,606a0f3cb3a4483d0c1948b0,2021-04-04_21h12.34.961,Colour_Similarity_Experiment,2020.2.10,Win32,60,60675255c767bca6388caeee,7.326804124,7.148148148,7.233085989,7.064162754,7.277318641,7.233085989,,,,,,,,,,,,,,,,,,,,PF,7,strong,,,,,,,,7,1.021,,,,,,,,,,,,,,,,,,,,,,,,,,,,3,strong,60,119,1,0,0,response1disk,4,2,16,9,1,0,0,rectangle,16,9,1,0,0,,5,0,16,9,1,0,0,0,1,1,110,1,0,,,,,,,,,,,,,,,,,,,,,
,,,,,,,,,,,,,,,,,,,,,,,,,,,,,,,,,,,,,,,,,,5e585dd09fb4700726f31d43,606a0f3cb3a4483d0c1948b0,2021-04-04_21h12.34.961,Colour_Similarity_Experiment,2020.2.10,Win32,60,60675255c767bca6388caeee,7.326804124,7.148148148,7.233085989,7.064162754,7.277318641,7.233085989,,,,,,,,,,,,,,,,,,,,PF,7,weak,,,,,,,,7,0.7,,,,,,,,,,,,,,,,,,,,,,,,,,,,2,weak,73,114,1,0,0,response1disk,6,3,20,3,1,0,0,rectangle,20,3,1,0,0,,1,0.002,20,3,1,0,0,0,2,2,113,1,0,,,,,,,,,,,,,,,,,,,,,
,,,,,,,,,,,,,,,,,,,,,,,,,,,,,,,,,,,,,,,,,,5e585dd09fb4700726f31d43,606a0f3cb3a4483d0c1948b0,2021-04-04_21h12.34.961,Colour_Similarity_Experiment,2020.2.10,Win32,60,60675255c767bca6388caeee,7.326804124,7.148148148,7.233085989,7.064162754,7.277318641,7.233085989,,,,,,,,,,,,,,,,,,,,PF,7,strong,,,,,,,,7,1.015,,,,,,,,,,,,,,,,,,,,,,,,,,,,3,strong,45,120,1,0,0,response1disk,9,4,11,5,1,0,0,rectangle,11,5,1,0,0,,2,0.001,11,5,1,0,0,0,3,3,143,1,0,,,,,,,,,,,,,,,,,,,,,
,,,,,,,,,,,,,,,,,,,,,,,,,,,,,,,,,,,,,,,,,,5e585dd09fb4700726f31d43,606a0f3cb3a4483d0c1948b0,2021-04-04_21h12.34.961,Colour_Similarity_Experiment,2020.2.10,Win32,60,60675255c767bca6388caeee,7.326804124,7.148148148,7.233085989,7.064162754,7.277318641,7.233085989,,,,,,,,,,,,,,,,,,,,PF,7,weak,,,,,,,,7,0.785,,,,,,,,,,,,,,,,,,,,,,,,,,,,4,weak,62,106,1,0,0,response1disk,1,5,7,6,1,0,0,rectangle,7,6,1,0,0,,5,0.001,7,6,1,0,0,0,4,4,115,1,0,,,,,,,,,,,,,,,,,,,,,
,,,,,,,,,,,,,,,,,,,,,,,,,,,,,,,,,,,,,,,,,,5e585dd09fb4700726f31d43,606a0f3cb3a4483d0c1948b0,2021-04-04_21h12.34.961,Colour_Similarity_Experiment,2020.2.10,Win32,60,60675255c767bca6388caeee,7.326804124,7.148148148,7.233085989,7.064162754,7.277318641,7.233085989,,,,,,,,,,,,,,,,,,,,PF,7,weak,,,,,,,,7,0.526,,,,,,,,,,,,,,,,,,,,,,,,,,,,2,weak,45,113,1,0,0,response1disk,4,6,12,-5,1,0,0,rectangle,12,-5,1,0,0,,3,0.001,12,-5,1,0,0,0,5,5,127,1,0,,,,,,,,,,,,,,,,,,,,,
,,,,,,,,,,,,,,,,,,,,,,,,,,,,,,,,,,,,,,,,,,5e585dd09fb4700726f31d43,606a0f3cb3a4483d0c1948b0,2021-04-04_21h12.34.961,Colour_Similarity_Experiment,2020.2.10,Win32,60,60675255c767bca6388caeee,7.326804124,7.148148148,7.233085989,7.064162754,7.277318641,7.233085989,,,,,,,,,,,,,,,,,,,,PF,7,strong,,,,,,,,7,0.548,,,,,,,,,,,,,,,,,,,,,,,,,,,,9,strong,46,106,1,0,0,response1disk,8,7,-5,6,1,0,0,rectangle,-5,6,1,0,0,,1,0.001,-5,6,1,0,0,0,6,6,6,1,0,,,,,,,,,,,,,,,,,,,,,
,,,,,,,,,,,,,,,,,,,,,,,,,,,,,,,,,,,,,,,,,,5e585dd09fb4700726f31d43,606a0f3cb3a4483d0c1948b0,2021-04-04_21h12.34.961,Colour_Similarity_Experiment,2020.2.10,Win32,60,60675255c767bca6388caeee,7.326804124,7.148148148,7.233085989,7.064162754,7.277318641,7.233085989,,,,,,,,,,,,,,,,,,,,PF,7,strong,,,,,,,,7,0.457,,,,,,,,,,,,,,,,,,,,,,,,,,,,3,strong,61,110,1,0,0,response1disk,5,8,6,16,1,0,0,rectangle,6,16,1,0,0,,2,0.001,6,16,1,0,0,0,7,7,101,1,0,,,,,,,,,,,,,,,,,,,,,
,,,,,,,,,,,,,,,,,,,,,,,,,,,,,,,,,,,,,,,,,,5e585dd09fb4700726f31d43,606a0f3cb3a4483d0c1948b0,2021-04-04_21h12.34.961,Colour_Similarity_Experiment,2020.2.10,Win32,60,60675255c767bca6388caeee,7.326804124,7.148148148,7.233085989,7.064162754,7.277318641,7.233085989,,,,,,,,,,,,,,,,,,,,PF,7,strong,,,,,,,,6,0.403,,,,,,,,,,,,,,,,,,,,,,,,,,,,8,strong,103,54,1,0,0,response1disk,3,9,6,-2,1,0,0,rectangle,6,-2,1,0,0,,1,0.001,6,-2,1,0,0,0,8,8,154,1,0,,,,,,,,,,,,,,,,,,,,,
,,,,,,,,,,,,,,,,,,,,,,,,,,,,,,,,,,,,,,,,,,5e585dd09fb4700726f31d43,606a0f3cb3a4483d0c1948b0,2021-04-04_21h12.34.961,Colour_Similarity_Experiment,2020.2.10,Win32,60,60675255c767bca6388caeee,7.326804124,7.148148148,7.233085989,7.064162754,7.277318641,7.233085989,,,,,,,,,,,,,,,,,,,,PF,7,strong,,,,,,,,6,0.5,,,,,,,,,,,,,,,,,,,,,,,,,,,,1,strong,82,64,1,0,0,response1disk,4,10,29,-1,1,0,0,rectangle,29,-1,1,0,0,,4,0.001,29,-1,1,0,0,0,9,9,135,1,0,,,,,,,,,,,,,,,,,,,,,
,,,,,,,,,,,,,,,,,,,,,,,,,,,,,,,,,,,,,,,,,,5e585dd09fb4700726f31d43,606a0f3cb3a4483d0c1948b0,2021-04-04_21h12.34.961,Colour_Similarity_Experiment,2020.2.10,Win32,60,60675255c767bca6388caeee,7.326804124,7.148148148,7.233085989,7.064162754,7.277318641,7.233085989,,,,,,,,,,,,,,,,,,,,PF,7,weak,,,,,,,,5,1.112,,,,,,,,,,,,,,,,,,,,,,,,,,,,4,weak,87,-45,1,0,0,response3disk,4,11,28,-2,1,0,0,rectangle,28,-2,1,0,0,,7,0.001,28,-2,1,0,0,0,10,10,70,1,0,,,,,,,,,,,,,,,,,,,,,
,,,,,,,,,,,,,,,,,,,,,,,,,,,,,,,,,,,,,,,,,,5e585dd09fb4700726f31d43,606a0f3cb3a4483d0c1948b0,2021-04-04_21h12.34.961,Colour_Similarity_Experiment,2020.2.10,Win32,60,60675255c767bca6388caeee,7.326804124,7.148148148,7.233085989,7.064162754,7.277318641,7.233085989,,,,,,,,,,,,,,,,,,,,PF,7,strong,,,,,,,,3,2.285,,,,,,,,,,,,,,,,,,,,,,,,,,,,4,strong,-45,-135,1,0,0,response5disk,3,12,-6,14,1,0,0,rectangle,-6,14,1,0,0,,4,0.001,-6,14,1,0,0,0,11,11,77,1,0,,,,,,,,,,,,,,,,,,,,,
,,,,,,,,,,,,,,,,,,,,,,,,,,,,,,,,,,,,,,,,,,5e585dd09fb4700726f31d43,606a0f3cb3a4483d0c1948b0,2021-04-04_21h12.34.961,Colour_Similarity_Experiment,2020.2.10,Win32,60,60675255c767bca6388caeee,7.326804124,7.148148148,7.233085989,7.064162754,7.277318641,7.233085989,,,,,,,,,,,,,,,,,,,,PF,7,weak,,,,,,,,7,1.396,,,,,,,,,,,,,,,,,,,,,,,,,,,,7,weak,36,96,1,0,0,response1disk,5,13,9,-3,1,0,0,rectangle,9,-3,1,0,0,,1,0.001,9,-3,1,0,0,0,12,12,92,1,0,,,,,,,,,,,,,,,,,,,,,
,,,,,,,,,,,,,,,,,,,,,,,,,,,,,,,,,,,,,,,,,,5e585dd09fb4700726f31d43,606a0f3cb3a4483d0c1948b0,2021-04-04_21h12.34.961,Colour_Similarity_Experiment,2020.2.10,Win32,60,60675255c767bca6388caeee,7.326804124,7.148148148,7.233085989,7.064162754,7.277318641,7.233085989,,,,,,,,,,,,,,,,,,,,PF,7,strong,,,,,,,,6,1.006,,,,,,,,,,,,,,,,,,,,,,,,,,,,5,strong,105,49,1,0,0,response1disk,8,14,15,-8,1,0,0,rectangle,15,-8,1,0,0,,1,0,15,-8,1,0,0,0,13,13,16,1,0,,,,,,,,,,,,,,,,,,,,,
,,,,,,,,,,,,,,,,,,,,,,,,,,,,,,,,,,,,,,,,,,5e585dd09fb4700726f31d43,606a0f3cb3a4483d0c1948b0,2021-04-04_21h12.34.961,Colour_Similarity_Experiment,2020.2.10,Win32,60,60675255c767bca6388caeee,7.326804124,7.148148148,7.233085989,7.064162754,7.277318641,7.233085989,,,,,,,,,,,,,,,,,,,,PF,7,strong,,,,,,,,7,1.049,,,,,,,,,,,,,,,,,,,,,,,,,,,,6,strong,45,100,1,0,0,response1disk,3,15,-17,5,1,0,0,rectangle,-17,5,1,0,0,,2,0,-17,5,1,0,0,0,14,14,21,1,0,,,,,,,,,,,,,,,,,,,,,
,,,,,,,,,,,,,,,,,,,,,,,,,,,,,,,,,,,,,,,,,,5e585dd09fb4700726f31d43,606a0f3cb3a4483d0c1948b0,2021-04-04_21h12.34.961,Colour_Similarity_Experiment,2020.2.10,Win32,60,60675255c767bca6388caeee,7.326804124,7.148148148,7.233085989,7.064162754,7.277318641,7.233085989,,,,,,,,,,,,,,,,,,,,PF,7,weak,,,,,,,,2,1.532,,,,,,,,,,,,,,,,,,,,,,,,,,,,5,weak,-102,-48,1,0,0,response5disk,5,16,-7,-19,1,0,0,rectangle,-7,-19,1,0,0,,7,0,-7,-19,1,0,0,0,15,15,94,1,0,,,,,,,,,,,,,,,,,,,,,
,,,,,,,,,,,,,,,,,,,,,,,,,,,,,,,,,,,,,,,,,,5e585dd09fb4700726f31d43,606a0f3cb3a4483d0c1948b0,2021-04-04_21h12.34.961,Colour_Similarity_Experiment,2020.2.10,Win32,60,60675255c767bca6388caeee,7.326804124,7.148148148,7.233085989,7.064162754,7.277318641,7.233085989,,,,,,,,,,,,,,,,,,,,PF,7,strong,,,,,,,,5,1.333,,,,,,,,,,,,,,,,,,,,,,,,,,,,7,strong,88,-48,1,0,0,response3disk,5,17,-1,1,1,0,0,rectangle,-1,1,1,0,0,,5,0.001,-1,1,1,0,0,0,16,16,156,1,0,,,,,,,,,,,,,,,,,,,,,
,,,,,,,,,,,,,,,,,,,,,,,,,,,,,,,,,,,,,,,,,,5e585dd09fb4700726f31d43,606a0f3cb3a4483d0c1948b0,2021-04-04_21h12.34.961,Colour_Similarity_Experiment,2020.2.10,Win32,60,60675255c767bca6388caeee,7.326804124,7.148148148,7.233085989,7.064162754,7.277318641,7.233085989,,,,,,,,,,,,,,,,,,,,PF,7,strong,,,,,,,,6,0.688,,,,,,,,,,,,,,,,,,,,,,,,,,,,8,strong,100,50,1,0,0,response1disk,4,18,4,-2,1,0,0,rectangle,4,-2,1,0,0,,6,0,4,-2,1,0,0,0,17,17,88,1,0,,,,,,,,,,,,,,,,,,,,,
,,,,,,,,,,,,,,,,,,,,,,,,,,,,,,,,,,,,,,,,,,5e585dd09fb4700726f31d43,606a0f3cb3a4483d0c1948b0,2021-04-04_21h12.34.961,Colour_Similarity_Experiment,2020.2.10,Win32,60,60675255c767bca6388caeee,7.326804124,7.148148148,7.233085989,7.064162754,7.277318641,7.233085989,,,,,,,,,,,,,,,,,,,,PF,7,strong,,,,,,,,6,0.847,,,,,,,,,,,,,,,,,,,,,,,,,,,,3,strong,117,44,1,0,0,response1disk,7,19,33,2,1,0,0,rectangle,33,2,1,0,0,,6,0,33,2,1,0,0,0,18,18,118,1,0,,,,,,,,,,,,,,,,,,,,,
,,,,,,,,,,,,,,,,,,,,,,,,,,,,,,,,,,,,,,,,,,5e585dd09fb4700726f31d43,606a0f3cb3a4483d0c1948b0,2021-04-04_21h12.34.961,Colour_Similarity_Experiment,2020.2.10,Win32,60,60675255c767bca6388caeee,7.326804124,7.148148148,7.233085989,7.064162754,7.277318641,7.233085989,,,,,,,,,,,,,,,,,,,,PF,7,strong,,,,,,,,6,0.59,,,,,,,,,,,,,,,,,,,,,,,,,,,,1,strong,112,63,1,0,0,response1disk,2,20,34,13,1,0,0,rectangle,34,13,1,0,0,,7,0.001,34,13,1,0,0,0,19,19,2,1,0,,,,,,,,,,,,,,,,,,,,,
,,,,,,,,,,,,,,,,,,,,,,,,,,,,,,,,,,,,,,,,,,5e585dd09fb4700726f31d43,606a0f3cb3a4483d0c1948b0,2021-04-04_21h12.34.961,Colour_Similarity_Experiment,2020.2.10,Win32,60,60675255c767bca6388caeee,7.326804124,7.148148148,7.233085989,7.064162754,7.277318641,7.233085989,,,,,,,,,,,,,,,,,,,,PF,7,weak,,,,,,,,2,2.528,,,,,,,,,,,,,,,,,,,,,,,,,,,,9,weak,-115,-53,1,0,0,response5disk,9,21,-18,19,1,0,0,rectangle,-18,19,1,0,0,,3,0,-18,19,1,0,0,0,20,20,106,1,0,,,,,,,,,,,,,,,,,,,,,
,,,,,,,,,,,,,,,,,,,,,,,,,,,,,,,,,,,,,,,,,,5e585dd09fb4700726f31d43,606a0f3cb3a4483d0c1948b0,2021-04-04_21h12.34.961,Colour_Similarity_Experiment,2020.2.10,Win32,60,60675255c767bca6388caeee,7.326804124,7.148148148,7.233085989,7.064162754,7.277318641,7.233085989,,,,,,,,,,,,,,,,,,,,PF,7,strong,,,,,,,,7,1.632,,,,,,,,,,,,,,,,,,,,,,,,,,,,1,strong,51,99,1,0,0,response1disk,8,22,1,-5,1,0,0,rectangle,1,-5,1,0,0,,3,0,1,-5,1,0,0,0,21,21,27,1,0,,,,,,,,,,,,,,,,,,,,,
,,,,,,,,,,,,,,,,,,,,,,,,,,,,,,,,,,,,,,,,,,5e585dd09fb4700726f31d43,606a0f3cb3a4483d0c1948b0,2021-04-04_21h12.34.961,Colour_Similarity_Experiment,2020.2.10,Win32,60,60675255c767bca6388caeee,7.326804124,7.148148148,7.233085989,7.064162754,7.277318641,7.233085989,,,,,,,,,,,,,,,,,,,,PF,7,weak,,,,,,,,6,0.764,,,,,,,,,,,,,,,,,,,,,,,,,,,,6,weak,124,43,1,0,0,response1disk,1,23,11,-5,1,0,0,rectangle,11,-5,1,0,0,,6,0.002,11,-5,1,0,0,0,22,22,46,1,0,,,,,,,,,,,,,,,,,,,,,
,,,,,,,,,,,,,,,,,,,,,,,,,,,,,,,,,,,,,,,,,,5e585dd09fb4700726f31d43,606a0f3cb3a4483d0c1948b0,2021-04-04_21h12.34.961,Colour_Similarity_Experiment,2020.2.10,Win32,60,60675255c767bca6388caeee,7.326804124,7.148148148,7.233085989,7.064162754,7.277318641,7.233085989,,,,,,,,,,,,,,,,,,,,PF,7,weak,,,,,,,,6,0.333,,,,,,,,,,,,,,,,,,,,,,,,,,,,1,weak,74,40,1,0,0,response1disk,6,24,-31,-8,1,0,0,rectangle,-31,-8,1,0,0,,6,0.001,-31,-8,1,0,0,0,23,23,144,1,0,,,,,,,,,,,,,,,,,,,,,
,,,,,,,,,,,,,,,,,,,,,,,,,,,,,,,,,,,,,,,,,,5e585dd09fb4700726f31d43,606a0f3cb3a4483d0c1948b0,2021-04-04_21h12.34.961,Colour_Similarity_Experiment,2020.2.10,Win32,60,60675255c767bca6388caeee,7.326804124,7.148148148,7.233085989,7.064162754,7.277318641,7.233085989,,,,,,,,,,,,,,,,,,,,PF,7,strong,,,,,,,,7,0.235,,,,,,,,,,,,,,,,,,,,,,,,,,,,8,strong,60,92,1,0,0,response1disk,1,25,-28,21,1,0,0,rectangle,-28,21,1,0,0,1,6,0,-28,21,1,0,0,0,24,24,20,1,0,,,,,,,,,,,,,,,,,,,,,
,,,,,,,,,,,,,,,,,,,,,,,,,,,,,,,,,,,,,,,,,,5e585dd09fb4700726f31d43,606a0f3cb3a4483d0c1948b0,2021-04-04_21h12.34.961,Colour_Similarity_Experiment,2020.2.10,Win32,60,60675255c767bca6388caeee,7.326804124,7.148148148,7.233085989,7.064162754,7.277318641,7.233085989,,,,,,,,,,,,,,,,,,,,PF,7,weak,,,,,,,,1,0.348,,,,,,,,,,,,,,,,,,,,,,,,,,,,8,weak,-80,43,1,0,0,response7disk,7,26,-26,0,1,0,0,rectangle,-26,0,1,0,0,1,7,0.001,-26,0,1,0,0,0,25,25,23,1,0,,,,,,,,,,,,,,,,,,,,,
,,,,,,,,,,,,,,,,,,,,,,,,,,,,,,,,,,,,,,,,,,5e585dd09fb4700726f31d43,606a0f3cb3a4483d0c1948b0,2021-04-04_21h12.34.961,Colour_Similarity_Experiment,2020.2.10,Win32,60,60675255c767bca6388caeee,7.326804124,7.148148148,7.233085989,7.064162754,7.277318641,7.233085989,,,,,,,,,,,,,,,,,,,,PF,7,strong,,,,,,,,2,0.361,,,,,,,,,,,,,,,,,,,,,,,,,,,,2,strong,-102,-57,1,0,0,response5disk,5,27,-33,-8,1,0,0,rectangle,-33,-8,1,0,0,1,3,0.001,-33,-8,1,0,0,0,26,26,80,1,0,,,,,,,,,,,,,,,,,,,,,
,,,,,,,,,,,,,,,,,,,,,,,,,,,,,,,,,,,,,,,,,,5e585dd09fb4700726f31d43,606a0f3cb3a4483d0c1948b0,2021-04-04_21h12.34.961,Colour_Similarity_Experiment,2020.2.10,Win32,60,60675255c767bca6388caeee,7.326804124,7.148148148,7.233085989,7.064162754,7.277318641,7.233085989,,,,,,,,,,,,,,,,,,,,PF,7,weak,,,,,,,,3,0.313,,,,,,,,,,,,,,,,,,,,,,,,,,,,8,weak,-68,-119,1,0,0,response5disk,3,28,7,-14,1,0,0,rectangle,7,-14,1,0,0,1,5,0,7,-14,1,0,0,0,27,27,71,1,0,,,,,,,,,,,,,,,,,,,,,
,,,,,,,,,,,,,,,,,,,,,,,,,,,,,,,,,,,,,,,,,,5e585dd09fb4700726f31d43,606a0f3cb3a4483d0c1948b0,2021-04-04_21h12.34.961,Colour_Similarity_Experiment,2020.2.10,Win32,60,60675255c767bca6388caeee,7.326804124,7.148148148,7.233085989,7.064162754,7.277318641,7.233085989,,,,,,,,,,,,,,,,,,,,PF,7,weak,,,,,,,,4,0.611,,,,,,,,,,,,,,,,,,,,,,,,,,,,8,weak,44,-92,1,0,0,response3disk,9,29,-3,2,1,0,0,rectangle,-3,2,1,0,0,1,7,0.001,-3,2,1,0,0,0,28,28,42,1,0,,,,,,,,,,,,,,,,,,,,,
,,,,,,,,,,,,,,,,,,,,,,,,,,,,,,,,,,,,,,,,,,5e585dd09fb4700726f31d43,606a0f3cb3a4483d0c1948b0,2021-04-04_21h12.34.961,Colour_Similarity_Experiment,2020.2.10,Win32,60,60675255c767bca6388caeee,7.326804124,7.148148148,7.233085989,7.064162754,7.277318641,7.233085989,,,,,,,,,,,,,,,,,,,,PF,7,strong,,,,,,,,4,0.528,,,,,,,,,,,,,,,,,,,,,,,,,,,,7,strong,70,-103,1,0,0,response3disk,4,30,-22,-8,1,0,0,rectangle,-22,-8,1,0,0,1,0,0.001,-22,-8,1,0,0,0,29,29,158,1,0,,,,,,,,,,,,,,,,,,,,,
,,,,,,,,,,,,,,,,,,,,,,,,,,,,,,,,,,,,,,,,,,5e585dd09fb4700726f31d43,606a0f3cb3a4483d0c1948b0,2021-04-04_21h12.34.961,Colour_Similarity_Experiment,2020.2.10,Win32,60,60675255c767bca6388caeee,7.326804124,7.148148148,7.233085989,7.064162754,7.277318641,7.233085989,,,,,,,,,,,,,,,,,,,,PF,7,strong,,,,,,,,5,0.208,,,,,,,,,,,,,,,,,,,,,,,,,,,,2,strong,115,-58,1,0,0,response3disk,3,31,21,-3,1,0,0,rectangle,85,-70,1,0,0,5,6,0.423,-26,-6,1,0,0,0,30,30,104,1,1,response3disk_3,rectangle,,,,,,,,,,,,,,,,,,,
,,,,,,,,,,,,,,,,,,,,,,,,,,,,,,,,,,,,,,,,,,5e585dd09fb4700726f31d43,606a0f3cb3a4483d0c1948b0,2021-04-04_21h12.34.961,Colour_Similarity_Experiment,2020.2.10,Win32,60,60675255c767bca6388caeee,7.326804124,7.148148148,7.233085989,7.064162754,7.277318641,7.233085989,,,,,,,,,,,,,,,,,,,,PF,7,strong,,,,,,,,6,0.66,,,,,,,,,,,,,,,,,,,,,,,,,,,,2,strong,89,63,1,0,0,response1disk,8,32,9,0,1,0,0,rectangle,9,0,1,0,0,5,7,0.001,9,0,1,0,0,0,31,31,62,1,0,,,,,,,,,,,,,,,,,,,,,
,,,,,,,,,,,,,,,,,,,,,,,,,,,,,,,,,,,,,,,,,,5e585dd09fb4700726f31d43,606a0f3cb3a4483d0c1948b0,2021-04-04_21h12.34.961,Colour_Similarity_Experiment,2020.2.10,Win32,60,60675255c767bca6388caeee,7.326804124,7.148148148,7.233085989,7.064162754,7.277318641,7.233085989,,,,,,,,,,,,,,,,,,,,PF,7,weak,,,,,,,,7,0.419,,,,,,,,,,,,,,,,,,,,,,,,,,,,4,weak,59,105,1,0,0,response1disk,2,33,4,5,1,0,0,rectangle,4,5,1,0,0,5,3,0,4,5,1,0,0,0,32,32,108,1,0,,,,,,,,,,,,,,,,,,,,,
,,,,,,,,,,,,,,,,,,,,,,,,,,,,,,,,,,,,,,,,,,5e585dd09fb4700726f31d43,606a0f3cb3a4483d0c1948b0,2021-04-04_21h12.34.961,Colour_Similarity_Experiment,2020.2.10,Win32,60,60675255c767bca6388caeee,7.326804124,7.148148148,7.233085989,7.064162754,7.277318641,7.233085989,,,,,,,,,,,,,,,,,,,,PF,7,strong,,,,,,,,7,0.521,,,,,,,,,,,,,,,,,,,,,,,,,,,,2,strong,33,107,1,0,0,response1disk,2,34,11,4,1,0,0,rectangle,11,4,1,0,0,5,6,0.001,11,4,1,0,0,0,33,33,142,1,0,,,,,,,,,,,,,,,,,,,,,
,,,,,,,,,,,,,,,,,,,,,,,,,,,,,,,,,,,,,,,,,,5e585dd09fb4700726f31d43,606a0f3cb3a4483d0c1948b0,2021-04-04_21h12.34.961,Colour_Similarity_Experiment,2020.2.10,Win32,60,60675255c767bca6388caeee,7.326804124,7.148148148,7.233085989,7.064162754,7.277318641,7.233085989,,,,,,,,,,,,,,,,,,,,PF,7,weak,,,,,,,,7,0.833,,,,,,,,,,,,,,,,,,,,,,,,,,,,7,weak,65,112,1,0,0,response1disk,6,35,22,13,1,0,0,rectangle,22,13,1,0,0,5,1,0,22,13,1,0,0,0,34,34,29,1,0,,,,,,,,,,,,,,,,,,,,,
,,,,,,,,,,,,,,,,,,,,,,,,,,,,,,,,,,,,,,,,,,5e585dd09fb4700726f31d43,606a0f3cb3a4483d0c1948b0,2021-04-04_21h12.34.961,Colour_Similarity_Experiment,2020.2.10,Win32,60,60675255c767bca6388caeee,7.326804124,7.148148148,7.233085989,7.064162754,7.277318641,7.233085989,,,,,,,,,,,,,,,,,,,,PF,7,weak,,,,,,,,5,1.432,,,,,,,,,,,,,,,,,,,,,,,,,,,,7,weak,110,-36,1,0,0,response3disk,3,36,25,-3,1,0,0,rectangle,25,-3,1,0,0,5,4,0,25,-3,1,0,0,0,35,35,81,1,0,,,,,,,,,,,,,,,,,,,,,
,,,,,,,,,,,,,,,,,,,,,,,,,,,,,,,,,,,,,,,,,,5e585dd09fb4700726f31d43,606a0f3cb3a4483d0c1948b0,2021-04-04_21h12.34.961,Colour_Similarity_Experiment,2020.2.10,Win32,60,60675255c767bca6388caeee,7.326804124,7.148148148,7.233085989,7.064162754,7.277318641,7.233085989,,,,,,,,,,,,,,,,,,,,PF,7,weak,,,,,,,,7,0.962,,,,,,,,,,,,,,,,,,,,,,,,,,,,9,weak,52,125,1,0,0,response1disk,1,37,12,5,1,0,0,rectangle,12,5,1,0,0,5,1,0.001,12,5,1,0,0,0,36,36,74,1,0,,,,,,,,,,,,,,,,,,,,,
,,,,,,,,,,,,,,,,,,,,,,,,,,,,,,,,,,,,,,,,,,5e585dd09fb4700726f31d43,606a0f3cb3a4483d0c1948b0,2021-04-04_21h12.34.961,Colour_Similarity_Experiment,2020.2.10,Win32,60,60675255c767bca6388caeee,7.326804124,7.148148148,7.233085989,7.064162754,7.277318641,7.233085989,,,,,,,,,,,,,,,,,,,,PF,7,strong,,,,,,,,7,1.416,,,,,,,,,,,,,,,,,,,,,,,,,,,,6,strong,56,110,1,0,0,response1disk,9,38,-5,12,1,0,0,rectangle,-107,38,1,0,0,1,1,3.312,-12,3,1,0,0,0,37,37,160,1,1,response7disk_3,rectangle,,,,,,,,,,,,,,,,,,,
,,,,,,,,,,,,,,,,,,,,,,,,,,,,,,,,,,,,,,,,,,5e585dd09fb4700726f31d43,606a0f3cb3a4483d0c1948b0,2021-04-04_21h12.34.961,Colour_Similarity_Experiment,2020.2.10,Win32,60,60675255c767bca6388caeee,7.326804124,7.148148148,7.233085989,7.064162754,7.277318641,7.233085989,,,,,,,,,,,,,,,,,,,,PF,7,weak,,,,,,,,0,0.619,,,,,,,,,,,,,,,,,,,,,,,,,,,,1,weak,-44,100,1,0,0,response7disk,5,39,-5,2,1,0,0,rectangle,-5,2,1,0,0,1,3,0.001,-5,2,1,0,0,0,38,38,28,1,0,,,,,,,,,,,,,,,,,,,,,
,,,,,,,,,,,,,,,,,,,,,,,,,,,,,,,,,,,,,,,,,,5e585dd09fb4700726f31d43,606a0f3cb3a4483d0c1948b0,2021-04-04_21h12.34.961,Colour_Similarity_Experiment,2020.2.10,Win32,60,60675255c767bca6388caeee,7.326804124,7.148148148,7.233085989,7.064162754,7.277318641,7.233085989,,,,,,,,,,,,,,,,,,,,PF,7,strong,,,,,,,,7,0.549,,,,,,,,,,,,,,,,,,,,,,,,,,,,9,strong,48,109,1,0,0,response1disk,9,40,6,-3,1,0,0,rectangle,6,-3,1,0,0,1,2,0.001,6,-3,1,0,0,0,39,39,17,1,0,,,,,,,,,,,,,,,,,,,,,
,,,,,,,,,,,,,,,,,,,,,,,,,,,,,,,,,,,,,,,,,,5e585dd09fb4700726f31d43,606a0f3cb3a4483d0c1948b0,2021-04-04_21h12.34.961,Colour_Similarity_Experiment,2020.2.10,Win32,60,60675255c767bca6388caeee,7.326804124,7.148148148,7.233085989,7.064162754,7.277318641,7.233085989,,,,,,,,,,,,,,,,,,,,PF,7,strong,,,,,,,,5,0.902,,,,,,,,,,,,,,,,,,,,,,,,,,,,9,strong,91,-55,1,0,0,response3disk,4,41,13,12,1,0,0,rectangle,13,12,1,0,0,1,3,0,13,12,1,0,0,0,40,40,60,1,0,,,,,,,,,,,,,,,,,,,,,
,,,,,,,,,,,,,,,,,,,,,,,,,,,,,,,,,,,,,,,,,,5e585dd09fb4700726f31d43,606a0f3cb3a4483d0c1948b0,2021-04-04_21h12.34.961,Colour_Similarity_Experiment,2020.2.10,Win32,60,60675255c767bca6388caeee,7.326804124,7.148148148,7.233085989,7.064162754,7.277318641,7.233085989,,,,,,,,,,,,,,,,,,,,PF,7,strong,,,,,,,,7,0.826,,,,,,,,,,,,,,,,,,,,,,,,,,,,4,strong,45,129,1,0,0,response1disk,2,42,11,10,1,0,0,rectangle,11,10,1,0,0,1,6,0.001,11,10,1,0,0,0,41,41,13,1,0,,,,,,,,,,,,,,,,,,,,,
,,,,,,,,,,,,,,,,,,,,,,,,,,,,,,,,,,,,,,,,,,5e585dd09fb4700726f31d43,606a0f3cb3a4483d0c1948b0,2021-04-04_21h12.34.961,Colour_Similarity_Experiment,2020.2.10,Win32,60,60675255c767bca6388caeee,7.326804124,7.148148148,7.233085989,7.064162754,7.277318641,7.233085989,,,,,,,,,,,,,,,,,,,,PF,7,weak,,,,,,,,5,1.131,,,,,,,,,,,,,,,,,,,,,,,,,,,,8,weak,65,-42,1,0,0,response3disk,1,43,-16,3,1,0,0,rectangle,-16,3,1,0,0,1,2,0,-16,3,1,0,0,0,42,42,57,1,0,,,,,,,,,,,,,,,,,,,,,
,,,,,,,,,,,,,,,,,,,,,,,,,,,,,,,,,,,,,,,,,,5e585dd09fb4700726f31d43,606a0f3cb3a4483d0c1948b0,2021-04-04_21h12.34.961,Colour_Similarity_Experiment,2020.2.10,Win32,60,60675255c767bca6388caeee,7.326804124,7.148148148,7.233085989,7.064162754,7.277318641,7.233085989,,,,,,,,,,,,,,,,,,,,PF,7,strong,,,,,,,,7,0.735,,,,,,,,,,,,,,,,,,,,,,,,,,,,7,strong,53,117,1,0,0,response1disk,2,44,5,4,1,0,0,rectangle,5,4,1,0,0,1,3,0.001,5,4,1,0,0,0,43,43,138,1,0,,,,,,,,,,,,,,,,,,,,,
,,,,,,,,,,,,,,,,,,,,,,,,,,,,,,,,,,,,,,,,,,5e585dd09fb4700726f31d43,606a0f3cb3a4483d0c1948b0,2021-04-04_21h12.34.961,Colour_Similarity_Experiment,2020.2.10,Win32,60,60675255c767bca6388caeee,7.326804124,7.148148148,7.233085989,7.064162754,7.277318641,7.233085989,,,,,,,,,,,,,,,,,,,,PF,7,strong,,,,,,,,7,0.444,,,,,,,,,,,,,,,,,,,,,,,,,,,,1,strong,39,130,1,0,0,response1disk,7,45,5,-12,1,0,0,rectangle,5,-12,1,0,0,1,4,0,5,-12,1,0,0,0,44,44,137,1,0,,,,,,,,,,,,,,,,,,,,,
,,,,,,,,,,,,,,,,,,,,,,,,,,,,,,,,,,,,,,,,,,5e585dd09fb4700726f31d43,606a0f3cb3a4483d0c1948b0,2021-04-04_21h12.34.961,Colour_Similarity_Experiment,2020.2.10,Win32,60,60675255c767bca6388caeee,7.326804124,7.148148148,7.233085989,7.064162754,7.277318641,7.233085989,,,,,,,,,,,,,,,,,,,,PF,7,weak,,,,,,,,7,0.299,,,,,,,,,,,,,,,,,,,,,,,,,,,,5,weak,58,105,1,0,0,response1disk,8,46,6,-3,1,0,0,rectangle,6,-3,1,0,0,1,7,0.002,6,-3,1,0,0,0,45,45,149,1,0,,,,,,,,,,,,,,,,,,,,,
,,,,,,,,,,,,,,,,,,,,,,,,,,,,,,,,,,,,,,,,,,5e585dd09fb4700726f31d43,606a0f3cb3a4483d0c1948b0,2021-04-04_21h12.34.961,Colour_Similarity_Experiment,2020.2.10,Win32,60,60675255c767bca6388caeee,7.326804124,7.148148148,7.233085989,7.064162754,7.277318641,7.233085989,,,,,,,,,,,,,,,,,,,,PF,7,weak,,,,,,,,7,0.375,,,,,,,,,,,,,,,,,,,,,,,,,,,,2,weak,55,114,1,0,0,response1disk,1,47,6,10,1,0,0,rectangle,6,10,1,0,0,1,6,0.001,6,10,1,0,0,0,46,46,9,1,0,,,,,,,,,,,,,,,,,,,,,
,,,,,,,,,,,,,,,,,,,,,,,,,,,,,,,,,,,,,,,,,,5e585dd09fb4700726f31d43,606a0f3cb3a4483d0c1948b0,2021-04-04_21h12.34.961,Colour_Similarity_Experiment,2020.2.10,Win32,60,60675255c767bca6388caeee,7.326804124,7.148148148,7.233085989,7.064162754,7.277318641,7.233085989,,,,,,,,,,,,,,,,,,,,PF,7,strong,,,,,,,,7,0.471,,,,,,,,,,,,,,,,,,,,,,,,,,,,6,strong,48,102,1,0,0,response1disk,4,48,6,5,1,0,0,rectangle,6,5,1,0,0,1,2,0,6,5,1,0,0,0,47,47,56,1,0,,,,,,,,,,,,,,,,,,,,,
,,,,,,,,,,,,,,,,,,,,,,,,,,,,,,,,,,,,,,,,,,5e585dd09fb4700726f31d43,606a0f3cb3a4483d0c1948b0,2021-04-04_21h12.34.961,Colour_Similarity_Experiment,2020.2.10,Win32,60,60675255c767bca6388caeee,7.326804124,7.148148148,7.233085989,7.064162754,7.277318641,7.233085989,,,,,,,,,,,,,,,,,,,,PF,7,weak,,,,,,,,7,0.43,,,,,,,,,,,,,,,,,,,,,,,,,,,,1,weak,51,108,1,0,0,response1disk,7,49,-3,1,1,0,0,rectangle,-3,1,1,0,0,1,5,0.001,-3,1,1,0,0,0,48,48,150,1,0,,,,,,,,,,,,,,,,,,,,,
,,,,,,,,,,,,,,,,,,,,,,,,,,,,,,,,,,,,,,,,,,5e585dd09fb4700726f31d43,606a0f3cb3a4483d0c1948b0,2021-04-04_21h12.34.961,Colour_Similarity_Experiment,2020.2.10,Win32,60,60675255c767bca6388caeee,7.326804124,7.148148148,7.233085989,7.064162754,7.277318641,7.233085989,,,,,,,,,,,,,,,,,,,,PF,7,weak,,,,,,,,7,0.403,,,,,,,,,,,,,,,,,,,,,,,,,,,,9,weak,52,108,1,0,0,response1disk,6,50,9,1,1,0,0,rectangle,9,1,1,0,0,1,1,0,9,1,1,0,0,0,49,49,148,1,0,,,,,,,,,,,,,,,,,,,,,
,,,,,,,,,,,,,,,,,,,,,,,,,,,,,,,,,,,,,,,,,,5e585dd09fb4700726f31d43,606a0f3cb3a4483d0c1948b0,2021-04-04_21h12.34.961,Colour_Similarity_Experiment,2020.2.10,Win32,60,60675255c767bca6388caeee,7.326804124,7.148148148,7.233085989,7.064162754,7.277318641,7.233085989,,,,,,,,,,,,,,,,,,,,PF,7,weak,,,,,,,,7,0.361,,,,,,,,,,,,,,,,,,,,,,,,,,,,2,weak,57,104,1,0,0,response1disk,2,51,13,3,1,0,0,rectangle,13,3,1,0,0,1,3,0.002,13,3,1,0,0,0,50,50,14,1,0,,,,,,,,,,,,,,,,,,,,,
,,,,,,,,,,,,,,,,,,,,,,,,,,,,,,,,,,,,,,,,,,5e585dd09fb4700726f31d43,606a0f3cb3a4483d0c1948b0,2021-04-04_21h12.34.961,Colour_Similarity_Experiment,2020.2.10,Win32,60,60675255c767bca6388caeee,7.326804124,7.148148148,7.233085989,7.064162754,7.277318641,7.233085989,,,,,,,,,,,,,,,,,,,,PF,7,weak,,,,,,,,7,0.487,,,,,,,,,,,,,,,,,,,,,,,,,,,,1,weak,72,139,1,0,0,response1disk,8,52,18,11,1,0,0,rectangle,18,11,1,0,0,1,7,0,18,11,1,0,0,0,51,51,65,1,0,,,,,,,,,,,,,,,,,,,,,
,,,,,,,,,,,,,,,,,,,,,,,,,,,,,,,,,,,,,,,,,,5e585dd09fb4700726f31d43,606a0f3cb3a4483d0c1948b0,2021-04-04_21h12.34.961,Colour_Similarity_Experiment,2020.2.10,Win32,60,60675255c767bca6388caeee,7.326804124,7.148148148,7.233085989,7.064162754,7.277318641,7.233085989,,,,,,,,,,,,,,,,,,,,PF,7,weak,,,,,,,,7,0.376,,,,,,,,,,,,,,,,,,,,,,,,,,,,1,weak,61,86,1,0,0,response1disk,3,53,-13,-5,1,0,0,rectangle,-13,-5,1,0,0,1,5,0.001,-13,-5,1,0,0,0,52,52,1,1,0,,,,,,,,,,,,,,,,,,,,,
,,,,,,,,,,,,,,,,,,,,,,,,,,,,,,,,,,,,,,,,,,5e585dd09fb4700726f31d43,606a0f3cb3a4483d0c1948b0,2021-04-04_21h12.34.961,Colour_Similarity_Experiment,2020.2.10,Win32,60,60675255c767bca6388caeee,7.326804124,7.148148148,7.233085989,7.064162754,7.277318641,7.233085989,,,,,,,,,,,,,,,,,,,,PF,7,strong,,,,,,,,7,0.764,,,,,,,,,,,,,,,,,,,,,,,,,,,,7,strong,56,116,1,0,0,response1disk,1,54,2,-5,1,0,0,rectangle,2,-5,1,0,0,1,4,0.001,2,-5,1,0,0,0,53,53,132,1,0,,,,,,,,,,,,,,,,,,,,,
,,,,,,,,,,,,,,,,,,,,,,,,,,,,,,,,,,,,,,,,,,5e585dd09fb4700726f31d43,606a0f3cb3a4483d0c1948b0,2021-04-04_21h12.34.961,Colour_Similarity_Experiment,2020.2.10,Win32,60,60675255c767bca6388caeee,7.326804124,7.148148148,7.233085989,7.064162754,7.277318641,7.233085989,,,,,,,,,,,,,,,,,,,,PF,7,weak,,,,,,,,6,1.674,,,,,,,,,,,,,,,,,,,,,,,,,,,,9,weak,113,55,1,0,0,response1disk,2,55,15,10,1,0,0,rectangle,15,10,1,0,0,1,3,0.002,15,10,1,0,0,0,54,54,157,1,0,,,,,,,,,,,,,,,,,,,,,
,,,,,,,,,,,,,,,,,,,,,,,,,,,,,,,,,,,,,,,,,,5e585dd09fb4700726f31d43,606a0f3cb3a4483d0c1948b0,2021-04-04_21h12.34.961,Colour_Similarity_Experiment,2020.2.10,Win32,60,60675255c767bca6388caeee,7.326804124,7.148148148,7.233085989,7.064162754,7.277318641,7.233085989,,,,,,,,,,,,,,,,,,,,PF,7,weak,,,,,,,,5,0.868,,,,,,,,,,,,,,,,,,,,,,,,,,,,7,weak,88,-56,1,0,0,response3disk,1,56,-11,9,1,0,0,rectangle,-11,9,1,0,0,1,0,0,-11,9,1,0,0,0,55,55,53,1,0,,,,,,,,,,,,,,,,,,,,,
,,,,,,,,,,,,,,,,,,,,,,,,,,,,,,,,,,,,,,,,,,5e585dd09fb4700726f31d43,606a0f3cb3a4483d0c1948b0,2021-04-04_21h12.34.961,Colour_Similarity_Experiment,2020.2.10,Win32,60,60675255c767bca6388caeee,7.326804124,7.148148148,7.233085989,7.064162754,7.277318641,7.233085989,,,,,,,,,,,,,,,,,,,,PF,7,strong,,,,,,,,6,1.271,,,,,,,,,,,,,,,,,,,,,,,,,,,,6,strong,128,48,1,0,0,response1disk,7,57,19,-7,1,0,0,rectangle,19,-7,1,0,0,1,2,0.001,19,-7,1,0,0,0,56,56,18,1,0,,,,,,,,,,,,,,,,,,,,,
,,,,,,,,,,,,,,,,,,,,,,,,,,,,,,,,,,,,,,,,,,5e585dd09fb4700726f31d43,606a0f3cb3a4483d0c1948b0,2021-04-04_21h12.34.961,Colour_Similarity_Experiment,2020.2.10,Win32,60,60675255c767bca6388caeee,7.326804124,7.148148148,7.233085989,7.064162754,7.277318641,7.233085989,,,,,,,,,,,,,,,,,,,,PF,7,weak,,,,,,,,6,1.625,,,,,,,,,,,,,,,,,,,,,,,,,,,,1,weak,135,72,1,0,0,response1disk,1,58,10,-17,1,0,0,rectangle,-49,-122,1,0,0,3,3,2.201,24,14,1,0,0,0,57,57,76,1,1,response5disk_3,rectangle,,,,,,,,,,,,,,,,,,,
,,,,,,,,,,,,,,,,,,,,,,,,,,,,,,,,,,,,,,,,,,5e585dd09fb4700726f31d43,606a0f3cb3a4483d0c1948b0,2021-04-04_21h12.34.961,Colour_Similarity_Experiment,2020.2.10,Win32,60,60675255c767bca6388caeee,7.326804124,7.148148148,7.233085989,7.064162754,7.277318641,7.233085989,,,,,,,,,,,,,,,,,,,,PF,7,strong,,,,,,,,7,2,,,,,,,,,,,,,,,,,,,,,,,,,,,,9,strong,62,122,1,0,0,response1disk,5,59,25,9,1,0,0,rectangle,25,9,1,0,0,3,6,0.001,25,9,1,0,0,0,58,58,128,1,0,,,,,,,,,,,,,,,,,,,,,
,,,,,,,,,,,,,,,,,,,,,,,,,,,,,,,,,,,,,,,,,,5e585dd09fb4700726f31d43,606a0f3cb3a4483d0c1948b0,2021-04-04_21h12.34.961,Colour_Similarity_Experiment,2020.2.10,Win32,60,60675255c767bca6388caeee,7.326804124,7.148148148,7.233085989,7.064162754,7.277318641,7.233085989,,,,,,,,,,,,,,,,,,,,PF,7,strong,,,,,,,,7,0.854,,,,,,,,,,,,,,,,,,,,,,,,,,,,1,strong,56,123,1,0,0,response1disk,5,60,-15,3,1,0,0,rectangle,-15,3,1,0,0,3,0,0,-15,3,1,0,0,0,59,59,82,1,0,,,,,,,,,,,,,,,,,,,,,
,,,,,,,,,,,,,,,,,,,,,,,,,,,,,,,,,,,,,,,,,,5e585dd09fb4700726f31d43,606a0f3cb3a4483d0c1948b0,2021-04-04_21h12.34.961,Colour_Similarity_Experiment,2020.2.10,Win32,60,60675255c767bca6388caeee,7.326804124,7.148148148,7.233085989,7.064162754,7.277318641,7.233085989,,,,,,,,,,,,,,,,,,,,PF,7,weak,,,,,,,,7,1.84,,,,,,,,,,,,,,,,,,,,,,,,,,,,5,weak,61,138,1,0,0,response1disk,1,61,5,18,1,0,0,rectangle,-91,-66,1,0,0,3,2,1.645,16,-16,1,0,0,0,60,60,159,1,1,response5disk_3,rectangle,,,,,,,,,,,,,,,,,,,
,,,,,,,,,,,,,,,,,,,,,,,,,,,,,,,,,,,,,,,,,,5e585dd09fb4700726f31d43,606a0f3cb3a4483d0c1948b0,2021-04-04_21h12.34.961,Colour_Similarity_Experiment,2020.2.10,Win32,60,60675255c767bca6388caeee,7.326804124,7.148148148,7.233085989,7.064162754,7.277318641,7.233085989,,,,,,,,,,,,,,,,,,,,PF,7,strong,,,,,,,,6,0.43,,,,,,,,,,,,,,,,,,,,,,,,,,,,5,strong,120,55,1,0,0,response1disk,2,62,-17,8,1,0,0,rectangle,52,95,1,0,0,7,7,1.57,1,-7,1,0,0,0,61,61,55,1,1,response1disk_3,rectangle,,,,,,,,,,,,,,,,,,,
,,,,,,,,,,,,,,,,,,,,,,,,,,,,,,,,,,,,,,,,,,5e585dd09fb4700726f31d43,606a0f3cb3a4483d0c1948b0,2021-04-04_21h12.34.961,Colour_Similarity_Experiment,2020.2.10,Win32,60,60675255c767bca6388caeee,7.326804124,7.148148148,7.233085989,7.064162754,7.277318641,7.233085989,,,,,,,,,,,,,,,,,,,,PF,7,weak,,,,,,,,6,0.618,,,,,,,,,,,,,,,,,,,,,,,,,,,,7,weak,111,39,1,0,0,response1disk,7,63,40,-12,1,0,0,rectangle,40,-12,1,0,0,7,1,0,40,-12,1,0,0,0,62,62,51,1,0,,,,,,,,,,,,,,,,,,,,,
,,,,,,,,,,,,,,,,,,,,,,,,,,,,,,,,,,,,,,,,,,5e585dd09fb4700726f31d43,606a0f3cb3a4483d0c1948b0,2021-04-04_21h12.34.961,Colour_Similarity_Experiment,2020.2.10,Win32,60,60675255c767bca6388caeee,7.326804124,7.148148148,7.233085989,7.064162754,7.277318641,7.233085989,,,,,,,,,,,,,,,,,,,,PF,7,strong,,,,,,,,6,0.57,,,,,,,,,,,,,,,,,,,,,,,,,,,,6,strong,98,66,1,0,0,response1disk,2,64,-14,3,1,0,0,rectangle,-14,3,1,0,0,7,2,0.001,-14,3,1,0,0,0,63,63,112,1,0,,,,,,,,,,,,,,,,,,,,,
,,,,,,,,,,,,,,,,,,,,,,,,,,,,,,,,,,,,,,,,,,5e585dd09fb4700726f31d43,606a0f3cb3a4483d0c1948b0,2021-04-04_21h12.34.961,Colour_Similarity_Experiment,2020.2.10,Win32,60,60675255c767bca6388caeee,7.326804124,7.148148148,7.233085989,7.064162754,7.277318641,7.233085989,,,,,,,,,,,,,,,,,,,,PF,7,weak,,,,,,,,6,0.527,,,,,,,,,,,,,,,,,,,,,,,,,,,,8,weak,152,39,1,0,0,response1disk,2,65,7,-4,1,0,0,rectangle,7,-4,1,0,0,7,0,0.001,7,-4,1,0,0,0,64,64,83,1,0,,,,,,,,,,,,,,,,,,,,,
,,,,,,,,,,,,,,,,,,,,,,,,,,,,,,,,,,,,,,,,,,5e585dd09fb4700726f31d43,606a0f3cb3a4483d0c1948b0,2021-04-04_21h12.34.961,Colour_Similarity_Experiment,2020.2.10,Win32,60,60675255c767bca6388caeee,7.326804124,7.148148148,7.233085989,7.064162754,7.277318641,7.233085989,,,,,,,,,,,,,,,,,,,,PF,7,weak,,,,,,,,6,0.451,,,,,,,,,,,,,,,,,,,,,,,,,,,,9,weak,131,46,1,0,0,response1disk,5,66,18,16,1,0,0,rectangle,18,16,1,0,0,7,7,0.002,18,16,1,0,0,0,65,65,134,1,0,,,,,,,,,,,,,,,,,,,,,
,,,,,,,,,,,,,,,,,,,,,,,,,,,,,,,,,,,,,,,,,,5e585dd09fb4700726f31d43,606a0f3cb3a4483d0c1948b0,2021-04-04_21h12.34.961,Colour_Similarity_Experiment,2020.2.10,Win32,60,60675255c767bca6388caeee,7.326804124,7.148148148,7.233085989,7.064162754,7.277318641,7.233085989,,,,,,,,,,,,,,,,,,,,PF,7,strong,,,,,,,,6,0.396,,,,,,,,,,,,,,,,,,,,,,,,,,,,4,strong,110,29,1,0,0,response1disk,6,67,11,1,1,0,0,rectangle,11,1,1,0,0,7,6,0.001,11,1,1,0,0,0,66,66,122,1,0,,,,,,,,,,,,,,,,,,,,,
,,,,,,,,,,,,,,,,,,,,,,,,,,,,,,,,,,,,,,,,,,5e585dd09fb4700726f31d43,606a0f3cb3a4483d0c1948b0,2021-04-04_21h12.34.961,Colour_Similarity_Experiment,2020.2.10,Win32,60,60675255c767bca6388caeee,7.326804124,7.148148148,7.233085989,7.064162754,7.277318641,7.233085989,,,,,,,,,,,,,,,,,,,,PF,7,weak,,,,,,,,6,0.409,,,,,,,,,,,,,,,,,,,,,,,,,,,,6,weak,103,36,1,0,0,response1disk,6,68,6,-4,1,0,0,rectangle,6,-4,1,0,0,7,6,0,6,-4,1,0,0,0,67,67,0,1,0,,,,,,,,,,,,,,,,,,,,,
,,,,,,,,,,,,,,,,,,,,,,,,,,,,,,,,,,,,,,,,,,5e585dd09fb4700726f31d43,606a0f3cb3a4483d0c1948b0,2021-04-04_21h12.34.961,Colour_Similarity_Experiment,2020.2.10,Win32,60,60675255c767bca6388caeee,7.326804124,7.148148148,7.233085989,7.064162754,7.277318641,7.233085989,,,,,,,,,,,,,,,,,,,,PF,7,weak,,,,,,,,6,0.376,,,,,,,,,,,,,,,,,,,,,,,,,,,,6,weak,116,55,1,0,0,response1disk,9,69,-8,0,1,0,0,rectangle,-8,0,1,0,0,7,5,0,-8,0,1,0,0,0,68,68,45,1,0,,,,,,,,,,,,,,,,,,,,,
,,,,,,,,,,,,,,,,,,,,,,,,,,,,,,,,,,,,,,,,,,5e585dd09fb4700726f31d43,606a0f3cb3a4483d0c1948b0,2021-04-04_21h12.34.961,Colour_Similarity_Experiment,2020.2.10,Win32,60,60675255c767bca6388caeee,7.326804124,7.148148148,7.233085989,7.064162754,7.277318641,7.233085989,,,,,,,,,,,,,,,,,,,,PF,7,strong,,,,,,,,6,0.382,,,,,,,,,,,,,,,,,,,,,,,,,,,,9,strong,128,46,1,0,0,response1disk,1,70,25,11,1,0,0,rectangle,25,11,1,0,0,7,2,0,25,11,1,0,0,0,69,69,111,1,0,,,,,,,,,,,,,,,,,,,,,
,,,,,,,,,,,,,,,,,,,,,,,,,,,,,,,,,,,,,,,,,,5e585dd09fb4700726f31d43,606a0f3cb3a4483d0c1948b0,2021-04-04_21h12.34.961,Colour_Similarity_Experiment,2020.2.10,Win32,60,60675255c767bca6388caeee,7.326804124,7.148148148,7.233085989,7.064162754,7.277318641,7.233085989,,,,,,,,,,,,,,,,,,,,PF,7,weak,,,,,,,,6,0.299,,,,,,,,,,,,,,,,,,,,,,,,,,,,5,weak,105,44,1,0,0,response1disk,3,71,-22,4,1,0,0,rectangle,-22,4,1,0,0,7,6,0,-22,4,1,0,0,0,70,70,109,1,0,,,,,,,,,,,,,,,,,,,,,
,,,,,,,,,,,,,,,,,,,,,,,,,,,,,,,,,,,,,,,,,,5e585dd09fb4700726f31d43,606a0f3cb3a4483d0c1948b0,2021-04-04_21h12.34.961,Colour_Similarity_Experiment,2020.2.10,Win32,60,60675255c767bca6388caeee,7.326804124,7.148148148,7.233085989,7.064162754,7.277318641,7.233085989,,,,,,,,,,,,,,,,,,,,PF,7,strong,,,,,,,,6,0.589,,,,,,,,,,,,,,,,,,,,,,,,,,,,3,strong,99,43,1,0,0,response1disk,3,72,1,2,1,0,0,rectangle,1,2,1,0,0,7,3,0,1,2,1,0,0,0,71,71,68,1,0,,,,,,,,,,,,,,,,,,,,,
,,,,,,,,,,,,,,,,,,,,,,,,,,,,,,,,,,,,,,,,,,5e585dd09fb4700726f31d43,606a0f3cb3a4483d0c1948b0,2021-04-04_21h12.34.961,Colour_Similarity_Experiment,2020.2.10,Win32,60,60675255c767bca6388caeee,7.326804124,7.148148148,7.233085989,7.064162754,7.277318641,7.233085989,,,,,,,,,,,,,,,,,,,,PF,7,weak,,,,,,,,6,0.473,,,,,,,,,,,,,,,,,,,,,,,,,,,,7,weak,124,46,1,0,0,response1disk,4,73,17,-11,1,0,0,rectangle,17,-11,1,0,0,7,6,0,17,-11,1,0,0,0,72,72,43,1,0,,,,,,,,,,,,,,,,,,,,,
,,,,,,,,,,,,,,,,,,,,,,,,,,,,,,,,,,,,,,,,,,5e585dd09fb4700726f31d43,606a0f3cb3a4483d0c1948b0,2021-04-04_21h12.34.961,Colour_Similarity_Experiment,2020.2.10,Win32,60,60675255c767bca6388caeee,7.326804124,7.148148148,7.233085989,7.064162754,7.277318641,7.233085989,,,,,,,,,,,,,,,,,,,,PF,7,weak,,,,,,,,6,0.715,,,,,,,,,,,,,,,,,,,,,,,,,,,,5,weak,115,41,1,0,0,response1disk,4,74,-5,6,1,0,0,rectangle,-5,6,1,0,0,7,6,0,-5,6,1,0,0,0,73,73,54,1,0,,,,,,,,,,,,,,,,,,,,,
,,,,,,,,,,,,,,,,,,,,,,,,,,,,,,,,,,,,,,,,,,5e585dd09fb4700726f31d43,606a0f3cb3a4483d0c1948b0,2021-04-04_21h12.34.961,Colour_Similarity_Experiment,2020.2.10,Win32,60,60675255c767bca6388caeee,7.326804124,7.148148148,7.233085989,7.064162754,7.277318641,7.233085989,,,,,,,,,,,,,,,,,,,,PF,7,strong,,,,,,,,6,0.598,,,,,,,,,,,,,,,,,,,,,,,,,,,,2,strong,125,52,1,0,0,response1disk,7,75,-2,14,1,0,0,rectangle,-2,14,1,0,0,7,2,0,-2,14,1,0,0,0,74,74,63,1,0,,,,,,,,,,,,,,,,,,,,,
,,,,,,,,,,,,,,,,,,,,,,,,,,,,,,,,,,,,,,,,,,5e585dd09fb4700726f31d43,606a0f3cb3a4483d0c1948b0,2021-04-04_21h12.34.961,Colour_Similarity_Experiment,2020.2.10,Win32,60,60675255c767bca6388caeee,7.326804124,7.148148148,7.233085989,7.064162754,7.277318641,7.233085989,,,,,,,,,,,,,,,,,,,,PF,7,weak,,,,,,,,6,0.536,,,,,,,,,,,,,,,,,,,,,,,,,,,,3,weak,137,37,1,0,0,response1disk,8,76,34,-7,1,0,0,rectangle,34,-7,1,0,0,7,7,0,34,-7,1,0,0,0,75,75,3,1,0,,,,,,,,,,,,,,,,,,,,,
,,,,,,,,,,,,,,,,,,,,,,,,,,,,,,,,,,,,,,,,,,5e585dd09fb4700726f31d43,606a0f3cb3a4483d0c1948b0,2021-04-04_21h12.34.961,Colour_Similarity_Experiment,2020.2.10,Win32,60,60675255c767bca6388caeee,7.326804124,7.148148148,7.233085989,7.064162754,7.277318641,7.233085989,,,,,,,,,,,,,,,,,,,,PF,7,strong,,,,,,,,4,1.751,,,,,,,,,,,,,,,,,,,,,,,,,,,,7,strong,67,-132,1,0,0,response3disk,9,77,-38,-3,1,0,0,rectangle,-38,-3,1,0,0,7,1,0.001,-38,-3,1,0,0,0,76,76,155,1,0,,,,,,,,,,,,,,,,,,,,,
,,,,,,,,,,,,,,,,,,,,,,,,,,,,,,,,,,,,,,,,,,5e585dd09fb4700726f31d43,606a0f3cb3a4483d0c1948b0,2021-04-04_21h12.34.961,Colour_Similarity_Experiment,2020.2.10,Win32,60,60675255c767bca6388caeee,7.326804124,7.148148148,7.233085989,7.064162754,7.277318641,7.233085989,,,,,,,,,,,,,,,,,,,,PF,7,strong,,,,,,,,6,1.195,,,,,,,,,,,,,,,,,,,,,,,,,,,,5,strong,121,78,1,0,0,response1disk,9,78,5,20,1,0,0,rectangle,5,20,1,0,0,7,2,0,5,20,1,0,0,0,77,77,61,1,0,,,,,,,,,,,,,,,,,,,,,
,,,,,,,,,,,,,,,,,,,,,,,,,,,,,,,,,,,,,,,,,,5e585dd09fb4700726f31d43,606a0f3cb3a4483d0c1948b0,2021-04-04_21h12.34.961,Colour_Similarity_Experiment,2020.2.10,Win32,60,60675255c767bca6388caeee,7.326804124,7.148148148,7.233085989,7.064162754,7.277318641,7.233085989,,,,,,,,,,,,,,,,,,,,PF,7,strong,,,,,,,,6,0.5,,,,,,,,,,,,,,,,,,,,,,,,,,,,8,strong,113,62,1,0,0,response1disk,2,79,-14,-15,1,0,0,rectangle,-14,-15,1,0,0,7,3,0.002,-14,-15,1,0,0,0,78,78,22,1,0,,,,,,,,,,,,,,,,,,,,,
,,,,,,,,,,,,,,,,,,,,,,,,,,,,,,,,,,,,,,,,,,5e585dd09fb4700726f31d43,606a0f3cb3a4483d0c1948b0,2021-04-04_21h12.34.961,Colour_Similarity_Experiment,2020.2.10,Win32,60,60675255c767bca6388caeee,7.326804124,7.148148148,7.233085989,7.064162754,7.277318641,7.233085989,,,,,,,,,,,,,,,,,,,,PF,7,weak,,,,,,,,6,0.452,,,,,,,,,,,,,,,,,,,,,,,,,,,,2,weak,86,25,1,0,0,response1disk,9,80,18,-6,1,0,0,rectangle,18,-6,1,0,0,7,1,0.001,18,-6,1,0,0,0,79,79,39,1,0,,,,,,,,,,,,,,,,,,,,,
,,,,,,,,,,,,,,,,,,,,,,,,,,,,,,,,,,,,,,,,,,5e585dd09fb4700726f31d43,606a0f3cb3a4483d0c1948b0,2021-04-04_21h12.34.961,Colour_Similarity_Experiment,2020.2.10,Win32,60,60675255c767bca6388caeee,7.326804124,7.148148148,7.233085989,7.064162754,7.277318641,7.233085989,,,,,,,,,,,,,,,,,,,,PF,7,weak,,,,,,,,6,0.708,,,,,,,,,,,,,,,,,,,,,,,,,,,,3,weak,126,65,1,0,0,response1disk,1,81,-3,8,1,0,0,rectangle,-3,8,1,0,0,7,2,0.001,-3,8,1,0,0,0,80,80,96,1,0,,,,,,,,,,,,,,,,,,,,,
,,,,,,,,,,,,,,,,,,,,,,,,,,,,,,,,,,,,,,,,,,5e585dd09fb4700726f31d43,606a0f3cb3a4483d0c1948b0,2021-04-04_21h12.34.961,Colour_Similarity_Experiment,2020.2.10,Win32,60,60675255c767bca6388caeee,7.326804124,7.148148148,7.233085989,7.064162754,7.277318641,7.233085989,,,,,,,,,,,,,,,,,,,,PF,7,strong,,,,,,,,6,0.449,,,,,,,,,,,,,,,,,,,,,,,,,,,,6,strong,119,57,1,0,0,response1disk,5,82,-15,-1,1,0,0,rectangle,-15,-1,1,0,0,7,3,0.001,-15,-1,1,0,0,0,81,81,126,1,0,,,,,,,,,,,,,,,,,,,,,
,,,,,,,,,,,,,,,,,,,,,,,,,,,,,,,,,,,,,,,,,,5e585dd09fb4700726f31d43,606a0f3cb3a4483d0c1948b0,2021-04-04_21h12.34.961,Colour_Similarity_Experiment,2020.2.10,Win32,60,60675255c767bca6388caeee,7.326804124,7.148148148,7.233085989,7.064162754,7.277318641,7.233085989,,,,,,,,,,,,,,,,,,,,PF,7,weak,,,,,,,,6,0.395,,,,,,,,,,,,,,,,,,,,,,,,,,,,5,weak,117,63,1,0,0,response1disk,9,83,16,8,1,0,0,rectangle,101,-39,1,0,0,5,5,1.312,5,14,1,0,0,0,82,82,136,1,1,response3disk_3,rectangle,,,,,,,,,,,,,,,,,,,
,,,,,,,,,,,,,,,,,,,,,,,,,,,,,,,,,,,,,,,,,,5e585dd09fb4700726f31d43,606a0f3cb3a4483d0c1948b0,2021-04-04_21h12.34.961,Colour_Similarity_Experiment,2020.2.10,Win32,60,60675255c767bca6388caeee,7.326804124,7.148148148,7.233085989,7.064162754,7.277318641,7.233085989,,,,,,,,,,,,,,,,,,,,PF,7,weak,,,,,,,,4,1.896,,,,,,,,,,,,,,,,,,,,,,,,,,,,4,weak,56,-124,1,0,0,response3disk,5,84,6,8,1,0,0,rectangle,6,8,1,0,0,5,6,0.001,6,8,1,0,0,0,83,83,49,1,0,,,,,,,,,,,,,,,,,,,,,
,,,,,,,,,,,,,,,,,,,,,,,,,,,,,,,,,,,,,,,,,,5e585dd09fb4700726f31d43,606a0f3cb3a4483d0c1948b0,2021-04-04_21h12.34.961,Colour_Similarity_Experiment,2020.2.10,Win32,60,60675255c767bca6388caeee,7.326804124,7.148148148,7.233085989,7.064162754,7.277318641,7.233085989,,,,,,,,,,,,,,,,,,,,PF,7,weak,,,,,,,,6,0.834,,,,,,,,,,,,,,,,,,,,,,,,,,,,3,weak,100,25,1,0,0,response1disk,9,85,-36,8,1,0,0,rectangle,-36,8,1,0,0,5,3,0,-36,8,1,0,0,0,84,84,79,1,0,,,,,,,,,,,,,,,,,,,,,
,,,,,,,,,,,,,,,,,,,,,,,,,,,,,,,,,,,,,,,,,,5e585dd09fb4700726f31d43,606a0f3cb3a4483d0c1948b0,2021-04-04_21h12.34.961,Colour_Similarity_Experiment,2020.2.10,Win32,60,60675255c767bca6388caeee,7.326804124,7.148148148,7.233085989,7.064162754,7.277318641,7.233085989,,,,,,,,,,,,,,,,,,,,PF,7,weak,,,,,,,,5,0.576,,,,,,,,,,,,,,,,,,,,,,,,,,,,2,weak,110,-52,1,0,0,response3disk,7,86,6,-7,1,0,0,rectangle,6,-7,1,0,0,5,6,0.001,6,-7,1,0,0,0,85,85,107,1,0,,,,,,,,,,,,,,,,,,,,,
,,,,,,,,,,,,,,,,,,,,,,,,,,,,,,,,,,,,,,,,,,5e585dd09fb4700726f31d43,606a0f3cb3a4483d0c1948b0,2021-04-04_21h12.34.961,Colour_Similarity_Experiment,2020.2.10,Win32,60,60675255c767bca6388caeee,7.326804124,7.148148148,7.233085989,7.064162754,7.277318641,7.233085989,,,,,,,,,,,,,,,,,,,,PF,7,weak,,,,,,,,6,0.972,,,,,,,,,,,,,,,,,,,,,,,,,,,,4,weak,111,33,1,0,0,response1disk,8,87,25,-15,1,0,0,rectangle,25,-15,1,0,0,5,1,0,25,-15,1,0,0,0,86,86,124,1,0,,,,,,,,,,,,,,,,,,,,,
,,,,,,,,,,,,,,,,,,,,,,,,,,,,,,,,,,,,,,,,,,5e585dd09fb4700726f31d43,606a0f3cb3a4483d0c1948b0,2021-04-04_21h12.34.961,Colour_Similarity_Experiment,2020.2.10,Win32,60,60675255c767bca6388caeee,7.326804124,7.148148148,7.233085989,7.064162754,7.277318641,7.233085989,,,,,,,,,,,,,,,,,,,,PF,7,weak,,,,,,,,7,0.535,,,,,,,,,,,,,,,,,,,,,,,,,,,,3,weak,24,118,1,0,0,response1disk,2,88,8,-14,1,0,0,rectangle,-110,-72,1,0,0,5,2,1.367,-7,-5,1,0,0,0,87,87,36,1,1,response5disk_3,rectangle,,,,,,,,,,,,,,,,,,,
,,,,,,,,,,,,,,,,,,,,,,,,,,,,,,,,,,,,,,,,,,5e585dd09fb4700726f31d43,606a0f3cb3a4483d0c1948b0,2021-04-04_21h12.34.961,Colour_Similarity_Experiment,2020.2.10,Win32,60,60675255c767bca6388caeee,7.326804124,7.148148148,7.233085989,7.064162754,7.277318641,7.233085989,,,,,,,,,,,,,,,,,,,,PF,7,strong,,,,,,,,5,0.715,,,,,,,,,,,,,,,,,,,,,,,,,,,,7,strong,65,-65,1,0,0,response3disk,3,89,0,-15,1,0,0,rectangle,0,-15,1,0,0,5,3,0,0,-15,1,0,0,0,88,88,73,1,0,,,,,,,,,,,,,,,,,,,,,
,,,,,,,,,,,,,,,,,,,,,,,,,,,,,,,,,,,,,,,,,,5e585dd09fb4700726f31d43,606a0f3cb3a4483d0c1948b0,2021-04-04_21h12.34.961,Colour_Similarity_Experiment,2020.2.10,Win32,60,60675255c767bca6388caeee,7.326804124,7.148148148,7.233085989,7.064162754,7.277318641,7.233085989,,,,,,,,,,,,,,,,,,,,PF,7,strong,,,,,,,,5,0.388,,,,,,,,,,,,,,,,,,,,,,,,,,,,4,strong,114,-79,1,0,0,response3disk,1,90,-6,-4,1,0,0,rectangle,-6,-4,1,0,0,5,3,0.001,-6,-4,1,0,0,0,89,89,102,1,0,,,,,,,,,,,,,,,,,,,,,
,,,,,,,,,,,,,,,,,,,,,,,,,,,,,,,,,,,,,,,,,,5e585dd09fb4700726f31d43,606a0f3cb3a4483d0c1948b0,2021-04-04_21h12.34.961,Colour_Similarity_Experiment,2020.2.10,Win32,60,60675255c767bca6388caeee,7.326804124,7.148148148,7.233085989,7.064162754,7.277318641,7.233085989,,,,,,,,,,,,,,,,,,,,PF,7,weak,,,,,,,,5,0.327,,,,,,,,,,,,,,,,,,,,,,,,,,,,4,weak,82,-68,1,0,0,response3disk,9,91,8,-10,1,0,0,rectangle,8,-10,1,0,0,5,6,0.001,8,-10,1,0,0,0,90,90,75,1,0,,,,,,,,,,,,,,,,,,,,,
,,,,,,,,,,,,,,,,,,,,,,,,,,,,,,,,,,,,,,,,,,5e585dd09fb4700726f31d43,606a0f3cb3a4483d0c1948b0,2021-04-04_21h12.34.961,Colour_Similarity_Experiment,2020.2.10,Win32,60,60675255c767bca6388caeee,7.326804124,7.148148148,7.233085989,7.064162754,7.277318641,7.233085989,,,,,,,,,,,,,,,,,,,,PF,7,weak,,,,,,,,5,0.341,,,,,,,,,,,,,,,,,,,,,,,,,,,,9,weak,117,-79,1,0,0,response3disk,8,92,26,-19,1,0,0,rectangle,26,-19,1,0,0,5,4,0.001,26,-19,1,0,0,0,91,91,67,1,0,,,,,,,,,,,,,,,,,,,,,
,,,,,,,,,,,,,,,,,,,,,,,,,,,,,,,,,,,,,,,,,,5e585dd09fb4700726f31d43,606a0f3cb3a4483d0c1948b0,2021-04-04_21h12.34.961,Colour_Similarity_Experiment,2020.2.10,Win32,60,60675255c767bca6388caeee,7.326804124,7.148148148,7.233085989,7.064162754,7.277318641,7.233085989,,,,,,,,,,,,,,,,,,,,PF,7,strong,,,,,,,,6,0.471,,,,,,,,,,,,,,,,,,,,,,,,,,,,9,strong,106,36,1,0,0,response1disk,3,93,15,-17,1,0,0,rectangle,15,-17,1,0,0,5,1,0.001,15,-17,1,0,0,0,92,92,141,1,0,,,,,,,,,,,,,,,,,,,,,
,,,,,,,,,,,,,,,,,,,,,,,,,,,,,,,,,,,,,,,,,,5e585dd09fb4700726f31d43,606a0f3cb3a4483d0c1948b0,2021-04-04_21h12.34.961,Colour_Similarity_Experiment,2020.2.10,Win32,60,60675255c767bca6388caeee,7.326804124,7.148148148,7.233085989,7.064162754,7.277318641,7.233085989,,,,,,,,,,,,,,,,,,,,PF,7,strong,,,,,,,,6,0.333,,,,,,,,,,,,,,,,,,,,,,,,,,,,8,strong,111,56,1,0,0,response1disk,9,94,23,7,1,0,0,rectangle,23,7,1,0,0,5,5,0.002,23,7,1,0,0,0,93,93,105,1,0,,,,,,,,,,,,,,,,,,,,,
,,,,,,,,,,,,,,,,,,,,,,,,,,,,,,,,,,,,,,,,,,5e585dd09fb4700726f31d43,606a0f3cb3a4483d0c1948b0,2021-04-04_21h12.34.961,Colour_Similarity_Experiment,2020.2.10,Win32,60,60675255c767bca6388caeee,7.326804124,7.148148148,7.233085989,7.064162754,7.277318641,7.233085989,,,,,,,,,,,,,,,,,,,,PF,7,strong,,,,,,,,6,0.417,,,,,,,,,,,,,,,,,,,,,,,,,,,,4,strong,89,64,1,0,0,response1disk,7,95,4,-7,1,0,0,rectangle,4,-7,1,0,0,5,1,0,4,-7,1,0,0,0,94,94,87,1,0,,,,,,,,,,,,,,,,,,,,,
,,,,,,,,,,,,,,,,,,,,,,,,,,,,,,,,,,,,,,,,,,5e585dd09fb4700726f31d43,606a0f3cb3a4483d0c1948b0,2021-04-04_21h12.34.961,Colour_Similarity_Experiment,2020.2.10,Win32,60,60675255c767bca6388caeee,7.326804124,7.148148148,7.233085989,7.064162754,7.277318641,7.233085989,,,,,,,,,,,,,,,,,,,,PF,7,strong,,,,,,,,6,0.361,,,,,,,,,,,,,,,,,,,,,,,,,,,,4,strong,106,50,1,0,0,response1disk,5,96,15,10,1,0,0,rectangle,15,10,1,0,0,5,1,0,15,10,1,0,0,0,95,95,116,1,0,,,,,,,,,,,,,,,,,,,,,
,,,,,,,,,,,,,,,,,,,,,,,,,,,,,,,,,,,,,,,,,,5e585dd09fb4700726f31d43,606a0f3cb3a4483d0c1948b0,2021-04-04_21h12.34.961,Colour_Similarity_Experiment,2020.2.10,Win32,60,60675255c767bca6388caeee,7.326804124,7.148148148,7.233085989,7.064162754,7.277318641,7.233085989,,,,,,,,,,,,,,,,,,,,PF,7,strong,,,,,,,,6,0.406,,,,,,,,,,,,,,,,,,,,,,,,,,,,5,strong,114,34,1,0,0,response1disk,4,97,29,3,1,0,0,rectangle,29,3,1,0,0,5,6,0.001,29,3,1,0,0,0,96,96,8,1,0,,,,,,,,,,,,,,,,,,,,,
,,,,,,,,,,,,,,,,,,,,,,,,,,,,,,,,,,,,,,,,,,5e585dd09fb4700726f31d43,606a0f3cb3a4483d0c1948b0,2021-04-04_21h12.34.961,Colour_Similarity_Experiment,2020.2.10,Win32,60,60675255c767bca6388caeee,7.326804124,7.148148148,7.233085989,7.064162754,7.277318641,7.233085989,,,,,,,,,,,,,,,,,,,,PF,7,weak,,,,,,,,6,0.459,,,,,,,,,,,,,,,,,,,,,,,,,,,,9,weak,132,60,1,0,0,response1disk,7,98,41,1,1,0,0,rectangle,41,1,1,0,0,5,1,0,41,1,1,0,0,0,97,97,121,1,0,,,,,,,,,,,,,,,,,,,,,
,,,,,,,,,,,,,,,,,,,,,,,,,,,,,,,,,,,,,,,,,,5e585dd09fb4700726f31d43,606a0f3cb3a4483d0c1948b0,2021-04-04_21h12.34.961,Colour_Similarity_Experiment,2020.2.10,Win32,60,60675255c767bca6388caeee,7.326804124,7.148148148,7.233085989,7.064162754,7.277318641,7.233085989,,,,,,,,,,,,,,,,,,,,PF,7,strong,,,,,,,,6,0.847,,,,,,,,,,,,,,,,,,,,,,,,,,,,3,strong,104,40,1,0,0,response1disk,2,99,19,1,1,0,0,rectangle,19,1,1,0,0,5,7,0.001,19,1,1,0,0,0,98,98,93,1,0,,,,,,,,,,,,,,,,,,,,,
,,,,,,,,,,,,,,,,,,,,,,,,,,,,,,,,,,,,,,,,,,5e585dd09fb4700726f31d43,606a0f3cb3a4483d0c1948b0,2021-04-04_21h12.34.961,Colour_Similarity_Experiment,2020.2.10,Win32,60,60675255c767bca6388caeee,7.326804124,7.148148148,7.233085989,7.064162754,7.277318641,7.233085989,,,,,,,,,,,,,,,,,,,,PF,7,weak,,,,,,,,6,0.739,,,,,,,,,,,,,,,,,,,,,,,,,,,,3,weak,113,42,1,0,0,response1disk,6,100,28,-2,1,0,0,rectangle,28,-2,1,0,0,5,6,0.001,28,-2,1,0,0,0,99,99,47,1,0,,,,,,,,,,,,,,,,,,,,,
,,,,,,,,,,,,,,,,,,,,,,,,,,,,,,,,,,,,,,,,,,5e585dd09fb4700726f31d43,606a0f3cb3a4483d0c1948b0,2021-04-04_21h12.34.961,Colour_Similarity_Experiment,2020.2.10,Win32,60,60675255c767bca6388caeee,7.326804124,7.148148148,7.233085989,7.064162754,7.277318641,7.233085989,,,,,,,,,,,,,,,,,,,,PF,7,weak,,,,,,,,6,0.968,,,,,,,,,,,,,,,,,,,,,,,,,,,,4,weak,120,67,1,0,0,response1disk,3,101,4,11,1,0,0,rectangle,4,11,1,0,0,5,3,0.002,4,11,1,0,0,0,100,100,89,1,0,,,,,,,,,,,,,,,,,,,,,
,,,,,,,,,,,,,,,,,,,,,,,,,,,,,,,,,,,,,,,,,,5e585dd09fb4700726f31d43,606a0f3cb3a4483d0c1948b0,2021-04-04_21h12.34.961,Colour_Similarity_Experiment,2020.2.10,Win32,60,60675255c767bca6388caeee,7.326804124,7.148148148,7.233085989,7.064162754,7.277318641,7.233085989,,,,,,,,,,,,,,,,,,,,PF,7,weak,,,,,,,,6,0.334,,,,,,,,,,,,,,,,,,,,,,,,,,,,6,weak,85,63,1,0,0,response1disk,3,102,7,6,1,0,0,rectangle,7,6,1,0,0,5,1,0,7,6,1,0,0,0,101,101,26,1,0,,,,,,,,,,,,,,,,,,,,,
,,,,,,,,,,,,,,,,,,,,,,,,,,,,,,,,,,,,,,,,,,5e585dd09fb4700726f31d43,606a0f3cb3a4483d0c1948b0,2021-04-04_21h12.34.961,Colour_Similarity_Experiment,2020.2.10,Win32,60,60675255c767bca6388caeee,7.326804124,7.148148148,7.233085989,7.064162754,7.277318641,7.233085989,,,,,,,,,,,,,,,,,,,,PF,7,strong,,,,,,,,6,0.34,,,,,,,,,,,,,,,,,,,,,,,,,,,,3,strong,124,42,1,0,0,response1disk,1,103,-10,8,1,0,0,rectangle,-10,8,1,0,0,5,5,0,-10,8,1,0,0,0,102,102,125,1,0,,,,,,,,,,,,,,,,,,,,,
,,,,,,,,,,,,,,,,,,,,,,,,,,,,,,,,,,,,,,,,,,5e585dd09fb4700726f31d43,606a0f3cb3a4483d0c1948b0,2021-04-04_21h12.34.961,Colour_Similarity_Experiment,2020.2.10,Win32,60,60675255c767bca6388caeee,7.326804124,7.148148148,7.233085989,7.064162754,7.277318641,7.233085989,,,,,,,,,,,,,,,,,,,,PF,7,weak,,,,,,,,7,3.577,,,,,,,,,,,,,,,,,,,,,,,,,,,,7,weak,58,120,1,0,0,response1disk,9,104,-13,-8,1,0,0,rectangle,-13,-8,1,0,0,5,1,0,-13,-8,1,0,0,0,103,103,10,1,0,,,,,,,,,,,,,,,,,,,,,
,,,,,,,,,,,,,,,,,,,,,,,,,,,,,,,,,,,,,,,,,,5e585dd09fb4700726f31d43,606a0f3cb3a4483d0c1948b0,2021-04-04_21h12.34.961,Colour_Similarity_Experiment,2020.2.10,Win32,60,60675255c767bca6388caeee,7.326804124,7.148148148,7.233085989,7.064162754,7.277318641,7.233085989,,,,,,,,,,,,,,,,,,,,PF,7,strong,,,,,,,,7,0.676,,,,,,,,,,,,,,,,,,,,,,,,,,,,8,strong,41,94,1,0,0,response1disk,7,105,-2,-12,1,0,0,rectangle,-2,-12,1,0,0,5,3,0,-2,-12,1,0,0,0,104,104,86,1,0,,,,,,,,,,,,,,,,,,,,,
,,,,,,,,,,,,,,,,,,,,,,,,,,,,,,,,,,,,,,,,,,5e585dd09fb4700726f31d43,606a0f3cb3a4483d0c1948b0,2021-04-04_21h12.34.961,Colour_Similarity_Experiment,2020.2.10,Win32,60,60675255c767bca6388caeee,7.326804124,7.148148148,7.233085989,7.064162754,7.277318641,7.233085989,,,,,,,,,,,,,,,,,,,,PF,7,weak,,,,,,,,7,0.361,,,,,,,,,,,,,,,,,,,,,,,,,,,,1,weak,32,103,1,0,0,response1disk,4,106,-9,-5,1,0,0,rectangle,-9,-5,1,0,0,5,1,0.001,-9,-5,1,0,0,0,105,105,139,1,0,,,,,,,,,,,,,,,,,,,,,
,,,,,,,,,,,,,,,,,,,,,,,,,,,,,,,,,,,,,,,,,,5e585dd09fb4700726f31d43,606a0f3cb3a4483d0c1948b0,2021-04-04_21h12.34.961,Colour_Similarity_Experiment,2020.2.10,Win32,60,60675255c767bca6388caeee,7.326804124,7.148148148,7.233085989,7.064162754,7.277318641,7.233085989,,,,,,,,,,,,,,,,,,,,PF,7,weak,,,,,,,,7,0.402,,,,,,,,,,,,,,,,,,,,,,,,,,,,3,weak,67,102,1,0,0,response1disk,4,107,-1,-6,1,0,0,rectangle,-1,-6,1,0,0,5,5,0.002,-1,-6,1,0,0,0,106,106,30,1,0,,,,,,,,,,,,,,,,,,,,,
,,,,,,,,,,,,,,,,,,,,,,,,,,,,,,,,,,,,,,,,,,5e585dd09fb4700726f31d43,606a0f3cb3a4483d0c1948b0,2021-04-04_21h12.34.961,Colour_Similarity_Experiment,2020.2.10,Win32,60,60675255c767bca6388caeee,7.326804124,7.148148148,7.233085989,7.064162754,7.277318641,7.233085989,,,,,,,,,,,,,,,,,,,,PF,7,weak,,,,,,,,7,0.465,,,,,,,,,,,,,,,,,,,,,,,,,,,,6,weak,55,116,1,0,0,response1disk,7,108,-12,-17,1,0,0,rectangle,-12,-17,1,0,0,5,3,0.001,-12,-17,1,0,0,0,107,107,50,1,0,,,,,,,,,,,,,,,,,,,,,
,,,,,,,,,,,,,,,,,,,,,,,,,,,,,,,,,,,,,,,,,,5e585dd09fb4700726f31d43,606a0f3cb3a4483d0c1948b0,2021-04-04_21h12.34.961,Colour_Similarity_Experiment,2020.2.10,Win32,60,60675255c767bca6388caeee,7.326804124,7.148148148,7.233085989,7.064162754,7.277318641,7.233085989,,,,,,,,,,,,,,,,,,,,PF,7,strong,,,,,,,,7,0.451,,,,,,,,,,,,,,,,,,,,,,,,,,,,7,strong,51,107,1,0,0,response1disk,7,109,-2,9,1,0,0,rectangle,-2,9,1,0,0,5,5,0.001,-2,9,1,0,0,0,108,108,34,1,0,,,,,,,,,,,,,,,,,,,,,
,,,,,,,,,,,,,,,,,,,,,,,,,,,,,,,,,,,,,,,,,,5e585dd09fb4700726f31d43,606a0f3cb3a4483d0c1948b0,2021-04-04_21h12.34.961,Colour_Similarity_Experiment,2020.2.10,Win32,60,60675255c767bca6388caeee,7.326804124,7.148148148,7.233085989,7.064162754,7.277318641,7.233085989,,,,,,,,,,,,,,,,,,,,PF,7,strong,,,,,,,,7,0.383,,,,,,,,,,,,,,,,,,,,,,,,,,,,4,strong,42,99,1,0,0,response1disk,8,110,17,-2,1,0,0,rectangle,17,-2,1,0,0,5,5,0,17,-2,1,0,0,0,109,109,35,1,0,,,,,,,,,,,,,,,,,,,,,
,,,,,,,,,,,,,,,,,,,,,,,,,,,,,,,,,,,,,,,,,,5e585dd09fb4700726f31d43,606a0f3cb3a4483d0c1948b0,2021-04-04_21h12.34.961,Colour_Similarity_Experiment,2020.2.10,Win32,60,60675255c767bca6388caeee,7.326804124,7.148148148,7.233085989,7.064162754,7.277318641,7.233085989,,,,,,,,,,,,,,,,,,,,PF,7,weak,,,,,,,,7,0.397,,,,,,,,,,,,,,,,,,,,,,,,,,,,5,weak,44,85,1,0,0,response1disk,2,111,-10,-3,1,0,0,rectangle,-10,-3,1,0,0,5,6,0.002,-10,-3,1,0,0,0,110,110,129,1,0,,,,,,,,,,,,,,,,,,,,,
,,,,,,,,,,,,,,,,,,,,,,,,,,,,,,,,,,,,,,,,,,5e585dd09fb4700726f31d43,606a0f3cb3a4483d0c1948b0,2021-04-04_21h12.34.961,Colour_Similarity_Experiment,2020.2.10,Win32,60,60675255c767bca6388caeee,7.326804124,7.148148148,7.233085989,7.064162754,7.277318641,7.233085989,,,,,,,,,,,,,,,,,,,,PF,7,weak,,,,,,,,7,0.313,,,,,,,,,,,,,,,,,,,,,,,,,,,,8,weak,55,111,1,0,0,response1disk,6,112,1,17,1,0,0,rectangle,-130,-50,1,0,0,5,2,1.23,9,-8,1,0,0,0,111,111,161,1,1,response5disk_3,rectangle,,,,,,,,,,,,,,,,,,,
,,,,,,,,,,,,,,,,,,,,,,,,,,,,,,,,,,,,,,,,,,5e585dd09fb4700726f31d43,606a0f3cb3a4483d0c1948b0,2021-04-04_21h12.34.961,Colour_Similarity_Experiment,2020.2.10,Win32,60,60675255c767bca6388caeee,7.326804124,7.148148148,7.233085989,7.064162754,7.277318641,7.233085989,,,,,,,,,,,,,,,,,,,,PF,7,strong,,,,,,,,6,0.472,,,,,,,,,,,,,,,,,,,,,,,,,,,,2,strong,93,53,1,0,0,response1disk,4,113,-34,-1,1,0,0,rectangle,-34,-1,1,0,0,5,1,0.001,-34,-1,1,0,0,0,112,112,145,1,0,,,,,,,,,,,,,,,,,,,,,
,,,,,,,,,,,,,,,,,,,,,,,,,,,,,,,,,,,,,,,,,,5e585dd09fb4700726f31d43,606a0f3cb3a4483d0c1948b0,2021-04-04_21h12.34.961,Colour_Similarity_Experiment,2020.2.10,Win32,60,60675255c767bca6388caeee,7.326804124,7.148148148,7.233085989,7.064162754,7.277318641,7.233085989,,,,,,,,,,,,,,,,,,,,PF,7,weak,,,,,,,,6,0.306,,,,,,,,,,,,,,,,,,,,,,,,,,,,7,weak,96,56,1,0,0,response1disk,8,114,-3,5,1,0,0,rectangle,-3,5,1,0,0,5,6,0,-3,5,1,0,0,0,113,113,140,1,0,,,,,,,,,,,,,,,,,,,,,
,,,,,,,,,,,,,,,,,,,,,,,,,,,,,,,,,,,,,,,,,,5e585dd09fb4700726f31d43,606a0f3cb3a4483d0c1948b0,2021-04-04_21h12.34.961,Colour_Similarity_Experiment,2020.2.10,Win32,60,60675255c767bca6388caeee,7.326804124,7.148148148,7.233085989,7.064162754,7.277318641,7.233085989,,,,,,,,,,,,,,,,,,,,PF,7,weak,,,,,,,,6,0.376,,,,,,,,,,,,,,,,,,,,,,,,,,,,8,weak,110,57,1,0,0,response1disk,8,115,6,5,1,0,0,rectangle,6,5,1,0,0,5,7,0.001,6,5,1,0,0,0,114,114,153,1,0,,,,,,,,,,,,,,,,,,,,,
,,,,,,,,,,,,,,,,,,,,,,,,,,,,,,,,,,,,,,,,,,5e585dd09fb4700726f31d43,606a0f3cb3a4483d0c1948b0,2021-04-04_21h12.34.961,Colour_Similarity_Experiment,2020.2.10,Win32,60,60675255c767bca6388caeee,7.326804124,7.148148148,7.233085989,7.064162754,7.277318641,7.233085989,,,,,,,,,,,,,,,,,,,,PF,7,strong,,,,,,,,6,0.382,,,,,,,,,,,,,,,,,,,,,,,,,,,,2,strong,109,48,1,0,0,response1disk,9,116,0,-6,1,0,0,rectangle,0,-6,1,0,0,5,1,0.001,0,-6,1,0,0,0,115,115,72,1,0,,,,,,,,,,,,,,,,,,,,,
,,,,,,,,,,,,,,,,,,,,,,,,,,,,,,,,,,,,,,,,,,5e585dd09fb4700726f31d43,606a0f3cb3a4483d0c1948b0,2021-04-04_21h12.34.961,Colour_Similarity_Experiment,2020.2.10,Win32,60,60675255c767bca6388caeee,7.326804124,7.148148148,7.233085989,7.064162754,7.277318641,7.233085989,,,,,,,,,,,,,,,,,,,,PF,7,strong,,,,,,,,6,0.493,,,,,,,,,,,,,,,,,,,,,,,,,,,,3,strong,142,55,1,0,0,response1disk,8,117,-15,12,1,0,0,rectangle,-15,12,1,0,0,5,0,0.002,-15,12,1,0,0,0,116,116,44,1,0,,,,,,,,,,,,,,,,,,,,,
,,,,,,,,,,,,,,,,,,,,,,,,,,,,,,,,,,,,,,,,,,5e585dd09fb4700726f31d43,606a0f3cb3a4483d0c1948b0,2021-04-04_21h12.34.961,Colour_Similarity_Experiment,2020.2.10,Win32,60,60675255c767bca6388caeee,7.326804124,7.148148148,7.233085989,7.064162754,7.277318641,7.233085989,,,,,,,,,,,,,,,,,,,,PF,7,weak,,,,,,,,6,0.333,,,,,,,,,,,,,,,,,,,,,,,,,,,,4,weak,124,51,1,0,0,response1disk,7,118,15,14,1,0,0,rectangle,15,14,1,0,0,5,3,0,15,14,1,0,0,0,117,117,38,1,0,,,,,,,,,,,,,,,,,,,,,
,,,,,,,,,,,,,,,,,,,,,,,,,,,,,,,,,,,,,,,,,,5e585dd09fb4700726f31d43,606a0f3cb3a4483d0c1948b0,2021-04-04_21h12.34.961,Colour_Similarity_Experiment,2020.2.10,Win32,60,60675255c767bca6388caeee,7.326804124,7.148148148,7.233085989,7.064162754,7.277318641,7.233085989,,,,,,,,,,,,,,,,,,,,PF,7,strong,,,,,,,,6,0.361,,,,,,,,,,,,,,,,,,,,,,,,,,,,4,strong,113,49,1,0,0,response1disk,4,119,21,6,1,0,0,rectangle,21,6,1,0,0,5,6,0,21,6,1,0,0,0,118,118,84,1,0,,,,,,,,,,,,,,,,,,,,,
,,,,,,,,,,,,,,,,,,,,,,,,,,,,,,,,,,,,,,,,,,5e585dd09fb4700726f31d43,606a0f3cb3a4483d0c1948b0,2021-04-04_21h12.34.961,Colour_Similarity_Experiment,2020.2.10,Win32,60,60675255c767bca6388caeee,7.326804124,7.148148148,7.233085989,7.064162754,7.277318641,7.233085989,,,,,,,,,,,,,,,,,,,,PF,7,strong,,,,,,,,6,0.438,,,,,,,,,,,,,,,,,,,,,,,,,,,,8,strong,107,60,1,0,0,response1disk,8,120,14,0,1,0,0,rectangle,14,0,1,0,0,5,2,0.001,14,0,1,0,0,0,119,119,48,1,0,,,,,,,,,,,,,,,,,,,,,
,,,,,,,,,,,,,,,,,,,,,,,,,,,,,,,,,,,,,,,,,,5e585dd09fb4700726f31d43,606a0f3cb3a4483d0c1948b0,2021-04-04_21h12.34.961,Colour_Similarity_Experiment,2020.2.10,Win32,60,60675255c767bca6388caeee,7.326804124,7.148148148,7.233085989,7.064162754,7.277318641,7.233085989,,,,,,,,,,,,,,,,,,,,PF,7,strong,,,,,,,,6,0.423,,,,,,,,,,,,,,,,,,,,,,,,,,,,9,strong,109,53,1,0,0,response1disk,7,121,-3,7,1,0,0,rectangle,-3,7,1,0,0,5,2,0,-3,7,1,0,0,0,120,120,100,1,0,,,,,,,,,,,,,,,,,,,,,
,,,,,,,,,,,,,,,,,,,,,,,,,,,,,,,,,,,,,,,,,,5e585dd09fb4700726f31d43,606a0f3cb3a4483d0c1948b0,2021-04-04_21h12.34.961,Colour_Similarity_Experiment,2020.2.10,Win32,60,60675255c767bca6388caeee,7.326804124,7.148148148,7.233085989,7.064162754,7.277318641,7.233085989,,,,,,,,,,,,,,,,,,,,PF,7,weak,,,,,,,,6,0.36,,,,,,,,,,,,,,,,,,,,,,,,,,,,6,weak,127,39,1,0,0,response1disk,4,122,3,9,1,0,0,rectangle,3,9,1,0,0,5,1,0.001,3,9,1,0,0,0,121,121,33,1,0,,,,,,,,,,,,,,,,,,,,,
,,,,,,,,,,,,,,,,,,,,,,,,,,,,,,,,,,,,,,,,,,5e585dd09fb4700726f31d43,606a0f3cb3a4483d0c1948b0,2021-04-04_21h12.34.961,Colour_Similarity_Experiment,2020.2.10,Win32,60,60675255c767bca6388caeee,7.326804124,7.148148148,7.233085989,7.064162754,7.277318641,7.233085989,,,,,,,,,,,,,,,,,,,,PF,7,weak,,,,,,,,6,0.431,,,,,,,,,,,,,,,,,,,,,,,,,,,,7,weak,116,71,1,0,0,response1disk,2,123,10,5,1,0,0,rectangle,10,5,1,0,0,5,4,0,10,5,1,0,0,0,122,122,32,1,0,,,,,,,,,,,,,,,,,,,,,
,,,,,,,,,,,,,,,,,,,,,,,,,,,,,,,,,,,,,,,,,,5e585dd09fb4700726f31d43,606a0f3cb3a4483d0c1948b0,2021-04-04_21h12.34.961,Colour_Similarity_Experiment,2020.2.10,Win32,60,60675255c767bca6388caeee,7.326804124,7.148148148,7.233085989,7.064162754,7.277318641,7.233085989,,,,,,,,,,,,,,,,,,,,PF,7,strong,,,,,,,,6,0.368,,,,,,,,,,,,,,,,,,,,,,,,,,,,4,strong,114,46,1,0,0,response1disk,9,124,28,-3,1,0,0,rectangle,28,-3,1,0,0,5,4,0,28,-3,1,0,0,0,123,123,90,1,0,,,,,,,,,,,,,,,,,,,,,
,,,,,,,,,,,,,,,,,,,,,,,,,,,,,,,,,,,,,,,,,,5e585dd09fb4700726f31d43,606a0f3cb3a4483d0c1948b0,2021-04-04_21h12.34.961,Colour_Similarity_Experiment,2020.2.10,Win32,60,60675255c767bca6388caeee,7.326804124,7.148148148,7.233085989,7.064162754,7.277318641,7.233085989,,,,,,,,,,,,,,,,,,,,PF,7,strong,,,,,,,,5,0.319,,,,,,,,,,,,,,,,,,,,,,,,,,,,1,strong,91,-63,1,0,0,response3disk,9,125,-5,-1,1,0,0,rectangle,-5,-1,1,0,0,5,4,0.001,-5,-1,1,0,0,0,124,124,123,1,0,,,,,,,,,,,,,,,,,,,,,
,,,,,,,,,,,,,,,,,,,,,,,,,,,,,,,,,,,,,,,,,,5e585dd09fb4700726f31d43,606a0f3cb3a4483d0c1948b0,2021-04-04_21h12.34.961,Colour_Similarity_Experiment,2020.2.10,Win32,60,60675255c767bca6388caeee,7.326804124,7.148148148,7.233085989,7.064162754,7.277318641,7.233085989,,,,,,,,,,,,,,,,,,,,PF,7,strong,,,,,,,,5,0.353,,,,,,,,,,,,,,,,,,,,,,,,,,,,8,strong,127,-77,1,0,0,response3disk,5,126,-3,-8,1,0,0,rectangle,-3,-8,1,0,0,5,4,0,-3,-8,1,0,0,0,125,125,152,1,0,,,,,,,,,,,,,,,,,,,,,
,,,,,,,,,,,,,,,,,,,,,,,,,,,,,,,,,,,,,,,,,,5e585dd09fb4700726f31d43,606a0f3cb3a4483d0c1948b0,2021-04-04_21h12.34.961,Colour_Similarity_Experiment,2020.2.10,Win32,60,60675255c767bca6388caeee,7.326804124,7.148148148,7.233085989,7.064162754,7.277318641,7.233085989,,,,,,,,,,,,,,,,,,,,PF,7,strong,,,,,,,,5,0.347,,,,,,,,,,,,,,,,,,,,,,,,,,,,7,strong,127,-63,1,0,0,response3disk,6,127,-13,7,1,0,0,rectangle,-13,7,1,0,0,5,0,0.001,-13,7,1,0,0,0,126,126,31,1,0,,,,,,,,,,,,,,,,,,,,,
,,,,,,,,,,,,,,,,,,,,,,,,,,,,,,,,,,,,,,,,,,5e585dd09fb4700726f31d43,606a0f3cb3a4483d0c1948b0,2021-04-04_21h12.34.961,Colour_Similarity_Experiment,2020.2.10,Win32,60,60675255c767bca6388caeee,7.326804124,7.148148148,7.233085989,7.064162754,7.277318641,7.233085989,,,,,,,,,,,,,,,,,,,,PF,7,weak,,,,,,,,5,0.265,,,,,,,,,,,,,,,,,,,,,,,,,,,,3,weak,105,-59,1,0,0,response3disk,7,128,0,2,1,0,0,rectangle,0,2,1,0,0,5,3,0.001,0,2,1,0,0,0,127,127,41,1,0,,,,,,,,,,,,,,,,,,,,,
,,,,,,,,,,,,,,,,,,,,,,,,,,,,,,,,,,,,,,,,,,5e585dd09fb4700726f31d43,606a0f3cb3a4483d0c1948b0,2021-04-04_21h12.34.961,Colour_Similarity_Experiment,2020.2.10,Win32,60,60675255c767bca6388caeee,7.326804124,7.148148148,7.233085989,7.064162754,7.277318641,7.233085989,,,,,,,,,,,,,,,,,,,,PF,7,strong,,,,,,,,5,0.522,,,,,,,,,,,,,,,,,,,,,,,,,,,,6,strong,104,-62,1,0,0,response3disk,6,129,-4,0,1,0,0,rectangle,-4,0,1,0,0,5,7,0,-4,0,1,0,0,0,128,128,91,1,0,,,,,,,,,,,,,,,,,,,,,
,,,,,,,,,,,,,,,,,,,,,,,,,,,,,,,,,,,,,,,,,,5e585dd09fb4700726f31d43,606a0f3cb3a4483d0c1948b0,2021-04-04_21h12.34.961,Colour_Similarity_Experiment,2020.2.10,Win32,60,60675255c767bca6388caeee,7.326804124,7.148148148,7.233085989,7.064162754,7.277318641,7.233085989,,,,,,,,,,,,,,,,,,,,PF,7,weak,,,,,,,,5,0.326,,,,,,,,,,,,,,,,,,,,,,,,,,,,9,weak,112,-69,1,0,0,response3disk,3,130,10,-3,1,0,0,rectangle,10,-3,1,0,0,5,2,0,10,-3,1,0,0,0,129,129,119,1,0,,,,,,,,,,,,,,,,,,,,,
,,,,,,,,,,,,,,,,,,,,,,,,,,,,,,,,,,,,,,,,,,5e585dd09fb4700726f31d43,606a0f3cb3a4483d0c1948b0,2021-04-04_21h12.34.961,Colour_Similarity_Experiment,2020.2.10,Win32,60,60675255c767bca6388caeee,7.326804124,7.148148148,7.233085989,7.064162754,7.277318641,7.233085989,,,,,,,,,,,,,,,,,,,,PF,7,strong,,,,,,,,5,0.264,,,,,,,,,,,,,,,,,,,,,,,,,,,,6,strong,100,-62,1,0,0,response3disk,8,131,20,-3,1,0,0,rectangle,20,-3,1,0,0,5,4,0.001,20,-3,1,0,0,0,130,130,133,1,0,,,,,,,,,,,,,,,,,,,,,
,,,,,,,,,,,,,,,,,,,,,,,,,,,,,,,,,,,,,,,,,,5e585dd09fb4700726f31d43,606a0f3cb3a4483d0c1948b0,2021-04-04_21h12.34.961,Colour_Similarity_Experiment,2020.2.10,Win32,60,60675255c767bca6388caeee,7.326804124,7.148148148,7.233085989,7.064162754,7.277318641,7.233085989,,,,,,,,,,,,,,,,,,,,PF,7,strong,,,,,,,,5,0.458,,,,,,,,,,,,,,,,,,,,,,,,,,,,7,strong,92,-54,1,0,0,response3disk,8,132,2,-1,1,0,0,rectangle,112,-59,1,0,0,5,7,0.916,-16,3,1,0,0,0,131,131,97,1,1,response3disk_3,rectangle,,,,,,,,,,,,,,,,,,,
,,,,,,,,,,,,,,,,,,,,,,,,,,,,,,,,,,,,,,,,,,5e585dd09fb4700726f31d43,606a0f3cb3a4483d0c1948b0,2021-04-04_21h12.34.961,Colour_Similarity_Experiment,2020.2.10,Win32,60,60675255c767bca6388caeee,7.326804124,7.148148148,7.233085989,7.064162754,7.277318641,7.233085989,,,,,,,,,,,,,,,,,,,,PF,7,weak,,,,,,,,6,4.41,,,,,,,,,,,,,,,,,,,,,,,,,,,,6,weak,128,66,1,0,0,response1disk,8,133,-5,-12,1,0,0,rectangle,-5,-12,1,0,0,5,6,0.001,-5,-12,1,0,0,0,132,132,64,1,0,,,,,,,,,,,,,,,,,,,,,
,,,,,,,,,,,,,,,,,,,,,,,,,,,,,,,,,,,,,,,,,,5e585dd09fb4700726f31d43,606a0f3cb3a4483d0c1948b0,2021-04-04_21h12.34.961,Colour_Similarity_Experiment,2020.2.10,Win32,60,60675255c767bca6388caeee,7.326804124,7.148148148,7.233085989,7.064162754,7.277318641,7.233085989,,,,,,,,,,,,,,,,,,,,PF,7,strong,,,,,,,,6,0.625,,,,,,,,,,,,,,,,,,,,,,,,,,,,5,strong,90,43,1,0,0,response1disk,6,134,-5,-14,1,0,0,rectangle,-5,-14,1,0,0,5,0,0.001,-5,-14,1,0,0,0,133,133,12,1,0,,,,,,,,,,,,,,,,,,,,,
,,,,,,,,,,,,,,,,,,,,,,,,,,,,,,,,,,,,,,,,,,5e585dd09fb4700726f31d43,606a0f3cb3a4483d0c1948b0,2021-04-04_21h12.34.961,Colour_Similarity_Experiment,2020.2.10,Win32,60,60675255c767bca6388caeee,7.326804124,7.148148148,7.233085989,7.064162754,7.277318641,7.233085989,,,,,,,,,,,,,,,,,,,,PF,7,strong,,,,,,,,6,0.258,,,,,,,,,,,,,,,,,,,,,,,,,,,,5,strong,88,52,1,0,0,response1disk,7,135,-2,-4,1,0,0,rectangle,-2,-4,1,0,0,5,7,0.001,-2,-4,1,0,0,0,134,134,7,1,0,,,,,,,,,,,,,,,,,,,,,
,,,,,,,,,,,,,,,,,,,,,,,,,,,,,,,,,,,,,,,,,,5e585dd09fb4700726f31d43,606a0f3cb3a4483d0c1948b0,2021-04-04_21h12.34.961,Colour_Similarity_Experiment,2020.2.10,Win32,60,60675255c767bca6388caeee,7.326804124,7.148148148,7.233085989,7.064162754,7.277318641,7.233085989,,,,,,,,,,,,,,,,,,,,PF,7,strong,,,,,,,,6,0.251,,,,,,,,,,,,,,,,,,,,,,,,,,,,9,strong,85,62,1,0,0,response1disk,6,136,3,11,1,0,0,rectangle,3,11,1,0,0,5,7,0,3,11,1,0,0,0,135,135,117,1,0,,,,,,,,,,,,,,,,,,,,,
,,,,,,,,,,,,,,,,,,,,,,,,,,,,,,,,,,,,,,,,,,5e585dd09fb4700726f31d43,606a0f3cb3a4483d0c1948b0,2021-04-04_21h12.34.961,Colour_Similarity_Experiment,2020.2.10,Win32,60,60675255c767bca6388caeee,7.326804124,7.148148148,7.233085989,7.064162754,7.277318641,7.233085989,,,,,,,,,,,,,,,,,,,,PF,7,weak,,,,,,,,4,0.986,,,,,,,,,,,,,,,,,,,,,,,,,,,,2,weak,98,-99,1,0,0,response3disk,8,137,-8,-5,1,0,0,rectangle,-8,-5,1,0,0,5,7,0,-8,-5,1,0,0,0,136,136,52,1,0,,,,,,,,,,,,,,,,,,,,,
,,,,,,,,,,,,,,,,,,,,,,,,,,,,,,,,,,,,,,,,,,5e585dd09fb4700726f31d43,606a0f3cb3a4483d0c1948b0,2021-04-04_21h12.34.961,Colour_Similarity_Experiment,2020.2.10,Win32,60,60675255c767bca6388caeee,7.326804124,7.148148148,7.233085989,7.064162754,7.277318641,7.233085989,,,,,,,,,,,,,,,,,,,,PF,7,strong,,,,,,,,5,0.382,,,,,,,,,,,,,,,,,,,,,,,,,,,,5,strong,94,-75,1,0,0,response3disk,1,138,-2,-2,1,0,0,rectangle,-2,-2,1,0,0,5,2,0.001,-2,-2,1,0,0,0,137,137,131,1,0,,,,,,,,,,,,,,,,,,,,,
,,,,,,,,,,,,,,,,,,,,,,,,,,,,,,,,,,,,,,,,,,5e585dd09fb4700726f31d43,606a0f3cb3a4483d0c1948b0,2021-04-04_21h12.34.961,Colour_Similarity_Experiment,2020.2.10,Win32,60,60675255c767bca6388caeee,7.326804124,7.148148148,7.233085989,7.064162754,7.277318641,7.233085989,,,,,,,,,,,,,,,,,,,,PF,7,weak,,,,,,,,7,0.278,,,,,,,,,,,,,,,,,,,,,,,,,,,,8,weak,51,95,1,0,0,response1disk,5,139,-18,-19,1,0,0,rectangle,-18,-19,1,0,0,5,6,0.001,-18,-19,1,0,0,0,138,138,98,1,0,,,,,,,,,,,,,,,,,,,,,
,,,,,,,,,,,,,,,,,,,,,,,,,,,,,,,,,,,,,,,,,,5e585dd09fb4700726f31d43,606a0f3cb3a4483d0c1948b0,2021-04-04_21h12.34.961,Colour_Similarity_Experiment,2020.2.10,Win32,60,60675255c767bca6388caeee,7.326804124,7.148148148,7.233085989,7.064162754,7.277318641,7.233085989,,,,,,,,,,,,,,,,,,,,PF,7,weak,,,,,,,,7,0.464,,,,,,,,,,,,,,,,,,,,,,,,,,,,8,weak,57,103,1,0,0,response1disk,4,140,20,12,1,0,0,rectangle,20,12,1,0,0,5,3,0,20,12,1,0,0,0,139,139,78,1,0,,,,,,,,,,,,,,,,,,,,,
,,,,,,,,,,,,,,,,,,,,,,,,,,,,,,,,,,,,,,,,,,5e585dd09fb4700726f31d43,606a0f3cb3a4483d0c1948b0,2021-04-04_21h12.34.961,Colour_Similarity_Experiment,2020.2.10,Win32,60,60675255c767bca6388caeee,7.326804124,7.148148148,7.233085989,7.064162754,7.277318641,7.233085989,,,,,,,,,,,,,,,,,,,,PF,7,weak,,,,,,,,7,0.556,,,,,,,,,,,,,,,,,,,,,,,,,,,,5,weak,48,92,1,0,0,response1disk,6,141,-12,6,1,0,0,rectangle,-12,6,1,0,0,5,5,0.001,-12,6,1,0,0,0,140,140,103,1,0,,,,,,,,,,,,,,,,,,,,,
,,,,,,,,,,,,,,,,,,,,,,,,,,,,,,,,,,,,,,,,,,5e585dd09fb4700726f31d43,606a0f3cb3a4483d0c1948b0,2021-04-04_21h12.34.961,Colour_Similarity_Experiment,2020.2.10,Win32,60,60675255c767bca6388caeee,7.326804124,7.148148148,7.233085989,7.064162754,7.277318641,7.233085989,,,,,,,,,,,,,,,,,,,,PF,7,strong,,,,,,,,7,0.395,,,,,,,,,,,,,,,,,,,,,,,,,,,,2,strong,29,86,1,0,0,response1disk,1,142,24,9,1,0,0,rectangle,24,9,1,0,0,5,2,0.001,24,9,1,0,0,0,141,141,85,1,0,,,,,,,,,,,,,,,,,,,,,
,,,,,,,,,,,,,,,,,,,,,,,,,,,,,,,,,,,,,,,,,,5e585dd09fb4700726f31d43,606a0f3cb3a4483d0c1948b0,2021-04-04_21h12.34.961,Colour_Similarity_Experiment,2020.2.10,Win32,60,60675255c767bca6388caeee,7.326804124,7.148148148,7.233085989,7.064162754,7.277318641,7.233085989,,,,,,,,,,,,,,,,,,,,PF,7,strong,,,,,,,,7,0.313,,,,,,,,,,,,,,,,,,,,,,,,,,,,5,strong,89,110,1,0,0,response1disk,3,143,-22,16,1,0,0,rectangle,-22,16,1,0,0,5,2,0.001,-22,16,1,0,0,0,142,142,25,1,0,,,,,,,,,,,,,,,,,,,,,
,,,,,,,,,,,,,,,,,,,,,,,,,,,,,,,,,,,,,,,,,,5e585dd09fb4700726f31d43,606a0f3cb3a4483d0c1948b0,2021-04-04_21h12.34.961,Colour_Similarity_Experiment,2020.2.10,Win32,60,60675255c767bca6388caeee,7.326804124,7.148148148,7.233085989,7.064162754,7.277318641,7.233085989,,,,,,,,,,,,,,,,,,,,PF,7,weak,,,,,,,,7,0.409,,,,,,,,,,,,,,,,,,,,,,,,,,,,2,weak,55,101,1,0,0,response1disk,5,144,-8,5,1,0,0,rectangle,-8,5,1,0,0,5,7,0.001,-8,5,1,0,0,0,143,143,147,1,0,,,,,,,,,,,,,,,,,,,,,
,,,,,,,,,,,,,,,,,,,,,,,,,,,,,,,,,,,,,,,,,,5e585dd09fb4700726f31d43,606a0f3cb3a4483d0c1948b0,2021-04-04_21h12.34.961,Colour_Similarity_Experiment,2020.2.10,Win32,60,60675255c767bca6388caeee,7.326804124,7.148148148,7.233085989,7.064162754,7.277318641,7.233085989,,,,,,,,,,,,,,,,,,,,PF,7,weak,,,,,,,,6,0.43,,,,,,,,,,,,,,,,,,,,,,,,,,,,1,weak,116,47,1,0,0,response1disk,9,145,3,4,1,0,0,rectangle,3,4,1,0,0,5,3,0,3,4,1,0,0,0,144,144,15,1,0,,,,,,,,,,,,,,,,,,,,,
,,,,,,,,,,,,,,,,,,,,,,,,,,,,,,,,,,,,,,,,,,5e585dd09fb4700726f31d43,606a0f3cb3a4483d0c1948b0,2021-04-04_21h12.34.961,Colour_Similarity_Experiment,2020.2.10,Win32,60,60675255c767bca6388caeee,7.326804124,7.148148148,7.233085989,7.064162754,7.277318641,7.233085989,,,,,,,,,,,,,,,,,,,,PF,7,weak,,,,,,,,6,0.39,,,,,,,,,,,,,,,,,,,,,,,,,,,,1,weak,124,54,1,0,0,response1disk,2,146,18,0,1,0,0,rectangle,18,0,1,0,0,5,5,0.001,18,0,1,0,0,0,145,145,24,1,0,,,,,,,,,,,,,,,,,,,,,
,,,,,,,,,,,,,,,,,,,,,,,,,,,,,,,,,,,,,,,,,,5e585dd09fb4700726f31d43,606a0f3cb3a4483d0c1948b0,2021-04-04_21h12.34.961,Colour_Similarity_Experiment,2020.2.10,Win32,60,60675255c767bca6388caeee,7.326804124,7.148148148,7.233085989,7.064162754,7.277318641,7.233085989,,,,,,,,,,,,,,,,,,,,PF,7,strong,,,,,,,,6,0.344,,,,,,,,,,,,,,,,,,,,,,,,,,,,9,strong,112,43,1,0,0,response1disk,2,147,12,5,1,0,0,rectangle,106,39,1,0,0,6,6,1.416,22,-4,1,0,0,0,146,146,11,1,1,response1disk_3,rectangle,,,,,,,,,,,,,,,,,,,
,,,,,,,,,,,,,,,,,,,,,,,,,,,,,,,,,,,,,,,,,,5e585dd09fb4700726f31d43,606a0f3cb3a4483d0c1948b0,2021-04-04_21h12.34.961,Colour_Similarity_Experiment,2020.2.10,Win32,60,60675255c767bca6388caeee,7.326804124,7.148148148,7.233085989,7.064162754,7.277318641,7.233085989,,,,,,,,,,,,,,,,,,,,PF,7,strong,,,,,,,,6,0.388,,,,,,,,,,,,,,,,,,,,,,,,,,,,2,strong,125,56,1,0,0,response1disk,6,148,32,3,1,0,0,rectangle,32,3,1,0,0,6,4,0,32,3,1,0,0,0,147,147,40,1,0,,,,,,,,,,,,,,,,,,,,,
,,,,,,,,,,,,,,,,,,,,,,,,,,,,,,,,,,,,,,,,,,5e585dd09fb4700726f31d43,606a0f3cb3a4483d0c1948b0,2021-04-04_21h12.34.961,Colour_Similarity_Experiment,2020.2.10,Win32,60,60675255c767bca6388caeee,7.326804124,7.148148148,7.233085989,7.064162754,7.277318641,7.233085989,,,,,,,,,,,,,,,,,,,,PF,7,weak,,,,,,,,6,0.326,,,,,,,,,,,,,,,,,,,,,,,,,,,,3,weak,127,66,1,0,0,response1disk,5,149,10,13,1,0,0,rectangle,10,13,1,0,0,6,5,0,10,13,1,0,0,0,148,148,66,1,0,,,,,,,,,,,,,,,,,,,,,
,,,,,,,,,,,,,,,,,,,,,,,,,,,,,,,,,,,,,,,,,,5e585dd09fb4700726f31d43,606a0f3cb3a4483d0c1948b0,2021-04-04_21h12.34.961,Colour_Similarity_Experiment,2020.2.10,Win32,60,60675255c767bca6388caeee,7.326804124,7.148148148,7.233085989,7.064162754,7.277318641,7.233085989,,,,,,,,,,,,,,,,,,,,PF,7,weak,,,,,,,,6,0.187,,,,,,,,,,,,,,,,,,,,,,,,,,,,5,weak,96,48,1,0,0,response1disk,7,150,15,9,1,0,0,rectangle,15,9,1,0,0,6,4,0.001,15,9,1,0,0,0,149,149,146,1,0,,,,,,,,,,,,,,,,,,,,,
,,,,,,,,,,,,,,,,,,,,,,,,,,,,,,,,,,,,,,,,,,5e585dd09fb4700726f31d43,606a0f3cb3a4483d0c1948b0,2021-04-04_21h12.34.961,Colour_Similarity_Experiment,2020.2.10,Win32,60,60675255c767bca6388caeee,7.326804124,7.148148148,7.233085989,7.064162754,7.277318641,7.233085989,,,,,,,,,,,,,,,,,,,,PF,7,strong,,,,,,,,5,0.304,,,,,,,,,,,,,,,,,,,,,,,,,,,,8,strong,78,-62,1,0,0,response3disk,6,151,27,-6,1,0,0,rectangle,27,-6,1,0,0,6,0,0,27,-6,1,0,0,0,150,150,37,1,0,,,,,,,,,,,,,,,,,,,,,
,,,,,,,,,,,,,,,,,,,,,,,,,,,,,,,,,,,,,,,,,,5e585dd09fb4700726f31d43,606a0f3cb3a4483d0c1948b0,2021-04-04_21h12.34.961,Colour_Similarity_Experiment,2020.2.10,Win32,60,60675255c767bca6388caeee,7.326804124,7.148148148,7.233085989,7.064162754,7.277318641,7.233085989,,,,,,,,,,,,,,,,,,,,PF,7,weak,,,,,,,,5,0.916,,,,,,,,,,,,,,,,,,,,,,,,,,,,9,weak,103,-72,1,0,0,response3disk,4,152,-9,-6,1,0,0,rectangle,-9,-6,1,0,0,6,6,0,-9,-6,1,0,0,0,151,151,114,1,0,,,,,,,,,,,,,,,,,,,,,
,,,,,,,,,,,,,,,,,,,,,,,,,,,,,,,,,,,,,,,,,,5e585dd09fb4700726f31d43,606a0f3cb3a4483d0c1948b0,2021-04-04_21h12.34.961,Colour_Similarity_Experiment,2020.2.10,Win32,60,60675255c767bca6388caeee,7.326804124,7.148148148,7.233085989,7.064162754,7.277318641,7.233085989,,,,,,,,,,,,,,,,,,,,PF,7,weak,,,,,,,,3,1.521,,,,,,,,,,,,,,,,,,,,,,,,,,,,6,weak,-52,-111,1,0,0,response5disk,5,153,23,11,1,0,0,rectangle,23,11,1,0,0,6,5,0,23,11,1,0,0,0,152,152,59,1,0,,,,,,,,,,,,,,,,,,,,,
,,,,,,,,,,,,,,,,,,,,,,,,,,,,,,,,,,,,,,,,,,5e585dd09fb4700726f31d43,606a0f3cb3a4483d0c1948b0,2021-04-04_21h12.34.961,Colour_Similarity_Experiment,2020.2.10,Win32,60,60675255c767bca6388caeee,7.326804124,7.148148148,7.233085989,7.064162754,7.277318641,7.233085989,,,,,,,,,,,,,,,,,,,,PF,7,weak,,,,,,,,7,0.945,,,,,,,,,,,,,,,,,,,,,,,,,,,,4,weak,70,118,1,0,0,response1disk,6,154,15,7,1,0,0,rectangle,15,7,1,0,0,6,0,0.001,15,7,1,0,0,0,153,153,120,1,0,,,,,,,,,,,,,,,,,,,,,
,,,,,,,,,,,,,,,,,,,,,,,,,,,,,,,,,,,,,,,,,,5e585dd09fb4700726f31d43,606a0f3cb3a4483d0c1948b0,2021-04-04_21h12.34.961,Colour_Similarity_Experiment,2020.2.10,Win32,60,60675255c767bca6388caeee,7.326804124,7.148148148,7.233085989,7.064162754,7.277318641,7.233085989,,,,,,,,,,,,,,,,,,,,PF,7,strong,,,,,,,,7,0.923,,,,,,,,,,,,,,,,,,,,,,,,,,,,3,strong,54,134,1,0,0,response1disk,6,155,-4,14,1,0,0,rectangle,-4,14,1,0,0,6,7,0,-4,14,1,0,0,0,154,154,95,1,0,,,,,,,,,,,,,,,,,,,,,
,,,,,,,,,,,,,,,,,,,,,,,,,,,,,,,,,,,,,,,,,,5e585dd09fb4700726f31d43,606a0f3cb3a4483d0c1948b0,2021-04-04_21h12.34.961,Colour_Similarity_Experiment,2020.2.10,Win32,60,60675255c767bca6388caeee,7.326804124,7.148148148,7.233085989,7.064162754,7.277318641,7.233085989,,,,,,,,,,,,,,,,,,,,PF,7,strong,,,,,,,,7,0.376,,,,,,,,,,,,,,,,,,,,,,,,,,,,5,strong,45,106,1,0,0,response1disk,5,156,7,15,1,0,0,rectangle,7,15,1,0,0,6,2,0,7,15,1,0,0,0,155,155,19,1,0,,,,,,,,,,,,,,,,,,,,,
,,,,,,,,,,,,,,,,,,,,,,,,,,,,,,,,,,,,,,,,,,5e585dd09fb4700726f31d43,606a0f3cb3a4483d0c1948b0,2021-04-04_21h12.34.961,Colour_Similarity_Experiment,2020.2.10,Win32,60,60675255c767bca6388caeee,7.326804124,7.148148148,7.233085989,7.064162754,7.277318641,7.233085989,,,,,,,,,,,,,,,,,,,,PF,7,weak,,,,,,,,7,0.813,,,,,,,,,,,,,,,,,,,,,,,,,,,,6,weak,56,109,1,0,0,response1disk,2,157,10,-14,1,0,0,rectangle,10,-14,1,0,0,6,3,0.001,10,-14,1,0,0,0,156,156,130,1,0,,,,,,,,,,,,,,,,,,,,,
,,,,,,,,,,,,,,,,,,,,,,,,,,,,,,,,,,,,,,,,,,5e585dd09fb4700726f31d43,606a0f3cb3a4483d0c1948b0,2021-04-04_21h12.34.961,Colour_Similarity_Experiment,2020.2.10,Win32,60,60675255c767bca6388caeee,7.326804124,7.148148148,7.233085989,7.064162754,7.277318641,7.233085989,,,,,,,,,,,,,,,,,,,,PF,7,strong,,,,,,,,7,1.117,,,,,,,,,,,,,,,,,,,,,,,,,,,,6,strong,33,112,1,0,0,response1disk,1,158,0,-3,1,0,0,rectangle,0,-3,1,0,0,6,4,0.001,0,-3,1,0,0,0,157,157,5,1,0,,,,,,,,,,,,,,,,,,,,,
,,,,,,,,,,,,,,,,,,,,,,,,,,,,,,,,,,,,,,,,,,5e585dd09fb4700726f31d43,606a0f3cb3a4483d0c1948b0,2021-04-04_21h12.34.961,Colour_Similarity_Experiment,2020.2.10,Win32,60,60675255c767bca6388caeee,7.326804124,7.148148148,7.233085989,7.064162754,7.277318641,7.233085989,,,,,,,,,,,,,,,,,,,,PF,7,strong,,,,,,,,7,0.424,,,,,,,,,,,,,,,,,,,,,,,,,,,,1,strong,37,122,1,0,0,response1disk,1,159,-2,-14,1,0,0,rectangle,-2,-14,1,0,0,6,5,0,-2,-14,1,0,0,0,158,158,151,1,0,,,,,,,,,,,,,,,,,,,,,
,,,,,,,,,,,,,,,,,,,,,,,,,,,,,,,,,,,,,,,,,,5e585dd09fb4700726f31d43,606a0f3cb3a4483d0c1948b0,2021-04-04_21h12.34.961,Colour_Similarity_Experiment,2020.2.10,Win32,60,60675255c767bca6388caeee,7.326804124,7.148148148,7.233085989,7.064162754,7.277318641,7.233085989,,,,,,,,,,,,,,,,,,,,PF,7,strong,,,,,,,,7,0.389,,,,,,,,,,,,,,,,,,,,,,,,,,,,1,strong,53,120,1,0,0,response1disk,3,160,2,6,1,0,0,rectangle,2,6,1,0,0,6,4,0.002,2,6,1,0,0,0,159,159,99,1,0,,,,,,,,,,,,,,,,,,,,,
,,,,,,,,,,,,,,,,,,,,,,,,,,,,,,,,,,,,,,,,,,5e585dd09fb4700726f31d43,606a0f3cb3a4483d0c1948b0,2021-04-04_21h12.34.961,Colour_Similarity_Experiment,2020.2.10,Win32,60,60675255c767bca6388caeee,7.326804124,7.148148148,7.233085989,7.064162754,7.277318641,7.233085989,,,,,,,,,,,,,,,,,,,,PF,7,strong,,,,,,,,7,0.27,,,,,,,,,,,,,,,,,,,,,,,,,,,,1,strong,38,119,1,0,0,response1disk,6,161,-6,20,1,0,0,rectangle,-6,20,1,0,0,6,5,0,-6,20,1,0,0,0,160,160,58,1,0,,,,,,,,,,,,,,,,,,,,,
,,,,,,,,,,,,,,,,,,,,,,,,,,,,,,,,,,,,,,,,,,5e585dd09fb4700726f31d43,606a0f3cb3a4483d0c1948b0,2021-04-04_21h12.34.961,Colour_Similarity_Experiment,2020.2.10,Win32,60,60675255c767bca6388caeee,7.326804124,7.148148148,7.233085989,7.064162754,7.277318641,7.233085989,,,,,,,,,,,,,,,,,,,,PF,7,weak,,,,,,,,7,0.305,,,,,,,,,,,,,,,,,,,,,,,,,,,,3,weak,57,102,1,0,0,response1disk,3,162,-2,12,1,0,0,rectangle,-2,12,1,0,0,6,6,0,-2,12,1,0,0,0,161,161,4,1,0,,,,,,,,,,,,,,,,,,,,,
,,,,,,,,,,,,,,,,,,,,,,,,,,,,,,,,,,,,,,,,,,5e585dd09fb4700726f31d43,606a0f3cb3a4483d0c1948b0,2021-04-04_21h12.34.961,Colour_Similarity_Experiment,2020.2.10,Win32,60,60675255c767bca6388caeee,7.326804124,7.148148148,7.233085989,7.064162754,7.277318641,7.233085989,,,,,,,,,,,,,,,,,,,,,,,,,,,,,,,,,,,,,,,,,,,,,,,,,,,,,,,,,,,,,,,,,,,,,,,,,,,,,,,,,,,,,,,,,,,,,,,,0,0,0,0,1,,,,,,,,,,,,,,
,,,,,,,,,,,,,,,,,,,,,,,,,,,,,,,,,,,,,,,,,,5e585dd09fb4700726f31d43,606a0f3cb3a4483d0c1948b0,2021-04-04_21h12.34.961,Colour_Similarity_Experiment,2020.2.10,Win32,60,60675255c767bca6388caeee,7.326804124,7.148148148,7.233085989,7.064162754,7.277318641,7.233085989,,,,,,,,,,,,,,,,,,,,PF,7,weak,,,,,,,,7,0.368,,,,,,,,,,,,,,,,,,,,,,,,,,,,2,weak,34,105,1,0,0,response1disk,3,163,-6,18,1,0,0,rectangle,-6,18,1,0,0,6,5,0.001,-6,18,1,0,0,0,0,0,69,1,0,,,,,,,,,,,,,,,,,,,,,
,,,,,,,,,,,,,,,,,,,,,,,,,,,,,,,,,,,,,,,,,,5e585dd09fb4700726f31d43,606a0f3cb3a4483d0c1948b0,2021-04-04_21h12.34.961,Colour_Similarity_Experiment,2020.2.10,Win32,60,60675255c767bca6388caeee,7.326804124,7.148148148,7.233085989,7.064162754,7.277318641,7.233085989,,,,,,,,,,,,,,,,,,,,PF,7,strong,,,,,,,,7,0.59,,,,,,,,,,,,,,,,,,,,,,,,,,,,3,strong,56,94,1,0,0,response1disk,4,164,-22,10,1,0,0,rectangle,-22,10,1,0,0,6,5,0,-22,10,1,0,0,0,1,1,110,1,0,,,,,,,,,,,,,,,,,,,,,
,,,,,,,,,,,,,,,,,,,,,,,,,,,,,,,,,,,,,,,,,,5e585dd09fb4700726f31d43,606a0f3cb3a4483d0c1948b0,2021-04-04_21h12.34.961,Colour_Similarity_Experiment,2020.2.10,Win32,60,60675255c767bca6388caeee,7.326804124,7.148148148,7.233085989,7.064162754,7.277318641,7.233085989,,,,,,,,,,,,,,,,,,,,PF,7,weak,,,,,,,,7,0.466,,,,,,,,,,,,,,,,,,,,,,,,,,,,2,weak,51,95,1,0,0,response1disk,6,165,-5,-7,1,0,0,rectangle,-5,-7,1,0,0,6,1,0.001,-5,-7,1,0,0,0,2,2,113,1,0,,,,,,,,,,,,,,,,,,,,,
,,,,,,,,,,,,,,,,,,,,,,,,,,,,,,,,,,,,,,,,,,5e585dd09fb4700726f31d43,606a0f3cb3a4483d0c1948b0,2021-04-04_21h12.34.961,Colour_Similarity_Experiment,2020.2.10,Win32,60,60675255c767bca6388caeee,7.326804124,7.148148148,7.233085989,7.064162754,7.277318641,7.233085989,,,,,,,,,,,,,,,,,,,,PF,7,strong,,,,,,,,7,0.456,,,,,,,,,,,,,,,,,,,,,,,,,,,,3,strong,45,120,1,0,0,response1disk,9,166,-7,8,1,0,0,rectangle,-7,8,1,0,0,6,2,0.001,-7,8,1,0,0,0,3,3,143,1,0,,,,,,,,,,,,,,,,,,,,,
,,,,,,,,,,,,,,,,,,,,,,,,,,,,,,,,,,,,,,,,,,5e585dd09fb4700726f31d43,606a0f3cb3a4483d0c1948b0,2021-04-04_21h12.34.961,Colour_Similarity_Experiment,2020.2.10,Win32,60,60675255c767bca6388caeee,7.326804124,7.148148148,7.233085989,7.064162754,7.277318641,7.233085989,,,,,,,,,,,,,,,,,,,,PF,7,weak,,,,,,,,7,0.431,,,,,,,,,,,,,,,,,,,,,,,,,,,,4,weak,62,117,1,0,0,response1disk,1,167,-8,5,1,0,0,rectangle,-8,5,1,0,0,6,5,0,-8,5,1,0,0,0,4,4,115,1,0,,,,,,,,,,,,,,,,,,,,,
,,,,,,,,,,,,,,,,,,,,,,,,,,,,,,,,,,,,,,,,,,5e585dd09fb4700726f31d43,606a0f3cb3a4483d0c1948b0,2021-04-04_21h12.34.961,Colour_Similarity_Experiment,2020.2.10,Win32,60,60675255c767bca6388caeee,7.326804124,7.148148148,7.233085989,7.064162754,7.277318641,7.233085989,,,,,,,,,,,,,,,,,,,,PF,7,weak,,,,,,,,7,0.347,,,,,,,,,,,,,,,,,,,,,,,,,,,,2,weak,45,122,1,0,0,response1disk,4,168,-21,3,1,0,0,rectangle,-21,3,1,0,0,6,3,0,-21,3,1,0,0,0,5,5,127,1,0,,,,,,,,,,,,,,,,,,,,,
,,,,,,,,,,,,,,,,,,,,,,,,,,,,,,,,,,,,,,,,,,5e585dd09fb4700726f31d43,606a0f3cb3a4483d0c1948b0,2021-04-04_21h12.34.961,Colour_Similarity_Experiment,2020.2.10,Win32,60,60675255c767bca6388caeee,7.326804124,7.148148148,7.233085989,7.064162754,7.277318641,7.233085989,,,,,,,,,,,,,,,,,,,,PF,7,strong,,,,,,,,7,0.361,,,,,,,,,,,,,,,,,,,,,,,,,,,,9,strong,39,106,1,0,0,response1disk,8,169,9,10,1,0,0,rectangle,9,10,1,0,0,6,1,0,9,10,1,0,0,0,6,6,6,1,0,,,,,,,,,,,,,,,,,,,,,
,,,,,,,,,,,,,,,,,,,,,,,,,,,,,,,,,,,,,,,,,,5e585dd09fb4700726f31d43,606a0f3cb3a4483d0c1948b0,2021-04-04_21h12.34.961,Colour_Similarity_Experiment,2020.2.10,Win32,60,60675255c767bca6388caeee,7.326804124,7.148148148,7.233085989,7.064162754,7.277318641,7.233085989,,,,,,,,,,,,,,,,,,,,PF,7,strong,,,,,,,,7,0.568,,,,,,,,,,,,,,,,,,,,,,,,,,,,3,strong,36,128,1,0,0,response1disk,5,170,2,20,1,0,0,rectangle,2,20,1,0,0,6,2,0.001,2,20,1,0,0,0,7,7,101,1,0,,,,,,,,,,,,,,,,,,,,,
,,,,,,,,,,,,,,,,,,,,,,,,,,,,,,,,,,,,,,,,,,5e585dd09fb4700726f31d43,606a0f3cb3a4483d0c1948b0,2021-04-04_21h12.34.961,Colour_Similarity_Experiment,2020.2.10,Win32,60,60675255c767bca6388caeee,7.326804124,7.148148148,7.233085989,7.064162754,7.277318641,7.233085989,,,,,,,,,,,,,,,,,,,,PF,7,strong,,,,,,,,7,0.409,,,,,,,,,,,,,,,,,,,,,,,,,,,,8,strong,44,114,1,0,0,response1disk,3,171,-20,-9,1,0,0,rectangle,-20,-9,1,0,0,6,1,0.001,-20,-9,1,0,0,0,8,8,154,1,0,,,,,,,,,,,,,,,,,,,,,
,,,,,,,,,,,,,,,,,,,,,,,,,,,,,,,,,,,,,,,,,,5e585dd09fb4700726f31d43,606a0f3cb3a4483d0c1948b0,2021-04-04_21h12.34.961,Colour_Similarity_Experiment,2020.2.10,Win32,60,60675255c767bca6388caeee,7.326804124,7.148148148,7.233085989,7.064162754,7.277318641,7.233085989,,,,,,,,,,,,,,,,,,,,PF,7,strong,,,,,,,,7,0.521,,,,,,,,,,,,,,,,,,,,,,,,,,,,1,strong,24,103,1,0,0,response1disk,4,172,-36,-7,1,0,0,rectangle,-36,-7,1,0,0,6,4,0.001,-36,-7,1,0,0,0,9,9,135,1,0,,,,,,,,,,,,,,,,,,,,,
,,,,,,,,,,,,,,,,,,,,,,,,,,,,,,,,,,,,,,,,,,5e585dd09fb4700726f31d43,606a0f3cb3a4483d0c1948b0,2021-04-04_21h12.34.961,Colour_Similarity_Experiment,2020.2.10,Win32,60,60675255c767bca6388caeee,7.326804124,7.148148148,7.233085989,7.064162754,7.277318641,7.233085989,,,,,,,,,,,,,,,,,,,,PF,7,weak,,,,,,,,5,1.785,,,,,,,,,,,,,,,,,,,,,,,,,,,,4,weak,110,-76,1,0,0,response3disk,4,173,-14,15,1,0,0,rectangle,-14,15,1,0,0,6,7,0,-14,15,1,0,0,0,10,10,70,1,0,,,,,,,,,,,,,,,,,,,,,
,,,,,,,,,,,,,,,,,,,,,,,,,,,,,,,,,,,,,,,,,,5e585dd09fb4700726f31d43,606a0f3cb3a4483d0c1948b0,2021-04-04_21h12.34.961,Colour_Similarity_Experiment,2020.2.10,Win32,60,60675255c767bca6388caeee,7.326804124,7.148148148,7.233085989,7.064162754,7.277318641,7.233085989,,,,,,,,,,,,,,,,,,,,PF,7,strong,,,,,,,,3,1.805,,,,,,,,,,,,,,,,,,,,,,,,,,,,4,strong,-79,-151,1,0,0,response5disk,3,174,16,2,1,0,0,rectangle,16,2,1,0,0,6,4,0.001,16,2,1,0,0,0,11,11,77,1,0,,,,,,,,,,,,,,,,,,,,,
,,,,,,,,,,,,,,,,,,,,,,,,,,,,,,,,,,,,,,,,,,5e585dd09fb4700726f31d43,606a0f3cb3a4483d0c1948b0,2021-04-04_21h12.34.961,Colour_Similarity_Experiment,2020.2.10,Win32,60,60675255c767bca6388caeee,7.326804124,7.148148148,7.233085989,7.064162754,7.277318641,7.233085989,,,,,,,,,,,,,,,,,,,,PF,7,weak,,,,,,,,6,1.841,,,,,,,,,,,,,,,,,,,,,,,,,,,,7,weak,107,48,1,0,0,response1disk,5,175,-18,-5,1,0,0,rectangle,-18,-5,1,0,0,6,1,0,-18,-5,1,0,0,0,12,12,92,1,0,,,,,,,,,,,,,,,,,,,,,
,,,,,,,,,,,,,,,,,,,,,,,,,,,,,,,,,,,,,,,,,,5e585dd09fb4700726f31d43,606a0f3cb3a4483d0c1948b0,2021-04-04_21h12.34.961,Colour_Similarity_Experiment,2020.2.10,Win32,60,60675255c767bca6388caeee,7.326804124,7.148148148,7.233085989,7.064162754,7.277318641,7.233085989,,,,,,,,,,,,,,,,,,,,PF,7,strong,,,,,,,,6,1.076,,,,,,,,,,,,,,,,,,,,,,,,,,,,5,strong,97,53,1,0,0,response1disk,8,176,4,11,1,0,0,rectangle,4,11,1,0,0,6,1,0.001,4,11,1,0,0,0,13,13,16,1,0,,,,,,,,,,,,,,,,,,,,,
,,,,,,,,,,,,,,,,,,,,,,,,,,,,,,,,,,,,,,,,,,5e585dd09fb4700726f31d43,606a0f3cb3a4483d0c1948b0,2021-04-04_21h12.34.961,Colour_Similarity_Experiment,2020.2.10,Win32,60,60675255c767bca6388caeee,7.326804124,7.148148148,7.233085989,7.064162754,7.277318641,7.233085989,,,,,,,,,,,,,,,,,,,,PF,7,strong,,,,,,,,6,0.361,,,,,,,,,,,,,,,,,,,,,,,,,,,,6,strong,110,55,1,0,0,response1disk,3,177,22,-7,1,0,0,rectangle,22,-7,1,0,0,6,2,0,22,-7,1,0,0,0,14,14,21,1,0,,,,,,,,,,,,,,,,,,,,,
,,,,,,,,,,,,,,,,,,,,,,,,,,,,,,,,,,,,,,,,,,5e585dd09fb4700726f31d43,606a0f3cb3a4483d0c1948b0,2021-04-04_21h12.34.961,Colour_Similarity_Experiment,2020.2.10,Win32,60,60675255c767bca6388caeee,7.326804124,7.148148148,7.233085989,7.064162754,7.277318641,7.233085989,,,,,,,,,,,,,,,,,,,,PF,7,weak,,,,,,,,6,0.319,,,,,,,,,,,,,,,,,,,,,,,,,,,,5,weak,127,53,1,0,0,response1disk,5,178,-4,16,1,0,0,rectangle,-4,16,1,0,0,6,7,0,-4,16,1,0,0,0,15,15,94,1,0,,,,,,,,,,,,,,,,,,,,,
,,,,,,,,,,,,,,,,,,,,,,,,,,,,,,,,,,,,,,,,,,5e585dd09fb4700726f31d43,606a0f3cb3a4483d0c1948b0,2021-04-04_21h12.34.961,Colour_Similarity_Experiment,2020.2.10,Win32,60,60675255c767bca6388caeee,7.326804124,7.148148148,7.233085989,7.064162754,7.277318641,7.233085989,,,,,,,,,,,,,,,,,,,,PF,7,strong,,,,,,,,6,0.452,,,,,,,,,,,,,,,,,,,,,,,,,,,,7,strong,114,55,1,0,0,response1disk,5,179,-1,11,1,0,0,rectangle,-1,11,1,0,0,6,5,0.001,-1,11,1,0,0,0,16,16,156,1,0,,,,,,,,,,,,,,,,,,,,,
,,,,,,,,,,,,,,,,,,,,,,,,,,,,,,,,,,,,,,,,,,5e585dd09fb4700726f31d43,606a0f3cb3a4483d0c1948b0,2021-04-04_21h12.34.961,Colour_Similarity_Experiment,2020.2.10,Win32,60,60675255c767bca6388caeee,7.326804124,7.148148148,7.233085989,7.064162754,7.277318641,7.233085989,,,,,,,,,,,,,,,,,,,,PF,7,strong,,,,,,,,6,0.472,,,,,,,,,,,,,,,,,,,,,,,,,,,,8,strong,97,80,1,0,0,response1disk,4,180,7,8,1,0,0,rectangle,7,8,1,0,0,6,6,0.001,7,8,1,0,0,0,17,17,88,1,0,,,,,,,,,,,,,,,,,,,,,
,,,,,,,,,,,,,,,,,,,,,,,,,,,,,,,,,,,,,,,,,,5e585dd09fb4700726f31d43,606a0f3cb3a4483d0c1948b0,2021-04-04_21h12.34.961,Colour_Similarity_Experiment,2020.2.10,Win32,60,60675255c767bca6388caeee,7.326804124,7.148148148,7.233085989,7.064162754,7.277318641,7.233085989,,,,,,,,,,,,,,,,,,,,PF,7,strong,,,,,,,,6,0.425,,,,,,,,,,,,,,,,,,,,,,,,,,,,3,strong,129,52,1,0,0,response1disk,7,181,34,1,1,0,0,rectangle,34,1,1,0,0,6,6,0,34,1,1,0,0,0,18,18,118,1,0,,,,,,,,,,,,,,,,,,,,,
,,,,,,,,,,,,,,,,,,,,,,,,,,,,,,,,,,,,,,,,,,5e585dd09fb4700726f31d43,606a0f3cb3a4483d0c1948b0,2021-04-04_21h12.34.961,Colour_Similarity_Experiment,2020.2.10,Win32,60,60675255c767bca6388caeee,7.326804124,7.148148148,7.233085989,7.064162754,7.277318641,7.233085989,,,,,,,,,,,,,,,,,,,,PF,7,strong,,,,,,,,6,0.381,,,,,,,,,,,,,,,,,,,,,,,,,,,,1,strong,115,44,1,0,0,response1disk,2,182,24,-7,1,0,0,rectangle,24,-7,1,0,0,6,7,0,24,-7,1,0,0,0,19,19,2,1,0,,,,,,,,,,,,,,,,,,,,,
,,,,,,,,,,,,,,,,,,,,,,,,,,,,,,,,,,,,,,,,,,5e585dd09fb4700726f31d43,606a0f3cb3a4483d0c1948b0,2021-04-04_21h12.34.961,Colour_Similarity_Experiment,2020.2.10,Win32,60,60675255c767bca6388caeee,7.326804124,7.148148148,7.233085989,7.064162754,7.277318641,7.233085989,,,,,,,,,,,,,,,,,,,,PF,7,weak,,,,,,,,6,1.833,,,,,,,,,,,,,,,,,,,,,,,,,,,,9,weak,104,42,1,0,0,response1disk,9,183,-16,-21,1,0,0,rectangle,-16,-21,1,0,0,6,3,0.001,-16,-21,1,0,0,0,20,20,106,1,0,,,,,,,,,,,,,,,,,,,,,
,,,,,,,,,,,,,,,,,,,,,,,,,,,,,,,,,,,,,,,,,,5e585dd09fb4700726f31d43,606a0f3cb3a4483d0c1948b0,2021-04-04_21h12.34.961,Colour_Similarity_Experiment,2020.2.10,Win32,60,60675255c767bca6388caeee,7.326804124,7.148148148,7.233085989,7.064162754,7.277318641,7.233085989,,,,,,,,,,,,,,,,,,,,PF,7,strong,,,,,,,,6,0.632,,,,,,,,,,,,,,,,,,,,,,,,,,,,1,strong,111,33,1,0,0,response1disk,8,184,-14,-7,1,0,0,rectangle,-14,-7,1,0,0,6,3,0,-14,-7,1,0,0,0,21,21,27,1,0,,,,,,,,,,,,,,,,,,,,,
,,,,,,,,,,,,,,,,,,,,,,,,,,,,,,,,,,,,,,,,,,5e585dd09fb4700726f31d43,606a0f3cb3a4483d0c1948b0,2021-04-04_21h12.34.961,Colour_Similarity_Experiment,2020.2.10,Win32,60,60675255c767bca6388caeee,7.326804124,7.148148148,7.233085989,7.064162754,7.277318641,7.233085989,,,,,,,,,,,,,,,,,,,,PF,7,weak,,,,,,,,5,0.73,,,,,,,,,,,,,,,,,,,,,,,,,,,,6,weak,98,-55,1,0,0,response3disk,1,185,11,-1,1,0,0,rectangle,11,-1,1,0,0,6,6,0.001,11,-1,1,0,0,0,22,22,46,1,0,,,,,,,,,,,,,,,,,,,,,
,,,,,,,,,,,,,,,,,,,,,,,,,,,,,,,,,,,,,,,,,,5e585dd09fb4700726f31d43,606a0f3cb3a4483d0c1948b0,2021-04-04_21h12.34.961,Colour_Similarity_Experiment,2020.2.10,Win32,60,60675255c767bca6388caeee,7.326804124,7.148148148,7.233085989,7.064162754,7.277318641,7.233085989,,,,,,,,,,,,,,,,,,,,PF,7,weak,,,,,,,,5,0.368,,,,,,,,,,,,,,,,,,,,,,,,,,,,1,weak,116,-58,1,0,0,response3disk,6,186,1,10,1,0,0,rectangle,1,10,1,0,0,6,6,0,1,10,1,0,0,0,23,23,144,1,0,,,,,,,,,,,,,,,,,,,,,
,,,,,,,,,,,,,,,,,,,,,,,,,,,,,,,,,,,,,,,,,,5e585dd09fb4700726f31d43,606a0f3cb3a4483d0c1948b0,2021-04-04_21h12.34.961,Colour_Similarity_Experiment,2020.2.10,Win32,60,60675255c767bca6388caeee,7.326804124,7.148148148,7.233085989,7.064162754,7.277318641,7.233085989,,,,,,,,,,,,,,,,,,,,PF,7,strong,,,,,,,,5,0.32,,,,,,,,,,,,,,,,,,,,,,,,,,,,8,strong,107,-59,1,0,0,response3disk,1,187,2,6,1,0,0,rectangle,2,6,1,0,0,6,6,0,2,6,1,0,0,0,24,24,20,1,0,,,,,,,,,,,,,,,,,,,,,
,,,,,,,,,,,,,,,,,,,,,,,,,,,,,,,,,,,,,,,,,,5e585dd09fb4700726f31d43,606a0f3cb3a4483d0c1948b0,2021-04-04_21h12.34.961,Colour_Similarity_Experiment,2020.2.10,Win32,60,60675255c767bca6388caeee,7.326804124,7.148148148,7.233085989,7.064162754,7.277318641,7.233085989,,,,,,,,,,,,,,,,,,,,PF,7,weak,,,,,,,,5,0.36,,,,,,,,,,,,,,,,,,,,,,,,,,,,8,weak,126,-55,1,0,0,response3disk,7,188,-2,10,1,0,0,rectangle,-2,10,1,0,0,6,7,0,-2,10,1,0,0,0,25,25,23,1,0,,,,,,,,,,,,,,,,,,,,,
,,,,,,,,,,,,,,,,,,,,,,,,,,,,,,,,,,,,,,,,,,5e585dd09fb4700726f31d43,606a0f3cb3a4483d0c1948b0,2021-04-04_21h12.34.961,Colour_Similarity_Experiment,2020.2.10,Win32,60,60675255c767bca6388caeee,7.326804124,7.148148148,7.233085989,7.064162754,7.277318641,7.233085989,,,,,,,,,,,,,,,,,,,,PF,7,strong,,,,,,,,5,0.354,,,,,,,,,,,,,,,,,,,,,,,,,,,,2,strong,98,-51,1,0,0,response3disk,5,189,-11,8,1,0,0,rectangle,-11,8,1,0,0,6,3,0,-11,8,1,0,0,0,26,26,80,1,0,,,,,,,,,,,,,,,,,,,,,
,,,,,,,,,,,,,,,,,,,,,,,,,,,,,,,,,,,,,,,,,,5e585dd09fb4700726f31d43,606a0f3cb3a4483d0c1948b0,2021-04-04_21h12.34.961,Colour_Similarity_Experiment,2020.2.10,Win32,60,60675255c767bca6388caeee,7.326804124,7.148148148,7.233085989,7.064162754,7.277318641,7.233085989,,,,,,,,,,,,,,,,,,,,PF,7,weak,,,,,,,,5,0.348,,,,,,,,,,,,,,,,,,,,,,,,,,,,8,weak,105,-55,1,0,0,response3disk,3,190,16,6,1,0,0,rectangle,16,6,1,0,0,6,5,0,16,6,1,0,0,0,27,27,71,1,0,,,,,,,,,,,,,,,,,,,,,
,,,,,,,,,,,,,,,,,,,,,,,,,,,,,,,,,,,,,,,,,,5e585dd09fb4700726f31d43,606a0f3cb3a4483d0c1948b0,2021-04-04_21h12.34.961,Colour_Similarity_Experiment,2020.2.10,Win32,60,60675255c767bca6388caeee,7.326804124,7.148148148,7.233085989,7.064162754,7.277318641,7.233085989,,,,,,,,,,,,,,,,,,,,PF,7,weak,,,,,,,,5,0.355,,,,,,,,,,,,,,,,,,,,,,,,,,,,8,weak,123,-68,1,0,0,response3disk,9,191,23,-6,1,0,0,rectangle,23,-6,1,0,0,6,7,0.001,23,-6,1,0,0,0,28,28,42,1,0,,,,,,,,,,,,,,,,,,,,,
,,,,,,,,,,,,,,,,,,,,,,,,,,,,,,,,,,,,,,,,,,5e585dd09fb4700726f31d43,606a0f3cb3a4483d0c1948b0,2021-04-04_21h12.34.961,Colour_Similarity_Experiment,2020.2.10,Win32,60,60675255c767bca6388caeee,7.326804124,7.148148148,7.233085989,7.064162754,7.277318641,7.233085989,,,,,,,,,,,,,,,,,,,,PF,7,strong,,,,,,,,5,0.403,,,,,,,,,,,,,,,,,,,,,,,,,,,,7,strong,123,-65,1,0,0,response3disk,4,192,-5,10,1,0,0,rectangle,-5,10,1,0,0,6,0,0.001,-5,10,1,0,0,0,29,29,158,1,0,,,,,,,,,,,,,,,,,,,,,
,,,,,,,,,,,,,,,,,,,,,,,,,,,,,,,,,,,,,,,,,,5e585dd09fb4700726f31d43,606a0f3cb3a4483d0c1948b0,2021-04-04_21h12.34.961,Colour_Similarity_Experiment,2020.2.10,Win32,60,60675255c767bca6388caeee,7.326804124,7.148148148,7.233085989,7.064162754,7.277318641,7.233085989,,,,,,,,,,,,,,,,,,,,PF,7,strong,,,,,,,,5,0.374,,,,,,,,,,,,,,,,,,,,,,,,,,,,2,strong,99,-62,1,0,0,response3disk,3,193,-19,1,1,0,0,rectangle,120,34,1,0,0,6,6,1.556,17,-2,1,0,0,0,30,30,104,1,1,response1disk_3,rectangle,,,,,,,,,,,,,,,,,,,
,,,,,,,,,,,,,,,,,,,,,,,,,,,,,,,,,,,,,,,,,,5e585dd09fb4700726f31d43,606a0f3cb3a4483d0c1948b0,2021-04-04_21h12.34.961,Colour_Similarity_Experiment,2020.2.10,Win32,60,60675255c767bca6388caeee,7.326804124,7.148148148,7.233085989,7.064162754,7.277318641,7.233085989,,,,,,,,,,,,,,,,,,,,PF,7,strong,,,,,,,,6,0.381,,,,,,,,,,,,,,,,,,,,,,,,,,,,2,strong,82,51,1,0,0,response1disk,8,194,35,15,1,0,0,rectangle,35,15,1,0,0,6,7,0.001,35,15,1,0,0,0,31,31,62,1,0,,,,,,,,,,,,,,,,,,,,,
,,,,,,,,,,,,,,,,,,,,,,,,,,,,,,,,,,,,,,,,,,5e585dd09fb4700726f31d43,606a0f3cb3a4483d0c1948b0,2021-04-04_21h12.34.961,Colour_Similarity_Experiment,2020.2.10,Win32,60,60675255c767bca6388caeee,7.326804124,7.148148148,7.233085989,7.064162754,7.277318641,7.233085989,,,,,,,,,,,,,,,,,,,,PF,7,weak,,,,,,,,6,0.389,,,,,,,,,,,,,,,,,,,,,,,,,,,,4,weak,112,53,1,0,0,response1disk,2,195,5,5,1,0,0,rectangle,5,5,1,0,0,6,3,0,5,5,1,0,0,0,32,32,108,1,0,,,,,,,,,,,,,,,,,,,,,
,,,,,,,,,,,,,,,,,,,,,,,,,,,,,,,,,,,,,,,,,,5e585dd09fb4700726f31d43,606a0f3cb3a4483d0c1948b0,2021-04-04_21h12.34.961,Colour_Similarity_Experiment,2020.2.10,Win32,60,60675255c767bca6388caeee,7.326804124,7.148148148,7.233085989,7.064162754,7.277318641,7.233085989,,,,,,,,,,,,,,,,,,,,PF,7,strong,,,,,,,,5,0.43,,,,,,,,,,,,,,,,,,,,,,,,,,,,2,strong,119,-70,1,0,0,response3disk,2,196,13,3,1,0,0,rectangle,13,3,1,0,0,6,6,0,13,3,1,0,0,0,33,33,142,1,0,,,,,,,,,,,,,,,,,,,,,
