key_resp.keys,key_resp.rt,key_resp_16.keys,key_resp_16.rt,key_resp_2.keys,key_resp_2.rt,X Scale,ratio_pxpermm,screen_size_x,screen_size_y,testsize,key_resp_3.keys,key_resp_4.keys,key_resp_4.rt,line_size,key_resp_5.keys,key_resp_5.rt,key_resp_6.keys,key_resp_6.rt,key_resp_8.keys,key_resp_8.rt,key_resp_7.keys,key_resp_7.rt,key_resp_12.keys,key_resp_12.rt,key_resp_11.keys,key_resp_11.rt,key_resp_18.keys,key_resp_18.rt,key_resp_21.keys,key_resp_21.rt,key_resp_13.keys,key_resp_13.rt,key_resp_19.keys,key_resp_19.rt,ballposx,viewer_distance,trials.thisRepN,trials.thisTrialN,trials.thisN,trials.thisIndex,trials.ran,participant,session,date,expName,psychopyVersion,OS,frameRate,study_id,realFrameRate1,realFrameRate2,realFrameRate3,realFrameRate4,realFrameRate5,realFrameRate,viewerdistancecm,DVA_to_distance,radius_F,radius_P,r_F,R_P,key_resp_20.keys,key_resp_20.rt,key_resp_14.keys,key_resp_14.rt,key_resp_15.keys,key_resp_15.rt,key_resp_17.keys,key_resp_17.rt,key_resp_9.keys,key_resp_9.rt,key_resp_10.keys,key_resp_10.rt,Colour_1,Ecc,mask_frames,maskCon,mouse_5.x,mouse_5.y,mouse_5.leftButton,mouse_5.midButton,mouse_5.rightButton,mouse_5.clicked_name,Colour_2,similarity,response_time,mouse_10.x,mouse_10.y,mouse_10.leftButton,mouse_10.midButton,mouse_10.rightButton,mouse_10.clicked_name,mouse_7.x,mouse_7.y,mouse_7.leftButton,mouse_7.midButton,mouse_7.rightButton,catchnumberprac,mouse_6.x,mouse_6.y,mouse_6.leftButton,mouse_6.midButton,mouse_6.rightButton,duringprac.thisRepN,duringprac.thisTrialN,duringprac.thisN,duringprac.thisIndex,duringprac.ran,mouse_7.clicked_name,catchprac,mouse_6.clicked_name,key_resp_22.keys,key_resp_22.rt,Colour1,maskCon1,mouse.x,mouse.y,mouse.leftButton,mouse.midButton,mouse.rightButton,mouse.clicked_name,Colour2,trialnumber,mouse_2.x,mouse_2.y,mouse_2.leftButton,mouse_2.midButton,mouse_2.rightButton,mouse_2.clicked_name,mouse_3.x,mouse_3.y,mouse_3.leftButton,mouse_3.midButton,mouse_3.rightButton,catchresponse,catchnumber,response_time_catch,mouse_11.x,mouse_11.y,mouse_11.leftButton,mouse_11.midButton,mouse_11.rightButton,trials_2.thisRepN,trials_2.thisTrialN,trials_2.thisN,trials_2.thisIndex,trials_2.ran,Catch,mouse_3.clicked_name,mouse_11.clicked_name,trials_3.thisRepN,trials_3.thisTrialN,trials_3.thisN,trials_3.thisIndex,trials_3.ran,answer1,rt1,answer2,rt2,answer3,rt3,answer4,rt4,answer5,rt5,answer6,rt6,answer7,rt7
space,1.656,space,13,space,3.479,41.3,4.13,330.7506053,185.9564165,1366,,space,12.966,82.6,space,3.97,space,5.83,space,3.147,space,4.063,space,4.264,space,6.998,space,5.399,space,11.982,space,18.12,return,7.402,-399.555,954.0405827,0,0,0,0,1,5ea97c4cbd6e6c07b00065e1,606a0f0ecd3a5661b270aa48,2021-04-04_21h14.50.335,Colour_Similarity_Experiment,2020.2.10,Win32,60,60675255c767bca6388caeee,18,16.70422535,16.76291793,17.10249671,16.70752089,16.76291793,,,,,,,,,,,,,,,,,,,,,,,,,,,,,,,,,,,,,,,,,,,,,,,,,,,,,,,,,,,,,,,,,,,,,,,,,,,,,,,,,,,,,,,,,,,,,,,,,,,,,,,,,,,,,,,,,,
,,,,,,,,,,,,,,,,,,,,,,,,,,,,,,,,,return,5.635,-182.361,734.9901095,1,0,1,0,1,5ea97c4cbd6e6c07b00065e1,606a0f0ecd3a5661b270aa48,2021-04-04_21h14.50.335,Colour_Similarity_Experiment,2020.2.10,Win32,60,60675255c767bca6388caeee,18,16.70422535,16.76291793,17.10249671,16.70752089,16.76291793,,,,,,,,,,,,,,,,,,,,,,,,,,,,,,,,,,,,,,,,,,,,,,,,,,,,,,,,,,,,,,,,,,,,,,,,,,,,,,,,,,,,,,,,,,,,,,,,,,,,,,,,,,,,,,,,,,
,,,,,,,,,,,,,,,,,,,,,,,,,,,,,,,,,return,5.335,-145.479,697.7928594,2,0,2,0,1,5ea97c4cbd6e6c07b00065e1,606a0f0ecd3a5661b270aa48,2021-04-04_21h14.50.335,Colour_Similarity_Experiment,2020.2.10,Win32,60,60675255c767bca6388caeee,18,16.70422535,16.76291793,17.10249671,16.70752089,16.76291793,,,,,,,,,,,,,,,,,,,,,,,,,,,,,,,,,,,,,,,,,,,,,,,,,,,,,,,,,,,,,,,,,,,,,,,,,,,,,,,,,,,,,,,,,,,,,,,,,,,,,,,,,,,,,,,,,,
,,,,,,,,,,,,,,,,,,,,,,,,,,,,,,,,,return,5.115,-118.842,670.9281787,3,0,3,0,1,5ea97c4cbd6e6c07b00065e1,606a0f0ecd3a5661b270aa48,2021-04-04_21h14.50.335,Colour_Similarity_Experiment,2020.2.10,Win32,60,60675255c767bca6388caeee,18,16.70422535,16.76291793,17.10249671,16.70752089,16.76291793,,,,,,,,,,,,,,,,,,,,,,,,,,,,,,,,,,,,,,,,,,,,,,,,,,,,,,,,,,,,,,,,,,,,,,,,,,,,,,,,,,,,,,,,,,,,,,,,,,,,,,,,,,,,,,,,,,
,,,,,,,,,,,,,,,,,,,,,,,,,,,,,,,,,return,4.831,-84.009,635.7974425,4,0,4,0,1,5ea97c4cbd6e6c07b00065e1,606a0f0ecd3a5661b270aa48,2021-04-04_21h14.50.335,Colour_Similarity_Experiment,2020.2.10,Win32,60,60675255c767bca6388caeee,18,16.70422535,16.76291793,17.10249671,16.70752089,16.76291793,,,,,,,,,,,,,,,,,,,,,,,,,,,,,,,,,,,,,,,,,,,,,,,,,,,,,,,,,,,,,,,,,,,,,,,,,,,,,,,,,,,,,,,,,,,,,,,,,,,,,,,,,,,,,,,,,,
,,,,,,,,,,,,,,,,,,,,,,,,,,,,,,,,,,,,,,,,,,5ea97c4cbd6e6c07b00065e1,606a0f0ecd3a5661b270aa48,2021-04-04_21h14.50.335,Colour_Similarity_Experiment,2020.2.10,Win32,60,60675255c767bca6388caeee,18,16.70422535,16.76291793,17.10249671,16.70752089,16.76291793,70,12.21854108,75.69386199,504.6257466,50.46257466,227.081586,space,3.276,space,8.244,space,11.469,space,9.779,space,0.951,space,4.577,1,PF,3,strong,-34,-83,1,0,0,response5disk_5,2,3,13.835,-1,-1,1,0,0,rectangle_8,-1,-1,1,0,0,0,-1,-1,1,0,0,0,0,0,2,1,,,,,,,,,,,,,,,,,,,,,,,,,,,,,,,,,,,,,,,,,,,,,,,,,,,,,,,,,,,,,
,,,,,,,,,,,,,,,,,,,,,,,,,,,,,,,,,,,,,,,,,,5ea97c4cbd6e6c07b00065e1,606a0f0ecd3a5661b270aa48,2021-04-04_21h14.50.335,Colour_Similarity_Experiment,2020.2.10,Win32,60,60675255c767bca6388caeee,18,16.70422535,16.76291793,17.10249671,16.70752089,16.76291793,,,,,,,,,,,,,,,,,,,6,PF,3,weak,21,-72,1,0,0,response3disk_5,3,4,13.83,-12,2,1,0,0,rectangle_8,-12,2,1,0,0,0,-12,2,1,0,0,0,1,1,1,1,,,,,,,,,,,,,,,,,,,,,,,,,,,,,,,,,,,,,,,,,,,,,,,,,,,,,,,,,,,,,
,,,,,,,,,,,,,,,,,,,,,,,,,,,,,,,,,,,,,,,,,,5ea97c4cbd6e6c07b00065e1,606a0f0ecd3a5661b270aa48,2021-04-04_21h14.50.335,Colour_Similarity_Experiment,2020.2.10,Win32,60,60675255c767bca6388caeee,18,16.70422535,16.76291793,17.10249671,16.70752089,16.76291793,,,,,,,,,,,,,,,,,,,7,PF,3,weak,67,44,1,0,0,response1disk_5,1,6,3.419,8,-2,1,0,0,rectangle_8,8,-2,1,0,0,0,8,-2,1,0,0,0,2,2,4,1,,,,,,,,,,,,,,,,,,,,,,,,,,,,,,,,,,,,,,,,,,,,,,,,,,,,,,,,,,,,,
,,,,,,,,,,,,,,,,,,,,,,,,,,,,,,,,,,,,,,,,,,5ea97c4cbd6e6c07b00065e1,606a0f0ecd3a5661b270aa48,2021-04-04_21h14.50.335,Colour_Similarity_Experiment,2020.2.10,Win32,60,60675255c767bca6388caeee,18,16.70422535,16.76291793,17.10249671,16.70752089,16.76291793,,,,,,,,,,,,,,,,,,,6,PF,3,strong,29,71,1,0,0,response1disk_5,9,7,4.9,-1,-1,1,0,0,rectangle_8,-1,-1,1,0,0,0,-1,-1,1,0,0,0,3,3,0,1,,,,,,,,,,,,,,,,,,,,,,,,,,,,,,,,,,,,,,,,,,,,,,,,,,,,,,,,,,,,,
,,,,,,,,,,,,,,,,,,,,,,,,,,,,,,,,,,,,,,,,,,5ea97c4cbd6e6c07b00065e1,606a0f0ecd3a5661b270aa48,2021-04-04_21h14.50.335,Colour_Similarity_Experiment,2020.2.10,Win32,60,60675255c767bca6388caeee,18,16.70422535,16.76291793,17.10249671,16.70752089,16.76291793,,,,,,,,,,,,,,,,,,,2,PF,3,strong,-56,83,1,0,0,response7disk_5,6,0,2.508,-12,1,1,0,0,rectangle_8,-12,1,1,0,0,0,-12,1,1,0,0,0,4,4,3,1,,,,,,,,,,,,,,,,,,,,,,,,,,,,,,,,,,,,,,,,,,,,,,,,,,,,,,,,,,,,,
,,,,,,,,,,,,,,,,,,,,,,,,,,,,,,,,,,,,,,,,,,5ea97c4cbd6e6c07b00065e1,606a0f0ecd3a5661b270aa48,2021-04-04_21h14.50.335,Colour_Similarity_Experiment,2020.2.10,Win32,60,60675255c767bca6388caeee,18,16.70422535,16.76291793,17.10249671,16.70752089,16.76291793,,,,,,,,,,,,,,,,,,,8,PF,3,weak,-36,-79,1,0,0,response5disk_5,8,3,5.633,-7,-4,1,0,0,rectangle_8,-40,83,1,0,0,0,-12,6,1,0,0,0,5,5,6,1,response7disk_7,0,rectangle_4,,,,,,,,,,,,,,,,,,,,,,,,,,,,,,,,,,,,,,,,,,,,,,,,,,,,,,,,,,
,,,,,,,,,,,,,,,,,,,,,,,,,,,,,,,,,,,,,,,,,,5ea97c4cbd6e6c07b00065e1,606a0f0ecd3a5661b270aa48,2021-04-04_21h14.50.335,Colour_Similarity_Experiment,2020.2.10,Win32,60,60675255c767bca6388caeee,18,16.70422535,16.76291793,17.10249671,16.70752089,16.76291793,,,,,,,,,,,,,,,,,,,8,PF,3,weak,-80,43,1,0,0,response7disk_5,4,1,3.271,5,-1,1,0,0,rectangle_8,5,-1,1,0,0,0,5,-1,1,0,0,0,6,6,5,1,,,,,,,,,,,,,,,,,,,,,,,,,,,,,,,,,,,,,,,,,,,,,,,,,,,,,,,,,,,,,
,,,,,,,,,,,,,,,,,,,,,,,,,,,,,,,,,,,,,,,,,,5ea97c4cbd6e6c07b00065e1,606a0f0ecd3a5661b270aa48,2021-04-04_21h14.50.335,Colour_Similarity_Experiment,2020.2.10,Win32,60,60675255c767bca6388caeee,18,16.70422535,16.76291793,17.10249671,16.70752089,16.76291793,,,,,,,,,,,,,,,,,,,,PF,3,weak,,,,,,,,6,3.469,,,,,,,,,,,,,,,,,,,,,,,,,,space,3.504,4,weak,94,31,1,0,0,response1disk,2,1,-17,-5,1,0,0,rectangle,-17,-5,1,0,0,,0,0.004,-17,-5,1,0,0,0,0,0,108,1,0,,,,,,,,,,,,,,,,,,,,,
,,,,,,,,,,,,,,,,,,,,,,,,,,,,,,,,,,,,,,,,,,5ea97c4cbd6e6c07b00065e1,606a0f0ecd3a5661b270aa48,2021-04-04_21h14.50.335,Colour_Similarity_Experiment,2020.2.10,Win32,60,60675255c767bca6388caeee,18,16.70422535,16.76291793,17.10249671,16.70752089,16.76291793,,,,,,,,,,,,,,,,,,,,PF,3,strong,,,,,,,,6,4.323,,,,,,,,,,,,,,,,,,,,,,,,,,,,6,strong,111,40,1,0,0,response1disk,5,2,-5,-5,1,0,0,rectangle,-5,-5,1,0,0,,2,0.003,-5,-5,1,0,0,0,1,1,126,1,0,,,,,,,,,,,,,,,,,,,,,
,,,,,,,,,,,,,,,,,,,,,,,,,,,,,,,,,,,,,,,,,,5ea97c4cbd6e6c07b00065e1,606a0f0ecd3a5661b270aa48,2021-04-04_21h14.50.335,Colour_Similarity_Experiment,2020.2.10,Win32,60,60675255c767bca6388caeee,18,16.70422535,16.76291793,17.10249671,16.70752089,16.76291793,,,,,,,,,,,,,,,,,,,,PF,3,weak,,,,,,,,6,3.404,,,,,,,,,,,,,,,,,,,,,,,,,,,,5,weak,80,35,1,0,0,response1disk,3,3,7,1,1,0,0,rectangle,7,1,1,0,0,,5,0.002,7,1,1,0,0,0,2,2,109,1,0,,,,,,,,,,,,,,,,,,,,,
,,,,,,,,,,,,,,,,,,,,,,,,,,,,,,,,,,,,,,,,,,5ea97c4cbd6e6c07b00065e1,606a0f0ecd3a5661b270aa48,2021-04-04_21h14.50.335,Colour_Similarity_Experiment,2020.2.10,Win32,60,60675255c767bca6388caeee,18,16.70422535,16.76291793,17.10249671,16.70752089,16.76291793,,,,,,,,,,,,,,,,,,,,PF,3,strong,,,,,,,,6,4.375,,,,,,,,,,,,,,,,,,,,,,,,,,,,1,strong,75,28,1,0,0,response1disk,3,4,-15,-2,1,0,0,rectangle,-15,-2,1,0,0,,7,0.003,-15,-2,1,0,0,0,3,3,99,1,0,,,,,,,,,,,,,,,,,,,,,
,,,,,,,,,,,,,,,,,,,,,,,,,,,,,,,,,,,,,,,,,,5ea97c4cbd6e6c07b00065e1,606a0f0ecd3a5661b270aa48,2021-04-04_21h14.50.335,Colour_Similarity_Experiment,2020.2.10,Win32,60,60675255c767bca6388caeee,18,16.70422535,16.76291793,17.10249671,16.70752089,16.76291793,,,,,,,,,,,,,,,,,,,,PF,3,strong,,,,,,,,7,4.516,,,,,,,,,,,,,,,,,,,,,,,,,,,,6,strong,25,72,1,0,0,response1disk,6,5,1,2,1,0,0,rectangle,1,2,1,0,0,,5,0.002,1,2,1,0,0,0,4,4,91,1,0,,,,,,,,,,,,,,,,,,,,,
,,,,,,,,,,,,,,,,,,,,,,,,,,,,,,,,,,,,,,,,,,5ea97c4cbd6e6c07b00065e1,606a0f0ecd3a5661b270aa48,2021-04-04_21h14.50.335,Colour_Similarity_Experiment,2020.2.10,Win32,60,60675255c767bca6388caeee,18,16.70422535,16.76291793,17.10249671,16.70752089,16.76291793,,,,,,,,,,,,,,,,,,,,PF,3,strong,,,,,,,,1,3.188,,,,,,,,,,,,,,,,,,,,,,,,,,,,1,strong,-93,42,1,0,0,response7disk,9,6,14,-1,1,0,0,rectangle,14,-1,1,0,0,,4,0.002,14,-1,1,0,0,0,5,5,123,1,0,,,,,,,,,,,,,,,,,,,,,
,,,,,,,,,,,,,,,,,,,,,,,,,,,,,,,,,,,,,,,,,,5ea97c4cbd6e6c07b00065e1,606a0f0ecd3a5661b270aa48,2021-04-04_21h14.50.335,Colour_Similarity_Experiment,2020.2.10,Win32,60,60675255c767bca6388caeee,18,16.70422535,16.76291793,17.10249671,16.70752089,16.76291793,,,,,,,,,,,,,,,,,,,,PF,3,strong,,,,,,,,5,3.959,,,,,,,,,,,,,,,,,,,,,,,,,,,,4,strong,88,-37,1,0,0,response3disk,7,7,0,-2,1,0,0,rectangle,0,-2,1,0,0,,2,0.002,0,-2,1,0,0,0,6,6,87,1,0,,,,,,,,,,,,,,,,,,,,,
,,,,,,,,,,,,,,,,,,,,,,,,,,,,,,,,,,,,,,,,,,5ea97c4cbd6e6c07b00065e1,606a0f0ecd3a5661b270aa48,2021-04-04_21h14.50.335,Colour_Similarity_Experiment,2020.2.10,Win32,60,60675255c767bca6388caeee,18,16.70422535,16.76291793,17.10249671,16.70752089,16.76291793,,,,,,,,,,,,,,,,,,,,PF,3,strong,,,,,,,,6,3.504,,,,,,,,,,,,,,,,,,,,,,,,,,,,1,strong,76,36,1,0,0,response1disk,6,8,17,5,1,0,0,rectangle,17,5,1,0,0,,6,0.002,17,5,1,0,0,0,7,7,58,1,0,,,,,,,,,,,,,,,,,,,,,
,,,,,,,,,,,,,,,,,,,,,,,,,,,,,,,,,,,,,,,,,,5ea97c4cbd6e6c07b00065e1,606a0f0ecd3a5661b270aa48,2021-04-04_21h14.50.335,Colour_Similarity_Experiment,2020.2.10,Win32,60,60675255c767bca6388caeee,18,16.70422535,16.76291793,17.10249671,16.70752089,16.76291793,,,,,,,,,,,,,,,,,,,,PF,3,weak,,,,,,,,3,5.086,,,,,,,,,,,,,,,,,,,,,,,,,,,,3,weak,-43,-80,1,0,0,response5disk,6,9,-2,-2,1,0,0,rectangle,-2,-2,1,0,0,,4,0.003,-2,-2,1,0,0,0,8,8,47,1,0,,,,,,,,,,,,,,,,,,,,,
,,,,,,,,,,,,,,,,,,,,,,,,,,,,,,,,,,,,,,,,,,5ea97c4cbd6e6c07b00065e1,606a0f0ecd3a5661b270aa48,2021-04-04_21h14.50.335,Colour_Similarity_Experiment,2020.2.10,Win32,60,60675255c767bca6388caeee,18,16.70422535,16.76291793,17.10249671,16.70752089,16.76291793,,,,,,,,,,,,,,,,,,,,PF,3,strong,,,,,,,,6,3.538,,,,,,,,,,,,,,,,,,,,,,,,,,,,5,strong,91,39,1,0,0,response1disk,9,10,9,0,1,0,0,rectangle,9,0,1,0,0,,7,0.002,9,0,1,0,0,0,9,9,61,1,0,,,,,,,,,,,,,,,,,,,,,
,,,,,,,,,,,,,,,,,,,,,,,,,,,,,,,,,,,,,,,,,,5ea97c4cbd6e6c07b00065e1,606a0f0ecd3a5661b270aa48,2021-04-04_21h14.50.335,Colour_Similarity_Experiment,2020.2.10,Win32,60,60675255c767bca6388caeee,18,16.70422535,16.76291793,17.10249671,16.70752089,16.76291793,,,,,,,,,,,,,,,,,,,,PF,3,strong,,,,,,,,5,7.876,,,,,,,,,,,,,,,,,,,,,,,,,,,,9,strong,85,-36,1,0,0,response3disk,5,11,-17,-7,1,0,0,rectangle,-17,-7,1,0,0,,0,0.003,-17,-7,1,0,0,0,10,10,128,1,0,,,,,,,,,,,,,,,,,,,,,
,,,,,,,,,,,,,,,,,,,,,,,,,,,,,,,,,,,,,,,,,,5ea97c4cbd6e6c07b00065e1,606a0f0ecd3a5661b270aa48,2021-04-04_21h14.50.335,Colour_Similarity_Experiment,2020.2.10,Win32,60,60675255c767bca6388caeee,18,16.70422535,16.76291793,17.10249671,16.70752089,16.76291793,,,,,,,,,,,,,,,,,,,,PF,3,strong,,,,,,,,1,9.387,,,,,,,,,,,,,,,,,,,,,,,,,,,,1,strong,-89,37,1,0,0,response7disk,2,12,-13,4,1,0,0,rectangle,-13,4,1,0,0,,0,0.001,-13,4,1,0,0,0,11,11,2,1,0,,,,,,,,,,,,,,,,,,,,,
,,,,,,,,,,,,,,,,,,,,,,,,,,,,,,,,,,,,,,,,,,5ea97c4cbd6e6c07b00065e1,606a0f0ecd3a5661b270aa48,2021-04-04_21h14.50.335,Colour_Similarity_Experiment,2020.2.10,Win32,60,60675255c767bca6388caeee,18,16.70422535,16.76291793,17.10249671,16.70752089,16.76291793,,,,,,,,,,,,,,,,,,,,PF,3,weak,,,,,,,,7,3.883,,,,,,,,,,,,,,,,,,,,,,,,,,,,9,weak,39,70,1,0,0,response1disk,5,13,-10,0,1,0,0,rectangle,-10,0,1,0,0,,6,0.002,-10,0,1,0,0,0,12,12,134,1,0,,,,,,,,,,,,,,,,,,,,,
,,,,,,,,,,,,,,,,,,,,,,,,,,,,,,,,,,,,,,,,,,5ea97c4cbd6e6c07b00065e1,606a0f0ecd3a5661b270aa48,2021-04-04_21h14.50.335,Colour_Similarity_Experiment,2020.2.10,Win32,60,60675255c767bca6388caeee,18,16.70422535,16.76291793,17.10249671,16.70752089,16.76291793,,,,,,,,,,,,,,,,,,,,PF,3,strong,,,,,,,,4,3.916,,,,,,,,,,,,,,,,,,,,,,,,,,,,4,strong,40,-75,1,0,0,response3disk,6,14,-16,-6,1,0,0,rectangle,-16,-6,1,0,0,,3,0.002,-16,-6,1,0,0,0,13,13,122,1,0,,,,,,,,,,,,,,,,,,,,,
,,,,,,,,,,,,,,,,,,,,,,,,,,,,,,,,,,,,,,,,,,5ea97c4cbd6e6c07b00065e1,606a0f0ecd3a5661b270aa48,2021-04-04_21h14.50.335,Colour_Similarity_Experiment,2020.2.10,Win32,60,60675255c767bca6388caeee,18,16.70422535,16.76291793,17.10249671,16.70752089,16.76291793,,,,,,,,,,,,,,,,,,,,PF,3,weak,,,,,,,,7,3.736,,,,,,,,,,,,,,,,,,,,,,,,,,,,6,weak,26,76,1,0,0,response1disk,8,15,1,8,1,0,0,rectangle,1,8,1,0,0,,3,0,1,8,1,0,0,0,14,14,64,1,0,,,,,,,,,,,,,,,,,,,,,
,,,,,,,,,,,,,,,,,,,,,,,,,,,,,,,,,,,,,,,,,,5ea97c4cbd6e6c07b00065e1,606a0f0ecd3a5661b270aa48,2021-04-04_21h14.50.335,Colour_Similarity_Experiment,2020.2.10,Win32,60,60675255c767bca6388caeee,18,16.70422535,16.76291793,17.10249671,16.70752089,16.76291793,,,,,,,,,,,,,,,,,,,,PF,3,weak,,,,,,,,1,3.299,,,,,,,,,,,,,,,,,,,,,,,,,,,,3,weak,-74,18,1,0,0,response7disk,4,16,-2,3,1,0,0,rectangle,-2,3,1,0,0,,2,0.002,-2,3,1,0,0,0,15,15,30,1,0,,,,,,,,,,,,,,,,,,,,,
,,,,,,,,,,,,,,,,,,,,,,,,,,,,,,,,,,,,,,,,,,5ea97c4cbd6e6c07b00065e1,606a0f0ecd3a5661b270aa48,2021-04-04_21h14.50.335,Colour_Similarity_Experiment,2020.2.10,Win32,60,60675255c767bca6388caeee,18,16.70422535,16.76291793,17.10249671,16.70752089,16.76291793,,,,,,,,,,,,,,,,,,,,PF,3,strong,,,,,,,,6,15.824,,,,,,,,,,,,,,,,,,,,,,,,,,,,5,strong,85,33,1,0,0,response1disk,3,17,-7,0,1,0,0,rectangle,-7,0,1,0,0,,2,0.001,-7,0,1,0,0,0,16,16,25,1,0,,,,,,,,,,,,,,,,,,,,,
,,,,,,,,,,,,,,,,,,,,,,,,,,,,,,,,,,,,,,,,,,5ea97c4cbd6e6c07b00065e1,606a0f0ecd3a5661b270aa48,2021-04-04_21h14.50.335,Colour_Similarity_Experiment,2020.2.10,Win32,60,60675255c767bca6388caeee,18,16.70422535,16.76291793,17.10249671,16.70752089,16.76291793,,,,,,,,,,,,,,,,,,,,PF,3,weak,,,,,,,,5,7.303,,,,,,,,,,,,,,,,,,,,,,,,,,,,2,weak,106,-39,1,0,0,response3disk,6,18,0,-1,1,0,0,rectangle,0,-1,1,0,0,,7,0.002,0,-1,1,0,0,0,17,17,113,1,0,,,,,,,,,,,,,,,,,,,,,
,,,,,,,,,,,,,,,,,,,,,,,,,,,,,,,,,,,,,,,,,,5ea97c4cbd6e6c07b00065e1,606a0f0ecd3a5661b270aa48,2021-04-04_21h14.50.335,Colour_Similarity_Experiment,2020.2.10,Win32,60,60675255c767bca6388caeee,18,16.70422535,16.76291793,17.10249671,16.70752089,16.76291793,,,,,,,,,,,,,,,,,,,,PF,3,strong,,,,,,,,0,3.249,,,,,,,,,,,,,,,,,,,,,,,,,,,,7,strong,-42,102,1,0,0,response7disk,6,19,4,-3,1,0,0,rectangle,4,-3,1,0,0,,2,0.002,4,-3,1,0,0,0,18,18,31,1,0,,,,,,,,,,,,,,,,,,,,,
,,,,,,,,,,,,,,,,,,,,,,,,,,,,,,,,,,,,,,,,,,5ea97c4cbd6e6c07b00065e1,606a0f0ecd3a5661b270aa48,2021-04-04_21h14.50.335,Colour_Similarity_Experiment,2020.2.10,Win32,60,60675255c767bca6388caeee,18,16.70422535,16.76291793,17.10249671,16.70752089,16.76291793,,,,,,,,,,,,,,,,,,,,PF,3,weak,,,,,,,,1,2.617,,,,,,,,,,,,,,,,,,,,,,,,,,,,6,weak,-76,32,1,0,0,response7disk,6,20,1,-11,1,0,0,rectangle,1,-11,1,0,0,,0,0.002,1,-11,1,0,0,0,19,19,0,1,0,,,,,,,,,,,,,,,,,,,,,
,,,,,,,,,,,,,,,,,,,,,,,,,,,,,,,,,,,,,,,,,,5ea97c4cbd6e6c07b00065e1,606a0f0ecd3a5661b270aa48,2021-04-04_21h14.50.335,Colour_Similarity_Experiment,2020.2.10,Win32,60,60675255c767bca6388caeee,18,16.70422535,16.76291793,17.10249671,16.70752089,16.76291793,,,,,,,,,,,,,,,,,,,,PF,3,strong,,,,,,,,2,4.021,,,,,,,,,,,,,,,,,,,,,,,,,,,,8,strong,-60,-19,1,0,0,response5disk,7,21,12,8,1,0,0,rectangle,12,8,1,0,0,,4,0.002,12,8,1,0,0,0,20,20,86,1,0,,,,,,,,,,,,,,,,,,,,,
,,,,,,,,,,,,,,,,,,,,,,,,,,,,,,,,,,,,,,,,,,5ea97c4cbd6e6c07b00065e1,606a0f0ecd3a5661b270aa48,2021-04-04_21h14.50.335,Colour_Similarity_Experiment,2020.2.10,Win32,60,60675255c767bca6388caeee,18,16.70422535,16.76291793,17.10249671,16.70752089,16.76291793,,,,,,,,,,,,,,,,,,,,PF,3,strong,,,,,,,,7,3.616,,,,,,,,,,,,,,,,,,,,,,,,,,,,9,strong,24,93,1,0,0,response1disk,2,22,-4,-2,1,0,0,rectangle,87,40,1,0,0,6,6,3.849,-6,3,1,0,0,0,21,21,11,1,1,response1disk_3,rectangle,,,,,,,,,,,,,,,,,,,
,,,,,,,,,,,,,,,,,,,,,,,,,,,,,,,,,,,,,,,,,,5ea97c4cbd6e6c07b00065e1,606a0f0ecd3a5661b270aa48,2021-04-04_21h14.50.335,Colour_Similarity_Experiment,2020.2.10,Win32,60,60675255c767bca6388caeee,18,16.70422535,16.76291793,17.10249671,16.70752089,16.76291793,,,,,,,,,,,,,,,,,,,,PF,3,weak,,,,,,,,2,1.759,,,,,,,,,,,,,,,,,,,,,,,,,,,,5,weak,-66,-30,1,0,0,response5disk,7,23,5,6,1,0,0,rectangle,5,6,1,0,0,6,6,0,5,6,1,0,0,0,22,22,146,1,0,,,,,,,,,,,,,,,,,,,,,
,,,,,,,,,,,,,,,,,,,,,,,,,,,,,,,,,,,,,,,,,,5ea97c4cbd6e6c07b00065e1,606a0f0ecd3a5661b270aa48,2021-04-04_21h14.50.335,Colour_Similarity_Experiment,2020.2.10,Win32,60,60675255c767bca6388caeee,18,16.70422535,16.76291793,17.10249671,16.70752089,16.76291793,,,,,,,,,,,,,,,,,,,,PF,3,strong,,,,,,,,2,2.508,,,,,,,,,,,,,,,,,,,,,,,,,,,,7,strong,-62,-34,1,0,0,response5disk,7,24,-1,2,1,0,0,rectangle,-1,2,1,0,0,6,6,0.001,-1,2,1,0,0,0,23,23,34,1,0,,,,,,,,,,,,,,,,,,,,,
,,,,,,,,,,,,,,,,,,,,,,,,,,,,,,,,,,,,,,,,,,5ea97c4cbd6e6c07b00065e1,606a0f0ecd3a5661b270aa48,2021-04-04_21h14.50.335,Colour_Similarity_Experiment,2020.2.10,Win32,60,60675255c767bca6388caeee,18,16.70422535,16.76291793,17.10249671,16.70752089,16.76291793,,,,,,,,,,,,,,,,,,,,PF,3,strong,,,,,,,,7,3.37,,,,,,,,,,,,,,,,,,,,,,,,,,,,7,strong,36,102,1,0,0,response1disk,1,25,11,3,1,0,0,rectangle,11,3,1,0,0,6,4,0.002,11,3,1,0,0,0,24,24,132,1,0,,,,,,,,,,,,,,,,,,,,,
,,,,,,,,,,,,,,,,,,,,,,,,,,,,,,,,,,,,,,,,,,5ea97c4cbd6e6c07b00065e1,606a0f0ecd3a5661b270aa48,2021-04-04_21h14.50.335,Colour_Similarity_Experiment,2020.2.10,Win32,60,60675255c767bca6388caeee,18,16.70422535,16.76291793,17.10249671,16.70752089,16.76291793,,,,,,,,,,,,,,,,,,,,PF,3,weak,,,,,,,,0,3.593,,,,,,,,,,,,,,,,,,,,,,,,,,,,4,weak,-29,89,1,0,0,response7disk,1,26,-3,4,1,0,0,rectangle,-3,4,1,0,0,6,1,0.002,-3,4,1,0,0,0,25,25,115,1,0,,,,,,,,,,,,,,,,,,,,,
,,,,,,,,,,,,,,,,,,,,,,,,,,,,,,,,,,,,,,,,,,5ea97c4cbd6e6c07b00065e1,606a0f0ecd3a5661b270aa48,2021-04-04_21h14.50.335,Colour_Similarity_Experiment,2020.2.10,Win32,60,60675255c767bca6388caeee,18,16.70422535,16.76291793,17.10249671,16.70752089,16.76291793,,,,,,,,,,,,,,,,,,,,PF,3,weak,,,,,,,,6,2.255,,,,,,,,,,,,,,,,,,,,,,,,,,,,9,weak,66,24,1,0,0,response1disk,4,27,-3,2,1,0,0,rectangle,-3,2,1,0,0,6,6,0.002,-3,2,1,0,0,0,26,26,114,1,0,,,,,,,,,,,,,,,,,,,,,
,,,,,,,,,,,,,,,,,,,,,,,,,,,,,,,,,,,,,,,,,,5ea97c4cbd6e6c07b00065e1,606a0f0ecd3a5661b270aa48,2021-04-04_21h14.50.335,Colour_Similarity_Experiment,2020.2.10,Win32,60,60675255c767bca6388caeee,18,16.70422535,16.76291793,17.10249671,16.70752089,16.76291793,,,,,,,,,,,,,,,,,,,,PF,3,weak,,,,,,,,3,2.22,,,,,,,,,,,,,,,,,,,,,,,,,,,,4,weak,-33,-71,1,0,0,response5disk,7,28,6,3,1,0,0,rectangle,6,3,1,0,0,6,0,0.001,6,3,1,0,0,0,27,27,38,1,0,,,,,,,,,,,,,,,,,,,,,
,,,,,,,,,,,,,,,,,,,,,,,,,,,,,,,,,,,,,,,,,,5ea97c4cbd6e6c07b00065e1,606a0f0ecd3a5661b270aa48,2021-04-04_21h14.50.335,Colour_Similarity_Experiment,2020.2.10,Win32,60,60675255c767bca6388caeee,18,16.70422535,16.76291793,17.10249671,16.70752089,16.76291793,,,,,,,,,,,,,,,,,,,,PF,3,strong,,,,,,,,7,2.42,,,,,,,,,,,,,,,,,,,,,,,,,,,,8,strong,55,81,1,0,0,response1disk,5,29,-1,-1,1,0,0,rectangle,-1,-1,1,0,0,6,1,0.002,-1,-1,1,0,0,0,28,28,152,1,0,,,,,,,,,,,,,,,,,,,,,
,,,,,,,,,,,,,,,,,,,,,,,,,,,,,,,,,,,,,,,,,,5ea97c4cbd6e6c07b00065e1,606a0f0ecd3a5661b270aa48,2021-04-04_21h14.50.335,Colour_Similarity_Experiment,2020.2.10,Win32,60,60675255c767bca6388caeee,18,16.70422535,16.76291793,17.10249671,16.70752089,16.76291793,,,,,,,,,,,,,,,,,,,,PF,3,weak,,,,,,,,3,10.566,,,,,,,,,,,,,,,,,,,,,,,,,,,,1,weak,-60,-104,1,0,0,response5disk,3,30,-9,0,1,0,0,rectangle,-9,0,1,0,0,6,2,0.002,-9,0,1,0,0,0,29,29,1,1,0,,,,,,,,,,,,,,,,,,,,,
,,,,,,,,,,,,,,,,,,,,,,,,,,,,,,,,,,,,,,,,,,5ea97c4cbd6e6c07b00065e1,606a0f0ecd3a5661b270aa48,2021-04-04_21h14.50.335,Colour_Similarity_Experiment,2020.2.10,Win32,60,60675255c767bca6388caeee,18,16.70422535,16.76291793,17.10249671,16.70752089,16.76291793,,,,,,,,,,,,,,,,,,,,PF,3,weak,,,,,,,,0,3.387,,,,,,,,,,,,,,,,,,,,,,,,,,,,3,weak,-26,86,1,0,0,response7disk,3,31,-1,-4,1,0,0,rectangle,-1,-4,1,0,0,6,0,0.002,-1,-4,1,0,0,0,30,30,4,1,0,,,,,,,,,,,,,,,,,,,,,
,,,,,,,,,,,,,,,,,,,,,,,,,,,,,,,,,,,,,,,,,,5ea97c4cbd6e6c07b00065e1,606a0f0ecd3a5661b270aa48,2021-04-04_21h14.50.335,Colour_Similarity_Experiment,2020.2.10,Win32,60,60675255c767bca6388caeee,18,16.70422535,16.76291793,17.10249671,16.70752089,16.76291793,,,,,,,,,,,,,,,,,,,,PF,3,strong,,,,,,,,0,1.182,,,,,,,,,,,,,,,,,,,,,,,,,,,,1,strong,-48,109,1,0,0,response7disk,1,32,7,6,1,0,0,rectangle,7,6,1,0,0,6,6,0.002,7,6,1,0,0,0,31,31,151,1,0,,,,,,,,,,,,,,,,,,,,,
,,,,,,,,,,,,,,,,,,,,,,,,,,,,,,,,,,,,,,,,,,5ea97c4cbd6e6c07b00065e1,606a0f0ecd3a5661b270aa48,2021-04-04_21h14.50.335,Colour_Similarity_Experiment,2020.2.10,Win32,60,60675255c767bca6388caeee,18,16.70422535,16.76291793,17.10249671,16.70752089,16.76291793,,,,,,,,,,,,,,,,,,,,PF,3,strong,,,,,,,,6,2.386,,,,,,,,,,,,,,,,,,,,,,,,,,,,2,strong,80,39,1,0,0,response1disk,3,33,6,1,1,0,0,rectangle,-43,-87,1,0,0,3,3,2.766,-2,6,1,0,0,0,32,32,104,1,1,response5disk_3,rectangle,,,,,,,,,,,,,,,,,,,
,,,,,,,,,,,,,,,,,,,,,,,,,,,,,,,,,,,,,,,,,,5ea97c4cbd6e6c07b00065e1,606a0f0ecd3a5661b270aa48,2021-04-04_21h14.50.335,Colour_Similarity_Experiment,2020.2.10,Win32,60,60675255c767bca6388caeee,18,16.70422535,16.76291793,17.10249671,16.70752089,16.76291793,,,,,,,,,,,,,,,,,,,,PF,3,weak,,,,,,,,7,2.403,,,,,,,,,,,,,,,,,,,,,,,,,,,,4,weak,45,72,1,0,0,response1disk,5,34,15,1,1,0,0,rectangle,15,1,1,0,0,3,7,0.002,15,1,1,0,0,0,33,33,49,1,0,,,,,,,,,,,,,,,,,,,,,
,,,,,,,,,,,,,,,,,,,,,,,,,,,,,,,,,,,,,,,,,,5ea97c4cbd6e6c07b00065e1,606a0f0ecd3a5661b270aa48,2021-04-04_21h14.50.335,Colour_Similarity_Experiment,2020.2.10,Win32,60,60675255c767bca6388caeee,18,16.70422535,16.76291793,17.10249671,16.70752089,16.76291793,,,,,,,,,,,,,,,,,,,,PF,3,strong,,,,,,,,0,1.62,,,,,,,,,,,,,,,,,,,,,,,,,,,,2,strong,-34,94,1,0,0,response7disk,2,35,8,-3,1,0,0,rectangle,8,-3,1,0,0,3,2,0.002,8,-3,1,0,0,0,34,34,142,1,0,,,,,,,,,,,,,,,,,,,,,
,,,,,,,,,,,,,,,,,,,,,,,,,,,,,,,,,,,,,,,,,,5ea97c4cbd6e6c07b00065e1,606a0f0ecd3a5661b270aa48,2021-04-04_21h14.50.335,Colour_Similarity_Experiment,2020.2.10,Win32,60,60675255c767bca6388caeee,18,16.70422535,16.76291793,17.10249671,16.70752089,16.76291793,,,,,,,,,,,,,,,,,,,,PF,3,strong,,,,,,,,7,3.316,,,,,,,,,,,,,,,,,,,,,,,,,,,,5,strong,56,84,1,0,0,response1disk,1,36,-1,5,1,0,0,rectangle,-1,5,1,0,0,3,0,0.003,-1,5,1,0,0,0,35,35,131,1,0,,,,,,,,,,,,,,,,,,,,,
,,,,,,,,,,,,,,,,,,,,,,,,,,,,,,,,,,,,,,,,,,5ea97c4cbd6e6c07b00065e1,606a0f0ecd3a5661b270aa48,2021-04-04_21h14.50.335,Colour_Similarity_Experiment,2020.2.10,Win32,60,60675255c767bca6388caeee,18,16.70422535,16.76291793,17.10249671,16.70752089,16.76291793,,,,,,,,,,,,,,,,,,,,PF,3,weak,,,,,,,,6,1.937,,,,,,,,,,,,,,,,,,,,,,,,,,,,4,weak,95,34,1,0,0,response1disk,6,37,1,0,1,0,0,rectangle,1,0,1,0,0,3,2,0.002,1,0,1,0,0,0,36,36,120,1,0,,,,,,,,,,,,,,,,,,,,,
,,,,,,,,,,,,,,,,,,,,,,,,,,,,,,,,,,,,,,,,,,5ea97c4cbd6e6c07b00065e1,606a0f0ecd3a5661b270aa48,2021-04-04_21h14.50.335,Colour_Similarity_Experiment,2020.2.10,Win32,60,60675255c767bca6388caeee,18,16.70422535,16.76291793,17.10249671,16.70752089,16.76291793,,,,,,,,,,,,,,,,,,,,PF,3,strong,,,,,,,,7,4.021,,,,,,,,,,,,,,,,,,,,,,,,,,,,4,strong,32,70,1,0,0,response1disk,8,38,1,7,1,0,0,rectangle,1,7,1,0,0,3,1,0.002,1,7,1,0,0,0,37,37,35,1,0,,,,,,,,,,,,,,,,,,,,,
,,,,,,,,,,,,,,,,,,,,,,,,,,,,,,,,,,,,,,,,,,5ea97c4cbd6e6c07b00065e1,606a0f0ecd3a5661b270aa48,2021-04-04_21h14.50.335,Colour_Similarity_Experiment,2020.2.10,Win32,60,60675255c767bca6388caeee,18,16.70422535,16.76291793,17.10249671,16.70752089,16.76291793,,,,,,,,,,,,,,,,,,,,PF,3,weak,,,,,,,,3,4.005,,,,,,,,,,,,,,,,,,,,,,,,,,,,7,weak,-49,-79,1,0,0,response5disk,8,39,-2,1,1,0,0,rectangle,-2,1,1,0,0,3,0,0.002,-2,1,1,0,0,0,38,38,140,1,0,,,,,,,,,,,,,,,,,,,,,
,,,,,,,,,,,,,,,,,,,,,,,,,,,,,,,,,,,,,,,,,,5ea97c4cbd6e6c07b00065e1,606a0f0ecd3a5661b270aa48,2021-04-04_21h14.50.335,Colour_Similarity_Experiment,2020.2.10,Win32,60,60675255c767bca6388caeee,18,16.70422535,16.76291793,17.10249671,16.70752089,16.76291793,,,,,,,,,,,,,,,,,,,,PF,3,weak,,,,,,,,7,2.897,,,,,,,,,,,,,,,,,,,,,,,,,,,,2,weak,73,94,1,0,0,response1disk,1,40,-7,1,1,0,0,rectangle,-7,1,1,0,0,3,6,0.003,-7,1,1,0,0,0,39,39,9,1,0,,,,,,,,,,,,,,,,,,,,,
,,,,,,,,,,,,,,,,,,,,,,,,,,,,,,,,,,,,,,,,,,5ea97c4cbd6e6c07b00065e1,606a0f0ecd3a5661b270aa48,2021-04-04_21h14.50.335,Colour_Similarity_Experiment,2020.2.10,Win32,60,60675255c767bca6388caeee,18,16.70422535,16.76291793,17.10249671,16.70752089,16.76291793,,,,,,,,,,,,,,,,,,,,PF,3,weak,,,,,,,,1,1.555,,,,,,,,,,,,,,,,,,,,,,,,,,,,1,weak,-79,43,1,0,0,response7disk,9,41,-5,6,1,0,0,rectangle,-5,6,1,0,0,3,2,0.002,-5,6,1,0,0,0,40,40,15,1,0,,,,,,,,,,,,,,,,,,,,,
,,,,,,,,,,,,,,,,,,,,,,,,,,,,,,,,,,,,,,,,,,5ea97c4cbd6e6c07b00065e1,606a0f0ecd3a5661b270aa48,2021-04-04_21h14.50.335,Colour_Similarity_Experiment,2020.2.10,Win32,60,60675255c767bca6388caeee,18,16.70422535,16.76291793,17.10249671,16.70752089,16.76291793,,,,,,,,,,,,,,,,,,,,PF,3,weak,,,,,,,,6,4.169,,,,,,,,,,,,,,,,,,,,,,,,,,,,2,weak,73,62,1,0,0,response1disk,3,42,3,8,1,0,0,rectangle,3,8,1,0,0,3,5,0.002,3,8,1,0,0,0,41,41,69,1,0,,,,,,,,,,,,,,,,,,,,,
,,,,,,,,,,,,,,,,,,,,,,,,,,,,,,,,,,,,,,,,,,5ea97c4cbd6e6c07b00065e1,606a0f0ecd3a5661b270aa48,2021-04-04_21h14.50.335,Colour_Similarity_Experiment,2020.2.10,Win32,60,60675255c767bca6388caeee,18,16.70422535,16.76291793,17.10249671,16.70752089,16.76291793,,,,,,,,,,,,,,,,,,,,PF,3,strong,,,,,,,,4,4.47,,,,,,,,,,,,,,,,,,,,,,,,,,,,9,strong,33,-60,1,0,0,response3disk,7,43,-7,2,1,0,0,rectangle,-7,2,1,0,0,3,0,0.002,-7,2,1,0,0,0,42,42,100,1,0,,,,,,,,,,,,,,,,,,,,,
,,,,,,,,,,,,,,,,,,,,,,,,,,,,,,,,,,,,,,,,,,5ea97c4cbd6e6c07b00065e1,606a0f0ecd3a5661b270aa48,2021-04-04_21h14.50.335,Colour_Similarity_Experiment,2020.2.10,Win32,60,60675255c767bca6388caeee,18,16.70422535,16.76291793,17.10249671,16.70752089,16.76291793,,,,,,,,,,,,,,,,,,,,PF,3,strong,,,,,,,,6,2.584,,,,,,,,,,,,,,,,,,,,,,,,,,,,8,strong,87,42,1,0,0,response1disk,9,44,2,1,1,0,0,rectangle,2,1,1,0,0,3,7,0.002,2,1,1,0,0,0,43,43,105,1,0,,,,,,,,,,,,,,,,,,,,,
,,,,,,,,,,,,,,,,,,,,,,,,,,,,,,,,,,,,,,,,,,5ea97c4cbd6e6c07b00065e1,606a0f0ecd3a5661b270aa48,2021-04-04_21h14.50.335,Colour_Similarity_Experiment,2020.2.10,Win32,60,60675255c767bca6388caeee,18,16.70422535,16.76291793,17.10249671,16.70752089,16.76291793,,,,,,,,,,,,,,,,,,,,PF,3,weak,,,,,,,,5,8.793,,,,,,,,,,,,,,,,,,,,,,,,,,,,7,weak,80,-44,1,0,0,response3disk,9,45,7,-2,1,0,0,rectangle,7,-2,1,0,0,3,7,0,7,-2,1,0,0,0,44,44,10,1,0,,,,,,,,,,,,,,,,,,,,,
,,,,,,,,,,,,,,,,,,,,,,,,,,,,,,,,,,,,,,,,,,5ea97c4cbd6e6c07b00065e1,606a0f0ecd3a5661b270aa48,2021-04-04_21h14.50.335,Colour_Similarity_Experiment,2020.2.10,Win32,60,60675255c767bca6388caeee,18,16.70422535,16.76291793,17.10249671,16.70752089,16.76291793,,,,,,,,,,,,,,,,,,,,PF,3,weak,,,,,,,,7,1.431,,,,,,,,,,,,,,,,,,,,,,,,,,,,8,weak,36,80,1,0,0,response1disk,5,46,-9,3,1,0,0,rectangle,-9,3,1,0,0,3,0,0.002,-9,3,1,0,0,0,45,45,98,1,0,,,,,,,,,,,,,,,,,,,,,
,,,,,,,,,,,,,,,,,,,,,,,,,,,,,,,,,,,,,,,,,,5ea97c4cbd6e6c07b00065e1,606a0f0ecd3a5661b270aa48,2021-04-04_21h14.50.335,Colour_Similarity_Experiment,2020.2.10,Win32,60,60675255c767bca6388caeee,18,16.70422535,16.76291793,17.10249671,16.70752089,16.76291793,,,,,,,,,,,,,,,,,,,,PF,3,strong,,,,,,,,7,1.775,,,,,,,,,,,,,,,,,,,,,,,,,,,,2,strong,41,108,1,0,0,response1disk,1,47,-6,0,1,0,0,rectangle,-6,0,1,0,0,3,4,0.003,-6,0,1,0,0,0,46,46,85,1,0,,,,,,,,,,,,,,,,,,,,,
,,,,,,,,,,,,,,,,,,,,,,,,,,,,,,,,,,,,,,,,,,5ea97c4cbd6e6c07b00065e1,606a0f0ecd3a5661b270aa48,2021-04-04_21h14.50.335,Colour_Similarity_Experiment,2020.2.10,Win32,60,60675255c767bca6388caeee,18,16.70422535,16.76291793,17.10249671,16.70752089,16.76291793,,,,,,,,,,,,,,,,,,,,PF,3,strong,,,,,,,,6,1.921,,,,,,,,,,,,,,,,,,,,,,,,,,,,1,strong,94,23,1,0,0,response1disk,7,48,-4,1,1,0,0,rectangle,-4,1,1,0,0,3,2,0.002,-4,1,1,0,0,0,47,47,137,1,0,,,,,,,,,,,,,,,,,,,,,
,,,,,,,,,,,,,,,,,,,,,,,,,,,,,,,,,,,,,,,,,,5ea97c4cbd6e6c07b00065e1,606a0f0ecd3a5661b270aa48,2021-04-04_21h14.50.335,Colour_Similarity_Experiment,2020.2.10,Win32,60,60675255c767bca6388caeee,18,16.70422535,16.76291793,17.10249671,16.70752089,16.76291793,,,,,,,,,,,,,,,,,,,,PF,3,weak,,,,,,,,6,2.05,,,,,,,,,,,,,,,,,,,,,,,,,,,,1,weak,76,46,1,0,0,response1disk,4,49,20,12,1,0,0,rectangle,20,12,1,0,0,3,4,0.002,20,12,1,0,0,0,48,48,139,1,0,,,,,,,,,,,,,,,,,,,,,
,,,,,,,,,,,,,,,,,,,,,,,,,,,,,,,,,,,,,,,,,,5ea97c4cbd6e6c07b00065e1,606a0f0ecd3a5661b270aa48,2021-04-04_21h14.50.335,Colour_Similarity_Experiment,2020.2.10,Win32,60,60675255c767bca6388caeee,18,16.70422535,16.76291793,17.10249671,16.70752089,16.76291793,,,,,,,,,,,,,,,,,,,,PF,3,weak,,,,,,,,7,3.136,,,,,,,,,,,,,,,,,,,,,,,,,,,,5,weak,45,76,1,0,0,response1disk,2,50,13,9,1,0,0,rectangle,13,9,1,0,0,3,1,0.002,13,9,1,0,0,0,49,49,129,1,0,,,,,,,,,,,,,,,,,,,,,
,,,,,,,,,,,,,,,,,,,,,,,,,,,,,,,,,,,,,,,,,,5ea97c4cbd6e6c07b00065e1,606a0f0ecd3a5661b270aa48,2021-04-04_21h14.50.335,Colour_Similarity_Experiment,2020.2.10,Win32,60,60675255c767bca6388caeee,18,16.70422535,16.76291793,17.10249671,16.70752089,16.76291793,,,,,,,,,,,,,,,,,,,,PF,3,strong,,,,,,,,7,5.454,,,,,,,,,,,,,,,,,,,,,,,,,,,,2,strong,41,85,1,0,0,response1disk,5,51,0,-1,1,0,0,rectangle,0,-1,1,0,0,3,1,0,0,-1,1,0,0,0,50,50,80,1,0,,,,,,,,,,,,,,,,,,,,,
,,,,,,,,,,,,,,,,,,,,,,,,,,,,,,,,,,,,,,,,,,5ea97c4cbd6e6c07b00065e1,606a0f0ecd3a5661b270aa48,2021-04-04_21h14.50.335,Colour_Similarity_Experiment,2020.2.10,Win32,60,60675255c767bca6388caeee,18,16.70422535,16.76291793,17.10249671,16.70752089,16.76291793,,,,,,,,,,,,,,,,,,,,PF,3,weak,,,,,,,,7,0.938,,,,,,,,,,,,,,,,,,,,,,,,,,,,1,weak,21,90,1,0,0,response1disk,1,52,-9,10,1,0,0,rectangle,-27,74,1,0,0,0,0,1.55,5,-1,1,0,0,0,51,51,76,1,1,response7disk_3,rectangle,,,,,,,,,,,,,,,,,,,
,,,,,,,,,,,,,,,,,,,,,,,,,,,,,,,,,,,,,,,,,,5ea97c4cbd6e6c07b00065e1,606a0f0ecd3a5661b270aa48,2021-04-04_21h14.50.335,Colour_Similarity_Experiment,2020.2.10,Win32,60,60675255c767bca6388caeee,18,16.70422535,16.76291793,17.10249671,16.70752089,16.76291793,,,,,,,,,,,,,,,,,,,,PF,3,strong,,,,,,,,7,1.411,,,,,,,,,,,,,,,,,,,,,,,,,,,,9,strong,30,90,1,0,0,response1disk,8,53,1,2,1,0,0,rectangle,1,2,1,0,0,0,1,0.001,1,2,1,0,0,0,52,52,6,1,0,,,,,,,,,,,,,,,,,,,,,
,,,,,,,,,,,,,,,,,,,,,,,,,,,,,,,,,,,,,,,,,,5ea97c4cbd6e6c07b00065e1,606a0f0ecd3a5661b270aa48,2021-04-04_21h14.50.335,Colour_Similarity_Experiment,2020.2.10,Win32,60,60675255c767bca6388caeee,18,16.70422535,16.76291793,17.10249671,16.70752089,16.76291793,,,,,,,,,,,,,,,,,,,,PF,3,strong,,,,,,,,7,1.288,,,,,,,,,,,,,,,,,,,,,,,,,,,,1,strong,28,92,1,0,0,response1disk,5,54,7,5,1,0,0,rectangle,7,5,1,0,0,0,7,0.002,7,5,1,0,0,0,53,53,82,1,0,,,,,,,,,,,,,,,,,,,,,
,,,,,,,,,,,,,,,,,,,,,,,,,,,,,,,,,,,,,,,,,,5ea97c4cbd6e6c07b00065e1,606a0f0ecd3a5661b270aa48,2021-04-04_21h14.50.335,Colour_Similarity_Experiment,2020.2.10,Win32,60,60675255c767bca6388caeee,18,16.70422535,16.76291793,17.10249671,16.70752089,16.76291793,,,,,,,,,,,,,,,,,,,,PF,3,weak,,,,,,,,2,2.127,,,,,,,,,,,,,,,,,,,,,,,,,,,,5,weak,-75,-39,1,0,0,response5disk,4,55,-6,-3,1,0,0,rectangle,-6,-3,1,0,0,0,7,0.001,-6,-3,1,0,0,0,54,54,54,1,0,,,,,,,,,,,,,,,,,,,,,
,,,,,,,,,,,,,,,,,,,,,,,,,,,,,,,,,,,,,,,,,,5ea97c4cbd6e6c07b00065e1,606a0f0ecd3a5661b270aa48,2021-04-04_21h14.50.335,Colour_Similarity_Experiment,2020.2.10,Win32,60,60675255c767bca6388caeee,18,16.70422535,16.76291793,17.10249671,16.70752089,16.76291793,,,,,,,,,,,,,,,,,,,,PF,3,strong,,,,,,,,3,2.433,,,,,,,,,,,,,,,,,,,,,,,,,,,,3,strong,-57,-92,1,0,0,response5disk,4,56,-8,0,1,0,0,rectangle,-8,0,1,0,0,0,0,0.002,-8,0,1,0,0,0,55,55,110,1,0,,,,,,,,,,,,,,,,,,,,,
,,,,,,,,,,,,,,,,,,,,,,,,,,,,,,,,,,,,,,,,,,5ea97c4cbd6e6c07b00065e1,606a0f0ecd3a5661b270aa48,2021-04-04_21h14.50.335,Colour_Similarity_Experiment,2020.2.10,Win32,60,60675255c767bca6388caeee,18,16.70422535,16.76291793,17.10249671,16.70752089,16.76291793,,,,,,,,,,,,,,,,,,,,PF,3,strong,,,,,,,,5,1.867,,,,,,,,,,,,,,,,,,,,,,,,,,,,6,strong,76,-48,1,0,0,response3disk,1,57,4,3,1,0,0,rectangle,4,3,1,0,0,0,0,0,4,3,1,0,0,0,56,56,5,1,0,,,,,,,,,,,,,,,,,,,,,
,,,,,,,,,,,,,,,,,,,,,,,,,,,,,,,,,,,,,,,,,,5ea97c4cbd6e6c07b00065e1,606a0f0ecd3a5661b270aa48,2021-04-04_21h14.50.335,Colour_Similarity_Experiment,2020.2.10,Win32,60,60675255c767bca6388caeee,18,16.70422535,16.76291793,17.10249671,16.70752089,16.76291793,,,,,,,,,,,,,,,,,,,,PF,3,strong,,,,,,,,0,1.096,,,,,,,,,,,,,,,,,,,,,,,,,,,,9,strong,-43,83,1,0,0,response7disk,9,58,4,2,1,0,0,rectangle,4,2,1,0,0,0,0,0,4,2,1,0,0,0,57,57,17,1,0,,,,,,,,,,,,,,,,,,,,,
,,,,,,,,,,,,,,,,,,,,,,,,,,,,,,,,,,,,,,,,,,5ea97c4cbd6e6c07b00065e1,606a0f0ecd3a5661b270aa48,2021-04-04_21h14.50.335,Colour_Similarity_Experiment,2020.2.10,Win32,60,60675255c767bca6388caeee,18,16.70422535,16.76291793,17.10249671,16.70752089,16.76291793,,,,,,,,,,,,,,,,,,,,PF,3,weak,,,,,,,,1,1.227,,,,,,,,,,,,,,,,,,,,,,,,,,,,6,weak,-48,27,1,0,0,response7disk,7,59,-13,8,1,0,0,rectangle,-13,8,1,0,0,0,7,0.003,-13,8,1,0,0,0,58,58,50,1,0,,,,,,,,,,,,,,,,,,,,,
,,,,,,,,,,,,,,,,,,,,,,,,,,,,,,,,,,,,,,,,,,5ea97c4cbd6e6c07b00065e1,606a0f0ecd3a5661b270aa48,2021-04-04_21h14.50.335,Colour_Similarity_Experiment,2020.2.10,Win32,60,60675255c767bca6388caeee,18,16.70422535,16.76291793,17.10249671,16.70752089,16.76291793,,,,,,,,,,,,,,,,,,,,PF,3,weak,,,,,,,,6,1.799,,,,,,,,,,,,,,,,,,,,,,,,,,,,5,weak,96,30,1,0,0,response1disk,1,60,11,3,1,0,0,rectangle,41,98,1,0,0,7,7,1.282,4,4,1,0,0,0,59,59,159,1,1,response1disk_3,rectangle,,,,,,,,,,,,,,,,,,,
,,,,,,,,,,,,,,,,,,,,,,,,,,,,,,,,,,,,,,,,,,5ea97c4cbd6e6c07b00065e1,606a0f0ecd3a5661b270aa48,2021-04-04_21h14.50.335,Colour_Similarity_Experiment,2020.2.10,Win32,60,60675255c767bca6388caeee,18,16.70422535,16.76291793,17.10249671,16.70752089,16.76291793,,,,,,,,,,,,,,,,,,,,PF,3,strong,,,,,,,,3,2.434,,,,,,,,,,,,,,,,,,,,,,,,,,,,6,strong,-38,-76,1,0,0,response5disk,3,61,-16,-3,1,0,0,rectangle,-16,-3,1,0,0,7,7,0,-16,-3,1,0,0,0,60,60,21,1,0,,,,,,,,,,,,,,,,,,,,,
,,,,,,,,,,,,,,,,,,,,,,,,,,,,,,,,,,,,,,,,,,5ea97c4cbd6e6c07b00065e1,606a0f0ecd3a5661b270aa48,2021-04-04_21h14.50.335,Colour_Similarity_Experiment,2020.2.10,Win32,60,60675255c767bca6388caeee,18,16.70422535,16.76291793,17.10249671,16.70752089,16.76291793,,,,,,,,,,,,,,,,,,,,PF,3,strong,,,,,,,,4,3.636,,,,,,,,,,,,,,,,,,,,,,,,,,,,5,strong,43,-86,1,0,0,response3disk,7,62,-5,8,1,0,0,rectangle,-5,8,1,0,0,7,4,0.002,-5,8,1,0,0,0,61,61,7,1,0,,,,,,,,,,,,,,,,,,,,,
,,,,,,,,,,,,,,,,,,,,,,,,,,,,,,,,,,,,,,,,,,5ea97c4cbd6e6c07b00065e1,606a0f0ecd3a5661b270aa48,2021-04-04_21h14.50.335,Colour_Similarity_Experiment,2020.2.10,Win32,60,60675255c767bca6388caeee,18,16.70422535,16.76291793,17.10249671,16.70752089,16.76291793,,,,,,,,,,,,,,,,,,,,PF,3,strong,,,,,,,,3,2.605,,,,,,,,,,,,,,,,,,,,,,,,,,,,6,strong,-41,-82,1,0,0,response5disk,8,63,15,4,1,0,0,rectangle,15,4,1,0,0,7,4,0,15,4,1,0,0,0,62,62,133,1,0,,,,,,,,,,,,,,,,,,,,,
,,,,,,,,,,,,,,,,,,,,,,,,,,,,,,,,,,,,,,,,,,5ea97c4cbd6e6c07b00065e1,606a0f0ecd3a5661b270aa48,2021-04-04_21h14.50.335,Colour_Similarity_Experiment,2020.2.10,Win32,60,60675255c767bca6388caeee,18,16.70422535,16.76291793,17.10249671,16.70752089,16.76291793,,,,,,,,,,,,,,,,,,,,PF,3,strong,,,,,,,,6,1.595,,,,,,,,,,,,,,,,,,,,,,,,,,,,1,strong,78,56,1,0,0,response1disk,4,64,13,1,1,0,0,rectangle,13,1,1,0,0,7,7,0.002,13,1,1,0,0,0,63,63,135,1,0,,,,,,,,,,,,,,,,,,,,,
,,,,,,,,,,,,,,,,,,,,,,,,,,,,,,,,,,,,,,,,,,5ea97c4cbd6e6c07b00065e1,606a0f0ecd3a5661b270aa48,2021-04-04_21h14.50.335,Colour_Similarity_Experiment,2020.2.10,Win32,60,60675255c767bca6388caeee,18,16.70422535,16.76291793,17.10249671,16.70752089,16.76291793,,,,,,,,,,,,,,,,,,,,PF,3,weak,,,,,,,,7,1.18,,,,,,,,,,,,,,,,,,,,,,,,,,,,1,weak,38,83,1,0,0,response1disk,7,65,-12,-12,1,0,0,rectangle,-12,-12,1,0,0,7,7,0.001,-12,-12,1,0,0,0,64,64,150,1,0,,,,,,,,,,,,,,,,,,,,,
,,,,,,,,,,,,,,,,,,,,,,,,,,,,,,,,,,,,,,,,,,5ea97c4cbd6e6c07b00065e1,606a0f0ecd3a5661b270aa48,2021-04-04_21h14.50.335,Colour_Similarity_Experiment,2020.2.10,Win32,60,60675255c767bca6388caeee,18,16.70422535,16.76291793,17.10249671,16.70752089,16.76291793,,,,,,,,,,,,,,,,,,,,PF,3,strong,,,,,,,,7,1.081,,,,,,,,,,,,,,,,,,,,,,,,,,,,3,strong,30,113,1,0,0,response1disk,1,66,-8,-5,1,0,0,rectangle,-8,-5,1,0,0,7,5,0.001,-8,-5,1,0,0,0,65,65,125,1,0,,,,,,,,,,,,,,,,,,,,,
,,,,,,,,,,,,,,,,,,,,,,,,,,,,,,,,,,,,,,,,,,5ea97c4cbd6e6c07b00065e1,606a0f0ecd3a5661b270aa48,2021-04-04_21h14.50.335,Colour_Similarity_Experiment,2020.2.10,Win32,60,60675255c767bca6388caeee,18,16.70422535,16.76291793,17.10249671,16.70752089,16.76291793,,,,,,,,,,,,,,,,,,,,PF,3,weak,,,,,,,,2,1.514,,,,,,,,,,,,,,,,,,,,,,,,,,,,3,weak,-99,-27,1,0,0,response5disk,5,67,-17,1,1,0,0,rectangle,-17,1,1,0,0,7,2,0.002,-17,1,1,0,0,0,66,66,66,1,0,,,,,,,,,,,,,,,,,,,,,
,,,,,,,,,,,,,,,,,,,,,,,,,,,,,,,,,,,,,,,,,,5ea97c4cbd6e6c07b00065e1,606a0f0ecd3a5661b270aa48,2021-04-04_21h14.50.335,Colour_Similarity_Experiment,2020.2.10,Win32,60,60675255c767bca6388caeee,18,16.70422535,16.76291793,17.10249671,16.70752089,16.76291793,,,,,,,,,,,,,,,,,,,,PF,3,weak,,,,,,,,1,1.29,,,,,,,,,,,,,,,,,,,,,,,,,,,,9,weak,-73,37,1,0,0,response7disk,8,68,3,3,1,0,0,rectangle,3,3,1,0,0,7,2,0,3,3,1,0,0,0,67,67,67,1,0,,,,,,,,,,,,,,,,,,,,,
,,,,,,,,,,,,,,,,,,,,,,,,,,,,,,,,,,,,,,,,,,5ea97c4cbd6e6c07b00065e1,606a0f0ecd3a5661b270aa48,2021-04-04_21h14.50.335,Colour_Similarity_Experiment,2020.2.10,Win32,60,60675255c767bca6388caeee,18,16.70422535,16.76291793,17.10249671,16.70752089,16.76291793,,,,,,,,,,,,,,,,,,,,PF,3,weak,,,,,,,,7,0.879,,,,,,,,,,,,,,,,,,,,,,,,,,,,6,weak,21,101,1,0,0,response1disk,5,69,6,8,1,0,0,rectangle,6,8,1,0,0,7,7,0.002,6,8,1,0,0,0,68,68,59,1,0,,,,,,,,,,,,,,,,,,,,,
,,,,,,,,,,,,,,,,,,,,,,,,,,,,,,,,,,,,,,,,,,5ea97c4cbd6e6c07b00065e1,606a0f0ecd3a5661b270aa48,2021-04-04_21h14.50.335,Colour_Similarity_Experiment,2020.2.10,Win32,60,60675255c767bca6388caeee,18,16.70422535,16.76291793,17.10249671,16.70752089,16.76291793,,,,,,,,,,,,,,,,,,,,PF,3,weak,,,,,,,,1,2.799,,,,,,,,,,,,,,,,,,,,,,,,,,,,7,weak,-73,43,1,0,0,response7disk,5,70,-2,5,1,0,0,rectangle,-2,5,1,0,0,7,7,0.001,-2,5,1,0,0,0,69,69,92,1,0,,,,,,,,,,,,,,,,,,,,,
,,,,,,,,,,,,,,,,,,,,,,,,,,,,,,,,,,,,,,,,,,5ea97c4cbd6e6c07b00065e1,606a0f0ecd3a5661b270aa48,2021-04-04_21h14.50.335,Colour_Similarity_Experiment,2020.2.10,Win32,60,60675255c767bca6388caeee,18,16.70422535,16.76291793,17.10249671,16.70752089,16.76291793,,,,,,,,,,,,,,,,,,,,PF,3,weak,,,,,,,,6,1.414,,,,,,,,,,,,,,,,,,,,,,,,,,,,4,weak,92,52,1,0,0,response1disk,8,71,-7,10,1,0,0,rectangle,-7,10,1,0,0,7,6,0.003,-7,10,1,0,0,0,70,70,124,1,0,,,,,,,,,,,,,,,,,,,,,
,,,,,,,,,,,,,,,,,,,,,,,,,,,,,,,,,,,,,,,,,,5ea97c4cbd6e6c07b00065e1,606a0f0ecd3a5661b270aa48,2021-04-04_21h14.50.335,Colour_Similarity_Experiment,2020.2.10,Win32,60,60675255c767bca6388caeee,18,16.70422535,16.76291793,17.10249671,16.70752089,16.76291793,,,,,,,,,,,,,,,,,,,,PF,3,weak,,,,,,,,7,1.047,,,,,,,,,,,,,,,,,,,,,,,,,,,,7,weak,42,79,1,0,0,response1disk,3,72,9,9,1,0,0,rectangle,9,9,1,0,0,7,2,0.002,9,9,1,0,0,0,71,71,81,1,0,,,,,,,,,,,,,,,,,,,,,
,,,,,,,,,,,,,,,,,,,,,,,,,,,,,,,,,,,,,,,,,,5ea97c4cbd6e6c07b00065e1,606a0f0ecd3a5661b270aa48,2021-04-04_21h14.50.335,Colour_Similarity_Experiment,2020.2.10,Win32,60,60675255c767bca6388caeee,18,16.70422535,16.76291793,17.10249671,16.70752089,16.76291793,,,,,,,,,,,,,,,,,,,,PF,3,weak,,,,,,,,7,0.965,,,,,,,,,,,,,,,,,,,,,,,,,,,,1,weak,28,72,1,0,0,response1disk,6,73,-4,2,1,0,0,rectangle,-4,2,1,0,0,7,7,0.002,-4,2,1,0,0,0,72,72,144,1,0,,,,,,,,,,,,,,,,,,,,,
,,,,,,,,,,,,,,,,,,,,,,,,,,,,,,,,,,,,,,,,,,5ea97c4cbd6e6c07b00065e1,606a0f0ecd3a5661b270aa48,2021-04-04_21h14.50.335,Colour_Similarity_Experiment,2020.2.10,Win32,60,60675255c767bca6388caeee,18,16.70422535,16.76291793,17.10249671,16.70752089,16.76291793,,,,,,,,,,,,,,,,,,,,PF,3,strong,,,,,,,,7,2.264,,,,,,,,,,,,,,,,,,,,,,,,,,,,8,strong,45,94,1,0,0,response1disk,8,74,-3,-1,1,0,0,rectangle,-3,-1,1,0,0,7,5,0.003,-3,-1,1,0,0,0,73,73,48,1,0,,,,,,,,,,,,,,,,,,,,,
,,,,,,,,,,,,,,,,,,,,,,,,,,,,,,,,,,,,,,,,,,5ea97c4cbd6e6c07b00065e1,606a0f0ecd3a5661b270aa48,2021-04-04_21h14.50.335,Colour_Similarity_Experiment,2020.2.10,Win32,60,60675255c767bca6388caeee,18,16.70422535,16.76291793,17.10249671,16.70752089,16.76291793,,,,,,,,,,,,,,,,,,,,PF,3,weak,,,,,,,,5,2.286,,,,,,,,,,,,,,,,,,,,,,,,,,,,8,weak,100,-24,1,0,0,response3disk,3,75,-1,1,1,0,0,rectangle,-1,1,1,0,0,7,4,0.002,-1,1,1,0,0,0,74,74,71,1,0,,,,,,,,,,,,,,,,,,,,,
,,,,,,,,,,,,,,,,,,,,,,,,,,,,,,,,,,,,,,,,,,5ea97c4cbd6e6c07b00065e1,606a0f0ecd3a5661b270aa48,2021-04-04_21h14.50.335,Colour_Similarity_Experiment,2020.2.10,Win32,60,60675255c767bca6388caeee,18,16.70422535,16.76291793,17.10249671,16.70752089,16.76291793,,,,,,,,,,,,,,,,,,,,PF,3,strong,,,,,,,,6,1.521,,,,,,,,,,,,,,,,,,,,,,,,,,,,3,strong,88,43,1,0,0,response1disk,7,76,8,4,1,0,0,rectangle,8,4,1,0,0,7,0,0.001,8,4,1,0,0,0,75,75,118,1,0,,,,,,,,,,,,,,,,,,,,,
,,,,,,,,,,,,,,,,,,,,,,,,,,,,,,,,,,,,,,,,,,5ea97c4cbd6e6c07b00065e1,606a0f0ecd3a5661b270aa48,2021-04-04_21h14.50.335,Colour_Similarity_Experiment,2020.2.10,Win32,60,60675255c767bca6388caeee,18,16.70422535,16.76291793,17.10249671,16.70752089,16.76291793,,,,,,,,,,,,,,,,,,,,PF,3,weak,,,,,,,,2,1.777,,,,,,,,,,,,,,,,,,,,,,,,,,,,1,weak,-80,-29,1,0,0,response5disk,2,77,10,2,1,0,0,rectangle,10,2,1,0,0,7,4,0.002,10,2,1,0,0,0,76,76,24,1,0,,,,,,,,,,,,,,,,,,,,,
,,,,,,,,,,,,,,,,,,,,,,,,,,,,,,,,,,,,,,,,,,5ea97c4cbd6e6c07b00065e1,606a0f0ecd3a5661b270aa48,2021-04-04_21h14.50.335,Colour_Similarity_Experiment,2020.2.10,Win32,60,60675255c767bca6388caeee,18,16.70422535,16.76291793,17.10249671,16.70752089,16.76291793,,,,,,,,,,,,,,,,,,,,PF,3,weak,,,,,,,,1,1.038,,,,,,,,,,,,,,,,,,,,,,,,,,,,7,weak,-70,25,1,0,0,response7disk,6,78,11,-4,1,0,0,rectangle,11,-4,1,0,0,7,4,0,11,-4,1,0,0,0,77,77,29,1,0,,,,,,,,,,,,,,,,,,,,,
,,,,,,,,,,,,,,,,,,,,,,,,,,,,,,,,,,,,,,,,,,5ea97c4cbd6e6c07b00065e1,606a0f0ecd3a5661b270aa48,2021-04-04_21h14.50.335,Colour_Similarity_Experiment,2020.2.10,Win32,60,60675255c767bca6388caeee,18,16.70422535,16.76291793,17.10249671,16.70752089,16.76291793,,,,,,,,,,,,,,,,,,,,PF,3,strong,,,,,,,,5,1.688,,,,,,,,,,,,,,,,,,,,,,,,,,,,6,strong,80,-26,1,0,0,response3disk,2,79,7,-1,1,0,0,rectangle,7,-1,1,0,0,7,1,0.002,7,-1,1,0,0,0,78,78,112,1,0,,,,,,,,,,,,,,,,,,,,,
,,,,,,,,,,,,,,,,,,,,,,,,,,,,,,,,,,,,,,,,,,5ea97c4cbd6e6c07b00065e1,606a0f0ecd3a5661b270aa48,2021-04-04_21h14.50.335,Colour_Similarity_Experiment,2020.2.10,Win32,60,60675255c767bca6388caeee,18,16.70422535,16.76291793,17.10249671,16.70752089,16.76291793,,,,,,,,,,,,,,,,,,,,PF,3,weak,,,,,,,,4,2.09,,,,,,,,,,,,,,,,,,,,,,,,,,,,6,weak,24,-79,1,0,0,response3disk,3,80,7,-4,1,0,0,rectangle,7,-4,1,0,0,7,3,0.002,7,-4,1,0,0,0,79,79,26,1,0,,,,,,,,,,,,,,,,,,,,,
,,,,,,,,,,,,,,,,,,,,,,,,,,,,,,,,,,,,,,,,,,5ea97c4cbd6e6c07b00065e1,606a0f0ecd3a5661b270aa48,2021-04-04_21h14.50.335,Colour_Similarity_Experiment,2020.2.10,Win32,60,60675255c767bca6388caeee,18,16.70422535,16.76291793,17.10249671,16.70752089,16.76291793,,,,,,,,,,,,,,,,,,,,PF,3,strong,,,,,,,,7,1.093,,,,,,,,,,,,,,,,,,,,,,,,,,,,7,strong,39,81,1,0,0,response1disk,2,81,5,-4,1,0,0,rectangle,5,-4,1,0,0,7,0,0.002,5,-4,1,0,0,0,80,80,138,1,0,,,,,,,,,,,,,,,,,,,,,
,,,,,,,,,,,,,,,,,,,,,,,,,,,,,,,,,,,,,,,,,,5ea97c4cbd6e6c07b00065e1,606a0f0ecd3a5661b270aa48,2021-04-04_21h14.50.335,Colour_Similarity_Experiment,2020.2.10,Win32,60,60675255c767bca6388caeee,18,16.70422535,16.76291793,17.10249671,16.70752089,16.76291793,,,,,,,,,,,,,,,,,,,,PF,3,strong,,,,,,,,1,1.495,,,,,,,,,,,,,,,,,,,,,,,,,,,,5,strong,-55,27,1,0,0,response7disk,6,82,11,2,1,0,0,rectangle,11,2,1,0,0,7,3,0.002,11,2,1,0,0,0,81,81,12,1,0,,,,,,,,,,,,,,,,,,,,,
,,,,,,,,,,,,,,,,,,,,,,,,,,,,,,,,,,,,,,,,,,5ea97c4cbd6e6c07b00065e1,606a0f0ecd3a5661b270aa48,2021-04-04_21h14.50.335,Colour_Similarity_Experiment,2020.2.10,Win32,60,60675255c767bca6388caeee,18,16.70422535,16.76291793,17.10249671,16.70752089,16.76291793,,,,,,,,,,,,,,,,,,,,PF,3,strong,,,,,,,,0,1.138,,,,,,,,,,,,,,,,,,,,,,,,,,,,4,strong,-36,93,1,0,0,response7disk,3,83,2,0,1,0,0,rectangle,2,0,1,0,0,7,7,0.001,2,0,1,0,0,0,82,82,77,1,0,,,,,,,,,,,,,,,,,,,,,
,,,,,,,,,,,,,,,,,,,,,,,,,,,,,,,,,,,,,,,,,,5ea97c4cbd6e6c07b00065e1,606a0f0ecd3a5661b270aa48,2021-04-04_21h14.50.335,Colour_Similarity_Experiment,2020.2.10,Win32,60,60675255c767bca6388caeee,18,16.70422535,16.76291793,17.10249671,16.70752089,16.76291793,,,,,,,,,,,,,,,,,,,,PF,3,strong,,,,,,,,1,1.372,,,,,,,,,,,,,,,,,,,,,,,,,,,,4,strong,-96,46,1,0,0,response7disk,5,84,15,-3,1,0,0,rectangle,15,-3,1,0,0,7,0,0.002,15,-3,1,0,0,0,83,83,116,1,0,,,,,,,,,,,,,,,,,,,,,
,,,,,,,,,,,,,,,,,,,,,,,,,,,,,,,,,,,,,,,,,,5ea97c4cbd6e6c07b00065e1,606a0f0ecd3a5661b270aa48,2021-04-04_21h14.50.335,Colour_Similarity_Experiment,2020.2.10,Win32,60,60675255c767bca6388caeee,18,16.70422535,16.76291793,17.10249671,16.70752089,16.76291793,,,,,,,,,,,,,,,,,,,,PF,3,strong,,,,,,,,7,1.354,,,,,,,,,,,,,,,,,,,,,,,,,,,,5,strong,32,96,1,0,0,response1disk,8,85,-2,2,1,0,0,rectangle,-2,2,1,0,0,7,2,0.003,-2,2,1,0,0,0,84,84,16,1,0,,,,,,,,,,,,,,,,,,,,,
,,,,,,,,,,,,,,,,,,,,,,,,,,,,,,,,,,,,,,,,,,5ea97c4cbd6e6c07b00065e1,606a0f0ecd3a5661b270aa48,2021-04-04_21h14.50.335,Colour_Similarity_Experiment,2020.2.10,Win32,60,60675255c767bca6388caeee,18,16.70422535,16.76291793,17.10249671,16.70752089,16.76291793,,,,,,,,,,,,,,,,,,,,PF,3,weak,,,,,,,,7,0.805,,,,,,,,,,,,,,,,,,,,,,,,,,,,6,weak,21,61,1,0,0,response1disk,2,86,-10,-6,1,0,0,rectangle,-10,-6,1,0,0,7,0,0.002,-10,-6,1,0,0,0,85,85,130,1,0,,,,,,,,,,,,,,,,,,,,,
,,,,,,,,,,,,,,,,,,,,,,,,,,,,,,,,,,,,,,,,,,5ea97c4cbd6e6c07b00065e1,606a0f0ecd3a5661b270aa48,2021-04-04_21h14.50.335,Colour_Similarity_Experiment,2020.2.10,Win32,60,60675255c767bca6388caeee,18,16.70422535,16.76291793,17.10249671,16.70752089,16.76291793,,,,,,,,,,,,,,,,,,,,PF,3,strong,,,,,,,,1,1.105,,,,,,,,,,,,,,,,,,,,,,,,,,,,5,strong,-63,26,1,0,0,response7disk,4,87,-2,-2,1,0,0,rectangle,-2,-2,1,0,0,7,4,0.002,-2,-2,1,0,0,0,86,86,8,1,0,,,,,,,,,,,,,,,,,,,,,
,,,,,,,,,,,,,,,,,,,,,,,,,,,,,,,,,,,,,,,,,,5ea97c4cbd6e6c07b00065e1,606a0f0ecd3a5661b270aa48,2021-04-04_21h14.50.335,Colour_Similarity_Experiment,2020.2.10,Win32,60,60675255c767bca6388caeee,18,16.70422535,16.76291793,17.10249671,16.70752089,16.76291793,,,,,,,,,,,,,,,,,,,,PF,3,strong,,,,,,,,7,1.859,,,,,,,,,,,,,,,,,,,,,,,,,,,,1,strong,44,96,1,0,0,response1disk,8,88,-4,12,1,0,0,rectangle,-4,12,1,0,0,7,5,0.002,-4,12,1,0,0,0,87,87,27,1,0,,,,,,,,,,,,,,,,,,,,,
,,,,,,,,,,,,,,,,,,,,,,,,,,,,,,,,,,,,,,,,,,5ea97c4cbd6e6c07b00065e1,606a0f0ecd3a5661b270aa48,2021-04-04_21h14.50.335,Colour_Similarity_Experiment,2020.2.10,Win32,60,60675255c767bca6388caeee,18,16.70422535,16.76291793,17.10249671,16.70752089,16.76291793,,,,,,,,,,,,,,,,,,,,PF,3,weak,,,,,,,,7,0.814,,,,,,,,,,,,,,,,,,,,,,,,,,,,2,weak,46,103,1,0,0,response1disk,2,89,0,7,1,0,0,rectangle,0,7,1,0,0,7,5,0,0,7,1,0,0,0,88,88,14,1,0,,,,,,,,,,,,,,,,,,,,,
,,,,,,,,,,,,,,,,,,,,,,,,,,,,,,,,,,,,,,,,,,5ea97c4cbd6e6c07b00065e1,606a0f0ecd3a5661b270aa48,2021-04-04_21h14.50.335,Colour_Similarity_Experiment,2020.2.10,Win32,60,60675255c767bca6388caeee,18,16.70422535,16.76291793,17.10249671,16.70752089,16.76291793,,,,,,,,,,,,,,,,,,,,PF,3,strong,,,,,,,,7,1.047,,,,,,,,,,,,,,,,,,,,,,,,,,,,3,strong,31,74,1,0,0,response1disk,3,90,3,9,1,0,0,rectangle,3,9,1,0,0,7,7,0.002,3,9,1,0,0,0,89,89,68,1,0,,,,,,,,,,,,,,,,,,,,,
,,,,,,,,,,,,,,,,,,,,,,,,,,,,,,,,,,,,,,,,,,5ea97c4cbd6e6c07b00065e1,606a0f0ecd3a5661b270aa48,2021-04-04_21h14.50.335,Colour_Similarity_Experiment,2020.2.10,Win32,60,60675255c767bca6388caeee,18,16.70422535,16.76291793,17.10249671,16.70752089,16.76291793,,,,,,,,,,,,,,,,,,,,PF,3,strong,,,,,,,,6,1.639,,,,,,,,,,,,,,,,,,,,,,,,,,,,7,strong,108,52,1,0,0,response1disk,9,91,13,9,1,0,0,rectangle,13,9,1,0,0,7,3,0.003,13,9,1,0,0,0,90,90,155,1,0,,,,,,,,,,,,,,,,,,,,,
,,,,,,,,,,,,,,,,,,,,,,,,,,,,,,,,,,,,,,,,,,5ea97c4cbd6e6c07b00065e1,606a0f0ecd3a5661b270aa48,2021-04-04_21h14.50.335,Colour_Similarity_Experiment,2020.2.10,Win32,60,60675255c767bca6388caeee,18,16.70422535,16.76291793,17.10249671,16.70752089,16.76291793,,,,,,,,,,,,,,,,,,,,PF,3,weak,,,,,,,,7,0.836,,,,,,,,,,,,,,,,,,,,,,,,,,,,2,weak,15,55,1,0,0,response1disk,7,92,4,11,1,0,0,rectangle,4,11,1,0,0,7,4,0.002,4,11,1,0,0,0,91,91,107,1,0,,,,,,,,,,,,,,,,,,,,,
,,,,,,,,,,,,,,,,,,,,,,,,,,,,,,,,,,,,,,,,,,5ea97c4cbd6e6c07b00065e1,606a0f0ecd3a5661b270aa48,2021-04-04_21h14.50.335,Colour_Similarity_Experiment,2020.2.10,Win32,60,60675255c767bca6388caeee,18,16.70422535,16.76291793,17.10249671,16.70752089,16.76291793,,,,,,,,,,,,,,,,,,,,PF,3,strong,,,,,,,,7,2.354,,,,,,,,,,,,,,,,,,,,,,,,,,,,3,strong,43,84,1,0,0,response1disk,9,93,3,3,1,0,0,rectangle,3,3,1,0,0,7,5,0.004,3,3,1,0,0,0,92,92,143,1,0,,,,,,,,,,,,,,,,,,,,,
,,,,,,,,,,,,,,,,,,,,,,,,,,,,,,,,,,,,,,,,,,5ea97c4cbd6e6c07b00065e1,606a0f0ecd3a5661b270aa48,2021-04-04_21h14.50.335,Colour_Similarity_Experiment,2020.2.10,Win32,60,60675255c767bca6388caeee,18,16.70422535,16.76291793,17.10249671,16.70752089,16.76291793,,,,,,,,,,,,,,,,,,,,PF,3,weak,,,,,,,,3,1.522,,,,,,,,,,,,,,,,,,,,,,,,,,,,3,weak,-31,-76,1,0,0,response5disk,2,94,2,3,1,0,0,rectangle,-24,81,1,0,0,0,0,1.549,-1,11,1,0,0,0,93,93,36,1,1,response7disk_3,rectangle,,,,,,,,,,,,,,,,,,,
,,,,,,,,,,,,,,,,,,,,,,,,,,,,,,,,,,,,,,,,,,5ea97c4cbd6e6c07b00065e1,606a0f0ecd3a5661b270aa48,2021-04-04_21h14.50.335,Colour_Similarity_Experiment,2020.2.10,Win32,60,60675255c767bca6388caeee,18,16.70422535,16.76291793,17.10249671,16.70752089,16.76291793,,,,,,,,,,,,,,,,,,,,PF,3,strong,,,,,,,,7,1.565,,,,,,,,,,,,,,,,,,,,,,,,,,,,4,strong,31,78,1,0,0,response1disk,2,95,4,-2,1,0,0,rectangle,4,-2,1,0,0,0,5,0.002,4,-2,1,0,0,0,94,94,13,1,0,,,,,,,,,,,,,,,,,,,,,
,,,,,,,,,,,,,,,,,,,,,,,,,,,,,,,,,,,,,,,,,,5ea97c4cbd6e6c07b00065e1,606a0f0ecd3a5661b270aa48,2021-04-04_21h14.50.335,Colour_Similarity_Experiment,2020.2.10,Win32,60,60675255c767bca6388caeee,18,16.70422535,16.76291793,17.10249671,16.70752089,16.76291793,,,,,,,,,,,,,,,,,,,,PF,3,weak,,,,,,,,3,2.455,,,,,,,,,,,,,,,,,,,,,,,,,,,,1,weak,-48,-70,1,0,0,response5disk,8,96,-14,0,1,0,0,rectangle,-14,0,1,0,0,0,7,0.002,-14,0,1,0,0,0,95,95,65,1,0,,,,,,,,,,,,,,,,,,,,,
,,,,,,,,,,,,,,,,,,,,,,,,,,,,,,,,,,,,,,,,,,5ea97c4cbd6e6c07b00065e1,606a0f0ecd3a5661b270aa48,2021-04-04_21h14.50.335,Colour_Similarity_Experiment,2020.2.10,Win32,60,60675255c767bca6388caeee,18,16.70422535,16.76291793,17.10249671,16.70752089,16.76291793,,,,,,,,,,,,,,,,,,,,PF,3,weak,,,,,,,,6,1.447,,,,,,,,,,,,,,,,,,,,,,,,,,,,3,weak,83,46,1,0,0,response1disk,1,97,-14,4,1,0,0,rectangle,-14,4,1,0,0,0,3,0.004,-14,4,1,0,0,0,96,96,96,1,0,,,,,,,,,,,,,,,,,,,,,
,,,,,,,,,,,,,,,,,,,,,,,,,,,,,,,,,,,,,,,,,,5ea97c4cbd6e6c07b00065e1,606a0f0ecd3a5661b270aa48,2021-04-04_21h14.50.335,Colour_Similarity_Experiment,2020.2.10,Win32,60,60675255c767bca6388caeee,18,16.70422535,16.76291793,17.10249671,16.70752089,16.76291793,,,,,,,,,,,,,,,,,,,,PF,3,weak,,,,,,,,7,0.821,,,,,,,,,,,,,,,,,,,,,,,,,,,,5,weak,40,84,1,0,0,response1disk,8,98,6,12,1,0,0,rectangle,6,12,1,0,0,0,2,0.003,6,12,1,0,0,0,97,97,149,1,0,,,,,,,,,,,,,,,,,,,,,
,,,,,,,,,,,,,,,,,,,,,,,,,,,,,,,,,,,,,,,,,,5ea97c4cbd6e6c07b00065e1,606a0f0ecd3a5661b270aa48,2021-04-04_21h14.50.335,Colour_Similarity_Experiment,2020.2.10,Win32,60,60675255c767bca6388caeee,18,16.70422535,16.76291793,17.10249671,16.70752089,16.76291793,,,,,,,,,,,,,,,,,,,,PF,3,strong,,,,,,,,1,1.013,,,,,,,,,,,,,,,,,,,,,,,,,,,,3,strong,-51,22,1,0,0,response7disk,5,99,-3,5,1,0,0,rectangle,-3,5,1,0,0,0,0,0.002,-3,5,1,0,0,0,98,98,101,1,0,,,,,,,,,,,,,,,,,,,,,
,,,,,,,,,,,,,,,,,,,,,,,,,,,,,,,,,,,,,,,,,,5ea97c4cbd6e6c07b00065e1,606a0f0ecd3a5661b270aa48,2021-04-04_21h14.50.335,Colour_Similarity_Experiment,2020.2.10,Win32,60,60675255c767bca6388caeee,18,16.70422535,16.76291793,17.10249671,16.70752089,16.76291793,,,,,,,,,,,,,,,,,,,,PF,3,strong,,,,,,,,7,0.967,,,,,,,,,,,,,,,,,,,,,,,,,,,,8,strong,52,80,1,0,0,response1disk,6,100,10,3,1,0,0,rectangle,10,3,1,0,0,0,4,0.002,10,3,1,0,0,0,99,99,37,1,0,,,,,,,,,,,,,,,,,,,,,
,,,,,,,,,,,,,,,,,,,,,,,,,,,,,,,,,,,,,,,,,,5ea97c4cbd6e6c07b00065e1,606a0f0ecd3a5661b270aa48,2021-04-04_21h14.50.335,Colour_Similarity_Experiment,2020.2.10,Win32,60,60675255c767bca6388caeee,18,16.70422535,16.76291793,17.10249671,16.70752089,16.76291793,,,,,,,,,,,,,,,,,,,,PF,3,weak,,,,,,,,3,2.055,,,,,,,,,,,,,,,,,,,,,,,,,,,,8,weak,-32,-71,1,0,0,response5disk,6,101,4,4,1,0,0,rectangle,-26,-80,1,0,0,3,3,1.965,-4,-7,1,0,0,0,100,100,161,1,1,response5disk_3,rectangle,,,,,,,,,,,,,,,,,,,
,,,,,,,,,,,,,,,,,,,,,,,,,,,,,,,,,,,,,,,,,,5ea97c4cbd6e6c07b00065e1,606a0f0ecd3a5661b270aa48,2021-04-04_21h14.50.335,Colour_Similarity_Experiment,2020.2.10,Win32,60,60675255c767bca6388caeee,18,16.70422535,16.76291793,17.10249671,16.70752089,16.76291793,,,,,,,,,,,,,,,,,,,,PF,3,strong,,,,,,,,7,0.987,,,,,,,,,,,,,,,,,,,,,,,,,,,,4,strong,31,93,1,0,0,response1disk,9,102,-9,3,1,0,0,rectangle,-9,3,1,0,0,3,5,0.001,-9,3,1,0,0,0,101,101,90,1,0,,,,,,,,,,,,,,,,,,,,,
,,,,,,,,,,,,,,,,,,,,,,,,,,,,,,,,,,,,,,,,,,5ea97c4cbd6e6c07b00065e1,606a0f0ecd3a5661b270aa48,2021-04-04_21h14.50.335,Colour_Similarity_Experiment,2020.2.10,Win32,60,60675255c767bca6388caeee,18,16.70422535,16.76291793,17.10249671,16.70752089,16.76291793,,,,,,,,,,,,,,,,,,,,PF,3,weak,,,,,,,,7,0.805,,,,,,,,,,,,,,,,,,,,,,,,,,,,8,weak,37,93,1,0,0,response1disk,7,103,3,10,1,0,0,rectangle,3,10,1,0,0,3,7,0.002,3,10,1,0,0,0,102,102,23,1,0,,,,,,,,,,,,,,,,,,,,,
,,,,,,,,,,,,,,,,,,,,,,,,,,,,,,,,,,,,,,,,,,5ea97c4cbd6e6c07b00065e1,606a0f0ecd3a5661b270aa48,2021-04-04_21h14.50.335,Colour_Similarity_Experiment,2020.2.10,Win32,60,60675255c767bca6388caeee,18,16.70422535,16.76291793,17.10249671,16.70752089,16.76291793,,,,,,,,,,,,,,,,,,,,PF,3,strong,,,,,,,,7,0.883,,,,,,,,,,,,,,,,,,,,,,,,,,,,9,strong,38,84,1,0,0,response1disk,3,104,2,2,1,0,0,rectangle,2,2,1,0,0,3,2,0.001,2,2,1,0,0,0,103,103,141,1,0,,,,,,,,,,,,,,,,,,,,,
,,,,,,,,,,,,,,,,,,,,,,,,,,,,,,,,,,,,,,,,,,5ea97c4cbd6e6c07b00065e1,606a0f0ecd3a5661b270aa48,2021-04-04_21h14.50.335,Colour_Similarity_Experiment,2020.2.10,Win32,60,60675255c767bca6388caeee,18,16.70422535,16.76291793,17.10249671,16.70752089,16.76291793,,,,,,,,,,,,,,,,,,,,PF,3,strong,,,,,,,,2,2.098,,,,,,,,,,,,,,,,,,,,,,,,,,,,2,strong,-83,-38,1,0,0,response5disk,4,105,10,1,1,0,0,rectangle,10,1,1,0,0,3,3,0.002,10,1,1,0,0,0,104,104,145,1,0,,,,,,,,,,,,,,,,,,,,,
,,,,,,,,,,,,,,,,,,,,,,,,,,,,,,,,,,,,,,,,,,5ea97c4cbd6e6c07b00065e1,606a0f0ecd3a5661b270aa48,2021-04-04_21h14.50.335,Colour_Similarity_Experiment,2020.2.10,Win32,60,60675255c767bca6388caeee,18,16.70422535,16.76291793,17.10249671,16.70752089,16.76291793,,,,,,,,,,,,,,,,,,,,PF,3,weak,,,,,,,,1,1.006,,,,,,,,,,,,,,,,,,,,,,,,,,,,8,weak,-92,34,1,0,0,response7disk,9,106,-3,4,1,0,0,rectangle,-3,4,1,0,0,3,0,0.002,-3,4,1,0,0,0,105,105,42,1,0,,,,,,,,,,,,,,,,,,,,,
,,,,,,,,,,,,,,,,,,,,,,,,,,,,,,,,,,,,,,,,,,5ea97c4cbd6e6c07b00065e1,606a0f0ecd3a5661b270aa48,2021-04-04_21h14.50.335,Colour_Similarity_Experiment,2020.2.10,Win32,60,60675255c767bca6388caeee,18,16.70422535,16.76291793,17.10249671,16.70752089,16.76291793,,,,,,,,,,,,,,,,,,,,PF,3,weak,,,,,,,,7,1.636,,,,,,,,,,,,,,,,,,,,,,,,,,,,9,weak,28,60,1,0,0,response1disk,6,107,1,-7,1,0,0,rectangle,1,-7,1,0,0,3,2,0.002,1,-7,1,0,0,0,106,106,148,1,0,,,,,,,,,,,,,,,,,,,,,
,,,,,,,,,,,,,,,,,,,,,,,,,,,,,,,,,,,,,,,,,,5ea97c4cbd6e6c07b00065e1,606a0f0ecd3a5661b270aa48,2021-04-04_21h14.50.335,Colour_Similarity_Experiment,2020.2.10,Win32,60,60675255c767bca6388caeee,18,16.70422535,16.76291793,17.10249671,16.70752089,16.76291793,,,,,,,,,,,,,,,,,,,,PF,3,weak,,,,,,,,2,1.156,,,,,,,,,,,,,,,,,,,,,,,,,,,,5,weak,-59,-33,1,0,0,response5disk,5,108,-4,0,1,0,0,rectangle,-4,0,1,0,0,3,3,0.002,-4,0,1,0,0,0,107,107,94,1,0,,,,,,,,,,,,,,,,,,,,,
,,,,,,,,,,,,,,,,,,,,,,,,,,,,,,,,,,,,,,,,,,5ea97c4cbd6e6c07b00065e1,606a0f0ecd3a5661b270aa48,2021-04-04_21h14.50.335,Colour_Similarity_Experiment,2020.2.10,Win32,60,60675255c767bca6388caeee,18,16.70422535,16.76291793,17.10249671,16.70752089,16.76291793,,,,,,,,,,,,,,,,,,,,PF,3,weak,,,,,,,,2,1.781,,,,,,,,,,,,,,,,,,,,,,,,,,,,9,weak,-89,-27,1,0,0,response5disk,3,109,-6,-2,1,0,0,rectangle,-6,-2,1,0,0,3,2,0.002,-6,-2,1,0,0,0,108,108,119,1,0,,,,,,,,,,,,,,,,,,,,,
,,,,,,,,,,,,,,,,,,,,,,,,,,,,,,,,,,,,,,,,,,5ea97c4cbd6e6c07b00065e1,606a0f0ecd3a5661b270aa48,2021-04-04_21h14.50.335,Colour_Similarity_Experiment,2020.2.10,Win32,60,60675255c767bca6388caeee,18,16.70422535,16.76291793,17.10249671,16.70752089,16.76291793,,,,,,,,,,,,,,,,,,,,PF,3,weak,,,,,,,,7,1.255,,,,,,,,,,,,,,,,,,,,,,,,,,,,3,weak,72,100,1,0,0,response1disk,9,110,5,13,1,0,0,rectangle,5,13,1,0,0,3,4,0.002,5,13,1,0,0,0,109,109,79,1,0,,,,,,,,,,,,,,,,,,,,,
,,,,,,,,,,,,,,,,,,,,,,,,,,,,,,,,,,,,,,,,,,5ea97c4cbd6e6c07b00065e1,606a0f0ecd3a5661b270aa48,2021-04-04_21h14.50.335,Colour_Similarity_Experiment,2020.2.10,Win32,60,60675255c767bca6388caeee,18,16.70422535,16.76291793,17.10249671,16.70752089,16.76291793,,,,,,,,,,,,,,,,,,,,PF,3,weak,,,,,,,,7,1.554,,,,,,,,,,,,,,,,,,,,,,,,,,,,2,weak,22,56,1,0,0,response1disk,8,111,-23,-2,1,0,0,rectangle,-23,-2,1,0,0,3,1,0.002,-23,-2,1,0,0,0,110,110,52,1,0,,,,,,,,,,,,,,,,,,,,,
,,,,,,,,,,,,,,,,,,,,,,,,,,,,,,,,,,,,,,,,,,5ea97c4cbd6e6c07b00065e1,606a0f0ecd3a5661b270aa48,2021-04-04_21h14.50.335,Colour_Similarity_Experiment,2020.2.10,Win32,60,60675255c767bca6388caeee,18,16.70422535,16.76291793,17.10249671,16.70752089,16.76291793,,,,,,,,,,,,,,,,,,,,PF,3,weak,,,,,,,,6,2.404,,,,,,,,,,,,,,,,,,,,,,,,,,,,2,weak,89,32,1,0,0,response1disk,9,112,-16,9,1,0,0,rectangle,-16,9,1,0,0,3,6,0.002,-16,9,1,0,0,0,111,111,39,1,0,,,,,,,,,,,,,,,,,,,,,
,,,,,,,,,,,,,,,,,,,,,,,,,,,,,,,,,,,,,,,,,,5ea97c4cbd6e6c07b00065e1,606a0f0ecd3a5661b270aa48,2021-04-04_21h14.50.335,Colour_Similarity_Experiment,2020.2.10,Win32,60,60675255c767bca6388caeee,18,16.70422535,16.76291793,17.10249671,16.70752089,16.76291793,,,,,,,,,,,,,,,,,,,,PF,3,weak,,,,,,,,7,1.16,,,,,,,,,,,,,,,,,,,,,,,,,,,,9,weak,50,59,1,0,0,response1disk,2,113,-2,2,1,0,0,rectangle,-2,2,1,0,0,3,4,0.002,-2,2,1,0,0,0,112,112,157,1,0,,,,,,,,,,,,,,,,,,,,,
,,,,,,,,,,,,,,,,,,,,,,,,,,,,,,,,,,,,,,,,,,5ea97c4cbd6e6c07b00065e1,606a0f0ecd3a5661b270aa48,2021-04-04_21h14.50.335,Colour_Similarity_Experiment,2020.2.10,Win32,60,60675255c767bca6388caeee,18,16.70422535,16.76291793,17.10249671,16.70752089,16.76291793,,,,,,,,,,,,,,,,,,,,PF,3,strong,,,,,,,,7,0.778,,,,,,,,,,,,,,,,,,,,,,,,,,,,3,strong,32,91,1,0,0,response1disk,8,114,-13,-3,1,0,0,rectangle,-13,-3,1,0,0,3,1,0.002,-13,-3,1,0,0,0,113,113,44,1,0,,,,,,,,,,,,,,,,,,,,,
,,,,,,,,,,,,,,,,,,,,,,,,,,,,,,,,,,,,,,,,,,5ea97c4cbd6e6c07b00065e1,606a0f0ecd3a5661b270aa48,2021-04-04_21h14.50.335,Colour_Similarity_Experiment,2020.2.10,Win32,60,60675255c767bca6388caeee,18,16.70422535,16.76291793,17.10249671,16.70752089,16.76291793,,,,,,,,,,,,,,,,,,,,PF,3,strong,,,,,,,,7,1.164,,,,,,,,,,,,,,,,,,,,,,,,,,,,9,strong,25,65,1,0,0,response1disk,4,115,-2,11,1,0,0,rectangle,-2,11,1,0,0,3,4,0.002,-2,11,1,0,0,0,114,114,60,1,0,,,,,,,,,,,,,,,,,,,,,
,,,,,,,,,,,,,,,,,,,,,,,,,,,,,,,,,,,,,,,,,,5ea97c4cbd6e6c07b00065e1,606a0f0ecd3a5661b270aa48,2021-04-04_21h14.50.335,Colour_Similarity_Experiment,2020.2.10,Win32,60,60675255c767bca6388caeee,18,16.70422535,16.76291793,17.10249671,16.70752089,16.76291793,,,,,,,,,,,,,,,,,,,,PF,3,weak,,,,,,,,7,0.805,,,,,,,,,,,,,,,,,,,,,,,,,,,,4,weak,40,72,1,0,0,response1disk,9,116,0,7,1,0,0,rectangle,0,7,1,0,0,3,5,0.002,0,7,1,0,0,0,115,115,75,1,0,,,,,,,,,,,,,,,,,,,,,
,,,,,,,,,,,,,,,,,,,,,,,,,,,,,,,,,,,,,,,,,,5ea97c4cbd6e6c07b00065e1,606a0f0ecd3a5661b270aa48,2021-04-04_21h14.50.335,Colour_Similarity_Experiment,2020.2.10,Win32,60,60675255c767bca6388caeee,18,16.70422535,16.76291793,17.10249671,16.70752089,16.76291793,,,,,,,,,,,,,,,,,,,,PF,3,weak,,,,,,,,3,1.916,,,,,,,,,,,,,,,,,,,,,,,,,,,,5,weak,-40,-91,1,0,0,response5disk,9,117,8,-4,1,0,0,rectangle,-88,-37,1,0,0,3,2,1.934,-7,-5,1,0,0,0,116,116,136,1,1,response5disk_3,rectangle,,,,,,,,,,,,,,,,,,,
,,,,,,,,,,,,,,,,,,,,,,,,,,,,,,,,,,,,,,,,,,5ea97c4cbd6e6c07b00065e1,606a0f0ecd3a5661b270aa48,2021-04-04_21h14.50.335,Colour_Similarity_Experiment,2020.2.10,Win32,60,60675255c767bca6388caeee,18,16.70422535,16.76291793,17.10249671,16.70752089,16.76291793,,,,,,,,,,,,,,,,,,,,PF,3,weak,,,,,,,,7,1.09,,,,,,,,,,,,,,,,,,,,,,,,,,,,7,weak,40,82,1,0,0,response1disk,7,118,-5,3,1,0,0,rectangle,-5,3,1,0,0,3,3,0.002,-5,3,1,0,0,0,117,117,51,1,0,,,,,,,,,,,,,,,,,,,,,
,,,,,,,,,,,,,,,,,,,,,,,,,,,,,,,,,,,,,,,,,,5ea97c4cbd6e6c07b00065e1,606a0f0ecd3a5661b270aa48,2021-04-04_21h14.50.335,Colour_Similarity_Experiment,2020.2.10,Win32,60,60675255c767bca6388caeee,18,16.70422535,16.76291793,17.10249671,16.70752089,16.76291793,,,,,,,,,,,,,,,,,,,,PF,3,weak,,,,,,,,5,2.253,,,,,,,,,,,,,,,,,,,,,,,,,,,,7,weak,87,-22,1,0,0,response3disk,4,119,-7,-1,1,0,0,rectangle,-7,-1,1,0,0,3,6,0.002,-7,-1,1,0,0,0,118,118,43,1,0,,,,,,,,,,,,,,,,,,,,,
,,,,,,,,,,,,,,,,,,,,,,,,,,,,,,,,,,,,,,,,,,5ea97c4cbd6e6c07b00065e1,606a0f0ecd3a5661b270aa48,2021-04-04_21h14.50.335,Colour_Similarity_Experiment,2020.2.10,Win32,60,60675255c767bca6388caeee,18,16.70422535,16.76291793,17.10249671,16.70752089,16.76291793,,,,,,,,,,,,,,,,,,,,PF,3,weak,,,,,,,,7,1.454,,,,,,,,,,,,,,,,,,,,,,,,,,,,3,weak,26,104,1,0,0,response1disk,7,120,3,0,1,0,0,rectangle,3,0,1,0,0,3,3,0.002,3,0,1,0,0,0,119,119,41,1,0,,,,,,,,,,,,,,,,,,,,,
,,,,,,,,,,,,,,,,,,,,,,,,,,,,,,,,,,,,,,,,,,5ea97c4cbd6e6c07b00065e1,606a0f0ecd3a5661b270aa48,2021-04-04_21h14.50.335,Colour_Similarity_Experiment,2020.2.10,Win32,60,60675255c767bca6388caeee,18,16.70422535,16.76291793,17.10249671,16.70752089,16.76291793,,,,,,,,,,,,,,,,,,,,PF,3,strong,,,,,,,,7,1.356,,,,,,,,,,,,,,,,,,,,,,,,,,,,8,strong,29,66,1,0,0,response1disk,3,121,-6,-10,1,0,0,rectangle,-6,-10,1,0,0,3,5,0.002,-6,-10,1,0,0,0,120,120,154,1,0,,,,,,,,,,,,,,,,,,,,,
,,,,,,,,,,,,,,,,,,,,,,,,,,,,,,,,,,,,,,,,,,5ea97c4cbd6e6c07b00065e1,606a0f0ecd3a5661b270aa48,2021-04-04_21h14.50.335,Colour_Similarity_Experiment,2020.2.10,Win32,60,60675255c767bca6388caeee,18,16.70422535,16.76291793,17.10249671,16.70752089,16.76291793,,,,,,,,,,,,,,,,,,,,PF,3,weak,,,,,,,,7,2.504,,,,,,,,,,,,,,,,,,,,,,,,,,,,2,weak,52,100,1,0,0,response1disk,5,122,-6,13,1,0,0,rectangle,-6,13,1,0,0,3,2,0.002,-6,13,1,0,0,0,121,121,147,1,0,,,,,,,,,,,,,,,,,,,,,
,,,,,,,,,,,,,,,,,,,,,,,,,,,,,,,,,,,,,,,,,,5ea97c4cbd6e6c07b00065e1,606a0f0ecd3a5661b270aa48,2021-04-04_21h14.50.335,Colour_Similarity_Experiment,2020.2.10,Win32,60,60675255c767bca6388caeee,18,16.70422535,16.76291793,17.10249671,16.70752089,16.76291793,,,,,,,,,,,,,,,,,,,,PF,3,strong,,,,,,,,7,1.404,,,,,,,,,,,,,,,,,,,,,,,,,,,,6,strong,39,87,1,0,0,response1disk,9,123,14,6,1,0,0,rectangle,-60,27,1,0,0,1,1,1.184,-6,11,1,0,0,0,122,122,160,1,1,response7disk_3,rectangle,,,,,,,,,,,,,,,,,,,
,,,,,,,,,,,,,,,,,,,,,,,,,,,,,,,,,,,,,,,,,,5ea97c4cbd6e6c07b00065e1,606a0f0ecd3a5661b270aa48,2021-04-04_21h14.50.335,Colour_Similarity_Experiment,2020.2.10,Win32,60,60675255c767bca6388caeee,18,16.70422535,16.76291793,17.10249671,16.70752089,16.76291793,,,,,,,,,,,,,,,,,,,,PF,3,strong,,,,,,,,0,1.188,,,,,,,,,,,,,,,,,,,,,,,,,,,,4,strong,-40,104,1,0,0,response7disk,4,124,5,1,1,0,0,rectangle,5,1,1,0,0,1,4,0.002,5,1,1,0,0,0,123,123,84,1,0,,,,,,,,,,,,,,,,,,,,,
,,,,,,,,,,,,,,,,,,,,,,,,,,,,,,,,,,,,,,,,,,5ea97c4cbd6e6c07b00065e1,606a0f0ecd3a5661b270aa48,2021-04-04_21h14.50.335,Colour_Similarity_Experiment,2020.2.10,Win32,60,60675255c767bca6388caeee,18,16.70422535,16.76291793,17.10249671,16.70752089,16.76291793,,,,,,,,,,,,,,,,,,,,PF,3,strong,,,,,,,,7,1.084,,,,,,,,,,,,,,,,,,,,,,,,,,,,9,strong,52,108,1,0,0,response1disk,6,125,5,4,1,0,0,rectangle,5,4,1,0,0,1,6,0.002,5,4,1,0,0,0,124,124,117,1,0,,,,,,,,,,,,,,,,,,,,,
,,,,,,,,,,,,,,,,,,,,,,,,,,,,,,,,,,,,,,,,,,5ea97c4cbd6e6c07b00065e1,606a0f0ecd3a5661b270aa48,2021-04-04_21h14.50.335,Colour_Similarity_Experiment,2020.2.10,Win32,60,60675255c767bca6388caeee,18,16.70422535,16.76291793,17.10249671,16.70752089,16.76291793,,,,,,,,,,,,,,,,,,,,PF,3,weak,,,,,,,,7,0.956,,,,,,,,,,,,,,,,,,,,,,,,,,,,6,weak,32,76,1,0,0,response1disk,4,126,3,-8,1,0,0,rectangle,3,-8,1,0,0,1,6,0,3,-8,1,0,0,0,125,125,33,1,0,,,,,,,,,,,,,,,,,,,,,
,,,,,,,,,,,,,,,,,,,,,,,,,,,,,,,,,,,,,,,,,,5ea97c4cbd6e6c07b00065e1,606a0f0ecd3a5661b270aa48,2021-04-04_21h14.50.335,Colour_Similarity_Experiment,2020.2.10,Win32,60,60675255c767bca6388caeee,18,16.70422535,16.76291793,17.10249671,16.70752089,16.76291793,,,,,,,,,,,,,,,,,,,,PF,3,weak,,,,,,,,7,0.687,,,,,,,,,,,,,,,,,,,,,,,,,,,,2,weak,46,110,1,0,0,response1disk,4,127,6,10,1,0,0,rectangle,6,10,1,0,0,1,7,0.003,6,10,1,0,0,0,126,126,127,1,0,,,,,,,,,,,,,,,,,,,,,
,,,,,,,,,,,,,,,,,,,,,,,,,,,,,,,,,,,,,,,,,,5ea97c4cbd6e6c07b00065e1,606a0f0ecd3a5661b270aa48,2021-04-04_21h14.50.335,Colour_Similarity_Experiment,2020.2.10,Win32,60,60675255c767bca6388caeee,18,16.70422535,16.76291793,17.10249671,16.70752089,16.76291793,,,,,,,,,,,,,,,,,,,,PF,3,weak,,,,,,,,7,0.721,,,,,,,,,,,,,,,,,,,,,,,,,,,,7,weak,36,83,1,0,0,response1disk,2,128,8,9,1,0,0,rectangle,8,9,1,0,0,1,4,0.001,8,9,1,0,0,0,127,127,32,1,0,,,,,,,,,,,,,,,,,,,,,
,,,,,,,,,,,,,,,,,,,,,,,,,,,,,,,,,,,,,,,,,,5ea97c4cbd6e6c07b00065e1,606a0f0ecd3a5661b270aa48,2021-04-04_21h14.50.335,Colour_Similarity_Experiment,2020.2.10,Win32,60,60675255c767bca6388caeee,18,16.70422535,16.76291793,17.10249671,16.70752089,16.76291793,,,,,,,,,,,,,,,,,,,,PF,3,strong,,,,,,,,7,1.537,,,,,,,,,,,,,,,,,,,,,,,,,,,,2,strong,26,52,1,0,0,response1disk,8,129,1,10,1,0,0,rectangle,1,10,1,0,0,1,5,0.002,1,10,1,0,0,0,128,128,62,1,0,,,,,,,,,,,,,,,,,,,,,
,,,,,,,,,,,,,,,,,,,,,,,,,,,,,,,,,,,,,,,,,,5ea97c4cbd6e6c07b00065e1,606a0f0ecd3a5661b270aa48,2021-04-04_21h14.50.335,Colour_Similarity_Experiment,2020.2.10,Win32,60,60675255c767bca6388caeee,18,16.70422535,16.76291793,17.10249671,16.70752089,16.76291793,,,,,,,,,,,,,,,,,,,,PF,3,weak,,,,,,,,7,0.92,,,,,,,,,,,,,,,,,,,,,,,,,,,,7,weak,26,80,1,0,0,response1disk,1,130,-1,5,1,0,0,rectangle,-1,5,1,0,0,1,4,0.003,-1,5,1,0,0,0,129,129,53,1,0,,,,,,,,,,,,,,,,,,,,,
,,,,,,,,,,,,,,,,,,,,,,,,,,,,,,,,,,,,,,,,,,5ea97c4cbd6e6c07b00065e1,606a0f0ecd3a5661b270aa48,2021-04-04_21h14.50.335,Colour_Similarity_Experiment,2020.2.10,Win32,60,60675255c767bca6388caeee,18,16.70422535,16.76291793,17.10249671,16.70752089,16.76291793,,,,,,,,,,,,,,,,,,,,PF,3,strong,,,,,,,,4,2.346,,,,,,,,,,,,,,,,,,,,,,,,,,,,6,strong,68,-92,1,0,0,response3disk,4,131,-16,10,1,0,0,rectangle,-16,10,1,0,0,1,1,0.002,-16,10,1,0,0,0,130,130,56,1,0,,,,,,,,,,,,,,,,,,,,,
,,,,,,,,,,,,,,,,,,,,,,,,,,,,,,,,,,,,,,,,,,5ea97c4cbd6e6c07b00065e1,606a0f0ecd3a5661b270aa48,2021-04-04_21h14.50.335,Colour_Similarity_Experiment,2020.2.10,Win32,60,60675255c767bca6388caeee,18,16.70422535,16.76291793,17.10249671,16.70752089,16.76291793,,,,,,,,,,,,,,,,,,,,PF,3,weak,,,,,,,,0,1.038,,,,,,,,,,,,,,,,,,,,,,,,,,,,4,weak,-47,104,1,0,0,response7disk,4,132,8,8,1,0,0,rectangle,8,8,1,0,0,1,2,0.003,8,8,1,0,0,0,131,131,70,1,0,,,,,,,,,,,,,,,,,,,,,
,,,,,,,,,,,,,,,,,,,,,,,,,,,,,,,,,,,,,,,,,,5ea97c4cbd6e6c07b00065e1,606a0f0ecd3a5661b270aa48,2021-04-04_21h14.50.335,Colour_Similarity_Experiment,2020.2.10,Win32,60,60675255c767bca6388caeee,18,16.70422535,16.76291793,17.10249671,16.70752089,16.76291793,,,,,,,,,,,,,,,,,,,,PF,3,weak,,,,,,,,2,1.388,,,,,,,,,,,,,,,,,,,,,,,,,,,,4,weak,-61,-15,1,0,0,response5disk,3,133,-7,-4,1,0,0,rectangle,-7,-4,1,0,0,1,0,0.002,-7,-4,1,0,0,0,132,132,89,1,0,,,,,,,,,,,,,,,,,,,,,
,,,,,,,,,,,,,,,,,,,,,,,,,,,,,,,,,,,,,,,,,,5ea97c4cbd6e6c07b00065e1,606a0f0ecd3a5661b270aa48,2021-04-04_21h14.50.335,Colour_Similarity_Experiment,2020.2.10,Win32,60,60675255c767bca6388caeee,18,16.70422535,16.76291793,17.10249671,16.70752089,16.76291793,,,,,,,,,,,,,,,,,,,,PF,3,weak,,,,,,,,7,0.992,,,,,,,,,,,,,,,,,,,,,,,,,,,,1,weak,26,70,1,0,0,response1disk,5,134,-5,2,1,0,0,rectangle,-5,2,1,0,0,1,1,0.003,-5,2,1,0,0,0,133,133,28,1,0,,,,,,,,,,,,,,,,,,,,,
,,,,,,,,,,,,,,,,,,,,,,,,,,,,,,,,,,,,,,,,,,5ea97c4cbd6e6c07b00065e1,606a0f0ecd3a5661b270aa48,2021-04-04_21h14.50.335,Colour_Similarity_Experiment,2020.2.10,Win32,60,60675255c767bca6388caeee,18,16.70422535,16.76291793,17.10249671,16.70752089,16.76291793,,,,,,,,,,,,,,,,,,,,PF,3,strong,,,,,,,,7,0.794,,,,,,,,,,,,,,,,,,,,,,,,,,,,7,strong,40,96,1,0,0,response1disk,5,135,4,2,1,0,0,rectangle,4,2,1,0,0,1,2,0.002,4,2,1,0,0,0,134,134,156,1,0,,,,,,,,,,,,,,,,,,,,,
,,,,,,,,,,,,,,,,,,,,,,,,,,,,,,,,,,,,,,,,,,5ea97c4cbd6e6c07b00065e1,606a0f0ecd3a5661b270aa48,2021-04-04_21h14.50.335,Colour_Similarity_Experiment,2020.2.10,Win32,60,60675255c767bca6388caeee,18,16.70422535,16.76291793,17.10249671,16.70752089,16.76291793,,,,,,,,,,,,,,,,,,,,PF,3,weak,,,,,,,,7,0.937,,,,,,,,,,,,,,,,,,,,,,,,,,,,3,weak,40,82,1,0,0,response1disk,8,136,-3,-3,1,0,0,rectangle,-3,-3,1,0,0,1,0,0.002,-3,-3,1,0,0,0,135,135,3,1,0,,,,,,,,,,,,,,,,,,,,,
,,,,,,,,,,,,,,,,,,,,,,,,,,,,,,,,,,,,,,,,,,5ea97c4cbd6e6c07b00065e1,606a0f0ecd3a5661b270aa48,2021-04-04_21h14.50.335,Colour_Similarity_Experiment,2020.2.10,Win32,60,60675255c767bca6388caeee,18,16.70422535,16.76291793,17.10249671,16.70752089,16.76291793,,,,,,,,,,,,,,,,,,,,PF,3,strong,,,,,,,,7,1.638,,,,,,,,,,,,,,,,,,,,,,,,,,,,3,strong,32,71,1,0,0,response1disk,2,137,-9,-3,1,0,0,rectangle,-9,-3,1,0,0,1,7,0.002,-9,-3,1,0,0,0,136,136,93,1,0,,,,,,,,,,,,,,,,,,,,,
,,,,,,,,,,,,,,,,,,,,,,,,,,,,,,,,,,,,,,,,,,5ea97c4cbd6e6c07b00065e1,606a0f0ecd3a5661b270aa48,2021-04-04_21h14.50.335,Colour_Similarity_Experiment,2020.2.10,Win32,60,60675255c767bca6388caeee,18,16.70422535,16.76291793,17.10249671,16.70752089,16.76291793,,,,,,,,,,,,,,,,,,,,PF,3,strong,,,,,,,,7,1.633,,,,,,,,,,,,,,,,,,,,,,,,,,,,7,strong,39,72,1,0,0,response1disk,3,138,5,2,1,0,0,rectangle,5,2,1,0,0,1,6,0.001,5,2,1,0,0,0,137,137,73,1,0,,,,,,,,,,,,,,,,,,,,,
,,,,,,,,,,,,,,,,,,,,,,,,,,,,,,,,,,,,,,,,,,5ea97c4cbd6e6c07b00065e1,606a0f0ecd3a5661b270aa48,2021-04-04_21h14.50.335,Colour_Similarity_Experiment,2020.2.10,Win32,60,60675255c767bca6388caeee,18,16.70422535,16.76291793,17.10249671,16.70752089,16.76291793,,,,,,,,,,,,,,,,,,,,PF,3,strong,,,,,,,,7,1.127,,,,,,,,,,,,,,,,,,,,,,,,,,,,2,strong,35,83,1,0,0,response1disk,7,139,-4,-8,1,0,0,rectangle,-4,-8,1,0,0,1,6,0,-4,-8,1,0,0,0,138,138,63,1,0,,,,,,,,,,,,,,,,,,,,,
,,,,,,,,,,,,,,,,,,,,,,,,,,,,,,,,,,,,,,,,,,5ea97c4cbd6e6c07b00065e1,606a0f0ecd3a5661b270aa48,2021-04-04_21h14.50.335,Colour_Similarity_Experiment,2020.2.10,Win32,60,60675255c767bca6388caeee,18,16.70422535,16.76291793,17.10249671,16.70752089,16.76291793,,,,,,,,,,,,,,,,,,,,PF,3,strong,,,,,,,,2,3.372,,,,,,,,,,,,,,,,,,,,,,,,,,,,8,strong,-91,-38,1,0,0,response5disk,1,140,-6,0,1,0,0,rectangle,-6,0,1,0,0,1,0,0.002,-6,0,1,0,0,0,139,139,20,1,0,,,,,,,,,,,,,,,,,,,,,
,,,,,,,,,,,,,,,,,,,,,,,,,,,,,,,,,,,,,,,,,,5ea97c4cbd6e6c07b00065e1,606a0f0ecd3a5661b270aa48,2021-04-04_21h14.50.335,Colour_Similarity_Experiment,2020.2.10,Win32,60,60675255c767bca6388caeee,18,16.70422535,16.76291793,17.10249671,16.70752089,16.76291793,,,,,,,,,,,,,,,,,,,,PF,3,weak,,,,,,,,3,2.288,,,,,,,,,,,,,,,,,,,,,,,,,,,,8,weak,-22,-93,1,0,0,response5disk,4,141,2,-6,1,0,0,rectangle,2,-6,1,0,0,1,1,0.002,2,-6,1,0,0,0,140,140,78,1,0,,,,,,,,,,,,,,,,,,,,,
,,,,,,,,,,,,,,,,,,,,,,,,,,,,,,,,,,,,,,,,,,5ea97c4cbd6e6c07b00065e1,606a0f0ecd3a5661b270aa48,2021-04-04_21h14.50.335,Colour_Similarity_Experiment,2020.2.10,Win32,60,60675255c767bca6388caeee,18,16.70422535,16.76291793,17.10249671,16.70752089,16.76291793,,,,,,,,,,,,,,,,,,,,PF,3,strong,,,,,,,,7,0.966,,,,,,,,,,,,,,,,,,,,,,,,,,,,3,strong,37,76,1,0,0,response1disk,6,142,3,-2,1,0,0,rectangle,3,-2,1,0,0,1,4,0.002,3,-2,1,0,0,0,141,141,95,1,0,,,,,,,,,,,,,,,,,,,,,
,,,,,,,,,,,,,,,,,,,,,,,,,,,,,,,,,,,,,,,,,,5ea97c4cbd6e6c07b00065e1,606a0f0ecd3a5661b270aa48,2021-04-04_21h14.50.335,Colour_Similarity_Experiment,2020.2.10,Win32,60,60675255c767bca6388caeee,18,16.70422535,16.76291793,17.10249671,16.70752089,16.76291793,,,,,,,,,,,,,,,,,,,,PF,3,weak,,,,,,,,6,1.681,,,,,,,,,,,,,,,,,,,,,,,,,,,,9,weak,57,28,1,0,0,response1disk,9,143,21,1,1,0,0,rectangle,21,1,1,0,0,1,5,0.002,21,1,1,0,0,0,142,142,106,1,0,,,,,,,,,,,,,,,,,,,,,
,,,,,,,,,,,,,,,,,,,,,,,,,,,,,,,,,,,,,,,,,,5ea97c4cbd6e6c07b00065e1,606a0f0ecd3a5661b270aa48,2021-04-04_21h14.50.335,Colour_Similarity_Experiment,2020.2.10,Win32,60,60675255c767bca6388caeee,18,16.70422535,16.76291793,17.10249671,16.70752089,16.76291793,,,,,,,,,,,,,,,,,,,,PF,3,weak,,,,,,,,7,2.238,,,,,,,,,,,,,,,,,,,,,,,,,,,,6,weak,43,59,1,0,0,response1disk,1,144,-4,-1,1,0,0,rectangle,-4,-1,1,0,0,1,4,0.002,-4,-1,1,0,0,0,143,143,46,1,0,,,,,,,,,,,,,,,,,,,,,
,,,,,,,,,,,,,,,,,,,,,,,,,,,,,,,,,,,,,,,,,,5ea97c4cbd6e6c07b00065e1,606a0f0ecd3a5661b270aa48,2021-04-04_21h14.50.335,Colour_Similarity_Experiment,2020.2.10,Win32,60,60675255c767bca6388caeee,18,16.70422535,16.76291793,17.10249671,16.70752089,16.76291793,,,,,,,,,,,,,,,,,,,,PF,3,weak,,,,,,,,7,1.471,,,,,,,,,,,,,,,,,,,,,,,,,,,,6,weak,48,84,1,0,0,response1disk,9,145,-1,-2,1,0,0,rectangle,-1,-2,1,0,0,1,2,0.002,-1,-2,1,0,0,0,144,144,45,1,0,,,,,,,,,,,,,,,,,,,,,
,,,,,,,,,,,,,,,,,,,,,,,,,,,,,,,,,,,,,,,,,,5ea97c4cbd6e6c07b00065e1,606a0f0ecd3a5661b270aa48,2021-04-04_21h14.50.335,Colour_Similarity_Experiment,2020.2.10,Win32,60,60675255c767bca6388caeee,18,16.70422535,16.76291793,17.10249671,16.70752089,16.76291793,,,,,,,,,,,,,,,,,,,,PF,3,weak,,,,,,,,4,2.121,,,,,,,,,,,,,,,,,,,,,,,,,,,,8,weak,46,-81,1,0,0,response3disk,1,146,2,-3,1,0,0,rectangle,2,-3,1,0,0,1,7,0.002,2,-3,1,0,0,0,145,145,57,1,0,,,,,,,,,,,,,,,,,,,,,
,,,,,,,,,,,,,,,,,,,,,,,,,,,,,,,,,,,,,,,,,,5ea97c4cbd6e6c07b00065e1,606a0f0ecd3a5661b270aa48,2021-04-04_21h14.50.335,Colour_Similarity_Experiment,2020.2.10,Win32,60,60675255c767bca6388caeee,18,16.70422535,16.76291793,17.10249671,16.70752089,16.76291793,,,,,,,,,,,,,,,,,,,,PF,3,strong,,,,,,,,5,2.12,,,,,,,,,,,,,,,,,,,,,,,,,,,,7,strong,63,-34,1,0,0,response3disk,4,147,-5,-6,1,0,0,rectangle,-5,-6,1,0,0,1,2,0.002,-5,-6,1,0,0,0,146,146,158,1,0,,,,,,,,,,,,,,,,,,,,,
,,,,,,,,,,,,,,,,,,,,,,,,,,,,,,,,,,,,,,,,,,5ea97c4cbd6e6c07b00065e1,606a0f0ecd3a5661b270aa48,2021-04-04_21h14.50.335,Colour_Similarity_Experiment,2020.2.10,Win32,60,60675255c767bca6388caeee,18,16.70422535,16.76291793,17.10249671,16.70752089,16.76291793,,,,,,,,,,,,,,,,,,,,PF,3,strong,,,,,,,,6,1.989,,,,,,,,,,,,,,,,,,,,,,,,,,,,2,strong,69,40,1,0,0,response1disk,9,148,7,3,1,0,0,rectangle,7,3,1,0,0,1,1,0.002,7,3,1,0,0,0,147,147,72,1,0,,,,,,,,,,,,,,,,,,,,,
,,,,,,,,,,,,,,,,,,,,,,,,,,,,,,,,,,,,,,,,,,5ea97c4cbd6e6c07b00065e1,606a0f0ecd3a5661b270aa48,2021-04-04_21h14.50.335,Colour_Similarity_Experiment,2020.2.10,Win32,60,60675255c767bca6388caeee,18,16.70422535,16.76291793,17.10249671,16.70752089,16.76291793,,,,,,,,,,,,,,,,,,,,PF,3,strong,,,,,,,,1,1.455,,,,,,,,,,,,,,,,,,,,,,,,,,,,9,strong,-82,44,1,0,0,response7disk,1,149,2,0,1,0,0,rectangle,2,0,1,0,0,1,4,0.003,2,0,1,0,0,0,148,148,111,1,0,,,,,,,,,,,,,,,,,,,,,
,,,,,,,,,,,,,,,,,,,,,,,,,,,,,,,,,,,,,,,,,,5ea97c4cbd6e6c07b00065e1,606a0f0ecd3a5661b270aa48,2021-04-04_21h14.50.335,Colour_Similarity_Experiment,2020.2.10,Win32,60,60675255c767bca6388caeee,18,16.70422535,16.76291793,17.10249671,16.70752089,16.76291793,,,,,,,,,,,,,,,,,,,,PF,3,strong,,,,,,,,4,1.746,,,,,,,,,,,,,,,,,,,,,,,,,,,,2,strong,35,-63,1,0,0,response3disk,6,150,3,6,1,0,0,rectangle,3,6,1,0,0,1,5,0.002,3,6,1,0,0,0,149,149,40,1,0,,,,,,,,,,,,,,,,,,,,,
,,,,,,,,,,,,,,,,,,,,,,,,,,,,,,,,,,,,,,,,,,5ea97c4cbd6e6c07b00065e1,606a0f0ecd3a5661b270aa48,2021-04-04_21h14.50.335,Colour_Similarity_Experiment,2020.2.10,Win32,60,60675255c767bca6388caeee,18,16.70422535,16.76291793,17.10249671,16.70752089,16.76291793,,,,,,,,,,,,,,,,,,,,PF,3,strong,,,,,,,,2,1.498,,,,,,,,,,,,,,,,,,,,,,,,,,,,7,strong,-75,-33,1,0,0,response5disk,8,151,-2,0,1,0,0,rectangle,-22,-74,1,0,0,3,3,2.949,4,-4,1,0,0,0,150,150,97,1,1,response5disk_3,rectangle,,,,,,,,,,,,,,,,,,,
,,,,,,,,,,,,,,,,,,,,,,,,,,,,,,,,,,,,,,,,,,5ea97c4cbd6e6c07b00065e1,606a0f0ecd3a5661b270aa48,2021-04-04_21h14.50.335,Colour_Similarity_Experiment,2020.2.10,Win32,60,60675255c767bca6388caeee,18,16.70422535,16.76291793,17.10249671,16.70752089,16.76291793,,,,,,,,,,,,,,,,,,,,PF,3,weak,,,,,,,,6,2.372,,,,,,,,,,,,,,,,,,,,,,,,,,,,8,weak,54,28,1,0,0,response1disk,8,152,4,1,1,0,0,rectangle,4,1,1,0,0,3,6,0.002,4,1,1,0,0,0,151,151,153,1,0,,,,,,,,,,,,,,,,,,,,,
,,,,,,,,,,,,,,,,,,,,,,,,,,,,,,,,,,,,,,,,,,5ea97c4cbd6e6c07b00065e1,606a0f0ecd3a5661b270aa48,2021-04-04_21h14.50.335,Colour_Similarity_Experiment,2020.2.10,Win32,60,60675255c767bca6388caeee,18,16.70422535,16.76291793,17.10249671,16.70752089,16.76291793,,,,,,,,,,,,,,,,,,,,PF,3,weak,,,,,,,,6,1.804,,,,,,,,,,,,,,,,,,,,,,,,,,,,8,weak,84,30,1,0,0,response1disk,2,153,3,-10,1,0,0,rectangle,3,-10,1,0,0,3,1,0.002,3,-10,1,0,0,0,152,152,83,1,0,,,,,,,,,,,,,,,,,,,,,
,,,,,,,,,,,,,,,,,,,,,,,,,,,,,,,,,,,,,,,,,,5ea97c4cbd6e6c07b00065e1,606a0f0ecd3a5661b270aa48,2021-04-04_21h14.50.335,Colour_Similarity_Experiment,2020.2.10,Win32,60,60675255c767bca6388caeee,18,16.70422535,16.76291793,17.10249671,16.70752089,16.76291793,,,,,,,,,,,,,,,,,,,,PF,3,weak,,,,,,,,7,0.706,,,,,,,,,,,,,,,,,,,,,,,,,,,,9,weak,32,84,1,0,0,response1disk,7,154,3,1,1,0,0,rectangle,3,1,1,0,0,3,3,0.003,3,1,1,0,0,0,153,153,121,1,0,,,,,,,,,,,,,,,,,,,,,
,,,,,,,,,,,,,,,,,,,,,,,,,,,,,,,,,,,,,,,,,,5ea97c4cbd6e6c07b00065e1,606a0f0ecd3a5661b270aa48,2021-04-04_21h14.50.335,Colour_Similarity_Experiment,2020.2.10,Win32,60,60675255c767bca6388caeee,18,16.70422535,16.76291793,17.10249671,16.70752089,16.76291793,,,,,,,,,,,,,,,,,,,,PF,3,strong,,,,,,,,1,2.322,,,,,,,,,,,,,,,,,,,,,,,,,,,,6,strong,-60,22,1,0,0,response7disk,7,155,-10,3,1,0,0,rectangle,-10,3,1,0,0,3,7,0.002,-10,3,1,0,0,0,154,154,18,1,0,,,,,,,,,,,,,,,,,,,,,
,,,,,,,,,,,,,,,,,,,,,,,,,,,,,,,,,,,,,,,,,,5ea97c4cbd6e6c07b00065e1,606a0f0ecd3a5661b270aa48,2021-04-04_21h14.50.335,Colour_Similarity_Experiment,2020.2.10,Win32,60,60675255c767bca6388caeee,18,16.70422535,16.76291793,17.10249671,16.70752089,16.76291793,,,,,,,,,,,,,,,,,,,,PF,3,weak,,,,,,,,1,1.072,,,,,,,,,,,,,,,,,,,,,,,,,,,,5,weak,-73,27,1,0,0,response7disk,6,156,10,0,1,0,0,rectangle,10,0,1,0,0,3,0,0.001,10,0,1,0,0,0,155,155,103,1,0,,,,,,,,,,,,,,,,,,,,,
,,,,,,,,,,,,,,,,,,,,,,,,,,,,,,,,,,,,,,,,,,5ea97c4cbd6e6c07b00065e1,606a0f0ecd3a5661b270aa48,2021-04-04_21h14.50.335,Colour_Similarity_Experiment,2020.2.10,Win32,60,60675255c767bca6388caeee,18,16.70422535,16.76291793,17.10249671,16.70752089,16.76291793,,,,,,,,,,,,,,,,,,,,PF,3,strong,,,,,,,,0,1.021,,,,,,,,,,,,,,,,,,,,,,,,,,,,5,strong,-50,87,1,0,0,response7disk,5,157,19,-13,1,0,0,rectangle,19,-13,1,0,0,3,0,0,19,-13,1,0,0,0,156,156,19,1,0,,,,,,,,,,,,,,,,,,,,,
,,,,,,,,,,,,,,,,,,,,,,,,,,,,,,,,,,,,,,,,,,5ea97c4cbd6e6c07b00065e1,606a0f0ecd3a5661b270aa48,2021-04-04_21h14.50.335,Colour_Similarity_Experiment,2020.2.10,Win32,60,60675255c767bca6388caeee,18,16.70422535,16.76291793,17.10249671,16.70752089,16.76291793,,,,,,,,,,,,,,,,,,,,PF,3,weak,,,,,,,,1,0.971,,,,,,,,,,,,,,,,,,,,,,,,,,,,9,weak,-63,25,1,0,0,response7disk,1,158,3,7,1,0,0,rectangle,3,7,1,0,0,3,2,0.001,3,7,1,0,0,0,157,157,74,1,0,,,,,,,,,,,,,,,,,,,,,
,,,,,,,,,,,,,,,,,,,,,,,,,,,,,,,,,,,,,,,,,,5ea97c4cbd6e6c07b00065e1,606a0f0ecd3a5661b270aa48,2021-04-04_21h14.50.335,Colour_Similarity_Experiment,2020.2.10,Win32,60,60675255c767bca6388caeee,18,16.70422535,16.76291793,17.10249671,16.70752089,16.76291793,,,,,,,,,,,,,,,,,,,,PF,3,strong,,,,,,,,7,0.723,,,,,,,,,,,,,,,,,,,,,,,,,,,,5,strong,28,70,1,0,0,response1disk,2,159,6,8,1,0,0,rectangle,-67,-64,1,0,0,3,2,1.75,1,-2,1,0,0,0,158,158,55,1,1,response5disk_3,rectangle,,,,,,,,,,,,,,,,,,,
,,,,,,,,,,,,,,,,,,,,,,,,,,,,,,,,,,,,,,,,,,5ea97c4cbd6e6c07b00065e1,606a0f0ecd3a5661b270aa48,2021-04-04_21h14.50.335,Colour_Similarity_Experiment,2020.2.10,Win32,60,60675255c767bca6388caeee,18,16.70422535,16.76291793,17.10249671,16.70752089,16.76291793,,,,,,,,,,,,,,,,,,,,PF,3,strong,,,,,,,,7,1.153,,,,,,,,,,,,,,,,,,,,,,,,,,,,4,strong,41,97,1,0,0,response1disk,1,160,-3,-3,1,0,0,rectangle,-3,-3,1,0,0,3,4,0.002,-3,-3,1,0,0,0,159,159,102,1,0,,,,,,,,,,,,,,,,,,,,,
,,,,,,,,,,,,,,,,,,,,,,,,,,,,,,,,,,,,,,,,,,5ea97c4cbd6e6c07b00065e1,606a0f0ecd3a5661b270aa48,2021-04-04_21h14.50.335,Colour_Similarity_Experiment,2020.2.10,Win32,60,60675255c767bca6388caeee,18,16.70422535,16.76291793,17.10249671,16.70752089,16.76291793,,,,,,,,,,,,,,,,,,,,PF,3,strong,,,,,,,,7,0.751,,,,,,,,,,,,,,,,,,,,,,,,,,,,8,strong,27,81,1,0,0,response1disk,2,161,-12,-7,1,0,0,rectangle,-12,-7,1,0,0,3,5,0.003,-12,-7,1,0,0,0,160,160,22,1,0,,,,,,,,,,,,,,,,,,,,,
,,,,,,,,,,,,,,,,,,,,,,,,,,,,,,,,,,,,,,,,,,5ea97c4cbd6e6c07b00065e1,606a0f0ecd3a5661b270aa48,2021-04-04_21h14.50.335,Colour_Similarity_Experiment,2020.2.10,Win32,60,60675255c767bca6388caeee,18,16.70422535,16.76291793,17.10249671,16.70752089,16.76291793,,,,,,,,,,,,,,,,,,,,PF,3,strong,,,,,,,,7,1.107,,,,,,,,,,,,,,,,,,,,,,,,,,,,8,strong,42,84,1,0,0,response1disk,4,162,-2,-1,1,0,0,rectangle,-2,-1,1,0,0,3,6,0.002,-2,-1,1,0,0,0,161,161,88,1,0,,,,,,,,,,,,,,,,,,,,,
,,,,,,,,,,,,,,,,,,,,,,,,,,,,,,,,,,,,,,,,,,5ea97c4cbd6e6c07b00065e1,606a0f0ecd3a5661b270aa48,2021-04-04_21h14.50.335,Colour_Similarity_Experiment,2020.2.10,Win32,60,60675255c767bca6388caeee,18,16.70422535,16.76291793,17.10249671,16.70752089,16.76291793,,,,,,,,,,,,,,,,,,,,,,,,,,,,,,,,,,,,,,,,,,,,,,,,,,,,,,,,,,,,,,,,,,,,,,,,,,,,,,,,,,,,,,,,,,,,,,,,0,0,0,0,1,,,,,,,,,,,,,,
,,,,,,,,,,,,,,,,,,,,,,,,,,,,,,,,,,,,,,,,,,5ea97c4cbd6e6c07b00065e1,606a0f0ecd3a5661b270aa48,2021-04-04_21h14.50.335,Colour_Similarity_Experiment,2020.2.10,Win32,60,60675255c767bca6388caeee,18,16.70422535,16.76291793,17.10249671,16.70752089,16.76291793,,,,,,,,,,,,,,,,,,,,PF,3,weak,,,,,,,,3,1.307,,,,,,,,,,,,,,,,,,,,,,,,,,,,4,weak,-31,-83,1,0,0,response5disk,2,163,-8,0,1,0,0,rectangle,-8,0,1,0,0,3,0,0.002,-8,0,1,0,0,0,0,0,108,1,0,,,,,,,,,,,,,,,,,,,,,
,,,,,,,,,,,,,,,,,,,,,,,,,,,,,,,,,,,,,,,,,,5ea97c4cbd6e6c07b00065e1,606a0f0ecd3a5661b270aa48,2021-04-04_21h14.50.335,Colour_Similarity_Experiment,2020.2.10,Win32,60,60675255c767bca6388caeee,18,16.70422535,16.76291793,17.10249671,16.70752089,16.76291793,,,,,,,,,,,,,,,,,,,,PF,3,strong,,,,,,,,1,0.873,,,,,,,,,,,,,,,,,,,,,,,,,,,,6,strong,-64,31,1,0,0,response7disk,5,164,12,1,1,0,0,rectangle,12,1,1,0,0,3,2,0.001,12,1,1,0,0,0,1,1,126,1,0,,,,,,,,,,,,,,,,,,,,,
,,,,,,,,,,,,,,,,,,,,,,,,,,,,,,,,,,,,,,,,,,5ea97c4cbd6e6c07b00065e1,606a0f0ecd3a5661b270aa48,2021-04-04_21h14.50.335,Colour_Similarity_Experiment,2020.2.10,Win32,60,60675255c767bca6388caeee,18,16.70422535,16.76291793,17.10249671,16.70752089,16.76291793,,,,,,,,,,,,,,,,,,,,PF,3,weak,,,,,,,,7,0.673,,,,,,,,,,,,,,,,,,,,,,,,,,,,5,weak,34,65,1,0,0,response1disk,3,165,12,12,1,0,0,rectangle,12,12,1,0,0,3,5,0.003,12,12,1,0,0,0,2,2,109,1,0,,,,,,,,,,,,,,,,,,,,,
,,,,,,,,,,,,,,,,,,,,,,,,,,,,,,,,,,,,,,,,,,5ea97c4cbd6e6c07b00065e1,606a0f0ecd3a5661b270aa48,2021-04-04_21h14.50.335,Colour_Similarity_Experiment,2020.2.10,Win32,60,60675255c767bca6388caeee,18,16.70422535,16.76291793,17.10249671,16.70752089,16.76291793,,,,,,,,,,,,,,,,,,,,PF,3,strong,,,,,,,,6,3.072,,,,,,,,,,,,,,,,,,,,,,,,,,,,1,strong,97,36,1,0,0,response1disk,3,166,5,1,1,0,0,rectangle,5,1,1,0,0,3,7,0.002,5,1,1,0,0,0,3,3,99,1,0,,,,,,,,,,,,,,,,,,,,,
,,,,,,,,,,,,,,,,,,,,,,,,,,,,,,,,,,,,,,,,,,5ea97c4cbd6e6c07b00065e1,606a0f0ecd3a5661b270aa48,2021-04-04_21h14.50.335,Colour_Similarity_Experiment,2020.2.10,Win32,60,60675255c767bca6388caeee,18,16.70422535,16.76291793,17.10249671,16.70752089,16.76291793,,,,,,,,,,,,,,,,,,,,PF,3,strong,,,,,,,,1,0.928,,,,,,,,,,,,,,,,,,,,,,,,,,,,6,strong,-88,45,1,0,0,response7disk,6,167,1,3,1,0,0,rectangle,1,3,1,0,0,3,5,0.003,1,3,1,0,0,0,4,4,91,1,0,,,,,,,,,,,,,,,,,,,,,
,,,,,,,,,,,,,,,,,,,,,,,,,,,,,,,,,,,,,,,,,,5ea97c4cbd6e6c07b00065e1,606a0f0ecd3a5661b270aa48,2021-04-04_21h14.50.335,Colour_Similarity_Experiment,2020.2.10,Win32,60,60675255c767bca6388caeee,18,16.70422535,16.76291793,17.10249671,16.70752089,16.76291793,,,,,,,,,,,,,,,,,,,,PF,3,strong,,,,,,,,1,1.004,,,,,,,,,,,,,,,,,,,,,,,,,,,,1,strong,-71,18,1,0,0,response7disk,9,168,-6,-2,1,0,0,rectangle,-6,-2,1,0,0,3,4,0.002,-6,-2,1,0,0,0,5,5,123,1,0,,,,,,,,,,,,,,,,,,,,,
,,,,,,,,,,,,,,,,,,,,,,,,,,,,,,,,,,,,,,,,,,5ea97c4cbd6e6c07b00065e1,606a0f0ecd3a5661b270aa48,2021-04-04_21h14.50.335,Colour_Similarity_Experiment,2020.2.10,Win32,60,60675255c767bca6388caeee,18,16.70422535,16.76291793,17.10249671,16.70752089,16.76291793,,,,,,,,,,,,,,,,,,,,PF,3,strong,,,,,,,,6,1.719,,,,,,,,,,,,,,,,,,,,,,,,,,,,4,strong,100,41,1,0,0,response1disk,7,169,8,8,1,0,0,rectangle,8,8,1,0,0,3,2,0.002,8,8,1,0,0,0,6,6,87,1,0,,,,,,,,,,,,,,,,,,,,,
,,,,,,,,,,,,,,,,,,,,,,,,,,,,,,,,,,,,,,,,,,5ea97c4cbd6e6c07b00065e1,606a0f0ecd3a5661b270aa48,2021-04-04_21h14.50.335,Colour_Similarity_Experiment,2020.2.10,Win32,60,60675255c767bca6388caeee,18,16.70422535,16.76291793,17.10249671,16.70752089,16.76291793,,,,,,,,,,,,,,,,,,,,PF,3,strong,,,,,,,,7,1.039,,,,,,,,,,,,,,,,,,,,,,,,,,,,1,strong,52,97,1,0,0,response1disk,6,170,6,10,1,0,0,rectangle,6,10,1,0,0,3,6,0.002,6,10,1,0,0,0,7,7,58,1,0,,,,,,,,,,,,,,,,,,,,,
,,,,,,,,,,,,,,,,,,,,,,,,,,,,,,,,,,,,,,,,,,5ea97c4cbd6e6c07b00065e1,606a0f0ecd3a5661b270aa48,2021-04-04_21h14.50.335,Colour_Similarity_Experiment,2020.2.10,Win32,60,60675255c767bca6388caeee,18,16.70422535,16.76291793,17.10249671,16.70752089,16.76291793,,,,,,,,,,,,,,,,,,,,PF,3,weak,,,,,,,,5,2.189,,,,,,,,,,,,,,,,,,,,,,,,,,,,3,weak,94,-47,1,0,0,response3disk,6,171,11,-7,1,0,0,rectangle,11,-7,1,0,0,3,4,0.003,11,-7,1,0,0,0,8,8,47,1,0,,,,,,,,,,,,,,,,,,,,,
,,,,,,,,,,,,,,,,,,,,,,,,,,,,,,,,,,,,,,,,,,5ea97c4cbd6e6c07b00065e1,606a0f0ecd3a5661b270aa48,2021-04-04_21h14.50.335,Colour_Similarity_Experiment,2020.2.10,Win32,60,60675255c767bca6388caeee,18,16.70422535,16.76291793,17.10249671,16.70752089,16.76291793,,,,,,,,,,,,,,,,,,,,PF,3,strong,,,,,,,,7,1.055,,,,,,,,,,,,,,,,,,,,,,,,,,,,5,strong,65,82,1,0,0,response1disk,9,172,-6,-8,1,0,0,rectangle,-6,-8,1,0,0,3,7,0.002,-6,-8,1,0,0,0,9,9,61,1,0,,,,,,,,,,,,,,,,,,,,,
,,,,,,,,,,,,,,,,,,,,,,,,,,,,,,,,,,,,,,,,,,5ea97c4cbd6e6c07b00065e1,606a0f0ecd3a5661b270aa48,2021-04-04_21h14.50.335,Colour_Similarity_Experiment,2020.2.10,Win32,60,60675255c767bca6388caeee,18,16.70422535,16.76291793,17.10249671,16.70752089,16.76291793,,,,,,,,,,,,,,,,,,,,PF,3,strong,,,,,,,,7,0.893,,,,,,,,,,,,,,,,,,,,,,,,,,,,9,strong,35,74,1,0,0,response1disk,5,173,10,6,1,0,0,rectangle,10,6,1,0,0,3,0,0.002,10,6,1,0,0,0,10,10,128,1,0,,,,,,,,,,,,,,,,,,,,,
,,,,,,,,,,,,,,,,,,,,,,,,,,,,,,,,,,,,,,,,,,5ea97c4cbd6e6c07b00065e1,606a0f0ecd3a5661b270aa48,2021-04-04_21h14.50.335,Colour_Similarity_Experiment,2020.2.10,Win32,60,60675255c767bca6388caeee,18,16.70422535,16.76291793,17.10249671,16.70752089,16.76291793,,,,,,,,,,,,,,,,,,,,PF,3,strong,,,,,,,,2,1.41,,,,,,,,,,,,,,,,,,,,,,,,,,,,1,strong,-83,-30,1,0,0,response5disk,2,174,-4,7,1,0,0,rectangle,-4,7,1,0,0,3,0,0.001,-4,7,1,0,0,0,11,11,2,1,0,,,,,,,,,,,,,,,,,,,,,
,,,,,,,,,,,,,,,,,,,,,,,,,,,,,,,,,,,,,,,,,,5ea97c4cbd6e6c07b00065e1,606a0f0ecd3a5661b270aa48,2021-04-04_21h14.50.335,Colour_Similarity_Experiment,2020.2.10,Win32,60,60675255c767bca6388caeee,18,16.70422535,16.76291793,17.10249671,16.70752089,16.76291793,,,,,,,,,,,,,,,,,,,,PF,3,weak,,,,,,,,7,1.438,,,,,,,,,,,,,,,,,,,,,,,,,,,,9,weak,40,88,1,0,0,response1disk,5,175,-1,3,1,0,0,rectangle,-1,3,1,0,0,3,6,0.002,-1,3,1,0,0,0,12,12,134,1,0,,,,,,,,,,,,,,,,,,,,,
,,,,,,,,,,,,,,,,,,,,,,,,,,,,,,,,,,,,,,,,,,5ea97c4cbd6e6c07b00065e1,606a0f0ecd3a5661b270aa48,2021-04-04_21h14.50.335,Colour_Similarity_Experiment,2020.2.10,Win32,60,60675255c767bca6388caeee,18,16.70422535,16.76291793,17.10249671,16.70752089,16.76291793,,,,,,,,,,,,,,,,,,,,PF,3,strong,,,,,,,,2,1.283,,,,,,,,,,,,,,,,,,,,,,,,,,,,4,strong,-90,-33,1,0,0,response5disk,6,176,-12,-3,1,0,0,rectangle,-12,-3,1,0,0,3,3,0.002,-12,-3,1,0,0,0,13,13,122,1,0,,,,,,,,,,,,,,,,,,,,,
,,,,,,,,,,,,,,,,,,,,,,,,,,,,,,,,,,,,,,,,,,5ea97c4cbd6e6c07b00065e1,606a0f0ecd3a5661b270aa48,2021-04-04_21h14.50.335,Colour_Similarity_Experiment,2020.2.10,Win32,60,60675255c767bca6388caeee,18,16.70422535,16.76291793,17.10249671,16.70752089,16.76291793,,,,,,,,,,,,,,,,,,,,PF,3,weak,,,,,,,,7,0.789,,,,,,,,,,,,,,,,,,,,,,,,,,,,6,weak,24,69,1,0,0,response1disk,8,177,2,4,1,0,0,rectangle,2,4,1,0,0,3,3,0.001,2,4,1,0,0,0,14,14,64,1,0,,,,,,,,,,,,,,,,,,,,,
,,,,,,,,,,,,,,,,,,,,,,,,,,,,,,,,,,,,,,,,,,5ea97c4cbd6e6c07b00065e1,606a0f0ecd3a5661b270aa48,2021-04-04_21h14.50.335,Colour_Similarity_Experiment,2020.2.10,Win32,60,60675255c767bca6388caeee,18,16.70422535,16.76291793,17.10249671,16.70752089,16.76291793,,,,,,,,,,,,,,,,,,,,PF,3,weak,,,,,,,,2,1.418,,,,,,,,,,,,,,,,,,,,,,,,,,,,3,weak,-75,-29,1,0,0,response5disk,4,178,-13,10,1,0,0,rectangle,-13,10,1,0,0,3,2,0.002,-13,10,1,0,0,0,15,15,30,1,0,,,,,,,,,,,,,,,,,,,,,
,,,,,,,,,,,,,,,,,,,,,,,,,,,,,,,,,,,,,,,,,,5ea97c4cbd6e6c07b00065e1,606a0f0ecd3a5661b270aa48,2021-04-04_21h14.50.335,Colour_Similarity_Experiment,2020.2.10,Win32,60,60675255c767bca6388caeee,18,16.70422535,16.76291793,17.10249671,16.70752089,16.76291793,,,,,,,,,,,,,,,,,,,,PF,3,strong,,,,,,,,1,0.864,,,,,,,,,,,,,,,,,,,,,,,,,,,,5,strong,-68,20,1,0,0,response7disk,3,179,-13,3,1,0,0,rectangle,-13,3,1,0,0,3,2,0,-13,3,1,0,0,0,16,16,25,1,0,,,,,,,,,,,,,,,,,,,,,
,,,,,,,,,,,,,,,,,,,,,,,,,,,,,,,,,,,,,,,,,,5ea97c4cbd6e6c07b00065e1,606a0f0ecd3a5661b270aa48,2021-04-04_21h14.50.335,Colour_Similarity_Experiment,2020.2.10,Win32,60,60675255c767bca6388caeee,18,16.70422535,16.76291793,17.10249671,16.70752089,16.76291793,,,,,,,,,,,,,,,,,,,,PF,3,weak,,,,,,,,7,1.354,,,,,,,,,,,,,,,,,,,,,,,,,,,,2,weak,62,105,1,0,0,response1disk,6,180,7,10,1,0,0,rectangle,7,10,1,0,0,3,7,0.002,7,10,1,0,0,0,17,17,113,1,0,,,,,,,,,,,,,,,,,,,,,
,,,,,,,,,,,,,,,,,,,,,,,,,,,,,,,,,,,,,,,,,,5ea97c4cbd6e6c07b00065e1,606a0f0ecd3a5661b270aa48,2021-04-04_21h14.50.335,Colour_Similarity_Experiment,2020.2.10,Win32,60,60675255c767bca6388caeee,18,16.70422535,16.76291793,17.10249671,16.70752089,16.76291793,,,,,,,,,,,,,,,,,,,,PF,3,strong,,,,,,,,1,1.073,,,,,,,,,,,,,,,,,,,,,,,,,,,,7,strong,-95,39,1,0,0,response7disk,6,181,-11,6,1,0,0,rectangle,-11,6,1,0,0,3,2,0.002,-11,6,1,0,0,0,18,18,31,1,0,,,,,,,,,,,,,,,,,,,,,
,,,,,,,,,,,,,,,,,,,,,,,,,,,,,,,,,,,,,,,,,,5ea97c4cbd6e6c07b00065e1,606a0f0ecd3a5661b270aa48,2021-04-04_21h14.50.335,Colour_Similarity_Experiment,2020.2.10,Win32,60,60675255c767bca6388caeee,18,16.70422535,16.76291793,17.10249671,16.70752089,16.76291793,,,,,,,,,,,,,,,,,,,,PF,3,weak,,,,,,,,2,1.971,,,,,,,,,,,,,,,,,,,,,,,,,,,,6,weak,-65,-44,1,0,0,response5disk,6,182,-1,-9,1,0,0,rectangle,-1,-9,1,0,0,3,0,0.002,-1,-9,1,0,0,0,19,19,0,1,0,,,,,,,,,,,,,,,,,,,,,
,,,,,,,,,,,,,,,,,,,,,,,,,,,,,,,,,,,,,,,,,,5ea97c4cbd6e6c07b00065e1,606a0f0ecd3a5661b270aa48,2021-04-04_21h14.50.335,Colour_Similarity_Experiment,2020.2.10,Win32,60,60675255c767bca6388caeee,18,16.70422535,16.76291793,17.10249671,16.70752089,16.76291793,,,,,,,,,,,,,,,,,,,,PF,3,strong,,,,,,,,2,1.279,,,,,,,,,,,,,,,,,,,,,,,,,,,,8,strong,-74,-23,1,0,0,response5disk,7,183,18,8,1,0,0,rectangle,18,8,1,0,0,3,4,0.002,18,8,1,0,0,0,20,20,86,1,0,,,,,,,,,,,,,,,,,,,,,
,,,,,,,,,,,,,,,,,,,,,,,,,,,,,,,,,,,,,,,,,,5ea97c4cbd6e6c07b00065e1,606a0f0ecd3a5661b270aa48,2021-04-04_21h14.50.335,Colour_Similarity_Experiment,2020.2.10,Win32,60,60675255c767bca6388caeee,18,16.70422535,16.76291793,17.10249671,16.70752089,16.76291793,,,,,,,,,,,,,,,,,,,,PF,3,strong,,,,,,,,7,0.71,,,,,,,,,,,,,,,,,,,,,,,,,,,,9,strong,42,101,1,0,0,response1disk,2,184,-5,1,1,0,0,rectangle,83,34,1,0,0,6,6,1.549,-9,5,1,0,0,0,21,21,11,1,1,response1disk_3,rectangle,,,,,,,,,,,,,,,,,,,
,,,,,,,,,,,,,,,,,,,,,,,,,,,,,,,,,,,,,,,,,,5ea97c4cbd6e6c07b00065e1,606a0f0ecd3a5661b270aa48,2021-04-04_21h14.50.335,Colour_Similarity_Experiment,2020.2.10,Win32,60,60675255c767bca6388caeee,18,16.70422535,16.76291793,17.10249671,16.70752089,16.76291793,,,,,,,,,,,,,,,,,,,,PF,3,weak,,,,,,,,7,0.657,,,,,,,,,,,,,,,,,,,,,,,,,,,,5,weak,48,87,1,0,0,response1disk,7,185,-3,-1,1,0,0,rectangle,-3,-1,1,0,0,6,6,0,-3,-1,1,0,0,0,22,22,146,1,0,,,,,,,,,,,,,,,,,,,,,
,,,,,,,,,,,,,,,,,,,,,,,,,,,,,,,,,,,,,,,,,,5ea97c4cbd6e6c07b00065e1,606a0f0ecd3a5661b270aa48,2021-04-04_21h14.50.335,Colour_Similarity_Experiment,2020.2.10,Win32,60,60675255c767bca6388caeee,18,16.70422535,16.76291793,17.10249671,16.70752089,16.76291793,,,,,,,,,,,,,,,,,,,,PF,3,strong,,,,,,,,0,0.789,,,,,,,,,,,,,,,,,,,,,,,,,,,,7,strong,-36,93,1,0,0,response7disk,7,186,5,-5,1,0,0,rectangle,5,-5,1,0,0,6,6,0,5,-5,1,0,0,0,23,23,34,1,0,,,,,,,,,,,,,,,,,,,,,
,,,,,,,,,,,,,,,,,,,,,,,,,,,,,,,,,,,,,,,,,,5ea97c4cbd6e6c07b00065e1,606a0f0ecd3a5661b270aa48,2021-04-04_21h14.50.335,Colour_Similarity_Experiment,2020.2.10,Win32,60,60675255c767bca6388caeee,18,16.70422535,16.76291793,17.10249671,16.70752089,16.76291793,,,,,,,,,,,,,,,,,,,,PF,3,strong,,,,,,,,7,1.007,,,,,,,,,,,,,,,,,,,,,,,,,,,,7,strong,45,89,1,0,0,response1disk,1,187,6,-7,1,0,0,rectangle,6,-7,1,0,0,6,4,0.002,6,-7,1,0,0,0,24,24,132,1,0,,,,,,,,,,,,,,,,,,,,,
,,,,,,,,,,,,,,,,,,,,,,,,,,,,,,,,,,,,,,,,,,5ea97c4cbd6e6c07b00065e1,606a0f0ecd3a5661b270aa48,2021-04-04_21h14.50.335,Colour_Similarity_Experiment,2020.2.10,Win32,60,60675255c767bca6388caeee,18,16.70422535,16.76291793,17.10249671,16.70752089,16.76291793,,,,,,,,,,,,,,,,,,,,PF,3,weak,,,,,,,,7,1.243,,,,,,,,,,,,,,,,,,,,,,,,,,,,4,weak,51,93,1,0,0,response1disk,1,188,-2,-5,1,0,0,rectangle,-2,-5,1,0,0,6,1,0.001,-2,-5,1,0,0,0,25,25,115,1,0,,,,,,,,,,,,,,,,,,,,,
,,,,,,,,,,,,,,,,,,,,,,,,,,,,,,,,,,,,,,,,,,5ea97c4cbd6e6c07b00065e1,606a0f0ecd3a5661b270aa48,2021-04-04_21h14.50.335,Colour_Similarity_Experiment,2020.2.10,Win32,60,60675255c767bca6388caeee,18,16.70422535,16.76291793,17.10249671,16.70752089,16.76291793,,,,,,,,,,,,,,,,,,,,PF,3,weak,,,,,,,,7,0.803,,,,,,,,,,,,,,,,,,,,,,,,,,,,9,weak,53,90,1,0,0,response1disk,4,189,3,-4,1,0,0,rectangle,3,-4,1,0,0,6,6,0.001,3,-4,1,0,0,0,26,26,114,1,0,,,,,,,,,,,,,,,,,,,,,
,,,,,,,,,,,,,,,,,,,,,,,,,,,,,,,,,,,,,,,,,,5ea97c4cbd6e6c07b00065e1,606a0f0ecd3a5661b270aa48,2021-04-04_21h14.50.335,Colour_Similarity_Experiment,2020.2.10,Win32,60,60675255c767bca6388caeee,18,16.70422535,16.76291793,17.10249671,16.70752089,16.76291793,,,,,,,,,,,,,,,,,,,,PF,3,weak,,,,,,,,3,2.59,,,,,,,,,,,,,,,,,,,,,,,,,,,,4,weak,-32,-53,1,0,0,response5disk,7,190,-3,-4,1,0,0,rectangle,-3,-4,1,0,0,6,0,0.002,-3,-4,1,0,0,0,27,27,38,1,0,,,,,,,,,,,,,,,,,,,,,
,,,,,,,,,,,,,,,,,,,,,,,,,,,,,,,,,,,,,,,,,,5ea97c4cbd6e6c07b00065e1,606a0f0ecd3a5661b270aa48,2021-04-04_21h14.50.335,Colour_Similarity_Experiment,2020.2.10,Win32,60,60675255c767bca6388caeee,18,16.70422535,16.76291793,17.10249671,16.70752089,16.76291793,,,,,,,,,,,,,,,,,,,,PF,3,strong,,,,,,,,7,0.719,,,,,,,,,,,,,,,,,,,,,,,,,,,,8,strong,53,92,1,0,0,response1disk,5,191,2,-1,1,0,0,rectangle,2,-1,1,0,0,6,1,0.002,2,-1,1,0,0,0,28,28,152,1,0,,,,,,,,,,,,,,,,,,,,,
,,,,,,,,,,,,,,,,,,,,,,,,,,,,,,,,,,,,,,,,,,5ea97c4cbd6e6c07b00065e1,606a0f0ecd3a5661b270aa48,2021-04-04_21h14.50.335,Colour_Similarity_Experiment,2020.2.10,Win32,60,60675255c767bca6388caeee,18,16.70422535,16.76291793,17.10249671,16.70752089,16.76291793,,,,,,,,,,,,,,,,,,,,PF,3,weak,,,,,,,,7,1.069,,,,,,,,,,,,,,,,,,,,,,,,,,,,1,weak,44,66,1,0,0,response1disk,3,192,11,0,1,0,0,rectangle,11,0,1,0,0,6,2,0.002,11,0,1,0,0,0,29,29,1,1,0,,,,,,,,,,,,,,,,,,,,,
,,,,,,,,,,,,,,,,,,,,,,,,,,,,,,,,,,,,,,,,,,5ea97c4cbd6e6c07b00065e1,606a0f0ecd3a5661b270aa48,2021-04-04_21h14.50.335,Colour_Similarity_Experiment,2020.2.10,Win32,60,60675255c767bca6388caeee,18,16.70422535,16.76291793,17.10249671,16.70752089,16.76291793,,,,,,,,,,,,,,,,,,,,PF,3,weak,,,,,,,,7,0.649,,,,,,,,,,,,,,,,,,,,,,,,,,,,3,weak,54,98,1,0,0,response1disk,3,193,7,4,1,0,0,rectangle,7,4,1,0,0,6,0,0.002,7,4,1,0,0,0,30,30,4,1,0,,,,,,,,,,,,,,,,,,,,,
,,,,,,,,,,,,,,,,,,,,,,,,,,,,,,,,,,,,,,,,,,5ea97c4cbd6e6c07b00065e1,606a0f0ecd3a5661b270aa48,2021-04-04_21h14.50.335,Colour_Similarity_Experiment,2020.2.10,Win32,60,60675255c767bca6388caeee,18,16.70422535,16.76291793,17.10249671,16.70752089,16.76291793,,,,,,,,,,,,,,,,,,,,PF,3,strong,,,,,,,,0,1.088,,,,,,,,,,,,,,,,,,,,,,,,,,,,1,strong,-22,95,1,0,0,response7disk,1,194,1,9,1,0,0,rectangle,1,9,1,0,0,6,6,0.002,1,9,1,0,0,0,31,31,151,1,0,,,,,,,,,,,,,,,,,,,,,
,,,,,,,,,,,,,,,,,,,,,,,,,,,,,,,,,,,,,,,,,,5ea97c4cbd6e6c07b00065e1,606a0f0ecd3a5661b270aa48,2021-04-04_21h14.50.335,Colour_Similarity_Experiment,2020.2.10,Win32,60,60675255c767bca6388caeee,18,16.70422535,16.76291793,17.10249671,16.70752089,16.76291793,,,,,,,,,,,,,,,,,,,,PF,3,strong,,,,,,,,2,1.523,,,,,,,,,,,,,,,,,,,,,,,,,,,,2,strong,-65,-34,1,0,0,response5disk,3,195,23,4,1,0,0,rectangle,-39,-109,1,0,0,3,3,1.684,17,0,1,0,0,0,32,32,104,1,1,response5disk_3,rectangle,,,,,,,,,,,,,,,,,,,
,,,,,,,,,,,,,,,,,,,,,,,,,,,,,,,,,,,,,,,,,,5ea97c4cbd6e6c07b00065e1,606a0f0ecd3a5661b270aa48,2021-04-04_21h14.50.335,Colour_Similarity_Experiment,2020.2.10,Win32,60,60675255c767bca6388caeee,18,16.70422535,16.76291793,17.10249671,16.70752089,16.76291793,,,,,,,,,,,,,,,,,,,,PF,3,weak,,,,,,,,1,0.972,,,,,,,,,,,,,,,,,,,,,,,,,,,,4,weak,-89,36,1,0,0,response7disk,5,196,0,-1,1,0,0,rectangle,0,-1,1,0,0,3,7,0.002,0,-1,1,0,0,0,33,33,49,1,0,,,,,,,,,,,,,,,,,,,,,
,,,,,,,,,,,,,,,,,,,,,,,,,,,,,,,,,,,,,,,,,,5ea97c4cbd6e6c07b00065e1,606a0f0ecd3a5661b270aa48,2021-04-04_21h14.50.335,Colour_Similarity_Experiment,2020.2.10,Win32,60,60675255c767bca6388caeee,18,16.70422535,16.76291793,17.10249671,16.70752089,16.76291793,,,,,,,,,,,,,,,,,,,,PF,3,strong,,,,,,,,0,0.854,,,,,,,,,,,,,,,,,,,,,,,,,,,,2,strong,-31,95,1,0,0,response7disk,2,197,2,2,1,0,0,rectangle,2,2,1,0,0,3,2,0.002,2,2,1,0,0,0,34,34,142,1,0,,,,,,,,,,,,,,,,,,,,,
,,,,,,,,,,,,,,,,,,,,,,,,,,,,,,,,,,,,,,,,,,5ea97c4cbd6e6c07b00065e1,606a0f0ecd3a5661b270aa48,2021-04-04_21h14.50.335,Colour_Similarity_Experiment,2020.2.10,Win32,60,60675255c767bca6388caeee,18,16.70422535,16.76291793,17.10249671,16.70752089,16.76291793,,,,,,,,,,,,,,,,,,,,PF,3,strong,,,,,,,,7,0.789,,,,,,,,,,,,,,,,,,,,,,,,,,,,5,strong,35,71,1,0,0,response1disk,1,198,9,9,1,0,0,rectangle,9,9,1,0,0,3,0,0.002,9,9,1,0,0,0,35,35,131,1,0,,,,,,,,,,,,,,,,,,,,,
,,,,,,,,,,,,,,,,,,,,,,,,,,,,,,,,,,,,,,,,,,5ea97c4cbd6e6c07b00065e1,606a0f0ecd3a5661b270aa48,2021-04-04_21h14.50.335,Colour_Similarity_Experiment,2020.2.10,Win32,60,60675255c767bca6388caeee,18,16.70422535,16.76291793,17.10249671,16.70752089,16.76291793,,,,,,,,,,,,,,,,,,,,PF,3,weak,,,,,,,,3,1.274,,,,,,,,,,,,,,,,,,,,,,,,,,,,4,weak,-45,-58,1,0,0,response5disk,6,199,3,-8,1,0,0,rectangle,3,-8,1,0,0,3,2,0.001,3,-8,1,0,0,0,36,36,120,1,0,,,,,,,,,,,,,,,,,,,,,
,,,,,,,,,,,,,,,,,,,,,,,,,,,,,,,,,,,,,,,,,,5ea97c4cbd6e6c07b00065e1,606a0f0ecd3a5661b270aa48,2021-04-04_21h14.50.335,Colour_Similarity_Experiment,2020.2.10,Win32,60,60675255c767bca6388caeee,18,16.70422535,16.76291793,17.10249671,16.70752089,16.76291793,,,,,,,,,,,,,,,,,,,,PF,3,strong,,,,,,,,7,1.022,,,,,,,,,,,,,,,,,,,,,,,,,,,,4,strong,16,88,1,0,0,response1disk,8,200,1,-3,1,0,0,rectangle,1,-3,1,0,0,3,1,0.002,1,-3,1,0,0,0,37,37,35,1,0,,,,,,,,,,,,,,,,,,,,,
,,,,,,,,,,,,,,,,,,,,,,,,,,,,,,,,,,,,,,,,,,5ea97c4cbd6e6c07b00065e1,606a0f0ecd3a5661b270aa48,2021-04-04_21h14.50.335,Colour_Similarity_Experiment,2020.2.10,Win32,60,60675255c767bca6388caeee,18,16.70422535,16.76291793,17.10249671,16.70752089,16.76291793,,,,,,,,,,,,,,,,,,,,PF,3,weak,,,,,,,,1,1.222,,,,,,,,,,,,,,,,,,,,,,,,,,,,7,weak,-79,36,1,0,0,response7disk,8,201,14,-7,1,0,0,rectangle,14,-7,1,0,0,3,0,0.002,14,-7,1,0,0,0,38,38,140,1,0,,,,,,,,,,,,,,,,,,,,,
