key_resp.keys,key_resp.rt,key_resp_16.keys,key_resp_16.rt,key_resp_2.keys,key_resp_2.rt,X Scale,ratio_pxpermm,screen_size_x,screen_size_y,testsize,key_resp_3.keys,key_resp_4.keys,key_resp_4.rt,line_size,key_resp_5.keys,key_resp_5.rt,key_resp_6.keys,key_resp_6.rt,key_resp_8.keys,key_resp_8.rt,key_resp_7.keys,key_resp_7.rt,key_resp_12.keys,key_resp_12.rt,key_resp_11.keys,key_resp_11.rt,key_resp_18.keys,key_resp_18.rt,key_resp_21.keys,key_resp_21.rt,key_resp_13.keys,key_resp_13.rt,key_resp_19.keys,key_resp_19.rt,ballposx,viewer_distance,trials.thisRepN,trials.thisTrialN,trials.thisN,trials.thisIndex,trials.ran,participant,session,date,expName,psychopyVersion,OS,frameRate,study_id,realFrameRate1,realFrameRate2,realFrameRate3,realFrameRate4,realFrameRate5,realFrameRate,viewerdistancecm,DVA_to_distance,radius_F,radius_P,r_F,R_P,key_resp_20.keys,key_resp_20.rt,key_resp_14.keys,key_resp_14.rt,key_resp_15.keys,key_resp_15.rt,key_resp_17.keys,key_resp_17.rt,key_resp_9.keys,key_resp_9.rt,key_resp_10.keys,key_resp_10.rt,Colour_1,Ecc,mask_frames,maskCon,mouse_5.x,mouse_5.y,mouse_5.leftButton,mouse_5.midButton,mouse_5.rightButton,mouse_5.clicked_name,Colour_2,similarity,response_time,mouse_10.x,mouse_10.y,mouse_10.leftButton,mouse_10.midButton,mouse_10.rightButton,mouse_10.clicked_name,mouse_7.x,mouse_7.y,mouse_7.leftButton,mouse_7.midButton,mouse_7.rightButton,catchnumberprac,mouse_6.x,mouse_6.y,mouse_6.leftButton,mouse_6.midButton,mouse_6.rightButton,duringprac.thisRepN,duringprac.thisTrialN,duringprac.thisN,duringprac.thisIndex,duringprac.ran,mouse_7.clicked_name,catchprac,mouse_6.clicked_name,key_resp_22.keys,key_resp_22.rt,Colour1,maskCon1,mouse.x,mouse.y,mouse.leftButton,mouse.midButton,mouse.rightButton,mouse.clicked_name,Colour2,trialnumber,mouse_2.x,mouse_2.y,mouse_2.leftButton,mouse_2.midButton,mouse_2.rightButton,mouse_2.clicked_name,mouse_3.x,mouse_3.y,mouse_3.leftButton,mouse_3.midButton,mouse_3.rightButton,catchresponse,catchnumber,response_time_catch,mouse_11.x,mouse_11.y,mouse_11.leftButton,mouse_11.midButton,mouse_11.rightButton,trials_2.thisRepN,trials_2.thisTrialN,trials_2.thisN,trials_2.thisIndex,trials_2.ran,Catch,mouse_3.clicked_name,mouse_11.clicked_name,trials_3.thisRepN,trials_3.thisTrialN,trials_3.thisN,trials_3.thisIndex,trials_3.ran,answer1,rt1,answer2,rt2,answer3,rt3,answer4,rt4,answer5,rt5,answer6,rt6,answer7,rt7
space,2.8923,space,6.06063,space,9.88619,50.1,5.01,306.5868263,172.4550898,1536,,space,30.100715,100.2,space,23.768465,space,7.02523,space,3.70997,space,8.06862,space,12.60846,space,14.681605,space,14.324945,space,18.996215,space,34.177775,return,5.498885,-188.928,667.8848654,0,0,0,0,1,5f011e4abcc6d126f234516c,606a0fd656eb9aa6d45444a1,2021-04-04_21h13.41.123,Colour_Similarity_Experiment,2020.2.10,Win32,60,60675255c767bca6388caeee,17.44891844,16.7472541,16.6825,16.67521006,16.66178179,16.6825,,,,,,,,,,,,,,,,,,,,,,,,,,,,,,,,,,,,,,,,,,,,,,,,,,,,,,,,,,,,,,,,,,,,,,,,,,,,,,,,,,,,,,,,,,,,,,,,,,,,,,,,,,,,,,,,,,
,,,,,,,,,,,,,,,,,,,,,,,,,,,,,,,,,return,5.4392,-179.712,660.2227063,1,0,1,0,1,5f011e4abcc6d126f234516c,606a0fd656eb9aa6d45444a1,2021-04-04_21h13.41.123,Colour_Similarity_Experiment,2020.2.10,Win32,60,60675255c767bca6388caeee,17.44891844,16.7472541,16.6825,16.67521006,16.66178179,16.6825,,,,,,,,,,,,,,,,,,,,,,,,,,,,,,,,,,,,,,,,,,,,,,,,,,,,,,,,,,,,,,,,,,,,,,,,,,,,,,,,,,,,,,,,,,,,,,,,,,,,,,,,,,,,,,,,,,
,,,,,,,,,,,,,,,,,,,,,,,,,,,,,,,,,return,5.404525,-172.8,654.476087,2,0,2,0,1,5f011e4abcc6d126f234516c,606a0fd656eb9aa6d45444a1,2021-04-04_21h13.41.123,Colour_Similarity_Experiment,2020.2.10,Win32,60,60675255c767bca6388caeee,17.44891844,16.7472541,16.6825,16.67521006,16.66178179,16.6825,,,,,,,,,,,,,,,,,,,,,,,,,,,,,,,,,,,,,,,,,,,,,,,,,,,,,,,,,,,,,,,,,,,,,,,,,,,,,,,,,,,,,,,,,,,,,,,,,,,,,,,,,,,,,,,,,,
,,,,,,,,,,,,,,,,,,,,,,,,,,,,,,,,,return,4.984545,-115.2,606.5875929,3,0,3,0,1,5f011e4abcc6d126f234516c,606a0fd656eb9aa6d45444a1,2021-04-04_21h13.41.123,Colour_Similarity_Experiment,2020.2.10,Win32,60,60675255c767bca6388caeee,17.44891844,16.7472541,16.6825,16.67521006,16.66178179,16.6825,,,,,,,,,,,,,,,,,,,,,,,,,,,,,,,,,,,,,,,,,,,,,,,,,,,,,,,,,,,,,,,,,,,,,,,,,,,,,,,,,,,,,,,,,,,,,,,,,,,,,,,,,,,,,,,,,,
,,,,,,,,,,,,,,,,,,,,,,,,,,,,,,,,,return,4.898685,-103.68,597.009894,4,0,4,0,1,5f011e4abcc6d126f234516c,606a0fd656eb9aa6d45444a1,2021-04-04_21h13.41.123,Colour_Similarity_Experiment,2020.2.10,Win32,60,60675255c767bca6388caeee,17.44891844,16.7472541,16.6825,16.67521006,16.66178179,16.6825,,,,,,,,,,,,,,,,,,,,,,,,,,,,,,,,,,,,,,,,,,,,,,,,,,,,,,,,,,,,,,,,,,,,,,,,,,,,,,,,,,,,,,,,,,,,,,,,,,,,,,,,,,,,,,,,,,
,,,,,,,,,,,,,,,,,,,,,,,,,,,,,,,,,,,,,,,,,,5f011e4abcc6d126f234516c,606a0fd656eb9aa6d45444a1,2021-04-04_21h13.41.123,Colour_Similarity_Experiment,2020.2.10,Win32,60,60675255c767bca6388caeee,17.44891844,16.7472541,16.6825,16.67521006,16.66178179,16.6825,65,11.34578815,85.26359791,568.4239861,56.84239861,255.7907937,space,7.18902,space,22.51855,space,28.53626,space,13.294955,space,6.83885,space,11.111595,1,PF,3,weak,103.200013,65.59999454,1,0,0,response1disk_5,6,6,32.89175,-2.399939764,1.599993587,1,0,0,rectangle_8,-2.399939764,1.599993587,1,0,0,7,-2.399939764,1.599993587,1,0,0,0,0,0,4,1,,,,,,,,,,,,,,,,,,,,,,,,,,,,,,,,,,,,,,,,,,,,,,,,,,,,,,,,,,,,,
,,,,,,,,,,,,,,,,,,,,,,,,,,,,,,,,,,,,,,,,,,5f011e4abcc6d126f234516c,606a0fd656eb9aa6d45444a1,2021-04-04_21h13.41.123,Colour_Similarity_Experiment,2020.2.10,Win32,60,60675255c767bca6388caeee,17.44891844,16.7472541,16.6825,16.67521006,16.66178179,16.6825,,,,,,,,,,,,,,,,,,,5,PF,3,strong,42.40001208,-65.60000741,1,0,0,response3disk_5,3,4,11.58395,-10.39993988,0.799993575,1,0,0,rectangle_8,-10.39993988,0.799993575,1,0,0,7,-10.39993988,0.799993575,1,0,0,0,1,1,3,1,,,,,,,,,,,,,,,,,,,,,,,,,,,,,,,,,,,,,,,,,,,,,,,,,,,,,,,,,,,,,
,,,,,,,,,,,,,,,,,,,,,,,,,,,,,,,,,,,,,,,,,,5f011e4abcc6d126f234516c,606a0fd656eb9aa6d45444a1,2021-04-04_21h13.41.123,Colour_Similarity_Experiment,2020.2.10,Win32,60,60675255c767bca6388caeee,17.44891844,16.7472541,16.6825,16.67521006,16.66178179,16.6825,,,,,,,,,,,,,,,,,,,8,PF,3,weak,-52.79998934,86.39999485,1,0,0,response7disk_5,4,0,9.414695,9.600060415,6.399993658,1,0,0,rectangle_8,9.600060415,6.399993658,1,0,0,7,9.600060415,6.399993658,1,0,0,0,2,2,6,1,,,,,,,,,,,,,,,,,,,,,,,,,,,,,,,,,,,,,,,,,,,,,,,,,,,,,,,,,,,,,
,,,,,,,,,,,,,,,,,,,,,,,,,,,,,,,,,,,,,,,,,,5f011e4abcc6d126f234516c,606a0fd656eb9aa6d45444a1,2021-04-04_21h13.41.123,Colour_Similarity_Experiment,2020.2.10,Win32,60,60675255c767bca6388caeee,17.44891844,16.7472541,16.6825,16.67521006,16.66178179,16.6825,,,,,,,,,,,,,,,,,,,8,PF,3,weak,83.20001268,-32.00000691,1,0,0,response3disk_5,4,5,3.66606,-3.999988616,-4.800006509,1,0,0,rectangle_8,-3.999988616,-4.800006509,1,0,0,7,-3.999988616,-4.800006509,1,0,0,0,3,3,1,1,,,,,,,,,,,,,,,,,,,,,,,,,,,,,,,,,,,,,,,,,,,,,,,,,,,,,,,,,,,,,
,,,,,,,,,,,,,,,,,,,,,,,,,,,,,,,,,,,,,,,,,,5f011e4abcc6d126f234516c,606a0fd656eb9aa6d45444a1,2021-04-04_21h13.41.123,Colour_Similarity_Experiment,2020.2.10,Win32,60,60675255c767bca6388caeee,17.44891844,16.7472541,16.6825,16.67521006,16.66178179,16.6825,,,,,,,,,,,,,,,,,,,5,PF,3,strong,-29.599989,-73.60000753,1,0,0,response5disk_5,7,3,5.913435,-10.39993988,-5.600006521,1,0,0,rectangle_8,59.20001233,104.7999951,1,0,0,7,4.800011516,1.599993587,1,0,0,0,4,4,0,1,response1disk_7,7,rectangle_4,,,,,,,,,,,,,,,,,,,,,,,,,,,,,,,,,,,,,,,,,,,,,,,,,,,,,,,,,,
,,,,,,,,,,,,,,,,,,,,,,,,,,,,,,,,,,,,,,,,,,5f011e4abcc6d126f234516c,606a0fd656eb9aa6d45444a1,2021-04-04_21h13.41.123,Colour_Similarity_Experiment,2020.2.10,Win32,60,60675255c767bca6388caeee,17.44891844,16.7472541,16.6825,16.67521006,16.66178179,16.6825,,,,,,,,,,,,,,,,,,,7,PF,3,strong,-28.79998899,-88.80000776,1,0,0,response5disk_5,8,3,6.896625,4.800011516,7.19999367,1,0,0,rectangle_8,4.800011516,7.19999367,1,0,0,7,4.800011516,7.19999367,1,0,0,0,5,5,2,1,,,,,,,,,,,,,,,,,,,,,,,,,,,,,,,,,,,,,,,,,,,,,,,,,,,,,,,,,,,,,
,,,,,,,,,,,,,,,,,,,,,,,,,,,,,,,,,,,,,,,,,,5f011e4abcc6d126f234516c,606a0fd656eb9aa6d45444a1,2021-04-04_21h13.41.123,Colour_Similarity_Experiment,2020.2.10,Win32,60,60675255c767bca6388caeee,17.44891844,16.7472541,16.6825,16.67521006,16.66178179,16.6825,,,,,,,,,,,,,,,,,,,6,PF,3,weak,108.8000131,39.19996973,1,0,0,response1disk_5,1,6,4.29876,2.40001148,-6.4373E-06,1,0,0,rectangle_8,2.40001148,-6.4373E-06,1,0,0,7,2.40001148,-6.4373E-06,1,0,0,0,6,6,5,1,,,,,,,,,,,,,,,,,,,,,,,,,,,,,,,,,,,,,,,,,,,,,,,,,,,,,,,,,,,,,
,,,,,,,,,,,,,,,,,,,,,,,,,,,,,,,,,,,,,,,,,,5f011e4abcc6d126f234516c,606a0fd656eb9aa6d45444a1,2021-04-04_21h13.41.123,Colour_Similarity_Experiment,2020.2.10,Win32,60,60675255c767bca6388caeee,17.44891844,16.7472541,16.6825,16.67521006,16.66178179,16.6825,,,,,,,,,,,,,,,,,,,,PF,3,strong,,,,,,,,5,3.812565,,,,,,,,,,,,,,,,,,,,,,,,,,space,5.37513,3,strong,57.6000123,-40.00000703,1,0,0,response3disk,8,1,-8.799988687,1.599993587,1,0,0,rectangle,-8.799988687,1.599993587,1,0,0,,4,0.002675,-8.799988687,1.599993587,1,0,0,0,0,0,44,1,0,,,,,,,,,,,,,,,,,,,,,
,,,,,,,,,,,,,,,,,,,,,,,,,,,,,,,,,,,,,,,,,,5f011e4abcc6d126f234516c,606a0fd656eb9aa6d45444a1,2021-04-04_21h13.41.123,Colour_Similarity_Experiment,2020.2.10,Win32,60,60675255c767bca6388caeee,17.44891844,16.7472541,16.6825,16.67521006,16.66178179,16.6825,,,,,,,,,,,,,,,,,,,,PF,3,weak,,,,,,,,2,8.029175,,,,,,,,,,,,,,,,,,,,,,,,,,,,8,weak,-100.7999901,-43.20000708,1,0,0,response5disk,9,2,-4.799988627,-0.800006449,1,0,0,rectangle,-4.799988627,-0.800006449,1,0,0,,5,0.00139,-4.799988627,-0.800006449,1,0,0,0,1,1,42,1,0,,,,,,,,,,,,,,,,,,,,,
,,,,,,,,,,,,,,,,,,,,,,,,,,,,,,,,,,,,,,,,,,5f011e4abcc6d126f234516c,606a0fd656eb9aa6d45444a1,2021-04-04_21h13.41.123,Colour_Similarity_Experiment,2020.2.10,Win32,60,60675255c767bca6388caeee,17.44891844,16.7472541,16.6825,16.67521006,16.66178179,16.6825,,,,,,,,,,,,,,,,,,,,PF,3,weak,,,,,,,,1,4.780535,,,,,,,,,,,,,,,,,,,,,,,,,,,,8,weak,-89.59998989,32.79999405,1,0,0,response7disk,8,3,-28.79998899,-0.800006449,1,0,0,rectangle,-28.79998899,-0.800006449,1,0,0,,2,0.00139,-28.79998899,-0.800006449,1,0,0,0,2,2,153,1,0,,,,,,,,,,,,,,,,,,,,,
,,,,,,,,,,,,,,,,,,,,,,,,,,,,,,,,,,,,,,,,,,5f011e4abcc6d126f234516c,606a0fd656eb9aa6d45444a1,2021-04-04_21h13.41.123,Colour_Similarity_Experiment,2020.2.10,Win32,60,60675255c767bca6388caeee,17.44891844,16.7472541,16.6825,16.67521006,16.66178179,16.6825,,,,,,,,,,,,,,,,,,,,PF,3,strong,,,,,,,,4,4.73241,,,,,,,,,,,,,,,,,,,,,,,,,,,,6,strong,35.20001197,-96.00000787,1,0,0,response3disk,4,4,-19.99998885,-2.400006473,1,0,0,rectangle,-19.99998885,-2.400006473,1,0,0,,5,0.0018,-19.99998885,-2.400006473,1,0,0,0,3,3,56,1,0,,,,,,,,,,,,,,,,,,,,,
,,,,,,,,,,,,,,,,,,,,,,,,,,,,,,,,,,,,,,,,,,5f011e4abcc6d126f234516c,606a0fd656eb9aa6d45444a1,2021-04-04_21h13.41.123,Colour_Similarity_Experiment,2020.2.10,Win32,60,60675255c767bca6388caeee,17.44891844,16.7472541,16.6825,16.67521006,16.66178179,16.6825,,,,,,,,,,,,,,,,,,,,PF,3,weak,,,,,,,,4,9.0486,,,,,,,,,,,,,,,,,,,,,,,,,,,,7,weak,34.40001196,-76.00000757,1,0,0,response3disk,9,5,-5.599988639,-4.000006497,1,0,0,rectangle,-5.599988639,-4.000006497,1,0,0,,0,0.001355,-5.599988639,-4.000006497,1,0,0,0,4,4,10,1,0,,,,,,,,,,,,,,,,,,,,,
,,,,,,,,,,,,,,,,,,,,,,,,,,,,,,,,,,,,,,,,,,5f011e4abcc6d126f234516c,606a0fd656eb9aa6d45444a1,2021-04-04_21h13.41.123,Colour_Similarity_Experiment,2020.2.10,Win32,60,60675255c767bca6388caeee,17.44891844,16.7472541,16.6825,16.67521006,16.66178179,16.6825,,,,,,,,,,,,,,,,,,,,PF,3,weak,,,,,,,,3,2.419155,,,,,,,,,,,,,,,,,,,,,,,,,,,,3,weak,-43.1999892,-109.6000569,1,0,0,response5disk,5,6,3.200011492,2.399993598,1,0,0,rectangle,3.200011492,2.399993598,1,0,0,,7,0.0013,3.200011492,2.399993598,1,0,0,0,5,5,66,1,0,,,,,,,,,,,,,,,,,,,,,
,,,,,,,,,,,,,,,,,,,,,,,,,,,,,,,,,,,,,,,,,,5f011e4abcc6d126f234516c,606a0fd656eb9aa6d45444a1,2021-04-04_21h13.41.123,Colour_Similarity_Experiment,2020.2.10,Win32,60,60675255c767bca6388caeee,17.44891844,16.7472541,16.6825,16.67521006,16.66178179,16.6825,,,,,,,,,,,,,,,,,,,,PF,3,weak,,,,,,,,5,2.96642,,,,,,,,,,,,,,,,,,,,,,,,,,,,7,weak,84.0000127,-47.20000714,1,0,0,response3disk,5,7,7.200011551,-6.400006533,1,0,0,rectangle,7.200011551,-6.400006533,1,0,0,,5,0.001465,7.200011551,-6.400006533,1,0,0,0,6,6,92,1,0,,,,,,,,,,,,,,,,,,,,,
,,,,,,,,,,,,,,,,,,,,,,,,,,,,,,,,,,,,,,,,,,5f011e4abcc6d126f234516c,606a0fd656eb9aa6d45444a1,2021-04-04_21h13.41.123,Colour_Similarity_Experiment,2020.2.10,Win32,60,60675255c767bca6388caeee,17.44891844,16.7472541,16.6825,16.67521006,16.66178179,16.6825,,,,,,,,,,,,,,,,,,,,PF,3,strong,,,,,,,,3,1.77844,,,,,,,,,,,,,,,,,,,,,,,,,,,,6,strong,-34.39994024,-107.200008,1,0,0,response5disk,6,8,2.40001148,-9.60000658,1,0,0,rectangle,2.40001148,-9.60000658,1,0,0,,3,0.001405,2.40001148,-9.60000658,1,0,0,0,7,7,91,1,0,,,,,,,,,,,,,,,,,,,,,
,,,,,,,,,,,,,,,,,,,,,,,,,,,,,,,,,,,,,,,,,,5f011e4abcc6d126f234516c,606a0fd656eb9aa6d45444a1,2021-04-04_21h13.41.123,Colour_Similarity_Experiment,2020.2.10,Win32,60,60675255c767bca6388caeee,17.44891844,16.7472541,16.6825,16.67521006,16.66178179,16.6825,,,,,,,,,,,,,,,,,,,,PF,3,strong,,,,,,,,6,2.014095,,,,,,,,,,,,,,,,,,,,,,,,,,,,8,strong,112.8000131,30.39999402,1,0,0,response1disk,5,9,-15.99998879,3.19999361,1,0,0,rectangle,-15.99998879,3.19999361,1,0,0,,6,0.001285,-15.99998879,3.19999361,1,0,0,0,8,8,152,1,0,,,,,,,,,,,,,,,,,,,,,
,,,,,,,,,,,,,,,,,,,,,,,,,,,,,,,,,,,,,,,,,,5f011e4abcc6d126f234516c,606a0fd656eb9aa6d45444a1,2021-04-04_21h13.41.123,Colour_Similarity_Experiment,2020.2.10,Win32,60,60675255c767bca6388caeee,17.44891844,16.7472541,16.6825,16.67521006,16.66178179,16.6825,,,,,,,,,,,,,,,,,,,,PF,3,weak,,,,,,,,5,1.997885,,,,,,,,,,,,,,,,,,,,,,,,,,,,2,weak,96.80001289,-64.00000739,1,0,0,response3disk,6,10,16.00001168,-3.200006485,1,0,0,rectangle,16.00001168,-3.200006485,1,0,0,,1,0.001355,16.00001168,-3.200006485,1,0,0,0,9,9,113,1,0,,,,,,,,,,,,,,,,,,,,,
,,,,,,,,,,,,,,,,,,,,,,,,,,,,,,,,,,,,,,,,,,5f011e4abcc6d126f234516c,606a0fd656eb9aa6d45444a1,2021-04-04_21h13.41.123,Colour_Similarity_Experiment,2020.2.10,Win32,60,60675255c767bca6388caeee,17.44891844,16.7472541,16.6825,16.67521006,16.66178179,16.6825,,,,,,,,,,,,,,,,,,,,PF,3,strong,,,,,,,,5,3.316565,,,,,,,,,,,,,,,,,,,,,,,,,,,,1,strong,90.40001279,-41.60000706,1,0,0,response3disk,4,11,11.20001161,-4.000006497,1,0,0,rectangle,11.20001161,-4.000006497,1,0,0,,6,0.00212,11.20001161,-4.000006497,1,0,0,0,10,10,135,1,0,,,,,,,,,,,,,,,,,,,,,
,,,,,,,,,,,,,,,,,,,,,,,,,,,,,,,,,,,,,,,,,,5f011e4abcc6d126f234516c,606a0fd656eb9aa6d45444a1,2021-04-04_21h13.41.123,Colour_Similarity_Experiment,2020.2.10,Win32,60,60675255c767bca6388caeee,17.44891844,16.7472541,16.6825,16.67521006,16.66178179,16.6825,,,,,,,,,,,,,,,,,,,,PF,3,strong,,,,,,,,3,2.5834,,,,,,,,,,,,,,,,,,,,,,,,,,,,2,strong,-39.99998915,-91.2000078,1,0,0,response5disk,1,12,-7.199988663,-12.80000663,1,0,0,rectangle,-7.199988663,-12.80000663,1,0,0,,0,0.00172,-7.199988663,-12.80000663,1,0,0,0,11,11,85,1,0,,,,,,,,,,,,,,,,,,,,,
,,,,,,,,,,,,,,,,,,,,,,,,,,,,,,,,,,,,,,,,,,5f011e4abcc6d126f234516c,606a0fd656eb9aa6d45444a1,2021-04-04_21h13.41.123,Colour_Similarity_Experiment,2020.2.10,Win32,60,60675255c767bca6388caeee,17.44891844,16.7472541,16.6825,16.67521006,16.66178179,16.6825,,,,,,,,,,,,,,,,,,,,PF,3,strong,,,,,,,,6,2.73318,,,,,,,,,,,,,,,,,,,,,,,,,,,,6,strong,98.40001291,62.39999449,1,0,0,response1disk,1,13,-15.19998878,7.19999367,1,0,0,rectangle,-15.19998878,7.19999367,1,0,0,,0,0.00019,-15.19998878,7.19999367,1,0,0,0,12,12,5,1,0,,,,,,,,,,,,,,,,,,,,,
,,,,,,,,,,,,,,,,,,,,,,,,,,,,,,,,,,,,,,,,,,5f011e4abcc6d126f234516c,606a0fd656eb9aa6d45444a1,2021-04-04_21h13.41.123,Colour_Similarity_Experiment,2020.2.10,Win32,60,60675255c767bca6388caeee,17.44891844,16.7472541,16.6825,16.67521006,16.66178179,16.6825,,,,,,,,,,,,,,,,,,,,PF,3,strong,,,,,,,,3,1.448015,,,,,,,,,,,,,,,,,,,,,,,,,,,,8,strong,-43.1999892,-68.00000745,1,0,0,response5disk,6,14,12.80001163,-10.40000659,1,0,0,rectangle,12.80001163,-10.40000659,1,0,0,,3,0.00133,12.80001163,-10.40000659,1,0,0,0,13,13,37,1,0,,,,,,,,,,,,,,,,,,,,,
,,,,,,,,,,,,,,,,,,,,,,,,,,,,,,,,,,,,,,,,,,5f011e4abcc6d126f234516c,606a0fd656eb9aa6d45444a1,2021-04-04_21h13.41.123,Colour_Similarity_Experiment,2020.2.10,Win32,60,60675255c767bca6388caeee,17.44891844,16.7472541,16.6825,16.67521006,16.66178179,16.6825,,,,,,,,,,,,,,,,,,,,PF,3,weak,,,,,,,,3,3.513955,,,,,,,,,,,,,,,,,,,,,,,,,,,,8,weak,-26.39994012,-85.60005654,1,0,0,response5disk,5,15,3.200011492,7.19999367,1,0,0,rectangle,3.200011492,7.19999367,1,0,0,,0,0.00133,3.200011492,7.19999367,1,0,0,0,14,14,98,1,0,,,,,,,,,,,,,,,,,,,,,
,,,,,,,,,,,,,,,,,,,,,,,,,,,,,,,,,,,,,,,,,,5f011e4abcc6d126f234516c,606a0fd656eb9aa6d45444a1,2021-04-04_21h13.41.123,Colour_Similarity_Experiment,2020.2.10,Win32,60,60675255c767bca6388caeee,17.44891844,16.7472541,16.6825,16.67521006,16.66178179,16.6825,,,,,,,,,,,,,,,,,,,,PF,3,strong,,,,,,,,6,2.844925,,,,,,,,,,,,,,,,,,,,,,,,,,,,8,strong,100.8000129,25.59999394,1,0,0,response1disk,2,16,4.800011516,-4.000006497,1,0,0,rectangle,4.800011516,-4.000006497,1,0,0,,1,0.00131,4.800011516,-4.000006497,1,0,0,0,15,15,22,1,0,,,,,,,,,,,,,,,,,,,,,
,,,,,,,,,,,,,,,,,,,,,,,,,,,,,,,,,,,,,,,,,,5f011e4abcc6d126f234516c,606a0fd656eb9aa6d45444a1,2021-04-04_21h13.41.123,Colour_Similarity_Experiment,2020.2.10,Win32,60,60675255c767bca6388caeee,17.44891844,16.7472541,16.6825,16.67521006,16.66178179,16.6825,,,,,,,,,,,,,,,,,,,,PF,3,weak,,,,,,,,6,1.280855,,,,,,,,,,,,,,,,,,,,,,,,,,,,8,weak,110.4000131,27.99999398,1,0,0,response1disk,2,17,-1.59998858,-13.60000664,1,0,0,rectangle,-1.59998858,-13.60000664,1,0,0,,2,0.00135,-1.59998858,-13.60000664,1,0,0,0,16,16,83,1,0,,,,,,,,,,,,,,,,,,,,,
,,,,,,,,,,,,,,,,,,,,,,,,,,,,,,,,,,,,,,,,,,5f011e4abcc6d126f234516c,606a0fd656eb9aa6d45444a1,2021-04-04_21h13.41.123,Colour_Similarity_Experiment,2020.2.10,Win32,60,60675255c767bca6388caeee,17.44891844,16.7472541,16.6825,16.67521006,16.66178179,16.6825,,,,,,,,,,,,,,,,,,,,PF,3,weak,,,,,,,,5,1.67954,,,,,,,,,,,,,,,,,,,,,,,,,,,,9,weak,69.60001248,-52.00000721,1,0,0,response3disk,5,18,-2.399939764,0.799993575,1,0,0,rectangle,-2.399939764,0.799993575,1,0,0,,5,0.001185,-2.399939764,0.799993575,1,0,0,0,17,17,134,1,0,,,,,,,,,,,,,,,,,,,,,
,,,,,,,,,,,,,,,,,,,,,,,,,,,,,,,,,,,,,,,,,,5f011e4abcc6d126f234516c,606a0fd656eb9aa6d45444a1,2021-04-04_21h13.41.123,Colour_Similarity_Experiment,2020.2.10,Win32,60,60675255c767bca6388caeee,17.44891844,16.7472541,16.6825,16.67521006,16.66178179,16.6825,,,,,,,,,,,,,,,,,,,,PF,3,strong,,,,,,,,7,2.149925,,,,,,,,,,,,,,,,,,,,,,,,,,,,7,strong,69.60001248,97.59999502,1,0,0,response1disk,1,19,-8.799988687,1.599993587,1,0,0,rectangle,-8.799988687,1.599993587,1,0,0,,3,0.00129,-8.799988687,1.599993587,1,0,0,0,18,18,132,1,0,,,,,,,,,,,,,,,,,,,,,
,,,,,,,,,,,,,,,,,,,,,,,,,,,,,,,,,,,,,,,,,,5f011e4abcc6d126f234516c,606a0fd656eb9aa6d45444a1,2021-04-04_21h13.41.123,Colour_Similarity_Experiment,2020.2.10,Win32,60,60675255c767bca6388caeee,17.44891844,16.7472541,16.6825,16.67521006,16.66178179,16.6825,,,,,,,,,,,,,,,,,,,,PF,3,weak,,,,,,,,3,3.666085,,,,,,,,,,,,,,,,,,,,,,,,,,,,7,weak,-43.1999892,-116.8000082,1,0,0,response5disk,4,20,4.000011504,-11.2000066,1,0,0,rectangle,4.000011504,-11.2000066,1,0,0,,0,0.001895,4.000011504,-11.2000066,1,0,0,0,19,19,43,1,0,,,,,,,,,,,,,,,,,,,,,
,,,,,,,,,,,,,,,,,,,,,,,,,,,,,,,,,,,,,,,,,,5f011e4abcc6d126f234516c,606a0fd656eb9aa6d45444a1,2021-04-04_21h13.41.123,Colour_Similarity_Experiment,2020.2.10,Win32,60,60675255c767bca6388caeee,17.44891844,16.7472541,16.6825,16.67521006,16.66178179,16.6825,,,,,,,,,,,,,,,,,,,,PF,3,weak,,,,,,,,4,2.3503,,,,,,,,,,,,,,,,,,,,,,,,,,,,1,weak,43.20001209,-115.2000082,1,0,0,response3disk,6,21,-2.399939764,-3.200006485,1,0,0,rectangle,-2.399939764,-3.200006485,1,0,0,,2,0.001685,-2.399939764,-3.200006485,1,0,0,0,20,20,144,1,0,,,,,,,,,,,,,,,,,,,,,
,,,,,,,,,,,,,,,,,,,,,,,,,,,,,,,,,,,,,,,,,,5f011e4abcc6d126f234516c,606a0fd656eb9aa6d45444a1,2021-04-04_21h13.41.123,Colour_Similarity_Experiment,2020.2.10,Win32,60,60675255c767bca6388caeee,17.44891844,16.7472541,16.6825,16.67521006,16.66178179,16.6825,,,,,,,,,,,,,,,,,,,,PF,3,strong,,,,,,,,2,2.6804,,,,,,,,,,,,,,,,,,,,,,,,,,,,5,strong,-75.19998968,-64.00000739,1,0,0,response5disk,3,22,4.800011516,-5.600006521,1,0,0,rectangle,4.800011516,-5.600006521,1,0,0,,0,0.00139,4.800011516,-5.600006521,1,0,0,0,21,21,25,1,0,,,,,,,,,,,,,,,,,,,,,
,,,,,,,,,,,,,,,,,,,,,,,,,,,,,,,,,,,,,,,,,,5f011e4abcc6d126f234516c,606a0fd656eb9aa6d45444a1,2021-04-04_21h13.41.123,Colour_Similarity_Experiment,2020.2.10,Win32,60,60675255c767bca6388caeee,17.44891844,16.7472541,16.6825,16.67521006,16.66178179,16.6825,,,,,,,,,,,,,,,,,,,,PF,3,strong,,,,,,,,4,2.56643,,,,,,,,,,,,,,,,,,,,,,,,,,,,4,strong,48.00001216,-84.8000077,1,0,0,response3disk,7,23,8.800011575,4.799993634,1,0,0,rectangle,8.800011575,4.799993634,1,0,0,,2,0.001345,8.800011575,4.799993634,1,0,0,0,22,22,87,1,0,,,,,,,,,,,,,,,,,,,,,
,,,,,,,,,,,,,,,,,,,,,,,,,,,,,,,,,,,,,,,,,,5f011e4abcc6d126f234516c,606a0fd656eb9aa6d45444a1,2021-04-04_21h13.41.123,Colour_Similarity_Experiment,2020.2.10,Win32,60,60675255c767bca6388caeee,17.44891844,16.7472541,16.6825,16.67521006,16.66178179,16.6825,,,,,,,,,,,,,,,,,,,,PF,3,strong,,,,,,,,4,4.148975,,,,,,,,,,,,,,,,,,,,,,,,,,,,8,strong,30.4000119,-99.20000792,1,0,0,response3disk,3,24,16.80001169,-6.4373E-06,1,0,0,rectangle,16.80001169,-6.4373E-06,1,0,0,,5,0.001565,16.80001169,-6.4373E-06,1,0,0,0,23,23,154,1,0,,,,,,,,,,,,,,,,,,,,,
,,,,,,,,,,,,,,,,,,,,,,,,,,,,,,,,,,,,,,,,,,5f011e4abcc6d126f234516c,606a0fd656eb9aa6d45444a1,2021-04-04_21h13.41.123,Colour_Similarity_Experiment,2020.2.10,Win32,60,60675255c767bca6388caeee,17.44891844,16.7472541,16.6825,16.67521006,16.66178179,16.6825,,,,,,,,,,,,,,,,,,,,PF,3,weak,,,,,,,,6,1.88352,,,,,,,,,,,,,,,,,,,,,,,,,,,,7,weak,62.40001237,27.99999398,1,0,0,response1disk,1,25,7.200011551,-6.400006533,1,0,0,rectangle,7.200011551,-6.400006533,1,0,0,,3,0.001395,7.200011551,-6.400006533,1,0,0,0,24,24,53,1,0,,,,,,,,,,,,,,,,,,,,,
,,,,,,,,,,,,,,,,,,,,,,,,,,,,,,,,,,,,,,,,,,5f011e4abcc6d126f234516c,606a0fd656eb9aa6d45444a1,2021-04-04_21h13.41.123,Colour_Similarity_Experiment,2020.2.10,Win32,60,60675255c767bca6388caeee,17.44891844,16.7472541,16.6825,16.67521006,16.66178179,16.6825,,,,,,,,,,,,,,,,,,,,PF,3,strong,,,,,,,,3,1.79646,,,,,,,,,,,,,,,,,,,,,,,,,,,,5,strong,-32.79998904,-93.60005666,1,0,0,response5disk,9,26,-10.39993988,3.999993622,1,0,0,rectangle,-10.39993988,3.999993622,1,0,0,,5,0.00132,-10.39993988,3.999993622,1,0,0,0,25,25,61,1,0,,,,,,,,,,,,,,,,,,,,,
,,,,,,,,,,,,,,,,,,,,,,,,,,,,,,,,,,,,,,,,,,5f011e4abcc6d126f234516c,606a0fd656eb9aa6d45444a1,2021-04-04_21h13.41.123,Colour_Similarity_Experiment,2020.2.10,Win32,60,60675255c767bca6388caeee,17.44891844,16.7472541,16.6825,16.67521006,16.66178179,16.6825,,,,,,,,,,,,,,,,,,,,PF,3,weak,,,,,,,,5,1.083185,,,,,,,,,,,,,,,,,,,,,,,,,,,,6,weak,76.80001259,-22.40000677,1,0,0,response3disk,2,27,18.40001172,-7.200006545,1,0,0,rectangle,18.40001172,-7.200006545,1,0,0,,1,0.001615,18.40001172,-7.200006545,1,0,0,0,26,26,130,1,0,,,,,,,,,,,,,,,,,,,,,
,,,,,,,,,,,,,,,,,,,,,,,,,,,,,,,,,,,,,,,,,,5f011e4abcc6d126f234516c,606a0fd656eb9aa6d45444a1,2021-04-04_21h13.41.123,Colour_Similarity_Experiment,2020.2.10,Win32,60,60675255c767bca6388caeee,17.44891844,16.7472541,16.6825,16.67521006,16.66178179,16.6825,,,,,,,,,,,,,,,,,,,,PF,3,strong,,,,,,,,5,2.99963,,,,,,,,,,,,,,,,,,,,,,,,,,,,5,strong,106.400013,-44.00000709,1,0,0,response3disk,1,28,3.200011492,1.599993587,1,0,0,rectangle,3.200011492,1.599993587,1,0,0,,3,0.00246,3.200011492,1.599993587,1,0,0,0,27,27,131,1,0,,,,,,,,,,,,,,,,,,,,,
,,,,,,,,,,,,,,,,,,,,,,,,,,,,,,,,,,,,,,,,,,5f011e4abcc6d126f234516c,606a0fd656eb9aa6d45444a1,2021-04-04_21h13.41.123,Colour_Similarity_Experiment,2020.2.10,Win32,60,60675255c767bca6388caeee,17.44891844,16.7472541,16.6825,16.67521006,16.66178179,16.6825,,,,,,,,,,,,,,,,,,,,PF,3,strong,,,,,,,,3,1.23335,,,,,,,,,,,,,,,,,,,,,,,,,,,,3,strong,-52.79998934,-81.60005648,1,0,0,response5disk,5,29,-7.999988675,-6.4373E-06,1,0,0,rectangle,-7.999988675,-6.4373E-06,1,0,0,,5,0.001675,-7.999988675,-6.4373E-06,1,0,0,0,28,28,101,1,0,,,,,,,,,,,,,,,,,,,,,
,,,,,,,,,,,,,,,,,,,,,,,,,,,,,,,,,,,,,,,,,,5f011e4abcc6d126f234516c,606a0fd656eb9aa6d45444a1,2021-04-04_21h13.41.123,Colour_Similarity_Experiment,2020.2.10,Win32,60,60675255c767bca6388caeee,17.44891844,16.7472541,16.6825,16.67521006,16.66178179,16.6825,,,,,,,,,,,,,,,,,,,,PF,3,weak,,,,,,,,5,2.58086,,,,,,,,,,,,,,,,,,,,,,,,,,,,1,weak,87.20001274,-36.80000699,1,0,0,response3disk,8,30,0.800011456,3.19999361,1,0,0,rectangle,0.800011456,3.19999361,1,0,0,,4,0.001235,0.800011456,3.19999361,1,0,0,0,29,29,65,1,0,,,,,,,,,,,,,,,,,,,,,
,,,,,,,,,,,,,,,,,,,,,,,,,,,,,,,,,,,,,,,,,,5f011e4abcc6d126f234516c,606a0fd656eb9aa6d45444a1,2021-04-04_21h13.41.123,Colour_Similarity_Experiment,2020.2.10,Win32,60,60675255c767bca6388caeee,17.44891844,16.7472541,16.6825,16.67521006,16.66178179,16.6825,,,,,,,,,,,,,,,,,,,,PF,3,strong,,,,,,,,5,1.616955,,,,,,,,,,,,,,,,,,,,,,,,,,,,4,strong,100.8000129,-32.00000691,1,0,0,response3disk,1,31,5.600060356,-7.200006545,1,0,0,rectangle,5.600060356,-7.200006545,1,0,0,,4,0.000165,5.600060356,-7.200006545,1,0,0,0,30,30,102,1,0,,,,,,,,,,,,,,,,,,,,,
,,,,,,,,,,,,,,,,,,,,,,,,,,,,,,,,,,,,,,,,,,5f011e4abcc6d126f234516c,606a0fd656eb9aa6d45444a1,2021-04-04_21h13.41.123,Colour_Similarity_Experiment,2020.2.10,Win32,60,60675255c767bca6388caeee,17.44891844,16.7472541,16.6825,16.67521006,16.66178179,16.6825,,,,,,,,,,,,,,,,,,,,PF,3,strong,,,,,,,,4,5.732155,,,,,,,,,,,,,,,,,,,,,,,,,,,,2,strong,45.60006095,-99.20000792,1,0,0,response3disk,8,32,-4.799988627,-1.600006461,1,0,0,rectangle,-4.799988627,-1.600006461,1,0,0,,2,0.001295,-4.799988627,-1.600006461,1,0,0,0,31,31,62,1,0,,,,,,,,,,,,,,,,,,,,,
,,,,,,,,,,,,,,,,,,,,,,,,,,,,,,,,,,,,,,,,,,5f011e4abcc6d126f234516c,606a0fd656eb9aa6d45444a1,2021-04-04_21h13.41.123,Colour_Similarity_Experiment,2020.2.10,Win32,60,60675255c767bca6388caeee,17.44891844,16.7472541,16.6825,16.67521006,16.66178179,16.6825,,,,,,,,,,,,,,,,,,,,PF,3,weak,,,,,,,,5,3.449565,,,,,,,,,,,,,,,,,,,,,,,,,,,,3,weak,84.80001271,-65.60000741,1,0,0,response3disk,8,33,8.000011563,-12.00000662,1,0,0,rectangle,8.000011563,-12.00000662,1,0,0,,2,0.00016,8.000011563,-12.00000662,1,0,0,0,32,32,3,1,0,,,,,,,,,,,,,,,,,,,,,
,,,,,,,,,,,,,,,,,,,,,,,,,,,,,,,,,,,,,,,,,,5f011e4abcc6d126f234516c,606a0fd656eb9aa6d45444a1,2021-04-04_21h13.41.123,Colour_Similarity_Experiment,2020.2.10,Win32,60,60675255c767bca6388caeee,17.44891844,16.7472541,16.6825,16.67521006,16.66178179,16.6825,,,,,,,,,,,,,,,,,,,,PF,3,strong,,,,,,,,4,4.24737,,,,,,,,,,,,,,,,,,,,,,,,,,,,9,strong,62.40001237,-93.60005666,1,0,0,response3disk,7,34,-7.999988675,-2.400006473,1,0,0,rectangle,-7.999988675,-2.400006473,1,0,0,,3,0.00148,-7.999988675,-2.400006473,1,0,0,0,33,33,100,1,0,,,,,,,,,,,,,,,,,,,,,
,,,,,,,,,,,,,,,,,,,,,,,,,,,,,,,,,,,,,,,,,,5f011e4abcc6d126f234516c,606a0fd656eb9aa6d45444a1,2021-04-04_21h13.41.123,Colour_Similarity_Experiment,2020.2.10,Win32,60,60675255c767bca6388caeee,17.44891844,16.7472541,16.6825,16.67521006,16.66178179,16.6825,,,,,,,,,,,,,,,,,,,,PF,3,weak,,,,,,,,5,3.366075,,,,,,,,,,,,,,,,,,,,,,,,,,,,7,weak,95.20001286,-51.2000072,1,0,0,response3disk,2,35,8.800011575,-7.200006545,1,0,0,rectangle,8.800011575,-7.200006545,1,0,0,,3,0.00017,8.800011575,-7.200006545,1,0,0,0,34,34,32,1,0,,,,,,,,,,,,,,,,,,,,,
,,,,,,,,,,,,,,,,,,,,,,,,,,,,,,,,,,,,,,,,,,5f011e4abcc6d126f234516c,606a0fd656eb9aa6d45444a1,2021-04-04_21h13.41.123,Colour_Similarity_Experiment,2020.2.10,Win32,60,60675255c767bca6388caeee,17.44891844,16.7472541,16.6825,16.67521006,16.66178179,16.6825,,,,,,,,,,,,,,,,,,,,PF,3,strong,,,,,,,,1,2.48847,,,,,,,,,,,,,,,,,,,,,,,,,,,,3,strong,-79.19998974,24.79999393,1,0,0,response7disk,3,36,-7.199988663,0.799993575,1,0,0,rectangle,-7.199988663,0.799993575,1,0,0,,4,0.00187,-7.199988663,0.799993575,1,0,0,0,35,35,68,1,0,,,,,,,,,,,,,,,,,,,,,
,,,,,,,,,,,,,,,,,,,,,,,,,,,,,,,,,,,,,,,,,,5f011e4abcc6d126f234516c,606a0fd656eb9aa6d45444a1,2021-04-04_21h13.41.123,Colour_Similarity_Experiment,2020.2.10,Win32,60,60675255c767bca6388caeee,17.44891844,16.7472541,16.6825,16.67521006,16.66178179,16.6825,,,,,,,,,,,,,,,,,,,,PF,3,strong,,,,,,,,3,1.53137,,,,,,,,,,,,,,,,,,,,,,,,,,,,7,strong,-63.99998951,-73.60000753,1,0,0,response5disk,9,37,1.600060296,-4.000006497,1,0,0,rectangle,1.600060296,-4.000006497,1,0,0,,3,0.00132,1.600060296,-4.000006497,1,0,0,0,36,36,155,1,0,,,,,,,,,,,,,,,,,,,,,
,,,,,,,,,,,,,,,,,,,,,,,,,,,,,,,,,,,,,,,,,,5f011e4abcc6d126f234516c,606a0fd656eb9aa6d45444a1,2021-04-04_21h13.41.123,Colour_Similarity_Experiment,2020.2.10,Win32,60,60675255c767bca6388caeee,17.44891844,16.7472541,16.6825,16.67521006,16.66178179,16.6825,,,,,,,,,,,,,,,,,,,,PF,3,weak,,,,,,,,4,1.415955,,,,,,,,,,,,,,,,,,,,,,,,,,,,6,weak,39.20001203,-76.80000758,1,0,0,response3disk,9,38,7.200011551,-2.400006473,1,0,0,rectangle,7.200011551,-2.400006473,1,0,0,,4,0.00166,7.200011551,-2.400006473,1,0,0,0,37,37,45,1,0,,,,,,,,,,,,,,,,,,,,,
,,,,,,,,,,,,,,,,,,,,,,,,,,,,,,,,,,,,,,,,,,5f011e4abcc6d126f234516c,606a0fd656eb9aa6d45444a1,2021-04-04_21h13.41.123,Colour_Similarity_Experiment,2020.2.10,Win32,60,60675255c767bca6388caeee,17.44891844,16.7472541,16.6825,16.67521006,16.66178179,16.6825,,,,,,,,,,,,,,,,,,,,PF,3,weak,,,,,,,,2,1.38282,,,,,,,,,,,,,,,,,,,,,,,,,,,,2,weak,-79.99998975,-42.40000707,1,0,0,response5disk,2,39,-6.399939823,-1.600006461,1,0,0,rectangle,-6.399939823,-1.600006461,1,0,0,,6,0.00162,-6.399939823,-1.600006461,1,0,0,0,38,38,14,1,0,,,,,,,,,,,,,,,,,,,,,
,,,,,,,,,,,,,,,,,,,,,,,,,,,,,,,,,,,,,,,,,,5f011e4abcc6d126f234516c,606a0fd656eb9aa6d45444a1,2021-04-04_21h13.41.123,Colour_Similarity_Experiment,2020.2.10,Win32,60,60675255c767bca6388caeee,17.44891844,16.7472541,16.6825,16.67521006,16.66178179,16.6825,,,,,,,,,,,,,,,,,,,,PF,3,strong,,,,,,,,2,1.399415,,,,,,,,,,,,,,,,,,,,,,,,,,,,6,strong,-70.39994078,-36.80000699,1,0,0,response5disk,7,40,0.800011456,-6.4373E-06,1,0,0,rectangle,0.800011456,-6.4373E-06,1,0,0,,2,0.001275,0.800011456,-6.4373E-06,1,0,0,0,39,39,18,1,0,,,,,,,,,,,,,,,,,,,,,
,,,,,,,,,,,,,,,,,,,,,,,,,,,,,,,,,,,,,,,,,,5f011e4abcc6d126f234516c,606a0fd656eb9aa6d45444a1,2021-04-04_21h13.41.123,Colour_Similarity_Experiment,2020.2.10,Win32,60,60675255c767bca6388caeee,17.44891844,16.7472541,16.6825,16.67521006,16.66178179,16.6825,,,,,,,,,,,,,,,,,,,,PF,3,strong,,,,,,,,5,1.96705,,,,,,,,,,,,,,,,,,,,,,,,,,,,4,strong,92.00001281,-48.80000716,1,0,0,response3disk,9,41,4.000011504,-4.000006497,1,0,0,rectangle,4.000011504,-4.000006497,1,0,0,,0,0.001295,4.000011504,-4.000006497,1,0,0,0,40,40,90,1,0,,,,,,,,,,,,,,,,,,,,,
,,,,,,,,,,,,,,,,,,,,,,,,,,,,,,,,,,,,,,,,,,5f011e4abcc6d126f234516c,606a0fd656eb9aa6d45444a1,2021-04-04_21h13.41.123,Colour_Similarity_Experiment,2020.2.10,Win32,60,60675255c767bca6388caeee,17.44891844,16.7472541,16.6825,16.67521006,16.66178179,16.6825,,,,,,,,,,,,,,,,,,,,PF,3,weak,,,,,,,,1,1.55007,,,,,,,,,,,,,,,,,,,,,,,,,,,,5,weak,-103.1999901,51.99999434,1,0,0,response7disk,5,42,-2.399939764,0.799993575,1,0,0,rectangle,-2.399939764,0.799993575,1,0,0,,2,0.001695,-2.399939764,0.799993575,1,0,0,0,41,41,94,1,0,,,,,,,,,,,,,,,,,,,,,
,,,,,,,,,,,,,,,,,,,,,,,,,,,,,,,,,,,,,,,,,,5f011e4abcc6d126f234516c,606a0fd656eb9aa6d45444a1,2021-04-04_21h13.41.123,Colour_Similarity_Experiment,2020.2.10,Win32,60,60675255c767bca6388caeee,17.44891844,16.7472541,16.6825,16.67521006,16.66178179,16.6825,,,,,,,,,,,,,,,,,,,,PF,3,strong,,,,,,,,3,2.61655,,,,,,,,,,,,,,,,,,,,,,,,,,,,4,strong,-33.59998906,-96.80000788,1,0,0,response5disk,5,43,-6.399939823,-4.000006497,1,0,0,rectangle,-6.399939823,-4.000006497,1,0,0,,0,0.001745,-6.399939823,-4.000006497,1,0,0,0,42,42,116,1,0,,,,,,,,,,,,,,,,,,,,,
,,,,,,,,,,,,,,,,,,,,,,,,,,,,,,,,,,,,,,,,,,5f011e4abcc6d126f234516c,606a0fd656eb9aa6d45444a1,2021-04-04_21h13.41.123,Colour_Similarity_Experiment,2020.2.10,Win32,60,60675255c767bca6388caeee,17.44891844,16.7472541,16.6825,16.67521006,16.66178179,16.6825,,,,,,,,,,,,,,,,,,,,PF,3,strong,,,,,,,,0,1.13298,,,,,,,,,,,,,,,,,,,,,,,,,,,,9,strong,-37.59998912,59.99999446,1,0,0,response7disk,9,44,1.14441E-05,-5.600006521,1,0,0,rectangle,1.14441E-05,-5.600006521,1,0,0,,7,0.002115,1.14441E-05,-5.600006521,1,0,0,0,43,43,17,1,0,,,,,,,,,,,,,,,,,,,,,
,,,,,,,,,,,,,,,,,,,,,,,,,,,,,,,,,,,,,,,,,,5f011e4abcc6d126f234516c,606a0fd656eb9aa6d45444a1,2021-04-04_21h13.41.123,Colour_Similarity_Experiment,2020.2.10,Win32,60,60675255c767bca6388caeee,17.44891844,16.7472541,16.6825,16.67521006,16.66178179,16.6825,,,,,,,,,,,,,,,,,,,,PF,3,strong,,,,,,,,4,2.01694,,,,,,,,,,,,,,,,,,,,,,,,,,,,2,strong,54.40001225,-84.8000077,1,0,0,response3disk,5,45,0.800011456,9.599993706,1,0,0,rectangle,0.800011456,9.599993706,1,0,0,,4,0.001285,0.800011456,9.599993706,1,0,0,0,44,44,80,1,0,,,,,,,,,,,,,,,,,,,,,
,,,,,,,,,,,,,,,,,,,,,,,,,,,,,,,,,,,,,,,,,,5f011e4abcc6d126f234516c,606a0fd656eb9aa6d45444a1,2021-04-04_21h13.41.123,Colour_Similarity_Experiment,2020.2.10,Win32,60,60675255c767bca6388caeee,17.44891844,16.7472541,16.6825,16.67521006,16.66178179,16.6825,,,,,,,,,,,,,,,,,,,,PF,3,strong,,,,,,,,5,1.599635,,,,,,,,,,,,,,,,,,,,,,,,,,,,9,strong,98.40001291,-64.8000074,1,0,0,response3disk,2,46,0.800011456,-6.4373E-06,1,0,0,rectangle,-98.39994119,40.79999417,1,0,0,1,1,2.782585,-6.399939823,1.599993587,1,0,0,0,45,45,11,1,1,response7disk_3,rectangle,,,,,,,,,,,,,,,,,,,
,,,,,,,,,,,,,,,,,,,,,,,,,,,,,,,,,,,,,,,,,,5f011e4abcc6d126f234516c,606a0fd656eb9aa6d45444a1,2021-04-04_21h13.41.123,Colour_Similarity_Experiment,2020.2.10,Win32,60,60675255c767bca6388caeee,17.44891844,16.7472541,16.6825,16.67521006,16.66178179,16.6825,,,,,,,,,,,,,,,,,,,,PF,3,strong,,,,,,,,5,1.699655,,,,,,,,,,,,,,,,,,,,,,,,,,,,4,strong,112.8000131,-36.80000699,1,0,0,response3disk,8,47,18.40001172,2.399993598,1,0,0,rectangle,18.40001172,2.399993598,1,0,0,1,0,0.001355,18.40001172,2.399993598,1,0,0,0,46,46,35,1,0,,,,,,,,,,,,,,,,,,,,,
,,,,,,,,,,,,,,,,,,,,,,,,,,,,,,,,,,,,,,,,,,5f011e4abcc6d126f234516c,606a0fd656eb9aa6d45444a1,2021-04-04_21h13.41.123,Colour_Similarity_Experiment,2020.2.10,Win32,60,60675255c767bca6388caeee,17.44891844,16.7472541,16.6825,16.67521006,16.66178179,16.6825,,,,,,,,,,,,,,,,,,,,PF,3,weak,,,,,,,,5,2.09386,,,,,,,,,,,,,,,,,,,,,,,,,,,,5,weak,118.4000132,-56.00000727,1,0,0,response3disk,9,48,6.400011539,0.799993575,1,0,0,rectangle,112.0000131,-50.40000719,1,0,0,5,5,1.76862,-0.799988568,4.799993634,1,0,0,0,47,47,136,1,1,response3disk_3,rectangle,,,,,,,,,,,,,,,,,,,
,,,,,,,,,,,,,,,,,,,,,,,,,,,,,,,,,,,,,,,,,,5f011e4abcc6d126f234516c,606a0fd656eb9aa6d45444a1,2021-04-04_21h13.41.123,Colour_Similarity_Experiment,2020.2.10,Win32,60,60675255c767bca6388caeee,17.44891844,16.7472541,16.6825,16.67521006,16.66178179,16.6825,,,,,,,,,,,,,,,,,,,,PF,3,weak,,,,,,,,3,2.949265,,,,,,,,,,,,,,,,,,,,,,,,,,,,2,weak,-57.59998941,-112.8000081,1,0,0,response5disk,3,49,20.00001174,-8.000006557,1,0,0,rectangle,20.00001174,-8.000006557,1,0,0,5,1,0.00173,20.00001174,-8.000006557,1,0,0,0,48,48,69,1,0,,,,,,,,,,,,,,,,,,,,,
,,,,,,,,,,,,,,,,,,,,,,,,,,,,,,,,,,,,,,,,,,5f011e4abcc6d126f234516c,606a0fd656eb9aa6d45444a1,2021-04-04_21h13.41.123,Colour_Similarity_Experiment,2020.2.10,Win32,60,60675255c767bca6388caeee,17.44891844,16.7472541,16.6825,16.67521006,16.66178179,16.6825,,,,,,,,,,,,,,,,,,,,PF,3,strong,,,,,,,,5,4.13607,,,,,,,,,,,,,,,,,,,,,,,,,,,,3,strong,92.80001283,-68.80000746,1,0,0,response3disk,6,50,-8.799988687,8.799993694,1,0,0,rectangle,-8.799988687,8.799993694,1,0,0,5,4,0.001255,-8.799988687,8.799993694,1,0,0,0,49,49,95,1,0,,,,,,,,,,,,,,,,,,,,,
,,,,,,,,,,,,,,,,,,,,,,,,,,,,,,,,,,,,,,,,,,5f011e4abcc6d126f234516c,606a0fd656eb9aa6d45444a1,2021-04-04_21h13.41.123,Colour_Similarity_Experiment,2020.2.10,Win32,60,60675255c767bca6388caeee,17.44891844,16.7472541,16.6825,16.67521006,16.66178179,16.6825,,,,,,,,,,,,,,,,,,,,PF,3,weak,,,,,,,,5,1.416685,,,,,,,,,,,,,,,,,,,,,,,,,,,,4,weak,85.60001272,-54.40000725,1,0,0,response3disk,7,51,12.80001163,-4.000006497,1,0,0,rectangle,12.80001163,-4.000006497,1,0,0,5,4,0.00017,12.80001163,-4.000006497,1,0,0,0,50,50,38,1,0,,,,,,,,,,,,,,,,,,,,,
,,,,,,,,,,,,,,,,,,,,,,,,,,,,,,,,,,,,,,,,,,5f011e4abcc6d126f234516c,606a0fd656eb9aa6d45444a1,2021-04-04_21h13.41.123,Colour_Similarity_Experiment,2020.2.10,Win32,60,60675255c767bca6388caeee,17.44891844,16.7472541,16.6825,16.67521006,16.66178179,16.6825,,,,,,,,,,,,,,,,,,,,PF,3,weak,,,,,,,,5,1.98276,,,,,,,,,,,,,,,,,,,,,,,,,,,,3,weak,108.8000131,-44.00000709,1,0,0,response3disk,7,52,3.200011492,-9.60000658,1,0,0,rectangle,3.200011492,-9.60000658,1,0,0,5,0,0.001595,3.200011492,-9.60000658,1,0,0,0,51,51,41,1,0,,,,,,,,,,,,,,,,,,,,,
,,,,,,,,,,,,,,,,,,,,,,,,,,,,,,,,,,,,,,,,,,5f011e4abcc6d126f234516c,606a0fd656eb9aa6d45444a1,2021-04-04_21h13.41.123,Colour_Similarity_Experiment,2020.2.10,Win32,60,60675255c767bca6388caeee,17.44891844,16.7472541,16.6825,16.67521006,16.66178179,16.6825,,,,,,,,,,,,,,,,,,,,PF,3,strong,,,,,,,,0,1.147885,,,,,,,,,,,,,,,,,,,,,,,,,,,,7,strong,-43.1999892,75.19997027,1,0,0,response7disk,7,53,10.4000116,-8.800006568,1,0,0,rectangle,10.4000116,-8.800006568,1,0,0,5,3,0.0013,10.4000116,-8.800006568,1,0,0,0,52,52,34,1,0,,,,,,,,,,,,,,,,,,,,,
,,,,,,,,,,,,,,,,,,,,,,,,,,,,,,,,,,,,,,,,,,5f011e4abcc6d126f234516c,606a0fd656eb9aa6d45444a1,2021-04-04_21h13.41.123,Colour_Similarity_Experiment,2020.2.10,Win32,60,60675255c767bca6388caeee,17.44891844,16.7472541,16.6825,16.67521006,16.66178179,16.6825,,,,,,,,,,,,,,,,,,,,PF,3,weak,,,,,,,,3,2.06404,,,,,,,,,,,,,,,,,,,,,,,,,,,,5,weak,-28.79998899,-106.400008,1,0,0,response5disk,7,54,-0.799988568,-0.800006449,1,0,0,rectangle,-0.799988568,-0.800006449,1,0,0,5,7,0.00124,-0.799988568,-0.800006449,1,0,0,0,53,53,146,1,0,,,,,,,,,,,,,,,,,,,,,
,,,,,,,,,,,,,,,,,,,,,,,,,,,,,,,,,,,,,,,,,,5f011e4abcc6d126f234516c,606a0fd656eb9aa6d45444a1,2021-04-04_21h13.41.123,Colour_Similarity_Experiment,2020.2.10,Win32,60,60675255c767bca6388caeee,17.44891844,16.7472541,16.6825,16.67521006,16.66178179,16.6825,,,,,,,,,,,,,,,,,,,,PF,3,weak,,,,,,,,4,1.760675,,,,,,,,,,,,,,,,,,,,,,,,,,,,9,weak,48.00001216,-96.80000788,1,0,0,response3disk,4,55,-9.599988699,-6.400006533,1,0,0,rectangle,-9.599988699,-6.400006533,1,0,0,5,4,0.00162,-9.599988699,-6.400006533,1,0,0,0,54,54,114,1,0,,,,,,,,,,,,,,,,,,,,,
,,,,,,,,,,,,,,,,,,,,,,,,,,,,,,,,,,,,,,,,,,5f011e4abcc6d126f234516c,606a0fd656eb9aa6d45444a1,2021-04-04_21h13.41.123,Colour_Similarity_Experiment,2020.2.10,Win32,60,60675255c767bca6388caeee,17.44891844,16.7472541,16.6825,16.67521006,16.66178179,16.6825,,,,,,,,,,,,,,,,,,,,PF,3,strong,,,,,,,,4,2.047765,,,,,,,,,,,,,,,,,,,,,,,,,,,,1,strong,52.80001223,-104.800008,1,0,0,response3disk,2,56,9.600060415,-13.60000664,1,0,0,rectangle,9.600060415,-13.60000664,1,0,0,5,7,0.00129,9.600060415,-13.60000664,1,0,0,0,55,55,2,1,0,,,,,,,,,,,,,,,,,,,,,
,,,,,,,,,,,,,,,,,,,,,,,,,,,,,,,,,,,,,,,,,,5f011e4abcc6d126f234516c,606a0fd656eb9aa6d45444a1,2021-04-04_21h13.41.123,Colour_Similarity_Experiment,2020.2.10,Win32,60,60675255c767bca6388caeee,17.44891844,16.7472541,16.6825,16.67521006,16.66178179,16.6825,,,,,,,,,,,,,,,,,,,,PF,3,weak,,,,,,,,5,1.231225,,,,,,,,,,,,,,,,,,,,,,,,,,,,1,weak,112.8000131,-35.20000696,1,0,0,response3disk,7,57,-0.799988568,5.599993646,1,0,0,rectangle,-0.799988568,5.599993646,1,0,0,5,3,0.001225,-0.799988568,5.599993646,1,0,0,0,56,56,150,1,0,,,,,,,,,,,,,,,,,,,,,
,,,,,,,,,,,,,,,,,,,,,,,,,,,,,,,,,,,,,,,,,,5f011e4abcc6d126f234516c,606a0fd656eb9aa6d45444a1,2021-04-04_21h13.41.123,Colour_Similarity_Experiment,2020.2.10,Win32,60,60675255c767bca6388caeee,17.44891844,16.7472541,16.6825,16.67521006,16.66178179,16.6825,,,,,,,,,,,,,,,,,,,,PF,3,weak,,,,,,,,2,2.31437,,,,,,,,,,,,,,,,,,,,,,,,,,,,5,weak,-79.19998974,-40.00000703,1,0,0,response5disk,6,58,14.40001166,-8.000006557,1,0,0,rectangle,14.40001166,-8.000006557,1,0,0,5,7,0.00126,14.40001166,-8.000006557,1,0,0,0,57,57,103,1,0,,,,,,,,,,,,,,,,,,,,,
,,,,,,,,,,,,,,,,,,,,,,,,,,,,,,,,,,,,,,,,,,5f011e4abcc6d126f234516c,606a0fd656eb9aa6d45444a1,2021-04-04_21h13.41.123,Colour_Similarity_Experiment,2020.2.10,Win32,60,60675255c767bca6388caeee,17.44891844,16.7472541,16.6825,16.67521006,16.66178179,16.6825,,,,,,,,,,,,,,,,,,,,PF,3,weak,,,,,,,,3,1.48267,,,,,,,,,,,,,,,,,,,,,,,,,,,,9,weak,-50.39994048,-80.00000763,1,0,0,response5disk,1,59,-10.39993988,3.999993622,1,0,0,rectangle,-10.39993988,3.999993622,1,0,0,5,0,0.00184,-10.39993988,3.999993622,1,0,0,0,58,58,74,1,0,,,,,,,,,,,,,,,,,,,,,
,,,,,,,,,,,,,,,,,,,,,,,,,,,,,,,,,,,,,,,,,,5f011e4abcc6d126f234516c,606a0fd656eb9aa6d45444a1,2021-04-04_21h13.41.123,Colour_Similarity_Experiment,2020.2.10,Win32,60,60675255c767bca6388caeee,17.44891844,16.7472541,16.6825,16.67521006,16.66178179,16.6825,,,,,,,,,,,,,,,,,,,,PF,3,weak,,,,,,,,4,2.447715,,,,,,,,,,,,,,,,,,,,,,,,,,,,8,weak,39.20001203,-108.000008,1,0,0,response3disk,4,60,18.40001172,-4.000006497,1,0,0,rectangle,18.40001172,-4.000006497,1,0,0,5,3,0.001245,18.40001172,-4.000006497,1,0,0,0,59,59,78,1,0,,,,,,,,,,,,,,,,,,,,,
,,,,,,,,,,,,,,,,,,,,,,,,,,,,,,,,,,,,,,,,,,5f011e4abcc6d126f234516c,606a0fd656eb9aa6d45444a1,2021-04-04_21h13.41.123,Colour_Similarity_Experiment,2020.2.10,Win32,60,60675255c767bca6388caeee,17.44891844,16.7472541,16.6825,16.67521006,16.66178179,16.6825,,,,,,,,,,,,,,,,,,,,PF,3,weak,,,,,,,,4,2.61679,,,,,,,,,,,,,,,,,,,,,,,,,,,,9,weak,78.40001261,-96.80000788,1,0,0,response3disk,3,61,4.000011504,-5.600006521,1,0,0,rectangle,4.000011504,-5.600006521,1,0,0,5,2,0.001565,4.000011504,-5.600006521,1,0,0,0,60,60,119,1,0,,,,,,,,,,,,,,,,,,,,,
,,,,,,,,,,,,,,,,,,,,,,,,,,,,,,,,,,,,,,,,,,5f011e4abcc6d126f234516c,606a0fd656eb9aa6d45444a1,2021-04-04_21h13.41.123,Colour_Similarity_Experiment,2020.2.10,Win32,60,60675255c767bca6388caeee,17.44891844,16.7472541,16.6825,16.67521006,16.66178179,16.6825,,,,,,,,,,,,,,,,,,,,PF,3,strong,,,,,,,,5,2.71529,,,,,,,,,,,,,,,,,,,,,,,,,,,,2,strong,90.40001279,-52.00000721,1,0,0,response3disk,4,62,12.80001163,1.599993587,1,0,0,rectangle,12.80001163,1.599993587,1,0,0,5,0,0.00126,12.80001163,1.599993587,1,0,0,0,61,61,145,1,0,,,,,,,,,,,,,,,,,,,,,
,,,,,,,,,,,,,,,,,,,,,,,,,,,,,,,,,,,,,,,,,,5f011e4abcc6d126f234516c,606a0fd656eb9aa6d45444a1,2021-04-04_21h13.41.123,Colour_Similarity_Experiment,2020.2.10,Win32,60,60675255c767bca6388caeee,17.44891844,16.7472541,16.6825,16.67521006,16.66178179,16.6825,,,,,,,,,,,,,,,,,,,,PF,3,strong,,,,,,,,5,2.416675,,,,,,,,,,,,,,,,,,,,,,,,,,,,2,strong,99.20001292,-50.40000719,1,0,0,response3disk,6,63,9.600060415,-1.600006461,1,0,0,rectangle,9.600060415,-1.600006461,1,0,0,5,0,0.0002,9.600060415,-1.600006461,1,0,0,0,62,62,40,1,0,,,,,,,,,,,,,,,,,,,,,
,,,,,,,,,,,,,,,,,,,,,,,,,,,,,,,,,,,,,,,,,,5f011e4abcc6d126f234516c,606a0fd656eb9aa6d45444a1,2021-04-04_21h13.41.123,Colour_Similarity_Experiment,2020.2.10,Win32,60,60675255c767bca6388caeee,17.44891844,16.7472541,16.6825,16.67521006,16.66178179,16.6825,,,,,,,,,,,,,,,,,,,,PF,3,strong,,,,,,,,1,1.598,,,,,,,,,,,,,,,,,,,,,,,,,,,,9,strong,-50.39994048,36.79999411,1,0,0,response7disk,8,64,5.600060356,-7.200006545,1,0,0,rectangle,5.600060356,-7.200006545,1,0,0,5,7,0.001395,5.600060356,-7.200006545,1,0,0,0,63,63,6,1,0,,,,,,,,,,,,,,,,,,,,,
,,,,,,,,,,,,,,,,,,,,,,,,,,,,,,,,,,,,,,,,,,5f011e4abcc6d126f234516c,606a0fd656eb9aa6d45444a1,2021-04-04_21h13.41.123,Colour_Similarity_Experiment,2020.2.10,Win32,60,60675255c767bca6388caeee,17.44891844,16.7472541,16.6825,16.67521006,16.66178179,16.6825,,,,,,,,,,,,,,,,,,,,PF,3,strong,,,,,,,,4,2.2506,,,,,,,,,,,,,,,,,,,,,,,,,,,,6,strong,32.00001192,-92.80000782,1,0,0,response3disk,9,65,1.14441E-05,-1.600006461,1,0,0,rectangle,-33.59998906,102.3999951,1,0,0,0,0,1.915775,1.600060296,-0.800006449,1,0,0,0,64,64,160,1,1,response7disk_3,rectangle,,,,,,,,,,,,,,,,,,,
,,,,,,,,,,,,,,,,,,,,,,,,,,,,,,,,,,,,,,,,,,5f011e4abcc6d126f234516c,606a0fd656eb9aa6d45444a1,2021-04-04_21h13.41.123,Colour_Similarity_Experiment,2020.2.10,Win32,60,60675255c767bca6388caeee,17.44891844,16.7472541,16.6825,16.67521006,16.66178179,16.6825,,,,,,,,,,,,,,,,,,,,PF,3,weak,,,,,,,,3,1.149995,,,,,,,,,,,,,,,,,,,,,,,,,,,,8,weak,-37.59998912,-102.400008,1,0,0,response5disk,6,66,3.200011492,3.999993622,1,0,0,rectangle,-43.99998921,91.99999493,1,0,0,0,0,1.766475,13.60006047,-14.40000665,1,0,0,0,65,65,161,1,1,response7disk_3,rectangle,,,,,,,,,,,,,,,,,,,
,,,,,,,,,,,,,,,,,,,,,,,,,,,,,,,,,,,,,,,,,,5f011e4abcc6d126f234516c,606a0fd656eb9aa6d45444a1,2021-04-04_21h13.41.123,Colour_Similarity_Experiment,2020.2.10,Win32,60,60675255c767bca6388caeee,17.44891844,16.7472541,16.6825,16.67521006,16.66178179,16.6825,,,,,,,,,,,,,,,,,,,,PF,3,strong,,,,,,,,3,1.480035,,,,,,,,,,,,,,,,,,,,,,,,,,,,7,strong,-47.99998927,-74.40000755,1,0,0,response5disk,8,67,-7.199988663,13.59999377,1,0,0,rectangle,-103.1999901,57.59999442,1,0,0,1,1,1.600235,-9.599988699,1.599993587,1,0,0,0,66,66,97,1,1,response7disk_3,rectangle,,,,,,,,,,,,,,,,,,,
,,,,,,,,,,,,,,,,,,,,,,,,,,,,,,,,,,,,,,,,,,5f011e4abcc6d126f234516c,606a0fd656eb9aa6d45444a1,2021-04-04_21h13.41.123,Colour_Similarity_Experiment,2020.2.10,Win32,60,60675255c767bca6388caeee,17.44891844,16.7472541,16.6825,16.67521006,16.66178179,16.6825,,,,,,,,,,,,,,,,,,,,PF,3,strong,,,,,,,,1,1.24788,,,,,,,,,,,,,,,,,,,,,,,,,,,,3,strong,-63.1999895,29.599994,1,0,0,response7disk,4,68,-12.79998875,1.599993587,1,0,0,rectangle,-12.79998875,1.599993587,1,0,0,1,3,0.00253,-12.79998875,1.599993587,1,0,0,0,67,67,110,1,0,,,,,,,,,,,,,,,,,,,,,
,,,,,,,,,,,,,,,,,,,,,,,,,,,,,,,,,,,,,,,,,,5f011e4abcc6d126f234516c,606a0fd656eb9aa6d45444a1,2021-04-04_21h13.41.123,Colour_Similarity_Experiment,2020.2.10,Win32,60,60675255c767bca6388caeee,17.44891844,16.7472541,16.6825,16.67521006,16.66178179,16.6825,,,,,,,,,,,,,,,,,,,,PF,3,weak,,,,,,,,5,1.549435,,,,,,,,,,,,,,,,,,,,,,,,,,,,1,weak,103.200013,-59.20000732,1,0,0,response3disk,4,69,-2.399939764,-1.600006461,1,0,0,rectangle,-2.399939764,-1.600006461,1,0,0,1,2,0.00128,-2.399939764,-1.600006461,1,0,0,0,68,68,139,1,0,,,,,,,,,,,,,,,,,,,,,
,,,,,,,,,,,,,,,,,,,,,,,,,,,,,,,,,,,,,,,,,,5f011e4abcc6d126f234516c,606a0fd656eb9aa6d45444a1,2021-04-04_21h13.41.123,Colour_Similarity_Experiment,2020.2.10,Win32,60,60675255c767bca6388caeee,17.44891844,16.7472541,16.6825,16.67521006,16.66178179,16.6825,,,,,,,,,,,,,,,,,,,,PF,3,weak,,,,,,,,4,2.483045,,,,,,,,,,,,,,,,,,,,,,,,,,,,2,weak,40.00001204,-68.80000746,1,0,0,response3disk,4,70,2.40001148,10.39999372,1,0,0,rectangle,2.40001148,10.39999372,1,0,0,1,0,0.001665,2.40001148,10.39999372,1,0,0,0,69,69,127,1,0,,,,,,,,,,,,,,,,,,,,,
,,,,,,,,,,,,,,,,,,,,,,,,,,,,,,,,,,,,,,,,,,5f011e4abcc6d126f234516c,606a0fd656eb9aa6d45444a1,2021-04-04_21h13.41.123,Colour_Similarity_Experiment,2020.2.10,Win32,60,60675255c767bca6388caeee,17.44891844,16.7472541,16.6825,16.67521006,16.66178179,16.6825,,,,,,,,,,,,,,,,,,,,PF,3,strong,,,,,,,,4,1.51464,,,,,,,,,,,,,,,,,,,,,,,,,,,,1,strong,47.20001215,-76.80000758,1,0,0,response3disk,8,71,6.400011539,-5.600006521,1,0,0,rectangle,6.400011539,-5.600006521,1,0,0,1,5,0.00126,6.400011539,-5.600006521,1,0,0,0,70,70,27,1,0,,,,,,,,,,,,,,,,,,,,,
,,,,,,,,,,,,,,,,,,,,,,,,,,,,,,,,,,,,,,,,,,5f011e4abcc6d126f234516c,606a0fd656eb9aa6d45444a1,2021-04-04_21h13.41.123,Colour_Similarity_Experiment,2020.2.10,Win32,60,60675255c767bca6388caeee,17.44891844,16.7472541,16.6825,16.67521006,16.66178179,16.6825,,,,,,,,,,,,,,,,,,,,PF,3,strong,,,,,,,,3,2.03137,,,,,,,,,,,,,,,,,,,,,,,,,,,,9,strong,-35.99998909,-104.800008,1,0,0,response5disk,1,72,-5.599988639,0.799993575,1,0,0,rectangle,-5.599988639,0.799993575,1,0,0,1,2,0.001705,-5.599988639,0.799993575,1,0,0,0,71,71,111,1,0,,,,,,,,,,,,,,,,,,,,,
,,,,,,,,,,,,,,,,,,,,,,,,,,,,,,,,,,,,,,,,,,5f011e4abcc6d126f234516c,606a0fd656eb9aa6d45444a1,2021-04-04_21h13.41.123,Colour_Similarity_Experiment,2020.2.10,Win32,60,60675255c767bca6388caeee,17.44891844,16.7472541,16.6825,16.67521006,16.66178179,16.6825,,,,,,,,,,,,,,,,,,,,PF,3,weak,,,,,,,,5,1.24762,,,,,,,,,,,,,,,,,,,,,,,,,,,,4,weak,100.0000129,-24.00000679,1,0,0,response3disk,8,73,16.00001168,-1.600006461,1,0,0,rectangle,16.00001168,-1.600006461,1,0,0,1,6,0.001175,16.00001168,-1.600006461,1,0,0,0,72,72,124,1,0,,,,,,,,,,,,,,,,,,,,,
,,,,,,,,,,,,,,,,,,,,,,,,,,,,,,,,,,,,,,,,,,5f011e4abcc6d126f234516c,606a0fd656eb9aa6d45444a1,2021-04-04_21h13.41.123,Colour_Similarity_Experiment,2020.2.10,Win32,60,60675255c767bca6388caeee,17.44891844,16.7472541,16.6825,16.67521006,16.66178179,16.6825,,,,,,,,,,,,,,,,,,,,PF,3,weak,,,,,,,,2,2.449905,,,,,,,,,,,,,,,,,,,,,,,,,,,,9,weak,-84.79998982,-32.80000693,1,0,0,response5disk,8,74,-1.59998858,3.19999361,1,0,0,rectangle,-1.59998858,3.19999361,1,0,0,1,7,0.001225,-1.59998858,3.19999361,1,0,0,0,73,73,67,1,0,,,,,,,,,,,,,,,,,,,,,
,,,,,,,,,,,,,,,,,,,,,,,,,,,,,,,,,,,,,,,,,,5f011e4abcc6d126f234516c,606a0fd656eb9aa6d45444a1,2021-04-04_21h13.41.123,Colour_Similarity_Experiment,2020.2.10,Win32,60,60675255c767bca6388caeee,17.44891844,16.7472541,16.6825,16.67521006,16.66178179,16.6825,,,,,,,,,,,,,,,,,,,,PF,3,weak,,,,,,,,4,2.14725,,,,,,,,,,,,,,,,,,,,,,,,,,,,8,weak,36.00001198,-84.00000769,1,0,0,response3disk,1,75,5.600060356,-10.40000659,1,0,0,rectangle,5.600060356,-10.40000659,1,0,0,1,7,0.000245,5.600060356,-10.40000659,1,0,0,0,74,74,57,1,0,,,,,,,,,,,,,,,,,,,,,
,,,,,,,,,,,,,,,,,,,,,,,,,,,,,,,,,,,,,,,,,,5f011e4abcc6d126f234516c,606a0fd656eb9aa6d45444a1,2021-04-04_21h13.41.123,Colour_Similarity_Experiment,2020.2.10,Win32,60,60675255c767bca6388caeee,17.44891844,16.7472541,16.6825,16.67521006,16.66178179,16.6825,,,,,,,,,,,,,,,,,,,,PF,3,strong,,,,,,,,6,1.98259,,,,,,,,,,,,,,,,,,,,,,,,,,,,3,strong,103.200013,33.59999406,1,0,0,response1disk,2,76,6.400011539,-1.600006461,1,0,0,rectangle,6.400011539,-1.600006461,1,0,0,1,0,0.00335,6.400011539,-1.600006461,1,0,0,0,75,75,93,1,0,,,,,,,,,,,,,,,,,,,,,
,,,,,,,,,,,,,,,,,,,,,,,,,,,,,,,,,,,,,,,,,,5f011e4abcc6d126f234516c,606a0fd656eb9aa6d45444a1,2021-04-04_21h13.41.123,Colour_Similarity_Experiment,2020.2.10,Win32,60,60675255c767bca6388caeee,17.44891844,16.7472541,16.6825,16.67521006,16.66178179,16.6825,,,,,,,,,,,,,,,,,,,,PF,3,strong,,,,,,,,4,6.796715,,,,,,,,,,,,,,,,,,,,,,,,,,,,5,strong,71.20001251,-88.00000775,1,0,0,response3disk,6,77,-18.39994,-11.2000066,1,0,0,rectangle,-18.39994,-11.2000066,1,0,0,1,3,0.001235,-18.39994,-11.2000066,1,0,0,0,76,76,12,1,0,,,,,,,,,,,,,,,,,,,,,
,,,,,,,,,,,,,,,,,,,,,,,,,,,,,,,,,,,,,,,,,,5f011e4abcc6d126f234516c,606a0fd656eb9aa6d45444a1,2021-04-04_21h13.41.123,Colour_Similarity_Experiment,2020.2.10,Win32,60,60675255c767bca6388caeee,17.44891844,16.7472541,16.6825,16.67521006,16.66178179,16.6825,,,,,,,,,,,,,,,,,,,,PF,3,weak,,,,,,,,6,1.26608,,,,,,,,,,,,,,,,,,,,,,,,,,,,3,weak,136.0000135,45.59999424,1,0,0,response1disk,1,78,13.60006047,-0.800006449,1,0,0,rectangle,13.60006047,-0.800006449,1,0,0,1,6,0.001205,13.60006047,-0.800006449,1,0,0,0,77,77,96,1,0,,,,,,,,,,,,,,,,,,,,,
,,,,,,,,,,,,,,,,,,,,,,,,,,,,,,,,,,,,,,,,,,5f011e4abcc6d126f234516c,606a0fd656eb9aa6d45444a1,2021-04-04_21h13.41.123,Colour_Similarity_Experiment,2020.2.10,Win32,60,60675255c767bca6388caeee,17.44891844,16.7472541,16.6825,16.67521006,16.66178179,16.6825,,,,,,,,,,,,,,,,,,,,PF,3,weak,,,,,,,,5,2.96503,,,,,,,,,,,,,,,,,,,,,,,,,,,,6,weak,56.00001228,-50.40000719,1,0,0,response3disk,4,79,9.600060415,-0.800006449,1,0,0,rectangle,9.600060415,-0.800006449,1,0,0,1,5,0.00106,9.600060415,-0.800006449,1,0,0,0,78,78,33,1,0,,,,,,,,,,,,,,,,,,,,,
,,,,,,,,,,,,,,,,,,,,,,,,,,,,,,,,,,,,,,,,,,5f011e4abcc6d126f234516c,606a0fd656eb9aa6d45444a1,2021-04-04_21h13.41.123,Colour_Similarity_Experiment,2020.2.10,Win32,60,60675255c767bca6388caeee,17.44891844,16.7472541,16.6825,16.67521006,16.66178179,16.6825,,,,,,,,,,,,,,,,,,,,PF,3,strong,,,,,,,,1,2.56634,,,,,,,,,,,,,,,,,,,,,,,,,,,,4,strong,-99.99999005,49.5999943,1,0,0,response7disk,3,80,-6.399939823,1.599993587,1,0,0,rectangle,-6.399939823,1.599993587,1,0,0,1,1,0.001535,-6.399939823,1.599993587,1,0,0,0,79,79,77,1,0,,,,,,,,,,,,,,,,,,,,,
,,,,,,,,,,,,,,,,,,,,,,,,,,,,,,,,,,,,,,,,,,5f011e4abcc6d126f234516c,606a0fd656eb9aa6d45444a1,2021-04-04_21h13.41.123,Colour_Similarity_Experiment,2020.2.10,Win32,60,60675255c767bca6388caeee,17.44891844,16.7472541,16.6825,16.67521006,16.66178179,16.6825,,,,,,,,,,,,,,,,,,,,PF,3,strong,,,,,,,,5,1.428385,,,,,,,,,,,,,,,,,,,,,,,,,,,,7,strong,91.2000128,-63.20000738,1,0,0,response3disk,4,81,4.000011504,4.799993634,1,0,0,rectangle,4.000011504,4.799993634,1,0,0,1,4,0.001185,4.000011504,4.799993634,1,0,0,0,80,80,158,1,0,,,,,,,,,,,,,,,,,,,,,
,,,,,,,,,,,,,,,,,,,,,,,,,,,,,,,,,,,,,,,,,,5f011e4abcc6d126f234516c,606a0fd656eb9aa6d45444a1,2021-04-04_21h13.41.123,Colour_Similarity_Experiment,2020.2.10,Win32,60,60675255c767bca6388caeee,17.44891844,16.7472541,16.6825,16.67521006,16.66178179,16.6825,,,,,,,,,,,,,,,,,,,,PF,3,strong,,,,,,,,0,1.98098,,,,,,,,,,,,,,,,,,,,,,,,,,,,8,strong,-52.79998934,73.59999466,1,0,0,response7disk,9,82,9.600060415,-4.800006509,1,0,0,rectangle,9.600060415,-4.800006509,1,0,0,1,3,0.00124,9.600060415,-4.800006509,1,0,0,0,81,81,105,1,0,,,,,,,,,,,,,,,,,,,,,
,,,,,,,,,,,,,,,,,,,,,,,,,,,,,,,,,,,,,,,,,,5f011e4abcc6d126f234516c,606a0fd656eb9aa6d45444a1,2021-04-04_21h13.41.123,Colour_Similarity_Experiment,2020.2.10,Win32,60,60675255c767bca6388caeee,17.44891844,16.7472541,16.6825,16.67521006,16.66178179,16.6825,,,,,,,,,,,,,,,,,,,,PF,3,strong,,,,,,,,1,1.547795,,,,,,,,,,,,,,,,,,,,,,,,,,,,8,strong,-95.99998999,49.5999943,1,0,0,response7disk,8,83,-19.19998884,-2.400006473,1,0,0,rectangle,-19.19998884,-2.400006473,1,0,0,1,5,0.0012,-19.19998884,-2.400006473,1,0,0,0,82,82,48,1,0,,,,,,,,,,,,,,,,,,,,,
,,,,,,,,,,,,,,,,,,,,,,,,,,,,,,,,,,,,,,,,,,5f011e4abcc6d126f234516c,606a0fd656eb9aa6d45444a1,2021-04-04_21h13.41.123,Colour_Similarity_Experiment,2020.2.10,Win32,60,60675255c767bca6388caeee,17.44891844,16.7472541,16.6825,16.67521006,16.66178179,16.6825,,,,,,,,,,,,,,,,,,,,PF,3,weak,,,,,,,,3,1.21238,,,,,,,,,,,,,,,,,,,,,,,,,,,,7,weak,-34.39994024,-68.80000746,1,0,0,response5disk,6,84,-7.199988663,-6.400006533,1,0,0,rectangle,-7.199988663,-6.400006533,1,0,0,1,3,0.001575,-7.199988663,-6.400006533,1,0,0,0,83,83,29,1,0,,,,,,,,,,,,,,,,,,,,,
,,,,,,,,,,,,,,,,,,,,,,,,,,,,,,,,,,,,,,,,,,5f011e4abcc6d126f234516c,606a0fd656eb9aa6d45444a1,2021-04-04_21h13.41.123,Colour_Similarity_Experiment,2020.2.10,Win32,60,60675255c767bca6388caeee,17.44891844,16.7472541,16.6825,16.67521006,16.66178179,16.6825,,,,,,,,,,,,,,,,,,,,PF,3,weak,,,,,,,,3,1.48096,,,,,,,,,,,,,,,,,,,,,,,,,,,,1,weak,-17.59998882,-80.00000763,1,0,0,response5disk,1,85,12.00001162,-7.200006545,1,0,0,rectangle,29.60006071,75.19997027,1,0,0,7,7,1.648755,0.800011456,9.599993706,1,0,0,0,84,84,76,1,1,response1disk_3,rectangle,,,,,,,,,,,,,,,,,,,
,,,,,,,,,,,,,,,,,,,,,,,,,,,,,,,,,,,,,,,,,,5f011e4abcc6d126f234516c,606a0fd656eb9aa6d45444a1,2021-04-04_21h13.41.123,Colour_Similarity_Experiment,2020.2.10,Win32,60,60675255c767bca6388caeee,17.44891844,16.7472541,16.6825,16.67521006,16.66178179,16.6825,,,,,,,,,,,,,,,,,,,,PF,3,strong,,,,,,,,3,2.930805,,,,,,,,,,,,,,,,,,,,,,,,,,,,2,strong,-47.99998927,-93.60005666,1,0,0,response5disk,7,86,8.000011563,5.599993646,1,0,0,rectangle,8.000011563,5.599993646,1,0,0,7,4,0.00124,8.000011563,5.599993646,1,0,0,0,85,85,63,1,0,,,,,,,,,,,,,,,,,,,,,
,,,,,,,,,,,,,,,,,,,,,,,,,,,,,,,,,,,,,,,,,,5f011e4abcc6d126f234516c,606a0fd656eb9aa6d45444a1,2021-04-04_21h13.41.123,Colour_Similarity_Experiment,2020.2.10,Win32,60,60675255c767bca6388caeee,17.44891844,16.7472541,16.6825,16.67521006,16.66178179,16.6825,,,,,,,,,,,,,,,,,,,,PF,3,weak,,,,,,,,5,1.414435,,,,,,,,,,,,,,,,,,,,,,,,,,,,4,weak,76.00001258,-40.80000705,1,0,0,response3disk,2,87,1.600060296,7.999993682,1,0,0,rectangle,1.600060296,7.999993682,1,0,0,7,2,0.00124,1.600060296,7.999993682,1,0,0,0,86,86,108,1,0,,,,,,,,,,,,,,,,,,,,,
,,,,,,,,,,,,,,,,,,,,,,,,,,,,,,,,,,,,,,,,,,5f011e4abcc6d126f234516c,606a0fd656eb9aa6d45444a1,2021-04-04_21h13.41.123,Colour_Similarity_Experiment,2020.2.10,Win32,60,60675255c767bca6388caeee,17.44891844,16.7472541,16.6825,16.67521006,16.66178179,16.6825,,,,,,,,,,,,,,,,,,,,PF,3,weak,,,,,,,,4,1.59804,,,,,,,,,,,,,,,,,,,,,,,,,,,,8,weak,64.80001241,-108.000008,1,0,0,response3disk,3,88,6.400011539,-0.800006449,1,0,0,rectangle,6.400011539,-0.800006449,1,0,0,7,6,0.001245,6.400011539,-0.800006449,1,0,0,0,87,87,71,1,0,,,,,,,,,,,,,,,,,,,,,
,,,,,,,,,,,,,,,,,,,,,,,,,,,,,,,,,,,,,,,,,,5f011e4abcc6d126f234516c,606a0fd656eb9aa6d45444a1,2021-04-04_21h13.41.123,Colour_Similarity_Experiment,2020.2.10,Win32,60,60675255c767bca6388caeee,17.44891844,16.7472541,16.6825,16.67521006,16.66178179,16.6825,,,,,,,,,,,,,,,,,,,,PF,3,strong,,,,,,,,4,1.647975,,,,,,,,,,,,,,,,,,,,,,,,,,,,1,strong,60.00001234,-82.40000767,1,0,0,response3disk,9,89,-0.799988568,6.399993658,1,0,0,rectangle,-0.799988568,6.399993658,1,0,0,7,7,0.00139,-0.799988568,6.399993658,1,0,0,0,88,88,123,1,0,,,,,,,,,,,,,,,,,,,,,
,,,,,,,,,,,,,,,,,,,,,,,,,,,,,,,,,,,,,,,,,,5f011e4abcc6d126f234516c,606a0fd656eb9aa6d45444a1,2021-04-04_21h13.41.123,Colour_Similarity_Experiment,2020.2.10,Win32,60,60675255c767bca6388caeee,17.44891844,16.7472541,16.6825,16.67521006,16.66178179,16.6825,,,,,,,,,,,,,,,,,,,,PF,3,strong,,,,,,,,5,3.08269,,,,,,,,,,,,,,,,,,,,,,,,,,,,9,strong,94.40001285,-63.20000738,1,0,0,response3disk,4,90,-3.999988616,7.19999367,1,0,0,rectangle,-3.999988616,7.19999367,1,0,0,7,3,0.00159,-3.999988616,7.19999367,1,0,0,0,89,89,60,1,0,,,,,,,,,,,,,,,,,,,,,
,,,,,,,,,,,,,,,,,,,,,,,,,,,,,,,,,,,,,,,,,,5f011e4abcc6d126f234516c,606a0fd656eb9aa6d45444a1,2021-04-04_21h13.41.123,Colour_Similarity_Experiment,2020.2.10,Win32,60,60675255c767bca6388caeee,17.44891844,16.7472541,16.6825,16.67521006,16.66178179,16.6825,,,,,,,,,,,,,,,,,,,,PF,3,weak,,,,,,,,5,2.13199,,,,,,,,,,,,,,,,,,,,,,,,,,,,2,weak,68.80001247,-45.60000712,1,0,0,response3disk,1,91,7.200011551,1.599993587,1,0,0,rectangle,7.200011551,1.599993587,1,0,0,7,1,0.001525,7.200011551,1.599993587,1,0,0,0,90,90,9,1,0,,,,,,,,,,,,,,,,,,,,,
,,,,,,,,,,,,,,,,,,,,,,,,,,,,,,,,,,,,,,,,,,5f011e4abcc6d126f234516c,606a0fd656eb9aa6d45444a1,2021-04-04_21h13.41.123,Colour_Similarity_Experiment,2020.2.10,Win32,60,60675255c767bca6388caeee,17.44891844,16.7472541,16.6825,16.67521006,16.66178179,16.6825,,,,,,,,,,,,,,,,,,,,PF,3,strong,,,,,,,,4,1.51402,,,,,,,,,,,,,,,,,,,,,,,,,,,,5,strong,40.00001204,-85.60005654,1,0,0,response3disk,2,92,3.200011492,3.999993622,1,0,0,rectangle,-102.3999413,-39.20000702,1,0,0,7,2,1.94937,8.800011575,4.799993634,1,0,0,0,91,91,55,1,1,response5disk_3,rectangle,,,,,,,,,,,,,,,,,,,
,,,,,,,,,,,,,,,,,,,,,,,,,,,,,,,,,,,,,,,,,,5f011e4abcc6d126f234516c,606a0fd656eb9aa6d45444a1,2021-04-04_21h13.41.123,Colour_Similarity_Experiment,2020.2.10,Win32,60,60675255c767bca6388caeee,17.44891844,16.7472541,16.6825,16.67521006,16.66178179,16.6825,,,,,,,,,,,,,,,,,,,,PF,3,strong,,,,,,,,5,1.33292,,,,,,,,,,,,,,,,,,,,,,,,,,,,6,strong,81.60001266,-51.2000072,1,0,0,response3disk,2,93,5.600060356,-6.400006533,1,0,0,rectangle,5.600060356,-6.400006533,1,0,0,7,2,0.00017,5.600060356,-6.400006533,1,0,0,0,92,92,112,1,0,,,,,,,,,,,,,,,,,,,,,
,,,,,,,,,,,,,,,,,,,,,,,,,,,,,,,,,,,,,,,,,,5f011e4abcc6d126f234516c,606a0fd656eb9aa6d45444a1,2021-04-04_21h13.41.123,Colour_Similarity_Experiment,2020.2.10,Win32,60,60675255c767bca6388caeee,17.44891844,16.7472541,16.6825,16.67521006,16.66178179,16.6825,,,,,,,,,,,,,,,,,,,,PF,3,strong,,,,,,,,3,1.416475,,,,,,,,,,,,,,,,,,,,,,,,,,,,8,strong,-55.19998938,-84.8000077,1,0,0,response5disk,7,94,-6.399939823,-5.600006521,1,0,0,rectangle,-6.399939823,-5.600006521,1,0,0,7,1,0.001675,-6.399939823,-5.600006521,1,0,0,0,93,93,86,1,0,,,,,,,,,,,,,,,,,,,,,
,,,,,,,,,,,,,,,,,,,,,,,,,,,,,,,,,,,,,,,,,,5f011e4abcc6d126f234516c,606a0fd656eb9aa6d45444a1,2021-04-04_21h13.41.123,Colour_Similarity_Experiment,2020.2.10,Win32,60,60675255c767bca6388caeee,17.44891844,16.7472541,16.6825,16.67521006,16.66178179,16.6825,,,,,,,,,,,,,,,,,,,,PF,3,weak,,,,,,,,2,1.30026,,,,,,,,,,,,,,,,,,,,,,,,,,,,1,weak,-87.19998986,-49.60000718,1,0,0,response5disk,9,95,-15.99998879,-6.4373E-06,1,0,0,rectangle,-15.99998879,-6.4373E-06,1,0,0,7,1,0.00016,-15.99998879,-6.4373E-06,1,0,0,0,94,94,15,1,0,,,,,,,,,,,,,,,,,,,,,
,,,,,,,,,,,,,,,,,,,,,,,,,,,,,,,,,,,,,,,,,,5f011e4abcc6d126f234516c,606a0fd656eb9aa6d45444a1,2021-04-04_21h13.41.123,Colour_Similarity_Experiment,2020.2.10,Win32,60,60675255c767bca6388caeee,17.44891844,16.7472541,16.6825,16.67521006,16.66178179,16.6825,,,,,,,,,,,,,,,,,,,,PF,3,weak,,,,,,,,5,1.275075,,,,,,,,,,,,,,,,,,,,,,,,,,,,2,weak,79.20001262,-60.00000733,1,0,0,response3disk,8,96,1.600060296,-1.600006461,1,0,0,rectangle,1.600060296,-1.600006461,1,0,0,7,5,0.00126,1.600060296,-1.600006461,1,0,0,0,95,95,52,1,0,,,,,,,,,,,,,,,,,,,,,
,,,,,,,,,,,,,,,,,,,,,,,,,,,,,,,,,,,,,,,,,,5f011e4abcc6d126f234516c,606a0fd656eb9aa6d45444a1,2021-04-04_21h13.41.123,Colour_Similarity_Experiment,2020.2.10,Win32,60,60675255c767bca6388caeee,17.44891844,16.7472541,16.6825,16.67521006,16.66178179,16.6825,,,,,,,,,,,,,,,,,,,,PF,3,strong,,,,,,,,4,1.90024,,,,,,,,,,,,,,,,,,,,,,,,,,,,8,strong,64.80001241,-85.60005654,1,0,0,response3disk,4,97,0.800011456,6.399993658,1,0,0,rectangle,0.800011456,6.399993658,1,0,0,7,5,0.000165,0.800011456,6.399993658,1,0,0,0,96,96,88,1,0,,,,,,,,,,,,,,,,,,,,,
,,,,,,,,,,,,,,,,,,,,,,,,,,,,,,,,,,,,,,,,,,5f011e4abcc6d126f234516c,606a0fd656eb9aa6d45444a1,2021-04-04_21h13.41.123,Colour_Similarity_Experiment,2020.2.10,Win32,60,60675255c767bca6388caeee,17.44891844,16.7472541,16.6825,16.67521006,16.66178179,16.6825,,,,,,,,,,,,,,,,,,,,PF,3,weak,,,,,,,,4,1.91452,,,,,,,,,,,,,,,,,,,,,,,,,,,,6,weak,61.60001236,-100.0000079,1,0,0,response3disk,3,98,6.400011539,4.799993634,1,0,0,rectangle,6.400011539,4.799993634,1,0,0,7,0,0.00125,6.400011539,4.799993634,1,0,0,0,97,97,26,1,0,,,,,,,,,,,,,,,,,,,,,
,,,,,,,,,,,,,,,,,,,,,,,,,,,,,,,,,,,,,,,,,,5f011e4abcc6d126f234516c,606a0fd656eb9aa6d45444a1,2021-04-04_21h13.41.123,Colour_Similarity_Experiment,2020.2.10,Win32,60,60675255c767bca6388caeee,17.44891844,16.7472541,16.6825,16.67521006,16.66178179,16.6825,,,,,,,,,,,,,,,,,,,,PF,3,weak,,,,,,,,3,1.347425,,,,,,,,,,,,,,,,,,,,,,,,,,,,6,weak,-49.5999893,-92.00000781,1,0,0,response5disk,7,99,2.40001148,-4.000006497,1,0,0,rectangle,2.40001148,-4.000006497,1,0,0,7,0,0.00165,2.40001148,-4.000006497,1,0,0,0,98,98,50,1,0,,,,,,,,,,,,,,,,,,,,,
,,,,,,,,,,,,,,,,,,,,,,,,,,,,,,,,,,,,,,,,,,5f011e4abcc6d126f234516c,606a0fd656eb9aa6d45444a1,2021-04-04_21h13.41.123,Colour_Similarity_Experiment,2020.2.10,Win32,60,60675255c767bca6388caeee,17.44891844,16.7472541,16.6825,16.67521006,16.66178179,16.6825,,,,,,,,,,,,,,,,,,,,PF,3,strong,,,,,,,,1,1.06699,,,,,,,,,,,,,,,,,,,,,,,,,,,,1,strong,-79.99998975,27.19996955,1,0,0,response7disk,1,100,-7.199988663,3.19999361,1,0,0,rectangle,-7.199988663,3.19999361,1,0,0,7,5,0.00123,-7.199988663,3.19999361,1,0,0,0,99,99,151,1,0,,,,,,,,,,,,,,,,,,,,,
,,,,,,,,,,,,,,,,,,,,,,,,,,,,,,,,,,,,,,,,,,5f011e4abcc6d126f234516c,606a0fd656eb9aa6d45444a1,2021-04-04_21h13.41.123,Colour_Similarity_Experiment,2020.2.10,Win32,60,60675255c767bca6388caeee,17.44891844,16.7472541,16.6825,16.67521006,16.66178179,16.6825,,,,,,,,,,,,,,,,,,,,PF,3,weak,,,,,,,,5,1.233385,,,,,,,,,,,,,,,,,,,,,,,,,,,,4,weak,90.40001279,-33.60000694,1,0,0,response3disk,9,101,-6.399939823,4.799993634,1,0,0,rectangle,-6.399939823,4.799993634,1,0,0,7,1,0.001675,-6.399939823,4.799993634,1,0,0,0,100,100,75,1,0,,,,,,,,,,,,,,,,,,,,,
,,,,,,,,,,,,,,,,,,,,,,,,,,,,,,,,,,,,,,,,,,5f011e4abcc6d126f234516c,606a0fd656eb9aa6d45444a1,2021-04-04_21h13.41.123,Colour_Similarity_Experiment,2020.2.10,Win32,60,60675255c767bca6388caeee,17.44891844,16.7472541,16.6825,16.67521006,16.66178179,16.6825,,,,,,,,,,,,,,,,,,,,PF,3,weak,,,,,,,,6,1.10003,,,,,,,,,,,,,,,,,,,,,,,,,,,,4,weak,122.4000133,43.99999422,1,0,0,response1disk,1,102,-30.39994018,-6.4373E-06,1,0,0,rectangle,-30.39994018,-6.4373E-06,1,0,0,7,2,0.001475,-30.39994018,-6.4373E-06,1,0,0,0,101,101,115,1,0,,,,,,,,,,,,,,,,,,,,,
,,,,,,,,,,,,,,,,,,,,,,,,,,,,,,,,,,,,,,,,,,5f011e4abcc6d126f234516c,606a0fd656eb9aa6d45444a1,2021-04-04_21h13.41.123,Colour_Similarity_Experiment,2020.2.10,Win32,60,60675255c767bca6388caeee,17.44891844,16.7472541,16.6825,16.67521006,16.66178179,16.6825,,,,,,,,,,,,,,,,,,,,PF,3,strong,,,,,,,,6,1.38366,,,,,,,,,,,,,,,,,,,,,,,,,,,,1,strong,36.00001198,27.99999398,1,0,0,response1disk,6,103,2.40001148,0.799993575,1,0,0,rectangle,2.40001148,0.799993575,1,0,0,7,1,0.0015,2.40001148,0.799993575,1,0,0,0,102,102,58,1,0,,,,,,,,,,,,,,,,,,,,,
,,,,,,,,,,,,,,,,,,,,,,,,,,,,,,,,,,,,,,,,,,5f011e4abcc6d126f234516c,606a0fd656eb9aa6d45444a1,2021-04-04_21h13.41.123,Colour_Similarity_Experiment,2020.2.10,Win32,60,60675255c767bca6388caeee,17.44891844,16.7472541,16.6825,16.67521006,16.66178179,16.6825,,,,,,,,,,,,,,,,,,,,PF,3,strong,,,,,,,,3,1.38136,,,,,,,,,,,,,,,,,,,,,,,,,,,,5,strong,-39.99998915,-65.60000741,1,0,0,response5disk,7,104,-11.19998872,-4.800006509,1,0,0,rectangle,-11.19998872,-4.800006509,1,0,0,7,5,0.001185,-11.19998872,-4.800006509,1,0,0,0,103,103,7,1,0,,,,,,,,,,,,,,,,,,,,,
,,,,,,,,,,,,,,,,,,,,,,,,,,,,,,,,,,,,,,,,,,5f011e4abcc6d126f234516c,606a0fd656eb9aa6d45444a1,2021-04-04_21h13.41.123,Colour_Similarity_Experiment,2020.2.10,Win32,60,60675255c767bca6388caeee,17.44891844,16.7472541,16.6825,16.67521006,16.66178179,16.6825,,,,,,,,,,,,,,,,,,,,PF,3,weak,,,,,,,,2,1.58092,,,,,,,,,,,,,,,,,,,,,,,,,,,,6,weak,-90.39994107,-17.6000067,1,0,0,response5disk,5,105,-7.199988663,2.399993598,1,0,0,rectangle,-7.199988663,2.399993598,1,0,0,7,6,0.001595,-7.199988663,2.399993598,1,0,0,0,104,104,59,1,0,,,,,,,,,,,,,,,,,,,,,
,,,,,,,,,,,,,,,,,,,,,,,,,,,,,,,,,,,,,,,,,,5f011e4abcc6d126f234516c,606a0fd656eb9aa6d45444a1,2021-04-04_21h13.41.123,Colour_Similarity_Experiment,2020.2.10,Win32,60,60675255c767bca6388caeee,17.44891844,16.7472541,16.6825,16.67521006,16.66178179,16.6825,,,,,,,,,,,,,,,,,,,,PF,3,weak,,,,,,,,4,1.365185,,,,,,,,,,,,,,,,,,,,,,,,,,,,5,weak,33.60006077,-88.00000775,1,0,0,response3disk,8,106,-3.999988616,-7.200006545,1,0,0,rectangle,-3.999988616,-7.200006545,1,0,0,7,4,0.00152,-3.999988616,-7.200006545,1,0,0,0,105,105,149,1,0,,,,,,,,,,,,,,,,,,,,,
,,,,,,,,,,,,,,,,,,,,,,,,,,,,,,,,,,,,,,,,,,5f011e4abcc6d126f234516c,606a0fd656eb9aa6d45444a1,2021-04-04_21h13.41.123,Colour_Similarity_Experiment,2020.2.10,Win32,60,60675255c767bca6388caeee,17.44891844,16.7472541,16.6825,16.67521006,16.66178179,16.6825,,,,,,,,,,,,,,,,,,,,PF,3,strong,,,,,,,,1,1.30057,,,,,,,,,,,,,,,,,,,,,,,,,,,,2,strong,-87.99998987,27.19996955,1,0,0,response7disk,2,107,3.200011492,-4.800006509,1,0,0,rectangle,3.200011492,-4.800006509,1,0,0,7,6,0.00117,3.200011492,-4.800006509,1,0,0,0,106,106,142,1,0,,,,,,,,,,,,,,,,,,,,,
,,,,,,,,,,,,,,,,,,,,,,,,,,,,,,,,,,,,,,,,,,5f011e4abcc6d126f234516c,606a0fd656eb9aa6d45444a1,2021-04-04_21h13.41.123,Colour_Similarity_Experiment,2020.2.10,Win32,60,60675255c767bca6388caeee,17.44891844,16.7472541,16.6825,16.67521006,16.66178179,16.6825,,,,,,,,,,,,,,,,,,,,PF,3,weak,,,,,,,,4,1.330705,,,,,,,,,,,,,,,,,,,,,,,,,,,,3,weak,59.20001233,-70.40000749,1,0,0,response3disk,2,108,17.60006053,-3.200006485,1,0,0,rectangle,64.80001241,38.39999413,1,0,0,6,6,1.50027,6.400011539,8.799993694,1,0,0,0,107,107,36,1,1,response1disk_3,rectangle,,,,,,,,,,,,,,,,,,,
,,,,,,,,,,,,,,,,,,,,,,,,,,,,,,,,,,,,,,,,,,5f011e4abcc6d126f234516c,606a0fd656eb9aa6d45444a1,2021-04-04_21h13.41.123,Colour_Similarity_Experiment,2020.2.10,Win32,60,60675255c767bca6388caeee,17.44891844,16.7472541,16.6825,16.67521006,16.66178179,16.6825,,,,,,,,,,,,,,,,,,,,PF,3,strong,,,,,,,,6,1.247125,,,,,,,,,,,,,,,,,,,,,,,,,,,,3,strong,88.00001276,43.19996979,1,0,0,response1disk,7,109,-7.199988663,-2.400006473,1,0,0,rectangle,-7.199988663,-2.400006473,1,0,0,6,0,0.00123,-7.199988663,-2.400006473,1,0,0,0,108,108,118,1,0,,,,,,,,,,,,,,,,,,,,,
,,,,,,,,,,,,,,,,,,,,,,,,,,,,,,,,,,,,,,,,,,5f011e4abcc6d126f234516c,606a0fd656eb9aa6d45444a1,2021-04-04_21h13.41.123,Colour_Similarity_Experiment,2020.2.10,Win32,60,60675255c767bca6388caeee,17.44891844,16.7472541,16.6825,16.67521006,16.66178179,16.6825,,,,,,,,,,,,,,,,,,,,PF,3,weak,,,,,,,,1,1.41461,,,,,,,,,,,,,,,,,,,,,,,,,,,,3,weak,-87.99998987,59.99999446,1,0,0,response7disk,3,110,-0.799988568,3.19999361,1,0,0,rectangle,-0.799988568,3.19999361,1,0,0,6,3,0.00124,-0.799988568,3.19999361,1,0,0,0,109,109,4,1,0,,,,,,,,,,,,,,,,,,,,,
,,,,,,,,,,,,,,,,,,,,,,,,,,,,,,,,,,,,,,,,,,5f011e4abcc6d126f234516c,606a0fd656eb9aa6d45444a1,2021-04-04_21h13.41.123,Colour_Similarity_Experiment,2020.2.10,Win32,60,60675255c767bca6388caeee,17.44891844,16.7472541,16.6825,16.67521006,16.66178179,16.6825,,,,,,,,,,,,,,,,,,,,PF,3,weak,,,,,,,,4,3.565865,,,,,,,,,,,,,,,,,,,,,,,,,,,,2,weak,52.80001223,-104.800008,1,0,0,response3disk,9,111,-11.19998872,1.599993587,1,0,0,rectangle,-11.19998872,1.599993587,1,0,0,6,3,0.00018,-11.19998872,1.599993587,1,0,0,0,110,110,39,1,0,,,,,,,,,,,,,,,,,,,,,
,,,,,,,,,,,,,,,,,,,,,,,,,,,,,,,,,,,,,,,,,,5f011e4abcc6d126f234516c,606a0fd656eb9aa6d45444a1,2021-04-04_21h13.41.123,Colour_Similarity_Experiment,2020.2.10,Win32,60,60675255c767bca6388caeee,17.44891844,16.7472541,16.6825,16.67521006,16.66178179,16.6825,,,,,,,,,,,,,,,,,,,,PF,3,weak,,,,,,,,5,1.814245,,,,,,,,,,,,,,,,,,,,,,,,,,,,5,weak,68.00001246,-45.60000712,1,0,0,response3disk,2,112,-16.79998881,6.399993658,1,0,0,rectangle,-16.79998881,6.399993658,1,0,0,6,4,0.00126,-16.79998881,6.399993658,1,0,0,0,111,111,129,1,0,,,,,,,,,,,,,,,,,,,,,
,,,,,,,,,,,,,,,,,,,,,,,,,,,,,,,,,,,,,,,,,,5f011e4abcc6d126f234516c,606a0fd656eb9aa6d45444a1,2021-04-04_21h13.41.123,Colour_Similarity_Experiment,2020.2.10,Win32,60,60675255c767bca6388caeee,17.44891844,16.7472541,16.6825,16.67521006,16.66178179,16.6825,,,,,,,,,,,,,,,,,,,,PF,3,strong,,,,,,,,3,1.93137,,,,,,,,,,,,,,,,,,,,,,,,,,,,2,strong,-41.59998918,-83.20000768,1,0,0,response5disk,3,113,27.20001185,-10.40000659,1,0,0,rectangle,-45.59998924,-91.2000078,1,0,0,3,3,1.915965,-3.199988604,-6.4373E-06,1,0,0,0,112,112,104,1,1,response5disk_3,rectangle,,,,,,,,,,,,,,,,,,,
,,,,,,,,,,,,,,,,,,,,,,,,,,,,,,,,,,,,,,,,,,5f011e4abcc6d126f234516c,606a0fd656eb9aa6d45444a1,2021-04-04_21h13.41.123,Colour_Similarity_Experiment,2020.2.10,Win32,60,60675255c767bca6388caeee,17.44891844,16.7472541,16.6825,16.67521006,16.66178179,16.6825,,,,,,,,,,,,,,,,,,,,PF,3,strong,,,,,,,,6,1.61359,,,,,,,,,,,,,,,,,,,,,,,,,,,,1,strong,105.600013,19.19999385,1,0,0,response1disk,7,114,-5.599988639,-9.60000658,1,0,0,rectangle,-5.599988639,-9.60000658,1,0,0,3,3,0.00019,-5.599988639,-9.60000658,1,0,0,0,113,113,137,1,0,,,,,,,,,,,,,,,,,,,,,
,,,,,,,,,,,,,,,,,,,,,,,,,,,,,,,,,,,,,,,,,,5f011e4abcc6d126f234516c,606a0fd656eb9aa6d45444a1,2021-04-04_21h13.41.123,Colour_Similarity_Experiment,2020.2.10,Win32,60,60675255c767bca6388caeee,17.44891844,16.7472541,16.6825,16.67521006,16.66178179,16.6825,,,,,,,,,,,,,,,,,,,,PF,3,weak,,,,,,,,4,1.63351,,,,,,,,,,,,,,,,,,,,,,,,,,,,1,weak,44.0000121,-96.00000787,1,0,0,response3disk,5,115,-9.599988699,5.599993646,1,0,0,rectangle,-9.599988699,5.599993646,1,0,0,3,7,0.00121,-9.599988699,5.599993646,1,0,0,0,114,114,28,1,0,,,,,,,,,,,,,,,,,,,,,
,,,,,,,,,,,,,,,,,,,,,,,,,,,,,,,,,,,,,,,,,,5f011e4abcc6d126f234516c,606a0fd656eb9aa6d45444a1,2021-04-04_21h13.41.123,Colour_Similarity_Experiment,2020.2.10,Win32,60,60675255c767bca6388caeee,17.44891844,16.7472541,16.6825,16.67521006,16.66178179,16.6825,,,,,,,,,,,,,,,,,,,,PF,3,strong,,,,,,,,5,1.549895,,,,,,,,,,,,,,,,,,,,,,,,,,,,6,strong,81.60001266,-49.60000718,1,0,0,response3disk,3,116,1.600060296,3.999993622,1,0,0,rectangle,1.600060296,3.999993622,1,0,0,3,5,0.00155,1.600060296,3.999993622,1,0,0,0,115,115,21,1,0,,,,,,,,,,,,,,,,,,,,,
,,,,,,,,,,,,,,,,,,,,,,,,,,,,,,,,,,,,,,,,,,5f011e4abcc6d126f234516c,606a0fd656eb9aa6d45444a1,2021-04-04_21h13.41.123,Colour_Similarity_Experiment,2020.2.10,Win32,60,60675255c767bca6388caeee,17.44891844,16.7472541,16.6825,16.67521006,16.66178179,16.6825,,,,,,,,,,,,,,,,,,,,PF,3,strong,,,,,,,,4,1.91622,,,,,,,,,,,,,,,,,,,,,,,,,,,,9,strong,45.60006095,-95.20000786,1,0,0,response3disk,5,117,2.40001148,9.599993706,1,0,0,rectangle,2.40001148,9.599993706,1,0,0,3,1,0.002315,2.40001148,9.599993706,1,0,0,0,116,116,128,1,0,,,,,,,,,,,,,,,,,,,,,
,,,,,,,,,,,,,,,,,,,,,,,,,,,,,,,,,,,,,,,,,,5f011e4abcc6d126f234516c,606a0fd656eb9aa6d45444a1,2021-04-04_21h13.41.123,Colour_Similarity_Experiment,2020.2.10,Win32,60,60675255c767bca6388caeee,17.44891844,16.7472541,16.6825,16.67521006,16.66178179,16.6825,,,,,,,,,,,,,,,,,,,,PF,3,strong,,,,,,,,3,1.480845,,,,,,,,,,,,,,,,,,,,,,,,,,,,6,strong,-42.39994036,-83.20000768,1,0,0,response5disk,8,118,0.800011456,-6.4373E-06,1,0,0,rectangle,0.800011456,-6.4373E-06,1,0,0,3,7,0.001245,0.800011456,-6.4373E-06,1,0,0,0,117,117,133,1,0,,,,,,,,,,,,,,,,,,,,,
,,,,,,,,,,,,,,,,,,,,,,,,,,,,,,,,,,,,,,,,,,5f011e4abcc6d126f234516c,606a0fd656eb9aa6d45444a1,2021-04-04_21h13.41.123,Colour_Similarity_Experiment,2020.2.10,Win32,60,60675255c767bca6388caeee,17.44891844,16.7472541,16.6825,16.67521006,16.66178179,16.6825,,,,,,,,,,,,,,,,,,,,PF,3,strong,,,,,,,,4,2.51504,,,,,,,,,,,,,,,,,,,,,,,,,,,,9,strong,57.6000123,-106.400008,1,0,0,response3disk,3,119,-0.799988568,3.999993622,1,0,0,rectangle,-0.799988568,3.999993622,1,0,0,3,2,0.00236,-0.799988568,3.999993622,1,0,0,0,118,118,141,1,0,,,,,,,,,,,,,,,,,,,,,
,,,,,,,,,,,,,,,,,,,,,,,,,,,,,,,,,,,,,,,,,,5f011e4abcc6d126f234516c,606a0fd656eb9aa6d45444a1,2021-04-04_21h13.41.123,Colour_Similarity_Experiment,2020.2.10,Win32,60,60675255c767bca6388caeee,17.44891844,16.7472541,16.6825,16.67521006,16.66178179,16.6825,,,,,,,,,,,,,,,,,,,,PF,3,weak,,,,,,,,4,1.033135,,,,,,,,,,,,,,,,,,,,,,,,,,,,3,weak,52.80001223,-116.0000082,1,0,0,response3disk,9,120,1.600060296,-3.200006485,1,0,0,rectangle,1.600060296,-3.200006485,1,0,0,3,0,0.001215,1.600060296,-3.200006485,1,0,0,0,119,119,79,1,0,,,,,,,,,,,,,,,,,,,,,
,,,,,,,,,,,,,,,,,,,,,,,,,,,,,,,,,,,,,,,,,,5f011e4abcc6d126f234516c,606a0fd656eb9aa6d45444a1,2021-04-04_21h13.41.123,Colour_Similarity_Experiment,2020.2.10,Win32,60,60675255c767bca6388caeee,17.44891844,16.7472541,16.6825,16.67521006,16.66178179,16.6825,,,,,,,,,,,,,,,,,,,,PF,3,weak,,,,,,,,4,1.34991,,,,,,,,,,,,,,,,,,,,,,,,,,,,9,weak,45.60006095,-112.0000081,1,0,0,response3disk,6,121,3.200011492,14.39999378,1,0,0,rectangle,3.200011492,14.39999378,1,0,0,3,3,0.00159,3.200011492,14.39999378,1,0,0,0,120,120,148,1,0,,,,,,,,,,,,,,,,,,,,,
,,,,,,,,,,,,,,,,,,,,,,,,,,,,,,,,,,,,,,,,,,5f011e4abcc6d126f234516c,606a0fd656eb9aa6d45444a1,2021-04-04_21h13.41.123,Colour_Similarity_Experiment,2020.2.10,Win32,60,60675255c767bca6388caeee,17.44891844,16.7472541,16.6825,16.67521006,16.66178179,16.6825,,,,,,,,,,,,,,,,,,,,PF,3,strong,,,,,,,,6,1.16715,,,,,,,,,,,,,,,,,,,,,,,,,,,,7,strong,118.4000132,26.39999396,1,0,0,response1disk,2,122,1.14441E-05,-0.800006449,1,0,0,rectangle,1.14441E-05,-0.800006449,1,0,0,3,4,0.001105,1.14441E-05,-0.800006449,1,0,0,0,121,121,138,1,0,,,,,,,,,,,,,,,,,,,,,
,,,,,,,,,,,,,,,,,,,,,,,,,,,,,,,,,,,,,,,,,,5f011e4abcc6d126f234516c,606a0fd656eb9aa6d45444a1,2021-04-04_21h13.41.123,Colour_Similarity_Experiment,2020.2.10,Win32,60,60675255c767bca6388caeee,17.44891844,16.7472541,16.6825,16.67521006,16.66178179,16.6825,,,,,,,,,,,,,,,,,,,,PF,3,weak,,,,,,,,5,1.149745,,,,,,,,,,,,,,,,,,,,,,,,,,,,4,weak,84.0000127,-37.600007,1,0,0,response3disk,6,123,-15.19998878,-4.000006497,1,0,0,rectangle,-15.19998878,-4.000006497,1,0,0,3,0,0.00241,-15.19998878,-4.000006497,1,0,0,0,122,122,120,1,0,,,,,,,,,,,,,,,,,,,,,
,,,,,,,,,,,,,,,,,,,,,,,,,,,,,,,,,,,,,,,,,,5f011e4abcc6d126f234516c,606a0fd656eb9aa6d45444a1,2021-04-04_21h13.41.123,Colour_Similarity_Experiment,2020.2.10,Win32,60,60675255c767bca6388caeee,17.44891844,16.7472541,16.6825,16.67521006,16.66178179,16.6825,,,,,,,,,,,,,,,,,,,,PF,3,strong,,,,,,,,1,4.232775,,,,,,,,,,,,,,,,,,,,,,,,,,,,7,strong,-84.79998982,17.59999382,1,0,0,response7disk,6,124,-3.199988604,-2.400006473,1,0,0,rectangle,-3.199988604,-2.400006473,1,0,0,3,1,0.00176,-3.199988604,-2.400006473,1,0,0,0,123,123,31,1,0,,,,,,,,,,,,,,,,,,,,,
,,,,,,,,,,,,,,,,,,,,,,,,,,,,,,,,,,,,,,,,,,5f011e4abcc6d126f234516c,606a0fd656eb9aa6d45444a1,2021-04-04_21h13.41.123,Colour_Similarity_Experiment,2020.2.10,Win32,60,60675255c767bca6388caeee,17.44891844,16.7472541,16.6825,16.67521006,16.66178179,16.6825,,,,,,,,,,,,,,,,,,,,PF,3,weak,,,,,,,,1,0.899905,,,,,,,,,,,,,,,,,,,,,,,,,,,,4,weak,-75.99998969,33.59999406,1,0,0,response7disk,3,125,12.00001162,-3.200006485,1,0,0,rectangle,12.00001162,-3.200006485,1,0,0,3,7,0.001505,12.00001162,-3.200006485,1,0,0,0,124,124,89,1,0,,,,,,,,,,,,,,,,,,,,,
,,,,,,,,,,,,,,,,,,,,,,,,,,,,,,,,,,,,,,,,,,5f011e4abcc6d126f234516c,606a0fd656eb9aa6d45444a1,2021-04-04_21h13.41.123,Colour_Similarity_Experiment,2020.2.10,Win32,60,60675255c767bca6388caeee,17.44891844,16.7472541,16.6825,16.67521006,16.66178179,16.6825,,,,,,,,,,,,,,,,,,,,PF,3,strong,,,,,,,,6,2.66398,,,,,,,,,,,,,,,,,,,,,,,,,,,,1,strong,111.2000131,18.39999384,1,0,0,response1disk,5,126,-11.19998872,-15.20000666,1,0,0,rectangle,-11.19998872,-15.20000666,1,0,0,3,0,0.00118,-11.19998872,-15.20000666,1,0,0,0,125,125,82,1,0,,,,,,,,,,,,,,,,,,,,,
,,,,,,,,,,,,,,,,,,,,,,,,,,,,,,,,,,,,,,,,,,5f011e4abcc6d126f234516c,606a0fd656eb9aa6d45444a1,2021-04-04_21h13.41.123,Colour_Similarity_Experiment,2020.2.10,Win32,60,60675255c767bca6388caeee,17.44891844,16.7472541,16.6825,16.67521006,16.66178179,16.6825,,,,,,,,,,,,,,,,,,,,PF,3,strong,,,,,,,,6,1.166135,,,,,,,,,,,,,,,,,,,,,,,,,,,,3,strong,100.8000129,21.59999388,1,0,0,response1disk,9,127,3.200011492,-15.20000666,1,0,0,rectangle,3.200011492,-15.20000666,1,0,0,3,3,0.00157,3.200011492,-15.20000666,1,0,0,0,126,126,143,1,0,,,,,,,,,,,,,,,,,,,,,
,,,,,,,,,,,,,,,,,,,,,,,,,,,,,,,,,,,,,,,,,,5f011e4abcc6d126f234516c,606a0fd656eb9aa6d45444a1,2021-04-04_21h13.41.123,Colour_Similarity_Experiment,2020.2.10,Win32,60,60675255c767bca6388caeee,17.44891844,16.7472541,16.6825,16.67521006,16.66178179,16.6825,,,,,,,,,,,,,,,,,,,,PF,3,weak,,,,,,,,1,1.162655,,,,,,,,,,,,,,,,,,,,,,,,,,,,4,weak,-81.59998977,40.79999417,1,0,0,response7disk,4,128,3.200011492,-12.80000663,1,0,0,rectangle,3.200011492,-12.80000663,1,0,0,3,1,0.00158,3.200011492,-12.80000663,1,0,0,0,127,127,70,1,0,,,,,,,,,,,,,,,,,,,,,
,,,,,,,,,,,,,,,,,,,,,,,,,,,,,,,,,,,,,,,,,,5f011e4abcc6d126f234516c,606a0fd656eb9aa6d45444a1,2021-04-04_21h13.41.123,Colour_Similarity_Experiment,2020.2.10,Win32,60,60675255c767bca6388caeee,17.44891844,16.7472541,16.6825,16.67521006,16.66178179,16.6825,,,,,,,,,,,,,,,,,,,,PF,3,strong,,,,,,,,3,2.39839,,,,,,,,,,,,,,,,,,,,,,,,,,,,7,strong,-51.99998933,-84.00000769,1,0,0,response5disk,5,129,-9.599988699,-5.600006521,1,0,0,rectangle,-9.599988699,-5.600006521,1,0,0,3,0,0.00121,-9.599988699,-5.600006521,1,0,0,0,128,128,156,1,0,,,,,,,,,,,,,,,,,,,,,
,,,,,,,,,,,,,,,,,,,,,,,,,,,,,,,,,,,,,,,,,,5f011e4abcc6d126f234516c,606a0fd656eb9aa6d45444a1,2021-04-04_21h13.41.123,Colour_Similarity_Experiment,2020.2.10,Win32,60,60675255c767bca6388caeee,17.44891844,16.7472541,16.6825,16.67521006,16.66178179,16.6825,,,,,,,,,,,,,,,,,,,,PF,3,weak,,,,,,,,6,1.283785,,,,,,,,,,,,,,,,,,,,,,,,,,,,5,weak,79.20001262,27.19996955,1,0,0,response1disk,1,130,8.000011563,-11.2000066,1,0,0,rectangle,-36.7999891,-104.800008,1,0,0,3,3,2.416265,-5.599988639,-1.600006461,1,0,0,0,129,129,159,1,1,response5disk_3,rectangle,,,,,,,,,,,,,,,,,,,
,,,,,,,,,,,,,,,,,,,,,,,,,,,,,,,,,,,,,,,,,,5f011e4abcc6d126f234516c,606a0fd656eb9aa6d45444a1,2021-04-04_21h13.41.123,Colour_Similarity_Experiment,2020.2.10,Win32,60,60675255c767bca6388caeee,17.44891844,16.7472541,16.6825,16.67521006,16.66178179,16.6825,,,,,,,,,,,,,,,,,,,,PF,3,strong,,,,,,,,4,1.394035,,,,,,,,,,,,,,,,,,,,,,,,,,,,5,strong,46.40001214,-86.40000772,1,0,0,response3disk,8,131,-3.199988604,-3.200006485,1,0,0,rectangle,-3.199988604,-3.200006485,1,0,0,3,7,0.00122,-3.199988604,-3.200006485,1,0,0,0,130,130,16,1,0,,,,,,,,,,,,,,,,,,,,,
,,,,,,,,,,,,,,,,,,,,,,,,,,,,,,,,,,,,,,,,,,5f011e4abcc6d126f234516c,606a0fd656eb9aa6d45444a1,2021-04-04_21h13.41.123,Colour_Similarity_Experiment,2020.2.10,Win32,60,60675255c767bca6388caeee,17.44891844,16.7472541,16.6825,16.67521006,16.66178179,16.6825,,,,,,,,,,,,,,,,,,,,PF,3,strong,,,,,,,,3,1.244605,,,,,,,,,,,,,,,,,,,,,,,,,,,,6,strong,-31.99998903,-104.800008,1,0,0,response5disk,5,132,13.60006047,-12.80000663,1,0,0,rectangle,13.60006047,-12.80000663,1,0,0,3,6,0.00155,13.60006047,-12.80000663,1,0,0,0,131,131,126,1,0,,,,,,,,,,,,,,,,,,,,,
,,,,,,,,,,,,,,,,,,,,,,,,,,,,,,,,,,,,,,,,,,5f011e4abcc6d126f234516c,606a0fd656eb9aa6d45444a1,2021-04-04_21h13.41.123,Colour_Similarity_Experiment,2020.2.10,Win32,60,60675255c767bca6388caeee,17.44891844,16.7472541,16.6825,16.67521006,16.66178179,16.6825,,,,,,,,,,,,,,,,,,,,PF,3,weak,,,,,,,,1,1.58049,,,,,,,,,,,,,,,,,,,,,,,,,,,,5,weak,-87.19998986,25.59999394,1,0,0,response7disk,4,133,2.40001148,-8.000006557,1,0,0,rectangle,2.40001148,-8.000006557,1,0,0,3,6,0.00018,2.40001148,-8.000006557,1,0,0,0,132,132,54,1,0,,,,,,,,,,,,,,,,,,,,,
,,,,,,,,,,,,,,,,,,,,,,,,,,,,,,,,,,,,,,,,,,5f011e4abcc6d126f234516c,606a0fd656eb9aa6d45444a1,2021-04-04_21h13.41.123,Colour_Similarity_Experiment,2020.2.10,Win32,60,60675255c767bca6388caeee,17.44891844,16.7472541,16.6825,16.67521006,16.66178179,16.6825,,,,,,,,,,,,,,,,,,,,PF,3,weak,,,,,,,,4,2.316015,,,,,,,,,,,,,,,,,,,,,,,,,,,,3,weak,68.00001246,-85.60005654,1,0,0,response3disk,6,134,9.600060415,-3.200006485,1,0,0,rectangle,9.600060415,-3.200006485,1,0,0,3,5,0.001665,9.600060415,-3.200006485,1,0,0,0,133,133,47,1,0,,,,,,,,,,,,,,,,,,,,,
,,,,,,,,,,,,,,,,,,,,,,,,,,,,,,,,,,,,,,,,,,5f011e4abcc6d126f234516c,606a0fd656eb9aa6d45444a1,2021-04-04_21h13.41.123,Colour_Similarity_Experiment,2020.2.10,Win32,60,60675255c767bca6388caeee,17.44891844,16.7472541,16.6825,16.67521006,16.66178179,16.6825,,,,,,,,,,,,,,,,,,,,PF,3,strong,,,,,,,,6,1.76466,,,,,,,,,,,,,,,,,,,,,,,,,,,,9,strong,100.8000129,39.19996973,1,0,0,response1disk,6,135,-6.399939823,-5.600006521,1,0,0,rectangle,-6.399939823,-5.600006521,1,0,0,3,7,0.00116,-6.399939823,-5.600006521,1,0,0,0,134,134,117,1,0,,,,,,,,,,,,,,,,,,,,,
,,,,,,,,,,,,,,,,,,,,,,,,,,,,,,,,,,,,,,,,,,5f011e4abcc6d126f234516c,606a0fd656eb9aa6d45444a1,2021-04-04_21h13.41.123,Colour_Similarity_Experiment,2020.2.10,Win32,60,60675255c767bca6388caeee,17.44891844,16.7472541,16.6825,16.67521006,16.66178179,16.6825,,,,,,,,,,,,,,,,,,,,PF,3,weak,,,,,,,,6,2.000605,,,,,,,,,,,,,,,,,,,,,,,,,,,,9,weak,92.80001283,32.79999405,1,0,0,response1disk,7,136,-9.599988699,-8.000006557,1,0,0,rectangle,-9.599988699,-8.000006557,1,0,0,3,4,0.001615,-9.599988699,-8.000006557,1,0,0,0,135,135,121,1,0,,,,,,,,,,,,,,,,,,,,,
,,,,,,,,,,,,,,,,,,,,,,,,,,,,,,,,,,,,,,,,,,5f011e4abcc6d126f234516c,606a0fd656eb9aa6d45444a1,2021-04-04_21h13.41.123,Colour_Similarity_Experiment,2020.2.10,Win32,60,60675255c767bca6388caeee,17.44891844,16.7472541,16.6825,16.67521006,16.66178179,16.6825,,,,,,,,,,,,,,,,,,,,PF,3,weak,,,,,,,,6,1.330865,,,,,,,,,,,,,,,,,,,,,,,,,,,,6,weak,116.8000132,39.19996973,1,0,0,response1disk,1,137,-18.39994,-5.600006521,1,0,0,rectangle,-18.39994,-5.600006521,1,0,0,3,4,0.00016,-18.39994,-5.600006521,1,0,0,0,136,136,46,1,0,,,,,,,,,,,,,,,,,,,,,
,,,,,,,,,,,,,,,,,,,,,,,,,,,,,,,,,,,,,,,,,,5f011e4abcc6d126f234516c,606a0fd656eb9aa6d45444a1,2021-04-04_21h13.41.123,Colour_Similarity_Experiment,2020.2.10,Win32,60,60675255c767bca6388caeee,17.44891844,16.7472541,16.6825,16.67521006,16.66178179,16.6825,,,,,,,,,,,,,,,,,,,,PF,3,weak,,,,,,,,5,1.71399,,,,,,,,,,,,,,,,,,,,,,,,,,,,6,weak,80.80001265,-41.60000706,1,0,0,response3disk,8,138,-11.19998872,7.19999367,1,0,0,rectangle,-11.19998872,7.19999367,1,0,0,3,7,0.00115,-11.19998872,7.19999367,1,0,0,0,137,137,64,1,0,,,,,,,,,,,,,,,,,,,,,
,,,,,,,,,,,,,,,,,,,,,,,,,,,,,,,,,,,,,,,,,,5f011e4abcc6d126f234516c,606a0fd656eb9aa6d45444a1,2021-04-04_21h13.41.123,Colour_Similarity_Experiment,2020.2.10,Win32,60,60675255c767bca6388caeee,17.44891844,16.7472541,16.6825,16.67521006,16.66178179,16.6825,,,,,,,,,,,,,,,,,,,,PF,3,strong,,,,,,,,1,1.1459,,,,,,,,,,,,,,,,,,,,,,,,,,,,5,strong,-80.79998976,34.39999408,1,0,0,response7disk,4,139,-6.399939823,-6.4373E-06,1,0,0,rectangle,-6.399939823,-6.4373E-06,1,0,0,3,1,0.001535,-6.399939823,-6.4373E-06,1,0,0,0,138,138,8,1,0,,,,,,,,,,,,,,,,,,,,,
,,,,,,,,,,,,,,,,,,,,,,,,,,,,,,,,,,,,,,,,,,5f011e4abcc6d126f234516c,606a0fd656eb9aa6d45444a1,2021-04-04_21h13.41.123,Colour_Similarity_Experiment,2020.2.10,Win32,60,60675255c767bca6388caeee,17.44891844,16.7472541,16.6825,16.67521006,16.66178179,16.6825,,,,,,,,,,,,,,,,,,,,PF,3,weak,,,,,,,,6,1.58336,,,,,,,,,,,,,,,,,,,,,,,,,,,,1,weak,102.400013,59.99999446,1,0,0,response1disk,3,140,1.14441E-05,-7.200006545,1,0,0,rectangle,1.14441E-05,-7.200006545,1,0,0,3,3,0.00157,1.14441E-05,-7.200006545,1,0,0,0,139,139,1,1,0,,,,,,,,,,,,,,,,,,,,,
,,,,,,,,,,,,,,,,,,,,,,,,,,,,,,,,,,,,,,,,,,5f011e4abcc6d126f234516c,606a0fd656eb9aa6d45444a1,2021-04-04_21h13.41.123,Colour_Similarity_Experiment,2020.2.10,Win32,60,60675255c767bca6388caeee,17.44891844,16.7472541,16.6825,16.67521006,16.66178179,16.6825,,,,,,,,,,,,,,,,,,,,PF,3,weak,,,,,,,,5,1.04962,,,,,,,,,,,,,,,,,,,,,,,,,,,,2,weak,77.6000126,-28.00000685,1,0,0,response3disk,7,141,8.000011563,2.399993598,1,0,0,rectangle,8.000011563,2.399993598,1,0,0,3,6,0.001555,8.000011563,2.399993598,1,0,0,0,140,140,107,1,0,,,,,,,,,,,,,,,,,,,,,
,,,,,,,,,,,,,,,,,,,,,,,,,,,,,,,,,,,,,,,,,,5f011e4abcc6d126f234516c,606a0fd656eb9aa6d45444a1,2021-04-04_21h13.41.123,Colour_Similarity_Experiment,2020.2.10,Win32,60,60675255c767bca6388caeee,17.44891844,16.7472541,16.6825,16.67521006,16.66178179,16.6825,,,,,,,,,,,,,,,,,,,,PF,3,weak,,,,,,,,2,1.21283,,,,,,,,,,,,,,,,,,,,,,,,,,,,6,weak,-84.79998982,-39.20000702,1,0,0,response5disk,6,142,7.200011551,4.799993634,1,0,0,rectangle,7.200011551,4.799993634,1,0,0,3,6,0.000165,7.200011551,4.799993634,1,0,0,0,141,141,0,1,0,,,,,,,,,,,,,,,,,,,,,
,,,,,,,,,,,,,,,,,,,,,,,,,,,,,,,,,,,,,,,,,,5f011e4abcc6d126f234516c,606a0fd656eb9aa6d45444a1,2021-04-04_21h13.41.123,Colour_Similarity_Experiment,2020.2.10,Win32,60,60675255c767bca6388caeee,17.44891844,16.7472541,16.6825,16.67521006,16.66178179,16.6825,,,,,,,,,,,,,,,,,,,,PF,3,strong,,,,,,,,4,1.31628,,,,,,,,,,,,,,,,,,,,,,,,,,,,4,strong,46.40001214,-88.00000775,1,0,0,response3disk,2,143,-3.999988616,4.799993634,1,0,0,rectangle,-3.999988616,4.799993634,1,0,0,3,3,0.0032,-3.999988616,4.799993634,1,0,0,0,142,142,13,1,0,,,,,,,,,,,,,,,,,,,,,
,,,,,,,,,,,,,,,,,,,,,,,,,,,,,,,,,,,,,,,,,,5f011e4abcc6d126f234516c,606a0fd656eb9aa6d45444a1,2021-04-04_21h13.41.123,Colour_Similarity_Experiment,2020.2.10,Win32,60,60675255c767bca6388caeee,17.44891844,16.7472541,16.6825,16.67521006,16.66178179,16.6825,,,,,,,,,,,,,,,,,,,,PF,3,strong,,,,,,,,3,0.966765,,,,,,,,,,,,,,,,,,,,,,,,,,,,7,strong,-43.1999892,-76.00000757,1,0,0,response5disk,3,144,9.600060415,-4.800006509,1,0,0,rectangle,9.600060415,-4.800006509,1,0,0,3,3,0.000155,9.600060415,-4.800006509,1,0,0,0,143,143,73,1,0,,,,,,,,,,,,,,,,,,,,,
,,,,,,,,,,,,,,,,,,,,,,,,,,,,,,,,,,,,,,,,,,5f011e4abcc6d126f234516c,606a0fd656eb9aa6d45444a1,2021-04-04_21h13.41.123,Colour_Similarity_Experiment,2020.2.10,Win32,60,60675255c767bca6388caeee,17.44891844,16.7472541,16.6825,16.67521006,16.66178179,16.6825,,,,,,,,,,,,,,,,,,,,PF,3,strong,,,,,,,,5,0.881515,,,,,,,,,,,,,,,,,,,,,,,,,,,,8,strong,80.80001265,-48.80000716,1,0,0,response3disk,1,145,-3.199988604,2.399993598,1,0,0,rectangle,-3.199988604,2.399993598,1,0,0,3,1,0.001525,-3.199988604,2.399993598,1,0,0,0,144,144,20,1,0,,,,,,,,,,,,,,,,,,,,,
,,,,,,,,,,,,,,,,,,,,,,,,,,,,,,,,,,,,,,,,,,5f011e4abcc6d126f234516c,606a0fd656eb9aa6d45444a1,2021-04-04_21h13.41.123,Colour_Similarity_Experiment,2020.2.10,Win32,60,60675255c767bca6388caeee,17.44891844,16.7472541,16.6825,16.67521006,16.66178179,16.6825,,,,,,,,,,,,,,,,,,,,PF,3,strong,,,,,,,,5,0.978,,,,,,,,,,,,,,,,,,,,,,,,,,,,2,strong,93.60001284,-47.20000714,1,0,0,response3disk,9,146,-5.599988639,7.19999367,1,0,0,rectangle,-5.599988639,7.19999367,1,0,0,3,7,0.001265,-5.599988639,7.19999367,1,0,0,0,145,145,72,1,0,,,,,,,,,,,,,,,,,,,,,
,,,,,,,,,,,,,,,,,,,,,,,,,,,,,,,,,,,,,,,,,,5f011e4abcc6d126f234516c,606a0fd656eb9aa6d45444a1,2021-04-04_21h13.41.123,Colour_Similarity_Experiment,2020.2.10,Win32,60,60675255c767bca6388caeee,17.44891844,16.7472541,16.6825,16.67521006,16.66178179,16.6825,,,,,,,,,,,,,,,,,,,,PF,3,weak,,,,,,,,1,1.183,,,,,,,,,,,,,,,,,,,,,,,,,,,,3,weak,-69.59998959,28.79999399,1,0,0,response7disk,4,147,16.00001168,-8.800006568,1,0,0,rectangle,16.00001168,-8.800006568,1,0,0,3,7,0.00015,16.00001168,-8.800006568,1,0,0,0,146,146,30,1,0,,,,,,,,,,,,,,,,,,,,,
,,,,,,,,,,,,,,,,,,,,,,,,,,,,,,,,,,,,,,,,,,5f011e4abcc6d126f234516c,606a0fd656eb9aa6d45444a1,2021-04-04_21h13.41.123,Colour_Similarity_Experiment,2020.2.10,Win32,60,60675255c767bca6388caeee,17.44891844,16.7472541,16.6825,16.67521006,16.66178179,16.6825,,,,,,,,,,,,,,,,,,,,PF,3,weak,,,,,,,,2,1.11659,,,,,,,,,,,,,,,,,,,,,,,,,,,,7,weak,-89.59998989,-47.20000714,1,0,0,response5disk,7,148,9.600060415,4.799993634,1,0,0,rectangle,9.600060415,4.799993634,1,0,0,3,1,0.001685,9.600060415,4.799993634,1,0,0,0,147,147,51,1,0,,,,,,,,,,,,,,,,,,,,,
,,,,,,,,,,,,,,,,,,,,,,,,,,,,,,,,,,,,,,,,,,5f011e4abcc6d126f234516c,606a0fd656eb9aa6d45444a1,2021-04-04_21h13.41.123,Colour_Similarity_Experiment,2020.2.10,Win32,60,60675255c767bca6388caeee,17.44891844,16.7472541,16.6825,16.67521006,16.66178179,16.6825,,,,,,,,,,,,,,,,,,,,PF,3,weak,,,,,,,,1,0.98098,,,,,,,,,,,,,,,,,,,,,,,,,,,,9,weak,-68.79998958,24.79999393,1,0,0,response7disk,9,149,4.800011516,0.799993575,1,0,0,rectangle,4.800011516,0.799993575,1,0,0,3,2,0.00119,4.800011516,0.799993575,1,0,0,0,148,148,106,1,0,,,,,,,,,,,,,,,,,,,,,
,,,,,,,,,,,,,,,,,,,,,,,,,,,,,,,,,,,,,,,,,,5f011e4abcc6d126f234516c,606a0fd656eb9aa6d45444a1,2021-04-04_21h13.41.123,Colour_Similarity_Experiment,2020.2.10,Win32,60,60675255c767bca6388caeee,17.44891844,16.7472541,16.6825,16.67521006,16.66178179,16.6825,,,,,,,,,,,,,,,,,,,,PF,3,weak,,,,,,,,3,1.250575,,,,,,,,,,,,,,,,,,,,,,,,,,,,5,weak,-34.39994024,-93.60005666,1,0,0,response5disk,3,150,-5.599988639,5.599993646,1,0,0,rectangle,-5.599988639,5.599993646,1,0,0,3,3,0.00118,-5.599988639,5.599993646,1,0,0,0,149,149,109,1,0,,,,,,,,,,,,,,,,,,,,,
,,,,,,,,,,,,,,,,,,,,,,,,,,,,,,,,,,,,,,,,,,5f011e4abcc6d126f234516c,606a0fd656eb9aa6d45444a1,2021-04-04_21h13.41.123,Colour_Similarity_Experiment,2020.2.10,Win32,60,60675255c767bca6388caeee,17.44891844,16.7472541,16.6825,16.67521006,16.66178179,16.6825,,,,,,,,,,,,,,,,,,,,PF,3,strong,,,,,,,,5,1.450545,,,,,,,,,,,,,,,,,,,,,,,,,,,,1,strong,93.60001284,-48.00000715,1,0,0,response3disk,3,151,-4.799988627,7.19999367,1,0,0,rectangle,-4.799988627,7.19999367,1,0,0,3,2,0.00103,-4.799988627,7.19999367,1,0,0,0,150,150,99,1,0,,,,,,,,,,,,,,,,,,,,,
,,,,,,,,,,,,,,,,,,,,,,,,,,,,,,,,,,,,,,,,,,5f011e4abcc6d126f234516c,606a0fd656eb9aa6d45444a1,2021-04-04_21h13.41.123,Colour_Similarity_Experiment,2020.2.10,Win32,60,60675255c767bca6388caeee,17.44891844,16.7472541,16.6825,16.67521006,16.66178179,16.6825,,,,,,,,,,,,,,,,,,,,PF,3,strong,,,,,,,,5,1.314225,,,,,,,,,,,,,,,,,,,,,,,,,,,,4,strong,92.80001283,-50.40000719,1,0,0,response3disk,6,152,-8.799988687,12.79999375,1,0,0,rectangle,-8.799988687,12.79999375,1,0,0,3,7,0.001135,-8.799988687,12.79999375,1,0,0,0,151,151,122,1,0,,,,,,,,,,,,,,,,,,,,,
,,,,,,,,,,,,,,,,,,,,,,,,,,,,,,,,,,,,,,,,,,5f011e4abcc6d126f234516c,606a0fd656eb9aa6d45444a1,2021-04-04_21h13.41.123,Colour_Similarity_Experiment,2020.2.10,Win32,60,60675255c767bca6388caeee,17.44891844,16.7472541,16.6825,16.67521006,16.66178179,16.6825,,,,,,,,,,,,,,,,,,,,PF,3,weak,,,,,,,,6,0.964685,,,,,,,,,,,,,,,,,,,,,,,,,,,,1,weak,104.800013,37.59999412,1,0,0,response1disk,2,153,-25.59998894,-7.200006545,1,0,0,rectangle,-25.59998894,-7.200006545,1,0,0,3,2,0.0022,-25.59998894,-7.200006545,1,0,0,0,152,152,24,1,0,,,,,,,,,,,,,,,,,,,,,
,,,,,,,,,,,,,,,,,,,,,,,,,,,,,,,,,,,,,,,,,,5f011e4abcc6d126f234516c,606a0fd656eb9aa6d45444a1,2021-04-04_21h13.41.123,Colour_Similarity_Experiment,2020.2.10,Win32,60,60675255c767bca6388caeee,17.44891844,16.7472541,16.6825,16.67521006,16.66178179,16.6825,,,,,,,,,,,,,,,,,,,,PF,3,strong,,,,,,,,6,1.433175,,,,,,,,,,,,,,,,,,,,,,,,,,,,3,strong,64.80001241,26.39999396,1,0,0,response1disk,1,154,-11.19998872,-8.800006568,1,0,0,rectangle,-11.19998872,-8.800006568,1,0,0,3,7,0.00158,-11.19998872,-8.800006568,1,0,0,0,153,153,125,1,0,,,,,,,,,,,,,,,,,,,,,
,,,,,,,,,,,,,,,,,,,,,,,,,,,,,,,,,,,,,,,,,,5f011e4abcc6d126f234516c,606a0fd656eb9aa6d45444a1,2021-04-04_21h13.41.123,Colour_Similarity_Experiment,2020.2.10,Win32,60,60675255c767bca6388caeee,17.44891844,16.7472541,16.6825,16.67521006,16.66178179,16.6825,,,,,,,,,,,,,,,,,,,,PF,3,weak,,,,,,,,3,1.36388,,,,,,,,,,,,,,,,,,,,,,,,,,,,2,weak,-33.59998906,-79.20000762,1,0,0,response5disk,5,155,-0.799988568,2.399993598,1,0,0,rectangle,-0.799988568,2.399993598,1,0,0,3,4,0.001105,-0.799988568,2.399993598,1,0,0,0,154,154,147,1,0,,,,,,,,,,,,,,,,,,,,,
,,,,,,,,,,,,,,,,,,,,,,,,,,,,,,,,,,,,,,,,,,5f011e4abcc6d126f234516c,606a0fd656eb9aa6d45444a1,2021-04-04_21h13.41.123,Colour_Similarity_Experiment,2020.2.10,Win32,60,60675255c767bca6388caeee,17.44891844,16.7472541,16.6825,16.67521006,16.66178179,16.6825,,,,,,,,,,,,,,,,,,,,PF,3,strong,,,,,,,,0,1.048095,,,,,,,,,,,,,,,,,,,,,,,,,,,,4,strong,-39.19998914,88.79999489,1,0,0,response7disk,4,156,17.60006053,-8.000006557,1,0,0,rectangle,17.60006053,-8.000006557,1,0,0,3,2,0.00115,17.60006053,-8.000006557,1,0,0,0,155,155,84,1,0,,,,,,,,,,,,,,,,,,,,,
,,,,,,,,,,,,,,,,,,,,,,,,,,,,,,,,,,,,,,,,,,5f011e4abcc6d126f234516c,606a0fd656eb9aa6d45444a1,2021-04-04_21h13.41.123,Colour_Similarity_Experiment,2020.2.10,Win32,60,60675255c767bca6388caeee,17.44891844,16.7472541,16.6825,16.67521006,16.66178179,16.6825,,,,,,,,,,,,,,,,,,,,PF,3,weak,,,,,,,,5,1.3146,,,,,,,,,,,,,,,,,,,,,,,,,,,,8,weak,79.20001262,-53.60000724,1,0,0,response3disk,7,157,-8.799988687,8.799993694,1,0,0,rectangle,-8.799988687,8.799993694,1,0,0,3,0,0.001165,-8.799988687,8.799993694,1,0,0,0,156,156,23,1,0,,,,,,,,,,,,,,,,,,,,,
,,,,,,,,,,,,,,,,,,,,,,,,,,,,,,,,,,,,,,,,,,5f011e4abcc6d126f234516c,606a0fd656eb9aa6d45444a1,2021-04-04_21h13.41.123,Colour_Similarity_Experiment,2020.2.10,Win32,60,60675255c767bca6388caeee,17.44891844,16.7472541,16.6825,16.67521006,16.66178179,16.6825,,,,,,,,,,,,,,,,,,,,PF,3,weak,,,,,,,,6,1.42887,,,,,,,,,,,,,,,,,,,,,,,,,,,,9,weak,92.00001281,28.79999399,1,0,0,response1disk,2,158,-4.799988627,-4.000006497,1,0,0,rectangle,-4.799988627,-4.000006497,1,0,0,3,3,0.00238,-4.799988627,-4.000006497,1,0,0,0,157,157,157,1,0,,,,,,,,,,,,,,,,,,,,,
,,,,,,,,,,,,,,,,,,,,,,,,,,,,,,,,,,,,,,,,,,5f011e4abcc6d126f234516c,606a0fd656eb9aa6d45444a1,2021-04-04_21h13.41.123,Colour_Similarity_Experiment,2020.2.10,Win32,60,60675255c767bca6388caeee,17.44891844,16.7472541,16.6825,16.67521006,16.66178179,16.6825,,,,,,,,,,,,,,,,,,,,PF,3,strong,,,,,,,,1,1.28332,,,,,,,,,,,,,,,,,,,,,,,,,,,,5,strong,-95.99998999,50.39999431,1,0,0,response7disk,5,159,9.600060415,-3.200006485,1,0,0,rectangle,9.600060415,-3.200006485,1,0,0,3,4,0.001185,9.600060415,-3.200006485,1,0,0,0,158,158,19,1,0,,,,,,,,,,,,,,,,,,,,,
,,,,,,,,,,,,,,,,,,,,,,,,,,,,,,,,,,,,,,,,,,5f011e4abcc6d126f234516c,606a0fd656eb9aa6d45444a1,2021-04-04_21h13.41.123,Colour_Similarity_Experiment,2020.2.10,Win32,60,60675255c767bca6388caeee,17.44891844,16.7472541,16.6825,16.67521006,16.66178179,16.6825,,,,,,,,,,,,,,,,,,,,PF,3,weak,,,,,,,,6,1.146435,,,,,,,,,,,,,,,,,,,,,,,,,,,,7,weak,121.6000133,36.79999411,1,0,0,response1disk,3,160,-3.999988616,-4.800006509,1,0,0,rectangle,-3.999988616,-4.800006509,1,0,0,3,0,0.001315,-3.999988616,-4.800006509,1,0,0,0,159,159,81,1,0,,,,,,,,,,,,,,,,,,,,,
,,,,,,,,,,,,,,,,,,,,,,,,,,,,,,,,,,,,,,,,,,5f011e4abcc6d126f234516c,606a0fd656eb9aa6d45444a1,2021-04-04_21h13.41.123,Colour_Similarity_Experiment,2020.2.10,Win32,60,60675255c767bca6388caeee,17.44891844,16.7472541,16.6825,16.67521006,16.66178179,16.6825,,,,,,,,,,,,,,,,,,,,PF,3,weak,,,,,,,,2,1.03303,,,,,,,,,,,,,,,,,,,,,,,,,,,,7,weak,-82.39994096,-53.60000724,1,0,0,response5disk,8,161,4.800011516,-5.600006521,1,0,0,rectangle,4.800011516,-5.600006521,1,0,0,3,5,0.00141,4.800011516,-5.600006521,1,0,0,0,160,160,140,1,0,,,,,,,,,,,,,,,,,,,,,
,,,,,,,,,,,,,,,,,,,,,,,,,,,,,,,,,,,,,,,,,,5f011e4abcc6d126f234516c,606a0fd656eb9aa6d45444a1,2021-04-04_21h13.41.123,Colour_Similarity_Experiment,2020.2.10,Win32,60,60675255c767bca6388caeee,17.44891844,16.7472541,16.6825,16.67521006,16.66178179,16.6825,,,,,,,,,,,,,,,,,,,,PF,3,weak,,,,,,,,3,1.097545,,,,,,,,,,,,,,,,,,,,,,,,,,,,4,weak,-53.59998935,-68.80000746,1,0,0,response5disk,5,162,-3.999988616,11.19999373,1,0,0,rectangle,-3.999988616,11.19999373,1,0,0,3,3,0.001165,-3.999988616,11.19999373,1,0,0,0,161,161,49,1,0,,,,,,,,,,,,,,,,,,,,,
,,,,,,,,,,,,,,,,,,,,,,,,,,,,,,,,,,,,,,,,,,5f011e4abcc6d126f234516c,606a0fd656eb9aa6d45444a1,2021-04-04_21h13.41.123,Colour_Similarity_Experiment,2020.2.10,Win32,60,60675255c767bca6388caeee,17.44891844,16.7472541,16.6825,16.67521006,16.66178179,16.6825,,,,,,,,,,,,,,,,,,,,,,,,,,,,,,,,,,,,,,,,,,,,,,,,,,,,,,,,,,,,,,,,,,,,,,,,,,,,,,,,,,,,,,,,,,,,,,,,0,0,0,0,1,,,,,,,,,,,,,,
,,,,,,,,,,,,,,,,,,,,,,,,,,,,,,,,,,,,,,,,,,5f011e4abcc6d126f234516c,606a0fd656eb9aa6d45444a1,2021-04-04_21h13.41.123,Colour_Similarity_Experiment,2020.2.10,Win32,60,60675255c767bca6388caeee,17.44891844,16.7472541,16.6825,16.67521006,16.66178179,16.6825,,,,,,,,,,,,,,,,,,,,PF,3,strong,,,,,,,,6,1.06614,,,,,,,,,,,,,,,,,,,,,,,,,,,,3,strong,81.60001266,47.19996985,1,0,0,response1disk,8,163,-10.39993988,-8.000006557,1,0,0,rectangle,-10.39993988,-8.000006557,1,0,0,3,4,0.00148,-10.39993988,-8.000006557,1,0,0,0,0,0,44,1,0,,,,,,,,,,,,,,,,,,,,,
,,,,,,,,,,,,,,,,,,,,,,,,,,,,,,,,,,,,,,,,,,5f011e4abcc6d126f234516c,606a0fd656eb9aa6d45444a1,2021-04-04_21h13.41.123,Colour_Similarity_Experiment,2020.2.10,Win32,60,60675255c767bca6388caeee,17.44891844,16.7472541,16.6825,16.67521006,16.66178179,16.6825,,,,,,,,,,,,,,,,,,,,PF,3,weak,,,,,,,,4,1.399765,,,,,,,,,,,,,,,,,,,,,,,,,,,,8,weak,26.40001184,-92.80000782,1,0,0,response3disk,9,164,-10.39993988,3.999993622,1,0,0,rectangle,-10.39993988,3.999993622,1,0,0,3,5,0.00147,-10.39993988,3.999993622,1,0,0,0,1,1,42,1,0,,,,,,,,,,,,,,,,,,,,,
,,,,,,,,,,,,,,,,,,,,,,,,,,,,,,,,,,,,,,,,,,5f011e4abcc6d126f234516c,606a0fd656eb9aa6d45444a1,2021-04-04_21h13.41.123,Colour_Similarity_Experiment,2020.2.10,Win32,60,60675255c767bca6388caeee,17.44891844,16.7472541,16.6825,16.67521006,16.66178179,16.6825,,,,,,,,,,,,,,,,,,,,PF,3,weak,,,,,,,,3,1.215935,,,,,,,,,,,,,,,,,,,,,,,,,,,,8,weak,-25.59998894,-85.60005654,1,0,0,response5disk,8,165,-4.799988627,-1.600006461,1,0,0,rectangle,-4.799988627,-1.600006461,1,0,0,3,2,0.00138,-4.799988627,-1.600006461,1,0,0,0,2,2,153,1,0,,,,,,,,,,,,,,,,,,,,,
,,,,,,,,,,,,,,,,,,,,,,,,,,,,,,,,,,,,,,,,,,5f011e4abcc6d126f234516c,606a0fd656eb9aa6d45444a1,2021-04-04_21h13.41.123,Colour_Similarity_Experiment,2020.2.10,Win32,60,60675255c767bca6388caeee,17.44891844,16.7472541,16.6825,16.67521006,16.66178179,16.6825,,,,,,,,,,,,,,,,,,,,PF,3,strong,,,,,,,,3,1.781465,,,,,,,,,,,,,,,,,,,,,,,,,,,,6,strong,-36.7999891,-87.20000774,1,0,0,response5disk,4,166,-7.999988675,11.99999374,1,0,0,rectangle,-7.999988675,11.99999374,1,0,0,3,5,0.00104,-7.999988675,11.99999374,1,0,0,0,3,3,56,1,0,,,,,,,,,,,,,,,,,,,,,
,,,,,,,,,,,,,,,,,,,,,,,,,,,,,,,,,,,,,,,,,,5f011e4abcc6d126f234516c,606a0fd656eb9aa6d45444a1,2021-04-04_21h13.41.123,Colour_Similarity_Experiment,2020.2.10,Win32,60,60675255c767bca6388caeee,17.44891844,16.7472541,16.6825,16.67521006,16.66178179,16.6825,,,,,,,,,,,,,,,,,,,,PF,3,weak,,,,,,,,4,1.199845,,,,,,,,,,,,,,,,,,,,,,,,,,,,7,weak,51.20001221,-85.60005654,1,0,0,response3disk,9,167,-27.99998897,7.19999367,1,0,0,rectangle,-27.99998897,7.19999367,1,0,0,3,0,0.001355,-27.99998897,7.19999367,1,0,0,0,4,4,10,1,0,,,,,,,,,,,,,,,,,,,,,
,,,,,,,,,,,,,,,,,,,,,,,,,,,,,,,,,,,,,,,,,,5f011e4abcc6d126f234516c,606a0fd656eb9aa6d45444a1,2021-04-04_21h13.41.123,Colour_Similarity_Experiment,2020.2.10,Win32,60,60675255c767bca6388caeee,17.44891844,16.7472541,16.6825,16.67521006,16.66178179,16.6825,,,,,,,,,,,,,,,,,,,,PF,3,weak,,,,,,,,2,1.942325,,,,,,,,,,,,,,,,,,,,,,,,,,,,3,weak,-99.19999003,-40.80000705,1,0,0,response5disk,5,168,7.200011551,-1.600006461,1,0,0,rectangle,7.200011551,-1.600006461,1,0,0,3,7,0.002215,7.200011551,-1.600006461,1,0,0,0,5,5,66,1,0,,,,,,,,,,,,,,,,,,,,,
,,,,,,,,,,,,,,,,,,,,,,,,,,,,,,,,,,,,,,,,,,5f011e4abcc6d126f234516c,606a0fd656eb9aa6d45444a1,2021-04-04_21h13.41.123,Colour_Similarity_Experiment,2020.2.10,Win32,60,60675255c767bca6388caeee,17.44891844,16.7472541,16.6825,16.67521006,16.66178179,16.6825,,,,,,,,,,,,,,,,,,,,PF,3,weak,,,,,,,,3,1.149625,,,,,,,,,,,,,,,,,,,,,,,,,,,,7,weak,-47.99998927,-93.60005666,1,0,0,response5disk,5,169,-6.399939823,-6.4373E-06,1,0,0,rectangle,-6.399939823,-6.4373E-06,1,0,0,3,5,0.001635,-6.399939823,-6.4373E-06,1,0,0,0,6,6,92,1,0,,,,,,,,,,,,,,,,,,,,,
