key_resp.keys,key_resp.rt,key_resp_16.keys,key_resp_16.rt,key_resp_2.keys,key_resp_2.rt,X Scale,ratio_pxpermm,screen_size_x,screen_size_y,testsize,key_resp_3.keys,key_resp_4.keys,key_resp_4.rt,line_size,key_resp_5.keys,key_resp_5.rt,key_resp_6.keys,key_resp_6.rt,key_resp_8.keys,key_resp_8.rt,key_resp_7.keys,key_resp_7.rt,key_resp_12.keys,key_resp_12.rt,key_resp_11.keys,key_resp_11.rt,key_resp_18.keys,key_resp_18.rt,key_resp_21.keys,key_resp_21.rt,key_resp_13.keys,key_resp_13.rt,key_resp_19.keys,key_resp_19.rt,ballposx,viewer_distance,trials.thisRepN,trials.thisTrialN,trials.thisN,trials.thisIndex,trials.ran,participant,session,date,expName,psychopyVersion,OS,frameRate,study_id,realFrameRate1,realFrameRate2,realFrameRate3,realFrameRate4,realFrameRate5,realFrameRate,viewerdistancecm,DVA_to_distance,radius_F,radius_P,r_F,R_P,key_resp_20.keys,key_resp_20.rt,key_resp_14.keys,key_resp_14.rt,key_resp_15.keys,key_resp_15.rt,key_resp_17.keys,key_resp_17.rt,key_resp_9.keys,key_resp_9.rt,key_resp_10.keys,key_resp_10.rt,Colour_1,Ecc,mask_frames,maskCon,mouse_5.x,mouse_5.y,mouse_5.leftButton,mouse_5.midButton,mouse_5.rightButton,mouse_5.clicked_name,Colour_2,similarity,response_time,mouse_10.x,mouse_10.y,mouse_10.leftButton,mouse_10.midButton,mouse_10.rightButton,mouse_10.clicked_name,mouse_7.x,mouse_7.y,mouse_7.leftButton,mouse_7.midButton,mouse_7.rightButton,catchnumberprac,mouse_6.x,mouse_6.y,mouse_6.leftButton,mouse_6.midButton,mouse_6.rightButton,duringprac.thisRepN,duringprac.thisTrialN,duringprac.thisN,duringprac.thisIndex,duringprac.ran,mouse_7.clicked_name,catchprac,mouse_6.clicked_name,key_resp_22.keys,key_resp_22.rt,Colour1,maskCon1,mouse.x,mouse.y,mouse.leftButton,mouse.midButton,mouse.rightButton,mouse.clicked_name,Colour2,trialnumber,mouse_2.x,mouse_2.y,mouse_2.leftButton,mouse_2.midButton,mouse_2.rightButton,mouse_2.clicked_name,mouse_3.x,mouse_3.y,mouse_3.leftButton,mouse_3.midButton,mouse_3.rightButton,catchresponse,catchnumber,response_time_catch,mouse_11.x,mouse_11.y,mouse_11.leftButton,mouse_11.midButton,mouse_11.rightButton,trials_2.thisRepN,trials_2.thisTrialN,trials_2.thisN,trials_2.thisIndex,trials_2.ran,Catch,mouse_3.clicked_name,mouse_11.clicked_name,trials_3.thisRepN,trials_3.thisTrialN,trials_3.thisN,trials_3.thisIndex,trials_3.ran,answer1,rt1,answer2,rt2,answer3,rt3,answer4,rt4,answer5,rt5,answer6,rt6,answer7,rt7
space,2.86919,space,35.831065,space,15.699615,55.9,5.59,343.470483,193.2021467,1920,,space,37.58841,111.8,space,16.41657,space,12.33831,space,3.08299,space,4.450295,space,13.083875,space,12.81744,space,14.61666,space,14.2737,space,15.699655,return,10.55576,-1108.8,1398.468249,0,0,0,0,1,5f4803ba0013be282bd72b55,606a10b4db63559c70b4c56e,2021-04-04_21h18.24.694,Colour_Similarity_Experiment,2020.2.10,Linux x86_64,60,60675255c767bca6388caeee,16.82046233,16.67747327,16.69482109,16.66598139,16.66330172,16.67747327,,,,,,,,,,,,,,,,,,,,,,,,,,,,,,,,,,,,,,,,,,,,,,,,,,,,,,,,,,,,,,,,,,,,,,,,,,,,,,,,,,,,,,,,,,,,,,,,,,,,,,,,,,,,,,,,,,
,,,,,,,,,,,,,,,,,,,,,,,,,,,,,,,,,return,10.26728,-1059.84,1361.986468,1,0,1,0,1,5f4803ba0013be282bd72b55,606a10b4db63559c70b4c56e,2021-04-04_21h18.24.694,Colour_Similarity_Experiment,2020.2.10,Linux x86_64,60,60675255c767bca6388caeee,16.82046233,16.67747327,16.69482109,16.66598139,16.66330172,16.67747327,,,,,,,,,,,,,,,,,,,,,,,,,,,,,,,,,,,,,,,,,,,,,,,,,,,,,,,,,,,,,,,,,,,,,,,,,,,,,,,,,,,,,,,,,,,,,,,,,,,,,,,,,,,,,,,,,,
,,,,,,,,,,,,,,,,,,,,,,,,,,,,,,,,,return,10.361475,-1074.24,1372.716404,2,0,2,0,1,5f4803ba0013be282bd72b55,606a10b4db63559c70b4c56e,2021-04-04_21h18.24.694,Colour_Similarity_Experiment,2020.2.10,Linux x86_64,60,60675255c767bca6388caeee,16.82046233,16.67747327,16.69482109,16.66598139,16.66330172,16.67747327,,,,,,,,,,,,,,,,,,,,,,,,,,,,,,,,,,,,,,,,,,,,,,,,,,,,,,,,,,,,,,,,,,,,,,,,,,,,,,,,,,,,,,,,,,,,,,,,,,,,,,,,,,,,,,,,,,
,,,,,,,,,,,,,,,,,,,,,,,,,,,,,,,,,return,10.249725,-1054.08,1357.694494,3,0,3,0,1,5f4803ba0013be282bd72b55,606a10b4db63559c70b4c56e,2021-04-04_21h18.24.694,Colour_Similarity_Experiment,2020.2.10,Linux x86_64,60,60675255c767bca6388caeee,16.82046233,16.67747327,16.69482109,16.66598139,16.66330172,16.67747327,,,,,,,,,,,,,,,,,,,,,,,,,,,,,,,,,,,,,,,,,,,,,,,,,,,,,,,,,,,,,,,,,,,,,,,,,,,,,,,,,,,,,,,,,,,,,,,,,,,,,,,,,,,,,,,,,,
,,,,,,,,,,,,,,,,,,,,,,,,,,,,,,,,,return,10.183565,-1042.56,1349.110546,4,0,4,0,1,5f4803ba0013be282bd72b55,606a10b4db63559c70b4c56e,2021-04-04_21h18.24.694,Colour_Similarity_Experiment,2020.2.10,Linux x86_64,60,60675255c767bca6388caeee,16.82046233,16.67747327,16.69482109,16.66598139,16.66330172,16.67747327,,,,,,,,,,,,,,,,,,,,,,,,,,,,,,,,,,,,,,,,,,,,,,,,,,,,,,,,,,,,,,,,,,,,,,,,,,,,,,,,,,,,,,,,,,,,,,,,,,,,,,,,,,,,,,,,,,
,,,,,,,,,,,,,,,,,,,,,,,,,,,,,,,,,,,,,,,,,,5f4803ba0013be282bd72b55,606a10b4db63559c70b4c56e,2021-04-04_21h18.24.694,Colour_Similarity_Experiment,2020.2.10,Linux x86_64,60,60675255c767bca6388caeee,16.82046233,16.67747327,16.69482109,16.66598139,16.66330172,16.67747327,136,23.73887981,199.0505072,1327.003382,132.7003382,597.1515217,space,5.71903,space,29.400125,space,39.76789,space,5.67619,space,3.316905,space,5.380695,6,PF,3,weak,-153,-133,1,0,0,response5disk_5,9,2,24.41891,30,5,1,0,0,rectangle_8,30,5,1,0,0,0,30,5,1,0,0,0,0,0,6,1,,,,,,,,,,,,,,,,,,,,,,,,,,,,,,,,,,,,,,,,,,,,,,,,,,,,,,,,,,,,,
,,,,,,,,,,,,,,,,,,,,,,,,,,,,,,,,,,,,,,,,,,5f4803ba0013be282bd72b55,606a10b4db63559c70b4c56e,2021-04-04_21h18.24.694,Colour_Similarity_Experiment,2020.2.10,Linux x86_64,60,60675255c767bca6388caeee,16.82046233,16.67747327,16.69482109,16.66598139,16.66330172,16.67747327,,,,,,,,,,,,,,,,,,,5,PF,3,weak,-38,110,1,0,0,response7disk_5,5,0,10.15106,10,5,1,0,0,rectangle_8,10,5,1,0,0,0,10,5,1,0,0,0,1,1,4,1,,,,,,,,,,,,,,,,,,,,,,,,,,,,,,,,,,,,,,,,,,,,,,,,,,,,,,,,,,,,,
,,,,,,,,,,,,,,,,,,,,,,,,,,,,,,,,,,,,,,,,,,5f4803ba0013be282bd72b55,606a10b4db63559c70b4c56e,2021-04-04_21h18.24.694,Colour_Similarity_Experiment,2020.2.10,Linux x86_64,60,60675255c767bca6388caeee,16.82046233,16.67747327,16.69482109,16.66598139,16.66330172,16.67747327,,,,,,,,,,,,,,,,,,,8,PF,3,weak,-51,-92,1,0,0,response5disk_5,4,3,4.417495,14,-4,1,0,0,rectangle_8,-31,100,1,0,0,0,5,18,1,0,0,0,2,2,1,1,response7disk_7,0,rectangle_4,,,,,,,,,,,,,,,,,,,,,,,,,,,,,,,,,,,,,,,,,,,,,,,,,,,,,,,,,,
,,,,,,,,,,,,,,,,,,,,,,,,,,,,,,,,,,,,,,,,,,5f4803ba0013be282bd72b55,606a10b4db63559c70b4c56e,2021-04-04_21h18.24.694,Colour_Similarity_Experiment,2020.2.10,Linux x86_64,60,60675255c767bca6388caeee,16.82046233,16.67747327,16.69482109,16.66598139,16.66330172,16.67747327,,,,,,,,,,,,,,,,,,,5,PF,3,weak,89,51,1,0,0,response1disk_5,4,6,6.434275,38,-2,1,0,0,rectangle_8,38,-2,1,0,0,0,38,-2,1,0,0,0,3,3,5,1,,,,,,,,,,,,,,,,,,,,,,,,,,,,,,,,,,,,,,,,,,,,,,,,,,,,,,,,,,,,,
,,,,,,,,,,,,,,,,,,,,,,,,,,,,,,,,,,,,,,,,,,5f4803ba0013be282bd72b55,606a10b4db63559c70b4c56e,2021-04-04_21h18.24.694,Colour_Similarity_Experiment,2020.2.10,Linux x86_64,60,60675255c767bca6388caeee,16.82046233,16.67747327,16.69482109,16.66598139,16.66330172,16.67747327,,,,,,,,,,,,,,,,,,,3,PF,3,strong,79,-39,1,0,0,response3disk_5,6,5,6.167255,33,3,1,0,0,rectangle_8,-68,122,1,0,0,0,6,19,1,0,0,0,4,4,3,1,response7disk_7,0,rectangle_4,,,,,,,,,,,,,,,,,,,,,,,,,,,,,,,,,,,,,,,,,,,,,,,,,,,,,,,,,,
,,,,,,,,,,,,,,,,,,,,,,,,,,,,,,,,,,,,,,,,,,5f4803ba0013be282bd72b55,606a10b4db63559c70b4c56e,2021-04-04_21h18.24.694,Colour_Similarity_Experiment,2020.2.10,Linux x86_64,60,60675255c767bca6388caeee,16.82046233,16.67747327,16.69482109,16.66598139,16.66330172,16.67747327,,,,,,,,,,,,,,,,,,,1,PF,3,strong,-124,-41,1,0,0,response5disk_5,5,2,3.46804,4,16,1,0,0,rectangle_8,4,16,1,0,0,0,4,16,1,0,0,0,5,5,2,1,,,,,,,,,,,,,,,,,,,,,,,,,,,,,,,,,,,,,,,,,,,,,,,,,,,,,,,,,,,,,
,,,,,,,,,,,,,,,,,,,,,,,,,,,,,,,,,,,,,,,,,,5f4803ba0013be282bd72b55,606a10b4db63559c70b4c56e,2021-04-04_21h18.24.694,Colour_Similarity_Experiment,2020.2.10,Linux x86_64,60,60675255c767bca6388caeee,16.82046233,16.67747327,16.69482109,16.66598139,16.66330172,16.67747327,,,,,,,,,,,,,,,,,,,8,PF,3,strong,-55,-62,1,0,0,response5disk_5,5,3,4.40095,-10,-4,1,0,0,rectangle_8,-10,-4,1,0,0,0,-10,-4,1,0,0,0,6,6,0,1,,,,,,,,,,,,,,,,,,,,,,,,,,,,,,,,,,,,,,,,,,,,,,,,,,,,,,,,,,,,,
,,,,,,,,,,,,,,,,,,,,,,,,,,,,,,,,,,,,,,,,,,5f4803ba0013be282bd72b55,606a10b4db63559c70b4c56e,2021-04-04_21h18.24.694,Colour_Similarity_Experiment,2020.2.10,Linux x86_64,60,60675255c767bca6388caeee,16.82046233,16.67747327,16.69482109,16.66598139,16.66330172,16.67747327,,,,,,,,,,,,,,,,,,,,PF,3,strong,,,,,,,,7,22.36779,,,,,,,,,,,,,,,,,,,,,,,,,,space,4.43716,4,strong,119,140,1,0,0,response1disk,1,1,2,-2,1,0,0,rectangle,2,-2,1,0,0,,5,0.00572,2,-2,1,0,0,0,0,0,102,1,0,,,,,,,,,,,,,,,,,,,,,
,,,,,,,,,,,,,,,,,,,,,,,,,,,,,,,,,,,,,,,,,,5f4803ba0013be282bd72b55,606a10b4db63559c70b4c56e,2021-04-04_21h18.24.694,Colour_Similarity_Experiment,2020.2.10,Linux x86_64,60,60675255c767bca6388caeee,16.82046233,16.67747327,16.69482109,16.66598139,16.66330172,16.67747327,,,,,,,,,,,,,,,,,,,,PF,3,weak,,,,,,,,2,3.768045,,,,,,,,,,,,,,,,,,,,,,,,,,,,7,weak,-102,-46,1,0,0,response5disk,8,2,-5,-6,1,0,0,rectangle,-5,-6,1,0,0,,6,0.00332,-5,-6,1,0,0,0,1,1,140,1,0,,,,,,,,,,,,,,,,,,,,,
,,,,,,,,,,,,,,,,,,,,,,,,,,,,,,,,,,,,,,,,,,5f4803ba0013be282bd72b55,606a10b4db63559c70b4c56e,2021-04-04_21h18.24.694,Colour_Similarity_Experiment,2020.2.10,Linux x86_64,60,60675255c767bca6388caeee,16.82046233,16.67747327,16.69482109,16.66598139,16.66330172,16.67747327,,,,,,,,,,,,,,,,,,,,PF,3,strong,,,,,,,,4,3.68425,,,,,,,,,,,,,,,,,,,,,,,,,,,,9,strong,50,-110,1,0,0,response3disk,2,3,33,11,1,0,0,rectangle,-91,-113,1,0,0,3,3,4.349465,-21,8,1,0,0,0,2,2,11,1,1,response5disk_3,rectangle,,,,,,,,,,,,,,,,,,,
,,,,,,,,,,,,,,,,,,,,,,,,,,,,,,,,,,,,,,,,,,5f4803ba0013be282bd72b55,606a10b4db63559c70b4c56e,2021-04-04_21h18.24.694,Colour_Similarity_Experiment,2020.2.10,Linux x86_64,60,60675255c767bca6388caeee,16.82046233,16.67747327,16.69482109,16.66598139,16.66330172,16.67747327,,,,,,,,,,,,,,,,,,,,PF,3,weak,,,,,,,,6,2.516685,,,,,,,,,,,,,,,,,,,,,,,,,,,,8,weak,151,49,1,0,0,response1disk,5,4,-3,-8,1,0,0,rectangle,-3,-8,1,0,0,3,7,0.00357,-3,-8,1,0,0,0,3,3,98,1,0,,,,,,,,,,,,,,,,,,,,,
,,,,,,,,,,,,,,,,,,,,,,,,,,,,,,,,,,,,,,,,,,5f4803ba0013be282bd72b55,606a10b4db63559c70b4c56e,2021-04-04_21h18.24.694,Colour_Similarity_Experiment,2020.2.10,Linux x86_64,60,60675255c767bca6388caeee,16.82046233,16.67747327,16.69482109,16.66598139,16.66330172,16.67747327,,,,,,,,,,,,,,,,,,,,PF,3,weak,,,,,,,,0,3.000215,,,,,,,,,,,,,,,,,,,,,,,,,,,,8,weak,-53,112,1,0,0,response7disk,9,5,-11,-8,1,0,0,rectangle,-11,-8,1,0,0,3,3,0.003615,-11,-8,1,0,0,0,4,4,42,1,0,,,,,,,,,,,,,,,,,,,,,
,,,,,,,,,,,,,,,,,,,,,,,,,,,,,,,,,,,,,,,,,,5f4803ba0013be282bd72b55,606a10b4db63559c70b4c56e,2021-04-04_21h18.24.694,Colour_Similarity_Experiment,2020.2.10,Linux x86_64,60,60675255c767bca6388caeee,16.82046233,16.67747327,16.69482109,16.66598139,16.66330172,16.67747327,,,,,,,,,,,,,,,,,,,,PF,3,weak,,,,,,,,3,3.737475,,,,,,,,,,,,,,,,,,,,,,,,,,,,3,weak,-29,-85,1,0,0,response5disk,1,6,1,14,1,0,0,rectangle,1,14,1,0,0,3,0,0.00299,1,14,1,0,0,0,5,5,96,1,0,,,,,,,,,,,,,,,,,,,,,
,,,,,,,,,,,,,,,,,,,,,,,,,,,,,,,,,,,,,,,,,,5f4803ba0013be282bd72b55,606a10b4db63559c70b4c56e,2021-04-04_21h18.24.694,Colour_Similarity_Experiment,2020.2.10,Linux x86_64,60,60675255c767bca6388caeee,16.82046233,16.67747327,16.69482109,16.66598139,16.66330172,16.67747327,,,,,,,,,,,,,,,,,,,,PF,3,strong,,,,,,,,5,3.966505,,,,,,,,,,,,,,,,,,,,,,,,,,,,8,strong,112,-62,1,0,0,response3disk,4,7,-13,11,1,0,0,rectangle,-13,11,1,0,0,3,5,0.003825,-13,11,1,0,0,0,6,6,88,1,0,,,,,,,,,,,,,,,,,,,,,
,,,,,,,,,,,,,,,,,,,,,,,,,,,,,,,,,,,,,,,,,,5f4803ba0013be282bd72b55,606a10b4db63559c70b4c56e,2021-04-04_21h18.24.694,Colour_Similarity_Experiment,2020.2.10,Linux x86_64,60,60675255c767bca6388caeee,16.82046233,16.67747327,16.69482109,16.66598139,16.66330172,16.67747327,,,,,,,,,,,,,,,,,,,,PF,3,strong,,,,,,,,7,2.217255,,,,,,,,,,,,,,,,,,,,,,,,,,,,1,strong,65,86,1,0,0,response1disk,2,8,20,8,1,0,0,rectangle,20,8,1,0,0,3,5,0.00096,20,8,1,0,0,0,7,7,2,1,0,,,,,,,,,,,,,,,,,,,,,
,,,,,,,,,,,,,,,,,,,,,,,,,,,,,,,,,,,,,,,,,,5f4803ba0013be282bd72b55,606a10b4db63559c70b4c56e,2021-04-04_21h18.24.694,Colour_Similarity_Experiment,2020.2.10,Linux x86_64,60,60675255c767bca6388caeee,16.82046233,16.67747327,16.69482109,16.66598139,16.66330172,16.67747327,,,,,,,,,,,,,,,,,,,,PF,3,weak,,,,,,,,6,2.933985,,,,,,,,,,,,,,,,,,,,,,,,,,,,2,weak,121,32,1,0,0,response1disk,2,9,29,-8,1,0,0,rectangle,29,-8,1,0,0,3,3,0.003095,29,-8,1,0,0,0,8,8,14,1,0,,,,,,,,,,,,,,,,,,,,,
,,,,,,,,,,,,,,,,,,,,,,,,,,,,,,,,,,,,,,,,,,5f4803ba0013be282bd72b55,606a10b4db63559c70b4c56e,2021-04-04_21h18.24.694,Colour_Similarity_Experiment,2020.2.10,Linux x86_64,60,60675255c767bca6388caeee,16.82046233,16.67747327,16.69482109,16.66598139,16.66330172,16.67747327,,,,,,,,,,,,,,,,,,,,PF,3,weak,,,,,,,,3,9.550995,,,,,,,,,,,,,,,,,,,,,,,,,,,,9,weak,-39,-72,1,0,0,response5disk,2,10,23,4,1,0,0,rectangle,23,4,1,0,0,3,7,0.003065,23,4,1,0,0,0,9,9,157,1,0,,,,,,,,,,,,,,,,,,,,,
,,,,,,,,,,,,,,,,,,,,,,,,,,,,,,,,,,,,,,,,,,5f4803ba0013be282bd72b55,606a10b4db63559c70b4c56e,2021-04-04_21h18.24.694,Colour_Similarity_Experiment,2020.2.10,Linux x86_64,60,60675255c767bca6388caeee,16.82046233,16.67747327,16.69482109,16.66598139,16.66330172,16.67747327,,,,,,,,,,,,,,,,,,,,PF,3,strong,,,,,,,,3,10.9841,,,,,,,,,,,,,,,,,,,,,,,,,,,,5,strong,-27,-89,1,0,0,response5disk,7,11,-2,4,1,0,0,rectangle,-2,4,1,0,0,3,6,0.003505,-2,4,1,0,0,0,10,10,7,1,0,,,,,,,,,,,,,,,,,,,,,
,,,,,,,,,,,,,,,,,,,,,,,,,,,,,,,,,,,,,,,,,,5f4803ba0013be282bd72b55,606a10b4db63559c70b4c56e,2021-04-04_21h18.24.694,Colour_Similarity_Experiment,2020.2.10,Linux x86_64,60,60675255c767bca6388caeee,16.82046233,16.67747327,16.69482109,16.66598139,16.66330172,16.67747327,,,,,,,,,,,,,,,,,,,,PF,3,strong,,,,,,,,1,3.617775,,,,,,,,,,,,,,,,,,,,,,,,,,,,7,strong,-87,42,1,0,0,response7disk,6,12,-18,7,1,0,0,rectangle,-18,7,1,0,0,3,2,0.003085,-18,7,1,0,0,0,11,11,31,1,0,,,,,,,,,,,,,,,,,,,,,
,,,,,,,,,,,,,,,,,,,,,,,,,,,,,,,,,,,,,,,,,,5f4803ba0013be282bd72b55,606a10b4db63559c70b4c56e,2021-04-04_21h18.24.694,Colour_Similarity_Experiment,2020.2.10,Linux x86_64,60,60675255c767bca6388caeee,16.82046233,16.67747327,16.69482109,16.66598139,16.66330172,16.67747327,,,,,,,,,,,,,,,,,,,,PF,3,weak,,,,,,,,3,2.323335,,,,,,,,,,,,,,,,,,,,,,,,,,,,4,weak,-68,-125,1,0,0,response5disk,5,13,5,-4,1,0,0,rectangle,5,-4,1,0,0,3,5,0.003335,5,-4,1,0,0,0,12,12,49,1,0,,,,,,,,,,,,,,,,,,,,,
,,,,,,,,,,,,,,,,,,,,,,,,,,,,,,,,,,,,,,,,,,5f4803ba0013be282bd72b55,606a10b4db63559c70b4c56e,2021-04-04_21h18.24.694,Colour_Similarity_Experiment,2020.2.10,Linux x86_64,60,60675255c767bca6388caeee,16.82046233,16.67747327,16.69482109,16.66598139,16.66330172,16.67747327,,,,,,,,,,,,,,,,,,,,PF,3,weak,,,,,,,,2,2.384105,,,,,,,,,,,,,,,,,,,,,,,,,,,,7,weak,-80,-51,1,0,0,response5disk,6,14,7,-2,1,0,0,rectangle,7,-2,1,0,0,3,6,0.003395,7,-2,1,0,0,0,13,13,29,1,0,,,,,,,,,,,,,,,,,,,,,
,,,,,,,,,,,,,,,,,,,,,,,,,,,,,,,,,,,,,,,,,,5f4803ba0013be282bd72b55,606a10b4db63559c70b4c56e,2021-04-04_21h18.24.694,Colour_Similarity_Experiment,2020.2.10,Linux x86_64,60,60675255c767bca6388caeee,16.82046233,16.67747327,16.69482109,16.66598139,16.66330172,16.67747327,,,,,,,,,,,,,,,,,,,,PF,3,strong,,,,,,,,5,3.416755,,,,,,,,,,,,,,,,,,,,,,,,,,,,5,strong,127,-62,1,0,0,response3disk,9,15,19,7,1,0,0,rectangle,19,7,1,0,0,3,2,0.003025,19,7,1,0,0,0,14,14,61,1,0,,,,,,,,,,,,,,,,,,,,,
,,,,,,,,,,,,,,,,,,,,,,,,,,,,,,,,,,,,,,,,,,5f4803ba0013be282bd72b55,606a10b4db63559c70b4c56e,2021-04-04_21h18.24.694,Colour_Similarity_Experiment,2020.2.10,Linux x86_64,60,60675255c767bca6388caeee,16.82046233,16.67747327,16.69482109,16.66598139,16.66330172,16.67747327,,,,,,,,,,,,,,,,,,,,PF,3,strong,,,,,,,,6,3.161545,,,,,,,,,,,,,,,,,,,,,,,,,,,,6,strong,138,43,1,0,0,response1disk,2,16,14,5,1,0,0,rectangle,14,5,1,0,0,3,4,0.00272,14,5,1,0,0,0,15,15,112,1,0,,,,,,,,,,,,,,,,,,,,,
,,,,,,,,,,,,,,,,,,,,,,,,,,,,,,,,,,,,,,,,,,5f4803ba0013be282bd72b55,606a10b4db63559c70b4c56e,2021-04-04_21h18.24.694,Colour_Similarity_Experiment,2020.2.10,Linux x86_64,60,60675255c767bca6388caeee,16.82046233,16.67747327,16.69482109,16.66598139,16.66330172,16.67747327,,,,,,,,,,,,,,,,,,,,PF,3,weak,,,,,,,,6,1.90102,,,,,,,,,,,,,,,,,,,,,,,,,,,,2,weak,103,41,1,0,0,response1disk,8,17,29,-14,1,0,0,rectangle,29,-14,1,0,0,3,6,0.003635,29,-14,1,0,0,0,16,16,52,1,0,,,,,,,,,,,,,,,,,,,,,
,,,,,,,,,,,,,,,,,,,,,,,,,,,,,,,,,,,,,,,,,,5f4803ba0013be282bd72b55,606a10b4db63559c70b4c56e,2021-04-04_21h18.24.694,Colour_Similarity_Experiment,2020.2.10,Linux x86_64,60,60675255c767bca6388caeee,16.82046233,16.67747327,16.69482109,16.66598139,16.66330172,16.67747327,,,,,,,,,,,,,,,,,,,,PF,3,weak,,,,,,,,6,2.10099,,,,,,,,,,,,,,,,,,,,,,,,,,,,1,weak,103,51,1,0,0,response1disk,1,18,8,-4,1,0,0,rectangle,72,41,1,0,0,6,6,1.85135,42,13,1,0,0,0,17,17,76,1,1,response1disk_3,rectangle,,,,,,,,,,,,,,,,,,,
,,,,,,,,,,,,,,,,,,,,,,,,,,,,,,,,,,,,,,,,,,5f4803ba0013be282bd72b55,606a10b4db63559c70b4c56e,2021-04-04_21h18.24.694,Colour_Similarity_Experiment,2020.2.10,Linux x86_64,60,60675255c767bca6388caeee,16.82046233,16.67747327,16.69482109,16.66598139,16.66330172,16.67747327,,,,,,,,,,,,,,,,,,,,PF,3,strong,,,,,,,,4,4.63384,,,,,,,,,,,,,,,,,,,,,,,,,,,,9,strong,54,-138,1,0,0,response3disk,3,19,30,-8,1,0,0,rectangle,30,-8,1,0,0,6,7,0.00322,30,-8,1,0,0,0,18,18,141,1,0,,,,,,,,,,,,,,,,,,,,,
,,,,,,,,,,,,,,,,,,,,,,,,,,,,,,,,,,,,,,,,,,5f4803ba0013be282bd72b55,606a10b4db63559c70b4c56e,2021-04-04_21h18.24.694,Colour_Similarity_Experiment,2020.2.10,Linux x86_64,60,60675255c767bca6388caeee,16.82046233,16.67747327,16.69482109,16.66598139,16.66330172,16.67747327,,,,,,,,,,,,,,,,,,,,PF,3,strong,,,,,,,,4,3.06724,,,,,,,,,,,,,,,,,,,,,,,,,,,,1,strong,50,-98,1,0,0,response3disk,6,20,22,19,1,0,0,rectangle,22,19,1,0,0,6,6,0.003115,22,19,1,0,0,0,19,19,58,1,0,,,,,,,,,,,,,,,,,,,,,
,,,,,,,,,,,,,,,,,,,,,,,,,,,,,,,,,,,,,,,,,,5f4803ba0013be282bd72b55,606a10b4db63559c70b4c56e,2021-04-04_21h18.24.694,Colour_Similarity_Experiment,2020.2.10,Linux x86_64,60,60675255c767bca6388caeee,16.82046233,16.67747327,16.69482109,16.66598139,16.66330172,16.67747327,,,,,,,,,,,,,,,,,,,,PF,3,strong,,,,,,,,7,3.38375,,,,,,,,,,,,,,,,,,,,,,,,,,,,7,strong,66,138,1,0,0,response1disk,1,21,23,13,1,0,0,rectangle,23,13,1,0,0,6,1,0.003235,23,13,1,0,0,0,20,20,132,1,0,,,,,,,,,,,,,,,,,,,,,
,,,,,,,,,,,,,,,,,,,,,,,,,,,,,,,,,,,,,,,,,,5f4803ba0013be282bd72b55,606a10b4db63559c70b4c56e,2021-04-04_21h18.24.694,Colour_Similarity_Experiment,2020.2.10,Linux x86_64,60,60675255c767bca6388caeee,16.82046233,16.67747327,16.69482109,16.66598139,16.66330172,16.67747327,,,,,,,,,,,,,,,,,,,,PF,3,strong,,,,,,,,7,3.201085,,,,,,,,,,,,,,,,,,,,,,,,,,,,6,strong,56,65,1,0,0,response1disk,5,22,15,-12,1,0,0,rectangle,15,-12,1,0,0,6,0,0.00326,15,-12,1,0,0,0,21,21,126,1,0,,,,,,,,,,,,,,,,,,,,,
,,,,,,,,,,,,,,,,,,,,,,,,,,,,,,,,,,,,,,,,,,5f4803ba0013be282bd72b55,606a10b4db63559c70b4c56e,2021-04-04_21h18.24.694,Colour_Similarity_Experiment,2020.2.10,Linux x86_64,60,60675255c767bca6388caeee,16.82046233,16.67747327,16.69482109,16.66598139,16.66330172,16.67747327,,,,,,,,,,,,,,,,,,,,PF,3,weak,,,,,,,,7,1.68392,,,,,,,,,,,,,,,,,,,,,,,,,,,,1,weak,47,103,1,0,0,response1disk,5,23,19,10,1,0,0,rectangle,19,10,1,0,0,6,1,0.003335,19,10,1,0,0,0,22,22,28,1,0,,,,,,,,,,,,,,,,,,,,,
,,,,,,,,,,,,,,,,,,,,,,,,,,,,,,,,,,,,,,,,,,5f4803ba0013be282bd72b55,606a10b4db63559c70b4c56e,2021-04-04_21h18.24.694,Colour_Similarity_Experiment,2020.2.10,Linux x86_64,60,60675255c767bca6388caeee,16.82046233,16.67747327,16.69482109,16.66598139,16.66330172,16.67747327,,,,,,,,,,,,,,,,,,,,PF,3,strong,,,,,,,,5,3.866735,,,,,,,,,,,,,,,,,,,,,,,,,,,,9,strong,87,-36,1,0,0,response3disk,1,24,9,8,1,0,0,rectangle,9,8,1,0,0,6,3,0.003,9,8,1,0,0,0,23,23,111,1,0,,,,,,,,,,,,,,,,,,,,,
,,,,,,,,,,,,,,,,,,,,,,,,,,,,,,,,,,,,,,,,,,5f4803ba0013be282bd72b55,606a10b4db63559c70b4c56e,2021-04-04_21h18.24.694,Colour_Similarity_Experiment,2020.2.10,Linux x86_64,60,60675255c767bca6388caeee,16.82046233,16.67747327,16.69482109,16.66598139,16.66330172,16.67747327,,,,,,,,,,,,,,,,,,,,PF,3,strong,,,,,,,,6,3.63271,,,,,,,,,,,,,,,,,,,,,,,,,,,,3,strong,104,37,1,0,0,response1disk,8,25,11,-8,1,0,0,rectangle,11,-8,1,0,0,6,7,0.00297,11,-8,1,0,0,0,24,24,44,1,0,,,,,,,,,,,,,,,,,,,,,
,,,,,,,,,,,,,,,,,,,,,,,,,,,,,,,,,,,,,,,,,,5f4803ba0013be282bd72b55,606a10b4db63559c70b4c56e,2021-04-04_21h18.24.694,Colour_Similarity_Experiment,2020.2.10,Linux x86_64,60,60675255c767bca6388caeee,16.82046233,16.67747327,16.69482109,16.66598139,16.66330172,16.67747327,,,,,,,,,,,,,,,,,,,,PF,3,strong,,,,,,,,6,2.75069,,,,,,,,,,,,,,,,,,,,,,,,,,,,2,strong,92,32,1,0,0,response1disk,7,26,38,9,1,0,0,rectangle,38,9,1,0,0,6,5,0.003175,38,9,1,0,0,0,25,25,63,1,0,,,,,,,,,,,,,,,,,,,,,
,,,,,,,,,,,,,,,,,,,,,,,,,,,,,,,,,,,,,,,,,,5f4803ba0013be282bd72b55,606a10b4db63559c70b4c56e,2021-04-04_21h18.24.694,Colour_Similarity_Experiment,2020.2.10,Linux x86_64,60,60675255c767bca6388caeee,16.82046233,16.67747327,16.69482109,16.66598139,16.66330172,16.67747327,,,,,,,,,,,,,,,,,,,,PF,3,weak,,,,,,,,5,2.332745,,,,,,,,,,,,,,,,,,,,,,,,,,,,8,weak,104,-54,1,0,0,response3disk,2,27,36,-6,1,0,0,rectangle,36,-6,1,0,0,6,2,0.002935,36,-6,1,0,0,0,26,26,83,1,0,,,,,,,,,,,,,,,,,,,,,
,,,,,,,,,,,,,,,,,,,,,,,,,,,,,,,,,,,,,,,,,,5f4803ba0013be282bd72b55,606a10b4db63559c70b4c56e,2021-04-04_21h18.24.694,Colour_Similarity_Experiment,2020.2.10,Linux x86_64,60,60675255c767bca6388caeee,16.82046233,16.67747327,16.69482109,16.66598139,16.66330172,16.67747327,,,,,,,,,,,,,,,,,,,,PF,3,strong,,,,,,,,4,7.60071,,,,,,,,,,,,,,,,,,,,,,,,,,,,6,strong,36,-120,1,0,0,response3disk,8,28,17,-3,1,0,0,rectangle,17,-3,1,0,0,6,1,0.003725,17,-3,1,0,0,0,27,27,133,1,0,,,,,,,,,,,,,,,,,,,,,
,,,,,,,,,,,,,,,,,,,,,,,,,,,,,,,,,,,,,,,,,,5f4803ba0013be282bd72b55,606a10b4db63559c70b4c56e,2021-04-04_21h18.24.694,Colour_Similarity_Experiment,2020.2.10,Linux x86_64,60,60675255c767bca6388caeee,16.82046233,16.67747327,16.69482109,16.66598139,16.66330172,16.67747327,,,,,,,,,,,,,,,,,,,,PF,3,weak,,,,,,,,4,2.633545,,,,,,,,,,,,,,,,,,,,,,,,,,,,2,weak,53,-101,1,0,0,response3disk,1,29,28,1,1,0,0,rectangle,28,1,1,0,0,6,2,0.0028,28,1,1,0,0,0,28,28,9,1,0,,,,,,,,,,,,,,,,,,,,,
,,,,,,,,,,,,,,,,,,,,,,,,,,,,,,,,,,,,,,,,,,5f4803ba0013be282bd72b55,606a10b4db63559c70b4c56e,2021-04-04_21h18.24.694,Colour_Similarity_Experiment,2020.2.10,Linux x86_64,60,60675255c767bca6388caeee,16.82046233,16.67747327,16.69482109,16.66598139,16.66330172,16.67747327,,,,,,,,,,,,,,,,,,,,PF,3,strong,,,,,,,,4,3.767905,,,,,,,,,,,,,,,,,,,,,,,,,,,,1,strong,69,-103,1,0,0,response3disk,3,30,18,5,1,0,0,rectangle,18,5,1,0,0,6,6,0.00355,18,5,1,0,0,0,29,29,99,1,0,,,,,,,,,,,,,,,,,,,,,
,,,,,,,,,,,,,,,,,,,,,,,,,,,,,,,,,,,,,,,,,,5f4803ba0013be282bd72b55,606a10b4db63559c70b4c56e,2021-04-04_21h18.24.694,Colour_Similarity_Experiment,2020.2.10,Linux x86_64,60,60675255c767bca6388caeee,16.82046233,16.67747327,16.69482109,16.66598139,16.66330172,16.67747327,,,,,,,,,,,,,,,,,,,,PF,3,weak,,,,,,,,3,1.56661,,,,,,,,,,,,,,,,,,,,,,,,,,,,6,weak,-53,-91,1,0,0,response5disk,3,31,12,14,1,0,0,rectangle,12,14,1,0,0,6,6,0.000435,12,14,1,0,0,0,30,30,26,1,0,,,,,,,,,,,,,,,,,,,,,
,,,,,,,,,,,,,,,,,,,,,,,,,,,,,,,,,,,,,,,,,,5f4803ba0013be282bd72b55,606a10b4db63559c70b4c56e,2021-04-04_21h18.24.694,Colour_Similarity_Experiment,2020.2.10,Linux x86_64,60,60675255c767bca6388caeee,16.82046233,16.67747327,16.69482109,16.66598139,16.66330172,16.67747327,,,,,,,,,,,,,,,,,,,,PF,3,strong,,,,,,,,3,4.01592,,,,,,,,,,,,,,,,,,,,,,,,,,,,8,strong,-56,-84,1,0,0,response5disk,8,32,-2,6,1,0,0,rectangle,-2,6,1,0,0,6,2,0.00275,-2,6,1,0,0,0,31,31,48,1,0,,,,,,,,,,,,,,,,,,,,,
,,,,,,,,,,,,,,,,,,,,,,,,,,,,,,,,,,,,,,,,,,5f4803ba0013be282bd72b55,606a10b4db63559c70b4c56e,2021-04-04_21h18.24.694,Colour_Similarity_Experiment,2020.2.10,Linux x86_64,60,60675255c767bca6388caeee,16.82046233,16.67747327,16.69482109,16.66598139,16.66330172,16.67747327,,,,,,,,,,,,,,,,,,,,PF,3,strong,,,,,,,,4,2.902885,,,,,,,,,,,,,,,,,,,,,,,,,,,,3,strong,44,-78,1,0,0,response3disk,4,33,30,2,1,0,0,rectangle,30,2,1,0,0,6,4,0.003145,30,2,1,0,0,0,32,32,110,1,0,,,,,,,,,,,,,,,,,,,,,
,,,,,,,,,,,,,,,,,,,,,,,,,,,,,,,,,,,,,,,,,,5f4803ba0013be282bd72b55,606a10b4db63559c70b4c56e,2021-04-04_21h18.24.694,Colour_Similarity_Experiment,2020.2.10,Linux x86_64,60,60675255c767bca6388caeee,16.82046233,16.67747327,16.69482109,16.66598139,16.66330172,16.67747327,,,,,,,,,,,,,,,,,,,,PF,3,weak,,,,,,,,5,2.56637,,,,,,,,,,,,,,,,,,,,,,,,,,,,8,weak,91,-46,1,0,0,response3disk,6,34,23,14,1,0,0,rectangle,-81,-45,1,0,0,6,2,2.933075,0,-5,1,0,0,0,33,33,161,1,1,response5disk_3,rectangle,,,,,,,,,,,,,,,,,,,
,,,,,,,,,,,,,,,,,,,,,,,,,,,,,,,,,,,,,,,,,,5f4803ba0013be282bd72b55,606a10b4db63559c70b4c56e,2021-04-04_21h18.24.694,Colour_Similarity_Experiment,2020.2.10,Linux x86_64,60,60675255c767bca6388caeee,16.82046233,16.67747327,16.69482109,16.66598139,16.66330172,16.67747327,,,,,,,,,,,,,,,,,,,,PF,3,strong,,,,,,,,3,2.98414,,,,,,,,,,,,,,,,,,,,,,,,,,,,2,strong,-76,-90,1,0,0,response5disk,1,35,28,2,1,0,0,rectangle,28,2,1,0,0,6,1,0.00341,28,2,1,0,0,0,34,34,85,1,0,,,,,,,,,,,,,,,,,,,,,
,,,,,,,,,,,,,,,,,,,,,,,,,,,,,,,,,,,,,,,,,,5f4803ba0013be282bd72b55,606a10b4db63559c70b4c56e,2021-04-04_21h18.24.694,Colour_Similarity_Experiment,2020.2.10,Linux x86_64,60,60675255c767bca6388caeee,16.82046233,16.67747327,16.69482109,16.66598139,16.66330172,16.67747327,,,,,,,,,,,,,,,,,,,,PF,3,weak,,,,,,,,3,3.151075,,,,,,,,,,,,,,,,,,,,,,,,,,,,7,weak,-37,-99,1,0,0,response5disk,3,36,8,-6,1,0,0,rectangle,8,-6,1,0,0,6,5,0.003475,8,-6,1,0,0,0,35,35,81,1,0,,,,,,,,,,,,,,,,,,,,,
,,,,,,,,,,,,,,,,,,,,,,,,,,,,,,,,,,,,,,,,,,5f4803ba0013be282bd72b55,606a10b4db63559c70b4c56e,2021-04-04_21h18.24.694,Colour_Similarity_Experiment,2020.2.10,Linux x86_64,60,60675255c767bca6388caeee,16.82046233,16.67747327,16.69482109,16.66598139,16.66330172,16.67747327,,,,,,,,,,,,,,,,,,,,PF,3,strong,,,,,,,,3,2.21573,,,,,,,,,,,,,,,,,,,,,,,,,,,,3,strong,-46,-113,1,0,0,response5disk,5,37,0,-6,1,0,0,rectangle,0,-6,1,0,0,6,0,0.003175,0,-6,1,0,0,0,36,36,101,1,0,,,,,,,,,,,,,,,,,,,,,
,,,,,,,,,,,,,,,,,,,,,,,,,,,,,,,,,,,,,,,,,,5f4803ba0013be282bd72b55,606a10b4db63559c70b4c56e,2021-04-04_21h18.24.694,Colour_Similarity_Experiment,2020.2.10,Linux x86_64,60,60675255c767bca6388caeee,16.82046233,16.67747327,16.69482109,16.66598139,16.66330172,16.67747327,,,,,,,,,,,,,,,,,,,,PF,3,weak,,,,,,,,2,1.733305,,,,,,,,,,,,,,,,,,,,,,,,,,,,9,weak,-87,-34,1,0,0,response5disk,9,38,-40,1,1,0,0,rectangle,-40,1,1,0,0,6,0,0.000355,-40,1,1,0,0,0,37,37,106,1,0,,,,,,,,,,,,,,,,,,,,,
,,,,,,,,,,,,,,,,,,,,,,,,,,,,,,,,,,,,,,,,,,5f4803ba0013be282bd72b55,606a10b4db63559c70b4c56e,2021-04-04_21h18.24.694,Colour_Similarity_Experiment,2020.2.10,Linux x86_64,60,60675255c767bca6388caeee,16.82046233,16.67747327,16.69482109,16.66598139,16.66330172,16.67747327,,,,,,,,,,,,,,,,,,,,PF,3,strong,,,,,,,,4,3.53351,,,,,,,,,,,,,,,,,,,,,,,,,,,,6,strong,77,-89,1,0,0,response3disk,9,39,19,12,1,0,0,rectangle,100,-59,1,0,0,5,5,1.966325,20,4,1,0,0,0,38,38,160,1,1,response3disk_3,rectangle,,,,,,,,,,,,,,,,,,,
,,,,,,,,,,,,,,,,,,,,,,,,,,,,,,,,,,,,,,,,,,5f4803ba0013be282bd72b55,606a10b4db63559c70b4c56e,2021-04-04_21h18.24.694,Colour_Similarity_Experiment,2020.2.10,Linux x86_64,60,60675255c767bca6388caeee,16.82046233,16.67747327,16.69482109,16.66598139,16.66330172,16.67747327,,,,,,,,,,,,,,,,,,,,PF,3,strong,,,,,,,,2,1.483275,,,,,,,,,,,,,,,,,,,,,,,,,,,,4,strong,-56,-43,1,0,0,response5disk,4,40,-4,-18,1,0,0,rectangle,-4,-18,1,0,0,5,0,0.00321,-4,-18,1,0,0,0,39,39,84,1,0,,,,,,,,,,,,,,,,,,,,,
,,,,,,,,,,,,,,,,,,,,,,,,,,,,,,,,,,,,,,,,,,5f4803ba0013be282bd72b55,606a10b4db63559c70b4c56e,2021-04-04_21h18.24.694,Colour_Similarity_Experiment,2020.2.10,Linux x86_64,60,60675255c767bca6388caeee,16.82046233,16.67747327,16.69482109,16.66598139,16.66330172,16.67747327,,,,,,,,,,,,,,,,,,,,PF,3,strong,,,,,,,,2,1.484305,,,,,,,,,,,,,,,,,,,,,,,,,,,,4,strong,-63,-50,1,0,0,response5disk,9,41,32,-11,1,0,0,rectangle,32,-11,1,0,0,5,0,0.000405,32,-11,1,0,0,0,40,40,90,1,0,,,,,,,,,,,,,,,,,,,,,
,,,,,,,,,,,,,,,,,,,,,,,,,,,,,,,,,,,,,,,,,,5f4803ba0013be282bd72b55,606a10b4db63559c70b4c56e,2021-04-04_21h18.24.694,Colour_Similarity_Experiment,2020.2.10,Linux x86_64,60,60675255c767bca6388caeee,16.82046233,16.67747327,16.69482109,16.66598139,16.66330172,16.67747327,,,,,,,,,,,,,,,,,,,,PF,3,strong,,,,,,,,5,2.1175,,,,,,,,,,,,,,,,,,,,,,,,,,,,5,strong,82,-55,1,0,0,response3disk,5,42,10,15,1,0,0,rectangle,10,15,1,0,0,5,1,0.003185,10,15,1,0,0,0,41,41,19,1,0,,,,,,,,,,,,,,,,,,,,,
,,,,,,,,,,,,,,,,,,,,,,,,,,,,,,,,,,,,,,,,,,5f4803ba0013be282bd72b55,606a10b4db63559c70b4c56e,2021-04-04_21h18.24.694,Colour_Similarity_Experiment,2020.2.10,Linux x86_64,60,60675255c767bca6388caeee,16.82046233,16.67747327,16.69482109,16.66598139,16.66330172,16.67747327,,,,,,,,,,,,,,,,,,,,PF,3,weak,,,,,,,,2,5.417575,,,,,,,,,,,,,,,,,,,,,,,,,,,,3,weak,-85,-39,1,0,0,response5disk,5,43,3,-2,1,0,0,rectangle,3,-2,1,0,0,5,1,0.000515,3,-2,1,0,0,0,42,42,66,1,0,,,,,,,,,,,,,,,,,,,,,
,,,,,,,,,,,,,,,,,,,,,,,,,,,,,,,,,,,,,,,,,,5f4803ba0013be282bd72b55,606a10b4db63559c70b4c56e,2021-04-04_21h18.24.694,Colour_Similarity_Experiment,2020.2.10,Linux x86_64,60,60675255c767bca6388caeee,16.82046233,16.67747327,16.69482109,16.66598139,16.66330172,16.67747327,,,,,,,,,,,,,,,,,,,,PF,3,strong,,,,,,,,5,1.94965,,,,,,,,,,,,,,,,,,,,,,,,,,,,8,strong,84,-75,1,0,0,response3disk,1,44,26,4,1,0,0,rectangle,26,4,1,0,0,5,0,0.00325,26,4,1,0,0,0,43,43,20,1,0,,,,,,,,,,,,,,,,,,,,,
,,,,,,,,,,,,,,,,,,,,,,,,,,,,,,,,,,,,,,,,,,5f4803ba0013be282bd72b55,606a10b4db63559c70b4c56e,2021-04-04_21h18.24.694,Colour_Similarity_Experiment,2020.2.10,Linux x86_64,60,60675255c767bca6388caeee,16.82046233,16.67747327,16.69482109,16.66598139,16.66330172,16.67747327,,,,,,,,,,,,,,,,,,,,PF,3,weak,,,,,,,,5,1.466945,,,,,,,,,,,,,,,,,,,,,,,,,,,,5,weak,86,-55,1,0,0,response3disk,2,45,32,2,1,0,0,rectangle,32,2,1,0,0,5,2,0.003665,32,2,1,0,0,0,44,44,129,1,0,,,,,,,,,,,,,,,,,,,,,
,,,,,,,,,,,,,,,,,,,,,,,,,,,,,,,,,,,,,,,,,,5f4803ba0013be282bd72b55,606a10b4db63559c70b4c56e,2021-04-04_21h18.24.694,Colour_Similarity_Experiment,2020.2.10,Linux x86_64,60,60675255c767bca6388caeee,16.82046233,16.67747327,16.69482109,16.66598139,16.66330172,16.67747327,,,,,,,,,,,,,,,,,,,,PF,3,weak,,,,,,,,5,1.5173,,,,,,,,,,,,,,,,,,,,,,,,,,,,6,weak,78,-48,1,0,0,response3disk,9,46,27,2,1,0,0,rectangle,27,2,1,0,0,5,6,0.003645,27,2,1,0,0,0,45,45,45,1,0,,,,,,,,,,,,,,,,,,,,,
,,,,,,,,,,,,,,,,,,,,,,,,,,,,,,,,,,,,,,,,,,5f4803ba0013be282bd72b55,606a10b4db63559c70b4c56e,2021-04-04_21h18.24.694,Colour_Similarity_Experiment,2020.2.10,Linux x86_64,60,60675255c767bca6388caeee,16.82046233,16.67747327,16.69482109,16.66598139,16.66330172,16.67747327,,,,,,,,,,,,,,,,,,,,PF,3,strong,,,,,,,,5,1.300805,,,,,,,,,,,,,,,,,,,,,,,,,,,,2,strong,82,-42,1,0,0,response3disk,3,47,42,-5,1,0,0,rectangle,-55,92,1,0,0,0,0,2.566515,-19,10,1,0,0,0,46,46,104,1,1,response7disk_3,rectangle,,,,,,,,,,,,,,,,,,,
,,,,,,,,,,,,,,,,,,,,,,,,,,,,,,,,,,,,,,,,,,5f4803ba0013be282bd72b55,606a10b4db63559c70b4c56e,2021-04-04_21h18.24.694,Colour_Similarity_Experiment,2020.2.10,Linux x86_64,60,60675255c767bca6388caeee,16.82046233,16.67747327,16.69482109,16.66598139,16.66330172,16.67747327,,,,,,,,,,,,,,,,,,,,PF,3,strong,,,,,,,,4,2.199835,,,,,,,,,,,,,,,,,,,,,,,,,,,,2,strong,37,-111,1,0,0,response3disk,8,48,-5,-1,1,0,0,rectangle,-5,-1,1,0,0,0,1,0.00495,-5,-1,1,0,0,0,47,47,62,1,0,,,,,,,,,,,,,,,,,,,,,
,,,,,,,,,,,,,,,,,,,,,,,,,,,,,,,,,,,,,,,,,,5f4803ba0013be282bd72b55,606a10b4db63559c70b4c56e,2021-04-04_21h18.24.694,Colour_Similarity_Experiment,2020.2.10,Linux x86_64,60,60675255c767bca6388caeee,16.82046233,16.67747327,16.69482109,16.66598139,16.66330172,16.67747327,,,,,,,,,,,,,,,,,,,,PF,3,strong,,,,,,,,2,2.067525,,,,,,,,,,,,,,,,,,,,,,,,,,,,2,strong,-97,-38,1,0,0,response5disk,2,49,4,1,1,0,0,rectangle,4,1,1,0,0,0,3,0.003045,4,1,1,0,0,0,48,48,142,1,0,,,,,,,,,,,,,,,,,,,,,
,,,,,,,,,,,,,,,,,,,,,,,,,,,,,,,,,,,,,,,,,,5f4803ba0013be282bd72b55,606a10b4db63559c70b4c56e,2021-04-04_21h18.24.694,Colour_Similarity_Experiment,2020.2.10,Linux x86_64,60,60675255c767bca6388caeee,16.82046233,16.67747327,16.69482109,16.66598139,16.66330172,16.67747327,,,,,,,,,,,,,,,,,,,,PF,3,weak,,,,,,,,2,2.916945,,,,,,,,,,,,,,,,,,,,,,,,,,,,6,weak,-90,-49,1,0,0,response5disk,5,50,6,-8,1,0,0,rectangle,6,-8,1,0,0,0,0,0.00325,6,-8,1,0,0,0,49,49,59,1,0,,,,,,,,,,,,,,,,,,,,,
,,,,,,,,,,,,,,,,,,,,,,,,,,,,,,,,,,,,,,,,,,5f4803ba0013be282bd72b55,606a10b4db63559c70b4c56e,2021-04-04_21h18.24.694,Colour_Similarity_Experiment,2020.2.10,Linux x86_64,60,60675255c767bca6388caeee,16.82046233,16.67747327,16.69482109,16.66598139,16.66330172,16.67747327,,,,,,,,,,,,,,,,,,,,PF,3,weak,,,,,,,,4,1.883765,,,,,,,,,,,,,,,,,,,,,,,,,,,,9,weak,65,-73,1,0,0,response3disk,5,51,31,1,1,0,0,rectangle,31,1,1,0,0,0,3,0.002895,31,1,1,0,0,0,50,50,134,1,0,,,,,,,,,,,,,,,,,,,,,
,,,,,,,,,,,,,,,,,,,,,,,,,,,,,,,,,,,,,,,,,,5f4803ba0013be282bd72b55,606a10b4db63559c70b4c56e,2021-04-04_21h18.24.694,Colour_Similarity_Experiment,2020.2.10,Linux x86_64,60,60675255c767bca6388caeee,16.82046233,16.67747327,16.69482109,16.66598139,16.66330172,16.67747327,,,,,,,,,,,,,,,,,,,,PF,3,weak,,,,,,,,3,2.15113,,,,,,,,,,,,,,,,,,,,,,,,,,,,4,weak,-56,-79,1,0,0,response5disk,2,52,-29,-5,1,0,0,rectangle,-29,-5,1,0,0,0,0,0.00302,-29,-5,1,0,0,0,51,51,108,1,0,,,,,,,,,,,,,,,,,,,,,
,,,,,,,,,,,,,,,,,,,,,,,,,,,,,,,,,,,,,,,,,,5f4803ba0013be282bd72b55,606a10b4db63559c70b4c56e,2021-04-04_21h18.24.694,Colour_Similarity_Experiment,2020.2.10,Linux x86_64,60,60675255c767bca6388caeee,16.82046233,16.67747327,16.69482109,16.66598139,16.66330172,16.67747327,,,,,,,,,,,,,,,,,,,,PF,3,strong,,,,,,,,3,1.367875,,,,,,,,,,,,,,,,,,,,,,,,,,,,9,strong,-58,-120,1,0,0,response5disk,5,53,-8,-1,1,0,0,rectangle,-8,-1,1,0,0,0,0,0.000405,-8,-1,1,0,0,0,52,52,128,1,0,,,,,,,,,,,,,,,,,,,,,
,,,,,,,,,,,,,,,,,,,,,,,,,,,,,,,,,,,,,,,,,,5f4803ba0013be282bd72b55,606a10b4db63559c70b4c56e,2021-04-04_21h18.24.694,Colour_Similarity_Experiment,2020.2.10,Linux x86_64,60,60675255c767bca6388caeee,16.82046233,16.67747327,16.69482109,16.66598139,16.66330172,16.67747327,,,,,,,,,,,,,,,,,,,,PF,3,weak,,,,,,,,3,2.067135,,,,,,,,,,,,,,,,,,,,,,,,,,,,1,weak,-41,-89,1,0,0,response5disk,8,54,-8,3,1,0,0,rectangle,-8,3,1,0,0,0,3,0.003085,-8,3,1,0,0,0,53,53,65,1,0,,,,,,,,,,,,,,,,,,,,,
,,,,,,,,,,,,,,,,,,,,,,,,,,,,,,,,,,,,,,,,,,5f4803ba0013be282bd72b55,606a10b4db63559c70b4c56e,2021-04-04_21h18.24.694,Colour_Similarity_Experiment,2020.2.10,Linux x86_64,60,60675255c767bca6388caeee,16.82046233,16.67747327,16.69482109,16.66598139,16.66330172,16.67747327,,,,,,,,,,,,,,,,,,,,PF,3,weak,,,,,,,,1,2.81721,,,,,,,,,,,,,,,,,,,,,,,,,,,,3,weak,-83,29,1,0,0,response7disk,2,55,-15,-7,1,0,0,rectangle,36,-117,1,0,0,4,4,2.91813,31,-11,1,0,0,0,54,54,36,1,1,response3disk_3,rectangle,,,,,,,,,,,,,,,,,,,
,,,,,,,,,,,,,,,,,,,,,,,,,,,,,,,,,,,,,,,,,,5f4803ba0013be282bd72b55,606a10b4db63559c70b4c56e,2021-04-04_21h18.24.694,Colour_Similarity_Experiment,2020.2.10,Linux x86_64,60,60675255c767bca6388caeee,16.82046233,16.67747327,16.69482109,16.66598139,16.66330172,16.67747327,,,,,,,,,,,,,,,,,,,,PF,3,strong,,,,,,,,5,1.63303,,,,,,,,,,,,,,,,,,,,,,,,,,,,8,strong,101,-65,1,0,0,response3disk,2,56,21,18,1,0,0,rectangle,21,18,1,0,0,4,0,0.003175,21,18,1,0,0,0,55,55,22,1,0,,,,,,,,,,,,,,,,,,,,,
,,,,,,,,,,,,,,,,,,,,,,,,,,,,,,,,,,,,,,,,,,5f4803ba0013be282bd72b55,606a10b4db63559c70b4c56e,2021-04-04_21h18.24.694,Colour_Similarity_Experiment,2020.2.10,Linux x86_64,60,60675255c767bca6388caeee,16.82046233,16.67747327,16.69482109,16.66598139,16.66330172,16.67747327,,,,,,,,,,,,,,,,,,,,PF,3,weak,,,,,,,,1,2.450075,,,,,,,,,,,,,,,,,,,,,,,,,,,,4,weak,-89,56,1,0,0,response7disk,3,57,-7,-17,1,0,0,rectangle,-7,-17,1,0,0,4,3,0.002875,-7,-17,1,0,0,0,56,56,89,1,0,,,,,,,,,,,,,,,,,,,,,
,,,,,,,,,,,,,,,,,,,,,,,,,,,,,,,,,,,,,,,,,,5f4803ba0013be282bd72b55,606a10b4db63559c70b4c56e,2021-04-04_21h18.24.694,Colour_Similarity_Experiment,2020.2.10,Linux x86_64,60,60675255c767bca6388caeee,16.82046233,16.67747327,16.69482109,16.66598139,16.66330172,16.67747327,,,,,,,,,,,,,,,,,,,,PF,3,strong,,,,,,,,4,1.734,,,,,,,,,,,,,,,,,,,,,,,,,,,,1,strong,34,-107,1,0,0,response3disk,1,58,2,8,1,0,0,rectangle,2,8,1,0,0,4,0,0.003735,2,8,1,0,0,0,57,57,151,1,0,,,,,,,,,,,,,,,,,,,,,
,,,,,,,,,,,,,,,,,,,,,,,,,,,,,,,,,,,,,,,,,,5f4803ba0013be282bd72b55,606a10b4db63559c70b4c56e,2021-04-04_21h18.24.694,Colour_Similarity_Experiment,2020.2.10,Linux x86_64,60,60675255c767bca6388caeee,16.82046233,16.67747327,16.69482109,16.66598139,16.66330172,16.67747327,,,,,,,,,,,,,,,,,,,,PF,3,strong,,,,,,,,3,1.367415,,,,,,,,,,,,,,,,,,,,,,,,,,,,9,strong,-27,-84,1,0,0,response5disk,9,59,-16,-12,1,0,0,rectangle,-16,-12,1,0,0,4,5,0.00388,-16,-12,1,0,0,0,58,58,17,1,0,,,,,,,,,,,,,,,,,,,,,
,,,,,,,,,,,,,,,,,,,,,,,,,,,,,,,,,,,,,,,,,,5f4803ba0013be282bd72b55,606a10b4db63559c70b4c56e,2021-04-04_21h18.24.694,Colour_Similarity_Experiment,2020.2.10,Linux x86_64,60,60675255c767bca6388caeee,16.82046233,16.67747327,16.69482109,16.66598139,16.66330172,16.67747327,,,,,,,,,,,,,,,,,,,,PF,3,strong,,,,,,,,5,2.500165,,,,,,,,,,,,,,,,,,,,,,,,,,,,3,strong,108,-46,1,0,0,response3disk,1,60,7,7,1,0,0,rectangle,7,7,1,0,0,4,2,0.003,7,7,1,0,0,0,59,59,125,1,0,,,,,,,,,,,,,,,,,,,,,
,,,,,,,,,,,,,,,,,,,,,,,,,,,,,,,,,,,,,,,,,,5f4803ba0013be282bd72b55,606a10b4db63559c70b4c56e,2021-04-04_21h18.24.694,Colour_Similarity_Experiment,2020.2.10,Linux x86_64,60,60675255c767bca6388caeee,16.82046233,16.67747327,16.69482109,16.66598139,16.66330172,16.67747327,,,,,,,,,,,,,,,,,,,,PF,3,strong,,,,,,,,5,1.86857,,,,,,,,,,,,,,,,,,,,,,,,,,,,6,strong,128,-89,1,0,0,response3disk,4,61,28,-8,1,0,0,rectangle,28,-8,1,0,0,4,3,0.00357,28,-8,1,0,0,0,60,60,56,1,0,,,,,,,,,,,,,,,,,,,,,
,,,,,,,,,,,,,,,,,,,,,,,,,,,,,,,,,,,,,,,,,,5f4803ba0013be282bd72b55,606a10b4db63559c70b4c56e,2021-04-04_21h18.24.694,Colour_Similarity_Experiment,2020.2.10,Linux x86_64,60,60675255c767bca6388caeee,16.82046233,16.67747327,16.69482109,16.66598139,16.66330172,16.67747327,,,,,,,,,,,,,,,,,,,,PF,3,weak,,,,,,,,3,2.083595,,,,,,,,,,,,,,,,,,,,,,,,,,,,8,weak,-43,-76,1,0,0,response5disk,7,62,-5,2,1,0,0,rectangle,-5,2,1,0,0,4,0,0.00334,-5,2,1,0,0,0,61,61,23,1,0,,,,,,,,,,,,,,,,,,,,,
,,,,,,,,,,,,,,,,,,,,,,,,,,,,,,,,,,,,,,,,,,5f4803ba0013be282bd72b55,606a10b4db63559c70b4c56e,2021-04-04_21h18.24.694,Colour_Similarity_Experiment,2020.2.10,Linux x86_64,60,60675255c767bca6388caeee,16.82046233,16.67747327,16.69482109,16.66598139,16.66330172,16.67747327,,,,,,,,,,,,,,,,,,,,PF,3,weak,,,,,,,,0,1.75037,,,,,,,,,,,,,,,,,,,,,,,,,,,,7,weak,-77,81,1,0,0,response7disk,7,63,-19,6,1,0,0,rectangle,-19,6,1,0,0,4,1,0.003555,-19,6,1,0,0,0,62,62,51,1,0,,,,,,,,,,,,,,,,,,,,,
,,,,,,,,,,,,,,,,,,,,,,,,,,,,,,,,,,,,,,,,,,5f4803ba0013be282bd72b55,606a10b4db63559c70b4c56e,2021-04-04_21h18.24.694,Colour_Similarity_Experiment,2020.2.10,Linux x86_64,60,60675255c767bca6388caeee,16.82046233,16.67747327,16.69482109,16.66598139,16.66330172,16.67747327,,,,,,,,,,,,,,,,,,,,PF,3,weak,,,,,,,,4,1.751635,,,,,,,,,,,,,,,,,,,,,,,,,,,,3,weak,42,-115,1,0,0,response3disk,6,64,12,-9,1,0,0,rectangle,12,-9,1,0,0,4,3,0.002885,12,-9,1,0,0,0,63,63,47,1,0,,,,,,,,,,,,,,,,,,,,,
,,,,,,,,,,,,,,,,,,,,,,,,,,,,,,,,,,,,,,,,,,5f4803ba0013be282bd72b55,606a10b4db63559c70b4c56e,2021-04-04_21h18.24.694,Colour_Similarity_Experiment,2020.2.10,Linux x86_64,60,60675255c767bca6388caeee,16.82046233,16.67747327,16.69482109,16.66598139,16.66330172,16.67747327,,,,,,,,,,,,,,,,,,,,PF,3,weak,,,,,,,,2,2.35065,,,,,,,,,,,,,,,,,,,,,,,,,,,,2,weak,-83,-43,1,0,0,response5disk,7,65,-5,3,1,0,0,rectangle,-5,3,1,0,0,4,2,0.003235,-5,3,1,0,0,0,64,64,107,1,0,,,,,,,,,,,,,,,,,,,,,
,,,,,,,,,,,,,,,,,,,,,,,,,,,,,,,,,,,,,,,,,,5f4803ba0013be282bd72b55,606a10b4db63559c70b4c56e,2021-04-04_21h18.24.694,Colour_Similarity_Experiment,2020.2.10,Linux x86_64,60,60675255c767bca6388caeee,16.82046233,16.67747327,16.69482109,16.66598139,16.66330172,16.67747327,,,,,,,,,,,,,,,,,,,,PF,3,weak,,,,,,,,5,1.43438,,,,,,,,,,,,,,,,,,,,,,,,,,,,6,weak,101,-71,1,0,0,response3disk,1,66,18,-3,1,0,0,rectangle,18,-3,1,0,0,4,3,0.002915,18,-3,1,0,0,0,65,65,46,1,0,,,,,,,,,,,,,,,,,,,,,
,,,,,,,,,,,,,,,,,,,,,,,,,,,,,,,,,,,,,,,,,,5f4803ba0013be282bd72b55,606a10b4db63559c70b4c56e,2021-04-04_21h18.24.694,Colour_Similarity_Experiment,2020.2.10,Linux x86_64,60,60675255c767bca6388caeee,16.82046233,16.67747327,16.69482109,16.66598139,16.66330172,16.67747327,,,,,,,,,,,,,,,,,,,,PF,3,strong,,,,,,,,7,2.250145,,,,,,,,,,,,,,,,,,,,,,,,,,,,6,strong,59,119,1,0,0,response1disk,3,67,35,14,1,0,0,rectangle,35,14,1,0,0,4,2,0.002705,35,14,1,0,0,0,66,66,21,1,0,,,,,,,,,,,,,,,,,,,,,
,,,,,,,,,,,,,,,,,,,,,,,,,,,,,,,,,,,,,,,,,,5f4803ba0013be282bd72b55,606a10b4db63559c70b4c56e,2021-04-04_21h18.24.694,Colour_Similarity_Experiment,2020.2.10,Linux x86_64,60,60675255c767bca6388caeee,16.82046233,16.67747327,16.69482109,16.66598139,16.66330172,16.67747327,,,,,,,,,,,,,,,,,,,,PF,3,strong,,,,,,,,7,1.63364,,,,,,,,,,,,,,,,,,,,,,,,,,,,3,strong,61,86,1,0,0,response1disk,3,68,35,13,1,0,0,rectangle,35,13,1,0,0,4,2,0.0005,35,13,1,0,0,0,67,67,68,1,0,,,,,,,,,,,,,,,,,,,,,
,,,,,,,,,,,,,,,,,,,,,,,,,,,,,,,,,,,,,,,,,,5f4803ba0013be282bd72b55,606a10b4db63559c70b4c56e,2021-04-04_21h18.24.694,Colour_Similarity_Experiment,2020.2.10,Linux x86_64,60,60675255c767bca6388caeee,16.82046233,16.67747327,16.69482109,16.66598139,16.66330172,16.67747327,,,,,,,,,,,,,,,,,,,,PF,3,weak,,,,,,,,3,2.44966,,,,,,,,,,,,,,,,,,,,,,,,,,,,6,weak,-57,-110,1,0,0,response5disk,6,69,-4,19,1,0,0,rectangle,-4,19,1,0,0,4,7,0.003045,-4,19,1,0,0,0,68,68,0,1,0,,,,,,,,,,,,,,,,,,,,,
,,,,,,,,,,,,,,,,,,,,,,,,,,,,,,,,,,,,,,,,,,5f4803ba0013be282bd72b55,606a10b4db63559c70b4c56e,2021-04-04_21h18.24.694,Colour_Similarity_Experiment,2020.2.10,Linux x86_64,60,60675255c767bca6388caeee,16.82046233,16.67747327,16.69482109,16.66598139,16.66330172,16.67747327,,,,,,,,,,,,,,,,,,,,PF,3,strong,,,,,,,,6,1.78354,,,,,,,,,,,,,,,,,,,,,,,,,,,,2,strong,90,53,1,0,0,response1disk,5,70,7,-11,1,0,0,rectangle,7,-11,1,0,0,4,3,0.002995,7,-11,1,0,0,0,69,69,80,1,0,,,,,,,,,,,,,,,,,,,,,
,,,,,,,,,,,,,,,,,,,,,,,,,,,,,,,,,,,,,,,,,,5f4803ba0013be282bd72b55,606a10b4db63559c70b4c56e,2021-04-04_21h18.24.694,Colour_Similarity_Experiment,2020.2.10,Linux x86_64,60,60675255c767bca6388caeee,16.82046233,16.67747327,16.69482109,16.66598139,16.66330172,16.67747327,,,,,,,,,,,,,,,,,,,,PF,3,weak,,,,,,,,2,2.4007,,,,,,,,,,,,,,,,,,,,,,,,,,,,5,weak,-95,-47,1,0,0,response5disk,7,71,-22,-19,1,0,0,rectangle,-22,-19,1,0,0,4,3,0.00049,-22,-19,1,0,0,0,70,70,146,1,0,,,,,,,,,,,,,,,,,,,,,
,,,,,,,,,,,,,,,,,,,,,,,,,,,,,,,,,,,,,,,,,,5f4803ba0013be282bd72b55,606a10b4db63559c70b4c56e,2021-04-04_21h18.24.694,Colour_Similarity_Experiment,2020.2.10,Linux x86_64,60,60675255c767bca6388caeee,16.82046233,16.67747327,16.69482109,16.66598139,16.66330172,16.67747327,,,,,,,,,,,,,,,,,,,,PF,3,weak,,,,,,,,1,1.41716,,,,,,,,,,,,,,,,,,,,,,,,,,,,9,weak,-106,64,1,0,0,response7disk,7,72,-27,3,1,0,0,rectangle,-27,3,1,0,0,4,3,0.00033,-27,3,1,0,0,0,71,71,121,1,0,,,,,,,,,,,,,,,,,,,,,
,,,,,,,,,,,,,,,,,,,,,,,,,,,,,,,,,,,,,,,,,,5f4803ba0013be282bd72b55,606a10b4db63559c70b4c56e,2021-04-04_21h18.24.694,Colour_Similarity_Experiment,2020.2.10,Linux x86_64,60,60675255c767bca6388caeee,16.82046233,16.67747327,16.69482109,16.66598139,16.66330172,16.67747327,,,,,,,,,,,,,,,,,,,,PF,3,strong,,,,,,,,6,2.817775,,,,,,,,,,,,,,,,,,,,,,,,,,,,9,strong,106,61,1,0,0,response1disk,6,73,-25,-3,1,0,0,rectangle,-25,-3,1,0,0,4,7,0.002775,-25,-3,1,0,0,0,72,72,117,1,0,,,,,,,,,,,,,,,,,,,,,
,,,,,,,,,,,,,,,,,,,,,,,,,,,,,,,,,,,,,,,,,,5f4803ba0013be282bd72b55,606a10b4db63559c70b4c56e,2021-04-04_21h18.24.694,Colour_Similarity_Experiment,2020.2.10,Linux x86_64,60,60675255c767bca6388caeee,16.82046233,16.67747327,16.69482109,16.66598139,16.66330172,16.67747327,,,,,,,,,,,,,,,,,,,,PF,3,weak,,,,,,,,4,1.48359,,,,,,,,,,,,,,,,,,,,,,,,,,,,3,weak,47,-81,1,0,0,response3disk,7,74,18,1,1,0,0,rectangle,18,1,1,0,0,4,3,0.003415,18,1,1,0,0,0,73,73,41,1,0,,,,,,,,,,,,,,,,,,,,,
,,,,,,,,,,,,,,,,,,,,,,,,,,,,,,,,,,,,,,,,,,5f4803ba0013be282bd72b55,606a10b4db63559c70b4c56e,2021-04-04_21h18.24.694,Colour_Similarity_Experiment,2020.2.10,Linux x86_64,60,60675255c767bca6388caeee,16.82046233,16.67747327,16.69482109,16.66598139,16.66330172,16.67747327,,,,,,,,,,,,,,,,,,,,PF,3,weak,,,,,,,,3,1.61898,,,,,,,,,,,,,,,,,,,,,,,,,,,,8,weak,-60,-98,1,0,0,response5disk,4,75,2,-11,1,0,0,rectangle,2,-11,1,0,0,4,4,0.006345,2,-11,1,0,0,0,74,74,78,1,0,,,,,,,,,,,,,,,,,,,,,
,,,,,,,,,,,,,,,,,,,,,,,,,,,,,,,,,,,,,,,,,,5f4803ba0013be282bd72b55,606a10b4db63559c70b4c56e,2021-04-04_21h18.24.694,Colour_Similarity_Experiment,2020.2.10,Linux x86_64,60,60675255c767bca6388caeee,16.82046233,16.67747327,16.69482109,16.66598139,16.66330172,16.67747327,,,,,,,,,,,,,,,,,,,,PF,3,weak,,,,,,,,2,1.833,,,,,,,,,,,,,,,,,,,,,,,,,,,,5,weak,-103,-37,1,0,0,response5disk,5,76,18,1,1,0,0,rectangle,18,1,1,0,0,4,2,0.00335,18,1,1,0,0,0,75,75,94,1,0,,,,,,,,,,,,,,,,,,,,,
,,,,,,,,,,,,,,,,,,,,,,,,,,,,,,,,,,,,,,,,,,5f4803ba0013be282bd72b55,606a10b4db63559c70b4c56e,2021-04-04_21h18.24.694,Colour_Similarity_Experiment,2020.2.10,Linux x86_64,60,60675255c767bca6388caeee,16.82046233,16.67747327,16.69482109,16.66598139,16.66330172,16.67747327,,,,,,,,,,,,,,,,,,,,PF,3,weak,,,,,,,,4,1.73227,,,,,,,,,,,,,,,,,,,,,,,,,,,,1,weak,56,-89,1,0,0,response3disk,7,77,-1,-2,1,0,0,rectangle,-1,-2,1,0,0,4,6,0.003215,-1,-2,1,0,0,0,76,76,150,1,0,,,,,,,,,,,,,,,,,,,,,
,,,,,,,,,,,,,,,,,,,,,,,,,,,,,,,,,,,,,,,,,,5f4803ba0013be282bd72b55,606a10b4db63559c70b4c56e,2021-04-04_21h18.24.694,Colour_Similarity_Experiment,2020.2.10,Linux x86_64,60,60675255c767bca6388caeee,16.82046233,16.67747327,16.69482109,16.66598139,16.66330172,16.67747327,,,,,,,,,,,,,,,,,,,,PF,3,strong,,,,,,,,6,2.58306,,,,,,,,,,,,,,,,,,,,,,,,,,,,5,strong,97,71,1,0,0,response1disk,1,78,39,9,1,0,0,rectangle,39,9,1,0,0,4,1,0.00323,39,9,1,0,0,0,77,77,131,1,0,,,,,,,,,,,,,,,,,,,,,
,,,,,,,,,,,,,,,,,,,,,,,,,,,,,,,,,,,,,,,,,,5f4803ba0013be282bd72b55,606a10b4db63559c70b4c56e,2021-04-04_21h18.24.694,Colour_Similarity_Experiment,2020.2.10,Linux x86_64,60,60675255c767bca6388caeee,16.82046233,16.67747327,16.69482109,16.66598139,16.66330172,16.67747327,,,,,,,,,,,,,,,,,,,,PF,3,weak,,,,,,,,1,1.43369,,,,,,,,,,,,,,,,,,,,,,,,,,,,7,weak,-106,51,1,0,0,response7disk,5,79,-4,-9,1,0,0,rectangle,-4,-9,1,0,0,4,2,0.002905,-4,-9,1,0,0,0,78,78,92,1,0,,,,,,,,,,,,,,,,,,,,,
,,,,,,,,,,,,,,,,,,,,,,,,,,,,,,,,,,,,,,,,,,5f4803ba0013be282bd72b55,606a10b4db63559c70b4c56e,2021-04-04_21h18.24.694,Colour_Similarity_Experiment,2020.2.10,Linux x86_64,60,60675255c767bca6388caeee,16.82046233,16.67747327,16.69482109,16.66598139,16.66330172,16.67747327,,,,,,,,,,,,,,,,,,,,PF,3,weak,,,,,,,,7,1.59927,,,,,,,,,,,,,,,,,,,,,,,,,,,,3,weak,63,83,1,0,0,response1disk,8,80,6,17,1,0,0,rectangle,6,17,1,0,0,4,0,0.00305,6,17,1,0,0,0,79,79,3,1,0,,,,,,,,,,,,,,,,,,,,,
,,,,,,,,,,,,,,,,,,,,,,,,,,,,,,,,,,,,,,,,,,5f4803ba0013be282bd72b55,606a10b4db63559c70b4c56e,2021-04-04_21h18.24.694,Colour_Similarity_Experiment,2020.2.10,Linux x86_64,60,60675255c767bca6388caeee,16.82046233,16.67747327,16.69482109,16.66598139,16.66330172,16.67747327,,,,,,,,,,,,,,,,,,,,PF,3,strong,,,,,,,,0,1.450375,,,,,,,,,,,,,,,,,,,,,,,,,,,,6,strong,-43,106,1,0,0,response7disk,6,81,-14,0,1,0,0,rectangle,-14,0,1,0,0,4,3,0.002755,-14,0,1,0,0,0,80,80,91,1,0,,,,,,,,,,,,,,,,,,,,,
,,,,,,,,,,,,,,,,,,,,,,,,,,,,,,,,,,,,,,,,,,5f4803ba0013be282bd72b55,606a10b4db63559c70b4c56e,2021-04-04_21h18.24.694,Colour_Similarity_Experiment,2020.2.10,Linux x86_64,60,60675255c767bca6388caeee,16.82046233,16.67747327,16.69482109,16.66598139,16.66330172,16.67747327,,,,,,,,,,,,,,,,,,,,PF,3,strong,,,,,,,,6,1.41682,,,,,,,,,,,,,,,,,,,,,,,,,,,,3,strong,103,52,1,0,0,response1disk,9,82,20,11,1,0,0,rectangle,20,11,1,0,0,4,6,0.003075,20,11,1,0,0,0,81,81,143,1,0,,,,,,,,,,,,,,,,,,,,,
,,,,,,,,,,,,,,,,,,,,,,,,,,,,,,,,,,,,,,,,,,5f4803ba0013be282bd72b55,606a10b4db63559c70b4c56e,2021-04-04_21h18.24.694,Colour_Similarity_Experiment,2020.2.10,Linux x86_64,60,60675255c767bca6388caeee,16.82046233,16.67747327,16.69482109,16.66598139,16.66330172,16.67747327,,,,,,,,,,,,,,,,,,,,PF,3,strong,,,,,,,,6,1.600815,,,,,,,,,,,,,,,,,,,,,,,,,,,,1,strong,87,67,1,0,0,response1disk,9,83,6,7,1,0,0,rectangle,6,7,1,0,0,4,5,0.003065,6,7,1,0,0,0,82,82,123,1,0,,,,,,,,,,,,,,,,,,,,,
,,,,,,,,,,,,,,,,,,,,,,,,,,,,,,,,,,,,,,,,,,5f4803ba0013be282bd72b55,606a10b4db63559c70b4c56e,2021-04-04_21h18.24.694,Colour_Similarity_Experiment,2020.2.10,Linux x86_64,60,60675255c767bca6388caeee,16.82046233,16.67747327,16.69482109,16.66598139,16.66330172,16.67747327,,,,,,,,,,,,,,,,,,,,PF,3,weak,,,,,,,,7,1.766115,,,,,,,,,,,,,,,,,,,,,,,,,,,,5,weak,78,105,1,0,0,response1disk,1,84,47,11,1,0,0,rectangle,116,62,1,0,0,6,6,1.9513,-22,-9,1,0,0,0,83,83,159,1,1,response1disk_3,rectangle,,,,,,,,,,,,,,,,,,,
,,,,,,,,,,,,,,,,,,,,,,,,,,,,,,,,,,,,,,,,,,5f4803ba0013be282bd72b55,606a10b4db63559c70b4c56e,2021-04-04_21h18.24.694,Colour_Similarity_Experiment,2020.2.10,Linux x86_64,60,60675255c767bca6388caeee,16.82046233,16.67747327,16.69482109,16.66598139,16.66330172,16.67747327,,,,,,,,,,,,,,,,,,,,PF,3,strong,,,,,,,,4,2.852135,,,,,,,,,,,,,,,,,,,,,,,,,,,,8,strong,83,-115,1,0,0,response3disk,3,85,-8,2,1,0,0,rectangle,-8,2,1,0,0,6,1,0.003255,-8,2,1,0,0,0,84,84,154,1,0,,,,,,,,,,,,,,,,,,,,,
,,,,,,,,,,,,,,,,,,,,,,,,,,,,,,,,,,,,,,,,,,5f4803ba0013be282bd72b55,606a10b4db63559c70b4c56e,2021-04-04_21h18.24.694,Colour_Similarity_Experiment,2020.2.10,Linux x86_64,60,60675255c767bca6388caeee,16.82046233,16.67747327,16.69482109,16.66598139,16.66330172,16.67747327,,,,,,,,,,,,,,,,,,,,PF,3,weak,,,,,,,,2,2.48441,,,,,,,,,,,,,,,,,,,,,,,,,,,,4,weak,-71,-38,1,0,0,response5disk,7,86,8,1,1,0,0,rectangle,8,1,1,0,0,6,7,0.003395,8,1,1,0,0,0,85,85,38,1,0,,,,,,,,,,,,,,,,,,,,,
,,,,,,,,,,,,,,,,,,,,,,,,,,,,,,,,,,,,,,,,,,5f4803ba0013be282bd72b55,606a10b4db63559c70b4c56e,2021-04-04_21h18.24.694,Colour_Similarity_Experiment,2020.2.10,Linux x86_64,60,60675255c767bca6388caeee,16.82046233,16.67747327,16.69482109,16.66598139,16.66330172,16.67747327,,,,,,,,,,,,,,,,,,,,PF,3,weak,,,,,,,,2,1.299295,,,,,,,,,,,,,,,,,,,,,,,,,,,,1,weak,-65,-41,1,0,0,response5disk,2,87,20,3,1,0,0,rectangle,20,3,1,0,0,6,4,0.00298,20,3,1,0,0,0,86,86,24,1,0,,,,,,,,,,,,,,,,,,,,,
,,,,,,,,,,,,,,,,,,,,,,,,,,,,,,,,,,,,,,,,,,5f4803ba0013be282bd72b55,606a10b4db63559c70b4c56e,2021-04-04_21h18.24.694,Colour_Similarity_Experiment,2020.2.10,Linux x86_64,60,60675255c767bca6388caeee,16.82046233,16.67747327,16.69482109,16.66598139,16.66330172,16.67747327,,,,,,,,,,,,,,,,,,,,PF,3,strong,,,,,,,,4,2.750655,,,,,,,,,,,,,,,,,,,,,,,,,,,,7,strong,61,-97,1,0,0,response3disk,3,88,38,-14,1,0,0,rectangle,38,-14,1,0,0,6,6,0.002835,38,-14,1,0,0,0,87,87,73,1,0,,,,,,,,,,,,,,,,,,,,,
,,,,,,,,,,,,,,,,,,,,,,,,,,,,,,,,,,,,,,,,,,5f4803ba0013be282bd72b55,606a10b4db63559c70b4c56e,2021-04-04_21h18.24.694,Colour_Similarity_Experiment,2020.2.10,Linux x86_64,60,60675255c767bca6388caeee,16.82046233,16.67747327,16.69482109,16.66598139,16.66330172,16.67747327,,,,,,,,,,,,,,,,,,,,PF,3,weak,,,,,,,,1,2.316755,,,,,,,,,,,,,,,,,,,,,,,,,,,,1,weak,-95,50,1,0,0,response7disk,6,89,3,-16,1,0,0,rectangle,3,-16,1,0,0,6,0,0.003305,3,-16,1,0,0,0,88,88,144,1,0,,,,,,,,,,,,,,,,,,,,,
,,,,,,,,,,,,,,,,,,,,,,,,,,,,,,,,,,,,,,,,,,5f4803ba0013be282bd72b55,606a10b4db63559c70b4c56e,2021-04-04_21h18.24.694,Colour_Similarity_Experiment,2020.2.10,Linux x86_64,60,60675255c767bca6388caeee,16.82046233,16.67747327,16.69482109,16.66598139,16.66330172,16.67747327,,,,,,,,,,,,,,,,,,,,PF,3,weak,,,,,,,,1,0.91701,,,,,,,,,,,,,,,,,,,,,,,,,,,,4,weak,-81,21,1,0,0,response7disk,6,90,9,-4,1,0,0,rectangle,9,-4,1,0,0,6,2,0.003595,9,-4,1,0,0,0,89,89,120,1,0,,,,,,,,,,,,,,,,,,,,,
,,,,,,,,,,,,,,,,,,,,,,,,,,,,,,,,,,,,,,,,,,5f4803ba0013be282bd72b55,606a10b4db63559c70b4c56e,2021-04-04_21h18.24.694,Colour_Similarity_Experiment,2020.2.10,Linux x86_64,60,60675255c767bca6388caeee,16.82046233,16.67747327,16.69482109,16.66598139,16.66330172,16.67747327,,,,,,,,,,,,,,,,,,,,PF,3,weak,,,,,,,,6,1.917035,,,,,,,,,,,,,,,,,,,,,,,,,,,,4,weak,81,67,1,0,0,response1disk,1,91,31,13,1,0,0,rectangle,31,13,1,0,0,6,6,0.002955,31,13,1,0,0,0,90,90,115,1,0,,,,,,,,,,,,,,,,,,,,,
,,,,,,,,,,,,,,,,,,,,,,,,,,,,,,,,,,,,,,,,,,5f4803ba0013be282bd72b55,606a10b4db63559c70b4c56e,2021-04-04_21h18.24.694,Colour_Similarity_Experiment,2020.2.10,Linux x86_64,60,60675255c767bca6388caeee,16.82046233,16.67747327,16.69482109,16.66598139,16.66330172,16.67747327,,,,,,,,,,,,,,,,,,,,PF,3,weak,,,,,,,,5,1.96754,,,,,,,,,,,,,,,,,,,,,,,,,,,,4,weak,115,-64,1,0,0,response3disk,9,92,-13,0,1,0,0,rectangle,-13,0,1,0,0,6,4,0.00327,-13,0,1,0,0,0,91,91,75,1,0,,,,,,,,,,,,,,,,,,,,,
,,,,,,,,,,,,,,,,,,,,,,,,,,,,,,,,,,,,,,,,,,5f4803ba0013be282bd72b55,606a10b4db63559c70b4c56e,2021-04-04_21h18.24.694,Colour_Similarity_Experiment,2020.2.10,Linux x86_64,60,60675255c767bca6388caeee,16.82046233,16.67747327,16.69482109,16.66598139,16.66330172,16.67747327,,,,,,,,,,,,,,,,,,,,PF,3,weak,,,,,,,,6,1.80036,,,,,,,,,,,,,,,,,,,,,,,,,,,,6,weak,107,43,1,0,0,response1disk,8,93,19,-1,1,0,0,rectangle,19,-1,1,0,0,6,2,0.002955,19,-1,1,0,0,0,92,92,64,1,0,,,,,,,,,,,,,,,,,,,,,
,,,,,,,,,,,,,,,,,,,,,,,,,,,,,,,,,,,,,,,,,,5f4803ba0013be282bd72b55,606a10b4db63559c70b4c56e,2021-04-04_21h18.24.694,Colour_Similarity_Experiment,2020.2.10,Linux x86_64,60,60675255c767bca6388caeee,16.82046233,16.67747327,16.69482109,16.66598139,16.66330172,16.67747327,,,,,,,,,,,,,,,,,,,,PF,3,weak,,,,,,,,2,2.01706,,,,,,,,,,,,,,,,,,,,,,,,,,,,5,weak,-119,-53,1,0,0,response5disk,4,94,7,-4,1,0,0,rectangle,7,-4,1,0,0,6,4,0.002945,7,-4,1,0,0,0,93,93,54,1,0,,,,,,,,,,,,,,,,,,,,,
,,,,,,,,,,,,,,,,,,,,,,,,,,,,,,,,,,,,,,,,,,5f4803ba0013be282bd72b55,606a10b4db63559c70b4c56e,2021-04-04_21h18.24.694,Colour_Similarity_Experiment,2020.2.10,Linux x86_64,60,60675255c767bca6388caeee,16.82046233,16.67747327,16.69482109,16.66598139,16.66330172,16.67747327,,,,,,,,,,,,,,,,,,,,PF,3,weak,,,,,,,,3,1.400595,,,,,,,,,,,,,,,,,,,,,,,,,,,,8,weak,-35,-51,1,0,0,response5disk,3,95,13,11,1,0,0,rectangle,13,11,1,0,0,6,5,0.003025,13,11,1,0,0,0,94,94,71,1,0,,,,,,,,,,,,,,,,,,,,,
,,,,,,,,,,,,,,,,,,,,,,,,,,,,,,,,,,,,,,,,,,5f4803ba0013be282bd72b55,606a10b4db63559c70b4c56e,2021-04-04_21h18.24.694,Colour_Similarity_Experiment,2020.2.10,Linux x86_64,60,60675255c767bca6388caeee,16.82046233,16.67747327,16.69482109,16.66598139,16.66330172,16.67747327,,,,,,,,,,,,,,,,,,,,PF,3,weak,,,,,,,,5,1.60138,,,,,,,,,,,,,,,,,,,,,,,,,,,,1,weak,63,-57,1,0,0,response3disk,3,96,29,-20,1,0,0,rectangle,29,-20,1,0,0,6,2,0.002585,29,-20,1,0,0,0,95,95,1,1,0,,,,,,,,,,,,,,,,,,,,,
,,,,,,,,,,,,,,,,,,,,,,,,,,,,,,,,,,,,,,,,,,5f4803ba0013be282bd72b55,606a10b4db63559c70b4c56e,2021-04-04_21h18.24.694,Colour_Similarity_Experiment,2020.2.10,Linux x86_64,60,60675255c767bca6388caeee,16.82046233,16.67747327,16.69482109,16.66598139,16.66330172,16.67747327,,,,,,,,,,,,,,,,,,,,PF,3,strong,,,,,,,,1,2.101045,,,,,,,,,,,,,,,,,,,,,,,,,,,,5,strong,-87,44,1,0,0,response7disk,3,97,18,-13,1,0,0,rectangle,18,-13,1,0,0,6,6,0.00309,18,-13,1,0,0,0,96,96,25,1,0,,,,,,,,,,,,,,,,,,,,,
,,,,,,,,,,,,,,,,,,,,,,,,,,,,,,,,,,,,,,,,,,5f4803ba0013be282bd72b55,606a10b4db63559c70b4c56e,2021-04-04_21h18.24.694,Colour_Similarity_Experiment,2020.2.10,Linux x86_64,60,60675255c767bca6388caeee,16.82046233,16.67747327,16.69482109,16.66598139,16.66330172,16.67747327,,,,,,,,,,,,,,,,,,,,PF,3,weak,,,,,,,,1,1.115515,,,,,,,,,,,,,,,,,,,,,,,,,,,,3,weak,-86,59,1,0,0,response7disk,4,98,-8,7,1,0,0,rectangle,-8,7,1,0,0,6,6,0.000435,-8,7,1,0,0,0,97,97,30,1,0,,,,,,,,,,,,,,,,,,,,,
,,,,,,,,,,,,,,,,,,,,,,,,,,,,,,,,,,,,,,,,,,5f4803ba0013be282bd72b55,606a10b4db63559c70b4c56e,2021-04-04_21h18.24.694,Colour_Similarity_Experiment,2020.2.10,Linux x86_64,60,60675255c767bca6388caeee,16.82046233,16.67747327,16.69482109,16.66598139,16.66330172,16.67747327,,,,,,,,,,,,,,,,,,,,PF,3,strong,,,,,,,,3,2.619055,,,,,,,,,,,,,,,,,,,,,,,,,,,,7,strong,-51,-76,1,0,0,response5disk,4,99,-20,-5,1,0,0,rectangle,-20,-5,1,0,0,6,6,0.00032,-20,-5,1,0,0,0,98,98,158,1,0,,,,,,,,,,,,,,,,,,,,,
,,,,,,,,,,,,,,,,,,,,,,,,,,,,,,,,,,,,,,,,,,5f4803ba0013be282bd72b55,606a10b4db63559c70b4c56e,2021-04-04_21h18.24.694,Colour_Similarity_Experiment,2020.2.10,Linux x86_64,60,60675255c767bca6388caeee,16.82046233,16.67747327,16.69482109,16.66598139,16.66330172,16.67747327,,,,,,,,,,,,,,,,,,,,PF,3,strong,,,,,,,,3,2.26634,,,,,,,,,,,,,,,,,,,,,,,,,,,,3,strong,-51,-101,1,0,0,response5disk,2,100,-13,16,1,0,0,rectangle,-13,16,1,0,0,6,4,0.0025,-13,16,1,0,0,0,99,99,93,1,0,,,,,,,,,,,,,,,,,,,,,
,,,,,,,,,,,,,,,,,,,,,,,,,,,,,,,,,,,,,,,,,,5f4803ba0013be282bd72b55,606a10b4db63559c70b4c56e,2021-04-04_21h18.24.694,Colour_Similarity_Experiment,2020.2.10,Linux x86_64,60,60675255c767bca6388caeee,16.82046233,16.67747327,16.69482109,16.66598139,16.66330172,16.67747327,,,,,,,,,,,,,,,,,,,,PF,3,strong,,,,,,,,1,1.233635,,,,,,,,,,,,,,,,,,,,,,,,,,,,4,strong,-110,51,1,0,0,response7disk,5,101,-12,5,1,0,0,rectangle,-12,5,1,0,0,6,3,0.00306,-12,5,1,0,0,0,100,100,116,1,0,,,,,,,,,,,,,,,,,,,,,
,,,,,,,,,,,,,,,,,,,,,,,,,,,,,,,,,,,,,,,,,,5f4803ba0013be282bd72b55,606a10b4db63559c70b4c56e,2021-04-04_21h18.24.694,Colour_Similarity_Experiment,2020.2.10,Linux x86_64,60,60675255c767bca6388caeee,16.82046233,16.67747327,16.69482109,16.66598139,16.66330172,16.67747327,,,,,,,,,,,,,,,,,,,,PF,3,strong,,,,,,,,0,1.218285,,,,,,,,,,,,,,,,,,,,,,,,,,,,5,strong,-45,92,1,0,0,response7disk,4,102,14,-7,1,0,0,rectangle,14,-7,1,0,0,6,5,0.002865,14,-7,1,0,0,0,101,101,8,1,0,,,,,,,,,,,,,,,,,,,,,
,,,,,,,,,,,,,,,,,,,,,,,,,,,,,,,,,,,,,,,,,,5f4803ba0013be282bd72b55,606a10b4db63559c70b4c56e,2021-04-04_21h18.24.694,Colour_Similarity_Experiment,2020.2.10,Linux x86_64,60,60675255c767bca6388caeee,16.82046233,16.67747327,16.69482109,16.66598139,16.66330172,16.67747327,,,,,,,,,,,,,,,,,,,,PF,3,strong,,,,,,,,0,1.399365,,,,,,,,,,,,,,,,,,,,,,,,,,,,7,strong,-43,75,1,0,0,response7disk,7,103,-15,18,1,0,0,rectangle,-15,18,1,0,0,6,5,0.000435,-15,18,1,0,0,0,102,102,34,1,0,,,,,,,,,,,,,,,,,,,,,
,,,,,,,,,,,,,,,,,,,,,,,,,,,,,,,,,,,,,,,,,,5f4803ba0013be282bd72b55,606a10b4db63559c70b4c56e,2021-04-04_21h18.24.694,Colour_Similarity_Experiment,2020.2.10,Linux x86_64,60,60675255c767bca6388caeee,16.82046233,16.67747327,16.69482109,16.66598139,16.66330172,16.67747327,,,,,,,,,,,,,,,,,,,,PF,3,strong,,,,,,,,4,2.450715,,,,,,,,,,,,,,,,,,,,,,,,,,,,7,strong,65,-112,1,0,0,response3disk,8,104,4,20,1,0,0,rectangle,-91,-43,1,0,0,6,2,2.215815,-34,-20,1,0,0,0,103,103,97,1,1,response5disk_3,rectangle,,,,,,,,,,,,,,,,,,,
,,,,,,,,,,,,,,,,,,,,,,,,,,,,,,,,,,,,,,,,,,5f4803ba0013be282bd72b55,606a10b4db63559c70b4c56e,2021-04-04_21h18.24.694,Colour_Similarity_Experiment,2020.2.10,Linux x86_64,60,60675255c767bca6388caeee,16.82046233,16.67747327,16.69482109,16.66598139,16.66330172,16.67747327,,,,,,,,,,,,,,,,,,,,PF,3,strong,,,,,,,,4,2.16707,,,,,,,,,,,,,,,,,,,,,,,,,,,,4,strong,52,-96,1,0,0,response3disk,7,105,16,1,1,0,0,rectangle,16,1,1,0,0,6,0,0.003355,16,1,1,0,0,0,104,104,87,1,0,,,,,,,,,,,,,,,,,,,,,
,,,,,,,,,,,,,,,,,,,,,,,,,,,,,,,,,,,,,,,,,,5f4803ba0013be282bd72b55,606a10b4db63559c70b4c56e,2021-04-04_21h18.24.694,Colour_Similarity_Experiment,2020.2.10,Linux x86_64,60,60675255c767bca6388caeee,16.82046233,16.67747327,16.69482109,16.66598139,16.66330172,16.67747327,,,,,,,,,,,,,,,,,,,,PF,3,weak,,,,,,,,0,1.584005,,,,,,,,,,,,,,,,,,,,,,,,,,,,3,weak,-52,58,1,0,0,response7disk,3,106,-19,-6,1,0,0,rectangle,-19,-6,1,0,0,6,0,0.00043,-19,-6,1,0,0,0,105,105,4,1,0,,,,,,,,,,,,,,,,,,,,,
,,,,,,,,,,,,,,,,,,,,,,,,,,,,,,,,,,,,,,,,,,5f4803ba0013be282bd72b55,606a10b4db63559c70b4c56e,2021-04-04_21h18.24.694,Colour_Similarity_Experiment,2020.2.10,Linux x86_64,60,60675255c767bca6388caeee,16.82046233,16.67747327,16.69482109,16.66598139,16.66330172,16.67747327,,,,,,,,,,,,,,,,,,,,PF,3,weak,,,,,,,,7,2.534115,,,,,,,,,,,,,,,,,,,,,,,,,,,,7,weak,72,116,1,0,0,response1disk,2,107,46,4,1,0,0,rectangle,46,4,1,0,0,6,6,0.00323,46,4,1,0,0,0,106,106,32,1,0,,,,,,,,,,,,,,,,,,,,,
,,,,,,,,,,,,,,,,,,,,,,,,,,,,,,,,,,,,,,,,,,5f4803ba0013be282bd72b55,606a10b4db63559c70b4c56e,2021-04-04_21h18.24.694,Colour_Similarity_Experiment,2020.2.10,Linux x86_64,60,60675255c767bca6388caeee,16.82046233,16.67747327,16.69482109,16.66598139,16.66330172,16.67747327,,,,,,,,,,,,,,,,,,,,PF,3,weak,,,,,,,,5,2.00077,,,,,,,,,,,,,,,,,,,,,,,,,,,,9,weak,112,-90,1,0,0,response3disk,8,108,18,5,1,0,0,rectangle,18,5,1,0,0,6,1,0.002825,18,5,1,0,0,0,107,107,67,1,0,,,,,,,,,,,,,,,,,,,,,
,,,,,,,,,,,,,,,,,,,,,,,,,,,,,,,,,,,,,,,,,,5f4803ba0013be282bd72b55,606a10b4db63559c70b4c56e,2021-04-04_21h18.24.694,Colour_Similarity_Experiment,2020.2.10,Linux x86_64,60,60675255c767bca6388caeee,16.82046233,16.67747327,16.69482109,16.66598139,16.66330172,16.67747327,,,,,,,,,,,,,,,,,,,,PF,3,strong,,,,,,,,6,1.700455,,,,,,,,,,,,,,,,,,,,,,,,,,,,6,strong,100,86,1,0,0,response1disk,1,109,44,-5,1,0,0,rectangle,44,-5,1,0,0,6,4,0.00275,44,-5,1,0,0,0,108,108,5,1,0,,,,,,,,,,,,,,,,,,,,,
,,,,,,,,,,,,,,,,,,,,,,,,,,,,,,,,,,,,,,,,,,5f4803ba0013be282bd72b55,606a10b4db63559c70b4c56e,2021-04-04_21h18.24.694,Colour_Similarity_Experiment,2020.2.10,Linux x86_64,60,60675255c767bca6388caeee,16.82046233,16.67747327,16.69482109,16.66598139,16.66330172,16.67747327,,,,,,,,,,,,,,,,,,,,PF,3,weak,,,,,,,,4,3.616405,,,,,,,,,,,,,,,,,,,,,,,,,,,,4,weak,81,-126,1,0,0,response3disk,8,110,32,-10,1,0,0,rectangle,32,-10,1,0,0,6,7,0.003235,32,-10,1,0,0,0,109,109,124,1,0,,,,,,,,,,,,,,,,,,,,,
,,,,,,,,,,,,,,,,,,,,,,,,,,,,,,,,,,,,,,,,,,5f4803ba0013be282bd72b55,606a10b4db63559c70b4c56e,2021-04-04_21h18.24.694,Colour_Similarity_Experiment,2020.2.10,Linux x86_64,60,60675255c767bca6388caeee,16.82046233,16.67747327,16.69482109,16.66598139,16.66330172,16.67747327,,,,,,,,,,,,,,,,,,,,PF,3,weak,,,,,,,,6,2.267415,,,,,,,,,,,,,,,,,,,,,,,,,,,,2,weak,132,33,1,0,0,response1disk,4,111,-4,-14,1,0,0,rectangle,-4,-14,1,0,0,6,3,0.00526,-4,-14,1,0,0,0,110,110,127,1,0,,,,,,,,,,,,,,,,,,,,,
,,,,,,,,,,,,,,,,,,,,,,,,,,,,,,,,,,,,,,,,,,5f4803ba0013be282bd72b55,606a10b4db63559c70b4c56e,2021-04-04_21h18.24.694,Colour_Similarity_Experiment,2020.2.10,Linux x86_64,60,60675255c767bca6388caeee,16.82046233,16.67747327,16.69482109,16.66598139,16.66330172,16.67747327,,,,,,,,,,,,,,,,,,,,PF,3,strong,,,,,,,,6,1.483465,,,,,,,,,,,,,,,,,,,,,,,,,,,,2,strong,130,42,1,0,0,response1disk,6,112,3,5,1,0,0,rectangle,3,5,1,0,0,6,6,0.00323,3,5,1,0,0,0,111,111,40,1,0,,,,,,,,,,,,,,,,,,,,,
,,,,,,,,,,,,,,,,,,,,,,,,,,,,,,,,,,,,,,,,,,5f4803ba0013be282bd72b55,606a10b4db63559c70b4c56e,2021-04-04_21h18.24.694,Colour_Similarity_Experiment,2020.2.10,Linux x86_64,60,60675255c767bca6388caeee,16.82046233,16.67747327,16.69482109,16.66598139,16.66330172,16.67747327,,,,,,,,,,,,,,,,,,,,PF,3,strong,,,,,,,,1,2.60151,,,,,,,,,,,,,,,,,,,,,,,,,,,,8,strong,-77,44,1,0,0,response7disk,6,113,7,4,1,0,0,rectangle,7,4,1,0,0,6,0,0.0029,7,4,1,0,0,0,112,112,37,1,0,,,,,,,,,,,,,,,,,,,,,
,,,,,,,,,,,,,,,,,,,,,,,,,,,,,,,,,,,,,,,,,,5f4803ba0013be282bd72b55,606a10b4db63559c70b4c56e,2021-04-04_21h18.24.694,Colour_Similarity_Experiment,2020.2.10,Linux x86_64,60,60675255c767bca6388caeee,16.82046233,16.67747327,16.69482109,16.66598139,16.66330172,16.67747327,,,,,,,,,,,,,,,,,,,,PF,3,weak,,,,,,,,6,1.267375,,,,,,,,,,,,,,,,,,,,,,,,,,,,2,weak,104,55,1,0,0,response1disk,5,114,43,6,1,0,0,rectangle,43,6,1,0,0,6,4,0.005975,43,6,1,0,0,0,113,113,147,1,0,,,,,,,,,,,,,,,,,,,,,
,,,,,,,,,,,,,,,,,,,,,,,,,,,,,,,,,,,,,,,,,,5f4803ba0013be282bd72b55,606a10b4db63559c70b4c56e,2021-04-04_21h18.24.694,Colour_Similarity_Experiment,2020.2.10,Linux x86_64,60,60675255c767bca6388caeee,16.82046233,16.67747327,16.69482109,16.66598139,16.66330172,16.67747327,,,,,,,,,,,,,,,,,,,,PF,3,strong,,,,,,,,5,1.65076,,,,,,,,,,,,,,,,,,,,,,,,,,,,4,strong,85,-34,1,0,0,response3disk,2,115,20,10,1,0,0,rectangle,20,10,1,0,0,6,7,0.001775,20,10,1,0,0,0,114,114,13,1,0,,,,,,,,,,,,,,,,,,,,,
,,,,,,,,,,,,,,,,,,,,,,,,,,,,,,,,,,,,,,,,,,5f4803ba0013be282bd72b55,606a10b4db63559c70b4c56e,2021-04-04_21h18.24.694,Colour_Similarity_Experiment,2020.2.10,Linux x86_64,60,60675255c767bca6388caeee,16.82046233,16.67747327,16.69482109,16.66598139,16.66330172,16.67747327,,,,,,,,,,,,,,,,,,,,PF,3,strong,,,,,,,,3,7.718,,,,,,,,,,,,,,,,,,,,,,,,,,,,9,strong,-68,-148.5,1,0,0,response5disk,8,116,-3,-4,1,0,0,rectangle,-3,-4,1,0,0,6,0,0.004375,-3,-4,1,0,0,0,115,115,6,1,0,,,,,,,,,,,,,,,,,,,,,
,,,,,,,,,,,,,,,,,,,,,,,,,,,,,,,,,,,,,,,,,,5f4803ba0013be282bd72b55,606a10b4db63559c70b4c56e,2021-04-04_21h18.24.694,Colour_Similarity_Experiment,2020.2.10,Linux x86_64,60,60675255c767bca6388caeee,16.82046233,16.67747327,16.69482109,16.66598139,16.66330172,16.67747327,,,,,,,,,,,,,,,,,,,,PF,3,strong,,,,,,,,3,1.915995,,,,,,,,,,,,,,,,,,,,,,,,,,,,7,strong,-86,-96,1,0,0,response5disk,9,117,7,10,1,0,0,rectangle,7,10,1,0,0,6,4,0.002495,7,10,1,0,0,0,116,116,155,1,0,,,,,,,,,,,,,,,,,,,,,
,,,,,,,,,,,,,,,,,,,,,,,,,,,,,,,,,,,,,,,,,,5f4803ba0013be282bd72b55,606a10b4db63559c70b4c56e,2021-04-04_21h18.24.694,Colour_Similarity_Experiment,2020.2.10,Linux x86_64,60,60675255c767bca6388caeee,16.82046233,16.67747327,16.69482109,16.66598139,16.66330172,16.67747327,,,,,,,,,,,,,,,,,,,,PF,3,weak,,,,,,,,4,4.534,,,,,,,,,,,,,,,,,,,,,,,,,,,,3,weak,58,-98,1,0,0,response3disk,9,118,16,10,1,0,0,rectangle,16,10,1,0,0,6,1,0.00357,16,10,1,0,0,0,117,117,79,1,0,,,,,,,,,,,,,,,,,,,,,
,,,,,,,,,,,,,,,,,,,,,,,,,,,,,,,,,,,,,,,,,,5f4803ba0013be282bd72b55,606a10b4db63559c70b4c56e,2021-04-04_21h18.24.694,Colour_Similarity_Experiment,2020.2.10,Linux x86_64,60,60675255c767bca6388caeee,16.82046233,16.67747327,16.69482109,16.66598139,16.66330172,16.67747327,,,,,,,,,,,,,,,,,,,,PF,3,weak,,,,,,,,5,11.88403,,,,,,,,,,,,,,,,,,,,,,,,,,,,2,weak,75,-51,1,0,0,response3disk,6,119,-3,1,1,0,0,rectangle,-3,1,1,0,0,6,1,0.000335,-3,1,1,0,0,0,118,118,113,1,0,,,,,,,,,,,,,,,,,,,,,
,,,,,,,,,,,,,,,,,,,,,,,,,,,,,,,,,,,,,,,,,,5f4803ba0013be282bd72b55,606a10b4db63559c70b4c56e,2021-04-04_21h18.24.694,Colour_Similarity_Experiment,2020.2.10,Linux x86_64,60,60675255c767bca6388caeee,16.82046233,16.67747327,16.69482109,16.66598139,16.66330172,16.67747327,,,,,,,,,,,,,,,,,,,,PF,3,strong,,,,,,,,6,1.80055,,,,,,,,,,,,,,,,,,,,,,,,,,,,1,strong,101,33,1,0,0,response1disk,7,120,12,11,1,0,0,rectangle,12,11,1,0,0,6,2,0.00309,12,11,1,0,0,0,119,119,137,1,0,,,,,,,,,,,,,,,,,,,,,
,,,,,,,,,,,,,,,,,,,,,,,,,,,,,,,,,,,,,,,,,,5f4803ba0013be282bd72b55,606a10b4db63559c70b4c56e,2021-04-04_21h18.24.694,Colour_Similarity_Experiment,2020.2.10,Linux x86_64,60,60675255c767bca6388caeee,16.82046233,16.67747327,16.69482109,16.66598139,16.66330172,16.67747327,,,,,,,,,,,,,,,,,,,,PF,3,weak,,,,,,,,4,2.667745,,,,,,,,,,,,,,,,,,,,,,,,,,,,9,weak,70,-105,1,0,0,response3disk,6,121,8,15,1,0,0,rectangle,8,15,1,0,0,6,7,0.00299,8,15,1,0,0,0,120,120,148,1,0,,,,,,,,,,,,,,,,,,,,,
,,,,,,,,,,,,,,,,,,,,,,,,,,,,,,,,,,,,,,,,,,5f4803ba0013be282bd72b55,606a10b4db63559c70b4c56e,2021-04-04_21h18.24.694,Colour_Similarity_Experiment,2020.2.10,Linux x86_64,60,60675255c767bca6388caeee,16.82046233,16.67747327,16.69482109,16.66598139,16.66330172,16.67747327,,,,,,,,,,,,,,,,,,,,PF,3,strong,,,,,,,,7,1.70011,,,,,,,,,,,,,,,,,,,,,,,,,,,,7,strong,57,117,1,0,0,response1disk,2,122,20,7,1,0,0,rectangle,20,7,1,0,0,6,6,0.002525,20,7,1,0,0,0,121,121,138,1,0,,,,,,,,,,,,,,,,,,,,,
,,,,,,,,,,,,,,,,,,,,,,,,,,,,,,,,,,,,,,,,,,5f4803ba0013be282bd72b55,606a10b4db63559c70b4c56e,2021-04-04_21h18.24.694,Colour_Similarity_Experiment,2020.2.10,Linux x86_64,60,60675255c767bca6388caeee,16.82046233,16.67747327,16.69482109,16.66598139,16.66330172,16.67747327,,,,,,,,,,,,,,,,,,,,PF,3,weak,,,,,,,,1,1.549975,,,,,,,,,,,,,,,,,,,,,,,,,,,,6,weak,-75,50,1,0,0,response7disk,7,123,-3,2,1,0,0,rectangle,-3,2,1,0,0,6,0,0.003305,-3,2,1,0,0,0,122,122,50,1,0,,,,,,,,,,,,,,,,,,,,,
,,,,,,,,,,,,,,,,,,,,,,,,,,,,,,,,,,,,,,,,,,5f4803ba0013be282bd72b55,606a10b4db63559c70b4c56e,2021-04-04_21h18.24.694,Colour_Similarity_Experiment,2020.2.10,Linux x86_64,60,60675255c767bca6388caeee,16.82046233,16.67747327,16.69482109,16.66598139,16.66330172,16.67747327,,,,,,,,,,,,,,,,,,,,PF,3,strong,,,,,,,,4,1.89227,,,,,,,,,,,,,,,,,,,,,,,,,,,,5,strong,71,-72,1,0,0,response3disk,8,124,-7,6,1,0,0,rectangle,-7,6,1,0,0,6,0,0.000525,-7,6,1,0,0,0,123,123,16,1,0,,,,,,,,,,,,,,,,,,,,,
,,,,,,,,,,,,,,,,,,,,,,,,,,,,,,,,,,,,,,,,,,5f4803ba0013be282bd72b55,606a10b4db63559c70b4c56e,2021-04-04_21h18.24.694,Colour_Similarity_Experiment,2020.2.10,Linux x86_64,60,60675255c767bca6388caeee,16.82046233,16.67747327,16.69482109,16.66598139,16.66330172,16.67747327,,,,,,,,,,,,,,,,,,,,PF,3,strong,,,,,,,,5,1.445675,,,,,,,,,,,,,,,,,,,,,,,,,,,,8,strong,105,-28,1,0,0,response3disk,5,125,19,7,1,0,0,rectangle,19,7,1,0,0,6,1,0.00318,19,7,1,0,0,0,124,124,152,1,0,,,,,,,,,,,,,,,,,,,,,
,,,,,,,,,,,,,,,,,,,,,,,,,,,,,,,,,,,,,,,,,,5f4803ba0013be282bd72b55,606a10b4db63559c70b4c56e,2021-04-04_21h18.24.694,Colour_Similarity_Experiment,2020.2.10,Linux x86_64,60,60675255c767bca6388caeee,16.82046233,16.67747327,16.69482109,16.66598139,16.66330172,16.67747327,,,,,,,,,,,,,,,,,,,,PF,3,strong,,,,,,,,6,1.3004,,,,,,,,,,,,,,,,,,,,,,,,,,,,1,strong,93,37,1,0,0,response1disk,5,126,19,12,1,0,0,rectangle,19,12,1,0,0,6,0,0.002775,19,12,1,0,0,0,125,125,82,1,0,,,,,,,,,,,,,,,,,,,,,
,,,,,,,,,,,,,,,,,,,,,,,,,,,,,,,,,,,,,,,,,,5f4803ba0013be282bd72b55,606a10b4db63559c70b4c56e,2021-04-04_21h18.24.694,Colour_Similarity_Experiment,2020.2.10,Linux x86_64,60,60675255c767bca6388caeee,16.82046233,16.67747327,16.69482109,16.66598139,16.66330172,16.67747327,,,,,,,,,,,,,,,,,,,,PF,3,weak,,,,,,,,7,1.983205,,,,,,,,,,,,,,,,,,,,,,,,,,,,7,weak,67,114,1,0,0,response1disk,1,127,21,13,1,0,0,rectangle,21,13,1,0,0,6,6,0.00326,21,13,1,0,0,0,126,126,53,1,0,,,,,,,,,,,,,,,,,,,,,
,,,,,,,,,,,,,,,,,,,,,,,,,,,,,,,,,,,,,,,,,,5f4803ba0013be282bd72b55,606a10b4db63559c70b4c56e,2021-04-04_21h18.24.694,Colour_Similarity_Experiment,2020.2.10,Linux x86_64,60,60675255c767bca6388caeee,16.82046233,16.67747327,16.69482109,16.66598139,16.66330172,16.67747327,,,,,,,,,,,,,,,,,,,,PF,3,weak,,,,,,,,7,2.3498,,,,,,,,,,,,,,,,,,,,,,,,,,,,6,weak,71,128,1,0,0,response1disk,2,128,34,0,1,0,0,rectangle,34,0,1,0,0,6,6,0.00048,34,0,1,0,0,0,127,127,130,1,0,,,,,,,,,,,,,,,,,,,,,
,,,,,,,,,,,,,,,,,,,,,,,,,,,,,,,,,,,,,,,,,,5f4803ba0013be282bd72b55,606a10b4db63559c70b4c56e,2021-04-04_21h18.24.694,Colour_Similarity_Experiment,2020.2.10,Linux x86_64,60,60675255c767bca6388caeee,16.82046233,16.67747327,16.69482109,16.66598139,16.66330172,16.67747327,,,,,,,,,,,,,,,,,,,,PF,3,weak,,,,,,,,6,2.48357,,,,,,,,,,,,,,,,,,,,,,,,,,,,5,weak,74,43,1,0,0,response1disk,3,129,20,2,1,0,0,rectangle,20,2,1,0,0,6,0,0.003185,20,2,1,0,0,0,128,128,109,1,0,,,,,,,,,,,,,,,,,,,,,
,,,,,,,,,,,,,,,,,,,,,,,,,,,,,,,,,,,,,,,,,,5f4803ba0013be282bd72b55,606a10b4db63559c70b4c56e,2021-04-04_21h18.24.694,Colour_Similarity_Experiment,2020.2.10,Linux x86_64,60,60675255c767bca6388caeee,16.82046233,16.67747327,16.69482109,16.66598139,16.66330172,16.67747327,,,,,,,,,,,,,,,,,,,,PF,3,strong,,,,,,,,6,1.250975,,,,,,,,,,,,,,,,,,,,,,,,,,,,9,strong,88,46,1,0,0,response1disk,4,130,21,1,1,0,0,rectangle,21,1,1,0,0,6,4,0.00309,21,1,1,0,0,0,129,129,60,1,0,,,,,,,,,,,,,,,,,,,,,
,,,,,,,,,,,,,,,,,,,,,,,,,,,,,,,,,,,,,,,,,,5f4803ba0013be282bd72b55,606a10b4db63559c70b4c56e,2021-04-04_21h18.24.694,Colour_Similarity_Experiment,2020.2.10,Linux x86_64,60,60675255c767bca6388caeee,16.82046233,16.67747327,16.69482109,16.66598139,16.66330172,16.67747327,,,,,,,,,,,,,,,,,,,,PF,3,strong,,,,,,,,5,1.68299,,,,,,,,,,,,,,,,,,,,,,,,,,,,4,strong,107,-38,1,0,0,response3disk,6,131,24,12,1,0,0,rectangle,24,12,1,0,0,6,5,0.00314,24,12,1,0,0,0,130,130,122,1,0,,,,,,,,,,,,,,,,,,,,,
,,,,,,,,,,,,,,,,,,,,,,,,,,,,,,,,,,,,,,,,,,5f4803ba0013be282bd72b55,606a10b4db63559c70b4c56e,2021-04-04_21h18.24.694,Colour_Similarity_Experiment,2020.2.10,Linux x86_64,60,60675255c767bca6388caeee,16.82046233,16.67747327,16.69482109,16.66598139,16.66330172,16.67747327,,,,,,,,,,,,,,,,,,,,PF,3,strong,,,,,,,,6,1.8678,,,,,,,,,,,,,,,,,,,,,,,,,,,,4,strong,88,49,1,0,0,response1disk,3,132,15,-9,1,0,0,rectangle,15,-9,1,0,0,6,4,0.003335,15,-9,1,0,0,0,131,131,77,1,0,,,,,,,,,,,,,,,,,,,,,
,,,,,,,,,,,,,,,,,,,,,,,,,,,,,,,,,,,,,,,,,,5f4803ba0013be282bd72b55,606a10b4db63559c70b4c56e,2021-04-04_21h18.24.694,Colour_Similarity_Experiment,2020.2.10,Linux x86_64,60,60675255c767bca6388caeee,16.82046233,16.67747327,16.69482109,16.66598139,16.66330172,16.67747327,,,,,,,,,,,,,,,,,,,,PF,3,weak,,,,,,,,2,2.067775,,,,,,,,,,,,,,,,,,,,,,,,,,,,1,weak,-85,-56,1,0,0,response5disk,9,133,-15,-7,1,0,0,rectangle,-15,-7,1,0,0,6,5,0.002735,-15,-7,1,0,0,0,132,132,15,1,0,,,,,,,,,,,,,,,,,,,,,
,,,,,,,,,,,,,,,,,,,,,,,,,,,,,,,,,,,,,,,,,,5f4803ba0013be282bd72b55,606a10b4db63559c70b4c56e,2021-04-04_21h18.24.694,Colour_Similarity_Experiment,2020.2.10,Linux x86_64,60,60675255c767bca6388caeee,16.82046233,16.67747327,16.69482109,16.66598139,16.66330172,16.67747327,,,,,,,,,,,,,,,,,,,,PF,3,weak,,,,,,,,2,1.118,,,,,,,,,,,,,,,,,,,,,,,,,,,,4,weak,-90,-42,1,0,0,response5disk,4,134,10,-4,1,0,0,rectangle,10,-4,1,0,0,6,5,0.00043,10,-4,1,0,0,0,133,133,70,1,0,,,,,,,,,,,,,,,,,,,,,
,,,,,,,,,,,,,,,,,,,,,,,,,,,,,,,,,,,,,,,,,,5f4803ba0013be282bd72b55,606a10b4db63559c70b4c56e,2021-04-04_21h18.24.694,Colour_Similarity_Experiment,2020.2.10,Linux x86_64,60,60675255c767bca6388caeee,16.82046233,16.67747327,16.69482109,16.66598139,16.66330172,16.67747327,,,,,,,,,,,,,,,,,,,,PF,3,weak,,,,,,,,5,1.63417,,,,,,,,,,,,,,,,,,,,,,,,,,,,8,weak,138,-51,1,0,0,response3disk,1,135,5,21,1,0,0,rectangle,5,21,1,0,0,6,7,0.0062,5,21,1,0,0,0,134,134,57,1,0,,,,,,,,,,,,,,,,,,,,,
,,,,,,,,,,,,,,,,,,,,,,,,,,,,,,,,,,,,,,,,,,5f4803ba0013be282bd72b55,606a10b4db63559c70b4c56e,2021-04-04_21h18.24.694,Colour_Similarity_Experiment,2020.2.10,Linux x86_64,60,60675255c767bca6388caeee,16.82046233,16.67747327,16.69482109,16.66598139,16.66330172,16.67747327,,,,,,,,,,,,,,,,,,,,PF,3,strong,,,,,,,,3,1.900825,,,,,,,,,,,,,,,,,,,,,,,,,,,,7,strong,-39,-73,1,0,0,response5disk,5,136,27,12,1,0,0,rectangle,27,12,1,0,0,6,0,0.00292,27,12,1,0,0,0,135,135,156,1,0,,,,,,,,,,,,,,,,,,,,,
,,,,,,,,,,,,,,,,,,,,,,,,,,,,,,,,,,,,,,,,,,5f4803ba0013be282bd72b55,606a10b4db63559c70b4c56e,2021-04-04_21h18.24.694,Colour_Similarity_Experiment,2020.2.10,Linux x86_64,60,60675255c767bca6388caeee,16.82046233,16.67747327,16.69482109,16.66598139,16.66330172,16.67747327,,,,,,,,,,,,,,,,,,,,PF,3,weak,,,,,,,,3,1.33411,,,,,,,,,,,,,,,,,,,,,,,,,,,,9,weak,-33,-95,1,0,0,response5disk,3,137,16,16,1,0,0,rectangle,16,16,1,0,0,6,4,0.00303,16,16,1,0,0,0,136,136,119,1,0,,,,,,,,,,,,,,,,,,,,,
,,,,,,,,,,,,,,,,,,,,,,,,,,,,,,,,,,,,,,,,,,5f4803ba0013be282bd72b55,606a10b4db63559c70b4c56e,2021-04-04_21h18.24.694,Colour_Similarity_Experiment,2020.2.10,Linux x86_64,60,60675255c767bca6388caeee,16.82046233,16.67747327,16.69482109,16.66598139,16.66330172,16.67747327,,,,,,,,,,,,,,,,,,,,PF,3,weak,,,,,,,,3,1.55011,,,,,,,,,,,,,,,,,,,,,,,,,,,,2,weak,-29,-72,1,0,0,response5disk,3,138,-15,-8,1,0,0,rectangle,-15,-8,1,0,0,6,4,0.00033,-15,-8,1,0,0,0,137,137,69,1,0,,,,,,,,,,,,,,,,,,,,,
,,,,,,,,,,,,,,,,,,,,,,,,,,,,,,,,,,,,,,,,,,5f4803ba0013be282bd72b55,606a10b4db63559c70b4c56e,2021-04-04_21h18.24.694,Colour_Similarity_Experiment,2020.2.10,Linux x86_64,60,60675255c767bca6388caeee,16.82046233,16.67747327,16.69482109,16.66598139,16.66330172,16.67747327,,,,,,,,,,,,,,,,,,,,PF,3,strong,,,,,,,,3,1.984615,,,,,,,,,,,,,,,,,,,,,,,,,,,,1,strong,-44,-100,1,0,0,response5disk,4,139,-13,-17,1,0,0,rectangle,-13,-17,1,0,0,6,7,0.00356,-13,-17,1,0,0,0,138,138,135,1,0,,,,,,,,,,,,,,,,,,,,,
,,,,,,,,,,,,,,,,,,,,,,,,,,,,,,,,,,,,,,,,,,5f4803ba0013be282bd72b55,606a10b4db63559c70b4c56e,2021-04-04_21h18.24.694,Colour_Similarity_Experiment,2020.2.10,Linux x86_64,60,60675255c767bca6388caeee,16.82046233,16.67747327,16.69482109,16.66598139,16.66330172,16.67747327,,,,,,,,,,,,,,,,,,,,PF,3,weak,,,,,,,,5,1.68447,,,,,,,,,,,,,,,,,,,,,,,,,,,,7,weak,117,-67,1,0,0,response3disk,9,140,28,4,1,0,0,rectangle,28,4,1,0,0,6,6,0.0029,28,4,1,0,0,0,139,139,10,1,0,,,,,,,,,,,,,,,,,,,,,
,,,,,,,,,,,,,,,,,,,,,,,,,,,,,,,,,,,,,,,,,,5f4803ba0013be282bd72b55,606a10b4db63559c70b4c56e,2021-04-04_21h18.24.694,Colour_Similarity_Experiment,2020.2.10,Linux x86_64,60,60675255c767bca6388caeee,16.82046233,16.67747327,16.69482109,16.66598139,16.66330172,16.67747327,,,,,,,,,,,,,,,,,,,,PF,3,strong,,,,,,,,6,1.083905,,,,,,,,,,,,,,,,,,,,,,,,,,,,1,strong,105,29,1,0,0,response1disk,8,141,24,-12,1,0,0,rectangle,24,-12,1,0,0,6,7,0.002505,24,-12,1,0,0,0,140,140,27,1,0,,,,,,,,,,,,,,,,,,,,,
,,,,,,,,,,,,,,,,,,,,,,,,,,,,,,,,,,,,,,,,,,5f4803ba0013be282bd72b55,606a10b4db63559c70b4c56e,2021-04-04_21h18.24.694,Colour_Similarity_Experiment,2020.2.10,Linux x86_64,60,60675255c767bca6388caeee,16.82046233,16.67747327,16.69482109,16.66598139,16.66330172,16.67747327,,,,,,,,,,,,,,,,,,,,PF,3,weak,,,,,,,,1,4.283625,,,,,,,,,,,,,,,,,,,,,,,,,,,,5,weak,-72,53,1,0,0,response7disk,6,142,-25,-13,1,0,0,rectangle,-25,-13,1,0,0,6,4,0.003225,-25,-13,1,0,0,0,141,141,103,1,0,,,,,,,,,,,,,,,,,,,,,
,,,,,,,,,,,,,,,,,,,,,,,,,,,,,,,,,,,,,,,,,,5f4803ba0013be282bd72b55,606a10b4db63559c70b4c56e,2021-04-04_21h18.24.694,Colour_Similarity_Experiment,2020.2.10,Linux x86_64,60,60675255c767bca6388caeee,16.82046233,16.67747327,16.69482109,16.66598139,16.66330172,16.67747327,,,,,,,,,,,,,,,,,,,,PF,3,strong,,,,,,,,1,2.250935,,,,,,,,,,,,,,,,,,,,,,,,,,,,2,strong,-97,55,1,0,0,response7disk,9,143,-14,-3,1,0,0,rectangle,-14,-3,1,0,0,6,5,0.00317,-14,-3,1,0,0,0,142,142,72,1,0,,,,,,,,,,,,,,,,,,,,,
,,,,,,,,,,,,,,,,,,,,,,,,,,,,,,,,,,,,,,,,,,5f4803ba0013be282bd72b55,606a10b4db63559c70b4c56e,2021-04-04_21h18.24.694,Colour_Similarity_Experiment,2020.2.10,Linux x86_64,60,60675255c767bca6388caeee,16.82046233,16.67747327,16.69482109,16.66598139,16.66330172,16.67747327,,,,,,,,,,,,,,,,,,,,PF,3,weak,,,,,,,,5,1.683815,,,,,,,,,,,,,,,,,,,,,,,,,,,,5,weak,109,-23,1,0,0,response3disk,8,144,1,-7,1,0,0,rectangle,1,-7,1,0,0,6,2,0.00294,1,-7,1,0,0,0,143,143,149,1,0,,,,,,,,,,,,,,,,,,,,,
,,,,,,,,,,,,,,,,,,,,,,,,,,,,,,,,,,,,,,,,,,5f4803ba0013be282bd72b55,606a10b4db63559c70b4c56e,2021-04-04_21h18.24.694,Colour_Similarity_Experiment,2020.2.10,Linux x86_64,60,60675255c767bca6388caeee,16.82046233,16.67747327,16.69482109,16.66598139,16.66330172,16.67747327,,,,,,,,,,,,,,,,,,,,PF,3,weak,,,,,,,,3,7.633435,,,,,,,,,,,,,,,,,,,,,,,,,,,,9,weak,-61,-79,1,0,0,response5disk,1,145,5,-7,1,0,0,rectangle,5,-7,1,0,0,6,1,0.00314,5,-7,1,0,0,0,144,144,74,1,0,,,,,,,,,,,,,,,,,,,,,
,,,,,,,,,,,,,,,,,,,,,,,,,,,,,,,,,,,,,,,,,,5f4803ba0013be282bd72b55,606a10b4db63559c70b4c56e,2021-04-04_21h18.24.694,Colour_Similarity_Experiment,2020.2.10,Linux x86_64,60,60675255c767bca6388caeee,16.82046233,16.67747327,16.69482109,16.66598139,16.66330172,16.67747327,,,,,,,,,,,,,,,,,,,,PF,3,strong,,,,,,,,6,1.85085,,,,,,,,,,,,,,,,,,,,,,,,,,,,3,strong,87,47,1,0,0,response1disk,7,146,-19,-5,1,0,0,rectangle,-19,-5,1,0,0,6,4,0.00139,-19,-5,1,0,0,0,145,145,118,1,0,,,,,,,,,,,,,,,,,,,,,
,,,,,,,,,,,,,,,,,,,,,,,,,,,,,,,,,,,,,,,,,,5f4803ba0013be282bd72b55,606a10b4db63559c70b4c56e,2021-04-04_21h18.24.694,Colour_Similarity_Experiment,2020.2.10,Linux x86_64,60,60675255c767bca6388caeee,16.82046233,16.67747327,16.69482109,16.66598139,16.66330172,16.67747327,,,,,,,,,,,,,,,,,,,,PF,3,weak,,,,,,,,5,2.666715,,,,,,,,,,,,,,,,,,,,,,,,,,,,7,weak,100,-58,1,0,0,response3disk,4,147,32,7,1,0,0,rectangle,32,7,1,0,0,6,7,0.00294,32,7,1,0,0,0,146,146,43,1,0,,,,,,,,,,,,,,,,,,,,,
,,,,,,,,,,,,,,,,,,,,,,,,,,,,,,,,,,,,,,,,,,5f4803ba0013be282bd72b55,606a10b4db63559c70b4c56e,2021-04-04_21h18.24.694,Colour_Similarity_Experiment,2020.2.10,Linux x86_64,60,60675255c767bca6388caeee,16.82046233,16.67747327,16.69482109,16.66598139,16.66330172,16.67747327,,,,,,,,,,,,,,,,,,,,PF,3,strong,,,,,,,,7,2.93357,,,,,,,,,,,,,,,,,,,,,,,,,,,,9,strong,41,104,1,0,0,response1disk,7,148,9,-8,1,0,0,rectangle,9,-8,1,0,0,6,0,0.002475,9,-8,1,0,0,0,147,147,100,1,0,,,,,,,,,,,,,,,,,,,,,
,,,,,,,,,,,,,,,,,,,,,,,,,,,,,,,,,,,,,,,,,,5f4803ba0013be282bd72b55,606a10b4db63559c70b4c56e,2021-04-04_21h18.24.694,Colour_Similarity_Experiment,2020.2.10,Linux x86_64,60,60675255c767bca6388caeee,16.82046233,16.67747327,16.69482109,16.66598139,16.66330172,16.67747327,,,,,,,,,,,,,,,,,,,,PF,3,strong,,,,,,,,1,1.83341,,,,,,,,,,,,,,,,,,,,,,,,,,,,6,strong,-109,40,1,0,0,response7disk,7,149,3,0,1,0,0,rectangle,3,0,1,0,0,6,0,0.000365,3,0,1,0,0,0,148,148,18,1,0,,,,,,,,,,,,,,,,,,,,,
,,,,,,,,,,,,,,,,,,,,,,,,,,,,,,,,,,,,,,,,,,5f4803ba0013be282bd72b55,606a10b4db63559c70b4c56e,2021-04-04_21h18.24.694,Colour_Similarity_Experiment,2020.2.10,Linux x86_64,60,60675255c767bca6388caeee,16.82046233,16.67747327,16.69482109,16.66598139,16.66330172,16.67747327,,,,,,,,,,,,,,,,,,,,PF,3,weak,,,,,,,,4,1.450475,,,,,,,,,,,,,,,,,,,,,,,,,,,,2,weak,52,-100,1,0,0,response3disk,9,150,33,-11,1,0,0,rectangle,33,-11,1,0,0,6,5,0.003085,33,-11,1,0,0,0,149,149,39,1,0,,,,,,,,,,,,,,,,,,,,,
,,,,,,,,,,,,,,,,,,,,,,,,,,,,,,,,,,,,,,,,,,5f4803ba0013be282bd72b55,606a10b4db63559c70b4c56e,2021-04-04_21h18.24.694,Colour_Similarity_Experiment,2020.2.10,Linux x86_64,60,60675255c767bca6388caeee,16.82046233,16.67747327,16.69482109,16.66598139,16.66330172,16.67747327,,,,,,,,,,,,,,,,,,,,PF,3,strong,,,,,,,,4,1.500735,,,,,,,,,,,,,,,,,,,,,,,,,,,,8,strong,50,-101,1,0,0,response3disk,9,151,-10,5,1,0,0,rectangle,-10,5,1,0,0,6,2,0.003055,-10,5,1,0,0,0,150,150,105,1,0,,,,,,,,,,,,,,,,,,,,,
,,,,,,,,,,,,,,,,,,,,,,,,,,,,,,,,,,,,,,,,,,5f4803ba0013be282bd72b55,606a10b4db63559c70b4c56e,2021-04-04_21h18.24.694,Colour_Similarity_Experiment,2020.2.10,Linux x86_64,60,60675255c767bca6388caeee,16.82046233,16.67747327,16.69482109,16.66598139,16.66330172,16.67747327,,,,,,,,,,,,,,,,,,,,PF,3,weak,,,,,,,,4,1.367395,,,,,,,,,,,,,,,,,,,,,,,,,,,,8,weak,88,-98,1,0,0,response3disk,8,152,7,-18,1,0,0,rectangle,7,-18,1,0,0,6,3,0.00382,7,-18,1,0,0,0,151,151,153,1,0,,,,,,,,,,,,,,,,,,,,,
,,,,,,,,,,,,,,,,,,,,,,,,,,,,,,,,,,,,,,,,,,5f4803ba0013be282bd72b55,606a10b4db63559c70b4c56e,2021-04-04_21h18.24.694,Colour_Similarity_Experiment,2020.2.10,Linux x86_64,60,60675255c767bca6388caeee,16.82046233,16.67747327,16.69482109,16.66598139,16.66330172,16.67747327,,,,,,,,,,,,,,,,,,,,PF,3,strong,,,,,,,,6,1.51709,,,,,,,,,,,,,,,,,,,,,,,,,,,,8,strong,106,76,1,0,0,response1disk,7,153,19,-5,1,0,0,rectangle,19,-5,1,0,0,6,0,0.00336,19,-5,1,0,0,0,152,152,86,1,0,,,,,,,,,,,,,,,,,,,,,
,,,,,,,,,,,,,,,,,,,,,,,,,,,,,,,,,,,,,,,,,,5f4803ba0013be282bd72b55,606a10b4db63559c70b4c56e,2021-04-04_21h18.24.694,Colour_Similarity_Experiment,2020.2.10,Linux x86_64,60,60675255c767bca6388caeee,16.82046233,16.67747327,16.69482109,16.66598139,16.66330172,16.67747327,,,,,,,,,,,,,,,,,,,,PF,3,strong,,,,,,,,3,5.7676,,,,,,,,,,,,,,,,,,,,,,,,,,,,5,strong,-52,-124,1,0,0,response5disk,6,154,-11,-3,1,0,0,rectangle,-11,-3,1,0,0,6,0,0.00037,-11,-3,1,0,0,0,153,153,12,1,0,,,,,,,,,,,,,,,,,,,,,
,,,,,,,,,,,,,,,,,,,,,,,,,,,,,,,,,,,,,,,,,,5f4803ba0013be282bd72b55,606a10b4db63559c70b4c56e,2021-04-04_21h18.24.694,Colour_Similarity_Experiment,2020.2.10,Linux x86_64,60,60675255c767bca6388caeee,16.82046233,16.67747327,16.69482109,16.66598139,16.66330172,16.67747327,,,,,,,,,,,,,,,,,,,,PF,3,strong,,,,,,,,5,2.08394,,,,,,,,,,,,,,,,,,,,,,,,,,,,5,strong,106,-62,1,0,0,response3disk,2,155,9,-8,1,0,0,rectangle,-71,99,1,0,0,0,0,2.46873,-15,15,1,0,0,0,154,154,55,1,1,response7disk_3,rectangle,,,,,,,,,,,,,,,,,,,
,,,,,,,,,,,,,,,,,,,,,,,,,,,,,,,,,,,,,,,,,,5f4803ba0013be282bd72b55,606a10b4db63559c70b4c56e,2021-04-04_21h18.24.694,Colour_Similarity_Experiment,2020.2.10,Linux x86_64,60,60675255c767bca6388caeee,16.82046233,16.67747327,16.69482109,16.66598139,16.66330172,16.67747327,,,,,,,,,,,,,,,,,,,,PF,3,weak,,,,,,,,6,1.21757,,,,,,,,,,,,,,,,,,,,,,,,,,,,9,weak,56,33,1,0,0,response1disk,4,156,-25,-4,1,0,0,rectangle,-25,-4,1,0,0,0,3,0.002985,-25,-4,1,0,0,0,155,155,114,1,0,,,,,,,,,,,,,,,,,,,,,
,,,,,,,,,,,,,,,,,,,,,,,,,,,,,,,,,,,,,,,,,,5f4803ba0013be282bd72b55,606a10b4db63559c70b4c56e,2021-04-04_21h18.24.694,Colour_Similarity_Experiment,2020.2.10,Linux x86_64,60,60675255c767bca6388caeee,16.82046233,16.67747327,16.69482109,16.66598139,16.66330172,16.67747327,,,,,,,,,,,,,,,,,,,,PF,3,weak,,,,,,,,5,19.384325,,,,,,,,,,,,,,,,,,,,,,,,,,,,5,weak,122,-59,1,0,0,response3disk,9,157,7,8,1,0,0,rectangle,-82,-65,1,0,0,0,2,3.116585,-6,-16,1,0,0,0,156,156,136,1,1,response5disk_3,rectangle,,,,,,,,,,,,,,,,,,,
,,,,,,,,,,,,,,,,,,,,,,,,,,,,,,,,,,,,,,,,,,5f4803ba0013be282bd72b55,606a10b4db63559c70b4c56e,2021-04-04_21h18.24.694,Colour_Similarity_Experiment,2020.2.10,Linux x86_64,60,60675255c767bca6388caeee,16.82046233,16.67747327,16.69482109,16.66598139,16.66330172,16.67747327,,,,,,,,,,,,,,,,,,,,PF,3,strong,,,,,,,,2,1.33419,,,,,,,,,,,,,,,,,,,,,,,,,,,,2,strong,-95,-35,1,0,0,response5disk,4,158,-20,13,1,0,0,rectangle,-20,13,1,0,0,0,6,0.003195,-20,13,1,0,0,0,157,157,145,1,0,,,,,,,,,,,,,,,,,,,,,
,,,,,,,,,,,,,,,,,,,,,,,,,,,,,,,,,,,,,,,,,,5f4803ba0013be282bd72b55,606a10b4db63559c70b4c56e,2021-04-04_21h18.24.694,Colour_Similarity_Experiment,2020.2.10,Linux x86_64,60,60675255c767bca6388caeee,16.82046233,16.67747327,16.69482109,16.66598139,16.66330172,16.67747327,,,,,,,,,,,,,,,,,,,,PF,3,strong,,,,,,,,5,1.7662,,,,,,,,,,,,,,,,,,,,,,,,,,,,3,strong,89,-44,1,0,0,response3disk,6,159,23,-3,1,0,0,rectangle,23,-3,1,0,0,0,0,0.003125,23,-3,1,0,0,0,158,158,95,1,0,,,,,,,,,,,,,,,,,,,,,
,,,,,,,,,,,,,,,,,,,,,,,,,,,,,,,,,,,,,,,,,,5f4803ba0013be282bd72b55,606a10b4db63559c70b4c56e,2021-04-04_21h18.24.694,Colour_Similarity_Experiment,2020.2.10,Linux x86_64,60,60675255c767bca6388caeee,16.82046233,16.67747327,16.69482109,16.66598139,16.66330172,16.67747327,,,,,,,,,,,,,,,,,,,,PF,3,weak,,,,,,,,5,1.350705,,,,,,,,,,,,,,,,,,,,,,,,,,,,1,weak,104,-59,1,0,0,response3disk,4,160,39,6,1,0,0,rectangle,39,6,1,0,0,0,7,0.00215,39,6,1,0,0,0,159,159,139,1,0,,,,,,,,,,,,,,,,,,,,,
,,,,,,,,,,,,,,,,,,,,,,,,,,,,,,,,,,,,,,,,,,5f4803ba0013be282bd72b55,606a10b4db63559c70b4c56e,2021-04-04_21h18.24.694,Colour_Similarity_Experiment,2020.2.10,Linux x86_64,60,60675255c767bca6388caeee,16.82046233,16.67747327,16.69482109,16.66598139,16.66330172,16.67747327,,,,,,,,,,,,,,,,,,,,PF,3,weak,,,,,,,,5,1.40105,,,,,,,,,,,,,,,,,,,,,,,,,,,,6,weak,75,-45,1,0,0,response3disk,4,161,23,12,1,0,0,rectangle,23,12,1,0,0,0,6,0.003235,23,12,1,0,0,0,160,160,33,1,0,,,,,,,,,,,,,,,,,,,,,
,,,,,,,,,,,,,,,,,,,,,,,,,,,,,,,,,,,,,,,,,,5f4803ba0013be282bd72b55,606a10b4db63559c70b4c56e,2021-04-04_21h18.24.694,Colour_Similarity_Experiment,2020.2.10,Linux x86_64,60,60675255c767bca6388caeee,16.82046233,16.67747327,16.69482109,16.66598139,16.66330172,16.67747327,,,,,,,,,,,,,,,,,,,,PF,3,strong,,,,,,,,6,1.667445,,,,,,,,,,,,,,,,,,,,,,,,,,,,4,strong,100,34,1,0,0,response1disk,8,162,34,13,1,0,0,rectangle,34,13,1,0,0,0,0,0.00297,34,13,1,0,0,0,161,161,35,1,0,,,,,,,,,,,,,,,,,,,,,
,,,,,,,,,,,,,,,,,,,,,,,,,,,,,,,,,,,,,,,,,,5f4803ba0013be282bd72b55,606a10b4db63559c70b4c56e,2021-04-04_21h18.24.694,Colour_Similarity_Experiment,2020.2.10,Linux x86_64,60,60675255c767bca6388caeee,16.82046233,16.67747327,16.69482109,16.66598139,16.66330172,16.67747327,,,,,,,,,,,,,,,,,,,,,,,,,,,,,,,,,,,,,,,,,,,,,,,,,,,,,,,,,,,,,,,,,,,,,,,,,,,,,,,,,,,,,,,,,,,,,,,,0,0,0,0,1,,,,,,,,,,,,,,
,,,,,,,,,,,,,,,,,,,,,,,,,,,,,,,,,,,,,,,,,,5f4803ba0013be282bd72b55,606a10b4db63559c70b4c56e,2021-04-04_21h18.24.694,Colour_Similarity_Experiment,2020.2.10,Linux x86_64,60,60675255c767bca6388caeee,16.82046233,16.67747327,16.69482109,16.66598139,16.66330172,16.67747327,,,,,,,,,,,,,,,,,,,,PF,3,strong,,,,,,,,7,1.01809,,,,,,,,,,,,,,,,,,,,,,,,,,,,4,strong,58,94,1,0,0,response1disk,1,163,-14,21,1,0,0,rectangle,-14,21,1,0,0,0,5,0.003155,-14,21,1,0,0,0,0,0,102,1,0,,,,,,,,,,,,,,,,,,,,,
,,,,,,,,,,,,,,,,,,,,,,,,,,,,,,,,,,,,,,,,,,5f4803ba0013be282bd72b55,606a10b4db63559c70b4c56e,2021-04-04_21h18.24.694,Colour_Similarity_Experiment,2020.2.10,Linux x86_64,60,60675255c767bca6388caeee,16.82046233,16.67747327,16.69482109,16.66598139,16.66330172,16.67747327,,,,,,,,,,,,,,,,,,,,PF,3,weak,,,,,,,,5,1.95074,,,,,,,,,,,,,,,,,,,,,,,,,,,,7,weak,110,-33,1,0,0,response3disk,8,164,26,-2,1,0,0,rectangle,26,-2,1,0,0,0,6,0.003345,26,-2,1,0,0,0,1,1,140,1,0,,,,,,,,,,,,,,,,,,,,,
,,,,,,,,,,,,,,,,,,,,,,,,,,,,,,,,,,,,,,,,,,5f4803ba0013be282bd72b55,606a10b4db63559c70b4c56e,2021-04-04_21h18.24.694,Colour_Similarity_Experiment,2020.2.10,Linux x86_64,60,60675255c767bca6388caeee,16.82046233,16.67747327,16.69482109,16.66598139,16.66330172,16.67747327,,,,,,,,,,,,,,,,,,,,PF,3,strong,,,,,,,,3,2.000555,,,,,,,,,,,,,,,,,,,,,,,,,,,,9,strong,-44,-100,1,0,0,response5disk,2,165,-16,-14,1,0,0,rectangle,-67,-95,1,0,0,3,3,3.11669,-7,5,1,0,0,0,2,2,11,1,1,response5disk_3,rectangle,,,,,,,,,,,,,,,,,,,
,,,,,,,,,,,,,,,,,,,,,,,,,,,,,,,,,,,,,,,,,,5f4803ba0013be282bd72b55,606a10b4db63559c70b4c56e,2021-04-04_21h18.24.694,Colour_Similarity_Experiment,2020.2.10,Linux x86_64,60,60675255c767bca6388caeee,16.82046233,16.67747327,16.69482109,16.66598139,16.66330172,16.67747327,,,,,,,,,,,,,,,,,,,,PF,3,weak,,,,,,,,6,1.4503,,,,,,,,,,,,,,,,,,,,,,,,,,,,8,weak,122,52,1,0,0,response1disk,5,166,15,1,1,0,0,rectangle,15,1,1,0,0,3,7,0.003475,15,1,1,0,0,0,3,3,98,1,0,,,,,,,,,,,,,,,,,,,,,
,,,,,,,,,,,,,,,,,,,,,,,,,,,,,,,,,,,,,,,,,,5f4803ba0013be282bd72b55,606a10b4db63559c70b4c56e,2021-04-04_21h18.24.694,Colour_Similarity_Experiment,2020.2.10,Linux x86_64,60,60675255c767bca6388caeee,16.82046233,16.67747327,16.69482109,16.66598139,16.66330172,16.67747327,,,,,,,,,,,,,,,,,,,,PF,3,weak,,,,,,,,4,1.367105,,,,,,,,,,,,,,,,,,,,,,,,,,,,8,weak,66,-137,1,0,0,response3disk,9,167,-7,-7,1,0,0,rectangle,-7,-7,1,0,0,3,3,0.002875,-7,-7,1,0,0,0,4,4,42,1,0,,,,,,,,,,,,,,,,,,,,,
,,,,,,,,,,,,,,,,,,,,,,,,,,,,,,,,,,,,,,,,,,5f4803ba0013be282bd72b55,606a10b4db63559c70b4c56e,2021-04-04_21h18.24.694,Colour_Similarity_Experiment,2020.2.10,Linux x86_64,60,60675255c767bca6388caeee,16.82046233,16.67747327,16.69482109,16.66598139,16.66330172,16.67747327,,,,,,,,,,,,,,,,,,,,PF,3,weak,,,,,,,,3,2.46733,,,,,,,,,,,,,,,,,,,,,,,,,,,,3,weak,-55,-100,1,0,0,response5disk,1,168,-14,-9,1,0,0,rectangle,-14,-9,1,0,0,3,0,0.002995,-14,-9,1,0,0,0,5,5,96,1,0,,,,,,,,,,,,,,,,,,,,,
,,,,,,,,,,,,,,,,,,,,,,,,,,,,,,,,,,,,,,,,,,5f4803ba0013be282bd72b55,606a10b4db63559c70b4c56e,2021-04-04_21h18.24.694,Colour_Similarity_Experiment,2020.2.10,Linux x86_64,60,60675255c767bca6388caeee,16.82046233,16.67747327,16.69482109,16.66598139,16.66330172,16.67747327,,,,,,,,,,,,,,,,,,,,PF,3,strong,,,,,,,,5,1.60059,,,,,,,,,,,,,,,,,,,,,,,,,,,,8,strong,100,-49,1,0,0,response3disk,4,169,17,12,1,0,0,rectangle,17,12,1,0,0,3,5,0.00289,17,12,1,0,0,0,6,6,88,1,0,,,,,,,,,,,,,,,,,,,,,
,,,,,,,,,,,,,,,,,,,,,,,,,,,,,,,,,,,,,,,,,,5f4803ba0013be282bd72b55,606a10b4db63559c70b4c56e,2021-04-04_21h18.24.694,Colour_Similarity_Experiment,2020.2.10,Linux x86_64,60,60675255c767bca6388caeee,16.82046233,16.67747327,16.69482109,16.66598139,16.66330172,16.67747327,,,,,,,,,,,,,,,,,,,,PF,3,strong,,,,,,,,2,2.000925,,,,,,,,,,,,,,,,,,,,,,,,,,,,1,strong,-127,-59,1,0,0,response5disk,2,170,16,-1,1,0,0,rectangle,16,-1,1,0,0,3,5,0.000525,16,-1,1,0,0,0,7,7,2,1,0,,,,,,,,,,,,,,,,,,,,,
,,,,,,,,,,,,,,,,,,,,,,,,,,,,,,,,,,,,,,,,,,5f4803ba0013be282bd72b55,606a10b4db63559c70b4c56e,2021-04-04_21h18.24.694,Colour_Similarity_Experiment,2020.2.10,Linux x86_64,60,60675255c767bca6388caeee,16.82046233,16.67747327,16.69482109,16.66598139,16.66330172,16.67747327,,,,,,,,,,,,,,,,,,,,PF,3,weak,,,,,,,,3,1.83335,,,,,,,,,,,,,,,,,,,,,,,,,,,,2,weak,-65,-110,1,0,0,response5disk,2,171,1,-2,1,0,0,rectangle,1,-2,1,0,0,3,3,0.00287,1,-2,1,0,0,0,8,8,14,1,0,,,,,,,,,,,,,,,,,,,,,
,,,,,,,,,,,,,,,,,,,,,,,,,,,,,,,,,,,,,,,,,,5f4803ba0013be282bd72b55,606a10b4db63559c70b4c56e,2021-04-04_21h18.24.694,Colour_Similarity_Experiment,2020.2.10,Linux x86_64,60,60675255c767bca6388caeee,16.82046233,16.67747327,16.69482109,16.66598139,16.66330172,16.67747327,,,,,,,,,,,,,,,,,,,,PF,3,weak,,,,,,,,5,1.26697,,,,,,,,,,,,,,,,,,,,,,,,,,,,9,weak,109,-61,1,0,0,response3disk,2,172,4,-10,1,0,0,rectangle,4,-10,1,0,0,3,7,0.003535,4,-10,1,0,0,0,9,9,157,1,0,,,,,,,,,,,,,,,,,,,,,
,,,,,,,,,,,,,,,,,,,,,,,,,,,,,,,,,,,,,,,,,,5f4803ba0013be282bd72b55,606a10b4db63559c70b4c56e,2021-04-04_21h18.24.694,Colour_Similarity_Experiment,2020.2.10,Linux x86_64,60,60675255c767bca6388caeee,16.82046233,16.67747327,16.69482109,16.66598139,16.66330172,16.67747327,,,,,,,,,,,,,,,,,,,,PF,3,strong,,,,,,,,4,1.91711,,,,,,,,,,,,,,,,,,,,,,,,,,,,5,strong,71,-117,1,0,0,response3disk,7,173,20,-17,1,0,0,rectangle,20,-17,1,0,0,3,6,0.003345,20,-17,1,0,0,0,10,10,7,1,0,,,,,,,,,,,,,,,,,,,,,
,,,,,,,,,,,,,,,,,,,,,,,,,,,,,,,,,,,,,,,,,,5f4803ba0013be282bd72b55,606a10b4db63559c70b4c56e,2021-04-04_21h18.24.694,Colour_Similarity_Experiment,2020.2.10,Linux x86_64,60,60675255c767bca6388caeee,16.82046233,16.67747327,16.69482109,16.66598139,16.66330172,16.67747327,,,,,,,,,,,,,,,,,,,,PF,3,strong,,,,,,,,4,1.483995,,,,,,,,,,,,,,,,,,,,,,,,,,,,7,strong,70,-126,1,0,0,response3disk,6,174,7,-17,1,0,0,rectangle,7,-17,1,0,0,3,2,0.003005,7,-17,1,0,0,0,11,11,31,1,0,,,,,,,,,,,,,,,,,,,,,
,,,,,,,,,,,,,,,,,,,,,,,,,,,,,,,,,,,,,,,,,,5f4803ba0013be282bd72b55,606a10b4db63559c70b4c56e,2021-04-04_21h18.24.694,Colour_Similarity_Experiment,2020.2.10,Linux x86_64,60,60675255c767bca6388caeee,16.82046233,16.67747327,16.69482109,16.66598139,16.66330172,16.67747327,,,,,,,,,,,,,,,,,,,,PF,3,weak,,,,,,,,1,1.58395,,,,,,,,,,,,,,,,,,,,,,,,,,,,4,weak,-110,38,1,0,0,response7disk,5,175,-12,6,1,0,0,rectangle,-12,6,1,0,0,3,5,0.0028,-12,6,1,0,0,0,12,12,49,1,0,,,,,,,,,,,,,,,,,,,,,
,,,,,,,,,,,,,,,,,,,,,,,,,,,,,,,,,,,,,,,,,,5f4803ba0013be282bd72b55,606a10b4db63559c70b4c56e,2021-04-04_21h18.24.694,Colour_Similarity_Experiment,2020.2.10,Linux x86_64,60,60675255c767bca6388caeee,16.82046233,16.67747327,16.69482109,16.66598139,16.66330172,16.67747327,,,,,,,,,,,,,,,,,,,,PF,3,weak,,,,,,,,1,1.450835,,,,,,,,,,,,,,,,,,,,,,,,,,,,7,weak,-82,50,1,0,0,response7disk,6,176,19,6,1,0,0,rectangle,19,6,1,0,0,3,6,0.00251,19,6,1,0,0,0,13,13,29,1,0,,,,,,,,,,,,,,,,,,,,,
,,,,,,,,,,,,,,,,,,,,,,,,,,,,,,,,,,,,,,,,,,5f4803ba0013be282bd72b55,606a10b4db63559c70b4c56e,2021-04-04_21h18.24.694,Colour_Similarity_Experiment,2020.2.10,Linux x86_64,60,60675255c767bca6388caeee,16.82046233,16.67747327,16.69482109,16.66598139,16.66330172,16.67747327,,,,,,,,,,,,,,,,,,,,PF,3,strong,,,,,,,,7,2.250495,,,,,,,,,,,,,,,,,,,,,,,,,,,,5,strong,51,100,1,0,0,response1disk,9,177,8,6,1,0,0,rectangle,8,6,1,0,0,3,2,0.003005,8,6,1,0,0,0,14,14,61,1,0,,,,,,,,,,,,,,,,,,,,,
,,,,,,,,,,,,,,,,,,,,,,,,,,,,,,,,,,,,,,,,,,5f4803ba0013be282bd72b55,606a10b4db63559c70b4c56e,2021-04-04_21h18.24.694,Colour_Similarity_Experiment,2020.2.10,Linux x86_64,60,60675255c767bca6388caeee,16.82046233,16.67747327,16.69482109,16.66598139,16.66330172,16.67747327,,,,,,,,,,,,,,,,,,,,PF,3,strong,,,,,,,,1,1.100595,,,,,,,,,,,,,,,,,,,,,,,,,,,,6,strong,-107,50,1,0,0,response7disk,2,178,14,3,1,0,0,rectangle,14,3,1,0,0,3,4,0.00317,14,3,1,0,0,0,15,15,112,1,0,,,,,,,,,,,,,,,,,,,,,
,,,,,,,,,,,,,,,,,,,,,,,,,,,,,,,,,,,,,,,,,,5f4803ba0013be282bd72b55,606a10b4db63559c70b4c56e,2021-04-04_21h18.24.694,Colour_Similarity_Experiment,2020.2.10,Linux x86_64,60,60675255c767bca6388caeee,16.82046233,16.67747327,16.69482109,16.66598139,16.66330172,16.67747327,,,,,,,,,,,,,,,,,,,,PF,3,weak,,,,,,,,6,1.11753,,,,,,,,,,,,,,,,,,,,,,,,,,,,2,weak,101,45,1,0,0,response1disk,8,179,-10,13,1,0,0,rectangle,-10,13,1,0,0,3,6,0.00341,-10,13,1,0,0,0,16,16,52,1,0,,,,,,,,,,,,,,,,,,,,,
,,,,,,,,,,,,,,,,,,,,,,,,,,,,,,,,,,,,,,,,,,5f4803ba0013be282bd72b55,606a10b4db63559c70b4c56e,2021-04-04_21h18.24.694,Colour_Similarity_Experiment,2020.2.10,Linux x86_64,60,60675255c767bca6388caeee,16.82046233,16.67747327,16.69482109,16.66598139,16.66330172,16.67747327,,,,,,,,,,,,,,,,,,,,PF,3,weak,,,,,,,,5,1.1174,,,,,,,,,,,,,,,,,,,,,,,,,,,,1,weak,121,-43,1,0,0,response3disk,1,180,10,-11,1,0,0,rectangle,136,100,1,0,0,6,6,1.90136,-4,0,1,0,0,0,17,17,76,1,1,response1disk_3,rectangle,,,,,,,,,,,,,,,,,,,
,,,,,,,,,,,,,,,,,,,,,,,,,,,,,,,,,,,,,,,,,,5f4803ba0013be282bd72b55,606a10b4db63559c70b4c56e,2021-04-04_21h18.24.694,Colour_Similarity_Experiment,2020.2.10,Linux x86_64,60,60675255c767bca6388caeee,16.82046233,16.67747327,16.69482109,16.66598139,16.66330172,16.67747327,,,,,,,,,,,,,,,,,,,,PF,3,strong,,,,,,,,4,1.750795,,,,,,,,,,,,,,,,,,,,,,,,,,,,9,strong,63,-102,1,0,0,response3disk,3,181,-3,-12,1,0,0,rectangle,-3,-12,1,0,0,6,7,0.00277,-3,-12,1,0,0,0,18,18,141,1,0,,,,,,,,,,,,,,,,,,,,,
,,,,,,,,,,,,,,,,,,,,,,,,,,,,,,,,,,,,,,,,,,5f4803ba0013be282bd72b55,606a10b4db63559c70b4c56e,2021-04-04_21h18.24.694,Colour_Similarity_Experiment,2020.2.10,Linux x86_64,60,60675255c767bca6388caeee,16.82046233,16.67747327,16.69482109,16.66598139,16.66330172,16.67747327,,,,,,,,,,,,,,,,,,,,PF,3,strong,,,,,,,,3,1.61741,,,,,,,,,,,,,,,,,,,,,,,,,,,,1,strong,-59,-110,1,0,0,response5disk,6,182,5,-2,1,0,0,rectangle,5,-2,1,0,0,6,6,0.003135,5,-2,1,0,0,0,19,19,58,1,0,,,,,,,,,,,,,,,,,,,,,
,,,,,,,,,,,,,,,,,,,,,,,,,,,,,,,,,,,,,,,,,,5f4803ba0013be282bd72b55,606a10b4db63559c70b4c56e,2021-04-04_21h18.24.694,Colour_Similarity_Experiment,2020.2.10,Linux x86_64,60,60675255c767bca6388caeee,16.82046233,16.67747327,16.69482109,16.66598139,16.66330172,16.67747327,,,,,,,,,,,,,,,,,,,,PF,3,strong,,,,,,,,7,1.567225,,,,,,,,,,,,,,,,,,,,,,,,,,,,7,strong,40,127,1,0,0,response1disk,1,183,12,-16,1,0,0,rectangle,12,-16,1,0,0,6,1,0.00374,12,-16,1,0,0,0,20,20,132,1,0,,,,,,,,,,,,,,,,,,,,,
,,,,,,,,,,,,,,,,,,,,,,,,,,,,,,,,,,,,,,,,,,5f4803ba0013be282bd72b55,606a10b4db63559c70b4c56e,2021-04-04_21h18.24.694,Colour_Similarity_Experiment,2020.2.10,Linux x86_64,60,60675255c767bca6388caeee,16.82046233,16.67747327,16.69482109,16.66598139,16.66330172,16.67747327,,,,,,,,,,,,,,,,,,,,PF,3,strong,,,,,,,,5,1.658645,,,,,,,,,,,,,,,,,,,,,,,,,,,,6,strong,155,-90,1,0,0,response3disk,5,184,19,6,1,0,0,rectangle,19,6,1,0,0,6,0,0.002635,19,6,1,0,0,0,21,21,126,1,0,,,,,,,,,,,,,,,,,,,,,
,,,,,,,,,,,,,,,,,,,,,,,,,,,,,,,,,,,,,,,,,,5f4803ba0013be282bd72b55,606a10b4db63559c70b4c56e,2021-04-04_21h18.24.694,Colour_Similarity_Experiment,2020.2.10,Linux x86_64,60,60675255c767bca6388caeee,16.82046233,16.67747327,16.69482109,16.66598139,16.66330172,16.67747327,,,,,,,,,,,,,,,,,,,,PF,3,weak,,,,,,,,4,1.7165,,,,,,,,,,,,,,,,,,,,,,,,,,,,1,weak,66,-103,1,0,0,response3disk,5,185,14,-7,1,0,0,rectangle,14,-7,1,0,0,6,1,0.0033,14,-7,1,0,0,0,22,22,28,1,0,,,,,,,,,,,,,,,,,,,,,
,,,,,,,,,,,,,,,,,,,,,,,,,,,,,,,,,,,,,,,,,,5f4803ba0013be282bd72b55,606a10b4db63559c70b4c56e,2021-04-04_21h18.24.694,Colour_Similarity_Experiment,2020.2.10,Linux x86_64,60,60675255c767bca6388caeee,16.82046233,16.67747327,16.69482109,16.66598139,16.66330172,16.67747327,,,,,,,,,,,,,,,,,,,,PF,3,strong,,,,,,,,6,1.41644,,,,,,,,,,,,,,,,,,,,,,,,,,,,9,strong,134,66,1,0,0,response1disk,1,186,4,6,1,0,0,rectangle,4,6,1,0,0,6,3,0.003,4,6,1,0,0,0,23,23,111,1,0,,,,,,,,,,,,,,,,,,,,,
,,,,,,,,,,,,,,,,,,,,,,,,,,,,,,,,,,,,,,,,,,5f4803ba0013be282bd72b55,606a10b4db63559c70b4c56e,2021-04-04_21h18.24.694,Colour_Similarity_Experiment,2020.2.10,Linux x86_64,60,60675255c767bca6388caeee,16.82046233,16.67747327,16.69482109,16.66598139,16.66330172,16.67747327,,,,,,,,,,,,,,,,,,,,PF,3,strong,,,,,,,,5,1.551685,,,,,,,,,,,,,,,,,,,,,,,,,,,,3,strong,104,-39,1,0,0,response3disk,8,187,23,8,1,0,0,rectangle,23,8,1,0,0,6,7,0.00296,23,8,1,0,0,0,24,24,44,1,0,,,,,,,,,,,,,,,,,,,,,
,,,,,,,,,,,,,,,,,,,,,,,,,,,,,,,,,,,,,,,,,,5f4803ba0013be282bd72b55,606a10b4db63559c70b4c56e,2021-04-04_21h18.24.694,Colour_Similarity_Experiment,2020.2.10,Linux x86_64,60,60675255c767bca6388caeee,16.82046233,16.67747327,16.69482109,16.66598139,16.66330172,16.67747327,,,,,,,,,,,,,,,,,,,,PF,3,strong,,,,,,,,5,1.13248,,,,,,,,,,,,,,,,,,,,,,,,,,,,2,strong,121,-39,1,0,0,response3disk,7,188,-4,-21,1,0,0,rectangle,-4,-21,1,0,0,6,5,0.00321,-4,-21,1,0,0,0,25,25,63,1,0,,,,,,,,,,,,,,,,,,,,,
,,,,,,,,,,,,,,,,,,,,,,,,,,,,,,,,,,,,,,,,,,5f4803ba0013be282bd72b55,606a10b4db63559c70b4c56e,2021-04-04_21h18.24.694,Colour_Similarity_Experiment,2020.2.10,Linux x86_64,60,60675255c767bca6388caeee,16.82046233,16.67747327,16.69482109,16.66598139,16.66330172,16.67747327,,,,,,,,,,,,,,,,,,,,PF,3,weak,,,,,,,,7,1.267165,,,,,,,,,,,,,,,,,,,,,,,,,,,,8,weak,51,163,1,0,0,response1disk,2,189,18,3,1,0,0,rectangle,18,3,1,0,0,6,2,0.00341,18,3,1,0,0,0,26,26,83,1,0,,,,,,,,,,,,,,,,,,,,,
,,,,,,,,,,,,,,,,,,,,,,,,,,,,,,,,,,,,,,,,,,5f4803ba0013be282bd72b55,606a10b4db63559c70b4c56e,2021-04-04_21h18.24.694,Colour_Similarity_Experiment,2020.2.10,Linux x86_64,60,60675255c767bca6388caeee,16.82046233,16.67747327,16.69482109,16.66598139,16.66330172,16.67747327,,,,,,,,,,,,,,,,,,,,PF,3,strong,,,,,,,,5,4.66709,,,,,,,,,,,,,,,,,,,,,,,,,,,,6,strong,123,-85,1,0,0,response3disk,8,190,21,12,1,0,0,rectangle,21,12,1,0,0,6,1,0.003405,21,12,1,0,0,0,27,27,133,1,0,,,,,,,,,,,,,,,,,,,,,
