key_resp.keys,key_resp.rt,key_resp_16.keys,key_resp_16.rt,key_resp_2.keys,key_resp_2.rt,X Scale,ratio_pxpermm,screen_size_x,screen_size_y,testsize,key_resp_3.keys,key_resp_4.keys,key_resp_4.rt,line_size,key_resp_5.keys,key_resp_5.rt,key_resp_6.keys,key_resp_6.rt,key_resp_8.keys,key_resp_8.rt,key_resp_7.keys,key_resp_7.rt,key_resp_12.keys,key_resp_12.rt,key_resp_11.keys,key_resp_11.rt,key_resp_18.keys,key_resp_18.rt,key_resp_21.keys,key_resp_21.rt,key_resp_13.keys,key_resp_13.rt,key_resp_19.keys,key_resp_19.rt,ballposx,viewer_distance,trials.thisRepN,trials.thisTrialN,trials.thisN,trials.thisIndex,trials.ran,participant,session,date,expName,psychopyVersion,OS,frameRate,study_id,realFrameRate1,realFrameRate2,realFrameRate3,realFrameRate4,realFrameRate5,realFrameRate,viewerdistancecm,DVA_to_distance,radius_F,radius_P,r_F,R_P,key_resp_20.keys,key_resp_20.rt,key_resp_14.keys,key_resp_14.rt,key_resp_15.keys,key_resp_15.rt,key_resp_17.keys,key_resp_17.rt,key_resp_9.keys,key_resp_9.rt,key_resp_10.keys,key_resp_10.rt,Colour_1,Ecc,mask_frames,maskCon,mouse_5.x,mouse_5.y,mouse_5.leftButton,mouse_5.midButton,mouse_5.rightButton,mouse_5.clicked_name,Colour_2,similarity,response_time,mouse_10.x,mouse_10.y,mouse_10.leftButton,mouse_10.midButton,mouse_10.rightButton,mouse_10.clicked_name,mouse_7.x,mouse_7.y,mouse_7.leftButton,mouse_7.midButton,mouse_7.rightButton,catchnumberprac,mouse_6.x,mouse_6.y,mouse_6.leftButton,mouse_6.midButton,mouse_6.rightButton,duringprac.thisRepN,duringprac.thisTrialN,duringprac.thisN,duringprac.thisIndex,duringprac.ran,mouse_7.clicked_name,catchprac,mouse_6.clicked_name,key_resp_22.keys,key_resp_22.rt,Colour1,maskCon1,mouse.x,mouse.y,mouse.leftButton,mouse.midButton,mouse.rightButton,mouse.clicked_name,Colour2,trialnumber,mouse_2.x,mouse_2.y,mouse_2.leftButton,mouse_2.midButton,mouse_2.rightButton,mouse_2.clicked_name,mouse_3.x,mouse_3.y,mouse_3.leftButton,mouse_3.midButton,mouse_3.rightButton,catchresponse,catchnumber,response_time_catch,mouse_11.x,mouse_11.y,mouse_11.leftButton,mouse_11.midButton,mouse_11.rightButton,trials_2.thisRepN,trials_2.thisTrialN,trials_2.thisN,trials_2.thisIndex,trials_2.ran,Catch,mouse_3.clicked_name,mouse_11.clicked_name,trials_3.thisRepN,trials_3.thisTrialN,trials_3.thisN,trials_3.thisIndex,trials_3.ran,answer1,rt1,answer2,rt2,answer3,rt3,answer4,rt4,answer5,rt5,answer6,rt6,answer7,rt7
space,1.533,space,9.003,space,3.852,36.1,3.61,531.8559557,299.1689751,1920,,space,7.024,72.2,space,7.995,space,4.539,space,1.254,space,2.425,space,5.179,space,3.654,space,4.014,space,5.738,space,8.326,return,12.524,-1445.76,2554.28738,0,0,0,0,1,5f549d6faee775809d6f5a33,606a10ee0223ae9d59fc388c,2021-04-04_21h19.41.804,Colour_Similarity_Experiment,2020.2.10,Win32,60,60675255c767bca6388caeee,17.13461538,16.7116451,16.68465909,16.72274882,16.71118531,16.7116451,,,,,,,,,,,,,,,,,,,,,,,,,,,,,,,,,,,,,,,,,,,,,,,,,,,,,,,,,,,,,,,,,,,,,,,,,,,,,,,,,,,,,,,,,,,,,,,,,,,,,,,,,,,,,,,,,,
,,,,,,,,,,,,,,,,,,,,,,,,,,,,,,,,,return,4.769,-106.56,1009.087512,1,0,1,0,1,5f549d6faee775809d6f5a33,606a10ee0223ae9d59fc388c,2021-04-04_21h19.41.804,Colour_Similarity_Experiment,2020.2.10,Win32,60,60675255c767bca6388caeee,17.13461538,16.7116451,16.68465909,16.72274882,16.71118531,16.7116451,,,,,,,,,,,,,,,,,,,,,,,,,,,,,,,,,,,,,,,,,,,,,,,,,,,,,,,,,,,,,,,,,,,,,,,,,,,,,,,,,,,,,,,,,,,,,,,,,,,,,,,,,,,,,,,,,,
,,,,,,,,,,,,,,,,,,,,,,,,,,,,,,,,,return,4.486,-57.6,952.5963342,2,0,2,0,1,5f549d6faee775809d6f5a33,606a10ee0223ae9d59fc388c,2021-04-04_21h19.41.804,Colour_Similarity_Experiment,2020.2.10,Win32,60,60675255c767bca6388caeee,17.13461538,16.7116451,16.68465909,16.72274882,16.71118531,16.7116451,,,,,,,,,,,,,,,,,,,,,,,,,,,,,,,,,,,,,,,,,,,,,,,,,,,,,,,,,,,,,,,,,,,,,,,,,,,,,,,,,,,,,,,,,,,,,,,,,,,,,,,,,,,,,,,,,,
,,,,,,,,,,,,,,,,,,,,,,,,,,,,,,,,,return,4.141,2.88,882.8131144,3,0,3,0,1,5f549d6faee775809d6f5a33,606a10ee0223ae9d59fc388c,2021-04-04_21h19.41.804,Colour_Similarity_Experiment,2020.2.10,Win32,60,60675255c767bca6388caeee,17.13461538,16.7116451,16.68465909,16.72274882,16.71118531,16.7116451,,,,,,,,,,,,,,,,,,,,,,,,,,,,,,,,,,,,,,,,,,,,,,,,,,,,,,,,,,,,,,,,,,,,,,,,,,,,,,,,,,,,,,,,,,,,,,,,,,,,,,,,,,,,,,,,,,
,,,,,,,,,,,,,,,,,,,,,,,,,,,,,,,,,return,4.187,-5.76,892.7821458,4,0,4,0,1,5f549d6faee775809d6f5a33,606a10ee0223ae9d59fc388c,2021-04-04_21h19.41.804,Colour_Similarity_Experiment,2020.2.10,Win32,60,60675255c767bca6388caeee,17.13461538,16.7116451,16.68465909,16.72274882,16.71118531,16.7116451,,,,,,,,,,,,,,,,,,,,,,,,,,,,,,,,,,,,,,,,,,,,,,,,,,,,,,,,,,,,,,,,,,,,,,,,,,,,,,,,,,,,,,,,,,,,,,,,,,,,,,,,,,,,,,,,,,
,,,,,,,,,,,,,,,,,,,,,,,,,,,,,,,,,,,,,,,,,,5f549d6faee775809d6f5a33,606a10ee0223ae9d59fc388c,2021-04-04_21h19.41.804,Colour_Similarity_Experiment,2020.2.10,Win32,60,60675255c767bca6388caeee,17.13461538,16.7116451,16.68465909,16.72274882,16.71118531,16.7116451,88,15.36045164,83.17684565,554.5123043,55.45123043,249.5305369,space,4.588,space,6.421,space,16.705,space,10.836,space,1.343,space,3.183,4,PF,3,strong,-30,-107,1,0,0,response5disk_5,3,3,6.973,4,2,1,0,0,rectangle_8,4,2,1,0,0,6,4,2,1,0,0,0,0,0,3,1,,,,,,,,,,,,,,,,,,,,,,,,,,,,,,,,,,,,,,,,,,,,,,,,,,,,,,,,,,,,,
,,,,,,,,,,,,,,,,,,,,,,,,,,,,,,,,,,,,,,,,,,5f549d6faee775809d6f5a33,606a10ee0223ae9d59fc388c,2021-04-04_21h19.41.804,Colour_Similarity_Experiment,2020.2.10,Win32,60,60675255c767bca6388caeee,17.13461538,16.7116451,16.68465909,16.72274882,16.71118531,16.7116451,,,,,,,,,,,,,,,,,,,8,PF,3,weak,123,52,1,0,0,response1disk_5,2,6,2.653,6,-15,1,0,0,rectangle_8,6,-15,1,0,0,6,6,-15,1,0,0,0,1,1,5,1,,,,,,,,,,,,,,,,,,,,,,,,,,,,,,,,,,,,,,,,,,,,,,,,,,,,,,,,,,,,,
,,,,,,,,,,,,,,,,,,,,,,,,,,,,,,,,,,,,,,,,,,5f549d6faee775809d6f5a33,606a10ee0223ae9d59fc388c,2021-04-04_21h19.41.804,Colour_Similarity_Experiment,2020.2.10,Win32,60,60675255c767bca6388caeee,17.13461538,16.7116451,16.68465909,16.72274882,16.71118531,16.7116451,,,,,,,,,,,,,,,,,,,2,PF,3,weak,48,85,1,0,0,response1disk_5,4,7,3.903,-2,8,1,0,0,rectangle_8,-2,8,1,0,0,6,-2,8,1,0,0,0,2,2,6,1,,,,,,,,,,,,,,,,,,,,,,,,,,,,,,,,,,,,,,,,,,,,,,,,,,,,,,,,,,,,,
,,,,,,,,,,,,,,,,,,,,,,,,,,,,,,,,,,,,,,,,,,5f549d6faee775809d6f5a33,606a10ee0223ae9d59fc388c,2021-04-04_21h19.41.804,Colour_Similarity_Experiment,2020.2.10,Win32,60,60675255c767bca6388caeee,17.13461538,16.7116451,16.68465909,16.72274882,16.71118531,16.7116451,,,,,,,,,,,,,,,,,,,7,PF,3,strong,142,26,1,0,0,response1disk_5,3,6,2.62,-22,9,1,0,0,rectangle_8,-22,9,1,0,0,6,-22,9,1,0,0,0,3,3,0,1,,,,,,,,,,,,,,,,,,,,,,,,,,,,,,,,,,,,,,,,,,,,,,,,,,,,,,,,,,,,,
,,,,,,,,,,,,,,,,,,,,,,,,,,,,,,,,,,,,,,,,,,5f549d6faee775809d6f5a33,606a10ee0223ae9d59fc388c,2021-04-04_21h19.41.804,Colour_Similarity_Experiment,2020.2.10,Win32,60,60675255c767bca6388caeee,17.13461538,16.7116451,16.68465909,16.72274882,16.71118531,16.7116451,,,,,,,,,,,,,,,,,,,1,PF,3,strong,56,69,1,0,0,response1disk_5,5,7,1.468,9,14,1,0,0,rectangle_8,94,41,1,0,0,6,-2,-4,1,0,0,0,4,4,2,1,response1disk_7,6,rectangle_4,,,,,,,,,,,,,,,,,,,,,,,,,,,,,,,,,,,,,,,,,,,,,,,,,,,,,,,,,,
,,,,,,,,,,,,,,,,,,,,,,,,,,,,,,,,,,,,,,,,,,5f549d6faee775809d6f5a33,606a10ee0223ae9d59fc388c,2021-04-04_21h19.41.804,Colour_Similarity_Experiment,2020.2.10,Win32,60,60675255c767bca6388caeee,17.13461538,16.7116451,16.68465909,16.72274882,16.71118531,16.7116451,,,,,,,,,,,,,,,,,,,7,PF,3,weak,-115,-57,1,0,0,response5disk_5,3,2,2.736,-14,-15,1,0,0,rectangle_8,-14,-15,1,0,0,6,-14,-15,1,0,0,0,5,5,1,1,,,,,,,,,,,,,,,,,,,,,,,,,,,,,,,,,,,,,,,,,,,,,,,,,,,,,,,,,,,,,
,,,,,,,,,,,,,,,,,,,,,,,,,,,,,,,,,,,,,,,,,,5f549d6faee775809d6f5a33,606a10ee0223ae9d59fc388c,2021-04-04_21h19.41.804,Colour_Similarity_Experiment,2020.2.10,Win32,60,60675255c767bca6388caeee,17.13461538,16.7116451,16.68465909,16.72274882,16.71118531,16.7116451,,,,,,,,,,,,,,,,,,,4,PF,3,weak,100,-77,1,0,0,response3disk_5,5,5,2.619,10,-21,1,0,0,rectangle_8,10,-21,1,0,0,6,10,-21,1,0,0,0,6,6,4,1,,,,,,,,,,,,,,,,,,,,,,,,,,,,,,,,,,,,,,,,,,,,,,,,,,,,,,,,,,,,,
,,,,,,,,,,,,,,,,,,,,,,,,,,,,,,,,,,,,,,,,,,5f549d6faee775809d6f5a33,606a10ee0223ae9d59fc388c,2021-04-04_21h19.41.804,Colour_Similarity_Experiment,2020.2.10,Win32,60,60675255c767bca6388caeee,17.13461538,16.7116451,16.68465909,16.72274882,16.71118531,16.7116451,,,,,,,,,,,,,,,,,,,,PF,3,strong,,,,,,,,7,2.335,,,,,,,,,,,,,,,,,,,,,,,,,,space,3.069,6,strong,73,82,1,0,0,response1disk,4,1,4,4,1,0,0,rectangle,4,4,1,0,0,,0,0.001,4,4,1,0,0,0,0,0,56,1,0,,,,,,,,,,,,,,,,,,,,,
,,,,,,,,,,,,,,,,,,,,,,,,,,,,,,,,,,,,,,,,,,5f549d6faee775809d6f5a33,606a10ee0223ae9d59fc388c,2021-04-04_21h19.41.804,Colour_Similarity_Experiment,2020.2.10,Win32,60,60675255c767bca6388caeee,17.13461538,16.7116451,16.68465909,16.72274882,16.71118531,16.7116451,,,,,,,,,,,,,,,,,,,,PF,3,weak,,,,,,,,6,1.802,,,,,,,,,,,,,,,,,,,,,,,,,,,,1,weak,136,49,1,0,0,response1disk,7,2,-17,8,1,0,0,rectangle,-17,8,1,0,0,,2,0,-17,8,1,0,0,0,1,1,150,1,0,,,,,,,,,,,,,,,,,,,,,
,,,,,,,,,,,,,,,,,,,,,,,,,,,,,,,,,,,,,,,,,,5f549d6faee775809d6f5a33,606a10ee0223ae9d59fc388c,2021-04-04_21h19.41.804,Colour_Similarity_Experiment,2020.2.10,Win32,60,60675255c767bca6388caeee,17.13461538,16.7116451,16.68465909,16.72274882,16.71118531,16.7116451,,,,,,,,,,,,,,,,,,,,PF,3,weak,,,,,,,,3,3.654,,,,,,,,,,,,,,,,,,,,,,,,,,,,5,weak,-63,-82,1,0,0,response5disk,5,3,-4,15,1,0,0,rectangle,-4,15,1,0,0,,4,0.001,-4,15,1,0,0,0,2,2,94,1,0,,,,,,,,,,,,,,,,,,,,,
,,,,,,,,,,,,,,,,,,,,,,,,,,,,,,,,,,,,,,,,,,5f549d6faee775809d6f5a33,606a10ee0223ae9d59fc388c,2021-04-04_21h19.41.804,Colour_Similarity_Experiment,2020.2.10,Win32,60,60675255c767bca6388caeee,17.13461538,16.7116451,16.68465909,16.72274882,16.71118531,16.7116451,,,,,,,,,,,,,,,,,,,,PF,3,strong,,,,,,,,7,1.051,,,,,,,,,,,,,,,,,,,,,,,,,,,,3,strong,36,60,1,0,0,response1disk,6,4,-7,-6,1,0,0,rectangle,-7,-6,1,0,0,,1,0,-7,-6,1,0,0,0,3,3,95,1,0,,,,,,,,,,,,,,,,,,,,,
,,,,,,,,,,,,,,,,,,,,,,,,,,,,,,,,,,,,,,,,,,5f549d6faee775809d6f5a33,606a10ee0223ae9d59fc388c,2021-04-04_21h19.41.804,Colour_Similarity_Experiment,2020.2.10,Win32,60,60675255c767bca6388caeee,17.13461538,16.7116451,16.68465909,16.72274882,16.71118531,16.7116451,,,,,,,,,,,,,,,,,,,,PF,3,strong,,,,,,,,4,2.219,,,,,,,,,,,,,,,,,,,,,,,,,,,,7,strong,36,-85,1,0,0,response3disk,4,5,10,-16,1,0,0,rectangle,10,-16,1,0,0,,7,0.002,10,-16,1,0,0,0,4,4,158,1,0,,,,,,,,,,,,,,,,,,,,,
,,,,,,,,,,,,,,,,,,,,,,,,,,,,,,,,,,,,,,,,,,5f549d6faee775809d6f5a33,606a10ee0223ae9d59fc388c,2021-04-04_21h19.41.804,Colour_Similarity_Experiment,2020.2.10,Win32,60,60675255c767bca6388caeee,17.13461538,16.7116451,16.68465909,16.72274882,16.71118531,16.7116451,,,,,,,,,,,,,,,,,,,,PF,3,strong,,,,,,,,5,3.587,,,,,,,,,,,,,,,,,,,,,,,,,,,,6,strong,127,-36,1,0,0,response3disk,1,6,-8,13,1,0,0,rectangle,-8,13,1,0,0,,1,0.002,-8,13,1,0,0,0,5,5,5,1,0,,,,,,,,,,,,,,,,,,,,,
,,,,,,,,,,,,,,,,,,,,,,,,,,,,,,,,,,,,,,,,,,5f549d6faee775809d6f5a33,606a10ee0223ae9d59fc388c,2021-04-04_21h19.41.804,Colour_Similarity_Experiment,2020.2.10,Win32,60,60675255c767bca6388caeee,17.13461538,16.7116451,16.68465909,16.72274882,16.71118531,16.7116451,,,,,,,,,,,,,,,,,,,,PF,3,strong,,,,,,,,6,3.736,,,,,,,,,,,,,,,,,,,,,,,,,,,,3,strong,128,32,1,0,0,response1disk,4,7,15,16,1,0,0,rectangle,15,16,1,0,0,,4,0.002,15,16,1,0,0,0,6,6,110,1,0,,,,,,,,,,,,,,,,,,,,,
,,,,,,,,,,,,,,,,,,,,,,,,,,,,,,,,,,,,,,,,,,5f549d6faee775809d6f5a33,606a10ee0223ae9d59fc388c,2021-04-04_21h19.41.804,Colour_Similarity_Experiment,2020.2.10,Win32,60,60675255c767bca6388caeee,17.13461538,16.7116451,16.68465909,16.72274882,16.71118531,16.7116451,,,,,,,,,,,,,,,,,,,,PF,3,strong,,,,,,,,7,1.301,,,,,,,,,,,,,,,,,,,,,,,,,,,,5,strong,49,80,1,0,0,response1disk,9,8,8,13,1,0,0,rectangle,8,13,1,0,0,,1,0.001,8,13,1,0,0,0,7,7,61,1,0,,,,,,,,,,,,,,,,,,,,,
,,,,,,,,,,,,,,,,,,,,,,,,,,,,,,,,,,,,,,,,,,5f549d6faee775809d6f5a33,606a10ee0223ae9d59fc388c,2021-04-04_21h19.41.804,Colour_Similarity_Experiment,2020.2.10,Win32,60,60675255c767bca6388caeee,17.13461538,16.7116451,16.68465909,16.72274882,16.71118531,16.7116451,,,,,,,,,,,,,,,,,,,,PF,3,strong,,,,,,,,7,1.268,,,,,,,,,,,,,,,,,,,,,,,,,,,,9,strong,46,72,1,0,0,response1disk,7,9,7,9,1,0,0,rectangle,7,9,1,0,0,,3,0.001,7,9,1,0,0,0,8,8,100,1,0,,,,,,,,,,,,,,,,,,,,,
,,,,,,,,,,,,,,,,,,,,,,,,,,,,,,,,,,,,,,,,,,5f549d6faee775809d6f5a33,606a10ee0223ae9d59fc388c,2021-04-04_21h19.41.804,Colour_Similarity_Experiment,2020.2.10,Win32,60,60675255c767bca6388caeee,17.13461538,16.7116451,16.68465909,16.72274882,16.71118531,16.7116451,,,,,,,,,,,,,,,,,,,,PF,3,strong,,,,,,,,4,3.053,,,,,,,,,,,,,,,,,,,,,,,,,,,,5,strong,36,-93,1,0,0,response3disk,3,10,-13,-6,1,0,0,rectangle,-13,-6,1,0,0,,0,0.002,-13,-6,1,0,0,0,9,9,25,1,0,,,,,,,,,,,,,,,,,,,,,
,,,,,,,,,,,,,,,,,,,,,,,,,,,,,,,,,,,,,,,,,,5f549d6faee775809d6f5a33,606a10ee0223ae9d59fc388c,2021-04-04_21h19.41.804,Colour_Similarity_Experiment,2020.2.10,Win32,60,60675255c767bca6388caeee,17.13461538,16.7116451,16.68465909,16.72274882,16.71118531,16.7116451,,,,,,,,,,,,,,,,,,,,PF,3,weak,,,,,,,,7,3.571,,,,,,,,,,,,,,,,,,,,,,,,,,,,8,weak,60,76,1,0,0,response1disk,1,11,12,6,1,0,0,rectangle,12,6,1,0,0,,3,0.001,12,6,1,0,0,0,10,10,57,1,0,,,,,,,,,,,,,,,,,,,,,
,,,,,,,,,,,,,,,,,,,,,,,,,,,,,,,,,,,,,,,,,,5f549d6faee775809d6f5a33,606a10ee0223ae9d59fc388c,2021-04-04_21h19.41.804,Colour_Similarity_Experiment,2020.2.10,Win32,60,60675255c767bca6388caeee,17.13461538,16.7116451,16.68465909,16.72274882,16.71118531,16.7116451,,,,,,,,,,,,,,,,,,,,PF,3,strong,,,,,,,,7,1.234,,,,,,,,,,,,,,,,,,,,,,,,,,,,8,strong,57,126,1,0,0,response1disk,7,12,5,9,1,0,0,rectangle,5,9,1,0,0,,6,0,5,9,1,0,0,0,11,11,86,1,0,,,,,,,,,,,,,,,,,,,,,
,,,,,,,,,,,,,,,,,,,,,,,,,,,,,,,,,,,,,,,,,,5f549d6faee775809d6f5a33,606a10ee0223ae9d59fc388c,2021-04-04_21h19.41.804,Colour_Similarity_Experiment,2020.2.10,Win32,60,60675255c767bca6388caeee,17.13461538,16.7116451,16.68465909,16.72274882,16.71118531,16.7116451,,,,,,,,,,,,,,,,,,,,PF,3,weak,,,,,,,,5,2.469,,,,,,,,,,,,,,,,,,,,,,,,,,,,7,weak,112,-34,1,0,0,response3disk,1,13,14,-7,1,0,0,rectangle,14,-7,1,0,0,,4,0,14,-7,1,0,0,0,12,12,53,1,0,,,,,,,,,,,,,,,,,,,,,
,,,,,,,,,,,,,,,,,,,,,,,,,,,,,,,,,,,,,,,,,,5f549d6faee775809d6f5a33,606a10ee0223ae9d59fc388c,2021-04-04_21h19.41.804,Colour_Similarity_Experiment,2020.2.10,Win32,60,60675255c767bca6388caeee,17.13461538,16.7116451,16.68465909,16.72274882,16.71118531,16.7116451,,,,,,,,,,,,,,,,,,,,PF,3,strong,,,,,,,,6,2.052,,,,,,,,,,,,,,,,,,,,,,,,,,,,2,strong,106,38,1,0,0,response1disk,5,14,7,2,1,0,0,rectangle,7,2,1,0,0,,6,0,7,2,1,0,0,0,13,13,80,1,0,,,,,,,,,,,,,,,,,,,,,
,,,,,,,,,,,,,,,,,,,,,,,,,,,,,,,,,,,,,,,,,,5f549d6faee775809d6f5a33,606a10ee0223ae9d59fc388c,2021-04-04_21h19.41.804,Colour_Similarity_Experiment,2020.2.10,Win32,60,60675255c767bca6388caeee,17.13461538,16.7116451,16.68465909,16.72274882,16.71118531,16.7116451,,,,,,,,,,,,,,,,,,,,PF,3,weak,,,,,,,,7,1.185,,,,,,,,,,,,,,,,,,,,,,,,,,,,2,weak,47,93,1,0,0,response1disk,1,15,-9,12,1,0,0,rectangle,-9,12,1,0,0,,3,0,-9,12,1,0,0,0,14,14,9,1,0,,,,,,,,,,,,,,,,,,,,,
,,,,,,,,,,,,,,,,,,,,,,,,,,,,,,,,,,,,,,,,,,5f549d6faee775809d6f5a33,606a10ee0223ae9d59fc388c,2021-04-04_21h19.41.804,Colour_Similarity_Experiment,2020.2.10,Win32,60,60675255c767bca6388caeee,17.13461538,16.7116451,16.68465909,16.72274882,16.71118531,16.7116451,,,,,,,,,,,,,,,,,,,,PF,3,weak,,,,,,,,5,3.537,,,,,,,,,,,,,,,,,,,,,,,,,,,,6,weak,73,-24,1,0,0,response3disk,7,16,11,-6,1,0,0,rectangle,11,-6,1,0,0,,7,0.001,11,-6,1,0,0,0,15,15,50,1,0,,,,,,,,,,,,,,,,,,,,,
,,,,,,,,,,,,,,,,,,,,,,,,,,,,,,,,,,,,,,,,,,5f549d6faee775809d6f5a33,606a10ee0223ae9d59fc388c,2021-04-04_21h19.41.804,Colour_Similarity_Experiment,2020.2.10,Win32,60,60675255c767bca6388caeee,17.13461538,16.7116451,16.68465909,16.72274882,16.71118531,16.7116451,,,,,,,,,,,,,,,,,,,,PF,3,weak,,,,,,,,0,1.318,,,,,,,,,,,,,,,,,,,,,,,,,,,,1,weak,-56,66,1,0,0,response7disk,1,17,0,-1,1,0,0,rectangle,94,45,1,0,0,6,6,2.568,11,-7,1,0,0,0,16,16,76,1,1,response1disk_3,rectangle,,,,,,,,,,,,,,,,,,,
,,,,,,,,,,,,,,,,,,,,,,,,,,,,,,,,,,,,,,,,,,5f549d6faee775809d6f5a33,606a10ee0223ae9d59fc388c,2021-04-04_21h19.41.804,Colour_Similarity_Experiment,2020.2.10,Win32,60,60675255c767bca6388caeee,17.13461538,16.7116451,16.68465909,16.72274882,16.71118531,16.7116451,,,,,,,,,,,,,,,,,,,,PF,3,weak,,,,,,,,7,1.534,,,,,,,,,,,,,,,,,,,,,,,,,,,,9,weak,53,79,1,0,0,response1disk,7,18,-1,6,1,0,0,rectangle,-1,6,1,0,0,6,3,0.001,-1,6,1,0,0,0,17,17,121,1,0,,,,,,,,,,,,,,,,,,,,,
,,,,,,,,,,,,,,,,,,,,,,,,,,,,,,,,,,,,,,,,,,5f549d6faee775809d6f5a33,606a10ee0223ae9d59fc388c,2021-04-04_21h19.41.804,Colour_Similarity_Experiment,2020.2.10,Win32,60,60675255c767bca6388caeee,17.13461538,16.7116451,16.68465909,16.72274882,16.71118531,16.7116451,,,,,,,,,,,,,,,,,,,,PF,3,weak,,,,,,,,2,1.502,,,,,,,,,,,,,,,,,,,,,,,,,,,,4,weak,-72,-39,1,0,0,response5disk,3,19,-8,-2,1,0,0,rectangle,-8,-2,1,0,0,6,4,0,-8,-2,1,0,0,0,18,18,89,1,0,,,,,,,,,,,,,,,,,,,,,
,,,,,,,,,,,,,,,,,,,,,,,,,,,,,,,,,,,,,,,,,,5f549d6faee775809d6f5a33,606a10ee0223ae9d59fc388c,2021-04-04_21h19.41.804,Colour_Similarity_Experiment,2020.2.10,Win32,60,60675255c767bca6388caeee,17.13461538,16.7116451,16.68465909,16.72274882,16.71118531,16.7116451,,,,,,,,,,,,,,,,,,,,PF,3,strong,,,,,,,,6,1.501,,,,,,,,,,,,,,,,,,,,,,,,,,,,5,strong,130,36,1,0,0,response1disk,6,20,31,-8,1,0,0,rectangle,31,-8,1,0,0,6,6,0,31,-8,1,0,0,0,19,19,12,1,0,,,,,,,,,,,,,,,,,,,,,
,,,,,,,,,,,,,,,,,,,,,,,,,,,,,,,,,,,,,,,,,,5f549d6faee775809d6f5a33,606a10ee0223ae9d59fc388c,2021-04-04_21h19.41.804,Colour_Similarity_Experiment,2020.2.10,Win32,60,60675255c767bca6388caeee,17.13461538,16.7116451,16.68465909,16.72274882,16.71118531,16.7116451,,,,,,,,,,,,,,,,,,,,PF,3,strong,,,,,,,,7,1.168,,,,,,,,,,,,,,,,,,,,,,,,,,,,2,strong,51,99,1,0,0,response1disk,6,21,2,10,1,0,0,rectangle,2,10,1,0,0,6,1,0.001,2,10,1,0,0,0,20,20,40,1,0,,,,,,,,,,,,,,,,,,,,,
,,,,,,,,,,,,,,,,,,,,,,,,,,,,,,,,,,,,,,,,,,5f549d6faee775809d6f5a33,606a10ee0223ae9d59fc388c,2021-04-04_21h19.41.804,Colour_Similarity_Experiment,2020.2.10,Win32,60,60675255c767bca6388caeee,17.13461538,16.7116451,16.68465909,16.72274882,16.71118531,16.7116451,,,,,,,,,,,,,,,,,,,,PF,3,strong,,,,,,,,7,1.552,,,,,,,,,,,,,,,,,,,,,,,,,,,,9,strong,66,102,1,0,0,response1disk,4,22,23,7,1,0,0,rectangle,23,7,1,0,0,6,7,0,23,7,1,0,0,0,21,21,60,1,0,,,,,,,,,,,,,,,,,,,,,
,,,,,,,,,,,,,,,,,,,,,,,,,,,,,,,,,,,,,,,,,,5f549d6faee775809d6f5a33,606a10ee0223ae9d59fc388c,2021-04-04_21h19.41.804,Colour_Similarity_Experiment,2020.2.10,Win32,60,60675255c767bca6388caeee,17.13461538,16.7116451,16.68465909,16.72274882,16.71118531,16.7116451,,,,,,,,,,,,,,,,,,,,PF,3,strong,,,,,,,,1,1.485,,,,,,,,,,,,,,,,,,,,,,,,,,,,6,strong,-73,34,1,0,0,response7disk,9,23,-20,5,1,0,0,rectangle,-89,-49,1,0,0,6,2,1.568,-6,7,1,0,0,0,22,22,160,1,1,response5disk_3,rectangle,,,,,,,,,,,,,,,,,,,
,,,,,,,,,,,,,,,,,,,,,,,,,,,,,,,,,,,,,,,,,,5f549d6faee775809d6f5a33,606a10ee0223ae9d59fc388c,2021-04-04_21h19.41.804,Colour_Similarity_Experiment,2020.2.10,Win32,60,60675255c767bca6388caeee,17.13461538,16.7116451,16.68465909,16.72274882,16.71118531,16.7116451,,,,,,,,,,,,,,,,,,,,PF,3,strong,,,,,,,,5,1.852,,,,,,,,,,,,,,,,,,,,,,,,,,,,3,strong,79,-57,1,0,0,response3disk,9,24,24,-20,1,0,0,rectangle,24,-20,1,0,0,6,4,0,24,-20,1,0,0,0,23,23,143,1,0,,,,,,,,,,,,,,,,,,,,,
,,,,,,,,,,,,,,,,,,,,,,,,,,,,,,,,,,,,,,,,,,5f549d6faee775809d6f5a33,606a10ee0223ae9d59fc388c,2021-04-04_21h19.41.804,Colour_Similarity_Experiment,2020.2.10,Win32,60,60675255c767bca6388caeee,17.13461538,16.7116451,16.68465909,16.72274882,16.71118531,16.7116451,,,,,,,,,,,,,,,,,,,,PF,3,weak,,,,,,,,4,2.551,,,,,,,,,,,,,,,,,,,,,,,,,,,,3,weak,48,-84,1,0,0,response3disk,5,25,-1,-1,1,0,0,rectangle,-1,-1,1,0,0,6,1,0.001,-1,-1,1,0,0,0,24,24,66,1,0,,,,,,,,,,,,,,,,,,,,,
,,,,,,,,,,,,,,,,,,,,,,,,,,,,,,,,,,,,,,,,,,5f549d6faee775809d6f5a33,606a10ee0223ae9d59fc388c,2021-04-04_21h19.41.804,Colour_Similarity_Experiment,2020.2.10,Win32,60,60675255c767bca6388caeee,17.13461538,16.7116451,16.68465909,16.72274882,16.71118531,16.7116451,,,,,,,,,,,,,,,,,,,,PF,3,weak,,,,,,,,1,1.552,,,,,,,,,,,,,,,,,,,,,,,,,,,,6,weak,-65,36,1,0,0,response7disk,5,26,-12,6,1,0,0,rectangle,-12,6,1,0,0,6,5,0,-12,6,1,0,0,0,25,25,59,1,0,,,,,,,,,,,,,,,,,,,,,
,,,,,,,,,,,,,,,,,,,,,,,,,,,,,,,,,,,,,,,,,,5f549d6faee775809d6f5a33,606a10ee0223ae9d59fc388c,2021-04-04_21h19.41.804,Colour_Similarity_Experiment,2020.2.10,Win32,60,60675255c767bca6388caeee,17.13461538,16.7116451,16.68465909,16.72274882,16.71118531,16.7116451,,,,,,,,,,,,,,,,,,,,PF,3,strong,,,,,,,,0,1.651,,,,,,,,,,,,,,,,,,,,,,,,,,,,8,strong,-31,74,1,0,0,response7disk,9,27,-14,7,1,0,0,rectangle,-14,7,1,0,0,6,3,0,-14,7,1,0,0,0,26,26,105,1,0,,,,,,,,,,,,,,,,,,,,,
,,,,,,,,,,,,,,,,,,,,,,,,,,,,,,,,,,,,,,,,,,5f549d6faee775809d6f5a33,606a10ee0223ae9d59fc388c,2021-04-04_21h19.41.804,Colour_Similarity_Experiment,2020.2.10,Win32,60,60675255c767bca6388caeee,17.13461538,16.7116451,16.68465909,16.72274882,16.71118531,16.7116451,,,,,,,,,,,,,,,,,,,,PF,3,strong,,,,,,,,6,1.935,,,,,,,,,,,,,,,,,,,,,,,,,,,,7,strong,97,39,1,0,0,response1disk,2,28,21,0,1,0,0,rectangle,21,0,1,0,0,6,0,0.001,21,0,1,0,0,0,27,27,138,1,0,,,,,,,,,,,,,,,,,,,,,
,,,,,,,,,,,,,,,,,,,,,,,,,,,,,,,,,,,,,,,,,,5f549d6faee775809d6f5a33,606a10ee0223ae9d59fc388c,2021-04-04_21h19.41.804,Colour_Similarity_Experiment,2020.2.10,Win32,60,60675255c767bca6388caeee,17.13461538,16.7116451,16.68465909,16.72274882,16.71118531,16.7116451,,,,,,,,,,,,,,,,,,,,PF,3,weak,,,,,,,,7,1.235,,,,,,,,,,,,,,,,,,,,,,,,,,,,7,weak,49,68,1,0,0,response1disk,3,29,-7,1,1,0,0,rectangle,-7,1,1,0,0,6,3,0,-7,1,1,0,0,0,28,28,81,1,0,,,,,,,,,,,,,,,,,,,,,
,,,,,,,,,,,,,,,,,,,,,,,,,,,,,,,,,,,,,,,,,,5f549d6faee775809d6f5a33,606a10ee0223ae9d59fc388c,2021-04-04_21h19.41.804,Colour_Similarity_Experiment,2020.2.10,Win32,60,60675255c767bca6388caeee,17.13461538,16.7116451,16.68465909,16.72274882,16.71118531,16.7116451,,,,,,,,,,,,,,,,,,,,PF,3,weak,,,,,,,,0,1.185,,,,,,,,,,,,,,,,,,,,,,,,,,,,7,weak,-37,60,1,0,0,response7disk,7,30,-16,8,1,0,0,rectangle,-16,8,1,0,0,6,5,0.001,-16,8,1,0,0,0,29,29,51,1,0,,,,,,,,,,,,,,,,,,,,,
,,,,,,,,,,,,,,,,,,,,,,,,,,,,,,,,,,,,,,,,,,5f549d6faee775809d6f5a33,606a10ee0223ae9d59fc388c,2021-04-04_21h19.41.804,Colour_Similarity_Experiment,2020.2.10,Win32,60,60675255c767bca6388caeee,17.13461538,16.7116451,16.68465909,16.72274882,16.71118531,16.7116451,,,,,,,,,,,,,,,,,,,,PF,3,strong,,,,,,,,5,1.385,,,,,,,,,,,,,,,,,,,,,,,,,,,,8,strong,76,-44,1,0,0,response3disk,2,31,-20,2,1,0,0,rectangle,-20,2,1,0,0,6,3,0,-20,2,1,0,0,0,30,30,22,1,0,,,,,,,,,,,,,,,,,,,,,
,,,,,,,,,,,,,,,,,,,,,,,,,,,,,,,,,,,,,,,,,,5f549d6faee775809d6f5a33,606a10ee0223ae9d59fc388c,2021-04-04_21h19.41.804,Colour_Similarity_Experiment,2020.2.10,Win32,60,60675255c767bca6388caeee,17.13461538,16.7116451,16.68465909,16.72274882,16.71118531,16.7116451,,,,,,,,,,,,,,,,,,,,PF,3,weak,,,,,,,,6,3.887,,,,,,,,,,,,,,,,,,,,,,,,,,,,1,weak,132,47,1,0,0,response1disk,3,32,39,6,1,0,0,rectangle,39,6,1,0,0,6,0,0,39,6,1,0,0,0,31,31,1,1,0,,,,,,,,,,,,,,,,,,,,,
,,,,,,,,,,,,,,,,,,,,,,,,,,,,,,,,,,,,,,,,,,5f549d6faee775809d6f5a33,606a10ee0223ae9d59fc388c,2021-04-04_21h19.41.804,Colour_Similarity_Experiment,2020.2.10,Win32,60,60675255c767bca6388caeee,17.13461538,16.7116451,16.68465909,16.72274882,16.71118531,16.7116451,,,,,,,,,,,,,,,,,,,,PF,3,strong,,,,,,,,6,1.802,,,,,,,,,,,,,,,,,,,,,,,,,,,,5,strong,125,40,1,0,0,response1disk,1,33,9,-5,1,0,0,rectangle,9,-5,1,0,0,6,3,0.001,9,-5,1,0,0,0,32,32,131,1,0,,,,,,,,,,,,,,,,,,,,,
,,,,,,,,,,,,,,,,,,,,,,,,,,,,,,,,,,,,,,,,,,5f549d6faee775809d6f5a33,606a10ee0223ae9d59fc388c,2021-04-04_21h19.41.804,Colour_Similarity_Experiment,2020.2.10,Win32,60,60675255c767bca6388caeee,17.13461538,16.7116451,16.68465909,16.72274882,16.71118531,16.7116451,,,,,,,,,,,,,,,,,,,,PF,3,weak,,,,,,,,5,1.667,,,,,,,,,,,,,,,,,,,,,,,,,,,,9,weak,126,-75,1,0,0,response3disk,4,34,3,-1,1,0,0,rectangle,3,-1,1,0,0,6,2,0.001,3,-1,1,0,0,0,33,33,114,1,0,,,,,,,,,,,,,,,,,,,,,
,,,,,,,,,,,,,,,,,,,,,,,,,,,,,,,,,,,,,,,,,,5f549d6faee775809d6f5a33,606a10ee0223ae9d59fc388c,2021-04-04_21h19.41.804,Colour_Similarity_Experiment,2020.2.10,Win32,60,60675255c767bca6388caeee,17.13461538,16.7116451,16.68465909,16.72274882,16.71118531,16.7116451,,,,,,,,,,,,,,,,,,,,PF,3,weak,,,,,,,,6,1.401,,,,,,,,,,,,,,,,,,,,,,,,,,,,9,weak,113,37,1,0,0,response1disk,6,35,0,8,1,0,0,rectangle,0,8,1,0,0,6,4,0,0,8,1,0,0,0,34,34,148,1,0,,,,,,,,,,,,,,,,,,,,,
,,,,,,,,,,,,,,,,,,,,,,,,,,,,,,,,,,,,,,,,,,5f549d6faee775809d6f5a33,606a10ee0223ae9d59fc388c,2021-04-04_21h19.41.804,Colour_Similarity_Experiment,2020.2.10,Win32,60,60675255c767bca6388caeee,17.13461538,16.7116451,16.68465909,16.72274882,16.71118531,16.7116451,,,,,,,,,,,,,,,,,,,,PF,3,strong,,,,,,,,7,1.051,,,,,,,,,,,,,,,,,,,,,,,,,,,,9,strong,62,89,1,0,0,response1disk,2,36,8,11,1,0,0,rectangle,-48,107,1,0,0,0,0,1.484,1,4,1,0,0,0,35,35,11,1,1,response7disk_3,rectangle,,,,,,,,,,,,,,,,,,,
,,,,,,,,,,,,,,,,,,,,,,,,,,,,,,,,,,,,,,,,,,5f549d6faee775809d6f5a33,606a10ee0223ae9d59fc388c,2021-04-04_21h19.41.804,Colour_Similarity_Experiment,2020.2.10,Win32,60,60675255c767bca6388caeee,17.13461538,16.7116451,16.68465909,16.72274882,16.71118531,16.7116451,,,,,,,,,,,,,,,,,,,,PF,3,weak,,,,,,,,5,1.318,,,,,,,,,,,,,,,,,,,,,,,,,,,,2,weak,98,-45,1,0,0,response3disk,5,37,31,-5,1,0,0,rectangle,31,-5,1,0,0,0,3,0,31,-5,1,0,0,0,36,36,147,1,0,,,,,,,,,,,,,,,,,,,,,
,,,,,,,,,,,,,,,,,,,,,,,,,,,,,,,,,,,,,,,,,,5f549d6faee775809d6f5a33,606a10ee0223ae9d59fc388c,2021-04-04_21h19.41.804,Colour_Similarity_Experiment,2020.2.10,Win32,60,60675255c767bca6388caeee,17.13461538,16.7116451,16.68465909,16.72274882,16.71118531,16.7116451,,,,,,,,,,,,,,,,,,,,PF,3,strong,,,,,,,,6,1.068,,,,,,,,,,,,,,,,,,,,,,,,,,,,9,strong,82,38,1,0,0,response1disk,6,38,4,0,1,0,0,rectangle,4,0,1,0,0,0,2,0.001,4,0,1,0,0,0,37,37,117,1,0,,,,,,,,,,,,,,,,,,,,,
,,,,,,,,,,,,,,,,,,,,,,,,,,,,,,,,,,,,,,,,,,5f549d6faee775809d6f5a33,606a10ee0223ae9d59fc388c,2021-04-04_21h19.41.804,Colour_Similarity_Experiment,2020.2.10,Win32,60,60675255c767bca6388caeee,17.13461538,16.7116451,16.68465909,16.72274882,16.71118531,16.7116451,,,,,,,,,,,,,,,,,,,,PF,3,weak,,,,,,,,7,1.151,,,,,,,,,,,,,,,,,,,,,,,,,,,,1,weak,53,74,1,0,0,response1disk,2,39,-2,12,1,0,0,rectangle,-2,12,1,0,0,0,3,0,-2,12,1,0,0,0,38,38,24,1,0,,,,,,,,,,,,,,,,,,,,,
,,,,,,,,,,,,,,,,,,,,,,,,,,,,,,,,,,,,,,,,,,5f549d6faee775809d6f5a33,606a10ee0223ae9d59fc388c,2021-04-04_21h19.41.804,Colour_Similarity_Experiment,2020.2.10,Win32,60,60675255c767bca6388caeee,17.13461538,16.7116451,16.68465909,16.72274882,16.71118531,16.7116451,,,,,,,,,,,,,,,,,,,,PF,3,strong,,,,,,,,2,1.552,,,,,,,,,,,,,,,,,,,,,,,,,,,,5,strong,-82,-33,1,0,0,response5disk,5,40,6,7,1,0,0,rectangle,6,7,1,0,0,0,5,0.001,6,7,1,0,0,0,39,39,19,1,0,,,,,,,,,,,,,,,,,,,,,
,,,,,,,,,,,,,,,,,,,,,,,,,,,,,,,,,,,,,,,,,,5f549d6faee775809d6f5a33,606a10ee0223ae9d59fc388c,2021-04-04_21h19.41.804,Colour_Similarity_Experiment,2020.2.10,Win32,60,60675255c767bca6388caeee,17.13461538,16.7116451,16.68465909,16.72274882,16.71118531,16.7116451,,,,,,,,,,,,,,,,,,,,PF,3,weak,,,,,,,,5,3.153,,,,,,,,,,,,,,,,,,,,,,,,,,,,4,weak,105,-31,1,0,0,response3disk,4,41,16,-1,1,0,0,rectangle,16,-1,1,0,0,0,3,0,16,-1,1,0,0,0,40,40,70,1,0,,,,,,,,,,,,,,,,,,,,,
,,,,,,,,,,,,,,,,,,,,,,,,,,,,,,,,,,,,,,,,,,5f549d6faee775809d6f5a33,606a10ee0223ae9d59fc388c,2021-04-04_21h19.41.804,Colour_Similarity_Experiment,2020.2.10,Win32,60,60675255c767bca6388caeee,17.13461538,16.7116451,16.68465909,16.72274882,16.71118531,16.7116451,,,,,,,,,,,,,,,,,,,,PF,3,strong,,,,,,,,6,1.201,,,,,,,,,,,,,,,,,,,,,,,,,,,,3,strong,88,51,1,0,0,response1disk,8,42,6,0,1,0,0,rectangle,6,0,1,0,0,0,5,0,6,0,1,0,0,0,41,41,44,1,0,,,,,,,,,,,,,,,,,,,,,
,,,,,,,,,,,,,,,,,,,,,,,,,,,,,,,,,,,,,,,,,,5f549d6faee775809d6f5a33,606a10ee0223ae9d59fc388c,2021-04-04_21h19.41.804,Colour_Similarity_Experiment,2020.2.10,Win32,60,60675255c767bca6388caeee,17.13461538,16.7116451,16.68465909,16.72274882,16.71118531,16.7116451,,,,,,,,,,,,,,,,,,,,PF,3,weak,,,,,,,,7,0.918,,,,,,,,,,,,,,,,,,,,,,,,,,,,9,weak,46,81,1,0,0,response1disk,2,43,4,9,1,0,0,rectangle,4,9,1,0,0,0,7,0.001,4,9,1,0,0,0,42,42,157,1,0,,,,,,,,,,,,,,,,,,,,,
,,,,,,,,,,,,,,,,,,,,,,,,,,,,,,,,,,,,,,,,,,5f549d6faee775809d6f5a33,606a10ee0223ae9d59fc388c,2021-04-04_21h19.41.804,Colour_Similarity_Experiment,2020.2.10,Win32,60,60675255c767bca6388caeee,17.13461538,16.7116451,16.68465909,16.72274882,16.71118531,16.7116451,,,,,,,,,,,,,,,,,,,,PF,3,strong,,,,,,,,0,1.068,,,,,,,,,,,,,,,,,,,,,,,,,,,,2,strong,-35,67,1,0,0,response7disk,2,44,-28,9,1,0,0,rectangle,-28,9,1,0,0,0,5,0.001,-28,9,1,0,0,0,43,43,142,1,0,,,,,,,,,,,,,,,,,,,,,
,,,,,,,,,,,,,,,,,,,,,,,,,,,,,,,,,,,,,,,,,,5f549d6faee775809d6f5a33,606a10ee0223ae9d59fc388c,2021-04-04_21h19.41.804,Colour_Similarity_Experiment,2020.2.10,Win32,60,60675255c767bca6388caeee,17.13461538,16.7116451,16.68465909,16.72274882,16.71118531,16.7116451,,,,,,,,,,,,,,,,,,,,PF,3,weak,,,,,,,,5,1.468,,,,,,,,,,,,,,,,,,,,,,,,,,,,7,weak,97,-35,1,0,0,response3disk,9,45,18,-8,1,0,0,rectangle,18,-8,1,0,0,0,2,0.001,18,-8,1,0,0,0,44,44,10,1,0,,,,,,,,,,,,,,,,,,,,,
,,,,,,,,,,,,,,,,,,,,,,,,,,,,,,,,,,,,,,,,,,5f549d6faee775809d6f5a33,606a10ee0223ae9d59fc388c,2021-04-04_21h19.41.804,Colour_Similarity_Experiment,2020.2.10,Win32,60,60675255c767bca6388caeee,17.13461538,16.7116451,16.68465909,16.72274882,16.71118531,16.7116451,,,,,,,,,,,,,,,,,,,,PF,3,weak,,,,,,,,6,1.168,,,,,,,,,,,,,,,,,,,,,,,,,,,,6,weak,85,41,1,0,0,response1disk,2,46,-11,-6,1,0,0,rectangle,-11,-6,1,0,0,0,1,0.001,-11,-6,1,0,0,0,45,45,130,1,0,,,,,,,,,,,,,,,,,,,,,
,,,,,,,,,,,,,,,,,,,,,,,,,,,,,,,,,,,,,,,,,,5f549d6faee775809d6f5a33,606a10ee0223ae9d59fc388c,2021-04-04_21h19.41.804,Colour_Similarity_Experiment,2020.2.10,Win32,60,60675255c767bca6388caeee,17.13461538,16.7116451,16.68465909,16.72274882,16.71118531,16.7116451,,,,,,,,,,,,,,,,,,,,PF,3,strong,,,,,,,,3,1.719,,,,,,,,,,,,,,,,,,,,,,,,,,,,2,strong,-36,-105,1,0,0,response5disk,3,47,-4,-14,1,0,0,rectangle,87,-34,1,0,0,5,5,1.352,4,-9,1,0,0,0,46,46,104,1,1,response3disk_3,rectangle,,,,,,,,,,,,,,,,,,,
,,,,,,,,,,,,,,,,,,,,,,,,,,,,,,,,,,,,,,,,,,5f549d6faee775809d6f5a33,606a10ee0223ae9d59fc388c,2021-04-04_21h19.41.804,Colour_Similarity_Experiment,2020.2.10,Win32,60,60675255c767bca6388caeee,17.13461538,16.7116451,16.68465909,16.72274882,16.71118531,16.7116451,,,,,,,,,,,,,,,,,,,,PF,3,weak,,,,,,,,5,1.167,,,,,,,,,,,,,,,,,,,,,,,,,,,,9,weak,89,-38,1,0,0,response3disk,5,48,18,-18,1,0,0,rectangle,18,-18,1,0,0,5,2,0,18,-18,1,0,0,0,47,47,134,1,0,,,,,,,,,,,,,,,,,,,,,
,,,,,,,,,,,,,,,,,,,,,,,,,,,,,,,,,,,,,,,,,,5f549d6faee775809d6f5a33,606a10ee0223ae9d59fc388c,2021-04-04_21h19.41.804,Colour_Similarity_Experiment,2020.2.10,Win32,60,60675255c767bca6388caeee,17.13461538,16.7116451,16.68465909,16.72274882,16.71118531,16.7116451,,,,,,,,,,,,,,,,,,,,PF,3,strong,,,,,,,,5,1.903,,,,,,,,,,,,,,,,,,,,,,,,,,,,7,strong,103,-83,1,0,0,response3disk,8,49,-2,-19,1,0,0,rectangle,-105,57,1,0,0,1,1,1.351,-8,5,1,0,0,0,48,48,97,1,1,response7disk_3,rectangle,,,,,,,,,,,,,,,,,,,
,,,,,,,,,,,,,,,,,,,,,,,,,,,,,,,,,,,,,,,,,,5f549d6faee775809d6f5a33,606a10ee0223ae9d59fc388c,2021-04-04_21h19.41.804,Colour_Similarity_Experiment,2020.2.10,Win32,60,60675255c767bca6388caeee,17.13461538,16.7116451,16.68465909,16.72274882,16.71118531,16.7116451,,,,,,,,,,,,,,,,,,,,PF,3,strong,,,,,,,,6,2.035,,,,,,,,,,,,,,,,,,,,,,,,,,,,3,strong,126,36,1,0,0,response1disk,5,50,13,-8,1,0,0,rectangle,13,-8,1,0,0,1,7,0.001,13,-8,1,0,0,0,49,49,101,1,0,,,,,,,,,,,,,,,,,,,,,
,,,,,,,,,,,,,,,,,,,,,,,,,,,,,,,,,,,,,,,,,,5f549d6faee775809d6f5a33,606a10ee0223ae9d59fc388c,2021-04-04_21h19.41.804,Colour_Similarity_Experiment,2020.2.10,Win32,60,60675255c767bca6388caeee,17.13461538,16.7116451,16.68465909,16.72274882,16.71118531,16.7116451,,,,,,,,,,,,,,,,,,,,PF,3,strong,,,,,,,,0,1.034,,,,,,,,,,,,,,,,,,,,,,,,,,,,7,strong,-48,93,1,0,0,response7disk,7,51,1,19,1,0,0,rectangle,1,19,1,0,0,1,4,0,1,19,1,0,0,0,50,50,34,1,0,,,,,,,,,,,,,,,,,,,,,
,,,,,,,,,,,,,,,,,,,,,,,,,,,,,,,,,,,,,,,,,,5f549d6faee775809d6f5a33,606a10ee0223ae9d59fc388c,2021-04-04_21h19.41.804,Colour_Similarity_Experiment,2020.2.10,Win32,60,60675255c767bca6388caeee,17.13461538,16.7116451,16.68465909,16.72274882,16.71118531,16.7116451,,,,,,,,,,,,,,,,,,,,PF,3,weak,,,,,,,,3,1.401,,,,,,,,,,,,,,,,,,,,,,,,,,,,5,weak,-37,-116,1,0,0,response5disk,2,52,7,5,1,0,0,rectangle,7,5,1,0,0,1,0,0,7,5,1,0,0,0,51,51,129,1,0,,,,,,,,,,,,,,,,,,,,,
,,,,,,,,,,,,,,,,,,,,,,,,,,,,,,,,,,,,,,,,,,5f549d6faee775809d6f5a33,606a10ee0223ae9d59fc388c,2021-04-04_21h19.41.804,Colour_Similarity_Experiment,2020.2.10,Win32,60,60675255c767bca6388caeee,17.13461538,16.7116451,16.68465909,16.72274882,16.71118531,16.7116451,,,,,,,,,,,,,,,,,,,,PF,3,strong,,,,,,,,2,1.519,,,,,,,,,,,,,,,,,,,,,,,,,,,,6,strong,-113,-44,1,0,0,response5disk,7,53,-8,2,1,0,0,rectangle,-8,2,1,0,0,1,0,0,-8,2,1,0,0,0,52,52,18,1,0,,,,,,,,,,,,,,,,,,,,,
,,,,,,,,,,,,,,,,,,,,,,,,,,,,,,,,,,,,,,,,,,5f549d6faee775809d6f5a33,606a10ee0223ae9d59fc388c,2021-04-04_21h19.41.804,Colour_Similarity_Experiment,2020.2.10,Win32,60,60675255c767bca6388caeee,17.13461538,16.7116451,16.68465909,16.72274882,16.71118531,16.7116451,,,,,,,,,,,,,,,,,,,,PF,3,weak,,,,,,,,1,1.468,,,,,,,,,,,,,,,,,,,,,,,,,,,,2,weak,-100,67,1,0,0,response7disk,2,54,-4,3,1,0,0,rectangle,-4,3,1,0,0,1,5,0.002,-4,3,1,0,0,0,53,53,14,1,0,,,,,,,,,,,,,,,,,,,,,
,,,,,,,,,,,,,,,,,,,,,,,,,,,,,,,,,,,,,,,,,,5f549d6faee775809d6f5a33,606a10ee0223ae9d59fc388c,2021-04-04_21h19.41.804,Colour_Similarity_Experiment,2020.2.10,Win32,60,60675255c767bca6388caeee,17.13461538,16.7116451,16.68465909,16.72274882,16.71118531,16.7116451,,,,,,,,,,,,,,,,,,,,PF,3,weak,,,,,,,,6,1.134,,,,,,,,,,,,,,,,,,,,,,,,,,,,6,weak,84,42,1,0,0,response1disk,1,55,36,4,1,0,0,rectangle,36,4,1,0,0,1,7,0.001,36,4,1,0,0,0,54,54,46,1,0,,,,,,,,,,,,,,,,,,,,,
,,,,,,,,,,,,,,,,,,,,,,,,,,,,,,,,,,,,,,,,,,5f549d6faee775809d6f5a33,606a10ee0223ae9d59fc388c,2021-04-04_21h19.41.804,Colour_Similarity_Experiment,2020.2.10,Win32,60,60675255c767bca6388caeee,17.13461538,16.7116451,16.68465909,16.72274882,16.71118531,16.7116451,,,,,,,,,,,,,,,,,,,,PF,3,strong,,,,,,,,7,1.469,,,,,,,,,,,,,,,,,,,,,,,,,,,,3,strong,69,107,1,0,0,response1disk,7,56,8,-2,1,0,0,rectangle,8,-2,1,0,0,1,2,0.001,8,-2,1,0,0,0,55,55,118,1,0,,,,,,,,,,,,,,,,,,,,,
,,,,,,,,,,,,,,,,,,,,,,,,,,,,,,,,,,,,,,,,,,5f549d6faee775809d6f5a33,606a10ee0223ae9d59fc388c,2021-04-04_21h19.41.804,Colour_Similarity_Experiment,2020.2.10,Win32,60,60675255c767bca6388caeee,17.13461538,16.7116451,16.68465909,16.72274882,16.71118531,16.7116451,,,,,,,,,,,,,,,,,,,,PF,3,strong,,,,,,,,6,2.387,,,,,,,,,,,,,,,,,,,,,,,,,,,,9,strong,114,46,1,0,0,response1disk,3,57,20,-5,1,0,0,rectangle,20,-5,1,0,0,1,6,0,20,-5,1,0,0,0,56,56,141,1,0,,,,,,,,,,,,,,,,,,,,,
,,,,,,,,,,,,,,,,,,,,,,,,,,,,,,,,,,,,,,,,,,5f549d6faee775809d6f5a33,606a10ee0223ae9d59fc388c,2021-04-04_21h19.41.804,Colour_Similarity_Experiment,2020.2.10,Win32,60,60675255c767bca6388caeee,17.13461538,16.7116451,16.68465909,16.72274882,16.71118531,16.7116451,,,,,,,,,,,,,,,,,,,,PF,3,weak,,,,,,,,6,1.017,,,,,,,,,,,,,,,,,,,,,,,,,,,,8,weak,93,44,1,0,0,response1disk,2,58,-6,-1,1,0,0,rectangle,-6,-1,1,0,0,1,0,0.001,-6,-1,1,0,0,0,57,57,83,1,0,,,,,,,,,,,,,,,,,,,,,
,,,,,,,,,,,,,,,,,,,,,,,,,,,,,,,,,,,,,,,,,,5f549d6faee775809d6f5a33,606a10ee0223ae9d59fc388c,2021-04-04_21h19.41.804,Colour_Similarity_Experiment,2020.2.10,Win32,60,60675255c767bca6388caeee,17.13461538,16.7116451,16.68465909,16.72274882,16.71118531,16.7116451,,,,,,,,,,,,,,,,,,,,PF,3,weak,,,,,,,,4,1.652,,,,,,,,,,,,,,,,,,,,,,,,,,,,5,weak,59,-101,1,0,0,response3disk,9,59,13,-10,1,0,0,rectangle,-91,-40,1,0,0,1,2,1.451,-5,-3,1,0,0,0,58,58,136,1,1,response5disk_3,rectangle,,,,,,,,,,,,,,,,,,,
,,,,,,,,,,,,,,,,,,,,,,,,,,,,,,,,,,,,,,,,,,5f549d6faee775809d6f5a33,606a10ee0223ae9d59fc388c,2021-04-04_21h19.41.804,Colour_Similarity_Experiment,2020.2.10,Win32,60,60675255c767bca6388caeee,17.13461538,16.7116451,16.68465909,16.72274882,16.71118531,16.7116451,,,,,,,,,,,,,,,,,,,,PF,3,strong,,,,,,,,4,1.634,,,,,,,,,,,,,,,,,,,,,,,,,,,,9,strong,66,-97,1,0,0,response3disk,5,60,10,-17,1,0,0,rectangle,10,-17,1,0,0,1,2,0,10,-17,1,0,0,0,59,59,128,1,0,,,,,,,,,,,,,,,,,,,,,
,,,,,,,,,,,,,,,,,,,,,,,,,,,,,,,,,,,,,,,,,,5f549d6faee775809d6f5a33,606a10ee0223ae9d59fc388c,2021-04-04_21h19.41.804,Colour_Similarity_Experiment,2020.2.10,Win32,60,60675255c767bca6388caeee,17.13461538,16.7116451,16.68465909,16.72274882,16.71118531,16.7116451,,,,,,,,,,,,,,,,,,,,PF,3,weak,,,,,,,,6,1.836,,,,,,,,,,,,,,,,,,,,,,,,,,,,5,weak,126,25,1,0,0,response1disk,4,61,20,-1,1,0,0,rectangle,20,-1,1,0,0,1,7,0,20,-1,1,0,0,0,60,60,54,1,0,,,,,,,,,,,,,,,,,,,,,
,,,,,,,,,,,,,,,,,,,,,,,,,,,,,,,,,,,,,,,,,,5f549d6faee775809d6f5a33,606a10ee0223ae9d59fc388c,2021-04-04_21h19.41.804,Colour_Similarity_Experiment,2020.2.10,Win32,60,60675255c767bca6388caeee,17.13461538,16.7116451,16.68465909,16.72274882,16.71118531,16.7116451,,,,,,,,,,,,,,,,,,,,PF,3,strong,,,,,,,,5,1.468,,,,,,,,,,,,,,,,,,,,,,,,,,,,8,strong,127,-29,1,0,0,response3disk,4,62,10,-16,1,0,0,rectangle,10,-16,1,0,0,1,0,0.001,10,-16,1,0,0,0,61,61,88,1,0,,,,,,,,,,,,,,,,,,,,,
,,,,,,,,,,,,,,,,,,,,,,,,,,,,,,,,,,,,,,,,,,5f549d6faee775809d6f5a33,606a10ee0223ae9d59fc388c,2021-04-04_21h19.41.804,Colour_Similarity_Experiment,2020.2.10,Win32,60,60675255c767bca6388caeee,17.13461538,16.7116451,16.68465909,16.72274882,16.71118531,16.7116451,,,,,,,,,,,,,,,,,,,,PF,3,strong,,,,,,,,0,1.134,,,,,,,,,,,,,,,,,,,,,,,,,,,,4,strong,-81,97,1,0,0,response7disk,4,63,-22,19,1,0,0,rectangle,-22,19,1,0,0,1,4,0.001,-22,19,1,0,0,0,62,62,84,1,0,,,,,,,,,,,,,,,,,,,,,
,,,,,,,,,,,,,,,,,,,,,,,,,,,,,,,,,,,,,,,,,,5f549d6faee775809d6f5a33,606a10ee0223ae9d59fc388c,2021-04-04_21h19.41.804,Colour_Similarity_Experiment,2020.2.10,Win32,60,60675255c767bca6388caeee,17.13461538,16.7116451,16.68465909,16.72274882,16.71118531,16.7116451,,,,,,,,,,,,,,,,,,,,PF,3,strong,,,,,,,,6,1.318,,,,,,,,,,,,,,,,,,,,,,,,,,,,9,strong,165,21,1,0,0,response1disk,1,64,29,-8,1,0,0,rectangle,29,-8,1,0,0,1,5,0.001,29,-8,1,0,0,0,63,63,111,1,0,,,,,,,,,,,,,,,,,,,,,
,,,,,,,,,,,,,,,,,,,,,,,,,,,,,,,,,,,,,,,,,,5f549d6faee775809d6f5a33,606a10ee0223ae9d59fc388c,2021-04-04_21h19.41.804,Colour_Similarity_Experiment,2020.2.10,Win32,60,60675255c767bca6388caeee,17.13461538,16.7116451,16.68465909,16.72274882,16.71118531,16.7116451,,,,,,,,,,,,,,,,,,,,PF,3,weak,,,,,,,,7,1.184,,,,,,,,,,,,,,,,,,,,,,,,,,,,1,weak,43,94,1,0,0,response1disk,6,65,10,11,1,0,0,rectangle,10,11,1,0,0,1,2,0,10,11,1,0,0,0,64,64,144,1,0,,,,,,,,,,,,,,,,,,,,,
,,,,,,,,,,,,,,,,,,,,,,,,,,,,,,,,,,,,,,,,,,5f549d6faee775809d6f5a33,606a10ee0223ae9d59fc388c,2021-04-04_21h19.41.804,Colour_Similarity_Experiment,2020.2.10,Win32,60,60675255c767bca6388caeee,17.13461538,16.7116451,16.68465909,16.72274882,16.71118531,16.7116451,,,,,,,,,,,,,,,,,,,,PF,3,weak,,,,,,,,7,0.801,,,,,,,,,,,,,,,,,,,,,,,,,,,,7,weak,67,121,1,0,0,response1disk,2,66,-3,0,1,0,0,rectangle,-3,0,1,0,0,1,5,0,-3,0,1,0,0,0,65,65,32,1,0,,,,,,,,,,,,,,,,,,,,,
,,,,,,,,,,,,,,,,,,,,,,,,,,,,,,,,,,,,,,,,,,5f549d6faee775809d6f5a33,606a10ee0223ae9d59fc388c,2021-04-04_21h19.41.804,Colour_Similarity_Experiment,2020.2.10,Win32,60,60675255c767bca6388caeee,17.13461538,16.7116451,16.68465909,16.72274882,16.71118531,16.7116451,,,,,,,,,,,,,,,,,,,,PF,3,strong,,,,,,,,0,1.067,,,,,,,,,,,,,,,,,,,,,,,,,,,,3,strong,-65,94,1,0,0,response7disk,3,67,-23,6,1,0,0,rectangle,-23,6,1,0,0,1,5,0,-23,6,1,0,0,0,66,66,68,1,0,,,,,,,,,,,,,,,,,,,,,
,,,,,,,,,,,,,,,,,,,,,,,,,,,,,,,,,,,,,,,,,,5f549d6faee775809d6f5a33,606a10ee0223ae9d59fc388c,2021-04-04_21h19.41.804,Colour_Similarity_Experiment,2020.2.10,Win32,60,60675255c767bca6388caeee,17.13461538,16.7116451,16.68465909,16.72274882,16.71118531,16.7116451,,,,,,,,,,,,,,,,,,,,PF,3,strong,,,,,,,,0,1.051,,,,,,,,,,,,,,,,,,,,,,,,,,,,1,strong,-52,91,1,0,0,response7disk,1,68,-31,13,1,0,0,rectangle,-31,13,1,0,0,1,7,0.001,-31,13,1,0,0,0,67,67,151,1,0,,,,,,,,,,,,,,,,,,,,,
,,,,,,,,,,,,,,,,,,,,,,,,,,,,,,,,,,,,,,,,,,5f549d6faee775809d6f5a33,606a10ee0223ae9d59fc388c,2021-04-04_21h19.41.804,Colour_Similarity_Experiment,2020.2.10,Win32,60,60675255c767bca6388caeee,17.13461538,16.7116451,16.68465909,16.72274882,16.71118531,16.7116451,,,,,,,,,,,,,,,,,,,,PF,3,strong,,,,,,,,4,1.535,,,,,,,,,,,,,,,,,,,,,,,,,,,,2,strong,36,-104,1,0,0,response3disk,4,69,6,-16,1,0,0,rectangle,6,-16,1,0,0,1,4,0.001,6,-16,1,0,0,0,68,68,145,1,0,,,,,,,,,,,,,,,,,,,,,
,,,,,,,,,,,,,,,,,,,,,,,,,,,,,,,,,,,,,,,,,,5f549d6faee775809d6f5a33,606a10ee0223ae9d59fc388c,2021-04-04_21h19.41.804,Colour_Similarity_Experiment,2020.2.10,Win32,60,60675255c767bca6388caeee,17.13461538,16.7116451,16.68465909,16.72274882,16.71118531,16.7116451,,,,,,,,,,,,,,,,,,,,PF,3,strong,,,,,,,,7,2.069,,,,,,,,,,,,,,,,,,,,,,,,,,,,1,strong,62,83,1,0,0,response1disk,3,70,9,13,1,0,0,rectangle,9,13,1,0,0,1,7,0,9,13,1,0,0,0,69,69,99,1,0,,,,,,,,,,,,,,,,,,,,,
,,,,,,,,,,,,,,,,,,,,,,,,,,,,,,,,,,,,,,,,,,5f549d6faee775809d6f5a33,606a10ee0223ae9d59fc388c,2021-04-04_21h19.41.804,Colour_Similarity_Experiment,2020.2.10,Win32,60,60675255c767bca6388caeee,17.13461538,16.7116451,16.68465909,16.72274882,16.71118531,16.7116451,,,,,,,,,,,,,,,,,,,,PF,3,weak,,,,,,,,7,1.084,,,,,,,,,,,,,,,,,,,,,,,,,,,,7,weak,62,77,1,0,0,response1disk,8,71,5,6,1,0,0,rectangle,5,6,1,0,0,1,3,0,5,6,1,0,0,0,70,70,140,1,0,,,,,,,,,,,,,,,,,,,,,
,,,,,,,,,,,,,,,,,,,,,,,,,,,,,,,,,,,,,,,,,,5f549d6faee775809d6f5a33,606a10ee0223ae9d59fc388c,2021-04-04_21h19.41.804,Colour_Similarity_Experiment,2020.2.10,Win32,60,60675255c767bca6388caeee,17.13461538,16.7116451,16.68465909,16.72274882,16.71118531,16.7116451,,,,,,,,,,,,,,,,,,,,PF,3,strong,,,,,,,,5,1.585,,,,,,,,,,,,,,,,,,,,,,,,,,,,2,strong,127,-34,1,0,0,response3disk,9,72,16,11,1,0,0,rectangle,16,11,1,0,0,1,7,0,16,11,1,0,0,0,71,71,72,1,0,,,,,,,,,,,,,,,,,,,,,
,,,,,,,,,,,,,,,,,,,,,,,,,,,,,,,,,,,,,,,,,,5f549d6faee775809d6f5a33,606a10ee0223ae9d59fc388c,2021-04-04_21h19.41.804,Colour_Similarity_Experiment,2020.2.10,Win32,60,60675255c767bca6388caeee,17.13461538,16.7116451,16.68465909,16.72274882,16.71118531,16.7116451,,,,,,,,,,,,,,,,,,,,PF,3,weak,,,,,,,,4,1.419,,,,,,,,,,,,,,,,,,,,,,,,,,,,2,weak,34,-72,1,0,0,response3disk,6,73,9,1,1,0,0,rectangle,9,1,1,0,0,1,1,0,9,1,1,0,0,0,72,72,113,1,0,,,,,,,,,,,,,,,,,,,,,
,,,,,,,,,,,,,,,,,,,,,,,,,,,,,,,,,,,,,,,,,,5f549d6faee775809d6f5a33,606a10ee0223ae9d59fc388c,2021-04-04_21h19.41.804,Colour_Similarity_Experiment,2020.2.10,Win32,60,60675255c767bca6388caeee,17.13461538,16.7116451,16.68465909,16.72274882,16.71118531,16.7116451,,,,,,,,,,,,,,,,,,,,PF,3,weak,,,,,,,,4,1.185,,,,,,,,,,,,,,,,,,,,,,,,,,,,9,weak,43,-82,1,0,0,response3disk,3,74,8,4,1,0,0,rectangle,8,4,1,0,0,1,7,0.001,8,4,1,0,0,0,73,73,119,1,0,,,,,,,,,,,,,,,,,,,,,
,,,,,,,,,,,,,,,,,,,,,,,,,,,,,,,,,,,,,,,,,,5f549d6faee775809d6f5a33,606a10ee0223ae9d59fc388c,2021-04-04_21h19.41.804,Colour_Similarity_Experiment,2020.2.10,Win32,60,60675255c767bca6388caeee,17.13461538,16.7116451,16.68465909,16.72274882,16.71118531,16.7116451,,,,,,,,,,,,,,,,,,,,PF,3,strong,,,,,,,,0,0.952,,,,,,,,,,,,,,,,,,,,,,,,,,,,8,strong,-39,77,1,0,0,response7disk,8,75,-12,-1,1,0,0,rectangle,-12,-1,1,0,0,1,7,0,-12,-1,1,0,0,0,74,74,48,1,0,,,,,,,,,,,,,,,,,,,,,
,,,,,,,,,,,,,,,,,,,,,,,,,,,,,,,,,,,,,,,,,,5f549d6faee775809d6f5a33,606a10ee0223ae9d59fc388c,2021-04-04_21h19.41.804,Colour_Similarity_Experiment,2020.2.10,Win32,60,60675255c767bca6388caeee,17.13461538,16.7116451,16.68465909,16.72274882,16.71118531,16.7116451,,,,,,,,,,,,,,,,,,,,PF,3,strong,,,,,,,,0,0.834,,,,,,,,,,,,,,,,,,,,,,,,,,,,4,strong,-44,86,1,0,0,response7disk,3,76,-4,5,1,0,0,rectangle,-4,5,1,0,0,1,4,0.001,-4,5,1,0,0,0,75,75,77,1,0,,,,,,,,,,,,,,,,,,,,,
,,,,,,,,,,,,,,,,,,,,,,,,,,,,,,,,,,,,,,,,,,5f549d6faee775809d6f5a33,606a10ee0223ae9d59fc388c,2021-04-04_21h19.41.804,Colour_Similarity_Experiment,2020.2.10,Win32,60,60675255c767bca6388caeee,17.13461538,16.7116451,16.68465909,16.72274882,16.71118531,16.7116451,,,,,,,,,,,,,,,,,,,,PF,3,strong,,,,,,,,6,1.802,,,,,,,,,,,,,,,,,,,,,,,,,,,,2,strong,87,47,1,0,0,response1disk,8,77,-4,-4,1,0,0,rectangle,-4,-4,1,0,0,1,5,0.001,-4,-4,1,0,0,0,76,76,62,1,0,,,,,,,,,,,,,,,,,,,,,
,,,,,,,,,,,,,,,,,,,,,,,,,,,,,,,,,,,,,,,,,,5f549d6faee775809d6f5a33,606a10ee0223ae9d59fc388c,2021-04-04_21h19.41.804,Colour_Similarity_Experiment,2020.2.10,Win32,60,60675255c767bca6388caeee,17.13461538,16.7116451,16.68465909,16.72274882,16.71118531,16.7116451,,,,,,,,,,,,,,,,,,,,PF,3,weak,,,,,,,,0,1.469,,,,,,,,,,,,,,,,,,,,,,,,,,,,8,weak,-31,66,1,0,0,response7disk,8,78,-3,5,1,0,0,rectangle,-3,5,1,0,0,1,6,0.001,-3,5,1,0,0,0,77,77,153,1,0,,,,,,,,,,,,,,,,,,,,,
,,,,,,,,,,,,,,,,,,,,,,,,,,,,,,,,,,,,,,,,,,5f549d6faee775809d6f5a33,606a10ee0223ae9d59fc388c,2021-04-04_21h19.41.804,Colour_Similarity_Experiment,2020.2.10,Win32,60,60675255c767bca6388caeee,17.13461538,16.7116451,16.68465909,16.72274882,16.71118531,16.7116451,,,,,,,,,,,,,,,,,,,,PF,3,weak,,,,,,,,3,1.619,,,,,,,,,,,,,,,,,,,,,,,,,,,,7,weak,-29,-74,1,0,0,response5disk,6,79,-11,3,1,0,0,rectangle,-11,3,1,0,0,1,7,0,-11,3,1,0,0,0,78,78,29,1,0,,,,,,,,,,,,,,,,,,,,,
,,,,,,,,,,,,,,,,,,,,,,,,,,,,,,,,,,,,,,,,,,5f549d6faee775809d6f5a33,606a10ee0223ae9d59fc388c,2021-04-04_21h19.41.804,Colour_Similarity_Experiment,2020.2.10,Win32,60,60675255c767bca6388caeee,17.13461538,16.7116451,16.68465909,16.72274882,16.71118531,16.7116451,,,,,,,,,,,,,,,,,,,,PF,3,weak,,,,,,,,0,0.851,,,,,,,,,,,,,,,,,,,,,,,,,,,,6,weak,-57,86,1,0,0,response7disk,8,80,-24,6,1,0,0,rectangle,-24,6,1,0,0,1,7,0,-24,6,1,0,0,0,79,79,64,1,0,,,,,,,,,,,,,,,,,,,,,
,,,,,,,,,,,,,,,,,,,,,,,,,,,,,,,,,,,,,,,,,,5f549d6faee775809d6f5a33,606a10ee0223ae9d59fc388c,2021-04-04_21h19.41.804,Colour_Similarity_Experiment,2020.2.10,Win32,60,60675255c767bca6388caeee,17.13461538,16.7116451,16.68465909,16.72274882,16.71118531,16.7116451,,,,,,,,,,,,,,,,,,,,PF,3,strong,,,,,,,,6,1.418,,,,,,,,,,,,,,,,,,,,,,,,,,,,2,strong,107,25,1,0,0,response1disk,1,81,1,-7,1,0,0,rectangle,1,-7,1,0,0,1,5,0,1,-7,1,0,0,0,80,80,85,1,0,,,,,,,,,,,,,,,,,,,,,
,,,,,,,,,,,,,,,,,,,,,,,,,,,,,,,,,,,,,,,,,,5f549d6faee775809d6f5a33,606a10ee0223ae9d59fc388c,2021-04-04_21h19.41.804,Colour_Similarity_Experiment,2020.2.10,Win32,60,60675255c767bca6388caeee,17.13461538,16.7116451,16.68465909,16.72274882,16.71118531,16.7116451,,,,,,,,,,,,,,,,,,,,PF,3,strong,,,,,,,,0,1.018,,,,,,,,,,,,,,,,,,,,,,,,,,,,6,strong,-53,89,1,0,0,response7disk,8,82,-20,-4,1,0,0,rectangle,-20,-4,1,0,0,1,0,0.002,-20,-4,1,0,0,0,81,81,133,1,0,,,,,,,,,,,,,,,,,,,,,
,,,,,,,,,,,,,,,,,,,,,,,,,,,,,,,,,,,,,,,,,,5f549d6faee775809d6f5a33,606a10ee0223ae9d59fc388c,2021-04-04_21h19.41.804,Colour_Similarity_Experiment,2020.2.10,Win32,60,60675255c767bca6388caeee,17.13461538,16.7116451,16.68465909,16.72274882,16.71118531,16.7116451,,,,,,,,,,,,,,,,,,,,PF,3,strong,,,,,,,,5,3.103,,,,,,,,,,,,,,,,,,,,,,,,,,,,4,strong,93,-57,1,0,0,response3disk,2,83,-27,1,1,0,0,rectangle,-27,1,1,0,0,1,7,0.001,-27,1,1,0,0,0,82,82,13,1,0,,,,,,,,,,,,,,,,,,,,,
,,,,,,,,,,,,,,,,,,,,,,,,,,,,,,,,,,,,,,,,,,5f549d6faee775809d6f5a33,606a10ee0223ae9d59fc388c,2021-04-04_21h19.41.804,Colour_Similarity_Experiment,2020.2.10,Win32,60,60675255c767bca6388caeee,17.13461538,16.7116451,16.68465909,16.72274882,16.71118531,16.7116451,,,,,,,,,,,,,,,,,,,,PF,3,strong,,,,,,,,6,1.301,,,,,,,,,,,,,,,,,,,,,,,,,,,,5,strong,110,30,1,0,0,response1disk,2,84,28,8,1,0,0,rectangle,-106,-48,1,0,0,1,2,1.669,-36,-14,1,0,0,0,83,83,55,1,1,response5disk_3,rectangle,,,,,,,,,,,,,,,,,,,
,,,,,,,,,,,,,,,,,,,,,,,,,,,,,,,,,,,,,,,,,,5f549d6faee775809d6f5a33,606a10ee0223ae9d59fc388c,2021-04-04_21h19.41.804,Colour_Similarity_Experiment,2020.2.10,Win32,60,60675255c767bca6388caeee,17.13461538,16.7116451,16.68465909,16.72274882,16.71118531,16.7116451,,,,,,,,,,,,,,,,,,,,PF,3,strong,,,,,,,,6,1.553,,,,,,,,,,,,,,,,,,,,,,,,,,,,2,strong,108,31,1,0,0,response1disk,7,85,16,-4,1,0,0,rectangle,16,-4,1,0,0,1,7,0.001,16,-4,1,0,0,0,84,84,63,1,0,,,,,,,,,,,,,,,,,,,,,
,,,,,,,,,,,,,,,,,,,,,,,,,,,,,,,,,,,,,,,,,,5f549d6faee775809d6f5a33,606a10ee0223ae9d59fc388c,2021-04-04_21h19.41.804,Colour_Similarity_Experiment,2020.2.10,Win32,60,60675255c767bca6388caeee,17.13461538,16.7116451,16.68465909,16.72274882,16.71118531,16.7116451,,,,,,,,,,,,,,,,,,,,PF,3,weak,,,,,,,,6,4.004,,,,,,,,,,,,,,,,,,,,,,,,,,,,6,weak,107,62,1,0,0,response1disk,4,86,27,5,1,0,0,rectangle,27,5,1,0,0,1,0,0,27,5,1,0,0,0,85,85,33,1,0,,,,,,,,,,,,,,,,,,,,,
,,,,,,,,,,,,,,,,,,,,,,,,,,,,,,,,,,,,,,,,,,5f549d6faee775809d6f5a33,606a10ee0223ae9d59fc388c,2021-04-04_21h19.41.804,Colour_Similarity_Experiment,2020.2.10,Win32,60,60675255c767bca6388caeee,17.13461538,16.7116451,16.68465909,16.72274882,16.71118531,16.7116451,,,,,,,,,,,,,,,,,,,,PF,3,weak,,,,,,,,7,0.918,,,,,,,,,,,,,,,,,,,,,,,,,,,,4,weak,51,83,1,0,0,response1disk,1,87,13,5,1,0,0,rectangle,13,5,1,0,0,1,5,0.001,13,5,1,0,0,0,86,86,115,1,0,,,,,,,,,,,,,,,,,,,,,
,,,,,,,,,,,,,,,,,,,,,,,,,,,,,,,,,,,,,,,,,,5f549d6faee775809d6f5a33,606a10ee0223ae9d59fc388c,2021-04-04_21h19.41.804,Colour_Similarity_Experiment,2020.2.10,Win32,60,60675255c767bca6388caeee,17.13461538,16.7116451,16.68465909,16.72274882,16.71118531,16.7116451,,,,,,,,,,,,,,,,,,,,PF,3,weak,,,,,,,,7,1.1,,,,,,,,,,,,,,,,,,,,,,,,,,,,3,weak,67,109,1,0,0,response1disk,1,88,6,-6,1,0,0,rectangle,6,-6,1,0,0,1,7,0.001,6,-6,1,0,0,0,87,87,96,1,0,,,,,,,,,,,,,,,,,,,,,
,,,,,,,,,,,,,,,,,,,,,,,,,,,,,,,,,,,,,,,,,,5f549d6faee775809d6f5a33,606a10ee0223ae9d59fc388c,2021-04-04_21h19.41.804,Colour_Similarity_Experiment,2020.2.10,Win32,60,60675255c767bca6388caeee,17.13461538,16.7116451,16.68465909,16.72274882,16.71118531,16.7116451,,,,,,,,,,,,,,,,,,,,PF,3,strong,,,,,,,,6,1.152,,,,,,,,,,,,,,,,,,,,,,,,,,,,4,strong,84,52,1,0,0,response1disk,7,89,13,-2,1,0,0,rectangle,13,-2,1,0,0,1,1,0.002,13,-2,1,0,0,0,88,88,87,1,0,,,,,,,,,,,,,,,,,,,,,
,,,,,,,,,,,,,,,,,,,,,,,,,,,,,,,,,,,,,,,,,,5f549d6faee775809d6f5a33,606a10ee0223ae9d59fc388c,2021-04-04_21h19.41.804,Colour_Similarity_Experiment,2020.2.10,Win32,60,60675255c767bca6388caeee,17.13461538,16.7116451,16.68465909,16.72274882,16.71118531,16.7116451,,,,,,,,,,,,,,,,,,,,PF,3,strong,,,,,,,,1,1.685,,,,,,,,,,,,,,,,,,,,,,,,,,,,6,strong,-78,56,1,0,0,response7disk,3,90,-33,-2,1,0,0,rectangle,-33,-2,1,0,0,1,0,0.001,-33,-2,1,0,0,0,89,89,21,1,0,,,,,,,,,,,,,,,,,,,,,
,,,,,,,,,,,,,,,,,,,,,,,,,,,,,,,,,,,,,,,,,,5f549d6faee775809d6f5a33,606a10ee0223ae9d59fc388c,2021-04-04_21h19.41.804,Colour_Similarity_Experiment,2020.2.10,Win32,60,60675255c767bca6388caeee,17.13461538,16.7116451,16.68465909,16.72274882,16.71118531,16.7116451,,,,,,,,,,,,,,,,,,,,PF,3,strong,,,,,,,,5,1.551,,,,,,,,,,,,,,,,,,,,,,,,,,,,3,strong,107,-28,1,0,0,response3disk,1,91,19,-2,1,0,0,rectangle,19,-2,1,0,0,1,6,0.001,19,-2,1,0,0,0,90,90,125,1,0,,,,,,,,,,,,,,,,,,,,,
,,,,,,,,,,,,,,,,,,,,,,,,,,,,,,,,,,,,,,,,,,5f549d6faee775809d6f5a33,606a10ee0223ae9d59fc388c,2021-04-04_21h19.41.804,Colour_Similarity_Experiment,2020.2.10,Win32,60,60675255c767bca6388caeee,17.13461538,16.7116451,16.68465909,16.72274882,16.71118531,16.7116451,,,,,,,,,,,,,,,,,,,,PF,3,strong,,,,,,,,4,1.484,,,,,,,,,,,,,,,,,,,,,,,,,,,,8,strong,37,-97,1,0,0,response3disk,3,92,-7,7,1,0,0,rectangle,-7,7,1,0,0,1,2,0.001,-7,7,1,0,0,0,91,91,154,1,0,,,,,,,,,,,,,,,,,,,,,
,,,,,,,,,,,,,,,,,,,,,,,,,,,,,,,,,,,,,,,,,,5f549d6faee775809d6f5a33,606a10ee0223ae9d59fc388c,2021-04-04_21h19.41.804,Colour_Similarity_Experiment,2020.2.10,Win32,60,60675255c767bca6388caeee,17.13461538,16.7116451,16.68465909,16.72274882,16.71118531,16.7116451,,,,,,,,,,,,,,,,,,,,PF,3,strong,,,,,,,,7,1.185,,,,,,,,,,,,,,,,,,,,,,,,,,,,1,strong,50,110,1,0,0,response1disk,4,93,18,-16,1,0,0,rectangle,18,-16,1,0,0,1,2,0.001,18,-16,1,0,0,0,92,92,135,1,0,,,,,,,,,,,,,,,,,,,,,
,,,,,,,,,,,,,,,,,,,,,,,,,,,,,,,,,,,,,,,,,,5f549d6faee775809d6f5a33,606a10ee0223ae9d59fc388c,2021-04-04_21h19.41.804,Colour_Similarity_Experiment,2020.2.10,Win32,60,60675255c767bca6388caeee,17.13461538,16.7116451,16.68465909,16.72274882,16.71118531,16.7116451,,,,,,,,,,,,,,,,,,,,PF,3,strong,,,,,,,,5,3.987,,,,,,,,,,,,,,,,,,,,,,,,,,,,8,strong,66,-37,1,0,0,response3disk,1,94,-14,-5,1,0,0,rectangle,-14,-5,1,0,0,1,7,0.001,-14,-5,1,0,0,0,93,93,20,1,0,,,,,,,,,,,,,,,,,,,,,
,,,,,,,,,,,,,,,,,,,,,,,,,,,,,,,,,,,,,,,,,,5f549d6faee775809d6f5a33,606a10ee0223ae9d59fc388c,2021-04-04_21h19.41.804,Colour_Similarity_Experiment,2020.2.10,Win32,60,60675255c767bca6388caeee,17.13461538,16.7116451,16.68465909,16.72274882,16.71118531,16.7116451,,,,,,,,,,,,,,,,,,,,PF,3,weak,,,,,,,,6,1.519,,,,,,,,,,,,,,,,,,,,,,,,,,,,1,weak,158,46,1,0,0,response1disk,8,95,21,-4,1,0,0,rectangle,21,-4,1,0,0,1,6,0.001,21,-4,1,0,0,0,94,94,65,1,0,,,,,,,,,,,,,,,,,,,,,
,,,,,,,,,,,,,,,,,,,,,,,,,,,,,,,,,,,,,,,,,,5f549d6faee775809d6f5a33,606a10ee0223ae9d59fc388c,2021-04-04_21h19.41.804,Colour_Similarity_Experiment,2020.2.10,Win32,60,60675255c767bca6388caeee,17.13461538,16.7116451,16.68465909,16.72274882,16.71118531,16.7116451,,,,,,,,,,,,,,,,,,,,PF,3,weak,,,,,,,,6,1.585,,,,,,,,,,,,,,,,,,,,,,,,,,,,4,weak,121,45,1,0,0,response1disk,7,96,15,-7,1,0,0,rectangle,15,-7,1,0,0,1,3,0.002,15,-7,1,0,0,0,95,95,38,1,0,,,,,,,,,,,,,,,,,,,,,
,,,,,,,,,,,,,,,,,,,,,,,,,,,,,,,,,,,,,,,,,,5f549d6faee775809d6f5a33,606a10ee0223ae9d59fc388c,2021-04-04_21h19.41.804,Colour_Similarity_Experiment,2020.2.10,Win32,60,60675255c767bca6388caeee,17.13461538,16.7116451,16.68465909,16.72274882,16.71118531,16.7116451,,,,,,,,,,,,,,,,,,,,PF,3,weak,,,,,,,,3,1.518,,,,,,,,,,,,,,,,,,,,,,,,,,,,5,weak,-32,-105,1,0,0,response5disk,6,97,5,-7,1,0,0,rectangle,5,-7,1,0,0,1,0,0,5,-7,1,0,0,0,96,96,103,1,0,,,,,,,,,,,,,,,,,,,,,
,,,,,,,,,,,,,,,,,,,,,,,,,,,,,,,,,,,,,,,,,,5f549d6faee775809d6f5a33,606a10ee0223ae9d59fc388c,2021-04-04_21h19.41.804,Colour_Similarity_Experiment,2020.2.10,Win32,60,60675255c767bca6388caeee,17.13461538,16.7116451,16.68465909,16.72274882,16.71118531,16.7116451,,,,,,,,,,,,,,,,,,,,PF,3,strong,,,,,,,,4,1.752,,,,,,,,,,,,,,,,,,,,,,,,,,,,9,strong,71,-87,1,0,0,response3disk,8,98,10,21,1,0,0,rectangle,10,21,1,0,0,1,4,0.001,10,21,1,0,0,0,97,97,6,1,0,,,,,,,,,,,,,,,,,,,,,
,,,,,,,,,,,,,,,,,,,,,,,,,,,,,,,,,,,,,,,,,,5f549d6faee775809d6f5a33,606a10ee0223ae9d59fc388c,2021-04-04_21h19.41.804,Colour_Similarity_Experiment,2020.2.10,Win32,60,60675255c767bca6388caeee,17.13461538,16.7116451,16.68465909,16.72274882,16.71118531,16.7116451,,,,,,,,,,,,,,,,,,,,PF,3,weak,,,,,,,,4,1.518,,,,,,,,,,,,,,,,,,,,,,,,,,,,4,weak,46,-104,1,0,0,response3disk,9,99,2,-12,1,0,0,rectangle,2,-12,1,0,0,1,7,0.001,2,-12,1,0,0,0,98,98,75,1,0,,,,,,,,,,,,,,,,,,,,,
,,,,,,,,,,,,,,,,,,,,,,,,,,,,,,,,,,,,,,,,,,5f549d6faee775809d6f5a33,606a10ee0223ae9d59fc388c,2021-04-04_21h19.41.804,Colour_Similarity_Experiment,2020.2.10,Win32,60,60675255c767bca6388caeee,17.13461538,16.7116451,16.68465909,16.72274882,16.71118531,16.7116451,,,,,,,,,,,,,,,,,,,,PF,3,weak,,,,,,,,3,1.035,,,,,,,,,,,,,,,,,,,,,,,,,,,,1,weak,-42,-81,1,0,0,response5disk,9,100,-8,-19,1,0,0,rectangle,-8,-19,1,0,0,1,1,0.001,-8,-19,1,0,0,0,99,99,15,1,0,,,,,,,,,,,,,,,,,,,,,
,,,,,,,,,,,,,,,,,,,,,,,,,,,,,,,,,,,,,,,,,,5f549d6faee775809d6f5a33,606a10ee0223ae9d59fc388c,2021-04-04_21h19.41.804,Colour_Similarity_Experiment,2020.2.10,Win32,60,60675255c767bca6388caeee,17.13461538,16.7116451,16.68465909,16.72274882,16.71118531,16.7116451,,,,,,,,,,,,,,,,,,,,PF,3,strong,,,,,,,,6,1.302,,,,,,,,,,,,,,,,,,,,,,,,,,,,1,strong,99,48,1,0,0,response1disk,5,101,-1,-14,1,0,0,rectangle,-1,-14,1,0,0,1,6,0.001,-1,-14,1,0,0,0,100,100,82,1,0,,,,,,,,,,,,,,,,,,,,,
,,,,,,,,,,,,,,,,,,,,,,,,,,,,,,,,,,,,,,,,,,5f549d6faee775809d6f5a33,606a10ee0223ae9d59fc388c,2021-04-04_21h19.41.804,Colour_Similarity_Experiment,2020.2.10,Win32,60,60675255c767bca6388caeee,17.13461538,16.7116451,16.68465909,16.72274882,16.71118531,16.7116451,,,,,,,,,,,,,,,,,,,,PF,3,strong,,,,,,,,4,1.168,,,,,,,,,,,,,,,,,,,,,,,,,,,,1,strong,70,-100,1,0,0,response3disk,9,102,8,-20,1,0,0,rectangle,8,-20,1,0,0,1,2,0.001,8,-20,1,0,0,0,101,101,123,1,0,,,,,,,,,,,,,,,,,,,,,
,,,,,,,,,,,,,,,,,,,,,,,,,,,,,,,,,,,,,,,,,,5f549d6faee775809d6f5a33,606a10ee0223ae9d59fc388c,2021-04-04_21h19.41.804,Colour_Similarity_Experiment,2020.2.10,Win32,60,60675255c767bca6388caeee,17.13461538,16.7116451,16.68465909,16.72274882,16.71118531,16.7116451,,,,,,,,,,,,,,,,,,,,PF,3,strong,,,,,,,,4,1.184,,,,,,,,,,,,,,,,,,,,,,,,,,,,5,strong,84,-91,1,0,0,response3disk,4,103,5,-3,1,0,0,rectangle,5,-3,1,0,0,1,4,0,5,-3,1,0,0,0,102,102,8,1,0,,,,,,,,,,,,,,,,,,,,,
,,,,,,,,,,,,,,,,,,,,,,,,,,,,,,,,,,,,,,,,,,5f549d6faee775809d6f5a33,606a10ee0223ae9d59fc388c,2021-04-04_21h19.41.804,Colour_Similarity_Experiment,2020.2.10,Win32,60,60675255c767bca6388caeee,17.13461538,16.7116451,16.68465909,16.72274882,16.71118531,16.7116451,,,,,,,,,,,,,,,,,,,,PF,3,strong,,,,,,,,3,1.351,,,,,,,,,,,,,,,,,,,,,,,,,,,,4,strong,-27,-103,1,0,0,response5disk,9,104,1,-1,1,0,0,rectangle,1,-1,1,0,0,1,0,0.001,1,-1,1,0,0,0,103,103,90,1,0,,,,,,,,,,,,,,,,,,,,,
,,,,,,,,,,,,,,,,,,,,,,,,,,,,,,,,,,,,,,,,,,5f549d6faee775809d6f5a33,606a10ee0223ae9d59fc388c,2021-04-04_21h19.41.804,Colour_Similarity_Experiment,2020.2.10,Win32,60,60675255c767bca6388caeee,17.13461538,16.7116451,16.68465909,16.72274882,16.71118531,16.7116451,,,,,,,,,,,,,,,,,,,,PF,3,weak,,,,,,,,0,0.818,,,,,,,,,,,,,,,,,,,,,,,,,,,,9,weak,-56,85,1,0,0,response7disk,9,105,-16,11,1,0,0,rectangle,-16,11,1,0,0,1,7,0,-16,11,1,0,0,0,104,104,106,1,0,,,,,,,,,,,,,,,,,,,,,
,,,,,,,,,,,,,,,,,,,,,,,,,,,,,,,,,,,,,,,,,,5f549d6faee775809d6f5a33,606a10ee0223ae9d59fc388c,2021-04-04_21h19.41.804,Colour_Similarity_Experiment,2020.2.10,Win32,60,60675255c767bca6388caeee,17.13461538,16.7116451,16.68465909,16.72274882,16.71118531,16.7116451,,,,,,,,,,,,,,,,,,,,PF,3,strong,,,,,,,,4,2.019,,,,,,,,,,,,,,,,,,,,,,,,,,,,3,strong,75,-106,1,0,0,response3disk,2,106,36,-7,1,0,0,rectangle,36,-7,1,0,0,1,2,0.001,36,-7,1,0,0,0,105,105,93,1,0,,,,,,,,,,,,,,,,,,,,,
,,,,,,,,,,,,,,,,,,,,,,,,,,,,,,,,,,,,,,,,,,5f549d6faee775809d6f5a33,606a10ee0223ae9d59fc388c,2021-04-04_21h19.41.804,Colour_Similarity_Experiment,2020.2.10,Win32,60,60675255c767bca6388caeee,17.13461538,16.7116451,16.68465909,16.72274882,16.71118531,16.7116451,,,,,,,,,,,,,,,,,,,,PF,3,weak,,,,,,,,2,1.051,,,,,,,,,,,,,,,,,,,,,,,,,,,,4,weak,-75,-47,1,0,0,response5disk,5,107,-13,5,1,0,0,rectangle,-13,5,1,0,0,1,4,0,-13,5,1,0,0,0,106,106,49,1,0,,,,,,,,,,,,,,,,,,,,,
,,,,,,,,,,,,,,,,,,,,,,,,,,,,,,,,,,,,,,,,,,5f549d6faee775809d6f5a33,606a10ee0223ae9d59fc388c,2021-04-04_21h19.41.804,Colour_Similarity_Experiment,2020.2.10,Win32,60,60675255c767bca6388caeee,17.13461538,16.7116451,16.68465909,16.72274882,16.71118531,16.7116451,,,,,,,,,,,,,,,,,,,,PF,3,weak,,,,,,,,6,1.985,,,,,,,,,,,,,,,,,,,,,,,,,,,,6,weak,73,31,1,0,0,response1disk,3,108,5,-14,1,0,0,rectangle,5,-14,1,0,0,1,0,0.001,5,-14,1,0,0,0,107,107,26,1,0,,,,,,,,,,,,,,,,,,,,,
,,,,,,,,,,,,,,,,,,,,,,,,,,,,,,,,,,,,,,,,,,5f549d6faee775809d6f5a33,606a10ee0223ae9d59fc388c,2021-04-04_21h19.41.804,Colour_Similarity_Experiment,2020.2.10,Win32,60,60675255c767bca6388caeee,17.13461538,16.7116451,16.68465909,16.72274882,16.71118531,16.7116451,,,,,,,,,,,,,,,,,,,,PF,3,weak,,,,,,,,4,1.085,,,,,,,,,,,,,,,,,,,,,,,,,,,,3,weak,49,-98,1,0,0,response3disk,4,109,9,-9,1,0,0,rectangle,9,-9,1,0,0,1,5,0,9,-9,1,0,0,0,108,108,30,1,0,,,,,,,,,,,,,,,,,,,,,
,,,,,,,,,,,,,,,,,,,,,,,,,,,,,,,,,,,,,,,,,,5f549d6faee775809d6f5a33,606a10ee0223ae9d59fc388c,2021-04-04_21h19.41.804,Colour_Similarity_Experiment,2020.2.10,Win32,60,60675255c767bca6388caeee,17.13461538,16.7116451,16.68465909,16.72274882,16.71118531,16.7116451,,,,,,,,,,,,,,,,,,,,PF,3,weak,,,,,,,,7,1.569,,,,,,,,,,,,,,,,,,,,,,,,,,,,8,weak,76,104,1,0,0,response1disk,7,110,16,-7,1,0,0,rectangle,16,-7,1,0,0,1,5,0,16,-7,1,0,0,0,109,109,23,1,0,,,,,,,,,,,,,,,,,,,,,
,,,,,,,,,,,,,,,,,,,,,,,,,,,,,,,,,,,,,,,,,,5f549d6faee775809d6f5a33,606a10ee0223ae9d59fc388c,2021-04-04_21h19.41.804,Colour_Similarity_Experiment,2020.2.10,Win32,60,60675255c767bca6388caeee,17.13461538,16.7116451,16.68465909,16.72274882,16.71118531,16.7116451,,,,,,,,,,,,,,,,,,,,PF,3,weak,,,,,,,,6,1.384,,,,,,,,,,,,,,,,,,,,,,,,,,,,2,weak,65,42,1,0,0,response1disk,7,111,18,13,1,0,0,rectangle,18,13,1,0,0,1,4,0.001,18,13,1,0,0,0,110,110,107,1,0,,,,,,,,,,,,,,,,,,,,,
,,,,,,,,,,,,,,,,,,,,,,,,,,,,,,,,,,,,,,,,,,5f549d6faee775809d6f5a33,606a10ee0223ae9d59fc388c,2021-04-04_21h19.41.804,Colour_Similarity_Experiment,2020.2.10,Win32,60,60675255c767bca6388caeee,17.13461538,16.7116451,16.68465909,16.72274882,16.71118531,16.7116451,,,,,,,,,,,,,,,,,,,,PF,3,weak,,,,,,,,7,2.435,,,,,,,,,,,,,,,,,,,,,,,,,,,,5,weak,58,115,1,0,0,response1disk,7,112,-4,2,1,0,0,rectangle,-4,2,1,0,0,1,0,0.001,-4,2,1,0,0,0,111,111,146,1,0,,,,,,,,,,,,,,,,,,,,,
,,,,,,,,,,,,,,,,,,,,,,,,,,,,,,,,,,,,,,,,,,5f549d6faee775809d6f5a33,606a10ee0223ae9d59fc388c,2021-04-04_21h19.41.804,Colour_Similarity_Experiment,2020.2.10,Win32,60,60675255c767bca6388caeee,17.13461538,16.7116451,16.68465909,16.72274882,16.71118531,16.7116451,,,,,,,,,,,,,,,,,,,,PF,3,weak,,,,,,,,6,1.352,,,,,,,,,,,,,,,,,,,,,,,,,,,,5,weak,103,51,1,0,0,response1disk,8,113,-10,-1,1,0,0,rectangle,-10,-1,1,0,0,1,0,0,-10,-1,1,0,0,0,112,112,149,1,0,,,,,,,,,,,,,,,,,,,,,
,,,,,,,,,,,,,,,,,,,,,,,,,,,,,,,,,,,,,,,,,,5f549d6faee775809d6f5a33,606a10ee0223ae9d59fc388c,2021-04-04_21h19.41.804,Colour_Similarity_Experiment,2020.2.10,Win32,60,60675255c767bca6388caeee,17.13461538,16.7116451,16.68465909,16.72274882,16.71118531,16.7116451,,,,,,,,,,,,,,,,,,,,PF,3,weak,,,,,,,,4,1.268,,,,,,,,,,,,,,,,,,,,,,,,,,,,4,weak,51,-84,1,0,0,response3disk,2,114,16,3,1,0,0,rectangle,16,3,1,0,0,1,4,0.001,16,3,1,0,0,0,113,113,108,1,0,,,,,,,,,,,,,,,,,,,,,
,,,,,,,,,,,,,,,,,,,,,,,,,,,,,,,,,,,,,,,,,,5f549d6faee775809d6f5a33,606a10ee0223ae9d59fc388c,2021-04-04_21h19.41.804,Colour_Similarity_Experiment,2020.2.10,Win32,60,60675255c767bca6388caeee,17.13461538,16.7116451,16.68465909,16.72274882,16.71118531,16.7116451,,,,,,,,,,,,,,,,,,,,PF,3,weak,,,,,,,,6,1.351,,,,,,,,,,,,,,,,,,,,,,,,,,,,9,weak,95,35,1,0,0,response1disk,8,115,28,1,1,0,0,rectangle,28,1,1,0,0,1,2,0.001,28,1,1,0,0,0,114,114,67,1,0,,,,,,,,,,,,,,,,,,,,,
,,,,,,,,,,,,,,,,,,,,,,,,,,,,,,,,,,,,,,,,,,5f549d6faee775809d6f5a33,606a10ee0223ae9d59fc388c,2021-04-04_21h19.41.804,Colour_Similarity_Experiment,2020.2.10,Win32,60,60675255c767bca6388caeee,17.13461538,16.7116451,16.68465909,16.72274882,16.71118531,16.7116451,,,,,,,,,,,,,,,,,,,,PF,3,weak,,,,,,,,3,1.069,,,,,,,,,,,,,,,,,,,,,,,,,,,,8,weak,-32,-110,1,0,0,response5disk,9,116,-2,-9,1,0,0,rectangle,-2,-9,1,0,0,1,6,0.001,-2,-9,1,0,0,0,115,115,42,1,0,,,,,,,,,,,,,,,,,,,,,
,,,,,,,,,,,,,,,,,,,,,,,,,,,,,,,,,,,,,,,,,,5f549d6faee775809d6f5a33,606a10ee0223ae9d59fc388c,2021-04-04_21h19.41.804,Colour_Similarity_Experiment,2020.2.10,Win32,60,60675255c767bca6388caeee,17.13461538,16.7116451,16.68465909,16.72274882,16.71118531,16.7116451,,,,,,,,,,,,,,,,,,,,PF,3,strong,,,,,,,,0,0.918,,,,,,,,,,,,,,,,,,,,,,,,,,,,9,strong,-50,94,1,0,0,response7disk,9,117,-27,-7,1,0,0,rectangle,-27,-7,1,0,0,1,1,0,-27,-7,1,0,0,0,116,116,17,1,0,,,,,,,,,,,,,,,,,,,,,
,,,,,,,,,,,,,,,,,,,,,,,,,,,,,,,,,,,,,,,,,,5f549d6faee775809d6f5a33,606a10ee0223ae9d59fc388c,2021-04-04_21h19.41.804,Colour_Similarity_Experiment,2020.2.10,Win32,60,60675255c767bca6388caeee,17.13461538,16.7116451,16.68465909,16.72274882,16.71118531,16.7116451,,,,,,,,,,,,,,,,,,,,PF,3,strong,,,,,,,,7,1.084,,,,,,,,,,,,,,,,,,,,,,,,,,,,7,strong,65,97,1,0,0,response1disk,1,118,13,2,1,0,0,rectangle,13,2,1,0,0,1,0,0,13,2,1,0,0,0,117,117,132,1,0,,,,,,,,,,,,,,,,,,,,,
,,,,,,,,,,,,,,,,,,,,,,,,,,,,,,,,,,,,,,,,,,5f549d6faee775809d6f5a33,606a10ee0223ae9d59fc388c,2021-04-04_21h19.41.804,Colour_Similarity_Experiment,2020.2.10,Win32,60,60675255c767bca6388caeee,17.13461538,16.7116451,16.68465909,16.72274882,16.71118531,16.7116451,,,,,,,,,,,,,,,,,,,,PF,3,strong,,,,,,,,4,1.352,,,,,,,,,,,,,,,,,,,,,,,,,,,,7,strong,26,-96,1,0,0,response3disk,5,119,6,-12,1,0,0,rectangle,6,-12,1,0,0,1,3,0.001,6,-12,1,0,0,0,118,118,156,1,0,,,,,,,,,,,,,,,,,,,,,
,,,,,,,,,,,,,,,,,,,,,,,,,,,,,,,,,,,,,,,,,,5f549d6faee775809d6f5a33,606a10ee0223ae9d59fc388c,2021-04-04_21h19.41.804,Colour_Similarity_Experiment,2020.2.10,Win32,60,60675255c767bca6388caeee,17.13461538,16.7116451,16.68465909,16.72274882,16.71118531,16.7116451,,,,,,,,,,,,,,,,,,,,PF,3,strong,,,,,,,,3,1.352,,,,,,,,,,,,,,,,,,,,,,,,,,,,7,strong,-54,-87,1,0,0,response5disk,6,120,-2,-8,1,0,0,rectangle,-2,-8,1,0,0,1,1,0.001,-2,-8,1,0,0,0,119,119,31,1,0,,,,,,,,,,,,,,,,,,,,,
,,,,,,,,,,,,,,,,,,,,,,,,,,,,,,,,,,,,,,,,,,5f549d6faee775809d6f5a33,606a10ee0223ae9d59fc388c,2021-04-04_21h19.41.804,Colour_Similarity_Experiment,2020.2.10,Win32,60,60675255c767bca6388caeee,17.13461538,16.7116451,16.68465909,16.72274882,16.71118531,16.7116451,,,,,,,,,,,,,,,,,,,,PF,3,strong,,,,,,,,2,1.034,,,,,,,,,,,,,,,,,,,,,,,,,,,,6,strong,-72,-46,1,0,0,response5disk,5,121,4,6,1,0,0,rectangle,4,6,1,0,0,1,1,0,4,6,1,0,0,0,120,120,126,1,0,,,,,,,,,,,,,,,,,,,,,
,,,,,,,,,,,,,,,,,,,,,,,,,,,,,,,,,,,,,,,,,,5f549d6faee775809d6f5a33,606a10ee0223ae9d59fc388c,2021-04-04_21h19.41.804,Colour_Similarity_Experiment,2020.2.10,Win32,60,60675255c767bca6388caeee,17.13461538,16.7116451,16.68465909,16.72274882,16.71118531,16.7116451,,,,,,,,,,,,,,,,,,,,PF,3,weak,,,,,,,,6,1.285,,,,,,,,,,,,,,,,,,,,,,,,,,,,3,weak,97,27,1,0,0,response1disk,9,122,20,1,1,0,0,rectangle,20,1,1,0,0,1,7,0.001,20,1,1,0,0,0,121,121,79,1,0,,,,,,,,,,,,,,,,,,,,,
,,,,,,,,,,,,,,,,,,,,,,,,,,,,,,,,,,,,,,,,,,5f549d6faee775809d6f5a33,606a10ee0223ae9d59fc388c,2021-04-04_21h19.41.804,Colour_Similarity_Experiment,2020.2.10,Win32,60,60675255c767bca6388caeee,17.13461538,16.7116451,16.68465909,16.72274882,16.71118531,16.7116451,,,,,,,,,,,,,,,,,,,,PF,3,weak,,,,,,,,6,1.335,,,,,,,,,,,,,,,,,,,,,,,,,,,,8,weak,100,53,1,0,0,response1disk,4,123,5,-3,1,0,0,rectangle,5,-3,1,0,0,1,1,0.001,5,-3,1,0,0,0,122,122,78,1,0,,,,,,,,,,,,,,,,,,,,,
,,,,,,,,,,,,,,,,,,,,,,,,,,,,,,,,,,,,,,,,,,5f549d6faee775809d6f5a33,606a10ee0223ae9d59fc388c,2021-04-04_21h19.41.804,Colour_Similarity_Experiment,2020.2.10,Win32,60,60675255c767bca6388caeee,17.13461538,16.7116451,16.68465909,16.72274882,16.71118531,16.7116451,,,,,,,,,,,,,,,,,,,,PF,3,weak,,,,,,,,7,0.868,,,,,,,,,,,,,,,,,,,,,,,,,,,,3,weak,38,96,1,0,0,response1disk,7,124,3,7,1,0,0,rectangle,3,7,1,0,0,1,3,0,3,7,1,0,0,0,123,123,41,1,0,,,,,,,,,,,,,,,,,,,,,
,,,,,,,,,,,,,,,,,,,,,,,,,,,,,,,,,,,,,,,,,,5f549d6faee775809d6f5a33,606a10ee0223ae9d59fc388c,2021-04-04_21h19.41.804,Colour_Similarity_Experiment,2020.2.10,Win32,60,60675255c767bca6388caeee,17.13461538,16.7116451,16.68465909,16.72274882,16.71118531,16.7116451,,,,,,,,,,,,,,,,,,,,PF,3,strong,,,,,,,,5,2.602,,,,,,,,,,,,,,,,,,,,,,,,,,,,1,strong,116,-56,1,0,0,response3disk,2,125,8,-10,1,0,0,rectangle,8,-10,1,0,0,1,0,0.001,8,-10,1,0,0,0,124,124,2,1,0,,,,,,,,,,,,,,,,,,,,,
,,,,,,,,,,,,,,,,,,,,,,,,,,,,,,,,,,,,,,,,,,5f549d6faee775809d6f5a33,606a10ee0223ae9d59fc388c,2021-04-04_21h19.41.804,Colour_Similarity_Experiment,2020.2.10,Win32,60,60675255c767bca6388caeee,17.13461538,16.7116451,16.68465909,16.72274882,16.71118531,16.7116451,,,,,,,,,,,,,,,,,,,,PF,3,weak,,,,,,,,4,1.117,,,,,,,,,,,,,,,,,,,,,,,,,,,,2,weak,57,-92,1,0,0,response3disk,4,126,9,14,1,0,0,rectangle,9,14,1,0,0,1,4,0.001,9,14,1,0,0,0,125,125,127,1,0,,,,,,,,,,,,,,,,,,,,,
,,,,,,,,,,,,,,,,,,,,,,,,,,,,,,,,,,,,,,,,,,5f549d6faee775809d6f5a33,606a10ee0223ae9d59fc388c,2021-04-04_21h19.41.804,Colour_Similarity_Experiment,2020.2.10,Win32,60,60675255c767bca6388caeee,17.13461538,16.7116451,16.68465909,16.72274882,16.71118531,16.7116451,,,,,,,,,,,,,,,,,,,,PF,3,weak,,,,,,,,3,1.818,,,,,,,,,,,,,,,,,,,,,,,,,,,,6,weak,-57,-93,1,0,0,response5disk,6,127,0,-7,1,0,0,rectangle,0,-7,1,0,0,1,2,0,0,-7,1,0,0,0,126,126,0,1,0,,,,,,,,,,,,,,,,,,,,,
,,,,,,,,,,,,,,,,,,,,,,,,,,,,,,,,,,,,,,,,,,5f549d6faee775809d6f5a33,606a10ee0223ae9d59fc388c,2021-04-04_21h19.41.804,Colour_Similarity_Experiment,2020.2.10,Win32,60,60675255c767bca6388caeee,17.13461538,16.7116451,16.68465909,16.72274882,16.71118531,16.7116451,,,,,,,,,,,,,,,,,,,,PF,3,strong,,,,,,,,5,1.418,,,,,,,,,,,,,,,,,,,,,,,,,,,,4,strong,94,-48,1,0,0,response3disk,6,128,1,4,1,0,0,rectangle,1,4,1,0,0,1,2,0.001,1,4,1,0,0,0,127,127,122,1,0,,,,,,,,,,,,,,,,,,,,,
,,,,,,,,,,,,,,,,,,,,,,,,,,,,,,,,,,,,,,,,,,5f549d6faee775809d6f5a33,606a10ee0223ae9d59fc388c,2021-04-04_21h19.41.804,Colour_Similarity_Experiment,2020.2.10,Win32,60,60675255c767bca6388caeee,17.13461538,16.7116451,16.68465909,16.72274882,16.71118531,16.7116451,,,,,,,,,,,,,,,,,,,,PF,3,strong,,,,,,,,6,1.083,,,,,,,,,,,,,,,,,,,,,,,,,,,,6,strong,91,24,1,0,0,response1disk,2,129,-2,10,1,0,0,rectangle,-2,10,1,0,0,1,0,0.001,-2,10,1,0,0,0,128,128,112,1,0,,,,,,,,,,,,,,,,,,,,,
,,,,,,,,,,,,,,,,,,,,,,,,,,,,,,,,,,,,,,,,,,5f549d6faee775809d6f5a33,606a10ee0223ae9d59fc388c,2021-04-04_21h19.41.804,Colour_Similarity_Experiment,2020.2.10,Win32,60,60675255c767bca6388caeee,17.13461538,16.7116451,16.68465909,16.72274882,16.71118531,16.7116451,,,,,,,,,,,,,,,,,,,,PF,3,strong,,,,,,,,4,1.952,,,,,,,,,,,,,,,,,,,,,,,,,,,,5,strong,35,-56,1,0,0,response3disk,8,130,-4,5,1,0,0,rectangle,-4,5,1,0,0,1,5,0.001,-4,5,1,0,0,0,129,129,16,1,0,,,,,,,,,,,,,,,,,,,,,
,,,,,,,,,,,,,,,,,,,,,,,,,,,,,,,,,,,,,,,,,,5f549d6faee775809d6f5a33,606a10ee0223ae9d59fc388c,2021-04-04_21h19.41.804,Colour_Similarity_Experiment,2020.2.10,Win32,60,60675255c767bca6388caeee,17.13461538,16.7116451,16.68465909,16.72274882,16.71118531,16.7116451,,,,,,,,,,,,,,,,,,,,PF,3,weak,,,,,,,,5,1.017,,,,,,,,,,,,,,,,,,,,,,,,,,,,8,weak,59,-26,1,0,0,response3disk,5,131,13,-11,1,0,0,rectangle,13,-11,1,0,0,1,5,0,13,-11,1,0,0,0,130,130,98,1,0,,,,,,,,,,,,,,,,,,,,,
,,,,,,,,,,,,,,,,,,,,,,,,,,,,,,,,,,,,,,,,,,5f549d6faee775809d6f5a33,606a10ee0223ae9d59fc388c,2021-04-04_21h19.41.804,Colour_Similarity_Experiment,2020.2.10,Win32,60,60675255c767bca6388caeee,17.13461538,16.7116451,16.68465909,16.72274882,16.71118531,16.7116451,,,,,,,,,,,,,,,,,,,,PF,3,weak,,,,,,,,6,1.052,,,,,,,,,,,,,,,,,,,,,,,,,,,,3,weak,75,46,1,0,0,response1disk,8,132,-1,8,1,0,0,rectangle,-1,8,1,0,0,1,0,0.001,-1,8,1,0,0,0,131,131,3,1,0,,,,,,,,,,,,,,,,,,,,,
,,,,,,,,,,,,,,,,,,,,,,,,,,,,,,,,,,,,,,,,,,5f549d6faee775809d6f5a33,606a10ee0223ae9d59fc388c,2021-04-04_21h19.41.804,Colour_Similarity_Experiment,2020.2.10,Win32,60,60675255c767bca6388caeee,17.13461538,16.7116451,16.68465909,16.72274882,16.71118531,16.7116451,,,,,,,,,,,,,,,,,,,,PF,3,strong,,,,,,,,7,1.101,,,,,,,,,,,,,,,,,,,,,,,,,,,,1,strong,51,65,1,0,0,response1disk,8,133,31,13,1,0,0,rectangle,31,13,1,0,0,1,5,0.001,31,13,1,0,0,0,132,132,27,1,0,,,,,,,,,,,,,,,,,,,,,
,,,,,,,,,,,,,,,,,,,,,,,,,,,,,,,,,,,,,,,,,,5f549d6faee775809d6f5a33,606a10ee0223ae9d59fc388c,2021-04-04_21h19.41.804,Colour_Similarity_Experiment,2020.2.10,Win32,60,60675255c767bca6388caeee,17.13461538,16.7116451,16.68465909,16.72274882,16.71118531,16.7116451,,,,,,,,,,,,,,,,,,,,PF,3,weak,,,,,,,,6,0.901,,,,,,,,,,,,,,,,,,,,,,,,,,,,2,weak,102,36,1,0,0,response1disk,8,134,17,-3,1,0,0,rectangle,17,-3,1,0,0,1,7,0,17,-3,1,0,0,0,133,133,52,1,0,,,,,,,,,,,,,,,,,,,,,
,,,,,,,,,,,,,,,,,,,,,,,,,,,,,,,,,,,,,,,,,,5f549d6faee775809d6f5a33,606a10ee0223ae9d59fc388c,2021-04-04_21h19.41.804,Colour_Similarity_Experiment,2020.2.10,Win32,60,60675255c767bca6388caeee,17.13461538,16.7116451,16.68465909,16.72274882,16.71118531,16.7116451,,,,,,,,,,,,,,,,,,,,PF,3,weak,,,,,,,,7,1.234,,,,,,,,,,,,,,,,,,,,,,,,,,,,9,weak,35,85,1,0,0,response1disk,1,135,9,17,1,0,0,rectangle,9,17,1,0,0,1,2,0,9,17,1,0,0,0,134,134,74,1,0,,,,,,,,,,,,,,,,,,,,,
,,,,,,,,,,,,,,,,,,,,,,,,,,,,,,,,,,,,,,,,,,5f549d6faee775809d6f5a33,606a10ee0223ae9d59fc388c,2021-04-04_21h19.41.804,Colour_Similarity_Experiment,2020.2.10,Win32,60,60675255c767bca6388caeee,17.13461538,16.7116451,16.68465909,16.72274882,16.71118531,16.7116451,,,,,,,,,,,,,,,,,,,,PF,3,strong,,,,,,,,7,0.868,,,,,,,,,,,,,,,,,,,,,,,,,,,,1,strong,52,105,1,0,0,response1disk,7,136,7,17,1,0,0,rectangle,7,17,1,0,0,1,3,0,7,17,1,0,0,0,135,135,137,1,0,,,,,,,,,,,,,,,,,,,,,
,,,,,,,,,,,,,,,,,,,,,,,,,,,,,,,,,,,,,,,,,,5f549d6faee775809d6f5a33,606a10ee0223ae9d59fc388c,2021-04-04_21h19.41.804,Colour_Similarity_Experiment,2020.2.10,Win32,60,60675255c767bca6388caeee,17.13461538,16.7116451,16.68465909,16.72274882,16.71118531,16.7116451,,,,,,,,,,,,,,,,,,,,PF,3,weak,,,,,,,,3,1.235,,,,,,,,,,,,,,,,,,,,,,,,,,,,7,weak,-29,-88,1,0,0,response5disk,5,137,15,20,1,0,0,rectangle,15,20,1,0,0,1,1,0.001,15,20,1,0,0,0,136,136,92,1,0,,,,,,,,,,,,,,,,,,,,,
,,,,,,,,,,,,,,,,,,,,,,,,,,,,,,,,,,,,,,,,,,5f549d6faee775809d6f5a33,606a10ee0223ae9d59fc388c,2021-04-04_21h19.41.804,Colour_Similarity_Experiment,2020.2.10,Win32,60,60675255c767bca6388caeee,17.13461538,16.7116451,16.68465909,16.72274882,16.71118531,16.7116451,,,,,,,,,,,,,,,,,,,,PF,3,weak,,,,,,,,6,1.118,,,,,,,,,,,,,,,,,,,,,,,,,,,,1,weak,108,50,1,0,0,response1disk,4,138,14,-9,1,0,0,rectangle,14,-9,1,0,0,1,6,0.001,14,-9,1,0,0,0,137,137,139,1,0,,,,,,,,,,,,,,,,,,,,,
,,,,,,,,,,,,,,,,,,,,,,,,,,,,,,,,,,,,,,,,,,5f549d6faee775809d6f5a33,606a10ee0223ae9d59fc388c,2021-04-04_21h19.41.804,Colour_Similarity_Experiment,2020.2.10,Win32,60,60675255c767bca6388caeee,17.13461538,16.7116451,16.68465909,16.72274882,16.71118531,16.7116451,,,,,,,,,,,,,,,,,,,,PF,3,strong,,,,,,,,7,1.686,,,,,,,,,,,,,,,,,,,,,,,,,,,,7,strong,42,71,1,0,0,response1disk,9,139,-13,2,1,0,0,rectangle,-13,2,1,0,0,1,2,0,-13,2,1,0,0,0,138,138,155,1,0,,,,,,,,,,,,,,,,,,,,,
,,,,,,,,,,,,,,,,,,,,,,,,,,,,,,,,,,,,,,,,,,5f549d6faee775809d6f5a33,606a10ee0223ae9d59fc388c,2021-04-04_21h19.41.804,Colour_Similarity_Experiment,2020.2.10,Win32,60,60675255c767bca6388caeee,17.13461538,16.7116451,16.68465909,16.72274882,16.71118531,16.7116451,,,,,,,,,,,,,,,,,,,,PF,3,weak,,,,,,,,7,1.083,,,,,,,,,,,,,,,,,,,,,,,,,,,,7,weak,57,89,1,0,0,response1disk,4,140,-6,15,1,0,0,rectangle,-6,15,1,0,0,1,0,0,-6,15,1,0,0,0,139,139,43,1,0,,,,,,,,,,,,,,,,,,,,,
,,,,,,,,,,,,,,,,,,,,,,,,,,,,,,,,,,,,,,,,,,5f549d6faee775809d6f5a33,606a10ee0223ae9d59fc388c,2021-04-04_21h19.41.804,Colour_Similarity_Experiment,2020.2.10,Win32,60,60675255c767bca6388caeee,17.13461538,16.7116451,16.68465909,16.72274882,16.71118531,16.7116451,,,,,,,,,,,,,,,,,,,,PF,3,strong,,,,,,,,5,1.033,,,,,,,,,,,,,,,,,,,,,,,,,,,,4,strong,76,-30,1,0,0,response3disk,8,141,10,-10,1,0,0,rectangle,10,-10,1,0,0,1,6,0,10,-10,1,0,0,0,140,140,35,1,0,,,,,,,,,,,,,,,,,,,,,
,,,,,,,,,,,,,,,,,,,,,,,,,,,,,,,,,,,,,,,,,,5f549d6faee775809d6f5a33,606a10ee0223ae9d59fc388c,2021-04-04_21h19.41.804,Colour_Similarity_Experiment,2020.2.10,Win32,60,60675255c767bca6388caeee,17.13461538,16.7116451,16.68465909,16.72274882,16.71118531,16.7116451,,,,,,,,,,,,,,,,,,,,PF,3,strong,,,,,,,,6,1.501,,,,,,,,,,,,,,,,,,,,,,,,,,,,7,strong,80,41,1,0,0,response1disk,3,142,-1,-1,1,0,0,rectangle,-1,-1,1,0,0,1,1,0.001,-1,-1,1,0,0,0,141,141,73,1,0,,,,,,,,,,,,,,,,,,,,,
,,,,,,,,,,,,,,,,,,,,,,,,,,,,,,,,,,,,,,,,,,5f549d6faee775809d6f5a33,606a10ee0223ae9d59fc388c,2021-04-04_21h19.41.804,Colour_Similarity_Experiment,2020.2.10,Win32,60,60675255c767bca6388caeee,17.13461538,16.7116451,16.68465909,16.72274882,16.71118531,16.7116451,,,,,,,,,,,,,,,,,,,,PF,3,strong,,,,,,,,6,1.718,,,,,,,,,,,,,,,,,,,,,,,,,,,,1,strong,113,41,1,0,0,response1disk,6,143,20,-8,1,0,0,rectangle,20,-8,1,0,0,1,7,0.001,20,-8,1,0,0,0,142,142,58,1,0,,,,,,,,,,,,,,,,,,,,,
,,,,,,,,,,,,,,,,,,,,,,,,,,,,,,,,,,,,,,,,,,5f549d6faee775809d6f5a33,606a10ee0223ae9d59fc388c,2021-04-04_21h19.41.804,Colour_Similarity_Experiment,2020.2.10,Win32,60,60675255c767bca6388caeee,17.13461538,16.7116451,16.68465909,16.72274882,16.71118531,16.7116451,,,,,,,,,,,,,,,,,,,,PF,3,weak,,,,,,,,5,1.501,,,,,,,,,,,,,,,,,,,,,,,,,,,,3,weak,121,-61,1,0,0,response3disk,6,144,-4,-20,1,0,0,rectangle,-4,-20,1,0,0,1,3,0,-4,-20,1,0,0,0,143,143,47,1,0,,,,,,,,,,,,,,,,,,,,,
,,,,,,,,,,,,,,,,,,,,,,,,,,,,,,,,,,,,,,,,,,5f549d6faee775809d6f5a33,606a10ee0223ae9d59fc388c,2021-04-04_21h19.41.804,Colour_Similarity_Experiment,2020.2.10,Win32,60,60675255c767bca6388caeee,17.13461538,16.7116451,16.68465909,16.72274882,16.71118531,16.7116451,,,,,,,,,,,,,,,,,,,,PF,3,weak,,,,,,,,3,1.501,,,,,,,,,,,,,,,,,,,,,,,,,,,,3,weak,-30,-110,1,0,0,response5disk,2,145,-8,9,1,0,0,rectangle,28,-91,1,0,0,4,4,1.803,-19,2,1,0,0,0,144,144,36,1,1,response3disk_3,rectangle,,,,,,,,,,,,,,,,,,,
,,,,,,,,,,,,,,,,,,,,,,,,,,,,,,,,,,,,,,,,,,5f549d6faee775809d6f5a33,606a10ee0223ae9d59fc388c,2021-04-04_21h19.41.804,Colour_Similarity_Experiment,2020.2.10,Win32,60,60675255c767bca6388caeee,17.13461538,16.7116451,16.68465909,16.72274882,16.71118531,16.7116451,,,,,,,,,,,,,,,,,,,,PF,3,weak,,,,,,,,6,1.484,,,,,,,,,,,,,,,,,,,,,,,,,,,,1,weak,116,35,1,0,0,response1disk,5,146,11,-19,1,0,0,rectangle,11,-19,1,0,0,4,6,0.001,11,-19,1,0,0,0,145,145,28,1,0,,,,,,,,,,,,,,,,,,,,,
,,,,,,,,,,,,,,,,,,,,,,,,,,,,,,,,,,,,,,,,,,5f549d6faee775809d6f5a33,606a10ee0223ae9d59fc388c,2021-04-04_21h19.41.804,Colour_Similarity_Experiment,2020.2.10,Win32,60,60675255c767bca6388caeee,17.13461538,16.7116451,16.68465909,16.72274882,16.71118531,16.7116451,,,,,,,,,,,,,,,,,,,,PF,3,strong,,,,,,,,4,1.118,,,,,,,,,,,,,,,,,,,,,,,,,,,,4,strong,67,-90,1,0,0,response3disk,5,147,7,-8,1,0,0,rectangle,7,-8,1,0,0,4,0,0,7,-8,1,0,0,0,146,146,116,1,0,,,,,,,,,,,,,,,,,,,,,
,,,,,,,,,,,,,,,,,,,,,,,,,,,,,,,,,,,,,,,,,,5f549d6faee775809d6f5a33,606a10ee0223ae9d59fc388c,2021-04-04_21h19.41.804,Colour_Similarity_Experiment,2020.2.10,Win32,60,60675255c767bca6388caeee,17.13461538,16.7116451,16.68465909,16.72274882,16.71118531,16.7116451,,,,,,,,,,,,,,,,,,,,PF,3,weak,,,,,,,,3,1.035,,,,,,,,,,,,,,,,,,,,,,,,,,,,2,weak,-28,-108,1,0,0,response5disk,3,148,4,20,1,0,0,rectangle,4,20,1,0,0,4,0,0,4,20,1,0,0,0,147,147,69,1,0,,,,,,,,,,,,,,,,,,,,,
,,,,,,,,,,,,,,,,,,,,,,,,,,,,,,,,,,,,,,,,,,5f549d6faee775809d6f5a33,606a10ee0223ae9d59fc388c,2021-04-04_21h19.41.804,Colour_Similarity_Experiment,2020.2.10,Win32,60,60675255c767bca6388caeee,17.13461538,16.7116451,16.68465909,16.72274882,16.71118531,16.7116451,,,,,,,,,,,,,,,,,,,,PF,3,weak,,,,,,,,5,1.651,,,,,,,,,,,,,,,,,,,,,,,,,,,,2,weak,106,-38,1,0,0,response3disk,9,149,37,-13,1,0,0,rectangle,37,-13,1,0,0,4,2,0.001,37,-13,1,0,0,0,148,148,39,1,0,,,,,,,,,,,,,,,,,,,,,
,,,,,,,,,,,,,,,,,,,,,,,,,,,,,,,,,,,,,,,,,,5f549d6faee775809d6f5a33,606a10ee0223ae9d59fc388c,2021-04-04_21h19.41.804,Colour_Similarity_Experiment,2020.2.10,Win32,60,60675255c767bca6388caeee,17.13461538,16.7116451,16.68465909,16.72274882,16.71118531,16.7116451,,,,,,,,,,,,,,,,,,,,PF,3,weak,,,,,,,,6,1,,,,,,,,,,,,,,,,,,,,,,,,,,,,8,weak,125,27,1,0,0,response1disk,6,150,7,-6,1,0,0,rectangle,86,-42,1,0,0,5,5,1.468,18,-15,1,0,0,0,149,149,161,1,1,response3disk_3,rectangle,,,,,,,,,,,,,,,,,,,
,,,,,,,,,,,,,,,,,,,,,,,,,,,,,,,,,,,,,,,,,,5f549d6faee775809d6f5a33,606a10ee0223ae9d59fc388c,2021-04-04_21h19.41.804,Colour_Similarity_Experiment,2020.2.10,Win32,60,60675255c767bca6388caeee,17.13461538,16.7116451,16.68465909,16.72274882,16.71118531,16.7116451,,,,,,,,,,,,,,,,,,,,PF,3,weak,,,,,,,,1,1.419,,,,,,,,,,,,,,,,,,,,,,,,,,,,5,weak,-96,40,1,0,0,response7disk,3,151,-18,4,1,0,0,rectangle,-18,4,1,0,0,5,2,0.001,-18,4,1,0,0,0,150,150,109,1,0,,,,,,,,,,,,,,,,,,,,,
,,,,,,,,,,,,,,,,,,,,,,,,,,,,,,,,,,,,,,,,,,5f549d6faee775809d6f5a33,606a10ee0223ae9d59fc388c,2021-04-04_21h19.41.804,Colour_Similarity_Experiment,2020.2.10,Win32,60,60675255c767bca6388caeee,17.13461538,16.7116451,16.68465909,16.72274882,16.71118531,16.7116451,,,,,,,,,,,,,,,,,,,,PF,3,weak,,,,,,,,6,1.318,,,,,,,,,,,,,,,,,,,,,,,,,,,,5,weak,110,36,1,0,0,response1disk,1,152,30,9,1,0,0,rectangle,51,114,1,0,0,7,7,1.467,5,15,1,0,0,0,151,151,159,1,1,response1disk_3,rectangle,,,,,,,,,,,,,,,,,,,
,,,,,,,,,,,,,,,,,,,,,,,,,,,,,,,,,,,,,,,,,,5f549d6faee775809d6f5a33,606a10ee0223ae9d59fc388c,2021-04-04_21h19.41.804,Colour_Similarity_Experiment,2020.2.10,Win32,60,60675255c767bca6388caeee,17.13461538,16.7116451,16.68465909,16.72274882,16.71118531,16.7116451,,,,,,,,,,,,,,,,,,,,PF,3,weak,,,,,,,,0,1.101,,,,,,,,,,,,,,,,,,,,,,,,,,,,3,weak,-48,112,1,0,0,response7disk,3,153,-1,-2,1,0,0,rectangle,-1,-2,1,0,0,7,7,0,-1,-2,1,0,0,0,152,152,4,1,0,,,,,,,,,,,,,,,,,,,,,
,,,,,,,,,,,,,,,,,,,,,,,,,,,,,,,,,,,,,,,,,,5f549d6faee775809d6f5a33,606a10ee0223ae9d59fc388c,2021-04-04_21h19.41.804,Colour_Similarity_Experiment,2020.2.10,Win32,60,60675255c767bca6388caeee,17.13461538,16.7116451,16.68465909,16.72274882,16.71118531,16.7116451,,,,,,,,,,,,,,,,,,,,PF,3,strong,,,,,,,,4,1.6,,,,,,,,,,,,,,,,,,,,,,,,,,,,5,strong,40,-123,1,0,0,response3disk,7,154,4,-17,1,0,0,rectangle,4,-17,1,0,0,7,0,0.001,4,-17,1,0,0,0,153,153,7,1,0,,,,,,,,,,,,,,,,,,,,,
,,,,,,,,,,,,,,,,,,,,,,,,,,,,,,,,,,,,,,,,,,5f549d6faee775809d6f5a33,606a10ee0223ae9d59fc388c,2021-04-04_21h19.41.804,Colour_Similarity_Experiment,2020.2.10,Win32,60,60675255c767bca6388caeee,17.13461538,16.7116451,16.68465909,16.72274882,16.71118531,16.7116451,,,,,,,,,,,,,,,,,,,,PF,3,strong,,,,,,,,6,1.018,,,,,,,,,,,,,,,,,,,,,,,,,,,,8,strong,101,43,1,0,0,response1disk,6,155,25,-9,1,0,0,rectangle,25,-9,1,0,0,7,3,0,25,-9,1,0,0,0,154,154,37,1,0,,,,,,,,,,,,,,,,,,,,,
,,,,,,,,,,,,,,,,,,,,,,,,,,,,,,,,,,,,,,,,,,5f549d6faee775809d6f5a33,606a10ee0223ae9d59fc388c,2021-04-04_21h19.41.804,Colour_Similarity_Experiment,2020.2.10,Win32,60,60675255c767bca6388caeee,17.13461538,16.7116451,16.68465909,16.72274882,16.71118531,16.7116451,,,,,,,,,,,,,,,,,,,,PF,3,strong,,,,,,,,6,0.951,,,,,,,,,,,,,,,,,,,,,,,,,,,,8,strong,88,43,1,0,0,response1disk,5,156,8,-12,1,0,0,rectangle,8,-12,1,0,0,7,6,0,8,-12,1,0,0,0,155,155,152,1,0,,,,,,,,,,,,,,,,,,,,,
,,,,,,,,,,,,,,,,,,,,,,,,,,,,,,,,,,,,,,,,,,5f549d6faee775809d6f5a33,606a10ee0223ae9d59fc388c,2021-04-04_21h19.41.804,Colour_Similarity_Experiment,2020.2.10,Win32,60,60675255c767bca6388caeee,17.13461538,16.7116451,16.68465909,16.72274882,16.71118531,16.7116451,,,,,,,,,,,,,,,,,,,,PF,3,weak,,,,,,,,3,1.269,,,,,,,,,,,,,,,,,,,,,,,,,,,,6,weak,-34,-90,1,0,0,response5disk,9,157,1,7,1,0,0,rectangle,1,7,1,0,0,7,5,0,1,7,1,0,0,0,156,156,45,1,0,,,,,,,,,,,,,,,,,,,,,
,,,,,,,,,,,,,,,,,,,,,,,,,,,,,,,,,,,,,,,,,,5f549d6faee775809d6f5a33,606a10ee0223ae9d59fc388c,2021-04-04_21h19.41.804,Colour_Similarity_Experiment,2020.2.10,Win32,60,60675255c767bca6388caeee,17.13461538,16.7116451,16.68465909,16.72274882,16.71118531,16.7116451,,,,,,,,,,,,,,,,,,,,PF,3,strong,,,,,,,,6,1.134,,,,,,,,,,,,,,,,,,,,,,,,,,,,4,strong,87,31,1,0,0,response1disk,1,158,12,-19,1,0,0,rectangle,12,-19,1,0,0,7,7,0,12,-19,1,0,0,0,157,157,102,1,0,,,,,,,,,,,,,,,,,,,,,
,,,,,,,,,,,,,,,,,,,,,,,,,,,,,,,,,,,,,,,,,,5f549d6faee775809d6f5a33,606a10ee0223ae9d59fc388c,2021-04-04_21h19.41.804,Colour_Similarity_Experiment,2020.2.10,Win32,60,60675255c767bca6388caeee,17.13461538,16.7116451,16.68465909,16.72274882,16.71118531,16.7116451,,,,,,,,,,,,,,,,,,,,PF,3,weak,,,,,,,,5,2.003,,,,,,,,,,,,,,,,,,,,,,,,,,,,4,weak,109,-54,1,0,0,response3disk,8,159,10,-7,1,0,0,rectangle,10,-7,1,0,0,7,1,0.001,10,-7,1,0,0,0,158,158,124,1,0,,,,,,,,,,,,,,,,,,,,,
,,,,,,,,,,,,,,,,,,,,,,,,,,,,,,,,,,,,,,,,,,5f549d6faee775809d6f5a33,606a10ee0223ae9d59fc388c,2021-04-04_21h19.41.804,Colour_Similarity_Experiment,2020.2.10,Win32,60,60675255c767bca6388caeee,17.13461538,16.7116451,16.68465909,16.72274882,16.71118531,16.7116451,,,,,,,,,,,,,,,,,,,,PF,3,weak,,,,,,,,4,0.985,,,,,,,,,,,,,,,,,,,,,,,,,,,,4,weak,54,-117,1,0,0,response3disk,6,160,3,-2,1,0,0,rectangle,3,-2,1,0,0,7,4,0,3,-2,1,0,0,0,159,159,120,1,0,,,,,,,,,,,,,,,,,,,,,
,,,,,,,,,,,,,,,,,,,,,,,,,,,,,,,,,,,,,,,,,,5f549d6faee775809d6f5a33,606a10ee0223ae9d59fc388c,2021-04-04_21h19.41.804,Colour_Similarity_Experiment,2020.2.10,Win32,60,60675255c767bca6388caeee,17.13461538,16.7116451,16.68465909,16.72274882,16.71118531,16.7116451,,,,,,,,,,,,,,,,,,,,PF,3,weak,,,,,,,,6,0.834,,,,,,,,,,,,,,,,,,,,,,,,,,,,8,weak,85,27,1,0,0,response1disk,3,161,13,-8,1,0,0,rectangle,13,-8,1,0,0,7,6,0.001,13,-8,1,0,0,0,160,160,71,1,0,,,,,,,,,,,,,,,,,,,,,
,,,,,,,,,,,,,,,,,,,,,,,,,,,,,,,,,,,,,,,,,,5f549d6faee775809d6f5a33,606a10ee0223ae9d59fc388c,2021-04-04_21h19.41.804,Colour_Similarity_Experiment,2020.2.10,Win32,60,60675255c767bca6388caeee,17.13461538,16.7116451,16.68465909,16.72274882,16.71118531,16.7116451,,,,,,,,,,,,,,,,,,,,PF,3,strong,,,,,,,,3,1.418,,,,,,,,,,,,,,,,,,,,,,,,,,,,6,strong,-51,-70,1,0,0,response5disk,6,162,5,17,1,0,0,rectangle,5,17,1,0,0,7,3,0,5,17,1,0,0,0,161,161,91,1,0,,,,,,,,,,,,,,,,,,,,,
,,,,,,,,,,,,,,,,,,,,,,,,,,,,,,,,,,,,,,,,,,5f549d6faee775809d6f5a33,606a10ee0223ae9d59fc388c,2021-04-04_21h19.41.804,Colour_Similarity_Experiment,2020.2.10,Win32,60,60675255c767bca6388caeee,17.13461538,16.7116451,16.68465909,16.72274882,16.71118531,16.7116451,,,,,,,,,,,,,,,,,,,,,,,,,,,,,,,,,,,,,,,,,,,,,,,,,,,,,,,,,,,,,,,,,,,,,,,,,,,,,,,,,,,,,,,,,,,,,,,,0,0,0,0,1,,,,,,,,,,,,,,
,,,,,,,,,,,,,,,,,,,,,,,,,,,,,,,,,,,,,,,,,,5f549d6faee775809d6f5a33,606a10ee0223ae9d59fc388c,2021-04-04_21h19.41.804,Colour_Similarity_Experiment,2020.2.10,Win32,60,60675255c767bca6388caeee,17.13461538,16.7116451,16.68465909,16.72274882,16.71118531,16.7116451,,,,,,,,,,,,,,,,,,,,PF,3,strong,,,,,,,,5,1.452,,,,,,,,,,,,,,,,,,,,,,,,,,,,6,strong,121,-26,1,0,0,response3disk,4,163,36,5,1,0,0,rectangle,36,5,1,0,0,7,0,0.001,36,5,1,0,0,0,0,0,56,1,0,,,,,,,,,,,,,,,,,,,,,
,,,,,,,,,,,,,,,,,,,,,,,,,,,,,,,,,,,,,,,,,,5f549d6faee775809d6f5a33,606a10ee0223ae9d59fc388c,2021-04-04_21h19.41.804,Colour_Similarity_Experiment,2020.2.10,Win32,60,60675255c767bca6388caeee,17.13461538,16.7116451,16.68465909,16.72274882,16.71118531,16.7116451,,,,,,,,,,,,,,,,,,,,PF,3,weak,,,,,,,,6,1.25,,,,,,,,,,,,,,,,,,,,,,,,,,,,1,weak,97,67,1,0,0,response1disk,7,164,13,19,1,0,0,rectangle,13,19,1,0,0,7,2,0.001,13,19,1,0,0,0,1,1,150,1,0,,,,,,,,,,,,,,,,,,,,,
,,,,,,,,,,,,,,,,,,,,,,,,,,,,,,,,,,,,,,,,,,5f549d6faee775809d6f5a33,606a10ee0223ae9d59fc388c,2021-04-04_21h19.41.804,Colour_Similarity_Experiment,2020.2.10,Win32,60,60675255c767bca6388caeee,17.13461538,16.7116451,16.68465909,16.72274882,16.71118531,16.7116451,,,,,,,,,,,,,,,,,,,,PF,3,weak,,,,,,,,0,0.968,,,,,,,,,,,,,,,,,,,,,,,,,,,,5,weak,-41,107,1,0,0,response7disk,5,165,2,-1,1,0,0,rectangle,2,-1,1,0,0,7,4,0.001,2,-1,1,0,0,0,2,2,94,1,0,,,,,,,,,,,,,,,,,,,,,
,,,,,,,,,,,,,,,,,,,,,,,,,,,,,,,,,,,,,,,,,,5f549d6faee775809d6f5a33,606a10ee0223ae9d59fc388c,2021-04-04_21h19.41.804,Colour_Similarity_Experiment,2020.2.10,Win32,60,60675255c767bca6388caeee,17.13461538,16.7116451,16.68465909,16.72274882,16.71118531,16.7116451,,,,,,,,,,,,,,,,,,,,PF,3,strong,,,,,,,,3,1.168,,,,,,,,,,,,,,,,,,,,,,,,,,,,3,strong,-32,-85,1,0,0,response5disk,6,166,26,21,1,0,0,rectangle,26,21,1,0,0,6,1,0,26,21,1,0,0,0,3,3,95,1,0,,,,,,,,,,,,,,,,,,,,,
,,,,,,,,,,,,,,,,,,,,,,,,,,,,,,,,,,,,,,,,,,5f549d6faee775809d6f5a33,606a10ee0223ae9d59fc388c,2021-04-04_21h19.41.804,Colour_Similarity_Experiment,2020.2.10,Win32,60,60675255c767bca6388caeee,17.13461538,16.7116451,16.68465909,16.72274882,16.71118531,16.7116451,,,,,,,,,,,,,,,,,,,,PF,3,strong,,,,,,,,6,0.985,,,,,,,,,,,,,,,,,,,,,,,,,,,,7,strong,73,51,1,0,0,response1disk,4,167,-2,-10,1,0,0,rectangle,-2,-10,1,0,0,6,7,0.001,-2,-10,1,0,0,0,4,4,158,1,0,,,,,,,,,,,,,,,,,,,,,
,,,,,,,,,,,,,,,,,,,,,,,,,,,,,,,,,,,,,,,,,,5f549d6faee775809d6f5a33,606a10ee0223ae9d59fc388c,2021-04-04_21h19.41.804,Colour_Similarity_Experiment,2020.2.10,Win32,60,60675255c767bca6388caeee,17.13461538,16.7116451,16.68465909,16.72274882,16.71118531,16.7116451,,,,,,,,,,,,,,,,,,,,PF,3,strong,,,,,,,,5,1.119,,,,,,,,,,,,,,,,,,,,,,,,,,,,6,strong,104,-43,1,0,0,response3disk,1,168,27,-17,1,0,0,rectangle,27,-17,1,0,0,6,1,0.001,27,-17,1,0,0,0,5,5,5,1,0,,,,,,,,,,,,,,,,,,,,,
,,,,,,,,,,,,,,,,,,,,,,,,,,,,,,,,,,,,,,,,,,5f549d6faee775809d6f5a33,606a10ee0223ae9d59fc388c,2021-04-04_21h19.41.804,Colour_Similarity_Experiment,2020.2.10,Win32,60,60675255c767bca6388caeee,17.13461538,16.7116451,16.68465909,16.72274882,16.71118531,16.7116451,,,,,,,,,,,,,,,,,,,,PF,3,strong,,,,,,,,5,1.502,,,,,,,,,,,,,,,,,,,,,,,,,,,,3,strong,100,-57,1,0,0,response3disk,4,169,32,5,1,0,0,rectangle,32,5,1,0,0,6,4,0.001,32,5,1,0,0,0,6,6,110,1,0,,,,,,,,,,,,,,,,,,,,,
,,,,,,,,,,,,,,,,,,,,,,,,,,,,,,,,,,,,,,,,,,5f549d6faee775809d6f5a33,606a10ee0223ae9d59fc388c,2021-04-04_21h19.41.804,Colour_Similarity_Experiment,2020.2.10,Win32,60,60675255c767bca6388caeee,17.13461538,16.7116451,16.68465909,16.72274882,16.71118531,16.7116451,,,,,,,,,,,,,,,,,,,,PF,3,strong,,,,,,,,6,1.001,,,,,,,,,,,,,,,,,,,,,,,,,,,,5,strong,116,49,1,0,0,response1disk,9,170,35,9,1,0,0,rectangle,35,9,1,0,0,6,1,0.001,35,9,1,0,0,0,7,7,61,1,0,,,,,,,,,,,,,,,,,,,,,
,,,,,,,,,,,,,,,,,,,,,,,,,,,,,,,,,,,,,,,,,,5f549d6faee775809d6f5a33,606a10ee0223ae9d59fc388c,2021-04-04_21h19.41.804,Colour_Similarity_Experiment,2020.2.10,Win32,60,60675255c767bca6388caeee,17.13461538,16.7116451,16.68465909,16.72274882,16.71118531,16.7116451,,,,,,,,,,,,,,,,,,,,PF,3,strong,,,,,,,,7,1.017,,,,,,,,,,,,,,,,,,,,,,,,,,,,9,strong,46,99,1,0,0,response1disk,7,171,14,18,1,0,0,rectangle,14,18,1,0,0,6,3,0.001,14,18,1,0,0,0,8,8,100,1,0,,,,,,,,,,,,,,,,,,,,,
,,,,,,,,,,,,,,,,,,,,,,,,,,,,,,,,,,,,,,,,,,5f549d6faee775809d6f5a33,606a10ee0223ae9d59fc388c,2021-04-04_21h19.41.804,Colour_Similarity_Experiment,2020.2.10,Win32,60,60675255c767bca6388caeee,17.13461538,16.7116451,16.68465909,16.72274882,16.71118531,16.7116451,,,,,,,,,,,,,,,,,,,,PF,3,strong,,,,,,,,3,1.619,,,,,,,,,,,,,,,,,,,,,,,,,,,,5,strong,-33,-111,1,0,0,response5disk,3,172,0,-9,1,0,0,rectangle,0,-9,1,0,0,6,0,0.001,0,-9,1,0,0,0,9,9,25,1,0,,,,,,,,,,,,,,,,,,,,,
,,,,,,,,,,,,,,,,,,,,,,,,,,,,,,,,,,,,,,,,,,5f549d6faee775809d6f5a33,606a10ee0223ae9d59fc388c,2021-04-04_21h19.41.804,Colour_Similarity_Experiment,2020.2.10,Win32,60,60675255c767bca6388caeee,17.13461538,16.7116451,16.68465909,16.72274882,16.71118531,16.7116451,,,,,,,,,,,,,,,,,,,,PF,3,weak,,,,,,,,6,1.635,,,,,,,,,,,,,,,,,,,,,,,,,,,,8,weak,105,54,1,0,0,response1disk,1,173,39,6,1,0,0,rectangle,39,6,1,0,0,6,3,0.001,39,6,1,0,0,0,10,10,57,1,0,,,,,,,,,,,,,,,,,,,,,
,,,,,,,,,,,,,,,,,,,,,,,,,,,,,,,,,,,,,,,,,,5f549d6faee775809d6f5a33,606a10ee0223ae9d59fc388c,2021-04-04_21h19.41.804,Colour_Similarity_Experiment,2020.2.10,Win32,60,60675255c767bca6388caeee,17.13461538,16.7116451,16.68465909,16.72274882,16.71118531,16.7116451,,,,,,,,,,,,,,,,,,,,PF,3,strong,,,,,,,,7,1.451,,,,,,,,,,,,,,,,,,,,,,,,,,,,8,strong,49,116,1,0,0,response1disk,7,174,19,8,1,0,0,rectangle,19,8,1,0,0,6,6,0,19,8,1,0,0,0,11,11,86,1,0,,,,,,,,,,,,,,,,,,,,,
,,,,,,,,,,,,,,,,,,,,,,,,,,,,,,,,,,,,,,,,,,5f549d6faee775809d6f5a33,606a10ee0223ae9d59fc388c,2021-04-04_21h19.41.804,Colour_Similarity_Experiment,2020.2.10,Win32,60,60675255c767bca6388caeee,17.13461538,16.7116451,16.68465909,16.72274882,16.71118531,16.7116451,,,,,,,,,,,,,,,,,,,,PF,3,weak,,,,,,,,7,1.001,,,,,,,,,,,,,,,,,,,,,,,,,,,,7,weak,89,138,1,0,0,response1disk,1,175,31,9,1,0,0,rectangle,31,9,1,0,0,6,4,0,31,9,1,0,0,0,12,12,53,1,0,,,,,,,,,,,,,,,,,,,,,
,,,,,,,,,,,,,,,,,,,,,,,,,,,,,,,,,,,,,,,,,,5f549d6faee775809d6f5a33,606a10ee0223ae9d59fc388c,2021-04-04_21h19.41.804,Colour_Similarity_Experiment,2020.2.10,Win32,60,60675255c767bca6388caeee,17.13461538,16.7116451,16.68465909,16.72274882,16.71118531,16.7116451,,,,,,,,,,,,,,,,,,,,PF,3,strong,,,,,,,,4,1.151,,,,,,,,,,,,,,,,,,,,,,,,,,,,2,strong,60,-89,1,0,0,response3disk,5,176,21,-18,1,0,0,rectangle,21,-18,1,0,0,6,6,0,21,-18,1,0,0,0,13,13,80,1,0,,,,,,,,,,,,,,,,,,,,,
,,,,,,,,,,,,,,,,,,,,,,,,,,,,,,,,,,,,,,,,,,5f549d6faee775809d6f5a33,606a10ee0223ae9d59fc388c,2021-04-04_21h19.41.804,Colour_Similarity_Experiment,2020.2.10,Win32,60,60675255c767bca6388caeee,17.13461538,16.7116451,16.68465909,16.72274882,16.71118531,16.7116451,,,,,,,,,,,,,,,,,,,,PF,3,weak,,,,,,,,6,1.001,,,,,,,,,,,,,,,,,,,,,,,,,,,,2,weak,94,29,1,0,0,response1disk,1,177,27,-14,1,0,0,rectangle,27,-14,1,0,0,6,3,0,27,-14,1,0,0,0,14,14,9,1,0,,,,,,,,,,,,,,,,,,,,,
,,,,,,,,,,,,,,,,,,,,,,,,,,,,,,,,,,,,,,,,,,5f549d6faee775809d6f5a33,606a10ee0223ae9d59fc388c,2021-04-04_21h19.41.804,Colour_Similarity_Experiment,2020.2.10,Win32,60,60675255c767bca6388caeee,17.13461538,16.7116451,16.68465909,16.72274882,16.71118531,16.7116451,,,,,,,,,,,,,,,,,,,,PF,3,weak,,,,,,,,3,1.251,,,,,,,,,,,,,,,,,,,,,,,,,,,,6,weak,-42,-84,1,0,0,response5disk,7,178,11,3,1,0,0,rectangle,11,3,1,0,0,6,7,0,11,3,1,0,0,0,15,15,50,1,0,,,,,,,,,,,,,,,,,,,,,
,,,,,,,,,,,,,,,,,,,,,,,,,,,,,,,,,,,,,,,,,,5f549d6faee775809d6f5a33,606a10ee0223ae9d59fc388c,2021-04-04_21h19.41.804,Colour_Similarity_Experiment,2020.2.10,Win32,60,60675255c767bca6388caeee,17.13461538,16.7116451,16.68465909,16.72274882,16.71118531,16.7116451,,,,,,,,,,,,,,,,,,,,PF,3,weak,,,,,,,,0,0.918,,,,,,,,,,,,,,,,,,,,,,,,,,,,1,weak,-70,111,1,0,0,response7disk,1,179,-47,4,1,0,0,rectangle,139,38,1,0,0,6,6,1.184,11,3,1,0,0,0,16,16,76,1,1,response1disk_3,rectangle,,,,,,,,,,,,,,,,,,,
,,,,,,,,,,,,,,,,,,,,,,,,,,,,,,,,,,,,,,,,,,5f549d6faee775809d6f5a33,606a10ee0223ae9d59fc388c,2021-04-04_21h19.41.804,Colour_Similarity_Experiment,2020.2.10,Win32,60,60675255c767bca6388caeee,17.13461538,16.7116451,16.68465909,16.72274882,16.71118531,16.7116451,,,,,,,,,,,,,,,,,,,,PF,3,weak,,,,,,,,6,1.969,,,,,,,,,,,,,,,,,,,,,,,,,,,,9,weak,108,58,1,0,0,response1disk,7,180,43,-2,1,0,0,rectangle,43,-2,1,0,0,6,3,0.001,43,-2,1,0,0,0,17,17,121,1,0,,,,,,,,,,,,,,,,,,,,,
,,,,,,,,,,,,,,,,,,,,,,,,,,,,,,,,,,,,,,,,,,5f549d6faee775809d6f5a33,606a10ee0223ae9d59fc388c,2021-04-04_21h19.41.804,Colour_Similarity_Experiment,2020.2.10,Win32,60,60675255c767bca6388caeee,17.13461538,16.7116451,16.68465909,16.72274882,16.71118531,16.7116451,,,,,,,,,,,,,,,,,,,,PF,3,weak,,,,,,,,3,1.084,,,,,,,,,,,,,,,,,,,,,,,,,,,,4,weak,-52,-89,1,0,0,response5disk,3,181,-20,-15,1,0,0,rectangle,-20,-15,1,0,0,6,4,0.001,-20,-15,1,0,0,0,18,18,89,1,0,,,,,,,,,,,,,,,,,,,,,
,,,,,,,,,,,,,,,,,,,,,,,,,,,,,,,,,,,,,,,,,,5f549d6faee775809d6f5a33,606a10ee0223ae9d59fc388c,2021-04-04_21h19.41.804,Colour_Similarity_Experiment,2020.2.10,Win32,60,60675255c767bca6388caeee,17.13461538,16.7116451,16.68465909,16.72274882,16.71118531,16.7116451,,,,,,,,,,,,,,,,,,,,PF,3,strong,,,,,,,,2,0.817,,,,,,,,,,,,,,,,,,,,,,,,,,,,5,strong,-53,-41,1,0,0,response5disk,6,182,-17,0,1,0,0,rectangle,-17,0,1,0,0,6,6,0,-17,0,1,0,0,0,19,19,12,1,0,,,,,,,,,,,,,,,,,,,,,
,,,,,,,,,,,,,,,,,,,,,,,,,,,,,,,,,,,,,,,,,,5f549d6faee775809d6f5a33,606a10ee0223ae9d59fc388c,2021-04-04_21h19.41.804,Colour_Similarity_Experiment,2020.2.10,Win32,60,60675255c767bca6388caeee,17.13461538,16.7116451,16.68465909,16.72274882,16.71118531,16.7116451,,,,,,,,,,,,,,,,,,,,PF,3,strong,,,,,,,,6,1.018,,,,,,,,,,,,,,,,,,,,,,,,,,,,2,strong,92,38,1,0,0,response1disk,6,183,18,-12,1,0,0,rectangle,18,-12,1,0,0,6,1,0.001,18,-12,1,0,0,0,20,20,40,1,0,,,,,,,,,,,,,,,,,,,,,
,,,,,,,,,,,,,,,,,,,,,,,,,,,,,,,,,,,,,,,,,,5f549d6faee775809d6f5a33,606a10ee0223ae9d59fc388c,2021-04-04_21h19.41.804,Colour_Similarity_Experiment,2020.2.10,Win32,60,60675255c767bca6388caeee,17.13461538,16.7116451,16.68465909,16.72274882,16.71118531,16.7116451,,,,,,,,,,,,,,,,,,,,PF,3,strong,,,,,,,,6,1.268,,,,,,,,,,,,,,,,,,,,,,,,,,,,9,strong,73,43,1,0,0,response1disk,4,184,-7,-13,1,0,0,rectangle,-7,-13,1,0,0,6,7,0,-7,-13,1,0,0,0,21,21,60,1,0,,,,,,,,,,,,,,,,,,,,,
,,,,,,,,,,,,,,,,,,,,,,,,,,,,,,,,,,,,,,,,,,5f549d6faee775809d6f5a33,606a10ee0223ae9d59fc388c,2021-04-04_21h19.41.804,Colour_Similarity_Experiment,2020.2.10,Win32,60,60675255c767bca6388caeee,17.13461538,16.7116451,16.68465909,16.72274882,16.71118531,16.7116451,,,,,,,,,,,,,,,,,,,,PF,3,strong,,,,,,,,5,1.135,,,,,,,,,,,,,,,,,,,,,,,,,,,,6,strong,111,-42,1,0,0,response3disk,9,185,-16,-5,1,0,0,rectangle,-70,-37,1,0,0,6,2,1.385,-22,-13,1,0,0,0,22,22,160,1,1,response5disk_3,rectangle,,,,,,,,,,,,,,,,,,,
,,,,,,,,,,,,,,,,,,,,,,,,,,,,,,,,,,,,,,,,,,5f549d6faee775809d6f5a33,606a10ee0223ae9d59fc388c,2021-04-04_21h19.41.804,Colour_Similarity_Experiment,2020.2.10,Win32,60,60675255c767bca6388caeee,17.13461538,16.7116451,16.68465909,16.72274882,16.71118531,16.7116451,,,,,,,,,,,,,,,,,,,,PF,3,strong,,,,,,,,6,1.101,,,,,,,,,,,,,,,,,,,,,,,,,,,,3,strong,80,48,1,0,0,response1disk,9,186,16,1,1,0,0,rectangle,16,1,1,0,0,6,4,0.001,16,1,1,0,0,0,23,23,143,1,0,,,,,,,,,,,,,,,,,,,,,
,,,,,,,,,,,,,,,,,,,,,,,,,,,,,,,,,,,,,,,,,,5f549d6faee775809d6f5a33,606a10ee0223ae9d59fc388c,2021-04-04_21h19.41.804,Colour_Similarity_Experiment,2020.2.10,Win32,60,60675255c767bca6388caeee,17.13461538,16.7116451,16.68465909,16.72274882,16.71118531,16.7116451,,,,,,,,,,,,,,,,,,,,PF,3,weak,,,,,,,,4,1.435,,,,,,,,,,,,,,,,,,,,,,,,,,,,3,weak,33,-81,1,0,0,response3disk,5,187,1,-12,1,0,0,rectangle,1,-12,1,0,0,6,1,0.001,1,-12,1,0,0,0,24,24,66,1,0,,,,,,,,,,,,,,,,,,,,,
,,,,,,,,,,,,,,,,,,,,,,,,,,,,,,,,,,,,,,,,,,5f549d6faee775809d6f5a33,606a10ee0223ae9d59fc388c,2021-04-04_21h19.41.804,Colour_Similarity_Experiment,2020.2.10,Win32,60,60675255c767bca6388caeee,17.13461538,16.7116451,16.68465909,16.72274882,16.71118531,16.7116451,,,,,,,,,,,,,,,,,,,,PF,3,weak,,,,,,,,0,0.85,,,,,,,,,,,,,,,,,,,,,,,,,,,,6,weak,-24,80,1,0,0,response7disk,5,188,10,-11,1,0,0,rectangle,10,-11,1,0,0,6,5,0.001,10,-11,1,0,0,0,25,25,59,1,0,,,,,,,,,,,,,,,,,,,,,
,,,,,,,,,,,,,,,,,,,,,,,,,,,,,,,,,,,,,,,,,,5f549d6faee775809d6f5a33,606a10ee0223ae9d59fc388c,2021-04-04_21h19.41.804,Colour_Similarity_Experiment,2020.2.10,Win32,60,60675255c767bca6388caeee,17.13461538,16.7116451,16.68465909,16.72274882,16.71118531,16.7116451,,,,,,,,,,,,,,,,,,,,PF,3,strong,,,,,,,,0,0.967,,,,,,,,,,,,,,,,,,,,,,,,,,,,8,strong,-42,95,1,0,0,response7disk,9,189,9,0,1,0,0,rectangle,9,0,1,0,0,6,3,0.001,9,0,1,0,0,0,26,26,105,1,0,,,,,,,,,,,,,,,,,,,,,
,,,,,,,,,,,,,,,,,,,,,,,,,,,,,,,,,,,,,,,,,,5f549d6faee775809d6f5a33,606a10ee0223ae9d59fc388c,2021-04-04_21h19.41.804,Colour_Similarity_Experiment,2020.2.10,Win32,60,60675255c767bca6388caeee,17.13461538,16.7116451,16.68465909,16.72274882,16.71118531,16.7116451,,,,,,,,,,,,,,,,,,,,PF,3,strong,,,,,,,,6,1.285,,,,,,,,,,,,,,,,,,,,,,,,,,,,7,strong,137,43,1,0,0,response1disk,2,190,37,-11,1,0,0,rectangle,37,-11,1,0,0,6,0,0.001,37,-11,1,0,0,0,27,27,138,1,0,,,,,,,,,,,,,,,,,,,,,
,,,,,,,,,,,,,,,,,,,,,,,,,,,,,,,,,,,,,,,,,,5f549d6faee775809d6f5a33,606a10ee0223ae9d59fc388c,2021-04-04_21h19.41.804,Colour_Similarity_Experiment,2020.2.10,Win32,60,60675255c767bca6388caeee,17.13461538,16.7116451,16.68465909,16.72274882,16.71118531,16.7116451,,,,,,,,,,,,,,,,,,,,PF,3,weak,,,,,,,,3,1.735,,,,,,,,,,,,,,,,,,,,,,,,,,,,7,weak,-23,-56,1,0,0,response5disk,3,191,1,-7,1,0,0,rectangle,1,-7,1,0,0,6,3,0.001,1,-7,1,0,0,0,28,28,81,1,0,,,,,,,,,,,,,,,,,,,,,
,,,,,,,,,,,,,,,,,,,,,,,,,,,,,,,,,,,,,,,,,,5f549d6faee775809d6f5a33,606a10ee0223ae9d59fc388c,2021-04-04_21h19.41.804,Colour_Similarity_Experiment,2020.2.10,Win32,60,60675255c767bca6388caeee,17.13461538,16.7116451,16.68465909,16.72274882,16.71118531,16.7116451,,,,,,,,,,,,,,,,,,,,PF,3,weak,,,,,,,,0,0.85,,,,,,,,,,,,,,,,,,,,,,,,,,,,7,weak,-76,129,1,0,0,response7disk,7,192,-17,18,1,0,0,rectangle,-17,18,1,0,0,6,5,0,-17,18,1,0,0,0,29,29,51,1,0,,,,,,,,,,,,,,,,,,,,,
,,,,,,,,,,,,,,,,,,,,,,,,,,,,,,,,,,,,,,,,,,5f549d6faee775809d6f5a33,606a10ee0223ae9d59fc388c,2021-04-04_21h19.41.804,Colour_Similarity_Experiment,2020.2.10,Win32,60,60675255c767bca6388caeee,17.13461538,16.7116451,16.68465909,16.72274882,16.71118531,16.7116451,,,,,,,,,,,,,,,,,,,,PF,3,strong,,,,,,,,5,2.236,,,,,,,,,,,,,,,,,,,,,,,,,,,,8,strong,89,-39,1,0,0,response3disk,2,193,15,-16,1,0,0,rectangle,15,-16,1,0,0,6,3,0,15,-16,1,0,0,0,30,30,22,1,0,,,,,,,,,,,,,,,,,,,,,
,,,,,,,,,,,,,,,,,,,,,,,,,,,,,,,,,,,,,,,,,,5f549d6faee775809d6f5a33,606a10ee0223ae9d59fc388c,2021-04-04_21h19.41.804,Colour_Similarity_Experiment,2020.2.10,Win32,60,60675255c767bca6388caeee,17.13461538,16.7116451,16.68465909,16.72274882,16.71118531,16.7116451,,,,,,,,,,,,,,,,,,,,PF,3,weak,,,,,,,,6,1.401,,,,,,,,,,,,,,,,,,,,,,,,,,,,1,weak,112,37,1,0,0,response1disk,3,194,-2,-12,1,0,0,rectangle,-2,-12,1,0,0,6,0,0,-2,-12,1,0,0,0,31,31,1,1,0,,,,,,,,,,,,,,,,,,,,,
,,,,,,,,,,,,,,,,,,,,,,,,,,,,,,,,,,,,,,,,,,5f549d6faee775809d6f5a33,606a10ee0223ae9d59fc388c,2021-04-04_21h19.41.804,Colour_Similarity_Experiment,2020.2.10,Win32,60,60675255c767bca6388caeee,17.13461538,16.7116451,16.68465909,16.72274882,16.71118531,16.7116451,,,,,,,,,,,,,,,,,,,,PF,3,strong,,,,,,,,7,1.201,,,,,,,,,,,,,,,,,,,,,,,,,,,,5,strong,53,87,1,0,0,response1disk,1,195,4,1,1,0,0,rectangle,4,1,1,0,0,6,3,0.001,4,1,1,0,0,0,32,32,131,1,0,,,,,,,,,,,,,,,,,,,,,
,,,,,,,,,,,,,,,,,,,,,,,,,,,,,,,,,,,,,,,,,,5f549d6faee775809d6f5a33,606a10ee0223ae9d59fc388c,2021-04-04_21h19.41.804,Colour_Similarity_Experiment,2020.2.10,Win32,60,60675255c767bca6388caeee,17.13461538,16.7116451,16.68465909,16.72274882,16.71118531,16.7116451,,,,,,,,,,,,,,,,,,,,PF,3,weak,,,,,,,,5,1.318,,,,,,,,,,,,,,,,,,,,,,,,,,,,9,weak,119,-88,1,0,0,response3disk,4,196,1,-16,1,0,0,rectangle,1,-16,1,0,0,6,2,0,1,-16,1,0,0,0,33,33,114,1,0,,,,,,,,,,,,,,,,,,,,,
,,,,,,,,,,,,,,,,,,,,,,,,,,,,,,,,,,,,,,,,,,5f549d6faee775809d6f5a33,606a10ee0223ae9d59fc388c,2021-04-04_21h19.41.804,Colour_Similarity_Experiment,2020.2.10,Win32,60,60675255c767bca6388caeee,17.13461538,16.7116451,16.68465909,16.72274882,16.71118531,16.7116451,,,,,,,,,,,,,,,,,,,,PF,3,weak,,,,,,,,6,1.017,,,,,,,,,,,,,,,,,,,,,,,,,,,,9,weak,138,44,1,0,0,response1disk,6,197,0,9,1,0,0,rectangle,0,9,1,0,0,6,4,0,0,9,1,0,0,0,34,34,148,1,0,,,,,,,,,,,,,,,,,,,,,
,,,,,,,,,,,,,,,,,,,,,,,,,,,,,,,,,,,,,,,,,,5f549d6faee775809d6f5a33,606a10ee0223ae9d59fc388c,2021-04-04_21h19.41.804,Colour_Similarity_Experiment,2020.2.10,Win32,60,60675255c767bca6388caeee,17.13461538,16.7116451,16.68465909,16.72274882,16.71118531,16.7116451,,,,,,,,,,,,,,,,,,,,PF,3,strong,,,,,,,,4,1.419,,,,,,,,,,,,,,,,,,,,,,,,,,,,9,strong,65,-89,1,0,0,response3disk,2,198,1,-19,1,0,0,rectangle,-55,110,1,0,0,0,0,1.235,-7,2,1,0,0,0,35,35,11,1,1,response7disk_3,rectangle,,,,,,,,,,,,,,,,,,,
