key_resp.keys,key_resp.rt,key_resp_16.keys,key_resp_16.rt,key_resp_2.keys,key_resp_2.rt,X Scale,ratio_pxpermm,screen_size_x,screen_size_y,testsize,key_resp_3.keys,key_resp_4.keys,key_resp_4.rt,line_size,key_resp_5.keys,key_resp_5.rt,key_resp_6.keys,key_resp_6.rt,key_resp_8.keys,key_resp_8.rt,key_resp_7.keys,key_resp_7.rt,key_resp_12.keys,key_resp_12.rt,key_resp_11.keys,key_resp_11.rt,key_resp_18.keys,key_resp_18.rt,key_resp_21.keys,key_resp_21.rt,key_resp_13.keys,key_resp_13.rt,key_resp_19.keys,key_resp_19.rt,ballposx,viewer_distance,trials.thisRepN,trials.thisTrialN,trials.thisN,trials.thisIndex,trials.ran,participant,session,date,expName,psychopyVersion,OS,frameRate,study_id,realFrameRate1,realFrameRate2,realFrameRate3,realFrameRate4,realFrameRate5,realFrameRate,viewerdistancecm,DVA_to_distance,radius_F,radius_P,r_F,R_P,key_resp_20.keys,key_resp_20.rt,key_resp_14.keys,key_resp_14.rt,key_resp_15.keys,key_resp_15.rt,key_resp_17.keys,key_resp_17.rt,key_resp_9.keys,key_resp_9.rt,key_resp_10.keys,key_resp_10.rt,Colour_1,Ecc,mask_frames,maskCon,mouse_5.x,mouse_5.y,mouse_5.leftButton,mouse_5.midButton,mouse_5.rightButton,mouse_5.clicked_name,Colour_2,similarity,response_time,mouse_10.x,mouse_10.y,mouse_10.leftButton,mouse_10.midButton,mouse_10.rightButton,mouse_10.clicked_name,mouse_7.x,mouse_7.y,mouse_7.leftButton,mouse_7.midButton,mouse_7.rightButton,catchnumberprac,mouse_6.x,mouse_6.y,mouse_6.leftButton,mouse_6.midButton,mouse_6.rightButton,duringprac.thisRepN,duringprac.thisTrialN,duringprac.thisN,duringprac.thisIndex,duringprac.ran,mouse_7.clicked_name,catchprac,mouse_6.clicked_name,key_resp_22.keys,key_resp_22.rt,Colour1,maskCon1,mouse.x,mouse.y,mouse.leftButton,mouse.midButton,mouse.rightButton,mouse.clicked_name,Colour2,trialnumber,mouse_2.x,mouse_2.y,mouse_2.leftButton,mouse_2.midButton,mouse_2.rightButton,mouse_2.clicked_name,mouse_3.x,mouse_3.y,mouse_3.leftButton,mouse_3.midButton,mouse_3.rightButton,catchresponse,catchnumber,response_time_catch,mouse_11.x,mouse_11.y,mouse_11.leftButton,mouse_11.midButton,mouse_11.rightButton,trials_2.thisRepN,trials_2.thisTrialN,trials_2.thisN,trials_2.thisIndex,trials_2.ran,Catch,mouse_3.clicked_name,mouse_11.clicked_name,trials_3.thisRepN,trials_3.thisTrialN,trials_3.thisN,trials_3.thisIndex,trials_3.ran,answer1,rt1,answer2,rt2,answer3,rt3,answer4,rt4,answer5,rt5,answer6,rt6,answer7,rt7
space,3.234,space,18.215,space,11.296,45,4.5,303.5555556,170.6666667,1366,,space,14.623,90,space,14.153,space,7.77,space,4.107,space,7.768,space,11.589,space,18.886,space,16.494,space,13.039,space,8.021,return,6.743,-262.272,748.5250102,0,0,0,0,1,5f5d2e274cddcc56953ae1ba,606a0f9794e12677aa85eeca,2021-04-04_15h12.37.481,Colour_Similarity_Experiment,2020.2.10,Win32,60,60675255c767bca6388caeee,19.52592593,19.75974026,17.85254692,18.08754624,18.10526316,18.10526316,,,,,,,,,,,,,,,,,,,,,,,,,,,,,,,,,,,,,,,,,,,,,,,,,,,,,,,,,,,,,,,,,,,,,,,,,,,,,,,,,,,,,,,,,,,,,,,,,,,,,,,,,,,,,,,,,,
,,,,,,,,,,,,,,,,,,,,,,,,,,,,,,,,,return,6.692,-249.978,737.145407,1,0,1,0,1,5f5d2e274cddcc56953ae1ba,606a0f9794e12677aa85eeca,2021-04-04_15h12.37.481,Colour_Similarity_Experiment,2020.2.10,Win32,60,60675255c767bca6388caeee,19.52592593,19.75974026,17.85254692,18.08754624,18.10526316,18.10526316,,,,,,,,,,,,,,,,,,,,,,,,,,,,,,,,,,,,,,,,,,,,,,,,,,,,,,,,,,,,,,,,,,,,,,,,,,,,,,,,,,,,,,,,,,,,,,,,,,,,,,,,,,,,,,,,,,
,,,,,,,,,,,,,,,,,,,,,,,,,,,,,,,,,return,6.313,-221.292,710.5929995,2,0,2,0,1,5f5d2e274cddcc56953ae1ba,606a0f9794e12677aa85eeca,2021-04-04_15h12.37.481,Colour_Similarity_Experiment,2020.2.10,Win32,60,60675255c767bca6388caeee,19.52592593,19.75974026,17.85254692,18.08754624,18.10526316,18.10526316,,,,,,,,,,,,,,,,,,,,,,,,,,,,,,,,,,,,,,,,,,,,,,,,,,,,,,,,,,,,,,,,,,,,,,,,,,,,,,,,,,,,,,,,,,,,,,,,,,,,,,,,,,,,,,,,,,
,,,,,,,,,,,,,,,,,,,,,,,,,,,,,,,,,return,6.653,-239.733,727.6624043,3,0,3,0,1,5f5d2e274cddcc56953ae1ba,606a0f9794e12677aa85eeca,2021-04-04_15h12.37.481,Colour_Similarity_Experiment,2020.2.10,Win32,60,60675255c767bca6388caeee,19.52592593,19.75974026,17.85254692,18.08754624,18.10526316,18.10526316,,,,,,,,,,,,,,,,,,,,,,,,,,,,,,,,,,,,,,,,,,,,,,,,,,,,,,,,,,,,,,,,,,,,,,,,,,,,,,,,,,,,,,,,,,,,,,,,,,,,,,,,,,,,,,,,,,
,,,,,,,,,,,,,,,,,,,,,,,,,,,,,,,,,return,6.225,-202.851,693.5235947,4,0,4,0,1,5f5d2e274cddcc56953ae1ba,606a0f9794e12677aa85eeca,2021-04-04_15h12.37.481,Colour_Similarity_Experiment,2020.2.10,Win32,60,60675255c767bca6388caeee,19.52592593,19.75974026,17.85254692,18.08754624,18.10526316,18.10526316,,,,,,,,,,,,,,,,,,,,,,,,,,,,,,,,,,,,,,,,,,,,,,,,,,,,,,,,,,,,,,,,,,,,,,,,,,,,,,,,,,,,,,,,,,,,,,,,,,,,,,,,,,,,,,,,,,
,,,,,,,,,,,,,,,,,,,,,,,,,,,,,,,,,,,,,,,,,,5f5d2e274cddcc56953ae1ba,606a0f9794e12677aa85eeca,2021-04-04_15h12.37.481,Colour_Similarity_Experiment,2020.2.10,Win32,60,60675255c767bca6388caeee,19.52592593,19.75974026,17.85254692,18.08754624,18.10526316,18.10526316,73,12.74219284,86.00980167,573.3986778,57.33986778,258.029405,space,6.441,space,170.226,space,26.262,space,29.466,space,4.756,space,5.512,4,PF,3,weak,-116,-68,1,0,0,response5disk_5,2,2,14.995,-12,-2,1,0,0,rectangle_8,-12,-2,1,0,0,0,-12,-2,1,0,0,0,0,0,4,1,,,,,,,,,,,,,,,,,,,,,,,,,,,,,,,,,,,,,,,,,,,,,,,,,,,,,,,,,,,,,
,,,,,,,,,,,,,,,,,,,,,,,,,,,,,,,,,,,,,,,,,,5f5d2e274cddcc56953ae1ba,606a0f9794e12677aa85eeca,2021-04-04_15h12.37.481,Colour_Similarity_Experiment,2020.2.10,Win32,60,60675255c767bca6388caeee,19.52592593,19.75974026,17.85254692,18.08754624,18.10526316,18.10526316,,,,,,,,,,,,,,,,,,,7,PF,3,weak,120,48,1,0,0,response1disk_5,3,6,9.61,-16,-4,1,0,0,rectangle_8,-30,62,1,0,0,0,14,4,1,0,0,0,1,1,6,1,response7disk_7,0,rectangle_4,,,,,,,,,,,,,,,,,,,,,,,,,,,,,,,,,,,,,,,,,,,,,,,,,,,,,,,,,,
,,,,,,,,,,,,,,,,,,,,,,,,,,,,,,,,,,,,,,,,,,5f5d2e274cddcc56953ae1ba,606a0f9794e12677aa85eeca,2021-04-04_15h12.37.481,Colour_Similarity_Experiment,2020.2.10,Win32,60,60675255c767bca6388caeee,19.52592593,19.75974026,17.85254692,18.08754624,18.10526316,18.10526316,,,,,,,,,,,,,,,,,,,7,PF,3,strong,76,-118,1,0,0,response3disk_5,3,4,2.8,-6,-7,1,0,0,rectangle_8,-34,81,1,0,0,0,-6,-3,1,0,0,0,2,2,3,1,response7disk_7,0,rectangle_4,,,,,,,,,,,,,,,,,,,,,,,,,,,,,,,,,,,,,,,,,,,,,,,,,,,,,,,,,,
,,,,,,,,,,,,,,,,,,,,,,,,,,,,,,,,,,,,,,,,,,5f5d2e274cddcc56953ae1ba,606a0f9794e12677aa85eeca,2021-04-04_15h12.37.481,Colour_Similarity_Experiment,2020.2.10,Win32,60,60675255c767bca6388caeee,19.52592593,19.75974026,17.85254692,18.08754624,18.10526316,18.10526316,,,,,,,,,,,,,,,,,,,6,PF,3,weak,104,85,1,0,0,response1disk_5,6,6,2.85,4,9,1,0,0,rectangle_8,4,9,1,0,0,0,4,9,1,0,0,0,3,3,1,1,,,,,,,,,,,,,,,,,,,,,,,,,,,,,,,,,,,,,,,,,,,,,,,,,,,,,,,,,,,,,
,,,,,,,,,,,,,,,,,,,,,,,,,,,,,,,,,,,,,,,,,,5f5d2e274cddcc56953ae1ba,606a0f9794e12677aa85eeca,2021-04-04_15h12.37.481,Colour_Similarity_Experiment,2020.2.10,Win32,60,60675255c767bca6388caeee,19.52592593,19.75974026,17.85254692,18.08754624,18.10526316,18.10526316,,,,,,,,,,,,,,,,,,,4,PF,3,strong,48,89,1,0,0,response1disk_5,9,7,15.248,6,15,1,0,0,rectangle_8,6,15,1,0,0,0,6,15,1,0,0,0,4,4,0,1,,,,,,,,,,,,,,,,,,,,,,,,,,,,,,,,,,,,,,,,,,,,,,,,,,,,,,,,,,,,,
,,,,,,,,,,,,,,,,,,,,,,,,,,,,,,,,,,,,,,,,,,5f5d2e274cddcc56953ae1ba,606a0f9794e12677aa85eeca,2021-04-04_15h12.37.481,Colour_Similarity_Experiment,2020.2.10,Win32,60,60675255c767bca6388caeee,19.52592593,19.75974026,17.85254692,18.08754624,18.10526316,18.10526316,,,,,,,,,,,,,,,,,,,3,PF,3,weak,38,75,1,0,0,response1disk_5,7,7,6.221,4,15,1,0,0,rectangle_8,4,15,1,0,0,0,4,15,1,0,0,0,5,5,5,1,,,,,,,,,,,,,,,,,,,,,,,,,,,,,,,,,,,,,,,,,,,,,,,,,,,,,,,,,,,,,
,,,,,,,,,,,,,,,,,,,,,,,,,,,,,,,,,,,,,,,,,,5f5d2e274cddcc56953ae1ba,606a0f9794e12677aa85eeca,2021-04-04_15h12.37.481,Colour_Similarity_Experiment,2020.2.10,Win32,60,60675255c767bca6388caeee,19.52592593,19.75974026,17.85254692,18.08754624,18.10526316,18.10526316,,,,,,,,,,,,,,,,,,,4,PF,3,strong,-76,39,1,0,0,response7disk_5,8,1,3.6,-2,-1,1,0,0,rectangle_8,-2,-1,1,0,0,0,-2,-1,1,0,0,0,6,6,2,1,,,,,,,,,,,,,,,,,,,,,,,,,,,,,,,,,,,,,,,,,,,,,,,,,,,,,,,,,,,,,
,,,,,,,,,,,,,,,,,,,,,,,,,,,,,,,,,,,,,,,,,,5f5d2e274cddcc56953ae1ba,606a0f9794e12677aa85eeca,2021-04-04_15h12.37.481,Colour_Similarity_Experiment,2020.2.10,Win32,60,60675255c767bca6388caeee,19.52592593,19.75974026,17.85254692,18.08754624,18.10526316,18.10526316,,,,,,,,,,,,,,,,,,,,PF,3,weak,,,,,,,,7,2.783,,,,,,,,,,,,,,,,,,,,,,,,,,space,5.709,4,weak,42,85,1,0,0,response1disk,1,1,10,3,1,0,0,rectangle,10,3,1,0,0,,2,0.004,10,3,1,0,0,0,0,0,115,1,0,,,,,,,,,,,,,,,,,,,,,
,,,,,,,,,,,,,,,,,,,,,,,,,,,,,,,,,,,,,,,,,,5f5d2e274cddcc56953ae1ba,606a0f9794e12677aa85eeca,2021-04-04_15h12.37.481,Colour_Similarity_Experiment,2020.2.10,Win32,60,60675255c767bca6388caeee,19.52592593,19.75974026,17.85254692,18.08754624,18.10526316,18.10526316,,,,,,,,,,,,,,,,,,,,PF,3,weak,,,,,,,,6,6.142,,,,,,,,,,,,,,,,,,,,,,,,,,,,7,weak,68,29,1,0,0,response1disk,4,2,-10,7,1,0,0,rectangle,-10,7,1,0,0,,5,0.007,-10,7,1,0,0,0,1,1,43,1,0,,,,,,,,,,,,,,,,,,,,,
,,,,,,,,,,,,,,,,,,,,,,,,,,,,,,,,,,,,,,,,,,5f5d2e274cddcc56953ae1ba,606a0f9794e12677aa85eeca,2021-04-04_15h12.37.481,Colour_Similarity_Experiment,2020.2.10,Win32,60,60675255c767bca6388caeee,19.52592593,19.75974026,17.85254692,18.08754624,18.10526316,18.10526316,,,,,,,,,,,,,,,,,,,,PF,3,strong,,,,,,,,7,2.392,,,,,,,,,,,,,,,,,,,,,,,,,,,,3,strong,30,55,1,0,0,response1disk,6,3,12,7,1,0,0,rectangle,12,7,1,0,0,,6,0.002,12,7,1,0,0,0,2,2,95,1,0,,,,,,,,,,,,,,,,,,,,,
,,,,,,,,,,,,,,,,,,,,,,,,,,,,,,,,,,,,,,,,,,5f5d2e274cddcc56953ae1ba,606a0f9794e12677aa85eeca,2021-04-04_15h12.37.481,Colour_Similarity_Experiment,2020.2.10,Win32,60,60675255c767bca6388caeee,19.52592593,19.75974026,17.85254692,18.08754624,18.10526316,18.10526316,,,,,,,,,,,,,,,,,,,,PF,3,weak,,,,,,,,0,4.117,,,,,,,,,,,,,,,,,,,,,,,,,,,,3,weak,-40,83,1,0,0,response7disk,3,4,-2,-11,1,0,0,rectangle,-2,-11,1,0,0,,3,0.007,-2,-11,1,0,0,0,3,3,4,1,0,,,,,,,,,,,,,,,,,,,,,
,,,,,,,,,,,,,,,,,,,,,,,,,,,,,,,,,,,,,,,,,,5f5d2e274cddcc56953ae1ba,606a0f9794e12677aa85eeca,2021-04-04_15h12.37.481,Colour_Similarity_Experiment,2020.2.10,Win32,60,60675255c767bca6388caeee,19.52592593,19.75974026,17.85254692,18.08754624,18.10526316,18.10526316,,,,,,,,,,,,,,,,,,,,PF,3,strong,,,,,,,,7,2.186,,,,,,,,,,,,,,,,,,,,,,,,,,,,7,strong,58,61,1,0,0,response1disk,8,5,-2,7,1,0,0,rectangle,-24,71,1,0,0,0,0,1.899,-4,-11,1,0,0,0,4,4,97,1,1,response7disk_3,rectangle,,,,,,,,,,,,,,,,,,,
,,,,,,,,,,,,,,,,,,,,,,,,,,,,,,,,,,,,,,,,,,5f5d2e274cddcc56953ae1ba,606a0f9794e12677aa85eeca,2021-04-04_15h12.37.481,Colour_Similarity_Experiment,2020.2.10,Win32,60,60675255c767bca6388caeee,19.52592593,19.75974026,17.85254692,18.08754624,18.10526316,18.10526316,,,,,,,,,,,,,,,,,,,,PF,3,weak,,,,,,,,1,2.216,,,,,,,,,,,,,,,,,,,,,,,,,,,,9,weak,-82,49,1,0,0,response7disk,3,6,6,-1,1,0,0,rectangle,6,-1,1,0,0,0,3,0.002,6,-1,1,0,0,0,5,5,119,1,0,,,,,,,,,,,,,,,,,,,,,
,,,,,,,,,,,,,,,,,,,,,,,,,,,,,,,,,,,,,,,,,,5f5d2e274cddcc56953ae1ba,606a0f9794e12677aa85eeca,2021-04-04_15h12.37.481,Colour_Similarity_Experiment,2020.2.10,Win32,60,60675255c767bca6388caeee,19.52592593,19.75974026,17.85254692,18.08754624,18.10526316,18.10526316,,,,,,,,,,,,,,,,,,,,PF,3,weak,,,,,,,,2,2.758,,,,,,,,,,,,,,,,,,,,,,,,,,,,8,weak,-78,-67,1,0,0,response5disk,1,7,4,-11,1,0,0,rectangle,4,-11,1,0,0,0,6,0.007,4,-11,1,0,0,0,6,6,57,1,0,,,,,,,,,,,,,,,,,,,,,
,,,,,,,,,,,,,,,,,,,,,,,,,,,,,,,,,,,,,,,,,,5f5d2e274cddcc56953ae1ba,606a0f9794e12677aa85eeca,2021-04-04_15h12.37.481,Colour_Similarity_Experiment,2020.2.10,Win32,60,60675255c767bca6388caeee,19.52592593,19.75974026,17.85254692,18.08754624,18.10526316,18.10526316,,,,,,,,,,,,,,,,,,,,PF,3,weak,,,,,,,,1,3.216,,,,,,,,,,,,,,,,,,,,,,,,,,,,3,weak,-60,39,1,0,0,response7disk,1,8,-2,-9,1,0,0,rectangle,-2,-9,1,0,0,0,1,0.003,-2,-9,1,0,0,0,7,7,96,1,0,,,,,,,,,,,,,,,,,,,,,
,,,,,,,,,,,,,,,,,,,,,,,,,,,,,,,,,,,,,,,,,,5f5d2e274cddcc56953ae1ba,606a0f9794e12677aa85eeca,2021-04-04_15h12.37.481,Colour_Similarity_Experiment,2020.2.10,Win32,60,60675255c767bca6388caeee,19.52592593,19.75974026,17.85254692,18.08754624,18.10526316,18.10526316,,,,,,,,,,,,,,,,,,,,PF,3,weak,,,,,,,,4,2.669,,,,,,,,,,,,,,,,,,,,,,,,,,,,1,weak,36,-77,1,0,0,response3disk,7,9,-6,-7,1,0,0,rectangle,-6,-7,1,0,0,0,5,0.003,-6,-7,1,0,0,0,8,8,150,1,0,,,,,,,,,,,,,,,,,,,,,
,,,,,,,,,,,,,,,,,,,,,,,,,,,,,,,,,,,,,,,,,,5f5d2e274cddcc56953ae1ba,606a0f9794e12677aa85eeca,2021-04-04_15h12.37.481,Colour_Similarity_Experiment,2020.2.10,Win32,60,60675255c767bca6388caeee,19.52592593,19.75974026,17.85254692,18.08754624,18.10526316,18.10526316,,,,,,,,,,,,,,,,,,,,PF,3,strong,,,,,,,,2,1.494,,,,,,,,,,,,,,,,,,,,,,,,,,,,8,strong,-104,-73,1,0,0,response5disk,4,10,-4,-1,1,0,0,rectangle,-4,-1,1,0,0,0,6,0.006,-4,-1,1,0,0,0,9,9,88,1,0,,,,,,,,,,,,,,,,,,,,,
,,,,,,,,,,,,,,,,,,,,,,,,,,,,,,,,,,,,,,,,,,5f5d2e274cddcc56953ae1ba,606a0f9794e12677aa85eeca,2021-04-04_15h12.37.481,Colour_Similarity_Experiment,2020.2.10,Win32,60,60675255c767bca6388caeee,19.52592593,19.75974026,17.85254692,18.08754624,18.10526316,18.10526316,,,,,,,,,,,,,,,,,,,,PF,3,strong,,,,,,,,2,2.554,,,,,,,,,,,,,,,,,,,,,,,,,,,,5,strong,-44,-27,1,0,0,response5disk,3,11,-4,-7,1,0,0,rectangle,-4,-7,1,0,0,0,7,0.003,-4,-7,1,0,0,0,10,10,25,1,0,,,,,,,,,,,,,,,,,,,,,
,,,,,,,,,,,,,,,,,,,,,,,,,,,,,,,,,,,,,,,,,,5f5d2e274cddcc56953ae1ba,606a0f9794e12677aa85eeca,2021-04-04_15h12.37.481,Colour_Similarity_Experiment,2020.2.10,Win32,60,60675255c767bca6388caeee,19.52592593,19.75974026,17.85254692,18.08754624,18.10526316,18.10526316,,,,,,,,,,,,,,,,,,,,PF,3,strong,,,,,,,,1,1.207,,,,,,,,,,,,,,,,,,,,,,,,,,,,1,strong,-74,35,1,0,0,response7disk,7,12,18,-1,1,0,0,rectangle,18,-1,1,0,0,0,5,0.004,18,-1,1,0,0,0,11,11,137,1,0,,,,,,,,,,,,,,,,,,,,,
,,,,,,,,,,,,,,,,,,,,,,,,,,,,,,,,,,,,,,,,,,5f5d2e274cddcc56953ae1ba,606a0f9794e12677aa85eeca,2021-04-04_15h12.37.481,Colour_Similarity_Experiment,2020.2.10,Win32,60,60675255c767bca6388caeee,19.52592593,19.75974026,17.85254692,18.08754624,18.10526316,18.10526316,,,,,,,,,,,,,,,,,,,,PF,3,strong,,,,,,,,6,1.689,,,,,,,,,,,,,,,,,,,,,,,,,,,,3,strong,86,31,1,0,0,response1disk,5,13,-4,-7,1,0,0,rectangle,-4,-7,1,0,0,0,0,0.002,-4,-7,1,0,0,0,12,12,101,1,0,,,,,,,,,,,,,,,,,,,,,
,,,,,,,,,,,,,,,,,,,,,,,,,,,,,,,,,,,,,,,,,,5f5d2e274cddcc56953ae1ba,606a0f9794e12677aa85eeca,2021-04-04_15h12.37.481,Colour_Similarity_Experiment,2020.2.10,Win32,60,60675255c767bca6388caeee,19.52592593,19.75974026,17.85254692,18.08754624,18.10526316,18.10526316,,,,,,,,,,,,,,,,,,,,PF,3,weak,,,,,,,,0,2.87,,,,,,,,,,,,,,,,,,,,,,,,,,,,1,weak,-34,57,1,0,0,response7disk,3,14,14,-3,1,0,0,rectangle,14,-3,1,0,0,0,2,0.005,14,-3,1,0,0,0,13,13,1,1,0,,,,,,,,,,,,,,,,,,,,,
,,,,,,,,,,,,,,,,,,,,,,,,,,,,,,,,,,,,,,,,,,5f5d2e274cddcc56953ae1ba,606a0f9794e12677aa85eeca,2021-04-04_15h12.37.481,Colour_Similarity_Experiment,2020.2.10,Win32,60,60675255c767bca6388caeee,19.52592593,19.75974026,17.85254692,18.08754624,18.10526316,18.10526316,,,,,,,,,,,,,,,,,,,,PF,3,weak,,,,,,,,5,2.785,,,,,,,,,,,,,,,,,,,,,,,,,,,,4,weak,62,-45,1,0,0,response3disk,8,15,-6,-1,1,0,0,rectangle,-6,-1,1,0,0,0,5,0.005,-6,-1,1,0,0,0,14,14,124,1,0,,,,,,,,,,,,,,,,,,,,,
,,,,,,,,,,,,,,,,,,,,,,,,,,,,,,,,,,,,,,,,,,5f5d2e274cddcc56953ae1ba,606a0f9794e12677aa85eeca,2021-04-04_15h12.37.481,Colour_Similarity_Experiment,2020.2.10,Win32,60,60675255c767bca6388caeee,19.52592593,19.75974026,17.85254692,18.08754624,18.10526316,18.10526316,,,,,,,,,,,,,,,,,,,,PF,3,weak,,,,,,,,1,1.767,,,,,,,,,,,,,,,,,,,,,,,,,,,,7,weak,-92,33,1,0,0,response7disk,6,16,-8,-3,1,0,0,rectangle,-8,-3,1,0,0,0,6,0.002,-8,-3,1,0,0,0,15,15,29,1,0,,,,,,,,,,,,,,,,,,,,,
,,,,,,,,,,,,,,,,,,,,,,,,,,,,,,,,,,,,,,,,,,5f5d2e274cddcc56953ae1ba,606a0f9794e12677aa85eeca,2021-04-04_15h12.37.481,Colour_Similarity_Experiment,2020.2.10,Win32,60,60675255c767bca6388caeee,19.52592593,19.75974026,17.85254692,18.08754624,18.10526316,18.10526316,,,,,,,,,,,,,,,,,,,,PF,3,weak,,,,,,,,5,2.472,,,,,,,,,,,,,,,,,,,,,,,,,,,,6,weak,56,-17,1,0,0,response3disk,9,17,-8,-7,1,0,0,rectangle,-8,-7,1,0,0,0,6,0,-8,-7,1,0,0,0,16,16,45,1,0,,,,,,,,,,,,,,,,,,,,,
,,,,,,,,,,,,,,,,,,,,,,,,,,,,,,,,,,,,,,,,,,5f5d2e274cddcc56953ae1ba,606a0f9794e12677aa85eeca,2021-04-04_15h12.37.481,Colour_Similarity_Experiment,2020.2.10,Win32,60,60675255c767bca6388caeee,19.52592593,19.75974026,17.85254692,18.08754624,18.10526316,18.10526316,,,,,,,,,,,,,,,,,,,,PF,3,weak,,,,,,,,5,4.55,,,,,,,,,,,,,,,,,,,,,,,,,,,,9,weak,68,-39,1,0,0,response3disk,5,18,6,-11,1,0,0,rectangle,6,-11,1,0,0,0,2,0.004,6,-11,1,0,0,0,17,17,134,1,0,,,,,,,,,,,,,,,,,,,,,
,,,,,,,,,,,,,,,,,,,,,,,,,,,,,,,,,,,,,,,,,,5f5d2e274cddcc56953ae1ba,606a0f9794e12677aa85eeca,2021-04-04_15h12.37.481,Colour_Similarity_Experiment,2020.2.10,Win32,60,60675255c767bca6388caeee,19.52592593,19.75974026,17.85254692,18.08754624,18.10526316,18.10526316,,,,,,,,,,,,,,,,,,,,PF,3,strong,,,,,,,,1,2.527,,,,,,,,,,,,,,,,,,,,,,,,,,,,9,strong,-86,31,1,0,0,response7disk,3,19,-8,9,1,0,0,rectangle,-8,9,1,0,0,0,5,0.001,-8,9,1,0,0,0,18,18,141,1,0,,,,,,,,,,,,,,,,,,,,,
,,,,,,,,,,,,,,,,,,,,,,,,,,,,,,,,,,,,,,,,,,5f5d2e274cddcc56953ae1ba,606a0f9794e12677aa85eeca,2021-04-04_15h12.37.481,Colour_Similarity_Experiment,2020.2.10,Win32,60,60675255c767bca6388caeee,19.52592593,19.75974026,17.85254692,18.08754624,18.10526316,18.10526316,,,,,,,,,,,,,,,,,,,,PF,3,strong,,,,,,,,7,1.988,,,,,,,,,,,,,,,,,,,,,,,,,,,,5,strong,34,65,1,0,0,response1disk,2,20,6,9,1,0,0,rectangle,-28,69,1,0,0,0,0,3.248,10,11,1,0,0,0,19,19,55,1,1,response7disk_3,rectangle,,,,,,,,,,,,,,,,,,,
,,,,,,,,,,,,,,,,,,,,,,,,,,,,,,,,,,,,,,,,,,5f5d2e274cddcc56953ae1ba,606a0f9794e12677aa85eeca,2021-04-04_15h12.37.481,Colour_Similarity_Experiment,2020.2.10,Win32,60,60675255c767bca6388caeee,19.52592593,19.75974026,17.85254692,18.08754624,18.10526316,18.10526316,,,,,,,,,,,,,,,,,,,,PF,3,weak,,,,,,,,6,2.033,,,,,,,,,,,,,,,,,,,,,,,,,,,,2,weak,64,49,1,0,0,response1disk,6,21,0,5,1,0,0,rectangle,0,5,1,0,0,0,0,0.002,0,5,1,0,0,0,20,20,113,1,0,,,,,,,,,,,,,,,,,,,,,
,,,,,,,,,,,,,,,,,,,,,,,,,,,,,,,,,,,,,,,,,,5f5d2e274cddcc56953ae1ba,606a0f9794e12677aa85eeca,2021-04-04_15h12.37.481,Colour_Similarity_Experiment,2020.2.10,Win32,60,60675255c767bca6388caeee,19.52592593,19.75974026,17.85254692,18.08754624,18.10526316,18.10526316,,,,,,,,,,,,,,,,,,,,PF,3,weak,,,,,,,,5,2.202,,,,,,,,,,,,,,,,,,,,,,,,,,,,9,weak,82,-39,1,0,0,response3disk,4,22,12,-9,1,0,0,rectangle,12,-9,1,0,0,0,4,0.004,12,-9,1,0,0,0,21,21,114,1,0,,,,,,,,,,,,,,,,,,,,,
,,,,,,,,,,,,,,,,,,,,,,,,,,,,,,,,,,,,,,,,,,5f5d2e274cddcc56953ae1ba,606a0f9794e12677aa85eeca,2021-04-04_15h12.37.481,Colour_Similarity_Experiment,2020.2.10,Win32,60,60675255c767bca6388caeee,19.52592593,19.75974026,17.85254692,18.08754624,18.10526316,18.10526316,,,,,,,,,,,,,,,,,,,,PF,3,weak,,,,,,,,1,3.3,,,,,,,,,,,,,,,,,,,,,,,,,,,,6,weak,-104,39,1,0,0,response7disk,6,23,2,3,1,0,0,rectangle,2,3,1,0,0,0,3,0.003,2,3,1,0,0,0,22,22,0,1,0,,,,,,,,,,,,,,,,,,,,,
,,,,,,,,,,,,,,,,,,,,,,,,,,,,,,,,,,,,,,,,,,5f5d2e274cddcc56953ae1ba,606a0f9794e12677aa85eeca,2021-04-04_15h12.37.481,Colour_Similarity_Experiment,2020.2.10,Win32,60,60675255c767bca6388caeee,19.52592593,19.75974026,17.85254692,18.08754624,18.10526316,18.10526316,,,,,,,,,,,,,,,,,,,,PF,3,strong,,,,,,,,4,3.071,,,,,,,,,,,,,,,,,,,,,,,,,,,,9,strong,36,-81,1,0,0,response3disk,1,24,10,-5,1,0,0,rectangle,10,-5,1,0,0,0,4,0.004,10,-5,1,0,0,0,23,23,111,1,0,,,,,,,,,,,,,,,,,,,,,
,,,,,,,,,,,,,,,,,,,,,,,,,,,,,,,,,,,,,,,,,,5f5d2e274cddcc56953ae1ba,606a0f9794e12677aa85eeca,2021-04-04_15h12.37.481,Colour_Similarity_Experiment,2020.2.10,Win32,60,60675255c767bca6388caeee,19.52592593,19.75974026,17.85254692,18.08754624,18.10526316,18.10526316,,,,,,,,,,,,,,,,,,,,PF,3,strong,,,,,,,,4,1.541,,,,,,,,,,,,,,,,,,,,,,,,,,,,6,strong,42,-85,1,0,0,response3disk,8,25,-18,-1,1,0,0,rectangle,-18,-1,1,0,0,0,0,0.001,-18,-1,1,0,0,0,24,24,133,1,0,,,,,,,,,,,,,,,,,,,,,
,,,,,,,,,,,,,,,,,,,,,,,,,,,,,,,,,,,,,,,,,,5f5d2e274cddcc56953ae1ba,606a0f9794e12677aa85eeca,2021-04-04_15h12.37.481,Colour_Similarity_Experiment,2020.2.10,Win32,60,60675255c767bca6388caeee,19.52592593,19.75974026,17.85254692,18.08754624,18.10526316,18.10526316,,,,,,,,,,,,,,,,,,,,PF,3,strong,,,,,,,,1,1.282,,,,,,,,,,,,,,,,,,,,,,,,,,,,2,strong,-68,57,1,0,0,response7disk,2,26,-6,-3,1,0,0,rectangle,-6,-3,1,0,0,0,3,0.006,-6,-3,1,0,0,0,25,25,142,1,0,,,,,,,,,,,,,,,,,,,,,
,,,,,,,,,,,,,,,,,,,,,,,,,,,,,,,,,,,,,,,,,,5f5d2e274cddcc56953ae1ba,606a0f9794e12677aa85eeca,2021-04-04_15h12.37.481,Colour_Similarity_Experiment,2020.2.10,Win32,60,60675255c767bca6388caeee,19.52592593,19.75974026,17.85254692,18.08754624,18.10526316,18.10526316,,,,,,,,,,,,,,,,,,,,PF,3,strong,,,,,,,,7,1.642,,,,,,,,,,,,,,,,,,,,,,,,,,,,2,strong,36,81,1,0,0,response1disk,4,27,10,-1,1,0,0,rectangle,10,-1,1,0,0,0,2,0.003,10,-1,1,0,0,0,26,26,145,1,0,,,,,,,,,,,,,,,,,,,,,
,,,,,,,,,,,,,,,,,,,,,,,,,,,,,,,,,,,,,,,,,,5f5d2e274cddcc56953ae1ba,606a0f9794e12677aa85eeca,2021-04-04_15h12.37.481,Colour_Similarity_Experiment,2020.2.10,Win32,60,60675255c767bca6388caeee,19.52592593,19.75974026,17.85254692,18.08754624,18.10526316,18.10526316,,,,,,,,,,,,,,,,,,,,PF,3,strong,,,,,,,,5,2.733,,,,,,,,,,,,,,,,,,,,,,,,,,,,5,strong,94,-51,1,0,0,response3disk,5,28,14,-3,1,0,0,rectangle,14,-3,1,0,0,0,4,0.006,14,-3,1,0,0,0,27,27,19,1,0,,,,,,,,,,,,,,,,,,,,,
,,,,,,,,,,,,,,,,,,,,,,,,,,,,,,,,,,,,,,,,,,5f5d2e274cddcc56953ae1ba,606a0f9794e12677aa85eeca,2021-04-04_15h12.37.481,Colour_Similarity_Experiment,2020.2.10,Win32,60,60675255c767bca6388caeee,19.52592593,19.75974026,17.85254692,18.08754624,18.10526316,18.10526316,,,,,,,,,,,,,,,,,,,,PF,3,strong,,,,,,,,5,1.609,,,,,,,,,,,,,,,,,,,,,,,,,,,,2,strong,84,-39,1,0,0,response3disk,8,29,8,-7,1,0,0,rectangle,8,-7,1,0,0,0,1,0.003,8,-7,1,0,0,0,28,28,62,1,0,,,,,,,,,,,,,,,,,,,,,
,,,,,,,,,,,,,,,,,,,,,,,,,,,,,,,,,,,,,,,,,,5f5d2e274cddcc56953ae1ba,606a0f9794e12677aa85eeca,2021-04-04_15h12.37.481,Colour_Similarity_Experiment,2020.2.10,Win32,60,60675255c767bca6388caeee,19.52592593,19.75974026,17.85254692,18.08754624,18.10526316,18.10526316,,,,,,,,,,,,,,,,,,,,PF,3,weak,,,,,,,,7,1.967,,,,,,,,,,,,,,,,,,,,,,,,,,,,5,weak,18,83,1,0,0,response1disk,9,30,10,9,1,0,0,rectangle,-100,-55,1,0,0,0,2,2.516,4,13,1,0,0,0,29,29,136,1,1,response5disk_3,rectangle,,,,,,,,,,,,,,,,,,,
,,,,,,,,,,,,,,,,,,,,,,,,,,,,,,,,,,,,,,,,,,5f5d2e274cddcc56953ae1ba,606a0f9794e12677aa85eeca,2021-04-04_15h12.37.481,Colour_Similarity_Experiment,2020.2.10,Win32,60,60675255c767bca6388caeee,19.52592593,19.75974026,17.85254692,18.08754624,18.10526316,18.10526316,,,,,,,,,,,,,,,,,,,,PF,3,strong,,,,,,,,5,1.07,,,,,,,,,,,,,,,,,,,,,,,,,,,,8,strong,68,-25,1,0,0,response3disk,6,31,-2,7,1,0,0,rectangle,-2,7,1,0,0,0,1,0.002,-2,7,1,0,0,0,30,30,37,1,0,,,,,,,,,,,,,,,,,,,,,
,,,,,,,,,,,,,,,,,,,,,,,,,,,,,,,,,,,,,,,,,,5f5d2e274cddcc56953ae1ba,606a0f9794e12677aa85eeca,2021-04-04_15h12.37.481,Colour_Similarity_Experiment,2020.2.10,Win32,60,60675255c767bca6388caeee,19.52592593,19.75974026,17.85254692,18.08754624,18.10526316,18.10526316,,,,,,,,,,,,,,,,,,,,PF,3,strong,,,,,,,,3,0.92,,,,,,,,,,,,,,,,,,,,,,,,,,,,9,strong,-40,-49,1,0,0,response5disk,2,32,8,9,1,0,0,rectangle,86,59,1,0,0,6,6,2.268,16,3,1,0,0,0,31,31,11,1,1,response1disk_3,rectangle,,,,,,,,,,,,,,,,,,,
,,,,,,,,,,,,,,,,,,,,,,,,,,,,,,,,,,,,,,,,,,5f5d2e274cddcc56953ae1ba,606a0f9794e12677aa85eeca,2021-04-04_15h12.37.481,Colour_Similarity_Experiment,2020.2.10,Win32,60,60675255c767bca6388caeee,19.52592593,19.75974026,17.85254692,18.08754624,18.10526316,18.10526316,,,,,,,,,,,,,,,,,,,,PF,3,weak,,,,,,,,4,0.856,,,,,,,,,,,,,,,,,,,,,,,,,,,,7,weak,58,-71,1,0,0,response3disk,9,33,0,9,1,0,0,rectangle,0,9,1,0,0,6,5,0.003,0,9,1,0,0,0,32,32,10,1,0,,,,,,,,,,,,,,,,,,,,,
,,,,,,,,,,,,,,,,,,,,,,,,,,,,,,,,,,,,,,,,,,5f5d2e274cddcc56953ae1ba,606a0f9794e12677aa85eeca,2021-04-04_15h12.37.481,Colour_Similarity_Experiment,2020.2.10,Win32,60,60675255c767bca6388caeee,19.52592593,19.75974026,17.85254692,18.08754624,18.10526316,18.10526316,,,,,,,,,,,,,,,,,,,,PF,3,weak,,,,,,,,7,2.358,,,,,,,,,,,,,,,,,,,,,,,,,,,,5,weak,36,67,1,0,0,response1disk,7,34,2,7,1,0,0,rectangle,2,7,1,0,0,6,6,0.006,2,7,1,0,0,0,33,33,146,1,0,,,,,,,,,,,,,,,,,,,,,
,,,,,,,,,,,,,,,,,,,,,,,,,,,,,,,,,,,,,,,,,,5f5d2e274cddcc56953ae1ba,606a0f9794e12677aa85eeca,2021-04-04_15h12.37.481,Colour_Similarity_Experiment,2020.2.10,Win32,60,60675255c767bca6388caeee,19.52592593,19.75974026,17.85254692,18.08754624,18.10526316,18.10526316,,,,,,,,,,,,,,,,,,,,PF,3,weak,,,,,,,,5,2.577,,,,,,,,,,,,,,,,,,,,,,,,,,,,6,weak,114,-49,1,0,0,response3disk,7,35,8,-7,1,0,0,rectangle,8,-7,1,0,0,6,7,0.006,8,-7,1,0,0,0,34,34,50,1,0,,,,,,,,,,,,,,,,,,,,,
,,,,,,,,,,,,,,,,,,,,,,,,,,,,,,,,,,,,,,,,,,5f5d2e274cddcc56953ae1ba,606a0f9794e12677aa85eeca,2021-04-04_15h12.37.481,Colour_Similarity_Experiment,2020.2.10,Win32,60,60675255c767bca6388caeee,19.52592593,19.75974026,17.85254692,18.08754624,18.10526316,18.10526316,,,,,,,,,,,,,,,,,,,,PF,3,weak,,,,,,,,7,1.701,,,,,,,,,,,,,,,,,,,,,,,,,,,,9,weak,42,65,1,0,0,response1disk,1,36,22,11,1,0,0,rectangle,22,11,1,0,0,6,5,0.006,22,11,1,0,0,0,35,35,74,1,0,,,,,,,,,,,,,,,,,,,,,
,,,,,,,,,,,,,,,,,,,,,,,,,,,,,,,,,,,,,,,,,,5f5d2e274cddcc56953ae1ba,606a0f9794e12677aa85eeca,2021-04-04_15h12.37.481,Colour_Similarity_Experiment,2020.2.10,Win32,60,60675255c767bca6388caeee,19.52592593,19.75974026,17.85254692,18.08754624,18.10526316,18.10526316,,,,,,,,,,,,,,,,,,,,PF,3,weak,,,,,,,,7,1.685,,,,,,,,,,,,,,,,,,,,,,,,,,,,4,weak,34,67,1,0,0,response1disk,9,37,2,11,1,0,0,rectangle,2,11,1,0,0,6,5,0,2,11,1,0,0,0,36,36,75,1,0,,,,,,,,,,,,,,,,,,,,,
,,,,,,,,,,,,,,,,,,,,,,,,,,,,,,,,,,,,,,,,,,5f5d2e274cddcc56953ae1ba,606a0f9794e12677aa85eeca,2021-04-04_15h12.37.481,Colour_Similarity_Experiment,2020.2.10,Win32,60,60675255c767bca6388caeee,19.52592593,19.75974026,17.85254692,18.08754624,18.10526316,18.10526316,,,,,,,,,,,,,,,,,,,,PF,3,strong,,,,,,,,7,1.3,,,,,,,,,,,,,,,,,,,,,,,,,,,,5,strong,26,63,1,0,0,response1disk,7,38,-10,11,1,0,0,rectangle,-10,11,1,0,0,6,6,0.002,-10,11,1,0,0,0,37,37,7,1,0,,,,,,,,,,,,,,,,,,,,,
,,,,,,,,,,,,,,,,,,,,,,,,,,,,,,,,,,,,,,,,,,5f5d2e274cddcc56953ae1ba,606a0f9794e12677aa85eeca,2021-04-04_15h12.37.481,Colour_Similarity_Experiment,2020.2.10,Win32,60,60675255c767bca6388caeee,19.52592593,19.75974026,17.85254692,18.08754624,18.10526316,18.10526316,,,,,,,,,,,,,,,,,,,,PF,3,weak,,,,,,,,7,1.704,,,,,,,,,,,,,,,,,,,,,,,,,,,,1,weak,60,67,1,0,0,response1disk,4,39,-2,1,1,0,0,rectangle,-2,1,1,0,0,6,6,0.001,-2,1,1,0,0,0,38,38,139,1,0,,,,,,,,,,,,,,,,,,,,,
,,,,,,,,,,,,,,,,,,,,,,,,,,,,,,,,,,,,,,,,,,5f5d2e274cddcc56953ae1ba,606a0f9794e12677aa85eeca,2021-04-04_15h12.37.481,Colour_Similarity_Experiment,2020.2.10,Win32,60,60675255c767bca6388caeee,19.52592593,19.75974026,17.85254692,18.08754624,18.10526316,18.10526316,,,,,,,,,,,,,,,,,,,,PF,3,strong,,,,,,,,4,2.954,,,,,,,,,,,,,,,,,,,,,,,,,,,,3,strong,50,-61,1,0,0,response3disk,9,40,-12,-1,1,0,0,rectangle,-12,-1,1,0,0,6,6,0,-12,-1,1,0,0,0,39,39,143,1,0,,,,,,,,,,,,,,,,,,,,,
,,,,,,,,,,,,,,,,,,,,,,,,,,,,,,,,,,,,,,,,,,5f5d2e274cddcc56953ae1ba,606a0f9794e12677aa85eeca,2021-04-04_15h12.37.481,Colour_Similarity_Experiment,2020.2.10,Win32,60,60675255c767bca6388caeee,19.52592593,19.75974026,17.85254692,18.08754624,18.10526316,18.10526316,,,,,,,,,,,,,,,,,,,,PF,3,weak,,,,,,,,4,2.024,,,,,,,,,,,,,,,,,,,,,,,,,,,,8,weak,68,-87,1,0,0,response3disk,5,41,14,-11,1,0,0,rectangle,14,-11,1,0,0,6,2,0.004,14,-11,1,0,0,0,40,40,98,1,0,,,,,,,,,,,,,,,,,,,,,
,,,,,,,,,,,,,,,,,,,,,,,,,,,,,,,,,,,,,,,,,,5f5d2e274cddcc56953ae1ba,606a0f9794e12677aa85eeca,2021-04-04_15h12.37.481,Colour_Similarity_Experiment,2020.2.10,Win32,60,60675255c767bca6388caeee,19.52592593,19.75974026,17.85254692,18.08754624,18.10526316,18.10526316,,,,,,,,,,,,,,,,,,,,PF,3,weak,,,,,,,,4,1.527,,,,,,,,,,,,,,,,,,,,,,,,,,,,9,weak,16,-65,1,0,0,response3disk,7,42,2,-9,1,0,0,rectangle,2,-9,1,0,0,6,5,0.005,2,-9,1,0,0,0,41,41,121,1,0,,,,,,,,,,,,,,,,,,,,,
,,,,,,,,,,,,,,,,,,,,,,,,,,,,,,,,,,,,,,,,,,5f5d2e274cddcc56953ae1ba,606a0f9794e12677aa85eeca,2021-04-04_15h12.37.481,Colour_Similarity_Experiment,2020.2.10,Win32,60,60675255c767bca6388caeee,19.52592593,19.75974026,17.85254692,18.08754624,18.10526316,18.10526316,,,,,,,,,,,,,,,,,,,,PF,3,weak,,,,,,,,3,1.847,,,,,,,,,,,,,,,,,,,,,,,,,,,,3,weak,-28,-53,1,0,0,response5disk,9,43,4,-1,1,0,0,rectangle,4,-1,1,0,0,6,5,0,4,-1,1,0,0,0,42,42,79,1,0,,,,,,,,,,,,,,,,,,,,,
,,,,,,,,,,,,,,,,,,,,,,,,,,,,,,,,,,,,,,,,,,5f5d2e274cddcc56953ae1ba,606a0f9794e12677aa85eeca,2021-04-04_15h12.37.481,Colour_Similarity_Experiment,2020.2.10,Win32,60,60675255c767bca6388caeee,19.52592593,19.75974026,17.85254692,18.08754624,18.10526316,18.10526316,,,,,,,,,,,,,,,,,,,,PF,3,weak,,,,,,,,6,2.155,,,,,,,,,,,,,,,,,,,,,,,,,,,,7,weak,92,59,1,0,0,response1disk,5,44,4,1,1,0,0,rectangle,4,1,1,0,0,6,2,0.006,4,1,1,0,0,0,43,43,92,1,0,,,,,,,,,,,,,,,,,,,,,
,,,,,,,,,,,,,,,,,,,,,,,,,,,,,,,,,,,,,,,,,,5f5d2e274cddcc56953ae1ba,606a0f9794e12677aa85eeca,2021-04-04_15h12.37.481,Colour_Similarity_Experiment,2020.2.10,Win32,60,60675255c767bca6388caeee,19.52592593,19.75974026,17.85254692,18.08754624,18.10526316,18.10526316,,,,,,,,,,,,,,,,,,,,PF,3,weak,,,,,,,,1,2.684,,,,,,,,,,,,,,,,,,,,,,,,,,,,4,weak,-76,51,1,0,0,response7disk,3,45,8,11,1,0,0,rectangle,8,11,1,0,0,6,4,0.002,8,11,1,0,0,0,44,44,89,1,0,,,,,,,,,,,,,,,,,,,,,
,,,,,,,,,,,,,,,,,,,,,,,,,,,,,,,,,,,,,,,,,,5f5d2e274cddcc56953ae1ba,606a0f9794e12677aa85eeca,2021-04-04_15h12.37.481,Colour_Similarity_Experiment,2020.2.10,Win32,60,60675255c767bca6388caeee,19.52592593,19.75974026,17.85254692,18.08754624,18.10526316,18.10526316,,,,,,,,,,,,,,,,,,,,PF,3,weak,,,,,,,,6,2.124,,,,,,,,,,,,,,,,,,,,,,,,,,,,6,weak,96,39,1,0,0,response1disk,8,46,18,-7,1,0,0,rectangle,18,-7,1,0,0,6,6,0.004,18,-7,1,0,0,0,45,45,64,1,0,,,,,,,,,,,,,,,,,,,,,
,,,,,,,,,,,,,,,,,,,,,,,,,,,,,,,,,,,,,,,,,,5f5d2e274cddcc56953ae1ba,606a0f9794e12677aa85eeca,2021-04-04_15h12.37.481,Colour_Similarity_Experiment,2020.2.10,Win32,60,60675255c767bca6388caeee,19.52592593,19.75974026,17.85254692,18.08754624,18.10526316,18.10526316,,,,,,,,,,,,,,,,,,,,PF,3,strong,,,,,,,,5,1.736,,,,,,,,,,,,,,,,,,,,,,,,,,,,4,strong,88,-47,1,0,0,response3disk,1,47,34,11,1,0,0,rectangle,34,11,1,0,0,6,6,0,34,11,1,0,0,0,46,46,102,1,0,,,,,,,,,,,,,,,,,,,,,
,,,,,,,,,,,,,,,,,,,,,,,,,,,,,,,,,,,,,,,,,,5f5d2e274cddcc56953ae1ba,606a0f9794e12677aa85eeca,2021-04-04_15h12.37.481,Colour_Similarity_Experiment,2020.2.10,Win32,60,60675255c767bca6388caeee,19.52592593,19.75974026,17.85254692,18.08754624,18.10526316,18.10526316,,,,,,,,,,,,,,,,,,,,PF,3,strong,,,,,,,,0,1.689,,,,,,,,,,,,,,,,,,,,,,,,,,,,9,strong,-42,67,1,0,0,response7disk,4,48,26,-7,1,0,0,rectangle,26,-7,1,0,0,6,5,0.006,26,-7,1,0,0,0,47,47,60,1,0,,,,,,,,,,,,,,,,,,,,,
,,,,,,,,,,,,,,,,,,,,,,,,,,,,,,,,,,,,,,,,,,5f5d2e274cddcc56953ae1ba,606a0f9794e12677aa85eeca,2021-04-04_15h12.37.481,Colour_Similarity_Experiment,2020.2.10,Win32,60,60675255c767bca6388caeee,19.52592593,19.75974026,17.85254692,18.08754624,18.10526316,18.10526316,,,,,,,,,,,,,,,,,,,,PF,3,strong,,,,,,,,3,2.519,,,,,,,,,,,,,,,,,,,,,,,,,,,,5,strong,-28,-65,1,0,0,response5disk,8,49,-8,-7,1,0,0,rectangle,-8,-7,1,0,0,6,1,0.008,-8,-7,1,0,0,0,48,48,16,1,0,,,,,,,,,,,,,,,,,,,,,
,,,,,,,,,,,,,,,,,,,,,,,,,,,,,,,,,,,,,,,,,,5f5d2e274cddcc56953ae1ba,606a0f9794e12677aa85eeca,2021-04-04_15h12.37.481,Colour_Similarity_Experiment,2020.2.10,Win32,60,60675255c767bca6388caeee,19.52592593,19.75974026,17.85254692,18.08754624,18.10526316,18.10526316,,,,,,,,,,,,,,,,,,,,PF,3,weak,,,,,,,,0,1.676,,,,,,,,,,,,,,,,,,,,,,,,,,,,4,weak,-50,79,1,0,0,response7disk,4,50,6,-7,1,0,0,rectangle,6,-7,1,0,0,6,1,0,6,-7,1,0,0,0,49,49,70,1,0,,,,,,,,,,,,,,,,,,,,,
,,,,,,,,,,,,,,,,,,,,,,,,,,,,,,,,,,,,,,,,,,5f5d2e274cddcc56953ae1ba,606a0f9794e12677aa85eeca,2021-04-04_15h12.37.481,Colour_Similarity_Experiment,2020.2.10,Win32,60,60675255c767bca6388caeee,19.52592593,19.75974026,17.85254692,18.08754624,18.10526316,18.10526316,,,,,,,,,,,,,,,,,,,,PF,3,strong,,,,,,,,7,1.833,,,,,,,,,,,,,,,,,,,,,,,,,,,,2,strong,38,61,1,0,0,response1disk,9,51,12,-7,1,0,0,rectangle,12,-7,1,0,0,6,6,0.004,12,-7,1,0,0,0,50,50,72,1,0,,,,,,,,,,,,,,,,,,,,,
,,,,,,,,,,,,,,,,,,,,,,,,,,,,,,,,,,,,,,,,,,5f5d2e274cddcc56953ae1ba,606a0f9794e12677aa85eeca,2021-04-04_15h12.37.481,Colour_Similarity_Experiment,2020.2.10,Win32,60,60675255c767bca6388caeee,19.52592593,19.75974026,17.85254692,18.08754624,18.10526316,18.10526316,,,,,,,,,,,,,,,,,,,,PF,3,weak,,,,,,,,0,1.651,,,,,,,,,,,,,,,,,,,,,,,,,,,,1,weak,-40,67,1,0,0,response7disk,9,52,-16,-11,1,0,0,rectangle,-16,-11,1,0,0,6,7,0.002,-16,-11,1,0,0,0,51,51,15,1,0,,,,,,,,,,,,,,,,,,,,,
,,,,,,,,,,,,,,,,,,,,,,,,,,,,,,,,,,,,,,,,,,5f5d2e274cddcc56953ae1ba,606a0f9794e12677aa85eeca,2021-04-04_15h12.37.481,Colour_Similarity_Experiment,2020.2.10,Win32,60,60675255c767bca6388caeee,19.52592593,19.75974026,17.85254692,18.08754624,18.10526316,18.10526316,,,,,,,,,,,,,,,,,,,,PF,3,strong,,,,,,,,3,2.184,,,,,,,,,,,,,,,,,,,,,,,,,,,,7,strong,-38,-71,1,0,0,response5disk,6,53,2,9,1,0,0,rectangle,2,9,1,0,0,6,6,0.003,2,9,1,0,0,0,52,52,31,1,0,,,,,,,,,,,,,,,,,,,,,
,,,,,,,,,,,,,,,,,,,,,,,,,,,,,,,,,,,,,,,,,,5f5d2e274cddcc56953ae1ba,606a0f9794e12677aa85eeca,2021-04-04_15h12.37.481,Colour_Similarity_Experiment,2020.2.10,Win32,60,60675255c767bca6388caeee,19.52592593,19.75974026,17.85254692,18.08754624,18.10526316,18.10526316,,,,,,,,,,,,,,,,,,,,PF,3,strong,,,,,,,,5,2.201,,,,,,,,,,,,,,,,,,,,,,,,,,,,5,strong,58,-37,1,0,0,response3disk,4,54,-12,-5,1,0,0,rectangle,-12,-5,1,0,0,6,3,0.003,-12,-5,1,0,0,0,53,53,8,1,0,,,,,,,,,,,,,,,,,,,,,
,,,,,,,,,,,,,,,,,,,,,,,,,,,,,,,,,,,,,,,,,,5f5d2e274cddcc56953ae1ba,606a0f9794e12677aa85eeca,2021-04-04_15h12.37.481,Colour_Similarity_Experiment,2020.2.10,Win32,60,60675255c767bca6388caeee,19.52592593,19.75974026,17.85254692,18.08754624,18.10526316,18.10526316,,,,,,,,,,,,,,,,,,,,PF,3,weak,,,,,,,,1,1.787,,,,,,,,,,,,,,,,,,,,,,,,,,,,9,weak,-64,53,1,0,0,response7disk,9,55,28,11,1,0,0,rectangle,28,11,1,0,0,6,5,0.003,28,11,1,0,0,0,54,54,106,1,0,,,,,,,,,,,,,,,,,,,,,
,,,,,,,,,,,,,,,,,,,,,,,,,,,,,,,,,,,,,,,,,,5f5d2e274cddcc56953ae1ba,606a0f9794e12677aa85eeca,2021-04-04_15h12.37.481,Colour_Similarity_Experiment,2020.2.10,Win32,60,60675255c767bca6388caeee,19.52592593,19.75974026,17.85254692,18.08754624,18.10526316,18.10526316,,,,,,,,,,,,,,,,,,,,PF,3,strong,,,,,,,,6,2.224,,,,,,,,,,,,,,,,,,,,,,,,,,,,7,strong,112,61,1,0,0,response1disk,4,56,-2,11,1,0,0,rectangle,-2,11,1,0,0,6,6,0.002,-2,11,1,0,0,0,55,55,158,1,0,,,,,,,,,,,,,,,,,,,,,
,,,,,,,,,,,,,,,,,,,,,,,,,,,,,,,,,,,,,,,,,,5f5d2e274cddcc56953ae1ba,606a0f9794e12677aa85eeca,2021-04-04_15h12.37.481,Colour_Similarity_Experiment,2020.2.10,Win32,60,60675255c767bca6388caeee,19.52592593,19.75974026,17.85254692,18.08754624,18.10526316,18.10526316,,,,,,,,,,,,,,,,,,,,PF,3,strong,,,,,,,,3,3.015,,,,,,,,,,,,,,,,,,,,,,,,,,,,8,strong,-26,-81,1,0,0,response5disk,9,57,-2,5,1,0,0,rectangle,-2,5,1,0,0,6,4,0.003,-2,5,1,0,0,0,56,56,105,1,0,,,,,,,,,,,,,,,,,,,,,
,,,,,,,,,,,,,,,,,,,,,,,,,,,,,,,,,,,,,,,,,,5f5d2e274cddcc56953ae1ba,606a0f9794e12677aa85eeca,2021-04-04_15h12.37.481,Colour_Similarity_Experiment,2020.2.10,Win32,60,60675255c767bca6388caeee,19.52592593,19.75974026,17.85254692,18.08754624,18.10526316,18.10526316,,,,,,,,,,,,,,,,,,,,PF,3,weak,,,,,,,,1,1.205,,,,,,,,,,,,,,,,,,,,,,,,,,,,8,weak,-70,37,1,0,0,response7disk,4,58,-6,7,1,0,0,rectangle,-6,7,1,0,0,6,6,0.003,-6,7,1,0,0,0,57,57,78,1,0,,,,,,,,,,,,,,,,,,,,,
,,,,,,,,,,,,,,,,,,,,,,,,,,,,,,,,,,,,,,,,,,5f5d2e274cddcc56953ae1ba,606a0f9794e12677aa85eeca,2021-04-04_15h12.37.481,Colour_Similarity_Experiment,2020.2.10,Win32,60,60675255c767bca6388caeee,19.52592593,19.75974026,17.85254692,18.08754624,18.10526316,18.10526316,,,,,,,,,,,,,,,,,,,,PF,3,strong,,,,,,,,7,1.851,,,,,,,,,,,,,,,,,,,,,,,,,,,,6,strong,54,57,1,0,0,response1disk,2,59,4,-7,1,0,0,rectangle,4,-7,1,0,0,6,1,0.004,4,-7,1,0,0,0,58,58,112,1,0,,,,,,,,,,,,,,,,,,,,,
,,,,,,,,,,,,,,,,,,,,,,,,,,,,,,,,,,,,,,,,,,5f5d2e274cddcc56953ae1ba,606a0f9794e12677aa85eeca,2021-04-04_15h12.37.481,Colour_Similarity_Experiment,2020.2.10,Win32,60,60675255c767bca6388caeee,19.52592593,19.75974026,17.85254692,18.08754624,18.10526316,18.10526316,,,,,,,,,,,,,,,,,,,,PF,3,weak,,,,,,,,0,1.801,,,,,,,,,,,,,,,,,,,,,,,,,,,,5,weak,-42,77,1,0,0,response7disk,5,60,18,-9,1,0,0,rectangle,18,-9,1,0,0,6,5,0.002,18,-9,1,0,0,0,59,59,94,1,0,,,,,,,,,,,,,,,,,,,,,
,,,,,,,,,,,,,,,,,,,,,,,,,,,,,,,,,,,,,,,,,,5f5d2e274cddcc56953ae1ba,606a0f9794e12677aa85eeca,2021-04-04_15h12.37.481,Colour_Similarity_Experiment,2020.2.10,Win32,60,60675255c767bca6388caeee,19.52592593,19.75974026,17.85254692,18.08754624,18.10526316,18.10526316,,,,,,,,,,,,,,,,,,,,PF,3,weak,,,,,,,,5,1.88,,,,,,,,,,,,,,,,,,,,,,,,,,,,8,weak,68,-33,1,0,0,response3disk,9,61,-10,1,1,0,0,rectangle,-10,1,1,0,0,6,1,0.003,-10,1,1,0,0,0,60,60,42,1,0,,,,,,,,,,,,,,,,,,,,,
,,,,,,,,,,,,,,,,,,,,,,,,,,,,,,,,,,,,,,,,,,5f5d2e274cddcc56953ae1ba,606a0f9794e12677aa85eeca,2021-04-04_15h12.37.481,Colour_Similarity_Experiment,2020.2.10,Win32,60,60675255c767bca6388caeee,19.52592593,19.75974026,17.85254692,18.08754624,18.10526316,18.10526316,,,,,,,,,,,,,,,,,,,,PF,3,strong,,,,,,,,1,2.117,,,,,,,,,,,,,,,,,,,,,,,,,,,,3,strong,-84,33,1,0,0,response7disk,4,62,-12,5,1,0,0,rectangle,-12,5,1,0,0,6,3,0.002,-12,5,1,0,0,0,61,61,110,1,0,,,,,,,,,,,,,,,,,,,,,
,,,,,,,,,,,,,,,,,,,,,,,,,,,,,,,,,,,,,,,,,,5f5d2e274cddcc56953ae1ba,606a0f9794e12677aa85eeca,2021-04-04_15h12.37.481,Colour_Similarity_Experiment,2020.2.10,Win32,60,60675255c767bca6388caeee,19.52592593,19.75974026,17.85254692,18.08754624,18.10526316,18.10526316,,,,,,,,,,,,,,,,,,,,PF,3,strong,,,,,,,,5,0.936,,,,,,,,,,,,,,,,,,,,,,,,,,,,3,strong,44,-25,1,0,0,response3disk,8,63,6,-9,1,0,0,rectangle,6,-9,1,0,0,6,5,0.003,6,-9,1,0,0,0,62,62,44,1,0,,,,,,,,,,,,,,,,,,,,,
,,,,,,,,,,,,,,,,,,,,,,,,,,,,,,,,,,,,,,,,,,5f5d2e274cddcc56953ae1ba,606a0f9794e12677aa85eeca,2021-04-04_15h12.37.481,Colour_Similarity_Experiment,2020.2.10,Win32,60,60675255c767bca6388caeee,19.52592593,19.75974026,17.85254692,18.08754624,18.10526316,18.10526316,,,,,,,,,,,,,,,,,,,,PF,3,weak,,,,,,,,1,1.027,,,,,,,,,,,,,,,,,,,,,,,,,,,,7,weak,-52,21,1,0,0,response7disk,3,64,-8,1,1,0,0,rectangle,-8,1,1,0,0,6,7,0.002,-8,1,1,0,0,0,63,63,81,1,0,,,,,,,,,,,,,,,,,,,,,
,,,,,,,,,,,,,,,,,,,,,,,,,,,,,,,,,,,,,,,,,,5f5d2e274cddcc56953ae1ba,606a0f9794e12677aa85eeca,2021-04-04_15h12.37.481,Colour_Similarity_Experiment,2020.2.10,Win32,60,60675255c767bca6388caeee,19.52592593,19.75974026,17.85254692,18.08754624,18.10526316,18.10526316,,,,,,,,,,,,,,,,,,,,PF,3,strong,,,,,,,,2,0.883,,,,,,,,,,,,,,,,,,,,,,,,,,,,5,strong,-62,-37,1,0,0,response5disk,9,65,14,1,1,0,0,rectangle,14,1,1,0,0,6,1,0.003,14,1,1,0,0,0,64,64,61,1,0,,,,,,,,,,,,,,,,,,,,,
,,,,,,,,,,,,,,,,,,,,,,,,,,,,,,,,,,,,,,,,,,5f5d2e274cddcc56953ae1ba,606a0f9794e12677aa85eeca,2021-04-04_15h12.37.481,Colour_Similarity_Experiment,2020.2.10,Win32,60,60675255c767bca6388caeee,19.52592593,19.75974026,17.85254692,18.08754624,18.10526316,18.10526316,,,,,,,,,,,,,,,,,,,,PF,3,weak,,,,,,,,5,0.894,,,,,,,,,,,,,,,,,,,,,,,,,,,,8,weak,60,-35,1,0,0,response3disk,8,66,-10,-5,1,0,0,rectangle,-10,-5,1,0,0,6,1,0,-10,-5,1,0,0,0,65,65,153,1,0,,,,,,,,,,,,,,,,,,,,,
,,,,,,,,,,,,,,,,,,,,,,,,,,,,,,,,,,,,,,,,,,5f5d2e274cddcc56953ae1ba,606a0f9794e12677aa85eeca,2021-04-04_15h12.37.481,Colour_Similarity_Experiment,2020.2.10,Win32,60,60675255c767bca6388caeee,19.52592593,19.75974026,17.85254692,18.08754624,18.10526316,18.10526316,,,,,,,,,,,,,,,,,,,,PF,3,strong,,,,,,,,6,1.661,,,,,,,,,,,,,,,,,,,,,,,,,,,,7,strong,58,43,1,0,0,response1disk,7,67,-18,-11,1,0,0,rectangle,-18,-11,1,0,0,6,1,0,-18,-11,1,0,0,0,66,66,34,1,0,,,,,,,,,,,,,,,,,,,,,
,,,,,,,,,,,,,,,,,,,,,,,,,,,,,,,,,,,,,,,,,,5f5d2e274cddcc56953ae1ba,606a0f9794e12677aa85eeca,2021-04-04_15h12.37.481,Colour_Similarity_Experiment,2020.2.10,Win32,60,60675255c767bca6388caeee,19.52592593,19.75974026,17.85254692,18.08754624,18.10526316,18.10526316,,,,,,,,,,,,,,,,,,,,PF,3,weak,,,,,,,,6,1.185,,,,,,,,,,,,,,,,,,,,,,,,,,,,5,weak,76,39,1,0,0,response1disk,8,68,4,5,1,0,0,rectangle,4,5,1,0,0,6,5,0.006,4,5,1,0,0,0,67,67,149,1,0,,,,,,,,,,,,,,,,,,,,,
,,,,,,,,,,,,,,,,,,,,,,,,,,,,,,,,,,,,,,,,,,5f5d2e274cddcc56953ae1ba,606a0f9794e12677aa85eeca,2021-04-04_15h12.37.481,Colour_Similarity_Experiment,2020.2.10,Win32,60,60675255c767bca6388caeee,19.52592593,19.75974026,17.85254692,18.08754624,18.10526316,18.10526316,,,,,,,,,,,,,,,,,,,,PF,3,weak,,,,,,,,3,2.383,,,,,,,,,,,,,,,,,,,,,,,,,,,,2,weak,-38,-73,1,0,0,response5disk,8,69,0,7,1,0,0,rectangle,0,7,1,0,0,6,7,0.003,0,7,1,0,0,0,68,68,52,1,0,,,,,,,,,,,,,,,,,,,,,
,,,,,,,,,,,,,,,,,,,,,,,,,,,,,,,,,,,,,,,,,,5f5d2e274cddcc56953ae1ba,606a0f9794e12677aa85eeca,2021-04-04_15h12.37.481,Colour_Similarity_Experiment,2020.2.10,Win32,60,60675255c767bca6388caeee,19.52592593,19.75974026,17.85254692,18.08754624,18.10526316,18.10526316,,,,,,,,,,,,,,,,,,,,PF,3,strong,,,,,,,,7,1.751,,,,,,,,,,,,,,,,,,,,,,,,,,,,2,strong,30,67,1,0,0,response1disk,1,70,4,-7,1,0,0,rectangle,4,-7,1,0,0,6,1,0.003,4,-7,1,0,0,0,69,69,85,1,0,,,,,,,,,,,,,,,,,,,,,
,,,,,,,,,,,,,,,,,,,,,,,,,,,,,,,,,,,,,,,,,,5f5d2e274cddcc56953ae1ba,606a0f9794e12677aa85eeca,2021-04-04_15h12.37.481,Colour_Similarity_Experiment,2020.2.10,Win32,60,60675255c767bca6388caeee,19.52592593,19.75974026,17.85254692,18.08754624,18.10526316,18.10526316,,,,,,,,,,,,,,,,,,,,PF,3,strong,,,,,,,,1,1.917,,,,,,,,,,,,,,,,,,,,,,,,,,,,6,strong,-64,33,1,0,0,response7disk,1,71,0,3,1,0,0,rectangle,0,3,1,0,0,6,6,0.003,0,3,1,0,0,0,70,70,5,1,0,,,,,,,,,,,,,,,,,,,,,
,,,,,,,,,,,,,,,,,,,,,,,,,,,,,,,,,,,,,,,,,,5f5d2e274cddcc56953ae1ba,606a0f9794e12677aa85eeca,2021-04-04_15h12.37.481,Colour_Similarity_Experiment,2020.2.10,Win32,60,60675255c767bca6388caeee,19.52592593,19.75974026,17.85254692,18.08754624,18.10526316,18.10526316,,,,,,,,,,,,,,,,,,,,PF,3,strong,,,,,,,,7,1.871,,,,,,,,,,,,,,,,,,,,,,,,,,,,7,strong,32,65,1,0,0,response1disk,2,72,8,5,1,0,0,rectangle,8,5,1,0,0,6,6,0,8,5,1,0,0,0,71,71,138,1,0,,,,,,,,,,,,,,,,,,,,,
,,,,,,,,,,,,,,,,,,,,,,,,,,,,,,,,,,,,,,,,,,5f5d2e274cddcc56953ae1ba,606a0f9794e12677aa85eeca,2021-04-04_15h12.37.481,Colour_Similarity_Experiment,2020.2.10,Win32,60,60675255c767bca6388caeee,19.52592593,19.75974026,17.85254692,18.08754624,18.10526316,18.10526316,,,,,,,,,,,,,,,,,,,,PF,3,strong,,,,,,,,6,1.64,,,,,,,,,,,,,,,,,,,,,,,,,,,,2,strong,70,45,1,0,0,response1disk,5,73,4,5,1,0,0,rectangle,4,5,1,0,0,6,7,0.007,4,5,1,0,0,0,72,72,80,1,0,,,,,,,,,,,,,,,,,,,,,
,,,,,,,,,,,,,,,,,,,,,,,,,,,,,,,,,,,,,,,,,,5f5d2e274cddcc56953ae1ba,606a0f9794e12677aa85eeca,2021-04-04_15h12.37.481,Colour_Similarity_Experiment,2020.2.10,Win32,60,60675255c767bca6388caeee,19.52592593,19.75974026,17.85254692,18.08754624,18.10526316,18.10526316,,,,,,,,,,,,,,,,,,,,PF,3,weak,,,,,,,,6,0.773,,,,,,,,,,,,,,,,,,,,,,,,,,,,3,weak,78,47,1,0,0,response1disk,7,74,10,3,1,0,0,rectangle,10,3,1,0,0,6,6,0.003,10,3,1,0,0,0,73,73,41,1,0,,,,,,,,,,,,,,,,,,,,,
,,,,,,,,,,,,,,,,,,,,,,,,,,,,,,,,,,,,,,,,,,5f5d2e274cddcc56953ae1ba,606a0f9794e12677aa85eeca,2021-04-04_15h12.37.481,Colour_Similarity_Experiment,2020.2.10,Win32,60,60675255c767bca6388caeee,19.52592593,19.75974026,17.85254692,18.08754624,18.10526316,18.10526316,,,,,,,,,,,,,,,,,,,,PF,3,weak,,,,,,,,7,1.567,,,,,,,,,,,,,,,,,,,,,,,,,,,,2,weak,32,87,1,0,0,response1disk,9,75,-4,7,1,0,0,rectangle,-4,7,1,0,0,6,6,0.001,-4,7,1,0,0,0,74,74,39,1,0,,,,,,,,,,,,,,,,,,,,,
,,,,,,,,,,,,,,,,,,,,,,,,,,,,,,,,,,,,,,,,,,5f5d2e274cddcc56953ae1ba,606a0f9794e12677aa85eeca,2021-04-04_15h12.37.481,Colour_Similarity_Experiment,2020.2.10,Win32,60,60675255c767bca6388caeee,19.52592593,19.75974026,17.85254692,18.08754624,18.10526316,18.10526316,,,,,,,,,,,,,,,,,,,,PF,3,strong,,,,,,,,5,1.94,,,,,,,,,,,,,,,,,,,,,,,,,,,,1,strong,86,-37,1,0,0,response3disk,2,76,26,-7,1,0,0,rectangle,26,-7,1,0,0,6,2,0.002,26,-7,1,0,0,0,75,75,2,1,0,,,,,,,,,,,,,,,,,,,,,
,,,,,,,,,,,,,,,,,,,,,,,,,,,,,,,,,,,,,,,,,,5f5d2e274cddcc56953ae1ba,606a0f9794e12677aa85eeca,2021-04-04_15h12.37.481,Colour_Similarity_Experiment,2020.2.10,Win32,60,60675255c767bca6388caeee,19.52592593,19.75974026,17.85254692,18.08754624,18.10526316,18.10526316,,,,,,,,,,,,,,,,,,,,PF,3,weak,,,,,,,,4,1.75,,,,,,,,,,,,,,,,,,,,,,,,,,,,5,weak,38,-75,1,0,0,response3disk,1,77,4,5,1,0,0,rectangle,46,83,1,0,0,7,7,2.216,10,9,1,0,0,0,76,76,159,1,1,response1disk_3,rectangle,,,,,,,,,,,,,,,,,,,
,,,,,,,,,,,,,,,,,,,,,,,,,,,,,,,,,,,,,,,,,,5f5d2e274cddcc56953ae1ba,606a0f9794e12677aa85eeca,2021-04-04_15h12.37.481,Colour_Similarity_Experiment,2020.2.10,Win32,60,60675255c767bca6388caeee,19.52592593,19.75974026,17.85254692,18.08754624,18.10526316,18.10526316,,,,,,,,,,,,,,,,,,,,PF,3,weak,,,,,,,,6,0.736,,,,,,,,,,,,,,,,,,,,,,,,,,,,4,weak,66,15,1,0,0,response1disk,5,78,14,13,1,0,0,rectangle,14,13,1,0,0,7,2,0.006,14,13,1,0,0,0,77,77,49,1,0,,,,,,,,,,,,,,,,,,,,,
,,,,,,,,,,,,,,,,,,,,,,,,,,,,,,,,,,,,,,,,,,5f5d2e274cddcc56953ae1ba,606a0f9794e12677aa85eeca,2021-04-04_15h12.37.481,Colour_Similarity_Experiment,2020.2.10,Win32,60,60675255c767bca6388caeee,19.52592593,19.75974026,17.85254692,18.08754624,18.10526316,18.10526316,,,,,,,,,,,,,,,,,,,,PF,3,weak,,,,,,,,4,0.893,,,,,,,,,,,,,,,,,,,,,,,,,,,,1,weak,30,-81,1,0,0,response3disk,5,79,14,13,1,0,0,rectangle,14,13,1,0,0,7,4,0.001,14,13,1,0,0,0,78,78,28,1,0,,,,,,,,,,,,,,,,,,,,,
,,,,,,,,,,,,,,,,,,,,,,,,,,,,,,,,,,,,,,,,,,5f5d2e274cddcc56953ae1ba,606a0f9794e12677aa85eeca,2021-04-04_15h12.37.481,Colour_Similarity_Experiment,2020.2.10,Win32,60,60675255c767bca6388caeee,19.52592593,19.75974026,17.85254692,18.08754624,18.10526316,18.10526316,,,,,,,,,,,,,,,,,,,,PF,3,strong,,,,,,,,3,0.788,,,,,,,,,,,,,,,,,,,,,,,,,,,,6,strong,-54,-75,1,0,0,response5disk,4,80,2,-5,1,0,0,rectangle,2,-5,1,0,0,7,7,0.005,2,-5,1,0,0,0,79,79,56,1,0,,,,,,,,,,,,,,,,,,,,,
,,,,,,,,,,,,,,,,,,,,,,,,,,,,,,,,,,,,,,,,,,5f5d2e274cddcc56953ae1ba,606a0f9794e12677aa85eeca,2021-04-04_15h12.37.481,Colour_Similarity_Experiment,2020.2.10,Win32,60,60675255c767bca6388caeee,19.52592593,19.75974026,17.85254692,18.08754624,18.10526316,18.10526316,,,,,,,,,,,,,,,,,,,,PF,3,strong,,,,,,,,6,1.024,,,,,,,,,,,,,,,,,,,,,,,,,,,,2,strong,62,27,1,0,0,response1disk,7,81,22,-15,1,0,0,rectangle,22,-15,1,0,0,5,4,0.004,22,-15,1,0,0,0,80,80,63,1,0,,,,,,,,,,,,,,,,,,,,,
,,,,,,,,,,,,,,,,,,,,,,,,,,,,,,,,,,,,,,,,,,5f5d2e274cddcc56953ae1ba,606a0f9794e12677aa85eeca,2021-04-04_15h12.37.481,Colour_Similarity_Experiment,2020.2.10,Win32,60,60675255c767bca6388caeee,19.52592593,19.75974026,17.85254692,18.08754624,18.10526316,18.10526316,,,,,,,,,,,,,,,,,,,,PF,3,weak,,,,,,,,1,0.787,,,,,,,,,,,,,,,,,,,,,,,,,,,,6,weak,-58,27,1,0,0,response7disk,1,82,2,5,1,0,0,rectangle,2,5,1,0,0,5,7,0.005,2,5,1,0,0,0,81,81,46,1,0,,,,,,,,,,,,,,,,,,,,,
,,,,,,,,,,,,,,,,,,,,,,,,,,,,,,,,,,,,,,,,,,5f5d2e274cddcc56953ae1ba,606a0f9794e12677aa85eeca,2021-04-04_15h12.37.481,Colour_Similarity_Experiment,2020.2.10,Win32,60,60675255c767bca6388caeee,19.52592593,19.75974026,17.85254692,18.08754624,18.10526316,18.10526316,,,,,,,,,,,,,,,,,,,,PF,3,weak,,,,,,,,4,0.836,,,,,,,,,,,,,,,,,,,,,,,,,,,,7,weak,32,-47,1,0,0,response3disk,8,83,10,-9,1,0,0,rectangle,10,-9,1,0,0,5,4,0.001,10,-9,1,0,0,0,82,82,140,1,0,,,,,,,,,,,,,,,,,,,,,
,,,,,,,,,,,,,,,,,,,,,,,,,,,,,,,,,,,,,,,,,,5f5d2e274cddcc56953ae1ba,606a0f9794e12677aa85eeca,2021-04-04_15h12.37.481,Colour_Similarity_Experiment,2020.2.10,Win32,60,60675255c767bca6388caeee,19.52592593,19.75974026,17.85254692,18.08754624,18.10526316,18.10526316,,,,,,,,,,,,,,,,,,,,PF,3,weak,,,,,,,,3,0.985,,,,,,,,,,,,,,,,,,,,,,,,,,,,5,weak,-44,-59,1,0,0,response5disk,6,84,-12,-7,1,0,0,rectangle,-12,-7,1,0,0,5,3,0.004,-12,-7,1,0,0,0,83,83,103,1,0,,,,,,,,,,,,,,,,,,,,,
,,,,,,,,,,,,,,,,,,,,,,,,,,,,,,,,,,,,,,,,,,5f5d2e274cddcc56953ae1ba,606a0f9794e12677aa85eeca,2021-04-04_15h12.37.481,Colour_Similarity_Experiment,2020.2.10,Win32,60,60675255c767bca6388caeee,19.52592593,19.75974026,17.85254692,18.08754624,18.10526316,18.10526316,,,,,,,,,,,,,,,,,,,,PF,3,strong,,,,,,,,5,0.938,,,,,,,,,,,,,,,,,,,,,,,,,,,,7,strong,80,-43,1,0,0,response3disk,9,85,4,-11,1,0,0,rectangle,4,-11,1,0,0,5,6,0.004,4,-11,1,0,0,0,84,84,155,1,0,,,,,,,,,,,,,,,,,,,,,
,,,,,,,,,,,,,,,,,,,,,,,,,,,,,,,,,,,,,,,,,,5f5d2e274cddcc56953ae1ba,606a0f9794e12677aa85eeca,2021-04-04_15h12.37.481,Colour_Similarity_Experiment,2020.2.10,Win32,60,60675255c767bca6388caeee,19.52592593,19.75974026,17.85254692,18.08754624,18.10526316,18.10526316,,,,,,,,,,,,,,,,,,,,PF,3,weak,,,,,,,,1,1.417,,,,,,,,,,,,,,,,,,,,,,,,,,,,3,weak,-44,35,1,0,0,response7disk,8,86,10,-3,1,0,0,rectangle,10,-3,1,0,0,5,7,0.005,10,-3,1,0,0,0,85,85,3,1,0,,,,,,,,,,,,,,,,,,,,,
,,,,,,,,,,,,,,,,,,,,,,,,,,,,,,,,,,,,,,,,,,5f5d2e274cddcc56953ae1ba,606a0f9794e12677aa85eeca,2021-04-04_15h12.37.481,Colour_Similarity_Experiment,2020.2.10,Win32,60,60675255c767bca6388caeee,19.52592593,19.75974026,17.85254692,18.08754624,18.10526316,18.10526316,,,,,,,,,,,,,,,,,,,,PF,3,strong,,,,,,,,0,1.272,,,,,,,,,,,,,,,,,,,,,,,,,,,,4,strong,-22,57,1,0,0,response7disk,2,87,4,-9,1,0,0,rectangle,4,-9,1,0,0,5,4,0.004,4,-9,1,0,0,0,86,86,13,1,0,,,,,,,,,,,,,,,,,,,,,
,,,,,,,,,,,,,,,,,,,,,,,,,,,,,,,,,,,,,,,,,,5f5d2e274cddcc56953ae1ba,606a0f9794e12677aa85eeca,2021-04-04_15h12.37.481,Colour_Similarity_Experiment,2020.2.10,Win32,60,60675255c767bca6388caeee,19.52592593,19.75974026,17.85254692,18.08754624,18.10526316,18.10526316,,,,,,,,,,,,,,,,,,,,PF,3,weak,,,,,,,,7,1.542,,,,,,,,,,,,,,,,,,,,,,,,,,,,3,weak,44,67,1,0,0,response1disk,5,88,-12,-15,1,0,0,rectangle,-12,-15,1,0,0,5,2,0.003,-12,-15,1,0,0,0,87,87,66,1,0,,,,,,,,,,,,,,,,,,,,,
,,,,,,,,,,,,,,,,,,,,,,,,,,,,,,,,,,,,,,,,,,5f5d2e274cddcc56953ae1ba,606a0f9794e12677aa85eeca,2021-04-04_15h12.37.481,Colour_Similarity_Experiment,2020.2.10,Win32,60,60675255c767bca6388caeee,19.52592593,19.75974026,17.85254692,18.08754624,18.10526316,18.10526316,,,,,,,,,,,,,,,,,,,,PF,3,strong,,,,,,,,4,1.241,,,,,,,,,,,,,,,,,,,,,,,,,,,,4,strong,54,-63,1,0,0,response3disk,7,89,-6,7,1,0,0,rectangle,-6,7,1,0,0,5,7,0.002,-6,7,1,0,0,0,88,88,87,1,0,,,,,,,,,,,,,,,,,,,,,
,,,,,,,,,,,,,,,,,,,,,,,,,,,,,,,,,,,,,,,,,,5f5d2e274cddcc56953ae1ba,606a0f9794e12677aa85eeca,2021-04-04_15h12.37.481,Colour_Similarity_Experiment,2020.2.10,Win32,60,60675255c767bca6388caeee,19.52592593,19.75974026,17.85254692,18.08754624,18.10526316,18.10526316,,,,,,,,,,,,,,,,,,,,PF,3,weak,,,,,,,,1,2.312,,,,,,,,,,,,,,,,,,,,,,,,,,,,6,weak,-72,37,1,0,0,response7disk,2,90,2,-3,1,0,0,rectangle,2,-3,1,0,0,5,7,0.001,2,-3,1,0,0,0,89,89,130,1,0,,,,,,,,,,,,,,,,,,,,,
,,,,,,,,,,,,,,,,,,,,,,,,,,,,,,,,,,,,,,,,,,5f5d2e274cddcc56953ae1ba,606a0f9794e12677aa85eeca,2021-04-04_15h12.37.481,Colour_Similarity_Experiment,2020.2.10,Win32,60,60675255c767bca6388caeee,19.52592593,19.75974026,17.85254692,18.08754624,18.10526316,18.10526316,,,,,,,,,,,,,,,,,,,,PF,3,strong,,,,,,,,3,0.773,,,,,,,,,,,,,,,,,,,,,,,,,,,,5,strong,-36,-87,1,0,0,response5disk,1,91,28,1,1,0,0,rectangle,28,1,1,0,0,5,1,0.002,28,1,1,0,0,0,90,90,131,1,0,,,,,,,,,,,,,,,,,,,,,
,,,,,,,,,,,,,,,,,,,,,,,,,,,,,,,,,,,,,,,,,,5f5d2e274cddcc56953ae1ba,606a0f9794e12677aa85eeca,2021-04-04_15h12.37.481,Colour_Similarity_Experiment,2020.2.10,Win32,60,60675255c767bca6388caeee,19.52592593,19.75974026,17.85254692,18.08754624,18.10526316,18.10526316,,,,,,,,,,,,,,,,,,,,PF,3,strong,,,,,,,,4,1.65,,,,,,,,,,,,,,,,,,,,,,,,,,,,1,strong,52,-99,1,0,0,response3disk,5,92,-14,5,1,0,0,rectangle,-14,5,1,0,0,5,7,0.005,-14,5,1,0,0,0,91,91,82,1,0,,,,,,,,,,,,,,,,,,,,,
,,,,,,,,,,,,,,,,,,,,,,,,,,,,,,,,,,,,,,,,,,5f5d2e274cddcc56953ae1ba,606a0f9794e12677aa85eeca,2021-04-04_15h12.37.481,Colour_Similarity_Experiment,2020.2.10,Win32,60,60675255c767bca6388caeee,19.52592593,19.75974026,17.85254692,18.08754624,18.10526316,18.10526316,,,,,,,,,,,,,,,,,,,,PF,3,strong,,,,,,,,2,1.55,,,,,,,,,,,,,,,,,,,,,,,,,,,,7,strong,-74,-25,1,0,0,response5disk,3,93,4,9,1,0,0,rectangle,4,9,1,0,0,5,0,0.002,4,9,1,0,0,0,92,92,73,1,0,,,,,,,,,,,,,,,,,,,,,
,,,,,,,,,,,,,,,,,,,,,,,,,,,,,,,,,,,,,,,,,,5f5d2e274cddcc56953ae1ba,606a0f9794e12677aa85eeca,2021-04-04_15h12.37.481,Colour_Similarity_Experiment,2020.2.10,Win32,60,60675255c767bca6388caeee,19.52592593,19.75974026,17.85254692,18.08754624,18.10526316,18.10526316,,,,,,,,,,,,,,,,,,,,PF,3,weak,,,,,,,,7,1.344,,,,,,,,,,,,,,,,,,,,,,,,,,,,3,weak,48,69,1,0,0,response1disk,2,94,4,-5,1,0,0,rectangle,106,39,1,0,0,6,6,1.883,6,-9,1,0,0,0,93,93,36,1,1,response1disk_3,rectangle,,,,,,,,,,,,,,,,,,,
,,,,,,,,,,,,,,,,,,,,,,,,,,,,,,,,,,,,,,,,,,5f5d2e274cddcc56953ae1ba,606a0f9794e12677aa85eeca,2021-04-04_15h12.37.481,Colour_Similarity_Experiment,2020.2.10,Win32,60,60675255c767bca6388caeee,19.52592593,19.75974026,17.85254692,18.08754624,18.10526316,18.10526316,,,,,,,,,,,,,,,,,,,,PF,3,weak,,,,,,,,4,0.716,,,,,,,,,,,,,,,,,,,,,,,,,,,,9,weak,60,-69,1,0,0,response3disk,2,95,8,-3,1,0,0,rectangle,8,-3,1,0,0,6,5,0.005,8,-3,1,0,0,0,94,94,157,1,0,,,,,,,,,,,,,,,,,,,,,
,,,,,,,,,,,,,,,,,,,,,,,,,,,,,,,,,,,,,,,,,,5f5d2e274cddcc56953ae1ba,606a0f9794e12677aa85eeca,2021-04-04_15h12.37.481,Colour_Similarity_Experiment,2020.2.10,Win32,60,60675255c767bca6388caeee,19.52592593,19.75974026,17.85254692,18.08754624,18.10526316,18.10526316,,,,,,,,,,,,,,,,,,,,PF,3,weak,,,,,,,,7,1.06,,,,,,,,,,,,,,,,,,,,,,,,,,,,8,weak,20,83,1,0,0,response1disk,2,96,-30,9,1,0,0,rectangle,-30,9,1,0,0,6,3,0.004,-30,9,1,0,0,0,95,95,83,1,0,,,,,,,,,,,,,,,,,,,,,
,,,,,,,,,,,,,,,,,,,,,,,,,,,,,,,,,,,,,,,,,,5f5d2e274cddcc56953ae1ba,606a0f9794e12677aa85eeca,2021-04-04_15h12.37.481,Colour_Similarity_Experiment,2020.2.10,Win32,60,60675255c767bca6388caeee,19.52592593,19.75974026,17.85254692,18.08754624,18.10526316,18.10526316,,,,,,,,,,,,,,,,,,,,PF,3,weak,,,,,,,,0,0.975,,,,,,,,,,,,,,,,,,,,,,,,,,,,2,weak,-36,65,1,0,0,response7disk,2,97,2,-7,1,0,0,rectangle,2,-7,1,0,0,6,1,0.002,2,-7,1,0,0,0,96,96,14,1,0,,,,,,,,,,,,,,,,,,,,,
,,,,,,,,,,,,,,,,,,,,,,,,,,,,,,,,,,,,,,,,,,5f5d2e274cddcc56953ae1ba,606a0f9794e12677aa85eeca,2021-04-04_15h12.37.481,Colour_Similarity_Experiment,2020.2.10,Win32,60,60675255c767bca6388caeee,19.52592593,19.75974026,17.85254692,18.08754624,18.10526316,18.10526316,,,,,,,,,,,,,,,,,,,,PF,3,weak,,,,,,,,6,1.766,,,,,,,,,,,,,,,,,,,,,,,,,,,,4,weak,98,27,1,0,0,response1disk,2,98,0,7,1,0,0,rectangle,0,7,1,0,0,6,4,0.004,0,7,1,0,0,0,97,97,108,1,0,,,,,,,,,,,,,,,,,,,,,
,,,,,,,,,,,,,,,,,,,,,,,,,,,,,,,,,,,,,,,,,,5f5d2e274cddcc56953ae1ba,606a0f9794e12677aa85eeca,2021-04-04_15h12.37.481,Colour_Similarity_Experiment,2020.2.10,Win32,60,60675255c767bca6388caeee,19.52592593,19.75974026,17.85254692,18.08754624,18.10526316,18.10526316,,,,,,,,,,,,,,,,,,,,PF,3,strong,,,,,,,,7,3.871,,,,,,,,,,,,,,,,,,,,,,,,,,,,3,strong,48,103,1,0,0,response1disk,1,99,2,-11,1,0,0,rectangle,2,-11,1,0,0,6,2,0.005,2,-11,1,0,0,0,98,98,125,1,0,,,,,,,,,,,,,,,,,,,,,
,,,,,,,,,,,,,,,,,,,,,,,,,,,,,,,,,,,,,,,,,,5f5d2e274cddcc56953ae1ba,606a0f9794e12677aa85eeca,2021-04-04_15h12.37.481,Colour_Similarity_Experiment,2020.2.10,Win32,60,60675255c767bca6388caeee,19.52592593,19.75974026,17.85254692,18.08754624,18.10526316,18.10526316,,,,,,,,,,,,,,,,,,,,PF,3,weak,,,,,,,,7,1.511,,,,,,,,,,,,,,,,,,,,,,,,,,,,7,weak,46,67,1,0,0,response1disk,1,100,-2,1,1,0,0,rectangle,-2,1,1,0,0,6,2,0,-2,1,1,0,0,0,99,99,53,1,0,,,,,,,,,,,,,,,,,,,,,
,,,,,,,,,,,,,,,,,,,,,,,,,,,,,,,,,,,,,,,,,,5f5d2e274cddcc56953ae1ba,606a0f9794e12677aa85eeca,2021-04-04_15h12.37.481,Colour_Similarity_Experiment,2020.2.10,Win32,60,60675255c767bca6388caeee,19.52592593,19.75974026,17.85254692,18.08754624,18.10526316,18.10526316,,,,,,,,,,,,,,,,,,,,PF,3,weak,,,,,,,,6,0.735,,,,,,,,,,,,,,,,,,,,,,,,,,,,2,weak,62,27,1,0,0,response1disk,4,101,12,-7,1,0,0,rectangle,12,-7,1,0,0,6,0,0.002,12,-7,1,0,0,0,100,100,127,1,0,,,,,,,,,,,,,,,,,,,,,
,,,,,,,,,,,,,,,,,,,,,,,,,,,,,,,,,,,,,,,,,,5f5d2e274cddcc56953ae1ba,606a0f9794e12677aa85eeca,2021-04-04_15h12.37.481,Colour_Similarity_Experiment,2020.2.10,Win32,60,60675255c767bca6388caeee,19.52592593,19.75974026,17.85254692,18.08754624,18.10526316,18.10526316,,,,,,,,,,,,,,,,,,,,PF,3,strong,,,,,,,,3,2.136,,,,,,,,,,,,,,,,,,,,,,,,,,,,3,strong,-44,-55,1,0,0,response5disk,2,102,-12,-3,1,0,0,rectangle,-12,-3,1,0,0,6,7,0.004,-12,-3,1,0,0,0,101,101,93,1,0,,,,,,,,,,,,,,,,,,,,,
,,,,,,,,,,,,,,,,,,,,,,,,,,,,,,,,,,,,,,,,,,5f5d2e274cddcc56953ae1ba,606a0f9794e12677aa85eeca,2021-04-04_15h12.37.481,Colour_Similarity_Experiment,2020.2.10,Win32,60,60675255c767bca6388caeee,19.52592593,19.75974026,17.85254692,18.08754624,18.10526316,18.10526316,,,,,,,,,,,,,,,,,,,,PF,3,weak,,,,,,,,6,1.647,,,,,,,,,,,,,,,,,,,,,,,,,,,,6,weak,64,43,1,0,0,response1disk,5,103,-6,-3,1,0,0,rectangle,-6,-3,1,0,0,6,1,0.003,-6,-3,1,0,0,0,102,102,59,1,0,,,,,,,,,,,,,,,,,,,,,
,,,,,,,,,,,,,,,,,,,,,,,,,,,,,,,,,,,,,,,,,,5f5d2e274cddcc56953ae1ba,606a0f9794e12677aa85eeca,2021-04-04_15h12.37.481,Colour_Similarity_Experiment,2020.2.10,Win32,60,60675255c767bca6388caeee,19.52592593,19.75974026,17.85254692,18.08754624,18.10526316,18.10526316,,,,,,,,,,,,,,,,,,,,PF,3,strong,,,,,,,,0,1.128,,,,,,,,,,,,,,,,,,,,,,,,,,,,1,strong,-30,61,1,0,0,response7disk,1,104,-10,-11,1,0,0,rectangle,-10,-11,1,0,0,6,4,0.004,-10,-11,1,0,0,0,103,103,151,1,0,,,,,,,,,,,,,,,,,,,,,
,,,,,,,,,,,,,,,,,,,,,,,,,,,,,,,,,,,,,,,,,,5f5d2e274cddcc56953ae1ba,606a0f9794e12677aa85eeca,2021-04-04_15h12.37.481,Colour_Similarity_Experiment,2020.2.10,Win32,60,60675255c767bca6388caeee,19.52592593,19.75974026,17.85254692,18.08754624,18.10526316,18.10526316,,,,,,,,,,,,,,,,,,,,PF,3,strong,,,,,,,,7,1.613,,,,,,,,,,,,,,,,,,,,,,,,,,,,8,strong,56,89,1,0,0,response1disk,5,105,-10,3,1,0,0,rectangle,-10,3,1,0,0,6,2,0.002,-10,3,1,0,0,0,104,104,152,1,0,,,,,,,,,,,,,,,,,,,,,
,,,,,,,,,,,,,,,,,,,,,,,,,,,,,,,,,,,,,,,,,,5f5d2e274cddcc56953ae1ba,606a0f9794e12677aa85eeca,2021-04-04_15h12.37.481,Colour_Similarity_Experiment,2020.2.10,Win32,60,60675255c767bca6388caeee,19.52592593,19.75974026,17.85254692,18.08754624,18.10526316,18.10526316,,,,,,,,,,,,,,,,,,,,PF,3,weak,,,,,,,,2,2.286,,,,,,,,,,,,,,,,,,,,,,,,,,,,1,weak,-82,-47,1,0,0,response5disk,2,106,-8,-11,1,0,0,rectangle,-8,-11,1,0,0,6,7,0.003,-8,-11,1,0,0,0,105,105,24,1,0,,,,,,,,,,,,,,,,,,,,,
,,,,,,,,,,,,,,,,,,,,,,,,,,,,,,,,,,,,,,,,,,5f5d2e274cddcc56953ae1ba,606a0f9794e12677aa85eeca,2021-04-04_15h12.37.481,Colour_Similarity_Experiment,2020.2.10,Win32,60,60675255c767bca6388caeee,19.52592593,19.75974026,17.85254692,18.08754624,18.10526316,18.10526316,,,,,,,,,,,,,,,,,,,,PF,3,strong,,,,,,,,5,1.333,,,,,,,,,,,,,,,,,,,,,,,,,,,,4,strong,68,-27,1,0,0,response3disk,9,107,-4,9,1,0,0,rectangle,-4,9,1,0,0,6,5,0.001,-4,9,1,0,0,0,106,106,90,1,0,,,,,,,,,,,,,,,,,,,,,
,,,,,,,,,,,,,,,,,,,,,,,,,,,,,,,,,,,,,,,,,,5f5d2e274cddcc56953ae1ba,606a0f9794e12677aa85eeca,2021-04-04_15h12.37.481,Colour_Similarity_Experiment,2020.2.10,Win32,60,60675255c767bca6388caeee,19.52592593,19.75974026,17.85254692,18.08754624,18.10526316,18.10526316,,,,,,,,,,,,,,,,,,,,PF,3,weak,,,,,,,,7,1.359,,,,,,,,,,,,,,,,,,,,,,,,,,,,9,weak,62,89,1,0,0,response1disk,6,108,-4,-3,1,0,0,rectangle,-4,-3,1,0,0,6,6,0.006,-4,-3,1,0,0,0,107,107,148,1,0,,,,,,,,,,,,,,,,,,,,,
,,,,,,,,,,,,,,,,,,,,,,,,,,,,,,,,,,,,,,,,,,5f5d2e274cddcc56953ae1ba,606a0f9794e12677aa85eeca,2021-04-04_15h12.37.481,Colour_Similarity_Experiment,2020.2.10,Win32,60,60675255c767bca6388caeee,19.52592593,19.75974026,17.85254692,18.08754624,18.10526316,18.10526316,,,,,,,,,,,,,,,,,,,,PF,3,weak,,,,,,,,4,1.947,,,,,,,,,,,,,,,,,,,,,,,,,,,,6,weak,44,-73,1,0,0,response3disk,4,109,-16,3,1,0,0,rectangle,-16,3,1,0,0,6,7,0.005,-16,3,1,0,0,0,108,108,33,1,0,,,,,,,,,,,,,,,,,,,,,
,,,,,,,,,,,,,,,,,,,,,,,,,,,,,,,,,,,,,,,,,,5f5d2e274cddcc56953ae1ba,606a0f9794e12677aa85eeca,2021-04-04_15h12.37.481,Colour_Similarity_Experiment,2020.2.10,Win32,60,60675255c767bca6388caeee,19.52592593,19.75974026,17.85254692,18.08754624,18.10526316,18.10526316,,,,,,,,,,,,,,,,,,,,PF,3,strong,,,,,,,,7,1.678,,,,,,,,,,,,,,,,,,,,,,,,,,,,1,strong,40,89,1,0,0,response1disk,4,110,6,15,1,0,0,rectangle,6,15,1,0,0,6,0,0.002,6,15,1,0,0,0,109,109,135,1,0,,,,,,,,,,,,,,,,,,,,,
,,,,,,,,,,,,,,,,,,,,,,,,,,,,,,,,,,,,,,,,,,5f5d2e274cddcc56953ae1ba,606a0f9794e12677aa85eeca,2021-04-04_15h12.37.481,Colour_Similarity_Experiment,2020.2.10,Win32,60,60675255c767bca6388caeee,19.52592593,19.75974026,17.85254692,18.08754624,18.10526316,18.10526316,,,,,,,,,,,,,,,,,,,,PF,3,weak,,,,,,,,1,1.358,,,,,,,,,,,,,,,,,,,,,,,,,,,,9,weak,-72,37,1,0,0,response7disk,8,111,-4,1,1,0,0,rectangle,-4,1,1,0,0,6,2,0.003,-4,1,1,0,0,0,110,110,67,1,0,,,,,,,,,,,,,,,,,,,,,
,,,,,,,,,,,,,,,,,,,,,,,,,,,,,,,,,,,,,,,,,,5f5d2e274cddcc56953ae1ba,606a0f9794e12677aa85eeca,2021-04-04_15h12.37.481,Colour_Similarity_Experiment,2020.2.10,Win32,60,60675255c767bca6388caeee,19.52592593,19.75974026,17.85254692,18.08754624,18.10526316,18.10526316,,,,,,,,,,,,,,,,,,,,PF,3,weak,,,,,,,,0,0.902,,,,,,,,,,,,,,,,,,,,,,,,,,,,7,weak,-30,69,1,0,0,response7disk,7,112,2,-3,1,0,0,rectangle,2,-3,1,0,0,6,5,0.001,2,-3,1,0,0,0,111,111,51,1,0,,,,,,,,,,,,,,,,,,,,,
,,,,,,,,,,,,,,,,,,,,,,,,,,,,,,,,,,,,,,,,,,5f5d2e274cddcc56953ae1ba,606a0f9794e12677aa85eeca,2021-04-04_15h12.37.481,Colour_Similarity_Experiment,2020.2.10,Win32,60,60675255c767bca6388caeee,19.52592593,19.75974026,17.85254692,18.08754624,18.10526316,18.10526316,,,,,,,,,,,,,,,,,,,,PF,3,strong,,,,,,,,4,1.838,,,,,,,,,,,,,,,,,,,,,,,,,,,,9,strong,32,-83,1,0,0,response3disk,9,113,-4,13,1,0,0,rectangle,-4,13,1,0,0,6,3,0.002,-4,13,1,0,0,0,112,112,17,1,0,,,,,,,,,,,,,,,,,,,,,
,,,,,,,,,,,,,,,,,,,,,,,,,,,,,,,,,,,,,,,,,,5f5d2e274cddcc56953ae1ba,606a0f9794e12677aa85eeca,2021-04-04_15h12.37.481,Colour_Similarity_Experiment,2020.2.10,Win32,60,60675255c767bca6388caeee,19.52592593,19.75974026,17.85254692,18.08754624,18.10526316,18.10526316,,,,,,,,,,,,,,,,,,,,PF,3,strong,,,,,,,,3,0.825,,,,,,,,,,,,,,,,,,,,,,,,,,,,1,strong,-34,-57,1,0,0,response5disk,9,114,-4,1,1,0,0,rectangle,-4,1,1,0,0,6,2,0.002,-4,1,1,0,0,0,113,113,123,1,0,,,,,,,,,,,,,,,,,,,,,
,,,,,,,,,,,,,,,,,,,,,,,,,,,,,,,,,,,,,,,,,,5f5d2e274cddcc56953ae1ba,606a0f9794e12677aa85eeca,2021-04-04_15h12.37.481,Colour_Similarity_Experiment,2020.2.10,Win32,60,60675255c767bca6388caeee,19.52592593,19.75974026,17.85254692,18.08754624,18.10526316,18.10526316,,,,,,,,,,,,,,,,,,,,PF,3,weak,,,,,,,,2,1.899,,,,,,,,,,,,,,,,,,,,,,,,,,,,8,weak,-118,-43,1,0,0,response5disk,6,115,-22,5,1,0,0,rectangle,-66,-43,1,0,0,6,2,2.151,20,4,1,0,0,0,114,114,161,1,1,response5disk_3,rectangle,,,,,,,,,,,,,,,,,,,
,,,,,,,,,,,,,,,,,,,,,,,,,,,,,,,,,,,,,,,,,,5f5d2e274cddcc56953ae1ba,606a0f9794e12677aa85eeca,2021-04-04_15h12.37.481,Colour_Similarity_Experiment,2020.2.10,Win32,60,60675255c767bca6388caeee,19.52592593,19.75974026,17.85254692,18.08754624,18.10526316,18.10526316,,,,,,,,,,,,,,,,,,,,PF,3,strong,,,,,,,,1,1.934,,,,,,,,,,,,,,,,,,,,,,,,,,,,1,strong,-78,38,1,0,0,response7disk,3,116,28,0,1,0,0,rectangle,28,0,1,0,0,6,2,0.001,28,0,1,0,0,0,115,115,99,1,0,,,,,,,,,,,,,,,,,,,,,
,,,,,,,,,,,,,,,,,,,,,,,,,,,,,,,,,,,,,,,,,,5f5d2e274cddcc56953ae1ba,606a0f9794e12677aa85eeca,2021-04-04_15h12.37.481,Colour_Similarity_Experiment,2020.2.10,Win32,60,60675255c767bca6388caeee,19.52592593,19.75974026,17.85254692,18.08754624,18.10526316,18.10526316,,,,,,,,,,,,,,,,,,,,PF,3,strong,,,,,,,,1,1.802,,,,,,,,,,,,,,,,,,,,,,,,,,,,7,strong,-88,44,1,0,0,response7disk,1,117,12,8,1,0,0,rectangle,12,8,1,0,0,6,6,0.002,12,8,1,0,0,0,116,116,132,1,0,,,,,,,,,,,,,,,,,,,,,
,,,,,,,,,,,,,,,,,,,,,,,,,,,,,,,,,,,,,,,,,,5f5d2e274cddcc56953ae1ba,606a0f9794e12677aa85eeca,2021-04-04_15h12.37.481,Colour_Similarity_Experiment,2020.2.10,Win32,60,60675255c767bca6388caeee,19.52592593,19.75974026,17.85254692,18.08754624,18.10526316,18.10526316,,,,,,,,,,,,,,,,,,,,PF,3,strong,,,,,,,,7,1.45,,,,,,,,,,,,,,,,,,,,,,,,,,,,8,strong,48,78,1,0,0,response1disk,7,118,0,0,1,0,0,rectangle,0,0,1,0,0,6,4,0.002,0,0,1,0,0,0,117,117,86,1,0,,,,,,,,,,,,,,,,,,,,,
,,,,,,,,,,,,,,,,,,,,,,,,,,,,,,,,,,,,,,,,,,5f5d2e274cddcc56953ae1ba,606a0f9794e12677aa85eeca,2021-04-04_15h12.37.481,Colour_Similarity_Experiment,2020.2.10,Win32,60,60675255c767bca6388caeee,19.52592593,19.75974026,17.85254692,18.08754624,18.10526316,18.10526316,,,,,,,,,,,,,,,,,,,,PF,3,strong,,,,,,,,3,0.723,,,,,,,,,,,,,,,,,,,,,,,,,,,,9,strong,-98,-102,1,0,0,response5disk,7,119,8,8,1,0,0,rectangle,8,8,1,0,0,6,0,0.001,8,8,1,0,0,0,118,118,100,1,0,,,,,,,,,,,,,,,,,,,,,
,,,,,,,,,,,,,,,,,,,,,,,,,,,,,,,,,,,,,,,,,,5f5d2e274cddcc56953ae1ba,606a0f9794e12677aa85eeca,2021-04-04_15h12.37.481,Colour_Similarity_Experiment,2020.2.10,Win32,60,60675255c767bca6388caeee,19.52592593,19.75974026,17.85254692,18.08754624,18.10526316,18.10526316,,,,,,,,,,,,,,,,,,,,PF,3,strong,,,,,,,,1,1.421,,,,,,,,,,,,,,,,,,,,,,,,,,,,4,strong,-54,38,1,0,0,response7disk,3,120,12,-10,1,0,0,rectangle,12,-10,1,0,0,6,2,0.002,12,-10,1,0,0,0,119,119,77,1,0,,,,,,,,,,,,,,,,,,,,,
,,,,,,,,,,,,,,,,,,,,,,,,,,,,,,,,,,,,,,,,,,5f5d2e274cddcc56953ae1ba,606a0f9794e12677aa85eeca,2021-04-04_15h12.37.481,Colour_Similarity_Experiment,2020.2.10,Win32,60,60675255c767bca6388caeee,19.52592593,19.75974026,17.85254692,18.08754624,18.10526316,18.10526316,,,,,,,,,,,,,,,,,,,,PF,3,strong,,,,,,,,6,1.433,,,,,,,,,,,,,,,,,,,,,,,,,,,,2,strong,96,60,1,0,0,response1disk,6,121,12,4,1,0,0,rectangle,12,4,1,0,0,6,6,0.004,12,4,1,0,0,0,120,120,40,1,0,,,,,,,,,,,,,,,,,,,,,
,,,,,,,,,,,,,,,,,,,,,,,,,,,,,,,,,,,,,,,,,,5f5d2e274cddcc56953ae1ba,606a0f9794e12677aa85eeca,2021-04-04_15h12.37.481,Colour_Similarity_Experiment,2020.2.10,Win32,60,60675255c767bca6388caeee,19.52592593,19.75974026,17.85254692,18.08754624,18.10526316,18.10526316,,,,,,,,,,,,,,,,,,,,PF,3,weak,,,,,,,,7,1.809,,,,,,,,,,,,,,,,,,,,,,,,,,,,1,weak,54,60,1,0,0,response1disk,8,122,16,10,1,0,0,rectangle,16,10,1,0,0,6,7,0.004,16,10,1,0,0,0,121,121,65,1,0,,,,,,,,,,,,,,,,,,,,,
,,,,,,,,,,,,,,,,,,,,,,,,,,,,,,,,,,,,,,,,,,5f5d2e274cddcc56953ae1ba,606a0f9794e12677aa85eeca,2021-04-04_15h12.37.481,Colour_Similarity_Experiment,2020.2.10,Win32,60,60675255c767bca6388caeee,19.52592593,19.75974026,17.85254692,18.08754624,18.10526316,18.10526316,,,,,,,,,,,,,,,,,,,,PF,3,strong,,,,,,,,0,1.209,,,,,,,,,,,,,,,,,,,,,,,,,,,,6,strong,-56,110,1,0,0,response7disk,3,123,4,-4,1,0,0,rectangle,4,-4,1,0,0,6,0,0.002,4,-4,1,0,0,0,122,122,21,1,0,,,,,,,,,,,,,,,,,,,,,
,,,,,,,,,,,,,,,,,,,,,,,,,,,,,,,,,,,,,,,,,,5f5d2e274cddcc56953ae1ba,606a0f9794e12677aa85eeca,2021-04-04_15h12.37.481,Colour_Similarity_Experiment,2020.2.10,Win32,60,60675255c767bca6388caeee,19.52592593,19.75974026,17.85254692,18.08754624,18.10526316,18.10526316,,,,,,,,,,,,,,,,,,,,PF,3,weak,,,,,,,,7,1.123,,,,,,,,,,,,,,,,,,,,,,,,,,,,4,weak,50,96,1,0,0,response1disk,6,124,18,14,1,0,0,rectangle,18,14,1,0,0,6,2,0.003,18,14,1,0,0,0,123,123,120,1,0,,,,,,,,,,,,,,,,,,,,,
,,,,,,,,,,,,,,,,,,,,,,,,,,,,,,,,,,,,,,,,,,5f5d2e274cddcc56953ae1ba,606a0f9794e12677aa85eeca,2021-04-04_15h12.37.481,Colour_Similarity_Experiment,2020.2.10,Win32,60,60675255c767bca6388caeee,19.52592593,19.75974026,17.85254692,18.08754624,18.10526316,18.10526316,,,,,,,,,,,,,,,,,,,,PF,3,weak,,,,,,,,1,1.623,,,,,,,,,,,,,,,,,,,,,,,,,,,,2,weak,-90,20,1,0,0,response7disk,3,125,10,2,1,0,0,rectangle,10,2,1,0,0,6,7,0.002,10,2,1,0,0,0,124,124,69,1,0,,,,,,,,,,,,,,,,,,,,,
,,,,,,,,,,,,,,,,,,,,,,,,,,,,,,,,,,,,,,,,,,5f5d2e274cddcc56953ae1ba,606a0f9794e12677aa85eeca,2021-04-04_15h12.37.481,Colour_Similarity_Experiment,2020.2.10,Win32,60,60675255c767bca6388caeee,19.52592593,19.75974026,17.85254692,18.08754624,18.10526316,18.10526316,,,,,,,,,,,,,,,,,,,,PF,3,weak,,,,,,,,6,1.709,,,,,,,,,,,,,,,,,,,,,,,,,,,,7,weak,72,48,1,0,0,response1disk,2,126,28,4,1,0,0,rectangle,28,4,1,0,0,6,0,0.003,28,4,1,0,0,0,125,125,32,1,0,,,,,,,,,,,,,,,,,,,,,
,,,,,,,,,,,,,,,,,,,,,,,,,,,,,,,,,,,,,,,,,,5f5d2e274cddcc56953ae1ba,606a0f9794e12677aa85eeca,2021-04-04_15h12.37.481,Colour_Similarity_Experiment,2020.2.10,Win32,60,60675255c767bca6388caeee,19.52592593,19.75974026,17.85254692,18.08754624,18.10526316,18.10526316,,,,,,,,,,,,,,,,,,,,PF,3,weak,,,,,,,,5,1.918,,,,,,,,,,,,,,,,,,,,,,,,,,,,1,weak,82,-32,1,0,0,response3disk,6,127,12,4,1,0,0,rectangle,12,4,1,0,0,6,0,0.001,12,4,1,0,0,0,126,126,144,1,0,,,,,,,,,,,,,,,,,,,,,
,,,,,,,,,,,,,,,,,,,,,,,,,,,,,,,,,,,,,,,,,,5f5d2e274cddcc56953ae1ba,606a0f9794e12677aa85eeca,2021-04-04_15h12.37.481,Colour_Similarity_Experiment,2020.2.10,Win32,60,60675255c767bca6388caeee,19.52592593,19.75974026,17.85254692,18.08754624,18.10526316,18.10526316,,,,,,,,,,,,,,,,,,,,PF,3,strong,,,,,,,,3,2.277,,,,,,,,,,,,,,,,,,,,,,,,,,,,8,strong,-60,-92,1,0,0,response5disk,3,128,10,-6,1,0,0,rectangle,10,-6,1,0,0,6,0,0,10,-6,1,0,0,0,127,127,154,1,0,,,,,,,,,,,,,,,,,,,,,
,,,,,,,,,,,,,,,,,,,,,,,,,,,,,,,,,,,,,,,,,,5f5d2e274cddcc56953ae1ba,606a0f9794e12677aa85eeca,2021-04-04_15h12.37.481,Colour_Similarity_Experiment,2020.2.10,Win32,60,60675255c767bca6388caeee,19.52592593,19.75974026,17.85254692,18.08754624,18.10526316,18.10526316,,,,,,,,,,,,,,,,,,,,PF,3,weak,,,,,,,,5,195.991,,,,,,,,,,,,,,,,,,,,,,,,,,,,8,weak,84,-36,1,0,0,response3disk,7,129,-14,0,1,0,0,rectangle,-14,0,1,0,0,6,7,0.003,-14,0,1,0,0,0,128,128,23,1,0,,,,,,,,,,,,,,,,,,,,,
,,,,,,,,,,,,,,,,,,,,,,,,,,,,,,,,,,,,,,,,,,5f5d2e274cddcc56953ae1ba,606a0f9794e12677aa85eeca,2021-04-04_15h12.37.481,Colour_Similarity_Experiment,2020.2.10,Win32,60,60675255c767bca6388caeee,19.52592593,19.75974026,17.85254692,18.08754624,18.10526316,18.10526316,,,,,,,,,,,,,,,,,,,,PF,3,strong,,,,,,,,6,1.638,,,,,,,,,,,,,,,,,,,,,,,,,,,,5,strong,52,36,1,0,0,response1disk,6,130,12,-2,1,0,0,rectangle,12,-2,1,0,0,6,3,0.001,12,-2,1,0,0,0,129,129,12,1,0,,,,,,,,,,,,,,,,,,,,,
,,,,,,,,,,,,,,,,,,,,,,,,,,,,,,,,,,,,,,,,,,5f5d2e274cddcc56953ae1ba,606a0f9794e12677aa85eeca,2021-04-04_15h12.37.481,Colour_Similarity_Experiment,2020.2.10,Win32,60,60675255c767bca6388caeee,19.52592593,19.75974026,17.85254692,18.08754624,18.10526316,18.10526316,,,,,,,,,,,,,,,,,,,,PF,3,strong,,,,,,,,3,0.352,,,,,,,,,,,,,,,,,,,,,,,,,,,,6,strong,-48,-70,1,0,0,response5disk,5,131,30,6,1,0,0,rectangle,30,6,1,0,0,6,0,0.004,30,6,1,0,0,0,130,130,126,1,0,,,,,,,,,,,,,,,,,,,,,
,,,,,,,,,,,,,,,,,,,,,,,,,,,,,,,,,,,,,,,,,,5f5d2e274cddcc56953ae1ba,606a0f9794e12677aa85eeca,2021-04-04_15h12.37.481,Colour_Similarity_Experiment,2020.2.10,Win32,60,60675255c767bca6388caeee,19.52592593,19.75974026,17.85254692,18.08754624,18.10526316,18.10526316,,,,,,,,,,,,,,,,,,,,PF,3,weak,,,,,,,,1,0.648,,,,,,,,,,,,,,,,,,,,,,,,,,,,2,weak,-40,26,1,0,0,response7disk,1,132,30,-10,1,0,0,rectangle,30,-10,1,0,0,6,7,0.002,30,-10,1,0,0,0,131,131,9,1,0,,,,,,,,,,,,,,,,,,,,,
,,,,,,,,,,,,,,,,,,,,,,,,,,,,,,,,,,,,,,,,,,5f5d2e274cddcc56953ae1ba,606a0f9794e12677aa85eeca,2021-04-04_15h12.37.481,Colour_Similarity_Experiment,2020.2.10,Win32,60,60675255c767bca6388caeee,19.52592593,19.75974026,17.85254692,18.08754624,18.10526316,18.10526316,,,,,,,,,,,,,,,,,,,,PF,3,strong,,,,,,,,7,0.566,,,,,,,,,,,,,,,,,,,,,,,,,,,,7,strong,44,52,1,0,0,response1disk,5,133,-4,6,1,0,0,rectangle,-4,6,1,0,0,6,3,0.004,-4,6,1,0,0,0,132,132,156,1,0,,,,,,,,,,,,,,,,,,,,,
,,,,,,,,,,,,,,,,,,,,,,,,,,,,,,,,,,,,,,,,,,5f5d2e274cddcc56953ae1ba,606a0f9794e12677aa85eeca,2021-04-04_15h12.37.481,Colour_Similarity_Experiment,2020.2.10,Win32,60,60675255c767bca6388caeee,19.52592593,19.75974026,17.85254692,18.08754624,18.10526316,18.10526316,,,,,,,,,,,,,,,,,,,,PF,3,weak,,,,,,,,4,0.596,,,,,,,,,,,,,,,,,,,,,,,,,,,,5,weak,40,-56,1,0,0,response3disk,4,134,4,-8,1,0,0,rectangle,4,-8,1,0,0,6,7,0.006,4,-8,1,0,0,0,133,133,54,1,0,,,,,,,,,,,,,,,,,,,,,
,,,,,,,,,,,,,,,,,,,,,,,,,,,,,,,,,,,,,,,,,,5f5d2e274cddcc56953ae1ba,606a0f9794e12677aa85eeca,2021-04-04_15h12.37.481,Colour_Similarity_Experiment,2020.2.10,Win32,60,60675255c767bca6388caeee,19.52592593,19.75974026,17.85254692,18.08754624,18.10526316,18.10526316,,,,,,,,,,,,,,,,,,,,PF,3,strong,,,,,,,,2,0.893,,,,,,,,,,,,,,,,,,,,,,,,,,,,4,strong,-48,-30,1,0,0,response5disk,6,135,22,12,1,0,0,rectangle,22,12,1,0,0,6,7,0,22,12,1,0,0,0,134,134,122,1,0,,,,,,,,,,,,,,,,,,,,,
,,,,,,,,,,,,,,,,,,,,,,,,,,,,,,,,,,,,,,,,,,5f5d2e274cddcc56953ae1ba,606a0f9794e12677aa85eeca,2021-04-04_15h12.37.481,Colour_Similarity_Experiment,2020.2.10,Win32,60,60675255c767bca6388caeee,19.52592593,19.75974026,17.85254692,18.08754624,18.10526316,18.10526316,,,,,,,,,,,,,,,,,,,,PF,3,weak,,,,,,,,6,0.685,,,,,,,,,,,,,,,,,,,,,,,,,,,,2,weak,58,28,1,0,0,response1disk,7,136,16,6,1,0,0,rectangle,16,6,1,0,0,6,1,0.005,16,6,1,0,0,0,135,135,107,1,0,,,,,,,,,,,,,,,,,,,,,
,,,,,,,,,,,,,,,,,,,,,,,,,,,,,,,,,,,,,,,,,,5f5d2e274cddcc56953ae1ba,606a0f9794e12677aa85eeca,2021-04-04_15h12.37.481,Colour_Similarity_Experiment,2020.2.10,Win32,60,60675255c767bca6388caeee,19.52592593,19.75974026,17.85254692,18.08754624,18.10526316,18.10526316,,,,,,,,,,,,,,,,,,,,PF,3,weak,,,,,,,,1,1.195,,,,,,,,,,,,,,,,,,,,,,,,,,,,3,weak,-112,30,1,0,0,response7disk,4,137,-14,8,1,0,0,rectangle,-14,8,1,0,0,6,1,0,-14,8,1,0,0,0,136,136,30,1,0,,,,,,,,,,,,,,,,,,,,,
,,,,,,,,,,,,,,,,,,,,,,,,,,,,,,,,,,,,,,,,,,5f5d2e274cddcc56953ae1ba,606a0f9794e12677aa85eeca,2021-04-04_15h12.37.481,Colour_Similarity_Experiment,2020.2.10,Win32,60,60675255c767bca6388caeee,19.52592593,19.75974026,17.85254692,18.08754624,18.10526316,18.10526316,,,,,,,,,,,,,,,,,,,,PF,3,strong,,,,,,,,7,1.72,,,,,,,,,,,,,,,,,,,,,,,,,,,,1,strong,58,60,1,0,0,response1disk,6,138,-14,0,1,0,0,rectangle,-14,0,1,0,0,6,0,0.002,-14,0,1,0,0,0,137,137,58,1,0,,,,,,,,,,,,,,,,,,,,,
,,,,,,,,,,,,,,,,,,,,,,,,,,,,,,,,,,,,,,,,,,5f5d2e274cddcc56953ae1ba,606a0f9794e12677aa85eeca,2021-04-04_15h12.37.481,Colour_Similarity_Experiment,2020.2.10,Win32,60,60675255c767bca6388caeee,19.52592593,19.75974026,17.85254692,18.08754624,18.10526316,18.10526316,,,,,,,,,,,,,,,,,,,,PF,3,strong,,,,,,,,7,1.225,,,,,,,,,,,,,,,,,,,,,,,,,,,,3,strong,42,64,1,0,0,response1disk,3,139,-12,2,1,0,0,rectangle,-12,2,1,0,0,6,4,0.003,-12,2,1,0,0,0,138,138,68,1,0,,,,,,,,,,,,,,,,,,,,,
,,,,,,,,,,,,,,,,,,,,,,,,,,,,,,,,,,,,,,,,,,5f5d2e274cddcc56953ae1ba,606a0f9794e12677aa85eeca,2021-04-04_15h12.37.481,Colour_Similarity_Experiment,2020.2.10,Win32,60,60675255c767bca6388caeee,19.52592593,19.75974026,17.85254692,18.08754624,18.10526316,18.10526316,,,,,,,,,,,,,,,,,,,,PF,3,strong,,,,,,,,2,0.994,,,,,,,,,,,,,,,,,,,,,,,,,,,,6,strong,-52,-22,1,0,0,response5disk,6,140,2,-6,1,0,0,rectangle,2,-6,1,0,0,6,6,0.003,2,-6,1,0,0,0,139,139,91,1,0,,,,,,,,,,,,,,,,,,,,,
,,,,,,,,,,,,,,,,,,,,,,,,,,,,,,,,,,,,,,,,,,5f5d2e274cddcc56953ae1ba,606a0f9794e12677aa85eeca,2021-04-04_15h12.37.481,Colour_Similarity_Experiment,2020.2.10,Win32,60,60675255c767bca6388caeee,19.52592593,19.75974026,17.85254692,18.08754624,18.10526316,18.10526316,,,,,,,,,,,,,,,,,,,,PF,3,strong,,,,,,,,7,1.04,,,,,,,,,,,,,,,,,,,,,,,,,,,,1,strong,52,78,1,0,0,response1disk,8,141,10,6,1,0,0,rectangle,10,6,1,0,0,6,5,0.002,10,6,1,0,0,0,140,140,27,1,0,,,,,,,,,,,,,,,,,,,,,
,,,,,,,,,,,,,,,,,,,,,,,,,,,,,,,,,,,,,,,,,,5f5d2e274cddcc56953ae1ba,606a0f9794e12677aa85eeca,2021-04-04_15h12.37.481,Colour_Similarity_Experiment,2020.2.10,Win32,60,60675255c767bca6388caeee,19.52592593,19.75974026,17.85254692,18.08754624,18.10526316,18.10526316,,,,,,,,,,,,,,,,,,,,PF,3,strong,,,,,,,,7,1.176,,,,,,,,,,,,,,,,,,,,,,,,,,,,8,strong,40,96,1,0,0,response1disk,2,142,16,6,1,0,0,rectangle,16,6,1,0,0,6,1,0.003,16,6,1,0,0,0,141,141,22,1,0,,,,,,,,,,,,,,,,,,,,,
,,,,,,,,,,,,,,,,,,,,,,,,,,,,,,,,,,,,,,,,,,5f5d2e274cddcc56953ae1ba,606a0f9794e12677aa85eeca,2021-04-04_15h12.37.481,Colour_Similarity_Experiment,2020.2.10,Win32,60,60675255c767bca6388caeee,19.52592593,19.75974026,17.85254692,18.08754624,18.10526316,18.10526316,,,,,,,,,,,,,,,,,,,,PF,3,weak,,,,,,,,6,1.513,,,,,,,,,,,,,,,,,,,,,,,,,,,,2,weak,108,20,1,0,0,response1disk,5,143,-4,8,1,0,0,rectangle,-4,8,1,0,0,6,0,0.003,-4,8,1,0,0,0,142,142,147,1,0,,,,,,,,,,,,,,,,,,,,,
,,,,,,,,,,,,,,,,,,,,,,,,,,,,,,,,,,,,,,,,,,5f5d2e274cddcc56953ae1ba,606a0f9794e12677aa85eeca,2021-04-04_15h12.37.481,Colour_Similarity_Experiment,2020.2.10,Win32,60,60675255c767bca6388caeee,19.52592593,19.75974026,17.85254692,18.08754624,18.10526316,18.10526316,,,,,,,,,,,,,,,,,,,,PF,3,weak,,,,,,,,1,0.677,,,,,,,,,,,,,,,,,,,,,,,,,,,,6,weak,-84,58,1,0,0,response7disk,3,144,24,8,1,0,0,rectangle,24,8,1,0,0,6,0,0.001,24,8,1,0,0,0,143,143,26,1,0,,,,,,,,,,,,,,,,,,,,,
,,,,,,,,,,,,,,,,,,,,,,,,,,,,,,,,,,,,,,,,,,5f5d2e274cddcc56953ae1ba,606a0f9794e12677aa85eeca,2021-04-04_15h12.37.481,Colour_Similarity_Experiment,2020.2.10,Win32,60,60675255c767bca6388caeee,19.52592593,19.75974026,17.85254692,18.08754624,18.10526316,18.10526316,,,,,,,,,,,,,,,,,,,,PF,3,weak,,,,,,,,7,0.518,,,,,,,,,,,,,,,,,,,,,,,,,,,,5,weak,38,62,1,0,0,response1disk,2,145,-6,4,1,0,0,rectangle,-6,4,1,0,0,6,1,0.005,-6,4,1,0,0,0,144,144,129,1,0,,,,,,,,,,,,,,,,,,,,,
,,,,,,,,,,,,,,,,,,,,,,,,,,,,,,,,,,,,,,,,,,5f5d2e274cddcc56953ae1ba,606a0f9794e12677aa85eeca,2021-04-04_15h12.37.481,Colour_Similarity_Experiment,2020.2.10,Win32,60,60675255c767bca6388caeee,19.52592593,19.75974026,17.85254692,18.08754624,18.10526316,18.10526316,,,,,,,,,,,,,,,,,,,,PF,3,strong,,,,,,,,6,0.879,,,,,,,,,,,,,,,,,,,,,,,,,,,,8,strong,56,42,1,0,0,response1disk,8,146,8,10,1,0,0,rectangle,8,10,1,0,0,6,7,0.005,8,10,1,0,0,0,145,145,48,1,0,,,,,,,,,,,,,,,,,,,,,
,,,,,,,,,,,,,,,,,,,,,,,,,,,,,,,,,,,,,,,,,,5f5d2e274cddcc56953ae1ba,606a0f9794e12677aa85eeca,2021-04-04_15h12.37.481,Colour_Similarity_Experiment,2020.2.10,Win32,60,60675255c767bca6388caeee,19.52592593,19.75974026,17.85254692,18.08754624,18.10526316,18.10526316,,,,,,,,,,,,,,,,,,,,PF,3,strong,,,,,,,,1,0.775,,,,,,,,,,,,,,,,,,,,,,,,,,,,2,strong,-56,42,1,0,0,response7disk,3,147,26,6,1,0,0,rectangle,66,-28,1,0,0,5,5,1.602,12,4,1,0,0,0,146,146,104,1,1,response3disk_3,rectangle,,,,,,,,,,,,,,,,,,,
,,,,,,,,,,,,,,,,,,,,,,,,,,,,,,,,,,,,,,,,,,5f5d2e274cddcc56953ae1ba,606a0f9794e12677aa85eeca,2021-04-04_15h12.37.481,Colour_Similarity_Experiment,2020.2.10,Win32,60,60675255c767bca6388caeee,19.52592593,19.75974026,17.85254692,18.08754624,18.10526316,18.10526316,,,,,,,,,,,,,,,,,,,,PF,3,strong,,,,,,,,1,0.73,,,,,,,,,,,,,,,,,,,,,,,,,,,,4,strong,-62,38,1,0,0,response7disk,4,148,16,8,1,0,0,rectangle,16,8,1,0,0,5,1,0.002,16,8,1,0,0,0,147,147,84,1,0,,,,,,,,,,,,,,,,,,,,,
,,,,,,,,,,,,,,,,,,,,,,,,,,,,,,,,,,,,,,,,,,5f5d2e274cddcc56953ae1ba,606a0f9794e12677aa85eeca,2021-04-04_15h12.37.481,Colour_Similarity_Experiment,2020.2.10,Win32,60,60675255c767bca6388caeee,19.52592593,19.75974026,17.85254692,18.08754624,18.10526316,18.10526316,,,,,,,,,,,,,,,,,,,,PF,3,strong,,,,,,,,7,0.866,,,,,,,,,,,,,,,,,,,,,,,,,,,,9,strong,54,70,1,0,0,response1disk,6,149,30,0,1,0,0,rectangle,30,0,1,0,0,5,5,0.008,30,0,1,0,0,0,148,148,117,1,0,,,,,,,,,,,,,,,,,,,,,
,,,,,,,,,,,,,,,,,,,,,,,,,,,,,,,,,,,,,,,,,,5f5d2e274cddcc56953ae1ba,606a0f9794e12677aa85eeca,2021-04-04_15h12.37.481,Colour_Similarity_Experiment,2020.2.10,Win32,60,60675255c767bca6388caeee,19.52592593,19.75974026,17.85254692,18.08754624,18.10526316,18.10526316,,,,,,,,,,,,,,,,,,,,PF,3,weak,,,,,,,,2,1.573,,,,,,,,,,,,,,,,,,,,,,,,,,,,5,weak,-84,-44,1,0,0,response5disk,3,150,-16,0,1,0,0,rectangle,-16,0,1,0,0,5,5,0.001,-16,0,1,0,0,0,149,149,109,1,0,,,,,,,,,,,,,,,,,,,,,
,,,,,,,,,,,,,,,,,,,,,,,,,,,,,,,,,,,,,,,,,,5f5d2e274cddcc56953ae1ba,606a0f9794e12677aa85eeca,2021-04-04_15h12.37.481,Colour_Similarity_Experiment,2020.2.10,Win32,60,60675255c767bca6388caeee,19.52592593,19.75974026,17.85254692,18.08754624,18.10526316,18.10526316,,,,,,,,,,,,,,,,,,,,PF,3,weak,,,,,,,,6,0.766,,,,,,,,,,,,,,,,,,,,,,,,,,,,3,weak,54,32,1,0,0,response1disk,6,151,-20,0,1,0,0,rectangle,-20,0,1,0,0,5,7,0.006,-20,0,1,0,0,0,150,150,47,1,0,,,,,,,,,,,,,,,,,,,,,
,,,,,,,,,,,,,,,,,,,,,,,,,,,,,,,,,,,,,,,,,,5f5d2e274cddcc56953ae1ba,606a0f9794e12677aa85eeca,2021-04-04_15h12.37.481,Colour_Similarity_Experiment,2020.2.10,Win32,60,60675255c767bca6388caeee,19.52592593,19.75974026,17.85254692,18.08754624,18.10526316,18.10526316,,,,,,,,,,,,,,,,,,,,PF,3,strong,,,,,,,,1,0.867,,,,,,,,,,,,,,,,,,,,,,,,,,,,9,strong,-64,32,1,0,0,response7disk,5,152,20,-4,1,0,0,rectangle,20,-4,1,0,0,5,6,0.004,20,-4,1,0,0,0,151,151,128,1,0,,,,,,,,,,,,,,,,,,,,,
,,,,,,,,,,,,,,,,,,,,,,,,,,,,,,,,,,,,,,,,,,5f5d2e274cddcc56953ae1ba,606a0f9794e12677aa85eeca,2021-04-04_15h12.37.481,Colour_Similarity_Experiment,2020.2.10,Win32,60,60675255c767bca6388caeee,19.52592593,19.75974026,17.85254692,18.08754624,18.10526316,18.10526316,,,,,,,,,,,,,,,,,,,,PF,3,weak,,,,,,,,0,1.737,,,,,,,,,,,,,,,,,,,,,,,,,,,,8,weak,-50,60,1,0,0,response7disk,3,153,14,2,1,0,0,rectangle,14,2,1,0,0,5,1,0.003,14,2,1,0,0,0,152,152,71,1,0,,,,,,,,,,,,,,,,,,,,,
,,,,,,,,,,,,,,,,,,,,,,,,,,,,,,,,,,,,,,,,,,5f5d2e274cddcc56953ae1ba,606a0f9794e12677aa85eeca,2021-04-04_15h12.37.481,Colour_Similarity_Experiment,2020.2.10,Win32,60,60675255c767bca6388caeee,19.52592593,19.75974026,17.85254692,18.08754624,18.10526316,18.10526316,,,,,,,,,,,,,,,,,,,,PF,3,strong,,,,,,,,6,1.085,,,,,,,,,,,,,,,,,,,,,,,,,,,,8,strong,102,34,1,0,0,response1disk,1,154,-6,-8,1,0,0,rectangle,-6,-8,1,0,0,5,4,0.003,-6,-8,1,0,0,0,153,153,20,1,0,,,,,,,,,,,,,,,,,,,,,
,,,,,,,,,,,,,,,,,,,,,,,,,,,,,,,,,,,,,,,,,,5f5d2e274cddcc56953ae1ba,606a0f9794e12677aa85eeca,2021-04-04_15h12.37.481,Colour_Similarity_Experiment,2020.2.10,Win32,60,60675255c767bca6388caeee,19.52592593,19.75974026,17.85254692,18.08754624,18.10526316,18.10526316,,,,,,,,,,,,,,,,,,,,PF,3,strong,,,,,,,,1,1.036,,,,,,,,,,,,,,,,,,,,,,,,,,,,9,strong,-62,34,1,0,0,response7disk,8,155,14,8,1,0,0,rectangle,14,8,1,0,0,5,7,0.004,14,8,1,0,0,0,154,154,6,1,0,,,,,,,,,,,,,,,,,,,,,
,,,,,,,,,,,,,,,,,,,,,,,,,,,,,,,,,,,,,,,,,,5f5d2e274cddcc56953ae1ba,606a0f9794e12677aa85eeca,2021-04-04_15h12.37.481,Colour_Similarity_Experiment,2020.2.10,Win32,60,60675255c767bca6388caeee,19.52592593,19.75974026,17.85254692,18.08754624,18.10526316,18.10526316,,,,,,,,,,,,,,,,,,,,PF,3,weak,,,,,,,,5,1.633,,,,,,,,,,,,,,,,,,,,,,,,,,,,4,weak,58,-44,1,0,0,response3disk,7,156,10,-2,1,0,0,rectangle,10,-2,1,0,0,5,2,0.006,10,-2,1,0,0,0,155,155,38,1,0,,,,,,,,,,,,,,,,,,,,,
,,,,,,,,,,,,,,,,,,,,,,,,,,,,,,,,,,,,,,,,,,5f5d2e274cddcc56953ae1ba,606a0f9794e12677aa85eeca,2021-04-04_15h12.37.481,Colour_Similarity_Experiment,2020.2.10,Win32,60,60675255c767bca6388caeee,19.52592593,19.75974026,17.85254692,18.08754624,18.10526316,18.10526316,,,,,,,,,,,,,,,,,,,,PF,3,strong,,,,,,,,7,1.596,,,,,,,,,,,,,,,,,,,,,,,,,,,,4,strong,42,52,1,0,0,response1disk,8,157,8,-6,1,0,0,rectangle,8,-6,1,0,0,5,5,0.006,8,-6,1,0,0,0,156,156,35,1,0,,,,,,,,,,,,,,,,,,,,,
,,,,,,,,,,,,,,,,,,,,,,,,,,,,,,,,,,,,,,,,,,5f5d2e274cddcc56953ae1ba,606a0f9794e12677aa85eeca,2021-04-04_15h12.37.481,Colour_Similarity_Experiment,2020.2.10,Win32,60,60675255c767bca6388caeee,19.52592593,19.75974026,17.85254692,18.08754624,18.10526316,18.10526316,,,,,,,,,,,,,,,,,,,,PF,3,strong,,,,,,,,1,0.937,,,,,,,,,,,,,,,,,,,,,,,,,,,,6,strong,-60,60,1,0,0,response7disk,9,158,32,4,1,0,0,rectangle,48,96,1,0,0,7,7,1.934,32,-6,1,0,0,0,157,157,160,1,1,response1disk_3,rectangle,,,,,,,,,,,,,,,,,,,
,,,,,,,,,,,,,,,,,,,,,,,,,,,,,,,,,,,,,,,,,,5f5d2e274cddcc56953ae1ba,606a0f9794e12677aa85eeca,2021-04-04_15h12.37.481,Colour_Similarity_Experiment,2020.2.10,Win32,60,60675255c767bca6388caeee,19.52592593,19.75974026,17.85254692,18.08754624,18.10526316,18.10526316,,,,,,,,,,,,,,,,,,,,PF,3,strong,,,,,,,,7,1.091,,,,,,,,,,,,,,,,,,,,,,,,,,,,4,strong,36,80,1,0,0,response1disk,5,159,8,4,1,0,0,rectangle,8,4,1,0,0,7,1,0.003,8,4,1,0,0,0,158,158,116,1,0,,,,,,,,,,,,,,,,,,,,,
,,,,,,,,,,,,,,,,,,,,,,,,,,,,,,,,,,,,,,,,,,5f5d2e274cddcc56953ae1ba,606a0f9794e12677aa85eeca,2021-04-04_15h12.37.481,Colour_Similarity_Experiment,2020.2.10,Win32,60,60675255c767bca6388caeee,19.52592593,19.75974026,17.85254692,18.08754624,18.10526316,18.10526316,,,,,,,,,,,,,,,,,,,,PF,3,strong,,,,,,,,6,0.553,,,,,,,,,,,,,,,,,,,,,,,,,,,,6,strong,56,46,1,0,0,response1disk,7,160,10,12,1,0,0,rectangle,10,12,1,0,0,7,1,0,10,12,1,0,0,0,159,159,18,1,0,,,,,,,,,,,,,,,,,,,,,
,,,,,,,,,,,,,,,,,,,,,,,,,,,,,,,,,,,,,,,,,,5f5d2e274cddcc56953ae1ba,606a0f9794e12677aa85eeca,2021-04-04_15h12.37.481,Colour_Similarity_Experiment,2020.2.10,Win32,60,60675255c767bca6388caeee,19.52592593,19.75974026,17.85254692,18.08754624,18.10526316,18.10526316,,,,,,,,,,,,,,,,,,,,PF,3,weak,,,,,,,,7,0.725,,,,,,,,,,,,,,,,,,,,,,,,,,,,1,weak,50,66,1,0,0,response1disk,1,161,-10,6,1,0,0,rectangle,-32,82,1,0,0,0,0,1.75,10,4,1,0,0,0,160,160,76,1,1,response7disk_3,rectangle,,,,,,,,,,,,,,,,,,,
,,,,,,,,,,,,,,,,,,,,,,,,,,,,,,,,,,,,,,,,,,5f5d2e274cddcc56953ae1ba,606a0f9794e12677aa85eeca,2021-04-04_15h12.37.481,Colour_Similarity_Experiment,2020.2.10,Win32,60,60675255c767bca6388caeee,19.52592593,19.75974026,17.85254692,18.08754624,18.10526316,18.10526316,,,,,,,,,,,,,,,,,,,,PF,3,strong,,,,,,,,4,0.838,,,,,,,,,,,,,,,,,,,,,,,,,,,,3,strong,58,-70,1,0,0,response3disk,7,162,-24,4,1,0,0,rectangle,-24,4,1,0,0,0,6,0.002,-24,4,1,0,0,0,161,161,118,1,0,,,,,,,,,,,,,,,,,,,,,
,,,,,,,,,,,,,,,,,,,,,,,,,,,,,,,,,,,,,,,,,,5f5d2e274cddcc56953ae1ba,606a0f9794e12677aa85eeca,2021-04-04_15h12.37.481,Colour_Similarity_Experiment,2020.2.10,Win32,60,60675255c767bca6388caeee,19.52592593,19.75974026,17.85254692,18.08754624,18.10526316,18.10526316,,,,,,,,,,,,,,,,,,,,,,,,,,,,,,,,,,,,,,,,,,,,,,,,,,,,,,,,,,,,,,,,,,,,,,,,,,,,,,,,,,,,,,,,,,,,,,,,0,0,0,0,1,,,,,,,,,,,,,,
,,,,,,,,,,,,,,,,,,,,,,,,,,,,,,,,,,,,,,,,,,5f5d2e274cddcc56953ae1ba,606a0f9794e12677aa85eeca,2021-04-04_15h12.37.481,Colour_Similarity_Experiment,2020.2.10,Win32,60,60675255c767bca6388caeee,19.52592593,19.75974026,17.85254692,18.08754624,18.10526316,18.10526316,,,,,,,,,,,,,,,,,,,,PF,3,weak,,,,,,,,1,0.822,,,,,,,,,,,,,,,,,,,,,,,,,,,,4,weak,-70,62,1,0,0,response7disk,1,163,2,-2,1,0,0,rectangle,2,-2,1,0,0,0,2,0.004,2,-2,1,0,0,0,0,0,115,1,0,,,,,,,,,,,,,,,,,,,,,
,,,,,,,,,,,,,,,,,,,,,,,,,,,,,,,,,,,,,,,,,,5f5d2e274cddcc56953ae1ba,606a0f9794e12677aa85eeca,2021-04-04_15h12.37.481,Colour_Similarity_Experiment,2020.2.10,Win32,60,60675255c767bca6388caeee,19.52592593,19.75974026,17.85254692,18.08754624,18.10526316,18.10526316,,,,,,,,,,,,,,,,,,,,PF,3,weak,,,,,,,,6,0.633,,,,,,,,,,,,,,,,,,,,,,,,,,,,7,weak,66,24,1,0,0,response1disk,4,164,10,-4,1,0,0,rectangle,10,-4,1,0,0,0,5,0.004,10,-4,1,0,0,0,1,1,43,1,0,,,,,,,,,,,,,,,,,,,,,
,,,,,,,,,,,,,,,,,,,,,,,,,,,,,,,,,,,,,,,,,,5f5d2e274cddcc56953ae1ba,606a0f9794e12677aa85eeca,2021-04-04_15h12.37.481,Colour_Similarity_Experiment,2020.2.10,Win32,60,60675255c767bca6388caeee,19.52592593,19.75974026,17.85254692,18.08754624,18.10526316,18.10526316,,,,,,,,,,,,,,,,,,,,PF,3,strong,,,,,,,,1,1.418,,,,,,,,,,,,,,,,,,,,,,,,,,,,3,strong,-84,30,1,0,0,response7disk,6,165,-26,6,1,0,0,rectangle,-26,6,1,0,0,0,6,0.001,-26,6,1,0,0,0,2,2,95,1,0,,,,,,,,,,,,,,,,,,,,,
,,,,,,,,,,,,,,,,,,,,,,,,,,,,,,,,,,,,,,,,,,5f5d2e274cddcc56953ae1ba,606a0f9794e12677aa85eeca,2021-04-04_15h12.37.481,Colour_Similarity_Experiment,2020.2.10,Win32,60,60675255c767bca6388caeee,19.52592593,19.75974026,17.85254692,18.08754624,18.10526316,18.10526316,,,,,,,,,,,,,,,,,,,,PF,3,weak,,,,,,,,0,1.008,,,,,,,,,,,,,,,,,,,,,,,,,,,,3,weak,-34,76,1,0,0,response7disk,3,166,-2,-2,1,0,0,rectangle,-2,-2,1,0,0,0,3,0.003,-2,-2,1,0,0,0,3,3,4,1,0,,,,,,,,,,,,,,,,,,,,,
,,,,,,,,,,,,,,,,,,,,,,,,,,,,,,,,,,,,,,,,,,5f5d2e274cddcc56953ae1ba,606a0f9794e12677aa85eeca,2021-04-04_15h12.37.481,Colour_Similarity_Experiment,2020.2.10,Win32,60,60675255c767bca6388caeee,19.52592593,19.75974026,17.85254692,18.08754624,18.10526316,18.10526316,,,,,,,,,,,,,,,,,,,,PF,3,strong,,,,,,,,2,1.805,,,,,,,,,,,,,,,,,,,,,,,,,,,,7,strong,-70,-54,1,0,0,response5disk,8,167,12,6,1,0,0,rectangle,-28,64,1,0,0,0,0,1.283,8,-4,1,0,0,0,4,4,97,1,1,response7disk_3,rectangle,,,,,,,,,,,,,,,,,,,
,,,,,,,,,,,,,,,,,,,,,,,,,,,,,,,,,,,,,,,,,,5f5d2e274cddcc56953ae1ba,606a0f9794e12677aa85eeca,2021-04-04_15h12.37.481,Colour_Similarity_Experiment,2020.2.10,Win32,60,60675255c767bca6388caeee,19.52592593,19.75974026,17.85254692,18.08754624,18.10526316,18.10526316,,,,,,,,,,,,,,,,,,,,PF,3,weak,,,,,,,,6,2.342,,,,,,,,,,,,,,,,,,,,,,,,,,,,9,weak,66,38,1,0,0,response1disk,3,168,-12,2,1,0,0,rectangle,-12,2,1,0,0,0,3,0.003,-12,2,1,0,0,0,5,5,119,1,0,,,,,,,,,,,,,,,,,,,,,
,,,,,,,,,,,,,,,,,,,,,,,,,,,,,,,,,,,,,,,,,,5f5d2e274cddcc56953ae1ba,606a0f9794e12677aa85eeca,2021-04-04_15h12.37.481,Colour_Similarity_Experiment,2020.2.10,Win32,60,60675255c767bca6388caeee,19.52592593,19.75974026,17.85254692,18.08754624,18.10526316,18.10526316,,,,,,,,,,,,,,,,,,,,PF,3,weak,,,,,,,,5,1.475,,,,,,,,,,,,,,,,,,,,,,,,,,,,8,weak,36,-18,1,0,0,response3disk,1,169,-10,8,1,0,0,rectangle,-10,8,1,0,0,0,6,0.004,-10,8,1,0,0,0,6,6,57,1,0,,,,,,,,,,,,,,,,,,,,,
,,,,,,,,,,,,,,,,,,,,,,,,,,,,,,,,,,,,,,,,,,5f5d2e274cddcc56953ae1ba,606a0f9794e12677aa85eeca,2021-04-04_15h12.37.481,Colour_Similarity_Experiment,2020.2.10,Win32,60,60675255c767bca6388caeee,19.52592593,19.75974026,17.85254692,18.08754624,18.10526316,18.10526316,,,,,,,,,,,,,,,,,,,,PF,3,weak,,,,,,,,6,1.925,,,,,,,,,,,,,,,,,,,,,,,,,,,,3,weak,78,46,1,0,0,response1disk,1,170,4,6,1,0,0,rectangle,4,6,1,0,0,0,1,0.006,4,6,1,0,0,0,7,7,96,1,0,,,,,,,,,,,,,,,,,,,,,
,,,,,,,,,,,,,,,,,,,,,,,,,,,,,,,,,,,,,,,,,,5f5d2e274cddcc56953ae1ba,606a0f9794e12677aa85eeca,2021-04-04_15h12.37.481,Colour_Similarity_Experiment,2020.2.10,Win32,60,60675255c767bca6388caeee,19.52592593,19.75974026,17.85254692,18.08754624,18.10526316,18.10526316,,,,,,,,,,,,,,,,,,,,PF,3,weak,,,,,,,,0,2.177,,,,,,,,,,,,,,,,,,,,,,,,,,,,1,weak,-26,48,1,0,0,response7disk,7,171,-6,-2,1,0,0,rectangle,-6,-2,1,0,0,0,5,0.005,-6,-2,1,0,0,0,8,8,150,1,0,,,,,,,,,,,,,,,,,,,,,
,,,,,,,,,,,,,,,,,,,,,,,,,,,,,,,,,,,,,,,,,,5f5d2e274cddcc56953ae1ba,606a0f9794e12677aa85eeca,2021-04-04_15h12.37.481,Colour_Similarity_Experiment,2020.2.10,Win32,60,60675255c767bca6388caeee,19.52592593,19.75974026,17.85254692,18.08754624,18.10526316,18.10526316,,,,,,,,,,,,,,,,,,,,PF,3,strong,,,,,,,,7,1.483,,,,,,,,,,,,,,,,,,,,,,,,,,,,8,strong,42,44,1,0,0,response1disk,4,172,8,10,1,0,0,rectangle,8,10,1,0,0,0,6,0.002,8,10,1,0,0,0,9,9,88,1,0,,,,,,,,,,,,,,,,,,,,,
,,,,,,,,,,,,,,,,,,,,,,,,,,,,,,,,,,,,,,,,,,5f5d2e274cddcc56953ae1ba,606a0f9794e12677aa85eeca,2021-04-04_15h12.37.481,Colour_Similarity_Experiment,2020.2.10,Win32,60,60675255c767bca6388caeee,19.52592593,19.75974026,17.85254692,18.08754624,18.10526316,18.10526316,,,,,,,,,,,,,,,,,,,,PF,3,strong,,,,,,,,1,1.377,,,,,,,,,,,,,,,,,,,,,,,,,,,,5,strong,-58,26,1,0,0,response7disk,3,173,-16,12,1,0,0,rectangle,-16,12,1,0,0,0,7,0.007,-16,12,1,0,0,0,10,10,25,1,0,,,,,,,,,,,,,,,,,,,,,
,,,,,,,,,,,,,,,,,,,,,,,,,,,,,,,,,,,,,,,,,,5f5d2e274cddcc56953ae1ba,606a0f9794e12677aa85eeca,2021-04-04_15h12.37.481,Colour_Similarity_Experiment,2020.2.10,Win32,60,60675255c767bca6388caeee,19.52592593,19.75974026,17.85254692,18.08754624,18.10526316,18.10526316,,,,,,,,,,,,,,,,,,,,PF,3,strong,,,,,,,,5,2.195,,,,,,,,,,,,,,,,,,,,,,,,,,,,1,strong,86,-28,1,0,0,response3disk,7,174,8,-4,1,0,0,rectangle,8,-4,1,0,0,0,5,0.003,8,-4,1,0,0,0,11,11,137,1,0,,,,,,,,,,,,,,,,,,,,,
,,,,,,,,,,,,,,,,,,,,,,,,,,,,,,,,,,,,,,,,,,5f5d2e274cddcc56953ae1ba,606a0f9794e12677aa85eeca,2021-04-04_15h12.37.481,Colour_Similarity_Experiment,2020.2.10,Win32,60,60675255c767bca6388caeee,19.52592593,19.75974026,17.85254692,18.08754624,18.10526316,18.10526316,,,,,,,,,,,,,,,,,,,,PF,3,strong,,,,,,,,7,1.593,,,,,,,,,,,,,,,,,,,,,,,,,,,,3,strong,24,50,1,0,0,response1disk,5,175,6,12,1,0,0,rectangle,6,12,1,0,0,0,0,0.003,6,12,1,0,0,0,12,12,101,1,0,,,,,,,,,,,,,,,,,,,,,
,,,,,,,,,,,,,,,,,,,,,,,,,,,,,,,,,,,,,,,,,,5f5d2e274cddcc56953ae1ba,606a0f9794e12677aa85eeca,2021-04-04_15h12.37.481,Colour_Similarity_Experiment,2020.2.10,Win32,60,60675255c767bca6388caeee,19.52592593,19.75974026,17.85254692,18.08754624,18.10526316,18.10526316,,,,,,,,,,,,,,,,,,,,PF,3,weak,,,,,,,,1,1.284,,,,,,,,,,,,,,,,,,,,,,,,,,,,1,weak,-74,46,1,0,0,response7disk,3,176,16,14,1,0,0,rectangle,16,14,1,0,0,0,2,0.003,16,14,1,0,0,0,13,13,1,1,0,,,,,,,,,,,,,,,,,,,,,
,,,,,,,,,,,,,,,,,,,,,,,,,,,,,,,,,,,,,,,,,,5f5d2e274cddcc56953ae1ba,606a0f9794e12677aa85eeca,2021-04-04_15h12.37.481,Colour_Similarity_Experiment,2020.2.10,Win32,60,60675255c767bca6388caeee,19.52592593,19.75974026,17.85254692,18.08754624,18.10526316,18.10526316,,,,,,,,,,,,,,,,,,,,PF,3,weak,,,,,,,,7,0.967,,,,,,,,,,,,,,,,,,,,,,,,,,,,4,weak,38,62,1,0,0,response1disk,8,177,-10,2,1,0,0,rectangle,-10,2,1,0,0,0,5,0.005,-10,2,1,0,0,0,14,14,124,1,0,,,,,,,,,,,,,,,,,,,,,
,,,,,,,,,,,,,,,,,,,,,,,,,,,,,,,,,,,,,,,,,,5f5d2e274cddcc56953ae1ba,606a0f9794e12677aa85eeca,2021-04-04_15h12.37.481,Colour_Similarity_Experiment,2020.2.10,Win32,60,60675255c767bca6388caeee,19.52592593,19.75974026,17.85254692,18.08754624,18.10526316,18.10526316,,,,,,,,,,,,,,,,,,,,PF,3,weak,,,,,,,,4,1.805,,,,,,,,,,,,,,,,,,,,,,,,,,,,7,weak,46,-84,1,0,0,response3disk,6,178,-22,4,1,0,0,rectangle,-22,4,1,0,0,0,6,0.002,-22,4,1,0,0,0,15,15,29,1,0,,,,,,,,,,,,,,,,,,,,,
,,,,,,,,,,,,,,,,,,,,,,,,,,,,,,,,,,,,,,,,,,5f5d2e274cddcc56953ae1ba,606a0f9794e12677aa85eeca,2021-04-04_15h12.37.481,Colour_Similarity_Experiment,2020.2.10,Win32,60,60675255c767bca6388caeee,19.52592593,19.75974026,17.85254692,18.08754624,18.10526316,18.10526316,,,,,,,,,,,,,,,,,,,,PF,3,weak,,,,,,,,7,1.805,,,,,,,,,,,,,,,,,,,,,,,,,,,,6,weak,44,74,1,0,0,response1disk,9,179,6,6,1,0,0,rectangle,6,6,1,0,0,0,6,0,6,6,1,0,0,0,16,16,45,1,0,,,,,,,,,,,,,,,,,,,,,
,,,,,,,,,,,,,,,,,,,,,,,,,,,,,,,,,,,,,,,,,,5f5d2e274cddcc56953ae1ba,606a0f9794e12677aa85eeca,2021-04-04_15h12.37.481,Colour_Similarity_Experiment,2020.2.10,Win32,60,60675255c767bca6388caeee,19.52592593,19.75974026,17.85254692,18.08754624,18.10526316,18.10526316,,,,,,,,,,,,,,,,,,,,PF,3,weak,,,,,,,,6,1.343,,,,,,,,,,,,,,,,,,,,,,,,,,,,9,weak,66,44,1,0,0,response1disk,5,180,6,6,1,0,0,rectangle,6,6,1,0,0,0,2,0.003,6,6,1,0,0,0,17,17,134,1,0,,,,,,,,,,,,,,,,,,,,,
,,,,,,,,,,,,,,,,,,,,,,,,,,,,,,,,,,,,,,,,,,5f5d2e274cddcc56953ae1ba,606a0f9794e12677aa85eeca,2021-04-04_15h12.37.481,Colour_Similarity_Experiment,2020.2.10,Win32,60,60675255c767bca6388caeee,19.52592593,19.75974026,17.85254692,18.08754624,18.10526316,18.10526316,,,,,,,,,,,,,,,,,,,,PF,3,strong,,,,,,,,1,1.074,,,,,,,,,,,,,,,,,,,,,,,,,,,,9,strong,-48,38,1,0,0,response7disk,3,181,18,4,1,0,0,rectangle,18,4,1,0,0,0,5,0.003,18,4,1,0,0,0,18,18,141,1,0,,,,,,,,,,,,,,,,,,,,,
,,,,,,,,,,,,,,,,,,,,,,,,,,,,,,,,,,,,,,,,,,5f5d2e274cddcc56953ae1ba,606a0f9794e12677aa85eeca,2021-04-04_15h12.37.481,Colour_Similarity_Experiment,2020.2.10,Win32,60,60675255c767bca6388caeee,19.52592593,19.75974026,17.85254692,18.08754624,18.10526316,18.10526316,,,,,,,,,,,,,,,,,,,,PF,3,strong,,,,,,,,7,1.167,,,,,,,,,,,,,,,,,,,,,,,,,,,,5,strong,30,82,1,0,0,response1disk,2,182,-8,-10,1,0,0,rectangle,-24,56,1,0,0,0,0,1.2,10,-4,1,0,0,0,19,19,55,1,1,response7disk_3,rectangle,,,,,,,,,,,,,,,,,,,
,,,,,,,,,,,,,,,,,,,,,,,,,,,,,,,,,,,,,,,,,,5f5d2e274cddcc56953ae1ba,606a0f9794e12677aa85eeca,2021-04-04_15h12.37.481,Colour_Similarity_Experiment,2020.2.10,Win32,60,60675255c767bca6388caeee,19.52592593,19.75974026,17.85254692,18.08754624,18.10526316,18.10526316,,,,,,,,,,,,,,,,,,,,PF,3,weak,,,,,,,,4,1.988,,,,,,,,,,,,,,,,,,,,,,,,,,,,2,weak,58,-94,1,0,0,response3disk,6,183,2,-10,1,0,0,rectangle,2,-10,1,0,0,0,0,0.001,2,-10,1,0,0,0,20,20,113,1,0,,,,,,,,,,,,,,,,,,,,,
,,,,,,,,,,,,,,,,,,,,,,,,,,,,,,,,,,,,,,,,,,5f5d2e274cddcc56953ae1ba,606a0f9794e12677aa85eeca,2021-04-04_15h12.37.481,Colour_Similarity_Experiment,2020.2.10,Win32,60,60675255c767bca6388caeee,19.52592593,19.75974026,17.85254692,18.08754624,18.10526316,18.10526316,,,,,,,,,,,,,,,,,,,,PF,3,weak,,,,,,,,1,0.991,,,,,,,,,,,,,,,,,,,,,,,,,,,,9,weak,-70,44,1,0,0,response7disk,4,184,18,12,1,0,0,rectangle,18,12,1,0,0,0,4,0.003,18,12,1,0,0,0,21,21,114,1,0,,,,,,,,,,,,,,,,,,,,,
,,,,,,,,,,,,,,,,,,,,,,,,,,,,,,,,,,,,,,,,,,5f5d2e274cddcc56953ae1ba,606a0f9794e12677aa85eeca,2021-04-04_15h12.37.481,Colour_Similarity_Experiment,2020.2.10,Win32,60,60675255c767bca6388caeee,19.52592593,19.75974026,17.85254692,18.08754624,18.10526316,18.10526316,,,,,,,,,,,,,,,,,,,,PF,3,weak,,,,,,,,3,2.133,,,,,,,,,,,,,,,,,,,,,,,,,,,,6,weak,-58,-82,1,0,0,response5disk,6,185,4,-8,1,0,0,rectangle,4,-8,1,0,0,0,3,0.001,4,-8,1,0,0,0,22,22,0,1,0,,,,,,,,,,,,,,,,,,,,,
,,,,,,,,,,,,,,,,,,,,,,,,,,,,,,,,,,,,,,,,,,5f5d2e274cddcc56953ae1ba,606a0f9794e12677aa85eeca,2021-04-04_15h12.37.481,Colour_Similarity_Experiment,2020.2.10,Win32,60,60675255c767bca6388caeee,19.52592593,19.75974026,17.85254692,18.08754624,18.10526316,18.10526316,,,,,,,,,,,,,,,,,,,,PF,3,strong,,,,,,,,4,1.75,,,,,,,,,,,,,,,,,,,,,,,,,,,,9,strong,32,-88,1,0,0,response3disk,1,186,0,-10,1,0,0,rectangle,0,-10,1,0,0,0,4,0.006,0,-10,1,0,0,0,23,23,111,1,0,,,,,,,,,,,,,,,,,,,,,
,,,,,,,,,,,,,,,,,,,,,,,,,,,,,,,,,,,,,,,,,,5f5d2e274cddcc56953ae1ba,606a0f9794e12677aa85eeca,2021-04-04_15h12.37.481,Colour_Similarity_Experiment,2020.2.10,Win32,60,60675255c767bca6388caeee,19.52592593,19.75974026,17.85254692,18.08754624,18.10526316,18.10526316,,,,,,,,,,,,,,,,,,,,PF,3,strong,,,,,,,,7,1.356,,,,,,,,,,,,,,,,,,,,,,,,,,,,6,strong,36,74,1,0,0,response1disk,8,187,-2,0,1,0,0,rectangle,-2,0,1,0,0,0,0,0,-2,0,1,0,0,0,24,24,133,1,0,,,,,,,,,,,,,,,,,,,,,
,,,,,,,,,,,,,,,,,,,,,,,,,,,,,,,,,,,,,,,,,,5f5d2e274cddcc56953ae1ba,606a0f9794e12677aa85eeca,2021-04-04_15h12.37.481,Colour_Similarity_Experiment,2020.2.10,Win32,60,60675255c767bca6388caeee,19.52592593,19.75974026,17.85254692,18.08754624,18.10526316,18.10526316,,,,,,,,,,,,,,,,,,,,PF,3,strong,,,,,,,,0,1.474,,,,,,,,,,,,,,,,,,,,,,,,,,,,2,strong,-50,96,1,0,0,response7disk,2,188,-18,-4,1,0,0,rectangle,-18,-4,1,0,0,0,3,0.003,-18,-4,1,0,0,0,25,25,142,1,0,,,,,,,,,,,,,,,,,,,,,
,,,,,,,,,,,,,,,,,,,,,,,,,,,,,,,,,,,,,,,,,,5f5d2e274cddcc56953ae1ba,606a0f9794e12677aa85eeca,2021-04-04_15h12.37.481,Colour_Similarity_Experiment,2020.2.10,Win32,60,60675255c767bca6388caeee,19.52592593,19.75974026,17.85254692,18.08754624,18.10526316,18.10526316,,,,,,,,,,,,,,,,,,,,PF,3,strong,,,,,,,,5,2.261,,,,,,,,,,,,,,,,,,,,,,,,,,,,2,strong,84,-82,1,0,0,response3disk,4,189,4,-4,1,0,0,rectangle,4,-4,1,0,0,0,2,0.002,4,-4,1,0,0,0,26,26,145,1,0,,,,,,,,,,,,,,,,,,,,,
,,,,,,,,,,,,,,,,,,,,,,,,,,,,,,,,,,,,,,,,,,5f5d2e274cddcc56953ae1ba,606a0f9794e12677aa85eeca,2021-04-04_15h12.37.481,Colour_Similarity_Experiment,2020.2.10,Win32,60,60675255c767bca6388caeee,19.52592593,19.75974026,17.85254692,18.08754624,18.10526316,18.10526316,,,,,,,,,,,,,,,,,,,,PF,3,strong,,,,,,,,0,0.969,,,,,,,,,,,,,,,,,,,,,,,,,,,,5,strong,-58,78,1,0,0,response7disk,5,190,10,-2,1,0,0,rectangle,10,-2,1,0,0,0,4,0.004,10,-2,1,0,0,0,27,27,19,1,0,,,,,,,,,,,,,,,,,,,,,
,,,,,,,,,,,,,,,,,,,,,,,,,,,,,,,,,,,,,,,,,,5f5d2e274cddcc56953ae1ba,606a0f9794e12677aa85eeca,2021-04-04_15h12.37.481,Colour_Similarity_Experiment,2020.2.10,Win32,60,60675255c767bca6388caeee,19.52592593,19.75974026,17.85254692,18.08754624,18.10526316,18.10526316,,,,,,,,,,,,,,,,,,,,PF,3,strong,,,,,,,,7,2.906,,,,,,,,,,,,,,,,,,,,,,,,,,,,2,strong,40,68,1,0,0,response1disk,8,191,6,14,1,0,0,rectangle,6,14,1,0,0,0,1,0.003,6,14,1,0,0,0,28,28,62,1,0,,,,,,,,,,,,,,,,,,,,,
,,,,,,,,,,,,,,,,,,,,,,,,,,,,,,,,,,,,,,,,,,5f5d2e274cddcc56953ae1ba,606a0f9794e12677aa85eeca,2021-04-04_15h12.37.481,Colour_Similarity_Experiment,2020.2.10,Win32,60,60675255c767bca6388caeee,19.52592593,19.75974026,17.85254692,18.08754624,18.10526316,18.10526316,,,,,,,,,,,,,,,,,,,,PF,3,weak,,,,,,,,6,1.901,,,,,,,,,,,,,,,,,,,,,,,,,,,,5,weak,66,44,1,0,0,response1disk,9,192,-16,-6,1,0,0,rectangle,-78,-46,1,0,0,0,2,2.1,-6,-4,1,0,0,0,29,29,136,1,1,response5disk_3,rectangle,,,,,,,,,,,,,,,,,,,
,,,,,,,,,,,,,,,,,,,,,,,,,,,,,,,,,,,,,,,,,,5f5d2e274cddcc56953ae1ba,606a0f9794e12677aa85eeca,2021-04-04_15h12.37.481,Colour_Similarity_Experiment,2020.2.10,Win32,60,60675255c767bca6388caeee,19.52592593,19.75974026,17.85254692,18.08754624,18.10526316,18.10526316,,,,,,,,,,,,,,,,,,,,PF,3,strong,,,,,,,,7,1.199,,,,,,,,,,,,,,,,,,,,,,,,,,,,8,strong,32,60,1,0,0,response1disk,6,193,4,14,1,0,0,rectangle,4,14,1,0,0,0,1,0.006,4,14,1,0,0,0,30,30,37,1,0,,,,,,,,,,,,,,,,,,,,,
,,,,,,,,,,,,,,,,,,,,,,,,,,,,,,,,,,,,,,,,,,5f5d2e274cddcc56953ae1ba,606a0f9794e12677aa85eeca,2021-04-04_15h12.37.481,Colour_Similarity_Experiment,2020.2.10,Win32,60,60675255c767bca6388caeee,19.52592593,19.75974026,17.85254692,18.08754624,18.10526316,18.10526316,,,,,,,,,,,,,,,,,,,,PF,3,strong,,,,,,,,4,1.252,,,,,,,,,,,,,,,,,,,,,,,,,,,,9,strong,44,-84,1,0,0,response3disk,2,194,20,-4,1,0,0,rectangle,98,32,1,0,0,6,6,1.549,18,2,1,0,0,0,31,31,11,1,1,response1disk_3,rectangle,,,,,,,,,,,,,,,,,,,
,,,,,,,,,,,,,,,,,,,,,,,,,,,,,,,,,,,,,,,,,,5f5d2e274cddcc56953ae1ba,606a0f9794e12677aa85eeca,2021-04-04_15h12.37.481,Colour_Similarity_Experiment,2020.2.10,Win32,60,60675255c767bca6388caeee,19.52592593,19.75974026,17.85254692,18.08754624,18.10526316,18.10526316,,,,,,,,,,,,,,,,,,,,PF,3,weak,,,,,,,,2,1.571,,,,,,,,,,,,,,,,,,,,,,,,,,,,7,weak,-96,-46,1,0,0,response5disk,9,195,0,-6,1,0,0,rectangle,0,-6,1,0,0,6,5,0.004,0,-6,1,0,0,0,32,32,10,1,0,,,,,,,,,,,,,,,,,,,,,
,,,,,,,,,,,,,,,,,,,,,,,,,,,,,,,,,,,,,,,,,,5f5d2e274cddcc56953ae1ba,606a0f9794e12677aa85eeca,2021-04-04_15h12.37.481,Colour_Similarity_Experiment,2020.2.10,Win32,60,60675255c767bca6388caeee,19.52592593,19.75974026,17.85254692,18.08754624,18.10526316,18.10526316,,,,,,,,,,,,,,,,,,,,PF,3,weak,,,,,,,,7,1.229,,,,,,,,,,,,,,,,,,,,,,,,,,,,5,weak,34,62,1,0,0,response1disk,7,196,-2,-4,1,0,0,rectangle,-2,-4,1,0,0,6,6,0.002,-2,-4,1,0,0,0,33,33,146,1,0,,,,,,,,,,,,,,,,,,,,,
