key_resp.keys,key_resp.rt,key_resp_16.keys,key_resp_16.rt,key_resp_2.keys,key_resp_2.rt,X Scale,ratio_pxpermm,screen_size_x,screen_size_y,testsize,key_resp_3.keys,key_resp_4.keys,key_resp_4.rt,line_size,key_resp_5.keys,key_resp_5.rt,key_resp_6.keys,key_resp_6.rt,key_resp_8.keys,key_resp_8.rt,key_resp_7.keys,key_resp_7.rt,key_resp_12.keys,key_resp_12.rt,key_resp_11.keys,key_resp_11.rt,key_resp_18.keys,key_resp_18.rt,key_resp_21.keys,key_resp_21.rt,key_resp_13.keys,key_resp_13.rt,key_resp_19.keys,key_resp_19.rt,ballposx,viewer_distance,trials.thisRepN,trials.thisTrialN,trials.thisN,trials.thisIndex,trials.ran,participant,session,date,expName,psychopyVersion,OS,frameRate,study_id,realFrameRate1,realFrameRate2,realFrameRate3,realFrameRate4,realFrameRate5,realFrameRate,viewerdistancecm,DVA_to_distance,radius_F,radius_P,r_F,R_P,key_resp_20.keys,key_resp_20.rt,key_resp_14.keys,key_resp_14.rt,key_resp_15.keys,key_resp_15.rt,key_resp_17.keys,key_resp_17.rt,key_resp_9.keys,key_resp_9.rt,key_resp_10.keys,key_resp_10.rt,Colour_1,Ecc,mask_frames,maskCon,mouse_5.x,mouse_5.y,mouse_5.leftButton,mouse_5.midButton,mouse_5.rightButton,mouse_5.clicked_name,Colour_2,similarity,response_time,mouse_10.x,mouse_10.y,mouse_10.leftButton,mouse_10.midButton,mouse_10.rightButton,mouse_10.clicked_name,mouse_7.x,mouse_7.y,mouse_7.leftButton,mouse_7.midButton,mouse_7.rightButton,catchnumberprac,mouse_6.x,mouse_6.y,mouse_6.leftButton,mouse_6.midButton,mouse_6.rightButton,duringprac.thisRepN,duringprac.thisTrialN,duringprac.thisN,duringprac.thisIndex,duringprac.ran,mouse_7.clicked_name,catchprac,mouse_6.clicked_name,key_resp_22.keys,key_resp_22.rt,Colour1,maskCon1,mouse.x,mouse.y,mouse.leftButton,mouse.midButton,mouse.rightButton,mouse.clicked_name,Colour2,trialnumber,mouse_2.x,mouse_2.y,mouse_2.leftButton,mouse_2.midButton,mouse_2.rightButton,mouse_2.clicked_name,mouse_3.x,mouse_3.y,mouse_3.leftButton,mouse_3.midButton,mouse_3.rightButton,mouse_3.clicked_name,catchresponse,catchnumber,response_time_catch,mouse_11.x,mouse_11.y,mouse_11.leftButton,mouse_11.midButton,mouse_11.rightButton,mouse_11.clicked_name,trials_2.thisRepN,trials_2.thisTrialN,trials_2.thisN,trials_2.thisIndex,trials_2.ran,Catch,trials_3.thisRepN,trials_3.thisTrialN,trials_3.thisN,trials_3.thisIndex,trials_3.ran,answer1,rt1,answer2,rt2,answer3,rt3,answer4,rt4,answer5,rt5,answer6,rt6,answer7,rt7
space,0.054,space,21.464315,space,3.114805,44.7,4.47,305.5928412,171.8120805,1366,,space,5.87144,89.4,space,5.264685,space,2.89192,space,0.88753,space,1.571115,space,3.80223,space,4.5092,space,4.79584,space,4.473475,space,3.88858,return,4.73057,-71.715,575.9810342,0,0,0,0,1,5f7cc1dd2fe61814cae2ce9c,606a0ef9eb327fa061264a69,2021-04-04_20h16.14.253,Colour_Similarity_Experiment,2020.2.10,Win32,60,60675255c767bca6388caeee,17.93293103,16.80377535,16.70066558,16.70641243,16.88983796,16.80377535,,,,,,,,,,,,,,,,,,,,,,,,,,,,,,,,,,,,,,,,,,,,,,,,,,,,,,,,,,,,,,,,,,,,,,,,,,,,,,,,,,,,,,,,,,,,,,,,,,,,,,,,,,,,,,,,,,
,,,,,,,,,,,,,,,,,,,,,,,,,,,,,,,,,return,4.678965,-65.568,570.253046,1,0,1,0,1,5f7cc1dd2fe61814cae2ce9c,606a0ef9eb327fa061264a69,2021-04-04_20h16.14.253,Colour_Similarity_Experiment,2020.2.10,Win32,60,60675255c767bca6388caeee,17.93293103,16.80377535,16.70066558,16.70641243,16.88983796,16.80377535,,,,,,,,,,,,,,,,,,,,,,,,,,,,,,,,,,,,,,,,,,,,,,,,,,,,,,,,,,,,,,,,,,,,,,,,,,,,,,,,,,,,,,,,,,,,,,,,,,,,,,,,,,,,,,,,,,
,,,,,,,,,,,,,,,,,,,,,,,,,,,,,,,,,return,4.7571,-73.764,577.8903636,2,0,2,0,1,5f7cc1dd2fe61814cae2ce9c,606a0ef9eb327fa061264a69,2021-04-04_20h16.14.253,Colour_Similarity_Experiment,2020.2.10,Win32,60,60675255c767bca6388caeee,17.93293103,16.80377535,16.70066558,16.70641243,16.88983796,16.80377535,,,,,,,,,,,,,,,,,,,,,,,,,,,,,,,,,,,,,,,,,,,,,,,,,,,,,,,,,,,,,,,,,,,,,,,,,,,,,,,,,,,,,,,,,,,,,,,,,,,,,,,,,,,,,,,,,,
,,,,,,,,,,,,,,,,,,,,,,,,,,,,,,,,,return,5.001575,-104.499,606.5303045,3,0,3,0,1,5f7cc1dd2fe61814cae2ce9c,606a0ef9eb327fa061264a69,2021-04-04_20h16.14.253,Colour_Similarity_Experiment,2020.2.10,Win32,60,60675255c767bca6388caeee,17.93293103,16.80377535,16.70066558,16.70641243,16.88983796,16.80377535,,,,,,,,,,,,,,,,,,,,,,,,,,,,,,,,,,,,,,,,,,,,,,,,,,,,,,,,,,,,,,,,,,,,,,,,,,,,,,,,,,,,,,,,,,,,,,,,,,,,,,,,,,,,,,,,,,
,,,,,,,,,,,,,,,,,,,,,,,,,,,,,,,,,return,4.52044,-45.078,551.1597521,4,0,4,0,1,5f7cc1dd2fe61814cae2ce9c,606a0ef9eb327fa061264a69,2021-04-04_20h16.14.253,Colour_Similarity_Experiment,2020.2.10,Win32,60,60675255c767bca6388caeee,17.93293103,16.80377535,16.70066558,16.70641243,16.88983796,16.80377535,,,,,,,,,,,,,,,,,,,,,,,,,,,,,,,,,,,,,,,,,,,,,,,,,,,,,,,,,,,,,,,,,,,,,,,,,,,,,,,,,,,,,,,,,,,,,,,,,,,,,,,,,,,,,,,,,,
,,,,,,,,,,,,,,,,,,,,,,,,,,,,,,,,,,,,,,,,,,5f7cc1dd2fe61814cae2ce9c,606a0ef9eb327fa061264a69,2021-04-04_20h16.14.253,Colour_Similarity_Experiment,2020.2.10,Win32,60,60675255c767bca6388caeee,17.93293103,16.80377535,16.70066558,16.70641243,16.88983796,16.80377535,58,10.12393404,67.88097772,452.5398515,45.25398515,203.6429332,space,4.33582,space,12.859035,space,10.355285,space,1.394385,space,1.966655,space,3.81806,6,PF,3,strong,-73,-49,1,0,0,response5disk_5,6,2,4.20286,12,-4,1,0,0,rectangle_8,12,-4,1,0,0,0,12,-4,1,0,0,0,0,0,0,1,,,,,,,,,,,,,,,,,,,,,,,,,,,,,,,,,,,,,,,,,,,,,,,,,,,,,,,,,,,,,
,,,,,,,,,,,,,,,,,,,,,,,,,,,,,,,,,,,,,,,,,,5f7cc1dd2fe61814cae2ce9c,606a0ef9eb327fa061264a69,2021-04-04_20h16.14.253,Colour_Similarity_Experiment,2020.2.10,Win32,60,60675255c767bca6388caeee,17.93293103,16.80377535,16.70066558,16.70641243,16.88983796,16.80377535,,,,,,,,,,,,,,,,,,,6,PF,3,strong,-58,-32,1,0,0,response5disk_5,5,2,1.915065,-7,-3,1,0,0,rectangle_8,-24,75,1,0,0,0,-2,6,1,0,0,0,1,1,3,1,response7disk_7,0,rectangle_4,,,,,,,,,,,,,,,,,,,,,,,,,,,,,,,,,,,,,,,,,,,,,,,,,,,,,,,,,,
,,,,,,,,,,,,,,,,,,,,,,,,,,,,,,,,,,,,,,,,,,5f7cc1dd2fe61814cae2ce9c,606a0ef9eb327fa061264a69,2021-04-04_20h16.14.253,Colour_Similarity_Experiment,2020.2.10,Win32,60,60675255c767bca6388caeee,17.93293103,16.80377535,16.70066558,16.70641243,16.88983796,16.80377535,,,,,,,,,,,,,,,,,,,6,PF,3,strong,68,-37,1,0,0,response3disk_5,2,5,2.736605,17,-8,1,0,0,rectangle_8,17,-8,1,0,0,0,17,-8,1,0,0,0,2,2,2,1,,,,,,,,,,,,,,,,,,,,,,,,,,,,,,,,,,,,,,,,,,,,,,,,,,,,,,,,,,,,,
,,,,,,,,,,,,,,,,,,,,,,,,,,,,,,,,,,,,,,,,,,5f7cc1dd2fe61814cae2ce9c,606a0ef9eb327fa061264a69,2021-04-04_20h16.14.253,Colour_Similarity_Experiment,2020.2.10,Win32,60,60675255c767bca6388caeee,17.93293103,16.80377535,16.70066558,16.70641243,16.88983796,16.80377535,,,,,,,,,,,,,,,,,,,1,PF,3,weak,53,-69,1,0,0,response3disk_5,3,4,2.33991,23,1,1,0,0,rectangle_8,23,1,1,0,0,0,23,1,1,0,0,0,3,3,4,1,,,,,,,,,,,,,,,,,,,,,,,,,,,,,,,,,,,,,,,,,,,,,,,,,,,,,,,,,,,,,
,,,,,,,,,,,,,,,,,,,,,,,,,,,,,,,,,,,,,,,,,,5f7cc1dd2fe61814cae2ce9c,606a0ef9eb327fa061264a69,2021-04-04_20h16.14.253,Colour_Similarity_Experiment,2020.2.10,Win32,60,60675255c767bca6388caeee,17.93293103,16.80377535,16.70066558,16.70641243,16.88983796,16.80377535,,,,,,,,,,,,,,,,,,,8,PF,3,weak,-33,-60,1,0,0,response5disk_5,1,3,2.21767,4,-3,1,0,0,rectangle_8,4,-3,1,0,0,0,4,-3,1,0,0,0,4,4,5,1,,,,,,,,,,,,,,,,,,,,,,,,,,,,,,,,,,,,,,,,,,,,,,,,,,,,,,,,,,,,,
,,,,,,,,,,,,,,,,,,,,,,,,,,,,,,,,,,,,,,,,,,5f7cc1dd2fe61814cae2ce9c,606a0ef9eb327fa061264a69,2021-04-04_20h16.14.253,Colour_Similarity_Experiment,2020.2.10,Win32,60,60675255c767bca6388caeee,17.93293103,16.80377535,16.70066558,16.70641243,16.88983796,16.80377535,,,,,,,,,,,,,,,,,,,5,PF,3,weak,-60,-18,1,0,0,response5disk_5,1,2,1.853965,-9,1,1,0,0,rectangle_8,-44,72,1,0,0,0,-3,-2,1,0,0,0,5,5,1,1,response7disk_7,0,rectangle_4,,,,,,,,,,,,,,,,,,,,,,,,,,,,,,,,,,,,,,,,,,,,,,,,,,,,,,,,,,
,,,,,,,,,,,,,,,,,,,,,,,,,,,,,,,,,,,,,,,,,,5f7cc1dd2fe61814cae2ce9c,606a0ef9eb327fa061264a69,2021-04-04_20h16.14.253,Colour_Similarity_Experiment,2020.2.10,Win32,60,60675255c767bca6388caeee,17.93293103,16.80377535,16.70066558,16.70641243,16.88983796,16.80377535,,,,,,,,,,,,,,,,,,,2,PF,3,weak,35,-75,1,0,0,response3disk_5,5,4,3.5486,7,6,1,0,0,rectangle_8,7,6,1,0,0,0,7,6,1,0,0,0,6,6,6,1,,,,,,,,,,,,,,,,,,,,,,,,,,,,,,,,,,,,,,,,,,,,,,,,,,,,,,,,,,,,,
,,,,,,,,,,,,,,,,,,,,,,,,,,,,,,,,,,,,,,,,,,5f7cc1dd2fe61814cae2ce9c,606a0ef9eb327fa061264a69,2021-04-04_20h16.14.253,Colour_Similarity_Experiment,2020.2.10,Win32,60,60675255c767bca6388caeee,17.93293103,16.80377535,16.70066558,16.70641243,16.88983796,16.80377535,,,,,,,,,,,,,,,,,,,,PF,3,weak,,,,,,,,6,2.939265,,,,,,,,,,,,,,,,,,,,,,,,,,space,2.232385,5,weak,90,32,1,0,0,response1disk,9,1,0,-4,1,0,0,rectangle,-81,-41,1,0,0,response5disk_3,,2,3.7087,-7,0,1,0,0,rectangle,0,0,0,136,1,1,,,,,,,,,,,,,,,,,,,
,,,,,,,,,,,,,,,,,,,,,,,,,,,,,,,,,,,,,,,,,,5f7cc1dd2fe61814cae2ce9c,606a0ef9eb327fa061264a69,2021-04-04_20h16.14.253,Colour_Similarity_Experiment,2020.2.10,Win32,60,60675255c767bca6388caeee,17.93293103,16.80377535,16.70066558,16.70641243,16.88983796,16.80377535,,,,,,,,,,,,,,,,,,,,PF,3,weak,,,,,,,,4,1.48629,,,,,,,,,,,,,,,,,,,,,,,,,,,,9,weak,52,-84,1,0,0,response3disk,6,2,4,-7,1,0,0,rectangle,4,-7,1,0,0,,,0,0.00311,4,-7,1,0,0,,0,1,1,148,1,0,,,,,,,,,,,,,,,,,,,
,,,,,,,,,,,,,,,,,,,,,,,,,,,,,,,,,,,,,,,,,,5f7cc1dd2fe61814cae2ce9c,606a0ef9eb327fa061264a69,2021-04-04_20h16.14.253,Colour_Similarity_Experiment,2020.2.10,Win32,60,60675255c767bca6388caeee,17.93293103,16.80377535,16.70066558,16.70641243,16.88983796,16.80377535,,,,,,,,,,,,,,,,,,,,PF,3,strong,,,,,,,,1,2.536145,,,,,,,,,,,,,,,,,,,,,,,,,,,,1,strong,-69,23,1,0,0,response7disk,1,3,-17,-3,1,0,0,rectangle,-17,-3,1,0,0,,,0,0.000645,-17,-3,1,0,0,,0,2,2,151,1,0,,,,,,,,,,,,,,,,,,,
,,,,,,,,,,,,,,,,,,,,,,,,,,,,,,,,,,,,,,,,,,5f7cc1dd2fe61814cae2ce9c,606a0ef9eb327fa061264a69,2021-04-04_20h16.14.253,Colour_Similarity_Experiment,2020.2.10,Win32,60,60675255c767bca6388caeee,17.93293103,16.80377535,16.70066558,16.70641243,16.88983796,16.80377535,,,,,,,,,,,,,,,,,,,,PF,3,strong,,,,,,,,4,3.5387,,,,,,,,,,,,,,,,,,,,,,,,,,,,1,strong,35,-55,1,0,0,response3disk,8,4,-2,4,1,0,0,rectangle,-2,4,1,0,0,,,7,0.002725,-2,4,1,0,0,,0,3,3,27,1,0,,,,,,,,,,,,,,,,,,,
,,,,,,,,,,,,,,,,,,,,,,,,,,,,,,,,,,,,,,,,,,5f7cc1dd2fe61814cae2ce9c,606a0ef9eb327fa061264a69,2021-04-04_20h16.14.253,Colour_Similarity_Experiment,2020.2.10,Win32,60,60675255c767bca6388caeee,17.93293103,16.80377535,16.70066558,16.70641243,16.88983796,16.80377535,,,,,,,,,,,,,,,,,,,,PF,3,strong,,,,,,,,0,1.77287,,,,,,,,,,,,,,,,,,,,,,,,,,,,9,strong,-40,61,1,0,0,response7disk,9,5,13,-9,1,0,0,rectangle,13,-9,1,0,0,,,6,0.00593,13,-9,1,0,0,,0,4,4,17,1,0,,,,,,,,,,,,,,,,,,,
,,,,,,,,,,,,,,,,,,,,,,,,,,,,,,,,,,,,,,,,,,5f7cc1dd2fe61814cae2ce9c,606a0ef9eb327fa061264a69,2021-04-04_20h16.14.253,Colour_Similarity_Experiment,2020.2.10,Win32,60,60675255c767bca6388caeee,17.93293103,16.80377535,16.70066558,16.70641243,16.88983796,16.80377535,,,,,,,,,,,,,,,,,,,,PF,3,weak,,,,,,,,3,2.03357,,,,,,,,,,,,,,,,,,,,,,,,,,,,4,weak,-32,-84,1,0,0,response5disk,5,6,3,-9,1,0,0,rectangle,3,-9,1,0,0,,,6,0.000705,3,-9,1,0,0,,0,5,5,49,1,0,,,,,,,,,,,,,,,,,,,
,,,,,,,,,,,,,,,,,,,,,,,,,,,,,,,,,,,,,,,,,,5f7cc1dd2fe61814cae2ce9c,606a0ef9eb327fa061264a69,2021-04-04_20h16.14.253,Colour_Similarity_Experiment,2020.2.10,Win32,60,60675255c767bca6388caeee,17.93293103,16.80377535,16.70066558,16.70641243,16.88983796,16.80377535,,,,,,,,,,,,,,,,,,,,PF,3,weak,,,,,,,,3,1.65337,,,,,,,,,,,,,,,,,,,,,,,,,,,,5,weak,-18,-86,1,0,0,response5disk,3,7,8,4,1,0,0,rectangle,8,4,1,0,0,,,7,0.00387,8,4,1,0,0,,0,6,6,109,1,0,,,,,,,,,,,,,,,,,,,
,,,,,,,,,,,,,,,,,,,,,,,,,,,,,,,,,,,,,,,,,,5f7cc1dd2fe61814cae2ce9c,606a0ef9eb327fa061264a69,2021-04-04_20h16.14.253,Colour_Similarity_Experiment,2020.2.10,Win32,60,60675255c767bca6388caeee,17.93293103,16.80377535,16.70066558,16.70641243,16.88983796,16.80377535,,,,,,,,,,,,,,,,,,,,PF,3,weak,,,,,,,,2,1.536425,,,,,,,,,,,,,,,,,,,,,,,,,,,,3,weak,-67,-36,1,0,0,response5disk,2,8,-12,-15,1,0,0,rectangle,-45,-58,1,0,0,response5disk_3,3,3,2.156625,1,-2,1,0,0,rectangle,0,7,7,36,1,1,,,,,,,,,,,,,,,,,,,
,,,,,,,,,,,,,,,,,,,,,,,,,,,,,,,,,,,,,,,,,,5f7cc1dd2fe61814cae2ce9c,606a0ef9eb327fa061264a69,2021-04-04_20h16.14.253,Colour_Similarity_Experiment,2020.2.10,Win32,60,60675255c767bca6388caeee,17.93293103,16.80377535,16.70066558,16.70641243,16.88983796,16.80377535,,,,,,,,,,,,,,,,,,,,PF,3,strong,,,,,,,,6,1.776895,,,,,,,,,,,,,,,,,,,,,,,,,,,,4,strong,68,40,1,0,0,response1disk,8,9,17,0,1,0,0,rectangle,17,0,1,0,0,,3,3,0.000535,17,0,1,0,0,,0,8,8,35,1,0,,,,,,,,,,,,,,,,,,,
,,,,,,,,,,,,,,,,,,,,,,,,,,,,,,,,,,,,,,,,,,5f7cc1dd2fe61814cae2ce9c,606a0ef9eb327fa061264a69,2021-04-04_20h16.14.253,Colour_Similarity_Experiment,2020.2.10,Win32,60,60675255c767bca6388caeee,17.93293103,16.80377535,16.70066558,16.70641243,16.88983796,16.80377535,,,,,,,,,,,,,,,,,,,,PF,3,weak,,,,,,,,5,1.54662,,,,,,,,,,,,,,,,,,,,,,,,,,,,3,weak,56,-18,1,0,0,response3disk,1,10,5,-5,1,0,0,rectangle,5,-5,1,0,0,,3,2,0.002655,5,-5,1,0,0,,0,9,9,96,1,0,,,,,,,,,,,,,,,,,,,
,,,,,,,,,,,,,,,,,,,,,,,,,,,,,,,,,,,,,,,,,,5f7cc1dd2fe61814cae2ce9c,606a0ef9eb327fa061264a69,2021-04-04_20h16.14.253,Colour_Similarity_Experiment,2020.2.10,Win32,60,60675255c767bca6388caeee,17.93293103,16.80377535,16.70066558,16.70641243,16.88983796,16.80377535,,,,,,,,,,,,,,,,,,,,PF,3,strong,,,,,,,,5,2.14624,,,,,,,,,,,,,,,,,,,,,,,,,,,,6,strong,77,-58,1,0,0,response3disk,9,11,2,-1,1,0,0,rectangle,56,-26,1,0,0,response3disk_3,5,5,2.18774,21,-4,1,0,0,rectangle,0,10,10,160,1,1,,,,,,,,,,,,,,,,,,,
,,,,,,,,,,,,,,,,,,,,,,,,,,,,,,,,,,,,,,,,,,5f7cc1dd2fe61814cae2ce9c,606a0ef9eb327fa061264a69,2021-04-04_20h16.14.253,Colour_Similarity_Experiment,2020.2.10,Win32,60,60675255c767bca6388caeee,17.93293103,16.80377535,16.70066558,16.70641243,16.88983796,16.80377535,,,,,,,,,,,,,,,,,,,,PF,3,strong,,,,,,,,2,1.373935,,,,,,,,,,,,,,,,,,,,,,,,,,,,4,strong,-44,-32,1,0,0,response5disk,4,12,2,-12,1,0,0,rectangle,2,-12,1,0,0,,5,6,0.003255,2,-12,1,0,0,,0,11,11,84,1,0,,,,,,,,,,,,,,,,,,,
,,,,,,,,,,,,,,,,,,,,,,,,,,,,,,,,,,,,,,,,,,5f7cc1dd2fe61814cae2ce9c,606a0ef9eb327fa061264a69,2021-04-04_20h16.14.253,Colour_Similarity_Experiment,2020.2.10,Win32,60,60675255c767bca6388caeee,17.93293103,16.80377535,16.70066558,16.70641243,16.88983796,16.80377535,,,,,,,,,,,,,,,,,,,,PF,3,weak,,,,,,,,4,2.2117,,,,,,,,,,,,,,,,,,,,,,,,,,,,6,weak,32,-81,1,0,0,response3disk,3,13,7,6,1,0,0,rectangle,7,6,1,0,0,,5,2,0.00448,7,6,1,0,0,,0,12,12,26,1,0,,,,,,,,,,,,,,,,,,,
,,,,,,,,,,,,,,,,,,,,,,,,,,,,,,,,,,,,,,,,,,5f7cc1dd2fe61814cae2ce9c,606a0ef9eb327fa061264a69,2021-04-04_20h16.14.253,Colour_Similarity_Experiment,2020.2.10,Win32,60,60675255c767bca6388caeee,17.93293103,16.80377535,16.70066558,16.70641243,16.88983796,16.80377535,,,,,,,,,,,,,,,,,,,,PF,3,weak,,,,,,,,3,1.526735,,,,,,,,,,,,,,,,,,,,,,,,,,,,2,weak,-23,-54,1,0,0,response5disk,6,14,16,7,1,0,0,rectangle,16,7,1,0,0,,5,5,0.00324,16,7,1,0,0,,0,13,13,113,1,0,,,,,,,,,,,,,,,,,,,
,,,,,,,,,,,,,,,,,,,,,,,,,,,,,,,,,,,,,,,,,,5f7cc1dd2fe61814cae2ce9c,606a0ef9eb327fa061264a69,2021-04-04_20h16.14.253,Colour_Similarity_Experiment,2020.2.10,Win32,60,60675255c767bca6388caeee,17.93293103,16.80377535,16.70066558,16.70641243,16.88983796,16.80377535,,,,,,,,,,,,,,,,,,,,PF,3,weak,,,,,,,,1,1.66708,,,,,,,,,,,,,,,,,,,,,,,,,,,,7,weak,-56,29,1,0,0,response7disk,5,15,-3,-9,1,0,0,rectangle,-3,-9,1,0,0,,5,1,0.003425,-3,-9,1,0,0,,0,14,14,92,1,0,,,,,,,,,,,,,,,,,,,
,,,,,,,,,,,,,,,,,,,,,,,,,,,,,,,,,,,,,,,,,,5f7cc1dd2fe61814cae2ce9c,606a0ef9eb327fa061264a69,2021-04-04_20h16.14.253,Colour_Similarity_Experiment,2020.2.10,Win32,60,60675255c767bca6388caeee,17.93293103,16.80377535,16.70066558,16.70641243,16.88983796,16.80377535,,,,,,,,,,,,,,,,,,,,PF,3,strong,,,,,,,,3,1.79299,,,,,,,,,,,,,,,,,,,,,,,,,,,,3,strong,-45,-54,1,0,0,response5disk,4,16,1,5,1,0,0,rectangle,1,5,1,0,0,,5,5,0.00362,1,5,1,0,0,,0,15,15,110,1,0,,,,,,,,,,,,,,,,,,,
,,,,,,,,,,,,,,,,,,,,,,,,,,,,,,,,,,,,,,,,,,5f7cc1dd2fe61814cae2ce9c,606a0ef9eb327fa061264a69,2021-04-04_20h16.14.253,Colour_Similarity_Experiment,2020.2.10,Win32,60,60675255c767bca6388caeee,17.93293103,16.80377535,16.70066558,16.70641243,16.88983796,16.80377535,,,,,,,,,,,,,,,,,,,,PF,3,weak,,,,,,,,4,1.99327,,,,,,,,,,,,,,,,,,,,,,,,,,,,4,weak,26,-73,1,0,0,response3disk,6,17,-10,8,1,0,0,rectangle,-10,8,1,0,0,,5,2,0.003025,-10,8,1,0,0,,0,16,16,120,1,0,,,,,,,,,,,,,,,,,,,
,,,,,,,,,,,,,,,,,,,,,,,,,,,,,,,,,,,,,,,,,,5f7cc1dd2fe61814cae2ce9c,606a0ef9eb327fa061264a69,2021-04-04_20h16.14.253,Colour_Similarity_Experiment,2020.2.10,Win32,60,60675255c767bca6388caeee,17.93293103,16.80377535,16.70066558,16.70641243,16.88983796,16.80377535,,,,,,,,,,,,,,,,,,,,PF,3,weak,,,,,,,,4,2.292585,,,,,,,,,,,,,,,,,,,,,,,,,,,,1,weak,37,-62,1,0,0,response3disk,8,18,8,-1,1,0,0,rectangle,8,-1,1,0,0,,5,7,0.00482,8,-1,1,0,0,,0,17,17,65,1,0,,,,,,,,,,,,,,,,,,,
,,,,,,,,,,,,,,,,,,,,,,,,,,,,,,,,,,,,,,,,,,5f7cc1dd2fe61814cae2ce9c,606a0ef9eb327fa061264a69,2021-04-04_20h16.14.253,Colour_Similarity_Experiment,2020.2.10,Win32,60,60675255c767bca6388caeee,17.93293103,16.80377535,16.70066558,16.70641243,16.88983796,16.80377535,,,,,,,,,,,,,,,,,,,,PF,3,weak,,,,,,,,3,2.2844,,,,,,,,,,,,,,,,,,,,,,,,,,,,1,weak,-56,-94,1,0,0,response5disk,3,19,15,1,1,0,0,rectangle,15,1,1,0,0,,5,2,0.00325,15,1,1,0,0,,0,18,18,1,1,0,,,,,,,,,,,,,,,,,,,
,,,,,,,,,,,,,,,,,,,,,,,,,,,,,,,,,,,,,,,,,,5f7cc1dd2fe61814cae2ce9c,606a0ef9eb327fa061264a69,2021-04-04_20h16.14.253,Colour_Similarity_Experiment,2020.2.10,Win32,60,60675255c767bca6388caeee,17.93293103,16.80377535,16.70066558,16.70641243,16.88983796,16.80377535,,,,,,,,,,,,,,,,,,,,PF,3,weak,,,,,,,,5,1.84888,,,,,,,,,,,,,,,,,,,,,,,,,,,,1,weak,91,-41,1,0,0,response3disk,4,20,9,7,1,0,0,rectangle,9,7,1,0,0,,5,1,0.003785,9,7,1,0,0,,0,19,19,139,1,0,,,,,,,,,,,,,,,,,,,
,,,,,,,,,,,,,,,,,,,,,,,,,,,,,,,,,,,,,,,,,,5f7cc1dd2fe61814cae2ce9c,606a0ef9eb327fa061264a69,2021-04-04_20h16.14.253,Colour_Similarity_Experiment,2020.2.10,Win32,60,60675255c767bca6388caeee,17.93293103,16.80377535,16.70066558,16.70641243,16.88983796,16.80377535,,,,,,,,,,,,,,,,,,,,PF,3,weak,,,,,,,,6,2.094405,,,,,,,,,,,,,,,,,,,,,,,,,,,,5,weak,41,26,1,0,0,response1disk,1,21,1,0,1,0,0,rectangle,39,70,1,0,0,response1disk_3,7,7,1.74183,6,10,1,0,0,rectangle,0,20,20,159,1,1,,,,,,,,,,,,,,,,,,,
,,,,,,,,,,,,,,,,,,,,,,,,,,,,,,,,,,,,,,,,,,5f7cc1dd2fe61814cae2ce9c,606a0ef9eb327fa061264a69,2021-04-04_20h16.14.253,Colour_Similarity_Experiment,2020.2.10,Win32,60,60675255c767bca6388caeee,17.93293103,16.80377535,16.70066558,16.70641243,16.88983796,16.80377535,,,,,,,,,,,,,,,,,,,,PF,3,weak,,,,,,,,1,1.49335,,,,,,,,,,,,,,,,,,,,,,,,,,,,9,weak,-45,19,1,0,0,response7disk,9,22,-6,-4,1,0,0,rectangle,-6,-4,1,0,0,,7,7,0.00061,-6,-4,1,0,0,,0,21,21,106,1,0,,,,,,,,,,,,,,,,,,,
,,,,,,,,,,,,,,,,,,,,,,,,,,,,,,,,,,,,,,,,,,5f7cc1dd2fe61814cae2ce9c,606a0ef9eb327fa061264a69,2021-04-04_20h16.14.253,Colour_Similarity_Experiment,2020.2.10,Win32,60,60675255c767bca6388caeee,17.93293103,16.80377535,16.70066558,16.70641243,16.88983796,16.80377535,,,,,,,,,,,,,,,,,,,,PF,3,weak,,,,,,,,5,1.44961,,,,,,,,,,,,,,,,,,,,,,,,,,,,6,weak,57,-32,1,0,0,response3disk,2,23,19,-5,1,0,0,rectangle,19,-5,1,0,0,,7,0,0.00493,19,-5,1,0,0,,0,22,22,130,1,0,,,,,,,,,,,,,,,,,,,
,,,,,,,,,,,,,,,,,,,,,,,,,,,,,,,,,,,,,,,,,,5f7cc1dd2fe61814cae2ce9c,606a0ef9eb327fa061264a69,2021-04-04_20h16.14.253,Colour_Similarity_Experiment,2020.2.10,Win32,60,60675255c767bca6388caeee,17.93293103,16.80377535,16.70066558,16.70641243,16.88983796,16.80377535,,,,,,,,,,,,,,,,,,,,PF,3,weak,,,,,,,,5,1.717605,,,,,,,,,,,,,,,,,,,,,,,,,,,,8,weak,57,-31,1,0,0,response3disk,8,24,15,-2,1,0,0,rectangle,15,-2,1,0,0,,7,0,0.000835,15,-2,1,0,0,,0,23,23,153,1,0,,,,,,,,,,,,,,,,,,,
,,,,,,,,,,,,,,,,,,,,,,,,,,,,,,,,,,,,,,,,,,5f7cc1dd2fe61814cae2ce9c,606a0ef9eb327fa061264a69,2021-04-04_20h16.14.253,Colour_Similarity_Experiment,2020.2.10,Win32,60,60675255c767bca6388caeee,17.93293103,16.80377535,16.70066558,16.70641243,16.88983796,16.80377535,,,,,,,,,,,,,,,,,,,,PF,3,weak,,,,,,,,4,1.85068,,,,,,,,,,,,,,,,,,,,,,,,,,,,7,weak,36,-48,1,0,0,response3disk,3,25,14,-3,1,0,0,rectangle,14,-3,1,0,0,,7,5,0.00331,14,-3,1,0,0,,0,24,24,81,1,0,,,,,,,,,,,,,,,,,,,
,,,,,,,,,,,,,,,,,,,,,,,,,,,,,,,,,,,,,,,,,,5f7cc1dd2fe61814cae2ce9c,606a0ef9eb327fa061264a69,2021-04-04_20h16.14.253,Colour_Similarity_Experiment,2020.2.10,Win32,60,60675255c767bca6388caeee,17.93293103,16.80377535,16.70066558,16.70641243,16.88983796,16.80377535,,,,,,,,,,,,,,,,,,,,PF,3,weak,,,,,,,,5,3.11772,,,,,,,,,,,,,,,,,,,,,,,,,,,,5,weak,95,-62,1,0,0,response3disk,2,26,14,1,1,0,0,rectangle,14,1,1,0,0,,7,1,0.00355,14,1,1,0,0,,0,25,25,129,1,0,,,,,,,,,,,,,,,,,,,
,,,,,,,,,,,,,,,,,,,,,,,,,,,,,,,,,,,,,,,,,,5f7cc1dd2fe61814cae2ce9c,606a0ef9eb327fa061264a69,2021-04-04_20h16.14.253,Colour_Similarity_Experiment,2020.2.10,Win32,60,60675255c767bca6388caeee,17.93293103,16.80377535,16.70066558,16.70641243,16.88983796,16.80377535,,,,,,,,,,,,,,,,,,,,PF,3,strong,,,,,,,,3,1.481285,,,,,,,,,,,,,,,,,,,,,,,,,,,,6,strong,-25,-66,1,0,0,response5disk,3,27,1,10,1,0,0,rectangle,1,10,1,0,0,,7,5,0.002595,1,10,1,0,0,,0,26,26,21,1,0,,,,,,,,,,,,,,,,,,,
,,,,,,,,,,,,,,,,,,,,,,,,,,,,,,,,,,,,,,,,,,5f7cc1dd2fe61814cae2ce9c,606a0ef9eb327fa061264a69,2021-04-04_20h16.14.253,Colour_Similarity_Experiment,2020.2.10,Win32,60,60675255c767bca6388caeee,17.93293103,16.80377535,16.70066558,16.70641243,16.88983796,16.80377535,,,,,,,,,,,,,,,,,,,,PF,3,strong,,,,,,,,6,1.567325,,,,,,,,,,,,,,,,,,,,,,,,,,,,1,strong,44,29,1,0,0,response1disk,6,28,-8,-7,1,0,0,rectangle,-8,-7,1,0,0,,7,7,0.00415,-8,-7,1,0,0,,0,27,27,58,1,0,,,,,,,,,,,,,,,,,,,
,,,,,,,,,,,,,,,,,,,,,,,,,,,,,,,,,,,,,,,,,,5f7cc1dd2fe61814cae2ce9c,606a0ef9eb327fa061264a69,2021-04-04_20h16.14.253,Colour_Similarity_Experiment,2020.2.10,Win32,60,60675255c767bca6388caeee,17.93293103,16.80377535,16.70066558,16.70641243,16.88983796,16.80377535,,,,,,,,,,,,,,,,,,,,PF,3,weak,,,,,,,,6,2.37863,,,,,,,,,,,,,,,,,,,,,,,,,,,,3,weak,90,30,1,0,0,response1disk,8,29,-1,-4,1,0,0,rectangle,-1,-4,1,0,0,,7,1,0.0041,-1,-4,1,0,0,,0,28,28,3,1,0,,,,,,,,,,,,,,,,,,,
,,,,,,,,,,,,,,,,,,,,,,,,,,,,,,,,,,,,,,,,,,5f7cc1dd2fe61814cae2ce9c,606a0ef9eb327fa061264a69,2021-04-04_20h16.14.253,Colour_Similarity_Experiment,2020.2.10,Win32,60,60675255c767bca6388caeee,17.93293103,16.80377535,16.70066558,16.70641243,16.88983796,16.80377535,,,,,,,,,,,,,,,,,,,,PF,3,weak,,,,,,,,2,1.485045,,,,,,,,,,,,,,,,,,,,,,,,,,,,1,weak,-98,-46,1,0,0,response5disk,2,30,-3,-5,1,0,0,rectangle,-3,-5,1,0,0,,7,7,0.00121,-3,-5,1,0,0,,0,29,29,24,1,0,,,,,,,,,,,,,,,,,,,
,,,,,,,,,,,,,,,,,,,,,,,,,,,,,,,,,,,,,,,,,,5f7cc1dd2fe61814cae2ce9c,606a0ef9eb327fa061264a69,2021-04-04_20h16.14.253,Colour_Similarity_Experiment,2020.2.10,Win32,60,60675255c767bca6388caeee,17.93293103,16.80377535,16.70066558,16.70641243,16.88983796,16.80377535,,,,,,,,,,,,,,,,,,,,PF,3,weak,,,,,,,,4,1.536445,,,,,,,,,,,,,,,,,,,,,,,,,,,,9,weak,22,-53,1,0,0,response3disk,2,31,-10,8,1,0,0,rectangle,-10,8,1,0,0,,7,3,0.004435,-10,8,1,0,0,,0,30,30,157,1,0,,,,,,,,,,,,,,,,,,,
,,,,,,,,,,,,,,,,,,,,,,,,,,,,,,,,,,,,,,,,,,5f7cc1dd2fe61814cae2ce9c,606a0ef9eb327fa061264a69,2021-04-04_20h16.14.253,Colour_Similarity_Experiment,2020.2.10,Win32,60,60675255c767bca6388caeee,17.93293103,16.80377535,16.70066558,16.70641243,16.88983796,16.80377535,,,,,,,,,,,,,,,,,,,,PF,3,strong,,,,,,,,6,1.70109,,,,,,,,,,,,,,,,,,,,,,,,,,,,4,strong,47,34,1,0,0,response1disk,9,32,7,7,1,0,0,rectangle,7,7,1,0,0,,7,5,0.00373,7,7,1,0,0,,0,31,31,90,1,0,,,,,,,,,,,,,,,,,,,
,,,,,,,,,,,,,,,,,,,,,,,,,,,,,,,,,,,,,,,,,,5f7cc1dd2fe61814cae2ce9c,606a0ef9eb327fa061264a69,2021-04-04_20h16.14.253,Colour_Similarity_Experiment,2020.2.10,Win32,60,60675255c767bca6388caeee,17.93293103,16.80377535,16.70066558,16.70641243,16.88983796,16.80377535,,,,,,,,,,,,,,,,,,,,PF,3,weak,,,,,,,,2,1.23451,,,,,,,,,,,,,,,,,,,,,,,,,,,,5,weak,-70,-26,1,0,0,response5disk,6,33,-4,3,1,0,0,rectangle,-4,3,1,0,0,,7,4,0.004955,-4,3,1,0,0,,0,32,32,103,1,0,,,,,,,,,,,,,,,,,,,
,,,,,,,,,,,,,,,,,,,,,,,,,,,,,,,,,,,,,,,,,,5f7cc1dd2fe61814cae2ce9c,606a0ef9eb327fa061264a69,2021-04-04_20h16.14.253,Colour_Similarity_Experiment,2020.2.10,Win32,60,60675255c767bca6388caeee,17.93293103,16.80377535,16.70066558,16.70641243,16.88983796,16.80377535,,,,,,,,,,,,,,,,,,,,PF,3,strong,,,,,,,,2,1.682695,,,,,,,,,,,,,,,,,,,,,,,,,,,,2,strong,-69,-39,1,0,0,response5disk,3,34,0,2,1,0,0,rectangle,45,97,1,0,0,response1disk_3,7,7,1.650145,-9,-4,1,0,0,rectangle,0,33,33,104,1,1,,,,,,,,,,,,,,,,,,,
,,,,,,,,,,,,,,,,,,,,,,,,,,,,,,,,,,,,,,,,,,5f7cc1dd2fe61814cae2ce9c,606a0ef9eb327fa061264a69,2021-04-04_20h16.14.253,Colour_Similarity_Experiment,2020.2.10,Win32,60,60675255c767bca6388caeee,17.93293103,16.80377535,16.70066558,16.70641243,16.88983796,16.80377535,,,,,,,,,,,,,,,,,,,,PF,3,strong,,,,,,,,6,2.283435,,,,,,,,,,,,,,,,,,,,,,,,,,,,1,strong,75,44,1,0,0,response1disk,7,35,-15,-6,1,0,0,rectangle,-15,-6,1,0,0,,7,1,0.00486,-15,-6,1,0,0,,0,34,34,137,1,0,,,,,,,,,,,,,,,,,,,
,,,,,,,,,,,,,,,,,,,,,,,,,,,,,,,,,,,,,,,,,,5f7cc1dd2fe61814cae2ce9c,606a0ef9eb327fa061264a69,2021-04-04_20h16.14.253,Colour_Similarity_Experiment,2020.2.10,Win32,60,60675255c767bca6388caeee,17.93293103,16.80377535,16.70066558,16.70641243,16.88983796,16.80377535,,,,,,,,,,,,,,,,,,,,PF,3,strong,,,,,,,,5,1.58708,,,,,,,,,,,,,,,,,,,,,,,,,,,,8,strong,49,-26,1,0,0,response3disk,2,36,6,-6,1,0,0,rectangle,6,-6,1,0,0,,7,0,0.00301,6,-6,1,0,0,,0,35,35,22,1,0,,,,,,,,,,,,,,,,,,,
,,,,,,,,,,,,,,,,,,,,,,,,,,,,,,,,,,,,,,,,,,5f7cc1dd2fe61814cae2ce9c,606a0ef9eb327fa061264a69,2021-04-04_20h16.14.253,Colour_Similarity_Experiment,2020.2.10,Win32,60,60675255c767bca6388caeee,17.93293103,16.80377535,16.70066558,16.70641243,16.88983796,16.80377535,,,,,,,,,,,,,,,,,,,,PF,3,strong,,,,,,,,4,1.696645,,,,,,,,,,,,,,,,,,,,,,,,,,,,7,strong,18,-44,1,0,0,response3disk,4,37,9,-15,1,0,0,rectangle,9,-15,1,0,0,,7,4,0.00431,9,-15,1,0,0,,0,36,36,158,1,0,,,,,,,,,,,,,,,,,,,
,,,,,,,,,,,,,,,,,,,,,,,,,,,,,,,,,,,,,,,,,,5f7cc1dd2fe61814cae2ce9c,606a0ef9eb327fa061264a69,2021-04-04_20h16.14.253,Colour_Similarity_Experiment,2020.2.10,Win32,60,60675255c767bca6388caeee,17.93293103,16.80377535,16.70066558,16.70641243,16.88983796,16.80377535,,,,,,,,,,,,,,,,,,,,PF,3,strong,,,,,,,,5,1.480845,,,,,,,,,,,,,,,,,,,,,,,,,,,,5,strong,82,-53,1,0,0,response3disk,2,38,-11,-2,1,0,0,rectangle,102,38,1,0,0,response1disk_3,6,6,3.100515,23,9,1,0,0,rectangle,0,37,37,55,1,1,,,,,,,,,,,,,,,,,,,
,,,,,,,,,,,,,,,,,,,,,,,,,,,,,,,,,,,,,,,,,,5f7cc1dd2fe61814cae2ce9c,606a0ef9eb327fa061264a69,2021-04-04_20h16.14.253,Colour_Similarity_Experiment,2020.2.10,Win32,60,60675255c767bca6388caeee,17.93293103,16.80377535,16.70066558,16.70641243,16.88983796,16.80377535,,,,,,,,,,,,,,,,,,,,PF,3,strong,,,,,,,,3,1.510845,,,,,,,,,,,,,,,,,,,,,,,,,,,,5,strong,-78,-101,1,0,0,response5disk,3,39,11,4,1,0,0,rectangle,11,4,1,0,0,,6,2,0.00266,11,4,1,0,0,,0,38,38,25,1,0,,,,,,,,,,,,,,,,,,,
,,,,,,,,,,,,,,,,,,,,,,,,,,,,,,,,,,,,,,,,,,5f7cc1dd2fe61814cae2ce9c,606a0ef9eb327fa061264a69,2021-04-04_20h16.14.253,Colour_Similarity_Experiment,2020.2.10,Win32,60,60675255c767bca6388caeee,17.93293103,16.80377535,16.70066558,16.70641243,16.88983796,16.80377535,,,,,,,,,,,,,,,,,,,,PF,3,weak,,,,,,,,5,2.198595,,,,,,,,,,,,,,,,,,,,,,,,,,,,9,weak,60,-26,1,0,0,response3disk,4,40,18,-9,1,0,0,rectangle,18,-9,1,0,0,,6,1,0.002895,18,-9,1,0,0,,0,39,39,114,1,0,,,,,,,,,,,,,,,,,,,
,,,,,,,,,,,,,,,,,,,,,,,,,,,,,,,,,,,,,,,,,,5f7cc1dd2fe61814cae2ce9c,606a0ef9eb327fa061264a69,2021-04-04_20h16.14.253,Colour_Similarity_Experiment,2020.2.10,Win32,60,60675255c767bca6388caeee,17.93293103,16.80377535,16.70066558,16.70641243,16.88983796,16.80377535,,,,,,,,,,,,,,,,,,,,PF,3,strong,,,,,,,,4,1.468535,,,,,,,,,,,,,,,,,,,,,,,,,,,,9,strong,24,-40,1,0,0,response3disk,2,41,20,-8,1,0,0,rectangle,-36,-83,1,0,0,response5disk_3,3,3,1.882425,1,12,1,0,0,rectangle,0,40,40,11,1,1,,,,,,,,,,,,,,,,,,,
,,,,,,,,,,,,,,,,,,,,,,,,,,,,,,,,,,,,,,,,,,5f7cc1dd2fe61814cae2ce9c,606a0ef9eb327fa061264a69,2021-04-04_20h16.14.253,Colour_Similarity_Experiment,2020.2.10,Win32,60,60675255c767bca6388caeee,17.93293103,16.80377535,16.70066558,16.70641243,16.88983796,16.80377535,,,,,,,,,,,,,,,,,,,,PF,3,strong,,,,,,,,6,1.453445,,,,,,,,,,,,,,,,,,,,,,,,,,,,5,strong,64,47,1,0,0,response1disk,1,42,2,-2,1,0,0,rectangle,2,-2,1,0,0,,3,5,0.002795,2,-2,1,0,0,,0,41,41,131,1,0,,,,,,,,,,,,,,,,,,,
,,,,,,,,,,,,,,,,,,,,,,,,,,,,,,,,,,,,,,,,,,5f7cc1dd2fe61814cae2ce9c,606a0ef9eb327fa061264a69,2021-04-04_20h16.14.253,Colour_Similarity_Experiment,2020.2.10,Win32,60,60675255c767bca6388caeee,17.93293103,16.80377535,16.70066558,16.70641243,16.88983796,16.80377535,,,,,,,,,,,,,,,,,,,,PF,3,strong,,,,,,,,6,1.53334,,,,,,,,,,,,,,,,,,,,,,,,,,,,4,strong,55,28,1,0,0,response1disk,1,43,14,2,1,0,0,rectangle,14,2,1,0,0,,3,3,0.004495,14,2,1,0,0,,0,42,42,102,1,0,,,,,,,,,,,,,,,,,,,
,,,,,,,,,,,,,,,,,,,,,,,,,,,,,,,,,,,,,,,,,,5f7cc1dd2fe61814cae2ce9c,606a0ef9eb327fa061264a69,2021-04-04_20h16.14.253,Colour_Similarity_Experiment,2020.2.10,Win32,60,60675255c767bca6388caeee,17.93293103,16.80377535,16.70066558,16.70641243,16.88983796,16.80377535,,,,,,,,,,,,,,,,,,,,PF,3,strong,,,,,,,,3,1.91083,,,,,,,,,,,,,,,,,,,,,,,,,,,,8,strong,-25,-76,1,0,0,response5disk,5,44,15,-7,1,0,0,rectangle,15,-7,1,0,0,,3,1,0.003785,15,-7,1,0,0,,0,43,43,152,1,0,,,,,,,,,,,,,,,,,,,
,,,,,,,,,,,,,,,,,,,,,,,,,,,,,,,,,,,,,,,,,,5f7cc1dd2fe61814cae2ce9c,606a0ef9eb327fa061264a69,2021-04-04_20h16.14.253,Colour_Similarity_Experiment,2020.2.10,Win32,60,60675255c767bca6388caeee,17.93293103,16.80377535,16.70066558,16.70641243,16.88983796,16.80377535,,,,,,,,,,,,,,,,,,,,PF,3,strong,,,,,,,,5,1.46162,,,,,,,,,,,,,,,,,,,,,,,,,,,,1,strong,70,-33,1,0,0,response3disk,4,45,-1,-6,1,0,0,rectangle,-1,-6,1,0,0,,3,1,0.000505,-1,-6,1,0,0,,0,44,44,135,1,0,,,,,,,,,,,,,,,,,,,
,,,,,,,,,,,,,,,,,,,,,,,,,,,,,,,,,,,,,,,,,,5f7cc1dd2fe61814cae2ce9c,606a0ef9eb327fa061264a69,2021-04-04_20h16.14.253,Colour_Similarity_Experiment,2020.2.10,Win32,60,60675255c767bca6388caeee,17.93293103,16.80377535,16.70066558,16.70641243,16.88983796,16.80377535,,,,,,,,,,,,,,,,,,,,PF,3,strong,,,,,,,,5,1.6528,,,,,,,,,,,,,,,,,,,,,,,,,,,,9,strong,74,-52,1,0,0,response3disk,7,46,9,-14,1,0,0,rectangle,9,-14,1,0,0,,3,0,0.0026,9,-14,1,0,0,,0,45,45,100,1,0,,,,,,,,,,,,,,,,,,,
,,,,,,,,,,,,,,,,,,,,,,,,,,,,,,,,,,,,,,,,,,5f7cc1dd2fe61814cae2ce9c,606a0ef9eb327fa061264a69,2021-04-04_20h16.14.253,Colour_Similarity_Experiment,2020.2.10,Win32,60,60675255c767bca6388caeee,17.93293103,16.80377535,16.70066558,16.70641243,16.88983796,16.80377535,,,,,,,,,,,,,,,,,,,,PF,3,strong,,,,,,,,4,1.72589,,,,,,,,,,,,,,,,,,,,,,,,,,,,2,strong,47,-57,1,0,0,response3disk,7,47,9,2,1,0,0,rectangle,9,2,1,0,0,,3,0,0.001,9,2,1,0,0,,0,46,46,63,1,0,,,,,,,,,,,,,,,,,,,
,,,,,,,,,,,,,,,,,,,,,,,,,,,,,,,,,,,,,,,,,,5f7cc1dd2fe61814cae2ce9c,606a0ef9eb327fa061264a69,2021-04-04_20h16.14.253,Colour_Similarity_Experiment,2020.2.10,Win32,60,60675255c767bca6388caeee,17.93293103,16.80377535,16.70066558,16.70641243,16.88983796,16.80377535,,,,,,,,,,,,,,,,,,,,PF,3,strong,,,,,,,,4,2.05159,,,,,,,,,,,,,,,,,,,,,,,,,,,,9,strong,25,-47,1,0,0,response3disk,5,48,13,-11,1,0,0,rectangle,13,-11,1,0,0,,3,7,0.00251,13,-11,1,0,0,,0,47,47,128,1,0,,,,,,,,,,,,,,,,,,,
,,,,,,,,,,,,,,,,,,,,,,,,,,,,,,,,,,,,,,,,,,5f7cc1dd2fe61814cae2ce9c,606a0ef9eb327fa061264a69,2021-04-04_20h16.14.253,Colour_Similarity_Experiment,2020.2.10,Win32,60,60675255c767bca6388caeee,17.93293103,16.80377535,16.70066558,16.70641243,16.88983796,16.80377535,,,,,,,,,,,,,,,,,,,,PF,3,strong,,,,,,,,1,1.53886,,,,,,,,,,,,,,,,,,,,,,,,,,,,4,strong,-72,27,1,0,0,response7disk,3,49,1,-5,1,0,0,rectangle,1,-5,1,0,0,,3,2,0.00274,1,-5,1,0,0,,0,48,48,77,1,0,,,,,,,,,,,,,,,,,,,
,,,,,,,,,,,,,,,,,,,,,,,,,,,,,,,,,,,,,,,,,,5f7cc1dd2fe61814cae2ce9c,606a0ef9eb327fa061264a69,2021-04-04_20h16.14.253,Colour_Similarity_Experiment,2020.2.10,Win32,60,60675255c767bca6388caeee,17.93293103,16.80377535,16.70066558,16.70641243,16.88983796,16.80377535,,,,,,,,,,,,,,,,,,,,PF,3,weak,,,,,,,,5,1.64842,,,,,,,,,,,,,,,,,,,,,,,,,,,,2,weak,46,-45,1,0,0,response3disk,9,50,4,-15,1,0,0,rectangle,4,-15,1,0,0,,3,7,0.00289,4,-15,1,0,0,,0,49,49,39,1,0,,,,,,,,,,,,,,,,,,,
,,,,,,,,,,,,,,,,,,,,,,,,,,,,,,,,,,,,,,,,,,5f7cc1dd2fe61814cae2ce9c,606a0ef9eb327fa061264a69,2021-04-04_20h16.14.253,Colour_Similarity_Experiment,2020.2.10,Win32,60,60675255c767bca6388caeee,17.93293103,16.80377535,16.70066558,16.70641243,16.88983796,16.80377535,,,,,,,,,,,,,,,,,,,,PF,3,strong,,,,,,,,2,1.235085,,,,,,,,,,,,,,,,,,,,,,,,,,,,7,strong,-58,-40,1,0,0,response5disk,5,51,3,0,1,0,0,rectangle,3,0,1,0,0,,3,1,0.00291,3,0,1,0,0,,0,50,50,156,1,0,,,,,,,,,,,,,,,,,,,
,,,,,,,,,,,,,,,,,,,,,,,,,,,,,,,,,,,,,,,,,,5f7cc1dd2fe61814cae2ce9c,606a0ef9eb327fa061264a69,2021-04-04_20h16.14.253,Colour_Similarity_Experiment,2020.2.10,Win32,60,60675255c767bca6388caeee,17.93293103,16.80377535,16.70066558,16.70641243,16.88983796,16.80377535,,,,,,,,,,,,,,,,,,,,PF,3,strong,,,,,,,,1,1.930505,,,,,,,,,,,,,,,,,,,,,,,,,,,,7,strong,-61,27,1,0,0,response7disk,6,52,-1,4,1,0,0,rectangle,-1,4,1,0,0,,3,2,0.00407,-1,4,1,0,0,,0,51,51,31,1,0,,,,,,,,,,,,,,,,,,,
,,,,,,,,,,,,,,,,,,,,,,,,,,,,,,,,,,,,,,,,,,5f7cc1dd2fe61814cae2ce9c,606a0ef9eb327fa061264a69,2021-04-04_20h16.14.253,Colour_Similarity_Experiment,2020.2.10,Win32,60,60675255c767bca6388caeee,17.93293103,16.80377535,16.70066558,16.70641243,16.88983796,16.80377535,,,,,,,,,,,,,,,,,,,,PF,3,strong,,,,,,,,2,1.52898,,,,,,,,,,,,,,,,,,,,,,,,,,,,9,strong,-79,-34,1,0,0,response5disk,1,53,-3,-10,1,0,0,rectangle,-3,-10,1,0,0,,3,6,0.002845,-3,-10,1,0,0,,0,52,52,111,1,0,,,,,,,,,,,,,,,,,,,
,,,,,,,,,,,,,,,,,,,,,,,,,,,,,,,,,,,,,,,,,,5f7cc1dd2fe61814cae2ce9c,606a0ef9eb327fa061264a69,2021-04-04_20h16.14.253,Colour_Similarity_Experiment,2020.2.10,Win32,60,60675255c767bca6388caeee,17.93293103,16.80377535,16.70066558,16.70641243,16.88983796,16.80377535,,,,,,,,,,,,,,,,,,,,PF,3,weak,,,,,,,,2,1.62262,,,,,,,,,,,,,,,,,,,,,,,,,,,,2,weak,-50,-29,1,0,0,response5disk,3,54,-15,-8,1,0,0,rectangle,-15,-8,1,0,0,,3,7,0.003885,-15,-8,1,0,0,,0,53,53,69,1,0,,,,,,,,,,,,,,,,,,,
,,,,,,,,,,,,,,,,,,,,,,,,,,,,,,,,,,,,,,,,,,5f7cc1dd2fe61814cae2ce9c,606a0ef9eb327fa061264a69,2021-04-04_20h16.14.253,Colour_Similarity_Experiment,2020.2.10,Win32,60,60675255c767bca6388caeee,17.93293103,16.80377535,16.70066558,16.70641243,16.88983796,16.80377535,,,,,,,,,,,,,,,,,,,,PF,3,strong,,,,,,,,4,1.53467,,,,,,,,,,,,,,,,,,,,,,,,,,,,7,strong,15,-43,1,0,0,response3disk,8,55,-6,5,1,0,0,rectangle,-51,37,1,0,0,response7disk_3,1,1,1.850735,-2,1,1,0,0,rectangle,0,54,54,97,1,1,,,,,,,,,,,,,,,,,,,
,,,,,,,,,,,,,,,,,,,,,,,,,,,,,,,,,,,,,,,,,,5f7cc1dd2fe61814cae2ce9c,606a0ef9eb327fa061264a69,2021-04-04_20h16.14.253,Colour_Similarity_Experiment,2020.2.10,Win32,60,60675255c767bca6388caeee,17.93293103,16.80377535,16.70066558,16.70641243,16.88983796,16.80377535,,,,,,,,,,,,,,,,,,,,PF,3,weak,,,,,,,,4,2.315045,,,,,,,,,,,,,,,,,,,,,,,,,,,,7,weak,52,-86,1,0,0,response3disk,8,56,-4,4,1,0,0,rectangle,-4,4,1,0,0,,1,0,0.00449,-4,4,1,0,0,,0,55,55,140,1,0,,,,,,,,,,,,,,,,,,,
,,,,,,,,,,,,,,,,,,,,,,,,,,,,,,,,,,,,,,,,,,5f7cc1dd2fe61814cae2ce9c,606a0ef9eb327fa061264a69,2021-04-04_20h16.14.253,Colour_Similarity_Experiment,2020.2.10,Win32,60,60675255c767bca6388caeee,17.93293103,16.80377535,16.70066558,16.70641243,16.88983796,16.80377535,,,,,,,,,,,,,,,,,,,,PF,3,strong,,,,,,,,2,1.202665,,,,,,,,,,,,,,,,,,,,,,,,,,,,8,strong,-87,-48,1,0,0,response5disk,9,57,-11,0,1,0,0,rectangle,-11,0,1,0,0,,1,3,0.007185,-11,0,1,0,0,,0,56,56,105,1,0,,,,,,,,,,,,,,,,,,,
,,,,,,,,,,,,,,,,,,,,,,,,,,,,,,,,,,,,,,,,,,5f7cc1dd2fe61814cae2ce9c,606a0ef9eb327fa061264a69,2021-04-04_20h16.14.253,Colour_Similarity_Experiment,2020.2.10,Win32,60,60675255c767bca6388caeee,17.93293103,16.80377535,16.70066558,16.70641243,16.88983796,16.80377535,,,,,,,,,,,,,,,,,,,,PF,3,weak,,,,,,,,5,1.383265,,,,,,,,,,,,,,,,,,,,,,,,,,,,1,weak,100,-99,1,0,0,response3disk,5,58,-2,-5,1,0,0,rectangle,-2,-5,1,0,0,,1,1,0.004755,-2,-5,1,0,0,,0,57,57,28,1,0,,,,,,,,,,,,,,,,,,,
,,,,,,,,,,,,,,,,,,,,,,,,,,,,,,,,,,,,,,,,,,5f7cc1dd2fe61814cae2ce9c,606a0ef9eb327fa061264a69,2021-04-04_20h16.14.253,Colour_Similarity_Experiment,2020.2.10,Win32,60,60675255c767bca6388caeee,17.93293103,16.80377535,16.70066558,16.70641243,16.88983796,16.80377535,,,,,,,,,,,,,,,,,,,,PF,3,weak,,,,,,,,4,1.26486,,,,,,,,,,,,,,,,,,,,,,,,,,,,9,weak,78,-118,1,0,0,response3disk,3,59,-14,14,1,0,0,rectangle,-14,14,1,0,0,,1,5,0.00315,-14,14,1,0,0,,0,58,58,119,1,0,,,,,,,,,,,,,,,,,,,
,,,,,,,,,,,,,,,,,,,,,,,,,,,,,,,,,,,,,,,,,,5f7cc1dd2fe61814cae2ce9c,606a0ef9eb327fa061264a69,2021-04-04_20h16.14.253,Colour_Similarity_Experiment,2020.2.10,Win32,60,60675255c767bca6388caeee,17.93293103,16.80377535,16.70066558,16.70641243,16.88983796,16.80377535,,,,,,,,,,,,,,,,,,,,PF,3,strong,,,,,,,,4,2.015585,,,,,,,,,,,,,,,,,,,,,,,,,,,,7,strong,20,-47,1,0,0,response3disk,3,60,8,-5,1,0,0,rectangle,8,-5,1,0,0,,1,0,0.003735,8,-5,1,0,0,,0,59,59,73,1,0,,,,,,,,,,,,,,,,,,,
,,,,,,,,,,,,,,,,,,,,,,,,,,,,,,,,,,,,,,,,,,5f7cc1dd2fe61814cae2ce9c,606a0ef9eb327fa061264a69,2021-04-04_20h16.14.253,Colour_Similarity_Experiment,2020.2.10,Win32,60,60675255c767bca6388caeee,17.93293103,16.80377535,16.70066558,16.70641243,16.88983796,16.80377535,,,,,,,,,,,,,,,,,,,,PF,3,weak,,,,,,,,3,1.51049,,,,,,,,,,,,,,,,,,,,,,,,,,,,5,weak,-32,-58,1,0,0,response5disk,7,61,-5,-7,1,0,0,rectangle,-5,-7,1,0,0,,1,4,0.00313,-5,-7,1,0,0,,0,60,60,146,1,0,,,,,,,,,,,,,,,,,,,
,,,,,,,,,,,,,,,,,,,,,,,,,,,,,,,,,,,,,,,,,,5f7cc1dd2fe61814cae2ce9c,606a0ef9eb327fa061264a69,2021-04-04_20h16.14.253,Colour_Similarity_Experiment,2020.2.10,Win32,60,60675255c767bca6388caeee,17.93293103,16.80377535,16.70066558,16.70641243,16.88983796,16.80377535,,,,,,,,,,,,,,,,,,,,PF,3,weak,,,,,,,,4,1.663985,,,,,,,,,,,,,,,,,,,,,,,,,,,,2,weak,29,-36,1,0,0,response3disk,7,62,12,-5,1,0,0,rectangle,12,-5,1,0,0,,1,3,0.00425,12,-5,1,0,0,,0,61,61,107,1,0,,,,,,,,,,,,,,,,,,,
,,,,,,,,,,,,,,,,,,,,,,,,,,,,,,,,,,,,,,,,,,5f7cc1dd2fe61814cae2ce9c,606a0ef9eb327fa061264a69,2021-04-04_20h16.14.253,Colour_Similarity_Experiment,2020.2.10,Win32,60,60675255c767bca6388caeee,17.93293103,16.80377535,16.70066558,16.70641243,16.88983796,16.80377535,,,,,,,,,,,,,,,,,,,,PF,3,strong,,,,,,,,5,1.316075,,,,,,,,,,,,,,,,,,,,,,,,,,,,9,strong,59,-28,1,0,0,response3disk,8,63,-1,6,1,0,0,rectangle,-1,6,1,0,0,,1,5,0.00383,-1,6,1,0,0,,0,62,62,6,1,0,,,,,,,,,,,,,,,,,,,
,,,,,,,,,,,,,,,,,,,,,,,,,,,,,,,,,,,,,,,,,,5f7cc1dd2fe61814cae2ce9c,606a0ef9eb327fa061264a69,2021-04-04_20h16.14.253,Colour_Similarity_Experiment,2020.2.10,Win32,60,60675255c767bca6388caeee,17.93293103,16.80377535,16.70066558,16.70641243,16.88983796,16.80377535,,,,,,,,,,,,,,,,,,,,PF,3,weak,,,,,,,,4,1.51985,,,,,,,,,,,,,,,,,,,,,,,,,,,,1,weak,21,-47,1,0,0,response3disk,9,64,2,2,1,0,0,rectangle,2,2,1,0,0,,1,4,0.00314,2,2,1,0,0,,0,63,63,15,1,0,,,,,,,,,,,,,,,,,,,
,,,,,,,,,,,,,,,,,,,,,,,,,,,,,,,,,,,,,,,,,,5f7cc1dd2fe61814cae2ce9c,606a0ef9eb327fa061264a69,2021-04-04_20h16.14.253,Colour_Similarity_Experiment,2020.2.10,Win32,60,60675255c767bca6388caeee,17.93293103,16.80377535,16.70066558,16.70641243,16.88983796,16.80377535,,,,,,,,,,,,,,,,,,,,PF,3,strong,,,,,,,,3,1.27731,,,,,,,,,,,,,,,,,,,,,,,,,,,,1,strong,-43,-77,1,0,0,response5disk,2,65,-1,0,1,0,0,rectangle,-1,0,1,0,0,,1,1,0.003465,-1,0,1,0,0,,0,64,64,2,1,0,,,,,,,,,,,,,,,,,,,
,,,,,,,,,,,,,,,,,,,,,,,,,,,,,,,,,,,,,,,,,,5f7cc1dd2fe61814cae2ce9c,606a0ef9eb327fa061264a69,2021-04-04_20h16.14.253,Colour_Similarity_Experiment,2020.2.10,Win32,60,60675255c767bca6388caeee,17.93293103,16.80377535,16.70066558,16.70641243,16.88983796,16.80377535,,,,,,,,,,,,,,,,,,,,PF,3,strong,,,,,,,,4,1.366845,,,,,,,,,,,,,,,,,,,,,,,,,,,,6,strong,15,-44,1,0,0,response3disk,8,66,1,-2,1,0,0,rectangle,1,-2,1,0,0,,1,2,0.00418,1,-2,1,0,0,,0,65,65,133,1,0,,,,,,,,,,,,,,,,,,,
,,,,,,,,,,,,,,,,,,,,,,,,,,,,,,,,,,,,,,,,,,5f7cc1dd2fe61814cae2ce9c,606a0ef9eb327fa061264a69,2021-04-04_20h16.14.253,Colour_Similarity_Experiment,2020.2.10,Win32,60,60675255c767bca6388caeee,17.93293103,16.80377535,16.70066558,16.70641243,16.88983796,16.80377535,,,,,,,,,,,,,,,,,,,,PF,3,weak,,,,,,,,4,1.85286,,,,,,,,,,,,,,,,,,,,,,,,,,,,8,weak,21,-85,1,0,0,response3disk,1,67,-3,-8,1,0,0,rectangle,-3,-8,1,0,0,,1,4,0.00265,-3,-8,1,0,0,,0,66,66,57,1,0,,,,,,,,,,,,,,,,,,,
,,,,,,,,,,,,,,,,,,,,,,,,,,,,,,,,,,,,,,,,,,5f7cc1dd2fe61814cae2ce9c,606a0ef9eb327fa061264a69,2021-04-04_20h16.14.253,Colour_Similarity_Experiment,2020.2.10,Win32,60,60675255c767bca6388caeee,17.93293103,16.80377535,16.70066558,16.70641243,16.88983796,16.80377535,,,,,,,,,,,,,,,,,,,,PF,3,weak,,,,,,,,3,1.86718,,,,,,,,,,,,,,,,,,,,,,,,,,,,5,weak,-22,-66,1,0,0,response5disk,4,68,6,6,1,0,0,rectangle,6,6,1,0,0,,1,4,0.001035,6,6,1,0,0,,0,67,67,54,1,0,,,,,,,,,,,,,,,,,,,
,,,,,,,,,,,,,,,,,,,,,,,,,,,,,,,,,,,,,,,,,,5f7cc1dd2fe61814cae2ce9c,606a0ef9eb327fa061264a69,2021-04-04_20h16.14.253,Colour_Similarity_Experiment,2020.2.10,Win32,60,60675255c767bca6388caeee,17.93293103,16.80377535,16.70066558,16.70641243,16.88983796,16.80377535,,,,,,,,,,,,,,,,,,,,PF,3,weak,,,,,,,,6,1.754585,,,,,,,,,,,,,,,,,,,,,,,,,,,,4,weak,84,26,1,0,0,response1disk,1,69,31,7,1,0,0,rectangle,31,7,1,0,0,,1,5,0.0042,31,7,1,0,0,,0,68,68,115,1,0,,,,,,,,,,,,,,,,,,,
,,,,,,,,,,,,,,,,,,,,,,,,,,,,,,,,,,,,,,,,,,5f7cc1dd2fe61814cae2ce9c,606a0ef9eb327fa061264a69,2021-04-04_20h16.14.253,Colour_Similarity_Experiment,2020.2.10,Win32,60,60675255c767bca6388caeee,17.93293103,16.80377535,16.70066558,16.70641243,16.88983796,16.80377535,,,,,,,,,,,,,,,,,,,,PF,3,weak,,,,,,,,6,1.454555,,,,,,,,,,,,,,,,,,,,,,,,,,,,6,weak,70,28,1,0,0,response1disk,1,70,18,1,1,0,0,rectangle,18,1,1,0,0,,1,7,0.00287,18,1,1,0,0,,0,69,69,46,1,0,,,,,,,,,,,,,,,,,,,
,,,,,,,,,,,,,,,,,,,,,,,,,,,,,,,,,,,,,,,,,,5f7cc1dd2fe61814cae2ce9c,606a0ef9eb327fa061264a69,2021-04-04_20h16.14.253,Colour_Similarity_Experiment,2020.2.10,Win32,60,60675255c767bca6388caeee,17.93293103,16.80377535,16.70066558,16.70641243,16.88983796,16.80377535,,,,,,,,,,,,,,,,,,,,PF,3,weak,,,,,,,,5,2.497735,,,,,,,,,,,,,,,,,,,,,,,,,,,,3,weak,54,-29,1,0,0,response3disk,7,71,17,-6,1,0,0,rectangle,17,-6,1,0,0,,1,3,0.003015,17,-6,1,0,0,,0,70,70,41,1,0,,,,,,,,,,,,,,,,,,,
,,,,,,,,,,,,,,,,,,,,,,,,,,,,,,,,,,,,,,,,,,5f7cc1dd2fe61814cae2ce9c,606a0ef9eb327fa061264a69,2021-04-04_20h16.14.253,Colour_Similarity_Experiment,2020.2.10,Win32,60,60675255c767bca6388caeee,17.93293103,16.80377535,16.70066558,16.70641243,16.88983796,16.80377535,,,,,,,,,,,,,,,,,,,,PF,3,strong,,,,,,,,4,1.399995,,,,,,,,,,,,,,,,,,,,,,,,,,,,3,strong,43,-66,1,0,0,response3disk,9,72,8,1,1,0,0,rectangle,8,1,1,0,0,,1,5,0.00463,8,1,1,0,0,,0,71,71,143,1,0,,,,,,,,,,,,,,,,,,,
,,,,,,,,,,,,,,,,,,,,,,,,,,,,,,,,,,,,,,,,,,5f7cc1dd2fe61814cae2ce9c,606a0ef9eb327fa061264a69,2021-04-04_20h16.14.253,Colour_Similarity_Experiment,2020.2.10,Win32,60,60675255c767bca6388caeee,17.93293103,16.80377535,16.70066558,16.70641243,16.88983796,16.80377535,,,,,,,,,,,,,,,,,,,,PF,3,weak,,,,,,,,4,1.554565,,,,,,,,,,,,,,,,,,,,,,,,,,,,2,weak,37,-82,1,0,0,response3disk,5,73,10,-2,1,0,0,rectangle,10,-2,1,0,0,,1,7,0.004615,10,-2,1,0,0,,0,72,72,147,1,0,,,,,,,,,,,,,,,,,,,
,,,,,,,,,,,,,,,,,,,,,,,,,,,,,,,,,,,,,,,,,,5f7cc1dd2fe61814cae2ce9c,606a0ef9eb327fa061264a69,2021-04-04_20h16.14.253,Colour_Similarity_Experiment,2020.2.10,Win32,60,60675255c767bca6388caeee,17.93293103,16.80377535,16.70066558,16.70641243,16.88983796,16.80377535,,,,,,,,,,,,,,,,,,,,PF,3,weak,,,,,,,,4,1.142965,,,,,,,,,,,,,,,,,,,,,,,,,,,,9,weak,27,-108,1,0,0,response3disk,7,74,24,-2,1,0,0,rectangle,24,-2,1,0,0,,1,5,0.007365,24,-2,1,0,0,,0,73,73,121,1,0,,,,,,,,,,,,,,,,,,,
,,,,,,,,,,,,,,,,,,,,,,,,,,,,,,,,,,,,,,,,,,5f7cc1dd2fe61814cae2ce9c,606a0ef9eb327fa061264a69,2021-04-04_20h16.14.253,Colour_Similarity_Experiment,2020.2.10,Win32,60,60675255c767bca6388caeee,17.93293103,16.80377535,16.70066558,16.70641243,16.88983796,16.80377535,,,,,,,,,,,,,,,,,,,,PF,3,strong,,,,,,,,5,1.607545,,,,,,,,,,,,,,,,,,,,,,,,,,,,5,strong,48,-36,1,0,0,response3disk,8,75,11,-7,1,0,0,rectangle,11,-7,1,0,0,,1,1,0.003105,11,-7,1,0,0,,0,74,74,16,1,0,,,,,,,,,,,,,,,,,,,
,,,,,,,,,,,,,,,,,,,,,,,,,,,,,,,,,,,,,,,,,,5f7cc1dd2fe61814cae2ce9c,606a0ef9eb327fa061264a69,2021-04-04_20h16.14.253,Colour_Similarity_Experiment,2020.2.10,Win32,60,60675255c767bca6388caeee,17.93293103,16.80377535,16.70066558,16.70641243,16.88983796,16.80377535,,,,,,,,,,,,,,,,,,,,PF,3,strong,,,,,,,,3,1.358595,,,,,,,,,,,,,,,,,,,,,,,,,,,,2,strong,-22,-60,1,0,0,response5disk,1,76,8,-12,1,0,0,rectangle,8,-12,1,0,0,,1,6,0.002555,8,-12,1,0,0,,0,75,75,85,1,0,,,,,,,,,,,,,,,,,,,
,,,,,,,,,,,,,,,,,,,,,,,,,,,,,,,,,,,,,,,,,,5f7cc1dd2fe61814cae2ce9c,606a0ef9eb327fa061264a69,2021-04-04_20h16.14.253,Colour_Similarity_Experiment,2020.2.10,Win32,60,60675255c767bca6388caeee,17.93293103,16.80377535,16.70066558,16.70641243,16.88983796,16.80377535,,,,,,,,,,,,,,,,,,,,PF,3,weak,,,,,,,,5,1.59692,,,,,,,,,,,,,,,,,,,,,,,,,,,,2,weak,50,-28,1,0,0,response3disk,8,77,11,-3,1,0,0,rectangle,11,-3,1,0,0,,1,0,0.00279,11,-3,1,0,0,,0,76,76,52,1,0,,,,,,,,,,,,,,,,,,,
,,,,,,,,,,,,,,,,,,,,,,,,,,,,,,,,,,,,,,,,,,5f7cc1dd2fe61814cae2ce9c,606a0ef9eb327fa061264a69,2021-04-04_20h16.14.253,Colour_Similarity_Experiment,2020.2.10,Win32,60,60675255c767bca6388caeee,17.93293103,16.80377535,16.70066558,16.70641243,16.88983796,16.80377535,,,,,,,,,,,,,,,,,,,,PF,3,weak,,,,,,,,5,1.408455,,,,,,,,,,,,,,,,,,,,,,,,,,,,8,weak,46,-26,1,0,0,response3disk,3,78,4,12,1,0,0,rectangle,4,12,1,0,0,,1,4,0.002565,4,12,1,0,0,,0,77,77,71,1,0,,,,,,,,,,,,,,,,,,,
,,,,,,,,,,,,,,,,,,,,,,,,,,,,,,,,,,,,,,,,,,5f7cc1dd2fe61814cae2ce9c,606a0ef9eb327fa061264a69,2021-04-04_20h16.14.253,Colour_Similarity_Experiment,2020.2.10,Win32,60,60675255c767bca6388caeee,17.93293103,16.80377535,16.70066558,16.70641243,16.88983796,16.80377535,,,,,,,,,,,,,,,,,,,,PF,3,strong,,,,,,,,3,1.24705,,,,,,,,,,,,,,,,,,,,,,,,,,,,4,strong,-29,-51,1,0,0,response5disk,5,79,15,12,1,0,0,rectangle,15,12,1,0,0,,1,0,0.00302,15,12,1,0,0,,0,78,78,116,1,0,,,,,,,,,,,,,,,,,,,
,,,,,,,,,,,,,,,,,,,,,,,,,,,,,,,,,,,,,,,,,,5f7cc1dd2fe61814cae2ce9c,606a0ef9eb327fa061264a69,2021-04-04_20h16.14.253,Colour_Similarity_Experiment,2020.2.10,Win32,60,60675255c767bca6388caeee,17.93293103,16.80377535,16.70066558,16.70641243,16.88983796,16.80377535,,,,,,,,,,,,,,,,,,,,PF,3,strong,,,,,,,,2,1.268955,,,,,,,,,,,,,,,,,,,,,,,,,,,,6,strong,-63,-28,1,0,0,response5disk,7,80,-15,-1,1,0,0,rectangle,-15,-1,1,0,0,,1,6,0.003465,-15,-1,1,0,0,,0,79,79,18,1,0,,,,,,,,,,,,,,,,,,,
,,,,,,,,,,,,,,,,,,,,,,,,,,,,,,,,,,,,,,,,,,5f7cc1dd2fe61814cae2ce9c,606a0ef9eb327fa061264a69,2021-04-04_20h16.14.253,Colour_Similarity_Experiment,2020.2.10,Win32,60,60675255c767bca6388caeee,17.93293103,16.80377535,16.70066558,16.70641243,16.88983796,16.80377535,,,,,,,,,,,,,,,,,,,,PF,3,weak,,,,,,,,5,1.257355,,,,,,,,,,,,,,,,,,,,,,,,,,,,7,weak,50,-24,1,0,0,response3disk,1,81,7,-10,1,0,0,rectangle,7,-10,1,0,0,,1,6,0.00037,7,-10,1,0,0,,0,80,80,53,1,0,,,,,,,,,,,,,,,,,,,
,,,,,,,,,,,,,,,,,,,,,,,,,,,,,,,,,,,,,,,,,,5f7cc1dd2fe61814cae2ce9c,606a0ef9eb327fa061264a69,2021-04-04_20h16.14.253,Colour_Similarity_Experiment,2020.2.10,Win32,60,60675255c767bca6388caeee,17.93293103,16.80377535,16.70066558,16.70641243,16.88983796,16.80377535,,,,,,,,,,,,,,,,,,,,PF,3,strong,,,,,,,,4,1.45972,,,,,,,,,,,,,,,,,,,,,,,,,,,,2,strong,23,-48,1,0,0,response3disk,5,82,1,4,1,0,0,rectangle,1,4,1,0,0,,1,4,0.00332,1,4,1,0,0,,0,81,81,80,1,0,,,,,,,,,,,,,,,,,,,
,,,,,,,,,,,,,,,,,,,,,,,,,,,,,,,,,,,,,,,,,,5f7cc1dd2fe61814cae2ce9c,606a0ef9eb327fa061264a69,2021-04-04_20h16.14.253,Colour_Similarity_Experiment,2020.2.10,Win32,60,60675255c767bca6388caeee,17.93293103,16.80377535,16.70066558,16.70641243,16.88983796,16.80377535,,,,,,,,,,,,,,,,,,,,PF,3,strong,,,,,,,,4,1.284685,,,,,,,,,,,,,,,,,,,,,,,,,,,,3,strong,29,-60,1,0,0,response3disk,7,83,3,9,1,0,0,rectangle,3,9,1,0,0,,1,0,0.00307,3,9,1,0,0,,0,82,82,118,1,0,,,,,,,,,,,,,,,,,,,
,,,,,,,,,,,,,,,,,,,,,,,,,,,,,,,,,,,,,,,,,,5f7cc1dd2fe61814cae2ce9c,606a0ef9eb327fa061264a69,2021-04-04_20h16.14.253,Colour_Similarity_Experiment,2020.2.10,Win32,60,60675255c767bca6388caeee,17.93293103,16.80377535,16.70066558,16.70641243,16.88983796,16.80377535,,,,,,,,,,,,,,,,,,,,PF,3,weak,,,,,,,,3,1.85274,,,,,,,,,,,,,,,,,,,,,,,,,,,,2,weak,-34,-51,1,0,0,response5disk,1,84,-8,-3,1,0,0,rectangle,-8,-3,1,0,0,,1,5,0.0038,-8,-3,1,0,0,,0,83,83,9,1,0,,,,,,,,,,,,,,,,,,,
,,,,,,,,,,,,,,,,,,,,,,,,,,,,,,,,,,,,,,,,,,5f7cc1dd2fe61814cae2ce9c,606a0ef9eb327fa061264a69,2021-04-04_20h16.14.253,Colour_Similarity_Experiment,2020.2.10,Win32,60,60675255c767bca6388caeee,17.93293103,16.80377535,16.70066558,16.70641243,16.88983796,16.80377535,,,,,,,,,,,,,,,,,,,,PF,3,strong,,,,,,,,2,1.374335,,,,,,,,,,,,,,,,,,,,,,,,,,,,8,strong,-60,-26,1,0,0,response5disk,8,85,-15,0,1,0,0,rectangle,-15,0,1,0,0,,1,7,0.00429,-15,0,1,0,0,,0,84,84,48,1,0,,,,,,,,,,,,,,,,,,,
,,,,,,,,,,,,,,,,,,,,,,,,,,,,,,,,,,,,,,,,,,5f7cc1dd2fe61814cae2ce9c,606a0ef9eb327fa061264a69,2021-04-04_20h16.14.253,Colour_Similarity_Experiment,2020.2.10,Win32,60,60675255c767bca6388caeee,17.93293103,16.80377535,16.70066558,16.70641243,16.88983796,16.80377535,,,,,,,,,,,,,,,,,,,,PF,3,weak,,,,,,,,5,1.295325,,,,,,,,,,,,,,,,,,,,,,,,,,,,3,weak,58,-31,1,0,0,response3disk,9,86,-10,1,1,0,0,rectangle,-10,1,1,0,0,,1,1,0.00411,-10,1,1,0,0,,0,85,85,79,1,0,,,,,,,,,,,,,,,,,,,
,,,,,,,,,,,,,,,,,,,,,,,,,,,,,,,,,,,,,,,,,,5f7cc1dd2fe61814cae2ce9c,606a0ef9eb327fa061264a69,2021-04-04_20h16.14.253,Colour_Similarity_Experiment,2020.2.10,Win32,60,60675255c767bca6388caeee,17.93293103,16.80377535,16.70066558,16.70641243,16.88983796,16.80377535,,,,,,,,,,,,,,,,,,,,PF,3,strong,,,,,,,,5,1.385885,,,,,,,,,,,,,,,,,,,,,,,,,,,,1,strong,56,-33,1,0,0,response3disk,5,87,17,-10,1,0,0,rectangle,17,-10,1,0,0,,1,2,0.003385,17,-10,1,0,0,,0,86,86,82,1,0,,,,,,,,,,,,,,,,,,,
,,,,,,,,,,,,,,,,,,,,,,,,,,,,,,,,,,,,,,,,,,5f7cc1dd2fe61814cae2ce9c,606a0ef9eb327fa061264a69,2021-04-04_20h16.14.253,Colour_Similarity_Experiment,2020.2.10,Win32,60,60675255c767bca6388caeee,17.93293103,16.80377535,16.70066558,16.70641243,16.88983796,16.80377535,,,,,,,,,,,,,,,,,,,,PF,3,weak,,,,,,,,0,1.415065,,,,,,,,,,,,,,,,,,,,,,,,,,,,4,weak,-44,46,1,0,0,response7disk,3,88,-7,-3,1,0,0,rectangle,-7,-3,1,0,0,,1,2,0.00057,-7,-3,1,0,0,,0,87,87,89,1,0,,,,,,,,,,,,,,,,,,,
,,,,,,,,,,,,,,,,,,,,,,,,,,,,,,,,,,,,,,,,,,5f7cc1dd2fe61814cae2ce9c,606a0ef9eb327fa061264a69,2021-04-04_20h16.14.253,Colour_Similarity_Experiment,2020.2.10,Win32,60,60675255c767bca6388caeee,17.93293103,16.80377535,16.70066558,16.70641243,16.88983796,16.80377535,,,,,,,,,,,,,,,,,,,,PF,3,strong,,,,,,,,3,1.559785,,,,,,,,,,,,,,,,,,,,,,,,,,,,4,strong,-41,-67,1,0,0,response5disk,7,89,-12,-13,1,0,0,rectangle,-12,-13,1,0,0,,1,6,0.00242,-12,-13,1,0,0,,0,88,88,87,1,0,,,,,,,,,,,,,,,,,,,
,,,,,,,,,,,,,,,,,,,,,,,,,,,,,,,,,,,,,,,,,,5f7cc1dd2fe61814cae2ce9c,606a0ef9eb327fa061264a69,2021-04-04_20h16.14.253,Colour_Similarity_Experiment,2020.2.10,Win32,60,60675255c767bca6388caeee,17.93293103,16.80377535,16.70066558,16.70641243,16.88983796,16.80377535,,,,,,,,,,,,,,,,,,,,PF,3,strong,,,,,,,,3,1.25271,,,,,,,,,,,,,,,,,,,,,,,,,,,,3,strong,-45,-66,1,0,0,response5disk,6,90,-8,-9,1,0,0,rectangle,-8,-9,1,0,0,,1,6,0.000485,-8,-9,1,0,0,,0,89,89,95,1,0,,,,,,,,,,,,,,,,,,,
,,,,,,,,,,,,,,,,,,,,,,,,,,,,,,,,,,,,,,,,,,5f7cc1dd2fe61814cae2ce9c,606a0ef9eb327fa061264a69,2021-04-04_20h16.14.253,Colour_Similarity_Experiment,2020.2.10,Win32,60,60675255c767bca6388caeee,17.93293103,16.80377535,16.70066558,16.70641243,16.88983796,16.80377535,,,,,,,,,,,,,,,,,,,,PF,3,weak,,,,,,,,5,1.200755,,,,,,,,,,,,,,,,,,,,,,,,,,,,4,weak,59,-53,1,0,0,response3disk,9,91,-2,8,1,0,0,rectangle,-2,8,1,0,0,,1,7,0.003955,-2,8,1,0,0,,0,90,90,75,1,0,,,,,,,,,,,,,,,,,,,
,,,,,,,,,,,,,,,,,,,,,,,,,,,,,,,,,,,,,,,,,,5f7cc1dd2fe61814cae2ce9c,606a0ef9eb327fa061264a69,2021-04-04_20h16.14.253,Colour_Similarity_Experiment,2020.2.10,Win32,60,60675255c767bca6388caeee,17.93293103,16.80377535,16.70066558,16.70641243,16.88983796,16.80377535,,,,,,,,,,,,,,,,,,,,PF,3,strong,,,,,,,,4,1.817785,,,,,,,,,,,,,,,,,,,,,,,,,,,,3,strong,19,-48,1,0,0,response3disk,5,92,5,-2,1,0,0,rectangle,5,-2,1,0,0,,1,2,0.003835,5,-2,1,0,0,,0,91,91,101,1,0,,,,,,,,,,,,,,,,,,,
,,,,,,,,,,,,,,,,,,,,,,,,,,,,,,,,,,,,,,,,,,5f7cc1dd2fe61814cae2ce9c,606a0ef9eb327fa061264a69,2021-04-04_20h16.14.253,Colour_Similarity_Experiment,2020.2.10,Win32,60,60675255c767bca6388caeee,17.93293103,16.80377535,16.70066558,16.70641243,16.88983796,16.80377535,,,,,,,,,,,,,,,,,,,,PF,3,weak,,,,,,,,5,1.30888,,,,,,,,,,,,,,,,,,,,,,,,,,,,4,weak,71,-42,1,0,0,response3disk,8,93,3,3,1,0,0,rectangle,3,3,1,0,0,,1,4,0.00316,3,3,1,0,0,,0,92,92,124,1,0,,,,,,,,,,,,,,,,,,,
,,,,,,,,,,,,,,,,,,,,,,,,,,,,,,,,,,,,,,,,,,5f7cc1dd2fe61814cae2ce9c,606a0ef9eb327fa061264a69,2021-04-04_20h16.14.253,Colour_Similarity_Experiment,2020.2.10,Win32,60,60675255c767bca6388caeee,17.93293103,16.80377535,16.70066558,16.70641243,16.88983796,16.80377535,,,,,,,,,,,,,,,,,,,,PF,3,strong,,,,,,,,5,1.19832,,,,,,,,,,,,,,,,,,,,,,,,,,,,2,strong,55,-29,1,0,0,response3disk,8,94,-4,14,1,0,0,rectangle,-4,14,1,0,0,,1,3,0.00258,-4,14,1,0,0,,0,93,93,62,1,0,,,,,,,,,,,,,,,,,,,
,,,,,,,,,,,,,,,,,,,,,,,,,,,,,,,,,,,,,,,,,,5f7cc1dd2fe61814cae2ce9c,606a0ef9eb327fa061264a69,2021-04-04_20h16.14.253,Colour_Similarity_Experiment,2020.2.10,Win32,60,60675255c767bca6388caeee,17.93293103,16.80377535,16.70066558,16.70641243,16.88983796,16.80377535,,,,,,,,,,,,,,,,,,,,PF,3,weak,,,,,,,,6,2.04757,,,,,,,,,,,,,,,,,,,,,,,,,,,,6,weak,106,23,1,0,0,response1disk,9,95,6,-13,1,0,0,rectangle,6,-13,1,0,0,,1,6,0.00409,6,-13,1,0,0,,0,94,94,45,1,0,,,,,,,,,,,,,,,,,,,
,,,,,,,,,,,,,,,,,,,,,,,,,,,,,,,,,,,,,,,,,,5f7cc1dd2fe61814cae2ce9c,606a0ef9eb327fa061264a69,2021-04-04_20h16.14.253,Colour_Similarity_Experiment,2020.2.10,Win32,60,60675255c767bca6388caeee,17.93293103,16.80377535,16.70066558,16.70641243,16.88983796,16.80377535,,,,,,,,,,,,,,,,,,,,PF,3,weak,,,,,,,,2,1.216315,,,,,,,,,,,,,,,,,,,,,,,,,,,,6,weak,-63,-30,1,0,0,response5disk,6,96,11,13,1,0,0,rectangle,11,13,1,0,0,,1,6,0.000525,11,13,1,0,0,,0,95,95,0,1,0,,,,,,,,,,,,,,,,,,,
,,,,,,,,,,,,,,,,,,,,,,,,,,,,,,,,,,,,,,,,,,5f7cc1dd2fe61814cae2ce9c,606a0ef9eb327fa061264a69,2021-04-04_20h16.14.253,Colour_Similarity_Experiment,2020.2.10,Win32,60,60675255c767bca6388caeee,17.93293103,16.80377535,16.70066558,16.70641243,16.88983796,16.80377535,,,,,,,,,,,,,,,,,,,,PF,3,weak,,,,,,,,4,1.467355,,,,,,,,,,,,,,,,,,,,,,,,,,,,2,weak,26,-36,1,0,0,response3disk,4,97,9,-1,1,0,0,rectangle,9,-1,1,0,0,,1,1,0.002505,9,-1,1,0,0,,0,96,96,127,1,0,,,,,,,,,,,,,,,,,,,
,,,,,,,,,,,,,,,,,,,,,,,,,,,,,,,,,,,,,,,,,,5f7cc1dd2fe61814cae2ce9c,606a0ef9eb327fa061264a69,2021-04-04_20h16.14.253,Colour_Similarity_Experiment,2020.2.10,Win32,60,60675255c767bca6388caeee,17.93293103,16.80377535,16.70066558,16.70641243,16.88983796,16.80377535,,,,,,,,,,,,,,,,,,,,PF,3,weak,,,,,,,,5,1.09798,,,,,,,,,,,,,,,,,,,,,,,,,,,,4,weak,57,-34,1,0,0,response3disk,7,98,4,8,1,0,0,rectangle,4,8,1,0,0,,1,6,0.004545,4,8,1,0,0,,0,97,97,38,1,0,,,,,,,,,,,,,,,,,,,
,,,,,,,,,,,,,,,,,,,,,,,,,,,,,,,,,,,,,,,,,,5f7cc1dd2fe61814cae2ce9c,606a0ef9eb327fa061264a69,2021-04-04_20h16.14.253,Colour_Similarity_Experiment,2020.2.10,Win32,60,60675255c767bca6388caeee,17.93293103,16.80377535,16.70066558,16.70641243,16.88983796,16.80377535,,,,,,,,,,,,,,,,,,,,PF,3,strong,,,,,,,,3,1.34701,,,,,,,,,,,,,,,,,,,,,,,,,,,,3,strong,-45,-54,1,0,0,response5disk,3,99,-24,-15,1,0,0,rectangle,-24,-15,1,0,0,,1,6,0.00078,-24,-15,1,0,0,,0,98,98,68,1,0,,,,,,,,,,,,,,,,,,,
,,,,,,,,,,,,,,,,,,,,,,,,,,,,,,,,,,,,,,,,,,5f7cc1dd2fe61814cae2ce9c,606a0ef9eb327fa061264a69,2021-04-04_20h16.14.253,Colour_Similarity_Experiment,2020.2.10,Win32,60,60675255c767bca6388caeee,17.93293103,16.80377535,16.70066558,16.70641243,16.88983796,16.80377535,,,,,,,,,,,,,,,,,,,,PF,3,strong,,,,,,,,4,2.357395,,,,,,,,,,,,,,,,,,,,,,,,,,,,4,strong,25,-49,1,0,0,response3disk,6,100,3,4,1,0,0,rectangle,3,4,1,0,0,,1,4,0.00272,3,4,1,0,0,,0,99,99,122,1,0,,,,,,,,,,,,,,,,,,,
,,,,,,,,,,,,,,,,,,,,,,,,,,,,,,,,,,,,,,,,,,5f7cc1dd2fe61814cae2ce9c,606a0ef9eb327fa061264a69,2021-04-04_20h16.14.253,Colour_Similarity_Experiment,2020.2.10,Win32,60,60675255c767bca6388caeee,17.93293103,16.80377535,16.70066558,16.70641243,16.88983796,16.80377535,,,,,,,,,,,,,,,,,,,,PF,3,weak,,,,,,,,5,1.2129,,,,,,,,,,,,,,,,,,,,,,,,,,,,8,weak,49,-29,1,0,0,response3disk,6,101,10,-9,1,0,0,rectangle,66,38,1,0,0,response1disk_3,6,6,1.90689,6,-6,1,0,0,rectangle,0,100,100,161,1,1,,,,,,,,,,,,,,,,,,,
,,,,,,,,,,,,,,,,,,,,,,,,,,,,,,,,,,,,,,,,,,5f7cc1dd2fe61814cae2ce9c,606a0ef9eb327fa061264a69,2021-04-04_20h16.14.253,Colour_Similarity_Experiment,2020.2.10,Win32,60,60675255c767bca6388caeee,17.93293103,16.80377535,16.70066558,16.70641243,16.88983796,16.80377535,,,,,,,,,,,,,,,,,,,,PF,3,weak,,,,,,,,3,1.38106,,,,,,,,,,,,,,,,,,,,,,,,,,,,7,weak,-40,-51,1,0,0,response5disk,6,102,1,9,1,0,0,rectangle,1,9,1,0,0,,6,5,0.00288,1,9,1,0,0,,0,101,101,29,1,0,,,,,,,,,,,,,,,,,,,
,,,,,,,,,,,,,,,,,,,,,,,,,,,,,,,,,,,,,,,,,,5f7cc1dd2fe61814cae2ce9c,606a0ef9eb327fa061264a69,2021-04-04_20h16.14.253,Colour_Similarity_Experiment,2020.2.10,Win32,60,60675255c767bca6388caeee,17.93293103,16.80377535,16.70066558,16.70641243,16.88983796,16.80377535,,,,,,,,,,,,,,,,,,,,PF,3,weak,,,,,,,,3,1.54605,,,,,,,,,,,,,,,,,,,,,,,,,,,,3,weak,-24,-41,1,0,0,response5disk,5,103,-6,-6,1,0,0,rectangle,-6,-6,1,0,0,,6,6,0.002855,-6,-6,1,0,0,,0,102,102,66,1,0,,,,,,,,,,,,,,,,,,,
,,,,,,,,,,,,,,,,,,,,,,,,,,,,,,,,,,,,,,,,,,5f7cc1dd2fe61814cae2ce9c,606a0ef9eb327fa061264a69,2021-04-04_20h16.14.253,Colour_Similarity_Experiment,2020.2.10,Win32,60,60675255c767bca6388caeee,17.93293103,16.80377535,16.70066558,16.70641243,16.88983796,16.80377535,,,,,,,,,,,,,,,,,,,,PF,3,weak,,,,,,,,3,1.328655,,,,,,,,,,,,,,,,,,,,,,,,,,,,4,weak,-57,-58,1,0,0,response5disk,4,104,-5,1,1,0,0,rectangle,-5,1,1,0,0,,6,7,0.00423,-5,1,1,0,0,,0,103,103,70,1,0,,,,,,,,,,,,,,,,,,,
,,,,,,,,,,,,,,,,,,,,,,,,,,,,,,,,,,,,,,,,,,5f7cc1dd2fe61814cae2ce9c,606a0ef9eb327fa061264a69,2021-04-04_20h16.14.253,Colour_Similarity_Experiment,2020.2.10,Win32,60,60675255c767bca6388caeee,17.93293103,16.80377535,16.70066558,16.70641243,16.88983796,16.80377535,,,,,,,,,,,,,,,,,,,,PF,3,strong,,,,,,,,1,1.553435,,,,,,,,,,,,,,,,,,,,,,,,,,,,2,strong,-75,29,1,0,0,response7disk,2,105,-24,8,1,0,0,rectangle,-24,8,1,0,0,,6,5,0.0041,-24,8,1,0,0,,0,104,104,142,1,0,,,,,,,,,,,,,,,,,,,
,,,,,,,,,,,,,,,,,,,,,,,,,,,,,,,,,,,,,,,,,,5f7cc1dd2fe61814cae2ce9c,606a0ef9eb327fa061264a69,2021-04-04_20h16.14.253,Colour_Similarity_Experiment,2020.2.10,Win32,60,60675255c767bca6388caeee,17.93293103,16.80377535,16.70066558,16.70641243,16.88983796,16.80377535,,,,,,,,,,,,,,,,,,,,PF,3,weak,,,,,,,,2,1.20107,,,,,,,,,,,,,,,,,,,,,,,,,,,,6,weak,-75,-41,1,0,0,response5disk,5,106,-32,-10,1,0,0,rectangle,-32,-10,1,0,0,,6,0,0.00297,-32,-10,1,0,0,,0,105,105,59,1,0,,,,,,,,,,,,,,,,,,,
,,,,,,,,,,,,,,,,,,,,,,,,,,,,,,,,,,,,,,,,,,5f7cc1dd2fe61814cae2ce9c,606a0ef9eb327fa061264a69,2021-04-04_20h16.14.253,Colour_Similarity_Experiment,2020.2.10,Win32,60,60675255c767bca6388caeee,17.93293103,16.80377535,16.70066558,16.70641243,16.88983796,16.80377535,,,,,,,,,,,,,,,,,,,,PF,3,weak,,,,,,,,5,1.253155,,,,,,,,,,,,,,,,,,,,,,,,,,,,1,weak,74,-40,1,0,0,response3disk,6,107,9,2,1,0,0,rectangle,9,2,1,0,0,,6,2,0.00293,9,2,1,0,0,,0,106,106,144,1,0,,,,,,,,,,,,,,,,,,,
,,,,,,,,,,,,,,,,,,,,,,,,,,,,,,,,,,,,,,,,,,5f7cc1dd2fe61814cae2ce9c,606a0ef9eb327fa061264a69,2021-04-04_20h16.14.253,Colour_Similarity_Experiment,2020.2.10,Win32,60,60675255c767bca6388caeee,17.93293103,16.80377535,16.70066558,16.70641243,16.88983796,16.80377535,,,,,,,,,,,,,,,,,,,,PF,3,strong,,,,,,,,6,1.46531,,,,,,,,,,,,,,,,,,,,,,,,,,,,2,strong,72,23,1,0,0,response1disk,6,108,-3,-9,1,0,0,rectangle,-3,-9,1,0,0,,6,4,0.003355,-3,-9,1,0,0,,0,107,107,40,1,0,,,,,,,,,,,,,,,,,,,
,,,,,,,,,,,,,,,,,,,,,,,,,,,,,,,,,,,,,,,,,,5f7cc1dd2fe61814cae2ce9c,606a0ef9eb327fa061264a69,2021-04-04_20h16.14.253,Colour_Similarity_Experiment,2020.2.10,Win32,60,60675255c767bca6388caeee,17.93293103,16.80377535,16.70066558,16.70641243,16.88983796,16.80377535,,,,,,,,,,,,,,,,,,,,PF,3,strong,,,,,,,,6,1.85041,,,,,,,,,,,,,,,,,,,,,,,,,,,,3,strong,63,28,1,0,0,response1disk,8,109,-9,-7,1,0,0,rectangle,-9,-7,1,0,0,,6,7,0.00423,-9,-7,1,0,0,,0,108,108,44,1,0,,,,,,,,,,,,,,,,,,,
,,,,,,,,,,,,,,,,,,,,,,,,,,,,,,,,,,,,,,,,,,5f7cc1dd2fe61814cae2ce9c,606a0ef9eb327fa061264a69,2021-04-04_20h16.14.253,Colour_Similarity_Experiment,2020.2.10,Win32,60,60675255c767bca6388caeee,17.93293103,16.80377535,16.70066558,16.70641243,16.88983796,16.80377535,,,,,,,,,,,,,,,,,,,,PF,3,weak,,,,,,,,2,1.312805,,,,,,,,,,,,,,,,,,,,,,,,,,,,8,weak,-62,-33,1,0,0,response5disk,9,110,-6,3,1,0,0,rectangle,-6,3,1,0,0,,6,1,0.003865,-6,3,1,0,0,,0,109,109,42,1,0,,,,,,,,,,,,,,,,,,,
,,,,,,,,,,,,,,,,,,,,,,,,,,,,,,,,,,,,,,,,,,5f7cc1dd2fe61814cae2ce9c,606a0ef9eb327fa061264a69,2021-04-04_20h16.14.253,Colour_Similarity_Experiment,2020.2.10,Win32,60,60675255c767bca6388caeee,17.93293103,16.80377535,16.70066558,16.70641243,16.88983796,16.80377535,,,,,,,,,,,,,,,,,,,,PF,3,weak,,,,,,,,5,1.351965,,,,,,,,,,,,,,,,,,,,,,,,,,,,8,weak,59,-27,1,0,0,response3disk,4,111,-9,5,1,0,0,rectangle,-9,5,1,0,0,,6,1,0.00046,-9,5,1,0,0,,0,110,110,78,1,0,,,,,,,,,,,,,,,,,,,
,,,,,,,,,,,,,,,,,,,,,,,,,,,,,,,,,,,,,,,,,,5f7cc1dd2fe61814cae2ce9c,606a0ef9eb327fa061264a69,2021-04-04_20h16.14.253,Colour_Similarity_Experiment,2020.2.10,Win32,60,60675255c767bca6388caeee,17.93293103,16.80377535,16.70066558,16.70641243,16.88983796,16.80377535,,,,,,,,,,,,,,,,,,,,PF,3,strong,,,,,,,,3,1.57041,,,,,,,,,,,,,,,,,,,,,,,,,,,,2,strong,-44,-56,1,0,0,response5disk,4,112,-2,7,1,0,0,rectangle,-2,7,1,0,0,,6,3,0.00313,-2,7,1,0,0,,0,111,111,145,1,0,,,,,,,,,,,,,,,,,,,
,,,,,,,,,,,,,,,,,,,,,,,,,,,,,,,,,,,,,,,,,,5f7cc1dd2fe61814cae2ce9c,606a0ef9eb327fa061264a69,2021-04-04_20h16.14.253,Colour_Similarity_Experiment,2020.2.10,Win32,60,60675255c767bca6388caeee,17.93293103,16.80377535,16.70066558,16.70641243,16.88983796,16.80377535,,,,,,,,,,,,,,,,,,,,PF,3,weak,,,,,,,,0,1.19789,,,,,,,,,,,,,,,,,,,,,,,,,,,,1,weak,-41,63,1,0,0,response7disk,1,113,-11,13,1,0,0,rectangle,101,40,1,0,0,response1disk_3,6,6,1.6393,4,3,1,0,0,rectangle,0,112,112,76,1,1,,,,,,,,,,,,,,,,,,,
,,,,,,,,,,,,,,,,,,,,,,,,,,,,,,,,,,,,,,,,,,5f7cc1dd2fe61814cae2ce9c,606a0ef9eb327fa061264a69,2021-04-04_20h16.14.253,Colour_Similarity_Experiment,2020.2.10,Win32,60,60675255c767bca6388caeee,17.93293103,16.80377535,16.70066558,16.70641243,16.88983796,16.80377535,,,,,,,,,,,,,,,,,,,,PF,3,strong,,,,,,,,2,1.222395,,,,,,,,,,,,,,,,,,,,,,,,,,,,5,strong,-61,-37,1,0,0,response5disk,6,114,-8,-12,1,0,0,rectangle,-8,-12,1,0,0,,6,7,0.00411,-8,-12,1,0,0,,0,113,113,12,1,0,,,,,,,,,,,,,,,,,,,
,,,,,,,,,,,,,,,,,,,,,,,,,,,,,,,,,,,,,,,,,,5f7cc1dd2fe61814cae2ce9c,606a0ef9eb327fa061264a69,2021-04-04_20h16.14.253,Colour_Similarity_Experiment,2020.2.10,Win32,60,60675255c767bca6388caeee,17.93293103,16.80377535,16.70066558,16.70641243,16.88983796,16.80377535,,,,,,,,,,,,,,,,,,,,PF,3,strong,,,,,,,,6,2.259205,,,,,,,,,,,,,,,,,,,,,,,,,,,,9,strong,65,40,1,0,0,response1disk,3,115,8,10,1,0,0,rectangle,8,10,1,0,0,,6,4,0.004385,8,10,1,0,0,,0,114,114,141,1,0,,,,,,,,,,,,,,,,,,,
,,,,,,,,,,,,,,,,,,,,,,,,,,,,,,,,,,,,,,,,,,5f7cc1dd2fe61814cae2ce9c,606a0ef9eb327fa061264a69,2021-04-04_20h16.14.253,Colour_Similarity_Experiment,2020.2.10,Win32,60,60675255c767bca6388caeee,17.93293103,16.80377535,16.70066558,16.70641243,16.88983796,16.80377535,,,,,,,,,,,,,,,,,,,,PF,3,strong,,,,,,,,2,1.30058,,,,,,,,,,,,,,,,,,,,,,,,,,,,6,strong,-56,-23,1,0,0,response5disk,5,116,-8,3,1,0,0,rectangle,-8,3,1,0,0,,6,2,0.0025,-8,3,1,0,0,,0,115,115,126,1,0,,,,,,,,,,,,,,,,,,,
,,,,,,,,,,,,,,,,,,,,,,,,,,,,,,,,,,,,,,,,,,5f7cc1dd2fe61814cae2ce9c,606a0ef9eb327fa061264a69,2021-04-04_20h16.14.253,Colour_Similarity_Experiment,2020.2.10,Win32,60,60675255c767bca6388caeee,17.93293103,16.80377535,16.70066558,16.70641243,16.88983796,16.80377535,,,,,,,,,,,,,,,,,,,,PF,3,weak,,,,,,,,2,1.355455,,,,,,,,,,,,,,,,,,,,,,,,,,,,8,weak,-72,-41,1,0,0,response5disk,2,117,0,6,1,0,0,rectangle,0,6,1,0,0,,6,7,0.00401,0,6,1,0,0,,0,116,116,83,1,0,,,,,,,,,,,,,,,,,,,
,,,,,,,,,,,,,,,,,,,,,,,,,,,,,,,,,,,,,,,,,,5f7cc1dd2fe61814cae2ce9c,606a0ef9eb327fa061264a69,2021-04-04_20h16.14.253,Colour_Similarity_Experiment,2020.2.10,Win32,60,60675255c767bca6388caeee,17.93293103,16.80377535,16.70066558,16.70641243,16.88983796,16.80377535,,,,,,,,,,,,,,,,,,,,PF,3,strong,,,,,,,,2,1.32869,,,,,,,,,,,,,,,,,,,,,,,,,,,,3,strong,-51,-26,1,0,0,response5disk,2,118,5,12,1,0,0,rectangle,5,12,1,0,0,,6,3,0.00254,5,12,1,0,0,,0,117,117,93,1,0,,,,,,,,,,,,,,,,,,,
,,,,,,,,,,,,,,,,,,,,,,,,,,,,,,,,,,,,,,,,,,5f7cc1dd2fe61814cae2ce9c,606a0ef9eb327fa061264a69,2021-04-04_20h16.14.253,Colour_Similarity_Experiment,2020.2.10,Win32,60,60675255c767bca6388caeee,17.93293103,16.80377535,16.70066558,16.70641243,16.88983796,16.80377535,,,,,,,,,,,,,,,,,,,,PF,3,weak,,,,,,,,4,1.199555,,,,,,,,,,,,,,,,,,,,,,,,,,,,3,weak,46,-68,1,0,0,response3disk,6,119,8,-3,1,0,0,rectangle,8,-3,1,0,0,,6,5,0.00289,8,-3,1,0,0,,0,118,118,47,1,0,,,,,,,,,,,,,,,,,,,
,,,,,,,,,,,,,,,,,,,,,,,,,,,,,,,,,,,,,,,,,,5f7cc1dd2fe61814cae2ce9c,606a0ef9eb327fa061264a69,2021-04-04_20h16.14.253,Colour_Similarity_Experiment,2020.2.10,Win32,60,60675255c767bca6388caeee,17.93293103,16.80377535,16.70066558,16.70641243,16.88983796,16.80377535,,,,,,,,,,,,,,,,,,,,PF,3,weak,,,,,,,,5,1.093305,,,,,,,,,,,,,,,,,,,,,,,,,,,,9,weak,71,-40,1,0,0,response3disk,5,120,4,2,1,0,0,rectangle,4,2,1,0,0,,6,1,0.003415,4,2,1,0,0,,0,119,119,134,1,0,,,,,,,,,,,,,,,,,,,
,,,,,,,,,,,,,,,,,,,,,,,,,,,,,,,,,,,,,,,,,,5f7cc1dd2fe61814cae2ce9c,606a0ef9eb327fa061264a69,2021-04-04_20h16.14.253,Colour_Similarity_Experiment,2020.2.10,Win32,60,60675255c767bca6388caeee,17.93293103,16.80377535,16.70066558,16.70641243,16.88983796,16.80377535,,,,,,,,,,,,,,,,,,,,PF,3,weak,,,,,,,,5,1.40765,,,,,,,,,,,,,,,,,,,,,,,,,,,,5,weak,47,-23,1,0,0,response3disk,8,121,9,-4,1,0,0,rectangle,9,-4,1,0,0,,6,5,0.00296,9,-4,1,0,0,,0,120,120,149,1,0,,,,,,,,,,,,,,,,,,,
,,,,,,,,,,,,,,,,,,,,,,,,,,,,,,,,,,,,,,,,,,5f7cc1dd2fe61814cae2ce9c,606a0ef9eb327fa061264a69,2021-04-04_20h16.14.253,Colour_Similarity_Experiment,2020.2.10,Win32,60,60675255c767bca6388caeee,17.93293103,16.80377535,16.70066558,16.70641243,16.88983796,16.80377535,,,,,,,,,,,,,,,,,,,,PF,3,strong,,,,,,,,4,1.981575,,,,,,,,,,,,,,,,,,,,,,,,,,,,9,strong,30,-71,1,0,0,response3disk,4,122,2,-5,1,0,0,rectangle,2,-5,1,0,0,,6,2,0.003175,2,-5,1,0,0,,0,121,121,60,1,0,,,,,,,,,,,,,,,,,,,
,,,,,,,,,,,,,,,,,,,,,,,,,,,,,,,,,,,,,,,,,,5f7cc1dd2fe61814cae2ce9c,606a0ef9eb327fa061264a69,2021-04-04_20h16.14.253,Colour_Similarity_Experiment,2020.2.10,Win32,60,60675255c767bca6388caeee,17.93293103,16.80377535,16.70066558,16.70641243,16.88983796,16.80377535,,,,,,,,,,,,,,,,,,,,PF,3,weak,,,,,,,,1,1.244475,,,,,,,,,,,,,,,,,,,,,,,,,,,,7,weak,-44,22,1,0,0,response7disk,7,123,3,0,1,0,0,rectangle,3,0,1,0,0,,6,7,0.002585,3,0,1,0,0,,0,122,122,51,1,0,,,,,,,,,,,,,,,,,,,
,,,,,,,,,,,,,,,,,,,,,,,,,,,,,,,,,,,,,,,,,,5f7cc1dd2fe61814cae2ce9c,606a0ef9eb327fa061264a69,2021-04-04_20h16.14.253,Colour_Similarity_Experiment,2020.2.10,Win32,60,60675255c767bca6388caeee,17.93293103,16.80377535,16.70066558,16.70641243,16.88983796,16.80377535,,,,,,,,,,,,,,,,,,,,PF,3,strong,,,,,,,,0,1.081305,,,,,,,,,,,,,,,,,,,,,,,,,,,,7,strong,-48,69,1,0,0,response7disk,7,124,-10,9,1,0,0,rectangle,-10,9,1,0,0,,6,5,0.002595,-10,9,1,0,0,,0,123,123,34,1,0,,,,,,,,,,,,,,,,,,,
,,,,,,,,,,,,,,,,,,,,,,,,,,,,,,,,,,,,,,,,,,5f7cc1dd2fe61814cae2ce9c,606a0ef9eb327fa061264a69,2021-04-04_20h16.14.253,Colour_Similarity_Experiment,2020.2.10,Win32,60,60675255c767bca6388caeee,17.93293103,16.80377535,16.70066558,16.70641243,16.88983796,16.80377535,,,,,,,,,,,,,,,,,,,,PF,3,strong,,,,,,,,4,1.257085,,,,,,,,,,,,,,,,,,,,,,,,,,,,3,strong,50,-65,1,0,0,response3disk,1,125,3,2,1,0,0,rectangle,3,2,1,0,0,,6,3,0.004345,3,2,1,0,0,,0,124,124,125,1,0,,,,,,,,,,,,,,,,,,,
,,,,,,,,,,,,,,,,,,,,,,,,,,,,,,,,,,,,,,,,,,5f7cc1dd2fe61814cae2ce9c,606a0ef9eb327fa061264a69,2021-04-04_20h16.14.253,Colour_Similarity_Experiment,2020.2.10,Win32,60,60675255c767bca6388caeee,17.93293103,16.80377535,16.70066558,16.70641243,16.88983796,16.80377535,,,,,,,,,,,,,,,,,,,,PF,3,strong,,,,,,,,4,1.40621,,,,,,,,,,,,,,,,,,,,,,,,,,,,6,strong,17,-52,1,0,0,response3disk,4,126,-2,11,1,0,0,rectangle,-2,11,1,0,0,,6,6,0.0019,-2,11,1,0,0,,0,125,125,56,1,0,,,,,,,,,,,,,,,,,,,
,,,,,,,,,,,,,,,,,,,,,,,,,,,,,,,,,,,,,,,,,,5f7cc1dd2fe61814cae2ce9c,606a0ef9eb327fa061264a69,2021-04-04_20h16.14.253,Colour_Similarity_Experiment,2020.2.10,Win32,60,60675255c767bca6388caeee,17.93293103,16.80377535,16.70066558,16.70641243,16.88983796,16.80377535,,,,,,,,,,,,,,,,,,,,PF,3,strong,,,,,,,,5,2.269025,,,,,,,,,,,,,,,,,,,,,,,,,,,,7,strong,54,-26,1,0,0,response3disk,9,127,12,-7,1,0,0,rectangle,12,-7,1,0,0,,6,7,0.00372,12,-7,1,0,0,,0,126,126,155,1,0,,,,,,,,,,,,,,,,,,,
,,,,,,,,,,,,,,,,,,,,,,,,,,,,,,,,,,,,,,,,,,5f7cc1dd2fe61814cae2ce9c,606a0ef9eb327fa061264a69,2021-04-04_20h16.14.253,Colour_Similarity_Experiment,2020.2.10,Win32,60,60675255c767bca6388caeee,17.93293103,16.80377535,16.70066558,16.70641243,16.88983796,16.80377535,,,,,,,,,,,,,,,,,,,,PF,3,weak,,,,,,,,2,1.20526,,,,,,,,,,,,,,,,,,,,,,,,,,,,2,weak,-103,-59,1,0,0,response5disk,2,128,-4,-7,1,0,0,rectangle,-4,-7,1,0,0,,6,4,0.004655,-4,-7,1,0,0,,0,127,127,14,1,0,,,,,,,,,,,,,,,,,,,
,,,,,,,,,,,,,,,,,,,,,,,,,,,,,,,,,,,,,,,,,,5f7cc1dd2fe61814cae2ce9c,606a0ef9eb327fa061264a69,2021-04-04_20h16.14.253,Colour_Similarity_Experiment,2020.2.10,Win32,60,60675255c767bca6388caeee,17.93293103,16.80377535,16.70066558,16.70641243,16.88983796,16.80377535,,,,,,,,,,,,,,,,,,,,PF,3,weak,,,,,,,,3,1.40201,,,,,,,,,,,,,,,,,,,,,,,,,,,,9,weak,-53,-70,1,0,0,response5disk,1,129,-7,-2,1,0,0,rectangle,-7,-2,1,0,0,,6,3,0.0041,-7,-2,1,0,0,,0,128,128,74,1,0,,,,,,,,,,,,,,,,,,,
,,,,,,,,,,,,,,,,,,,,,,,,,,,,,,,,,,,,,,,,,,5f7cc1dd2fe61814cae2ce9c,606a0ef9eb327fa061264a69,2021-04-04_20h16.14.253,Colour_Similarity_Experiment,2020.2.10,Win32,60,60675255c767bca6388caeee,17.93293103,16.80377535,16.70066558,16.70641243,16.88983796,16.80377535,,,,,,,,,,,,,,,,,,,,PF,3,strong,,,,,,,,5,1.26711,,,,,,,,,,,,,,,,,,,,,,,,,,,,6,strong,70,-46,1,0,0,response3disk,1,130,15,-5,1,0,0,rectangle,15,-5,1,0,0,,6,0,0.00313,15,-5,1,0,0,,0,129,129,5,1,0,,,,,,,,,,,,,,,,,,,
,,,,,,,,,,,,,,,,,,,,,,,,,,,,,,,,,,,,,,,,,,5f7cc1dd2fe61814cae2ce9c,606a0ef9eb327fa061264a69,2021-04-04_20h16.14.253,Colour_Similarity_Experiment,2020.2.10,Win32,60,60675255c767bca6388caeee,17.93293103,16.80377535,16.70066558,16.70641243,16.88983796,16.80377535,,,,,,,,,,,,,,,,,,,,PF,3,strong,,,,,,,,5,2.44346,,,,,,,,,,,,,,,,,,,,,,,,,,,,5,strong,65,-38,1,0,0,response3disk,9,131,-13,3,1,0,0,rectangle,-13,3,1,0,0,,6,4,0.002115,-13,3,1,0,0,,0,130,130,61,1,0,,,,,,,,,,,,,,,,,,,
,,,,,,,,,,,,,,,,,,,,,,,,,,,,,,,,,,,,,,,,,,5f7cc1dd2fe61814cae2ce9c,606a0ef9eb327fa061264a69,2021-04-04_20h16.14.253,Colour_Similarity_Experiment,2020.2.10,Win32,60,60675255c767bca6388caeee,17.93293103,16.80377535,16.70066558,16.70641243,16.88983796,16.80377535,,,,,,,,,,,,,,,,,,,,PF,3,weak,,,,,,,,4,1.883795,,,,,,,,,,,,,,,,,,,,,,,,,,,,7,weak,49,-76,1,0,0,response3disk,2,132,2,-3,1,0,0,rectangle,2,-3,1,0,0,,6,7,0.001225,2,-3,1,0,0,,0,131,131,32,1,0,,,,,,,,,,,,,,,,,,,
,,,,,,,,,,,,,,,,,,,,,,,,,,,,,,,,,,,,,,,,,,5f7cc1dd2fe61814cae2ce9c,606a0ef9eb327fa061264a69,2021-04-04_20h16.14.253,Colour_Similarity_Experiment,2020.2.10,Win32,60,60675255c767bca6388caeee,17.93293103,16.80377535,16.70066558,16.70641243,16.88983796,16.80377535,,,,,,,,,,,,,,,,,,,,PF,3,weak,,,,,,,,6,1.25098,,,,,,,,,,,,,,,,,,,,,,,,,,,,7,weak,74,28,1,0,0,response1disk,9,133,9,2,1,0,0,rectangle,9,2,1,0,0,,6,7,0.000195,9,2,1,0,0,,0,132,132,10,1,0,,,,,,,,,,,,,,,,,,,
,,,,,,,,,,,,,,,,,,,,,,,,,,,,,,,,,,,,,,,,,,5f7cc1dd2fe61814cae2ce9c,606a0ef9eb327fa061264a69,2021-04-04_20h16.14.253,Colour_Similarity_Experiment,2020.2.10,Win32,60,60675255c767bca6388caeee,17.93293103,16.80377535,16.70066558,16.70641243,16.88983796,16.80377535,,,,,,,,,,,,,,,,,,,,PF,3,weak,,,,,,,,6,1.415125,,,,,,,,,,,,,,,,,,,,,,,,,,,,1,weak,108,63,1,0,0,response1disk,7,134,21,12,1,0,0,rectangle,21,12,1,0,0,,6,1,0.001535,21,12,1,0,0,,0,133,133,150,1,0,,,,,,,,,,,,,,,,,,,
,,,,,,,,,,,,,,,,,,,,,,,,,,,,,,,,,,,,,,,,,,5f7cc1dd2fe61814cae2ce9c,606a0ef9eb327fa061264a69,2021-04-04_20h16.14.253,Colour_Similarity_Experiment,2020.2.10,Win32,60,60675255c767bca6388caeee,17.93293103,16.80377535,16.70066558,16.70641243,16.88983796,16.80377535,,,,,,,,,,,,,,,,,,,,PF,3,weak,,,,,,,,4,1.500865,,,,,,,,,,,,,,,,,,,,,,,,,,,,6,weak,40,-58,1,0,0,response3disk,4,135,17,-6,1,0,0,rectangle,17,-6,1,0,0,,6,0,0.002075,17,-6,1,0,0,,0,134,134,33,1,0,,,,,,,,,,,,,,,,,,,
,,,,,,,,,,,,,,,,,,,,,,,,,,,,,,,,,,,,,,,,,,5f7cc1dd2fe61814cae2ce9c,606a0ef9eb327fa061264a69,2021-04-04_20h16.14.253,Colour_Similarity_Experiment,2020.2.10,Win32,60,60675255c767bca6388caeee,17.93293103,16.80377535,16.70066558,16.70641243,16.88983796,16.80377535,,,,,,,,,,,,,,,,,,,,PF,3,weak,,,,,,,,2,1.565115,,,,,,,,,,,,,,,,,,,,,,,,,,,,6,weak,-61,-35,1,0,0,response5disk,7,136,4,-12,1,0,0,rectangle,4,-12,1,0,0,,6,4,0.00129,4,-12,1,0,0,,0,135,135,50,1,0,,,,,,,,,,,,,,,,,,,
,,,,,,,,,,,,,,,,,,,,,,,,,,,,,,,,,,,,,,,,,,5f7cc1dd2fe61814cae2ce9c,606a0ef9eb327fa061264a69,2021-04-04_20h16.14.253,Colour_Similarity_Experiment,2020.2.10,Win32,60,60675255c767bca6388caeee,17.93293103,16.80377535,16.70066558,16.70641243,16.88983796,16.80377535,,,,,,,,,,,,,,,,,,,,PF,3,weak,,,,,,,,4,1.960035,,,,,,,,,,,,,,,,,,,,,,,,,,,,9,weak,29,-76,1,0,0,response3disk,8,137,5,-3,1,0,0,rectangle,5,-3,1,0,0,,6,1,0.003255,5,-3,1,0,0,,0,136,136,67,1,0,,,,,,,,,,,,,,,,,,,
,,,,,,,,,,,,,,,,,,,,,,,,,,,,,,,,,,,,,,,,,,5f7cc1dd2fe61814cae2ce9c,606a0ef9eb327fa061264a69,2021-04-04_20h16.14.253,Colour_Similarity_Experiment,2020.2.10,Win32,60,60675255c767bca6388caeee,17.93293103,16.80377535,16.70066558,16.70641243,16.88983796,16.80377535,,,,,,,,,,,,,,,,,,,,PF,3,weak,,,,,,,,5,1.134125,,,,,,,,,,,,,,,,,,,,,,,,,,,,7,weak,51,-28,1,0,0,response3disk,4,138,-17,1,1,0,0,rectangle,-17,1,1,0,0,,6,6,0.00454,-17,1,1,0,0,,0,137,137,43,1,0,,,,,,,,,,,,,,,,,,,
,,,,,,,,,,,,,,,,,,,,,,,,,,,,,,,,,,,,,,,,,,5f7cc1dd2fe61814cae2ce9c,606a0ef9eb327fa061264a69,2021-04-04_20h16.14.253,Colour_Similarity_Experiment,2020.2.10,Win32,60,60675255c767bca6388caeee,17.93293103,16.80377535,16.70066558,16.70641243,16.88983796,16.80377535,,,,,,,,,,,,,,,,,,,,PF,3,strong,,,,,,,,2,1.97049,,,,,,,,,,,,,,,,,,,,,,,,,,,,9,strong,-68,-34,1,0,0,response5disk,6,139,-4,-2,1,0,0,rectangle,-4,-2,1,0,0,,6,1,0.00431,-4,-2,1,0,0,,0,138,138,117,1,0,,,,,,,,,,,,,,,,,,,
,,,,,,,,,,,,,,,,,,,,,,,,,,,,,,,,,,,,,,,,,,5f7cc1dd2fe61814cae2ce9c,606a0ef9eb327fa061264a69,2021-04-04_20h16.14.253,Colour_Similarity_Experiment,2020.2.10,Win32,60,60675255c767bca6388caeee,17.93293103,16.80377535,16.70066558,16.70641243,16.88983796,16.80377535,,,,,,,,,,,,,,,,,,,,PF,3,weak,,,,,,,,5,3.697595,,,,,,,,,,,,,,,,,,,,,,,,,,,,8,weak,106,-51,1,0,0,response3disk,5,140,20,2,1,0,0,rectangle,20,2,1,0,0,,6,1,0.000535,20,2,1,0,0,,0,139,139,98,1,0,,,,,,,,,,,,,,,,,,,
,,,,,,,,,,,,,,,,,,,,,,,,,,,,,,,,,,,,,,,,,,5f7cc1dd2fe61814cae2ce9c,606a0ef9eb327fa061264a69,2021-04-04_20h16.14.253,Colour_Similarity_Experiment,2020.2.10,Win32,60,60675255c767bca6388caeee,17.93293103,16.80377535,16.70066558,16.70641243,16.88983796,16.80377535,,,,,,,,,,,,,,,,,,,,PF,3,strong,,,,,,,,5,1.55141,,,,,,,,,,,,,,,,,,,,,,,,,,,,8,strong,53,-21,1,0,0,response3disk,4,141,-18,14,1,0,0,rectangle,-18,14,1,0,0,,6,3,0.00394,-18,14,1,0,0,,0,140,140,88,1,0,,,,,,,,,,,,,,,,,,,
,,,,,,,,,,,,,,,,,,,,,,,,,,,,,,,,,,,,,,,,,,5f7cc1dd2fe61814cae2ce9c,606a0ef9eb327fa061264a69,2021-04-04_20h16.14.253,Colour_Similarity_Experiment,2020.2.10,Win32,60,60675255c767bca6388caeee,17.93293103,16.80377535,16.70066558,16.70641243,16.88983796,16.80377535,,,,,,,,,,,,,,,,,,,,PF,3,strong,,,,,,,,4,2.67621,,,,,,,,,,,,,,,,,,,,,,,,,,,,8,strong,41,-81,1,0,0,response3disk,7,142,-3,9,1,0,0,rectangle,-3,9,1,0,0,,6,4,0.002795,-3,9,1,0,0,,0,141,141,86,1,0,,,,,,,,,,,,,,,,,,,
,,,,,,,,,,,,,,,,,,,,,,,,,,,,,,,,,,,,,,,,,,5f7cc1dd2fe61814cae2ce9c,606a0ef9eb327fa061264a69,2021-04-04_20h16.14.253,Colour_Similarity_Experiment,2020.2.10,Win32,60,60675255c767bca6388caeee,17.93293103,16.80377535,16.70066558,16.70641243,16.88983796,16.80377535,,,,,,,,,,,,,,,,,,,,PF,3,strong,,,,,,,,5,1.584135,,,,,,,,,,,,,,,,,,,,,,,,,,,,8,strong,76,-33,1,0,0,response3disk,3,143,2,4,1,0,0,rectangle,2,4,1,0,0,,6,3,0.00258,2,4,1,0,0,,0,142,142,154,1,0,,,,,,,,,,,,,,,,,,,
,,,,,,,,,,,,,,,,,,,,,,,,,,,,,,,,,,,,,,,,,,5f7cc1dd2fe61814cae2ce9c,606a0ef9eb327fa061264a69,2021-04-04_20h16.14.253,Colour_Similarity_Experiment,2020.2.10,Win32,60,60675255c767bca6388caeee,17.93293103,16.80377535,16.70066558,16.70641243,16.88983796,16.80377535,,,,,,,,,,,,,,,,,,,,PF,3,strong,,,,,,,,5,1.468365,,,,,,,,,,,,,,,,,,,,,,,,,,,,6,strong,66,-32,1,0,0,response3disk,2,144,0,-2,1,0,0,rectangle,0,-2,1,0,0,,6,7,0.003835,0,-2,1,0,0,,0,143,143,112,1,0,,,,,,,,,,,,,,,,,,,
,,,,,,,,,,,,,,,,,,,,,,,,,,,,,,,,,,,,,,,,,,5f7cc1dd2fe61814cae2ce9c,606a0ef9eb327fa061264a69,2021-04-04_20h16.14.253,Colour_Similarity_Experiment,2020.2.10,Win32,60,60675255c767bca6388caeee,17.93293103,16.80377535,16.70066558,16.70641243,16.88983796,16.80377535,,,,,,,,,,,,,,,,,,,,PF,3,weak,,,,,,,,3,1.544605,,,,,,,,,,,,,,,,,,,,,,,,,,,,3,weak,-35,-74,1,0,0,response5disk,4,145,-4,-7,1,0,0,rectangle,-4,-7,1,0,0,,6,7,0.00069,-4,-7,1,0,0,,0,144,144,30,1,0,,,,,,,,,,,,,,,,,,,
,,,,,,,,,,,,,,,,,,,,,,,,,,,,,,,,,,,,,,,,,,5f7cc1dd2fe61814cae2ce9c,606a0ef9eb327fa061264a69,2021-04-04_20h16.14.253,Colour_Similarity_Experiment,2020.2.10,Win32,60,60675255c767bca6388caeee,17.93293103,16.80377535,16.70066558,16.70641243,16.88983796,16.80377535,,,,,,,,,,,,,,,,,,,,PF,3,strong,,,,,,,,2,1.14512,,,,,,,,,,,,,,,,,,,,,,,,,,,,5,strong,-85,-39,1,0,0,response5disk,7,146,-15,-10,1,0,0,rectangle,-15,-10,1,0,0,,6,6,0.002725,-15,-10,1,0,0,,0,145,145,7,1,0,,,,,,,,,,,,,,,,,,,
,,,,,,,,,,,,,,,,,,,,,,,,,,,,,,,,,,,,,,,,,,5f7cc1dd2fe61814cae2ce9c,606a0ef9eb327fa061264a69,2021-04-04_20h16.14.253,Colour_Similarity_Experiment,2020.2.10,Win32,60,60675255c767bca6388caeee,17.93293103,16.80377535,16.70066558,16.70641243,16.88983796,16.80377535,,,,,,,,,,,,,,,,,,,,PF,3,strong,,,,,,,,3,1.596185,,,,,,,,,,,,,,,,,,,,,,,,,,,,5,strong,-47,-54,1,0,0,response5disk,4,147,-2,9,1,0,0,rectangle,-2,9,1,0,0,,6,2,0.00264,-2,9,1,0,0,,0,146,146,8,1,0,,,,,,,,,,,,,,,,,,,
,,,,,,,,,,,,,,,,,,,,,,,,,,,,,,,,,,,,,,,,,,5f7cc1dd2fe61814cae2ce9c,606a0ef9eb327fa061264a69,2021-04-04_20h16.14.253,Colour_Similarity_Experiment,2020.2.10,Win32,60,60675255c767bca6388caeee,17.93293103,16.80377535,16.70066558,16.70641243,16.88983796,16.80377535,,,,,,,,,,,,,,,,,,,,PF,3,strong,,,,,,,,6,1.163555,,,,,,,,,,,,,,,,,,,,,,,,,,,,7,strong,68,49,1,0,0,response1disk,1,148,-4,1,1,0,0,rectangle,-4,1,1,0,0,,6,3,0.004915,-4,1,1,0,0,,0,147,147,132,1,0,,,,,,,,,,,,,,,,,,,
,,,,,,,,,,,,,,,,,,,,,,,,,,,,,,,,,,,,,,,,,,5f7cc1dd2fe61814cae2ce9c,606a0ef9eb327fa061264a69,2021-04-04_20h16.14.253,Colour_Similarity_Experiment,2020.2.10,Win32,60,60675255c767bca6388caeee,17.93293103,16.80377535,16.70066558,16.70641243,16.88983796,16.80377535,,,,,,,,,,,,,,,,,,,,PF,3,weak,,,,,,,,4,1.68279,,,,,,,,,,,,,,,,,,,,,,,,,,,,8,weak,31,-45,1,0,0,response3disk,7,149,6,1,1,0,0,rectangle,6,1,1,0,0,,6,1,0.004535,6,1,1,0,0,,0,148,148,23,1,0,,,,,,,,,,,,,,,,,,,
,,,,,,,,,,,,,,,,,,,,,,,,,,,,,,,,,,,,,,,,,,5f7cc1dd2fe61814cae2ce9c,606a0ef9eb327fa061264a69,2021-04-04_20h16.14.253,Colour_Similarity_Experiment,2020.2.10,Win32,60,60675255c767bca6388caeee,17.93293103,16.80377535,16.70066558,16.70641243,16.88983796,16.80377535,,,,,,,,,,,,,,,,,,,,PF,3,strong,,,,,,,,2,1.495475,,,,,,,,,,,,,,,,,,,,,,,,,,,,1,strong,-61,-44,1,0,0,response5disk,9,150,-9,-13,1,0,0,rectangle,-9,-13,1,0,0,,6,7,0.00238,-9,-13,1,0,0,,0,149,149,123,1,0,,,,,,,,,,,,,,,,,,,
,,,,,,,,,,,,,,,,,,,,,,,,,,,,,,,,,,,,,,,,,,5f7cc1dd2fe61814cae2ce9c,606a0ef9eb327fa061264a69,2021-04-04_20h16.14.253,Colour_Similarity_Experiment,2020.2.10,Win32,60,60675255c767bca6388caeee,17.93293103,16.80377535,16.70066558,16.70641243,16.88983796,16.80377535,,,,,,,,,,,,,,,,,,,,PF,3,strong,,,,,,,,5,1.134405,,,,,,,,,,,,,,,,,,,,,,,,,,,,1,strong,56,-38,1,0,0,response3disk,3,151,11,1,1,0,0,rectangle,11,1,1,0,0,,6,5,0.004405,11,1,1,0,0,,0,150,150,99,1,0,,,,,,,,,,,,,,,,,,,
,,,,,,,,,,,,,,,,,,,,,,,,,,,,,,,,,,,,,,,,,,5f7cc1dd2fe61814cae2ce9c,606a0ef9eb327fa061264a69,2021-04-04_20h16.14.253,Colour_Similarity_Experiment,2020.2.10,Win32,60,60675255c767bca6388caeee,17.93293103,16.80377535,16.70066558,16.70641243,16.88983796,16.80377535,,,,,,,,,,,,,,,,,,,,PF,3,weak,,,,,,,,6,1.285365,,,,,,,,,,,,,,,,,,,,,,,,,,,,4,weak,43,25,1,0,0,response1disk,2,152,9,5,1,0,0,rectangle,9,5,1,0,0,,6,3,0.00355,9,5,1,0,0,,0,151,151,108,1,0,,,,,,,,,,,,,,,,,,,
,,,,,,,,,,,,,,,,,,,,,,,,,,,,,,,,,,,,,,,,,,5f7cc1dd2fe61814cae2ce9c,606a0ef9eb327fa061264a69,2021-04-04_20h16.14.253,Colour_Similarity_Experiment,2020.2.10,Win32,60,60675255c767bca6388caeee,17.93293103,16.80377535,16.70066558,16.70641243,16.88983796,16.80377535,,,,,,,,,,,,,,,,,,,,PF,3,weak,,,,,,,,2,1.246105,,,,,,,,,,,,,,,,,,,,,,,,,,,,5,weak,-53,-29,1,0,0,response5disk,5,153,-12,-9,1,0,0,rectangle,-12,-9,1,0,0,,6,4,0.004045,-12,-9,1,0,0,,0,152,152,94,1,0,,,,,,,,,,,,,,,,,,,
,,,,,,,,,,,,,,,,,,,,,,,,,,,,,,,,,,,,,,,,,,5f7cc1dd2fe61814cae2ce9c,606a0ef9eb327fa061264a69,2021-04-04_20h16.14.253,Colour_Similarity_Experiment,2020.2.10,Win32,60,60675255c767bca6388caeee,17.93293103,16.80377535,16.70066558,16.70641243,16.88983796,16.80377535,,,,,,,,,,,,,,,,,,,,PF,3,strong,,,,,,,,1,1.26685,,,,,,,,,,,,,,,,,,,,,,,,,,,,6,strong,-79,33,1,0,0,response7disk,6,154,12,-9,1,0,0,rectangle,12,-9,1,0,0,,6,0,0.004185,12,-9,1,0,0,,0,153,153,91,1,0,,,,,,,,,,,,,,,,,,,
,,,,,,,,,,,,,,,,,,,,,,,,,,,,,,,,,,,,,,,,,,5f7cc1dd2fe61814cae2ce9c,606a0ef9eb327fa061264a69,2021-04-04_20h16.14.253,Colour_Similarity_Experiment,2020.2.10,Win32,60,60675255c767bca6388caeee,17.93293103,16.80377535,16.70066558,16.70641243,16.88983796,16.80377535,,,,,,,,,,,,,,,,,,,,PF,3,strong,,,,,,,,5,1.619635,,,,,,,,,,,,,,,,,,,,,,,,,,,,7,strong,66,-27,1,0,0,response3disk,2,155,23,-7,1,0,0,rectangle,23,-7,1,0,0,,6,3,0.002785,23,-7,1,0,0,,0,154,154,138,1,0,,,,,,,,,,,,,,,,,,,
,,,,,,,,,,,,,,,,,,,,,,,,,,,,,,,,,,,,,,,,,,5f7cc1dd2fe61814cae2ce9c,606a0ef9eb327fa061264a69,2021-04-04_20h16.14.253,Colour_Similarity_Experiment,2020.2.10,Win32,60,60675255c767bca6388caeee,17.93293103,16.80377535,16.70066558,16.70641243,16.88983796,16.80377535,,,,,,,,,,,,,,,,,,,,PF,3,strong,,,,,,,,4,1.5732,,,,,,,,,,,,,,,,,,,,,,,,,,,,8,strong,26,-42,1,0,0,response3disk,6,156,6,12,1,0,0,rectangle,6,12,1,0,0,,6,3,0.00081,6,12,1,0,0,,0,155,155,37,1,0,,,,,,,,,,,,,,,,,,,
,,,,,,,,,,,,,,,,,,,,,,,,,,,,,,,,,,,,,,,,,,5f7cc1dd2fe61814cae2ce9c,606a0ef9eb327fa061264a69,2021-04-04_20h16.14.253,Colour_Similarity_Experiment,2020.2.10,Win32,60,60675255c767bca6388caeee,17.93293103,16.80377535,16.70066558,16.70641243,16.88983796,16.80377535,,,,,,,,,,,,,,,,,,,,PF,3,strong,,,,,,,,4,1.334105,,,,,,,,,,,,,,,,,,,,,,,,,,,,2,strong,32,-56,1,0,0,response3disk,9,157,7,9,1,0,0,rectangle,7,9,1,0,0,,6,1,0.002665,7,9,1,0,0,,0,156,156,72,1,0,,,,,,,,,,,,,,,,,,,
,,,,,,,,,,,,,,,,,,,,,,,,,,,,,,,,,,,,,,,,,,5f7cc1dd2fe61814cae2ce9c,606a0ef9eb327fa061264a69,2021-04-04_20h16.14.253,Colour_Similarity_Experiment,2020.2.10,Win32,60,60675255c767bca6388caeee,17.93293103,16.80377535,16.70066558,16.70641243,16.88983796,16.80377535,,,,,,,,,,,,,,,,,,,,PF,3,strong,,,,,,,,3,2.3428,,,,,,,,,,,,,,,,,,,,,,,,,,,,8,strong,-22,-46,1,0,0,response5disk,1,158,7,13,1,0,0,rectangle,7,13,1,0,0,,6,2,0.00294,7,13,1,0,0,,0,157,157,20,1,0,,,,,,,,,,,,,,,,,,,
,,,,,,,,,,,,,,,,,,,,,,,,,,,,,,,,,,,,,,,,,,5f7cc1dd2fe61814cae2ce9c,606a0ef9eb327fa061264a69,2021-04-04_20h16.14.253,Colour_Similarity_Experiment,2020.2.10,Win32,60,60675255c767bca6388caeee,17.93293103,16.80377535,16.70066558,16.70641243,16.88983796,16.80377535,,,,,,,,,,,,,,,,,,,,PF,3,weak,,,,,,,,4,1.88108,,,,,,,,,,,,,,,,,,,,,,,,,,,,6,weak,30,-60,1,0,0,response3disk,8,159,1,-11,1,0,0,rectangle,1,-11,1,0,0,,6,7,0.002695,1,-11,1,0,0,,0,158,158,64,1,0,,,,,,,,,,,,,,,,,,,
,,,,,,,,,,,,,,,,,,,,,,,,,,,,,,,,,,,,,,,,,,5f7cc1dd2fe61814cae2ce9c,606a0ef9eb327fa061264a69,2021-04-04_20h16.14.253,Colour_Similarity_Experiment,2020.2.10,Win32,60,60675255c767bca6388caeee,17.93293103,16.80377535,16.70066558,16.70641243,16.88983796,16.80377535,,,,,,,,,,,,,,,,,,,,PF,3,strong,,,,,,,,3,1.391795,,,,,,,,,,,,,,,,,,,,,,,,,,,,4,strong,-65,-103,1,0,0,response5disk,2,160,16,-1,1,0,0,rectangle,16,-1,1,0,0,,6,0,0.00224,16,-1,1,0,0,,0,159,159,13,1,0,,,,,,,,,,,,,,,,,,,
,,,,,,,,,,,,,,,,,,,,,,,,,,,,,,,,,,,,,,,,,,5f7cc1dd2fe61814cae2ce9c,606a0ef9eb327fa061264a69,2021-04-04_20h16.14.253,Colour_Similarity_Experiment,2020.2.10,Win32,60,60675255c767bca6388caeee,17.93293103,16.80377535,16.70066558,16.70641243,16.88983796,16.80377535,,,,,,,,,,,,,,,,,,,,PF,3,strong,,,,,,,,0,1.452185,,,,,,,,,,,,,,,,,,,,,,,,,,,,5,strong,-37,57,1,0,0,response7disk,5,161,3,0,1,0,0,rectangle,3,0,1,0,0,,6,2,0.002045,3,0,1,0,0,,0,160,160,19,1,0,,,,,,,,,,,,,,,,,,,
,,,,,,,,,,,,,,,,,,,,,,,,,,,,,,,,,,,,,,,,,,5f7cc1dd2fe61814cae2ce9c,606a0ef9eb327fa061264a69,2021-04-04_20h16.14.253,Colour_Similarity_Experiment,2020.2.10,Win32,60,60675255c767bca6388caeee,17.93293103,16.80377535,16.70066558,16.70641243,16.88983796,16.80377535,,,,,,,,,,,,,,,,,,,,PF,3,weak,,,,,,,,2,1.24867,,,,,,,,,,,,,,,,,,,,,,,,,,,,3,weak,-80,-39,1,0,0,response5disk,3,162,15,11,1,0,0,rectangle,15,11,1,0,0,,6,4,0.003835,15,11,1,0,0,,0,161,161,4,1,0,,,,,,,,,,,,,,,,,,,
,,,,,,,,,,,,,,,,,,,,,,,,,,,,,,,,,,,,,,,,,,5f7cc1dd2fe61814cae2ce9c,606a0ef9eb327fa061264a69,2021-04-04_20h16.14.253,Colour_Similarity_Experiment,2020.2.10,Win32,60,60675255c767bca6388caeee,17.93293103,16.80377535,16.70066558,16.70641243,16.88983796,16.80377535,,,,,,,,,,,,,,,,,,,,,,,,,,,,,,,,,,,,,,,,,,,,,,,,,,,,,,,,,,,,,,,,,,,,,,,,,,,,,,,,,,,,,,,,,,,,,,,,0,0,0,0,1,,,,,,,,,,,,,,
,,,,,,,,,,,,,,,,,,,,,,,,,,,,,,,,,,,,,,,,,,5f7cc1dd2fe61814cae2ce9c,606a0ef9eb327fa061264a69,2021-04-04_20h16.14.253,Colour_Similarity_Experiment,2020.2.10,Win32,60,60675255c767bca6388caeee,17.93293103,16.80377535,16.70066558,16.70641243,16.88983796,16.80377535,,,,,,,,,,,,,,,,,,,,PF,3,weak,,,,,,,,4,1.35857,,,,,,,,,,,,,,,,,,,,,,,,,,,,5,weak,54,-95,1,0,0,response3disk,9,163,-14,12,1,0,0,rectangle,-61,-29,1,0,0,response5disk_3,6,2,2.03589,14,-4,1,0,0,rectangle,0,0,0,136,1,1,,,,,,,,,,,,,,,,,,,
,,,,,,,,,,,,,,,,,,,,,,,,,,,,,,,,,,,,,,,,,,5f7cc1dd2fe61814cae2ce9c,606a0ef9eb327fa061264a69,2021-04-04_20h16.14.253,Colour_Similarity_Experiment,2020.2.10,Win32,60,60675255c767bca6388caeee,17.93293103,16.80377535,16.70066558,16.70641243,16.88983796,16.80377535,,,,,,,,,,,,,,,,,,,,PF,3,weak,,,,,,,,4,1.09912,,,,,,,,,,,,,,,,,,,,,,,,,,,,9,weak,36,-50,1,0,0,response3disk,6,164,-3,3,1,0,0,rectangle,-3,3,1,0,0,,6,0,0.00379,-3,3,1,0,0,,0,1,1,148,1,0,,,,,,,,,,,,,,,,,,,
,,,,,,,,,,,,,,,,,,,,,,,,,,,,,,,,,,,,,,,,,,5f7cc1dd2fe61814cae2ce9c,606a0ef9eb327fa061264a69,2021-04-04_20h16.14.253,Colour_Similarity_Experiment,2020.2.10,Win32,60,60675255c767bca6388caeee,17.93293103,16.80377535,16.70066558,16.70641243,16.88983796,16.80377535,,,,,,,,,,,,,,,,,,,,PF,3,strong,,,,,,,,0,1.28515,,,,,,,,,,,,,,,,,,,,,,,,,,,,1,strong,-41,49,1,0,0,response7disk,1,165,-8,-1,1,0,0,rectangle,-8,-1,1,0,0,,6,0,0.00071,-8,-1,1,0,0,,0,2,2,151,1,0,,,,,,,,,,,,,,,,,,,
,,,,,,,,,,,,,,,,,,,,,,,,,,,,,,,,,,,,,,,,,,5f7cc1dd2fe61814cae2ce9c,606a0ef9eb327fa061264a69,2021-04-04_20h16.14.253,Colour_Similarity_Experiment,2020.2.10,Win32,60,60675255c767bca6388caeee,17.93293103,16.80377535,16.70066558,16.70641243,16.88983796,16.80377535,,,,,,,,,,,,,,,,,,,,PF,3,strong,,,,,,,,3,1.45825,,,,,,,,,,,,,,,,,,,,,,,,,,,,1,strong,-36,-78,1,0,0,response5disk,8,166,1,-3,1,0,0,rectangle,1,-3,1,0,0,,6,7,0.003455,1,-3,1,0,0,,0,3,3,27,1,0,,,,,,,,,,,,,,,,,,,
,,,,,,,,,,,,,,,,,,,,,,,,,,,,,,,,,,,,,,,,,,5f7cc1dd2fe61814cae2ce9c,606a0ef9eb327fa061264a69,2021-04-04_20h16.14.253,Colour_Similarity_Experiment,2020.2.10,Win32,60,60675255c767bca6388caeee,17.93293103,16.80377535,16.70066558,16.70641243,16.88983796,16.80377535,,,,,,,,,,,,,,,,,,,,PF,3,strong,,,,,,,,0,1.294775,,,,,,,,,,,,,,,,,,,,,,,,,,,,9,strong,-52,70,1,0,0,response7disk,9,167,0,-3,1,0,0,rectangle,0,-3,1,0,0,,6,6,0.002215,0,-3,1,0,0,,0,4,4,17,1,0,,,,,,,,,,,,,,,,,,,
,,,,,,,,,,,,,,,,,,,,,,,,,,,,,,,,,,,,,,,,,,5f7cc1dd2fe61814cae2ce9c,606a0ef9eb327fa061264a69,2021-04-04_20h16.14.253,Colour_Similarity_Experiment,2020.2.10,Win32,60,60675255c767bca6388caeee,17.93293103,16.80377535,16.70066558,16.70641243,16.88983796,16.80377535,,,,,,,,,,,,,,,,,,,,PF,3,weak,,,,,,,,3,1.283845,,,,,,,,,,,,,,,,,,,,,,,,,,,,4,weak,-45,-62,1,0,0,response5disk,5,168,-9,0,1,0,0,rectangle,-9,0,1,0,0,,6,6,0.00051,-9,0,1,0,0,,0,5,5,49,1,0,,,,,,,,,,,,,,,,,,,
,,,,,,,,,,,,,,,,,,,,,,,,,,,,,,,,,,,,,,,,,,5f7cc1dd2fe61814cae2ce9c,606a0ef9eb327fa061264a69,2021-04-04_20h16.14.253,Colour_Similarity_Experiment,2020.2.10,Win32,60,60675255c767bca6388caeee,17.93293103,16.80377535,16.70066558,16.70641243,16.88983796,16.80377535,,,,,,,,,,,,,,,,,,,,PF,3,weak,,,,,,,,2,1.26817,,,,,,,,,,,,,,,,,,,,,,,,,,,,5,weak,-51,-32,1,0,0,response5disk,3,169,-13,-6,1,0,0,rectangle,-13,-6,1,0,0,,6,7,0.004095,-13,-6,1,0,0,,0,6,6,109,1,0,,,,,,,,,,,,,,,,,,,
,,,,,,,,,,,,,,,,,,,,,,,,,,,,,,,,,,,,,,,,,,5f7cc1dd2fe61814cae2ce9c,606a0ef9eb327fa061264a69,2021-04-04_20h16.14.253,Colour_Similarity_Experiment,2020.2.10,Win32,60,60675255c767bca6388caeee,17.93293103,16.80377535,16.70066558,16.70641243,16.88983796,16.80377535,,,,,,,,,,,,,,,,,,,,PF,3,weak,,,,,,,,2,1.30206,,,,,,,,,,,,,,,,,,,,,,,,,,,,3,weak,-51,-27,1,0,0,response5disk,2,170,-12,-2,1,0,0,rectangle,-31,-55,1,0,0,response5disk_3,3,3,1.85082,-1,-2,1,0,0,rectangle,0,7,7,36,1,1,,,,,,,,,,,,,,,,,,,
,,,,,,,,,,,,,,,,,,,,,,,,,,,,,,,,,,,,,,,,,,5f7cc1dd2fe61814cae2ce9c,606a0ef9eb327fa061264a69,2021-04-04_20h16.14.253,Colour_Similarity_Experiment,2020.2.10,Win32,60,60675255c767bca6388caeee,17.93293103,16.80377535,16.70066558,16.70641243,16.88983796,16.80377535,,,,,,,,,,,,,,,,,,,,PF,3,strong,,,,,,,,5,2.032665,,,,,,,,,,,,,,,,,,,,,,,,,,,,4,strong,117,-66,1,0,0,response3disk,8,171,9,-7,1,0,0,rectangle,9,-7,1,0,0,,3,3,0.000805,9,-7,1,0,0,,0,8,8,35,1,0,,,,,,,,,,,,,,,,,,,
,,,,,,,,,,,,,,,,,,,,,,,,,,,,,,,,,,,,,,,,,,5f7cc1dd2fe61814cae2ce9c,606a0ef9eb327fa061264a69,2021-04-04_20h16.14.253,Colour_Similarity_Experiment,2020.2.10,Win32,60,60675255c767bca6388caeee,17.93293103,16.80377535,16.70066558,16.70641243,16.88983796,16.80377535,,,,,,,,,,,,,,,,,,,,PF,3,weak,,,,,,,,3,1.13447,,,,,,,,,,,,,,,,,,,,,,,,,,,,3,weak,-24,-55,1,0,0,response5disk,1,172,12,12,1,0,0,rectangle,12,12,1,0,0,,3,2,0.004235,12,12,1,0,0,,0,9,9,96,1,0,,,,,,,,,,,,,,,,,,,
,,,,,,,,,,,,,,,,,,,,,,,,,,,,,,,,,,,,,,,,,,5f7cc1dd2fe61814cae2ce9c,606a0ef9eb327fa061264a69,2021-04-04_20h16.14.253,Colour_Similarity_Experiment,2020.2.10,Win32,60,60675255c767bca6388caeee,17.93293103,16.80377535,16.70066558,16.70641243,16.88983796,16.80377535,,,,,,,,,,,,,,,,,,,,PF,3,strong,,,,,,,,5,1.30855,,,,,,,,,,,,,,,,,,,,,,,,,,,,6,strong,95,-45,1,0,0,response3disk,9,173,29,1,1,0,0,rectangle,60,-27,1,0,0,response3disk_3,5,5,1.449485,15,-6,1,0,0,rectangle,0,10,10,160,1,1,,,,,,,,,,,,,,,,,,,
,,,,,,,,,,,,,,,,,,,,,,,,,,,,,,,,,,,,,,,,,,5f7cc1dd2fe61814cae2ce9c,606a0ef9eb327fa061264a69,2021-04-04_20h16.14.253,Colour_Similarity_Experiment,2020.2.10,Win32,60,60675255c767bca6388caeee,17.93293103,16.80377535,16.70066558,16.70641243,16.88983796,16.80377535,,,,,,,,,,,,,,,,,,,,PF,3,strong,,,,,,,,2,1.19645,,,,,,,,,,,,,,,,,,,,,,,,,,,,4,strong,-114,-62,1,0,0,response5disk,4,174,-1,1,1,0,0,rectangle,-1,1,1,0,0,,5,6,0.00105,-1,1,1,0,0,,0,11,11,84,1,0,,,,,,,,,,,,,,,,,,,
,,,,,,,,,,,,,,,,,,,,,,,,,,,,,,,,,,,,,,,,,,5f7cc1dd2fe61814cae2ce9c,606a0ef9eb327fa061264a69,2021-04-04_20h16.14.253,Colour_Similarity_Experiment,2020.2.10,Win32,60,60675255c767bca6388caeee,17.93293103,16.80377535,16.70066558,16.70641243,16.88983796,16.80377535,,,,,,,,,,,,,,,,,,,,PF,3,weak,,,,,,,,4,2.12111,,,,,,,,,,,,,,,,,,,,,,,,,,,,6,weak,21,-52,1,0,0,response3disk,3,175,13,-1,1,0,0,rectangle,13,-1,1,0,0,,5,2,0.003185,13,-1,1,0,0,,0,12,12,26,1,0,,,,,,,,,,,,,,,,,,,
,,,,,,,,,,,,,,,,,,,,,,,,,,,,,,,,,,,,,,,,,,5f7cc1dd2fe61814cae2ce9c,606a0ef9eb327fa061264a69,2021-04-04_20h16.14.253,Colour_Similarity_Experiment,2020.2.10,Win32,60,60675255c767bca6388caeee,17.93293103,16.80377535,16.70066558,16.70641243,16.88983796,16.80377535,,,,,,,,,,,,,,,,,,,,PF,3,weak,,,,,,,,5,1.1842,,,,,,,,,,,,,,,,,,,,,,,,,,,,2,weak,60,-23,1,0,0,response3disk,6,176,-15,8,1,0,0,rectangle,-15,8,1,0,0,,5,5,0.004005,-15,8,1,0,0,,0,13,13,113,1,0,,,,,,,,,,,,,,,,,,,
,,,,,,,,,,,,,,,,,,,,,,,,,,,,,,,,,,,,,,,,,,5f7cc1dd2fe61814cae2ce9c,606a0ef9eb327fa061264a69,2021-04-04_20h16.14.253,Colour_Similarity_Experiment,2020.2.10,Win32,60,60675255c767bca6388caeee,17.93293103,16.80377535,16.70066558,16.70641243,16.88983796,16.80377535,,,,,,,,,,,,,,,,,,,,PF,3,weak,,,,,,,,3,1.156505,,,,,,,,,,,,,,,,,,,,,,,,,,,,7,weak,-63,-84,1,0,0,response5disk,5,177,6,7,1,0,0,rectangle,6,7,1,0,0,,5,1,0.002575,6,7,1,0,0,,0,14,14,92,1,0,,,,,,,,,,,,,,,,,,,
,,,,,,,,,,,,,,,,,,,,,,,,,,,,,,,,,,,,,,,,,,5f7cc1dd2fe61814cae2ce9c,606a0ef9eb327fa061264a69,2021-04-04_20h16.14.253,Colour_Similarity_Experiment,2020.2.10,Win32,60,60675255c767bca6388caeee,17.93293103,16.80377535,16.70066558,16.70641243,16.88983796,16.80377535,,,,,,,,,,,,,,,,,,,,PF,3,strong,,,,,,,,3,1.445875,,,,,,,,,,,,,,,,,,,,,,,,,,,,3,strong,-56,-68,1,0,0,response5disk,4,178,-6,-1,1,0,0,rectangle,-6,-1,1,0,0,,5,5,0.00249,-6,-1,1,0,0,,0,15,15,110,1,0,,,,,,,,,,,,,,,,,,,
,,,,,,,,,,,,,,,,,,,,,,,,,,,,,,,,,,,,,,,,,,5f7cc1dd2fe61814cae2ce9c,606a0ef9eb327fa061264a69,2021-04-04_20h16.14.253,Colour_Similarity_Experiment,2020.2.10,Win32,60,60675255c767bca6388caeee,17.93293103,16.80377535,16.70066558,16.70641243,16.88983796,16.80377535,,,,,,,,,,,,,,,,,,,,PF,3,weak,,,,,,,,5,1.338895,,,,,,,,,,,,,,,,,,,,,,,,,,,,4,weak,65,-41,1,0,0,response3disk,6,179,12,3,1,0,0,rectangle,12,3,1,0,0,,5,2,0.003955,12,3,1,0,0,,0,16,16,120,1,0,,,,,,,,,,,,,,,,,,,
,,,,,,,,,,,,,,,,,,,,,,,,,,,,,,,,,,,,,,,,,,5f7cc1dd2fe61814cae2ce9c,606a0ef9eb327fa061264a69,2021-04-04_20h16.14.253,Colour_Similarity_Experiment,2020.2.10,Win32,60,60675255c767bca6388caeee,17.93293103,16.80377535,16.70066558,16.70641243,16.88983796,16.80377535,,,,,,,,,,,,,,,,,,,,PF,3,weak,,,,,,,,4,2.37577,,,,,,,,,,,,,,,,,,,,,,,,,,,,1,weak,27,-76,1,0,0,response3disk,8,180,9,-2,1,0,0,rectangle,9,-2,1,0,0,,5,7,0.00413,9,-2,1,0,0,,0,17,17,65,1,0,,,,,,,,,,,,,,,,,,,
,,,,,,,,,,,,,,,,,,,,,,,,,,,,,,,,,,,,,,,,,,5f7cc1dd2fe61814cae2ce9c,606a0ef9eb327fa061264a69,2021-04-04_20h16.14.253,Colour_Similarity_Experiment,2020.2.10,Win32,60,60675255c767bca6388caeee,17.93293103,16.80377535,16.70066558,16.70641243,16.88983796,16.80377535,,,,,,,,,,,,,,,,,,,,PF,3,weak,,,,,,,,4,1.37537,,,,,,,,,,,,,,,,,,,,,,,,,,,,1,weak,39,-78,1,0,0,response3disk,3,181,8,2,1,0,0,rectangle,8,2,1,0,0,,5,2,0.00281,8,2,1,0,0,,0,18,18,1,1,0,,,,,,,,,,,,,,,,,,,
,,,,,,,,,,,,,,,,,,,,,,,,,,,,,,,,,,,,,,,,,,5f7cc1dd2fe61814cae2ce9c,606a0ef9eb327fa061264a69,2021-04-04_20h16.14.253,Colour_Similarity_Experiment,2020.2.10,Win32,60,60675255c767bca6388caeee,17.93293103,16.80377535,16.70066558,16.70641243,16.88983796,16.80377535,,,,,,,,,,,,,,,,,,,,PF,3,weak,,,,,,,,5,1.41097,,,,,,,,,,,,,,,,,,,,,,,,,,,,1,weak,51,-35,1,0,0,response3disk,4,182,15,-5,1,0,0,rectangle,15,-5,1,0,0,,5,1,0.002865,15,-5,1,0,0,,0,19,19,139,1,0,,,,,,,,,,,,,,,,,,,
,,,,,,,,,,,,,,,,,,,,,,,,,,,,,,,,,,,,,,,,,,5f7cc1dd2fe61814cae2ce9c,606a0ef9eb327fa061264a69,2021-04-04_20h16.14.253,Colour_Similarity_Experiment,2020.2.10,Win32,60,60675255c767bca6388caeee,17.93293103,16.80377535,16.70066558,16.70641243,16.88983796,16.80377535,,,,,,,,,,,,,,,,,,,,PF,3,weak,,,,,,,,6,1.247025,,,,,,,,,,,,,,,,,,,,,,,,,,,,5,weak,76,39,1,0,0,response1disk,1,183,13,7,1,0,0,rectangle,50,96,1,0,0,response1disk_3,7,7,2.61743,-18,-1,1,0,0,rectangle,0,20,20,159,1,1,,,,,,,,,,,,,,,,,,,
,,,,,,,,,,,,,,,,,,,,,,,,,,,,,,,,,,,,,,,,,,5f7cc1dd2fe61814cae2ce9c,606a0ef9eb327fa061264a69,2021-04-04_20h16.14.253,Colour_Similarity_Experiment,2020.2.10,Win32,60,60675255c767bca6388caeee,17.93293103,16.80377535,16.70066558,16.70641243,16.88983796,16.80377535,,,,,,,,,,,,,,,,,,,,PF,3,weak,,,,,,,,1,1.20602,,,,,,,,,,,,,,,,,,,,,,,,,,,,9,weak,-72,21,1,0,0,response7disk,9,184,1,-11,1,0,0,rectangle,1,-11,1,0,0,,7,7,0.0006,1,-11,1,0,0,,0,21,21,106,1,0,,,,,,,,,,,,,,,,,,,
,,,,,,,,,,,,,,,,,,,,,,,,,,,,,,,,,,,,,,,,,,5f7cc1dd2fe61814cae2ce9c,606a0ef9eb327fa061264a69,2021-04-04_20h16.14.253,Colour_Similarity_Experiment,2020.2.10,Win32,60,60675255c767bca6388caeee,17.93293103,16.80377535,16.70066558,16.70641243,16.88983796,16.80377535,,,,,,,,,,,,,,,,,,,,PF,3,weak,,,,,,,,5,1.33541,,,,,,,,,,,,,,,,,,,,,,,,,,,,6,weak,59,-30,1,0,0,response3disk,2,185,19,-2,1,0,0,rectangle,19,-2,1,0,0,,7,0,0.004125,19,-2,1,0,0,,0,22,22,130,1,0,,,,,,,,,,,,,,,,,,,
,,,,,,,,,,,,,,,,,,,,,,,,,,,,,,,,,,,,,,,,,,5f7cc1dd2fe61814cae2ce9c,606a0ef9eb327fa061264a69,2021-04-04_20h16.14.253,Colour_Similarity_Experiment,2020.2.10,Win32,60,60675255c767bca6388caeee,17.93293103,16.80377535,16.70066558,16.70641243,16.88983796,16.80377535,,,,,,,,,,,,,,,,,,,,PF,3,weak,,,,,,,,5,1.542235,,,,,,,,,,,,,,,,,,,,,,,,,,,,8,weak,48,-24,1,0,0,response3disk,8,186,13,-2,1,0,0,rectangle,13,-2,1,0,0,,7,0,0.00042,13,-2,1,0,0,,0,23,23,153,1,0,,,,,,,,,,,,,,,,,,,
,,,,,,,,,,,,,,,,,,,,,,,,,,,,,,,,,,,,,,,,,,5f7cc1dd2fe61814cae2ce9c,606a0ef9eb327fa061264a69,2021-04-04_20h16.14.253,Colour_Similarity_Experiment,2020.2.10,Win32,60,60675255c767bca6388caeee,17.93293103,16.80377535,16.70066558,16.70641243,16.88983796,16.80377535,,,,,,,,,,,,,,,,,,,,PF,3,weak,,,,,,,,4,1.281395,,,,,,,,,,,,,,,,,,,,,,,,,,,,7,weak,24,-72,1,0,0,response3disk,3,187,4,-2,1,0,0,rectangle,4,-2,1,0,0,,7,5,0.00439,4,-2,1,0,0,,0,24,24,81,1,0,,,,,,,,,,,,,,,,,,,
,,,,,,,,,,,,,,,,,,,,,,,,,,,,,,,,,,,,,,,,,,5f7cc1dd2fe61814cae2ce9c,606a0ef9eb327fa061264a69,2021-04-04_20h16.14.253,Colour_Similarity_Experiment,2020.2.10,Win32,60,60675255c767bca6388caeee,17.93293103,16.80377535,16.70066558,16.70641243,16.88983796,16.80377535,,,,,,,,,,,,,,,,,,,,PF,3,weak,,,,,,,,5,1.517815,,,,,,,,,,,,,,,,,,,,,,,,,,,,5,weak,102,-63,1,0,0,response3disk,2,188,14,10,1,0,0,rectangle,14,10,1,0,0,,7,1,0.003395,14,10,1,0,0,,0,25,25,129,1,0,,,,,,,,,,,,,,,,,,,
,,,,,,,,,,,,,,,,,,,,,,,,,,,,,,,,,,,,,,,,,,5f7cc1dd2fe61814cae2ce9c,606a0ef9eb327fa061264a69,2021-04-04_20h16.14.253,Colour_Similarity_Experiment,2020.2.10,Win32,60,60675255c767bca6388caeee,17.93293103,16.80377535,16.70066558,16.70641243,16.88983796,16.80377535,,,,,,,,,,,,,,,,,,,,PF,3,strong,,,,,,,,4,1.22878,,,,,,,,,,,,,,,,,,,,,,,,,,,,6,strong,19,-45,1,0,0,response3disk,3,189,-10,1,1,0,0,rectangle,-10,1,1,0,0,,7,5,0.003365,-10,1,1,0,0,,0,26,26,21,1,0,,,,,,,,,,,,,,,,,,,
,,,,,,,,,,,,,,,,,,,,,,,,,,,,,,,,,,,,,,,,,,5f7cc1dd2fe61814cae2ce9c,606a0ef9eb327fa061264a69,2021-04-04_20h16.14.253,Colour_Similarity_Experiment,2020.2.10,Win32,60,60675255c767bca6388caeee,17.93293103,16.80377535,16.70066558,16.70641243,16.88983796,16.80377535,,,,,,,,,,,,,,,,,,,,PF,3,strong,,,,,,,,6,1.234385,,,,,,,,,,,,,,,,,,,,,,,,,,,,1,strong,45,23,1,0,0,response1disk,6,190,-11,-4,1,0,0,rectangle,-11,-4,1,0,0,,7,7,0.00358,-11,-4,1,0,0,,0,27,27,58,1,0,,,,,,,,,,,,,,,,,,,
,,,,,,,,,,,,,,,,,,,,,,,,,,,,,,,,,,,,,,,,,,5f7cc1dd2fe61814cae2ce9c,606a0ef9eb327fa061264a69,2021-04-04_20h16.14.253,Colour_Similarity_Experiment,2020.2.10,Win32,60,60675255c767bca6388caeee,17.93293103,16.80377535,16.70066558,16.70641243,16.88983796,16.80377535,,,,,,,,,,,,,,,,,,,,PF,3,weak,,,,,,,,6,1.596575,,,,,,,,,,,,,,,,,,,,,,,,,,,,3,weak,38,21,1,0,0,response1disk,8,191,0,-2,1,0,0,rectangle,0,-2,1,0,0,,7,1,0.00678,0,-2,1,0,0,,0,28,28,3,1,0,,,,,,,,,,,,,,,,,,,
,,,,,,,,,,,,,,,,,,,,,,,,,,,,,,,,,,,,,,,,,,5f7cc1dd2fe61814cae2ce9c,606a0ef9eb327fa061264a69,2021-04-04_20h16.14.253,Colour_Similarity_Experiment,2020.2.10,Win32,60,60675255c767bca6388caeee,17.93293103,16.80377535,16.70066558,16.70641243,16.88983796,16.80377535,,,,,,,,,,,,,,,,,,,,PF,3,weak,,,,,,,,3,1.50064,,,,,,,,,,,,,,,,,,,,,,,,,,,,1,weak,-34,-95,1,0,0,response5disk,2,192,1,4,1,0,0,rectangle,1,4,1,0,0,,7,7,0.00425,1,4,1,0,0,,0,29,29,24,1,0,,,,,,,,,,,,,,,,,,,
,,,,,,,,,,,,,,,,,,,,,,,,,,,,,,,,,,,,,,,,,,5f7cc1dd2fe61814cae2ce9c,606a0ef9eb327fa061264a69,2021-04-04_20h16.14.253,Colour_Similarity_Experiment,2020.2.10,Win32,60,60675255c767bca6388caeee,17.93293103,16.80377535,16.70066558,16.70641243,16.88983796,16.80377535,,,,,,,,,,,,,,,,,,,,PF,3,weak,,,,,,,,4,1.7692,,,,,,,,,,,,,,,,,,,,,,,,,,,,9,weak,28,-57,1,0,0,response3disk,2,193,5,-3,1,0,0,rectangle,5,-3,1,0,0,,7,3,0.002765,5,-3,1,0,0,,0,30,30,157,1,0,,,,,,,,,,,,,,,,,,,
,,,,,,,,,,,,,,,,,,,,,,,,,,,,,,,,,,,,,,,,,,5f7cc1dd2fe61814cae2ce9c,606a0ef9eb327fa061264a69,2021-04-04_20h16.14.253,Colour_Similarity_Experiment,2020.2.10,Win32,60,60675255c767bca6388caeee,17.93293103,16.80377535,16.70066558,16.70641243,16.88983796,16.80377535,,,,,,,,,,,,,,,,,,,,PF,3,strong,,,,,,,,4,1.449235,,,,,,,,,,,,,,,,,,,,,,,,,,,,4,strong,35,-76,1,0,0,response3disk,9,194,4,4,1,0,0,rectangle,4,4,1,0,0,,7,5,0.003595,4,4,1,0,0,,0,31,31,90,1,0,,,,,,,,,,,,,,,,,,,
