key_resp.keys,key_resp.rt,key_resp_16.keys,key_resp_16.rt,key_resp_2.keys,key_resp_2.rt,X Scale,ratio_pxpermm,screen_size_x,screen_size_y,testsize,key_resp_3.keys,key_resp_4.keys,key_resp_4.rt,line_size,key_resp_5.keys,key_resp_5.rt,key_resp_6.keys,key_resp_6.rt,key_resp_8.keys,key_resp_8.rt,key_resp_7.keys,key_resp_7.rt,key_resp_12.keys,key_resp_12.rt,key_resp_11.keys,key_resp_11.rt,key_resp_18.keys,key_resp_18.rt,key_resp_21.keys,key_resp_21.rt,key_resp_13.keys,key_resp_13.rt,key_resp_19.keys,key_resp_19.rt,ballposx,viewer_distance,trials.thisRepN,trials.thisTrialN,trials.thisN,trials.thisIndex,trials.ran,participant,session,date,expName,psychopyVersion,OS,frameRate,study_id,realFrameRate1,realFrameRate2,realFrameRate3,realFrameRate4,realFrameRate5,realFrameRate,viewerdistancecm,DVA_to_distance,radius_F,radius_P,r_F,R_P,key_resp_20.keys,key_resp_20.rt,key_resp_14.keys,key_resp_14.rt,key_resp_15.keys,key_resp_15.rt,key_resp_17.keys,key_resp_17.rt,key_resp_9.keys,key_resp_9.rt,key_resp_10.keys,key_resp_10.rt,Colour_1,Ecc,mask_frames,maskCon,mouse_5.x,mouse_5.y,mouse_5.leftButton,mouse_5.midButton,mouse_5.rightButton,mouse_5.clicked_name,Colour_2,similarity,response_time,mouse_10.x,mouse_10.y,mouse_10.leftButton,mouse_10.midButton,mouse_10.rightButton,mouse_10.clicked_name,mouse_7.x,mouse_7.y,mouse_7.leftButton,mouse_7.midButton,mouse_7.rightButton,catchnumberprac,mouse_6.x,mouse_6.y,mouse_6.leftButton,mouse_6.midButton,mouse_6.rightButton,duringprac.thisRepN,duringprac.thisTrialN,duringprac.thisN,duringprac.thisIndex,duringprac.ran,mouse_7.clicked_name,catchprac,mouse_6.clicked_name,key_resp_22.keys,key_resp_22.rt,Colour1,maskCon1,mouse.x,mouse.y,mouse.leftButton,mouse.midButton,mouse.rightButton,mouse.clicked_name,Colour2,trialnumber,mouse_2.x,mouse_2.y,mouse_2.leftButton,mouse_2.midButton,mouse_2.rightButton,mouse_2.clicked_name,mouse_3.x,mouse_3.y,mouse_3.leftButton,mouse_3.midButton,mouse_3.rightButton,catchresponse,catchnumber,response_time_catch,mouse_11.x,mouse_11.y,mouse_11.leftButton,mouse_11.midButton,mouse_11.rightButton,trials_2.thisRepN,trials_2.thisTrialN,trials_2.thisN,trials_2.thisIndex,trials_2.ran,Catch,mouse_3.clicked_name,mouse_11.clicked_name,trials_3.thisRepN,trials_3.thisTrialN,trials_3.thisN,trials_3.thisIndex,trials_3.ran,answer1,rt1,answer2,rt2,answer3,rt3,answer4,rt4,answer5,rt5,answer6,rt6,answer7,rt7
space,3.02297,space,59.069385,space,5.875415,42.7,4.27,571.1943794,321.3114754,2439,,space,8.752965,85.4,space,39.14604,space,3.489775,space,1.995965,space,5.513755,space,8.594635,space,7.95847,space,15.4819,space,10.298115,space,12.821525,return,4.06301,18.2925,933.8347048,0,0,0,0,1,5f8efea0c0c62e0e48ff6b3e,606a12c661f9541d2dc7cf36,2021-04-04_22h26.33.436,Colour_Similarity_Experiment,2020.2.10,Linux x86_64,60,60675255c767bca6388caeee,17.1119322,16.74784461,16.7691189,16.88113767,16.72303209,16.7691189,,,,,,,,,,,,,,,,,,,,,,,,,,,,,,,,,,,,,,,,,,,,,,,,,,,,,,,,,,,,,,,,,,,,,,,,,,,,,,,,,,,,,,,,,,,,,,,,,,,,,,,,,,,,,,,,,,
,,,,,,,,,,,,,,,,,,,,,,,,,,,,,,,,,return,3.8864,54.8775,898.1467543,1,0,1,0,1,5f8efea0c0c62e0e48ff6b3e,606a12c661f9541d2dc7cf36,2021-04-04_22h26.33.436,Colour_Similarity_Experiment,2020.2.10,Linux x86_64,60,60675255c767bca6388caeee,17.1119322,16.74784461,16.7691189,16.88113767,16.72303209,16.7691189,,,,,,,,,,,,,,,,,,,,,,,,,,,,,,,,,,,,,,,,,,,,,,,,,,,,,,,,,,,,,,,,,,,,,,,,,,,,,,,,,,,,,,,,,,,,,,,,,,,,,,,,,,,,,,,,,,
,,,,,,,,,,,,,,,,,,,,,,,,,,,,,,,,,return,3.90436,51.219,901.7155494,2,0,2,0,1,5f8efea0c0c62e0e48ff6b3e,606a12c661f9541d2dc7cf36,2021-04-04_22h26.33.436,Colour_Similarity_Experiment,2020.2.10,Linux x86_64,60,60675255c767bca6388caeee,17.1119322,16.74784461,16.7691189,16.88113767,16.72303209,16.7691189,,,,,,,,,,,,,,,,,,,,,,,,,,,,,,,,,,,,,,,,,,,,,,,,,,,,,,,,,,,,,,,,,,,,,,,,,,,,,,,,,,,,,,,,,,,,,,,,,,,,,,,,,,,,,,,,,,
,,,,,,,,,,,,,,,,,,,,,,,,,,,,,,,,,return,3.777885,80.487,873.165189,3,0,3,0,1,5f8efea0c0c62e0e48ff6b3e,606a12c661f9541d2dc7cf36,2021-04-04_22h26.33.436,Colour_Similarity_Experiment,2020.2.10,Linux x86_64,60,60675255c767bca6388caeee,17.1119322,16.74784461,16.7691189,16.88113767,16.72303209,16.7691189,,,,,,,,,,,,,,,,,,,,,,,,,,,,,,,,,,,,,,,,,,,,,,,,,,,,,,,,,,,,,,,,,,,,,,,,,,,,,,,,,,,,,,,,,,,,,,,,,,,,,,,,,,,,,,,,,,
,,,,,,,,,,,,,,,,,,,,,,,,,,,,,,,,,return,3.953565,43.902,908.8531395,4,0,4,0,1,5f8efea0c0c62e0e48ff6b3e,606a12c661f9541d2dc7cf36,2021-04-04_22h26.33.436,Colour_Similarity_Experiment,2020.2.10,Linux x86_64,60,60675255c767bca6388caeee,17.1119322,16.74784461,16.7691189,16.88113767,16.72303209,16.7691189,,,,,,,,,,,,,,,,,,,,,,,,,,,,,,,,,,,,,,,,,,,,,,,,,,,,,,,,,,,,,,,,,,,,,,,,,,,,,,,,,,,,,,,,,,,,,,,,,,,,,,,,,,,,,,,,,,
,,,,,,,,,,,,,,,,,,,,,,,,,,,,,,,,,,,,,,,,,,5f8efea0c0c62e0e48ff6b3e,606a12c661f9541d2dc7cf36,2021-04-04_22h26.33.436,Colour_Similarity_Experiment,2020.2.10,Linux x86_64,60,60675255c767bca6388caeee,17.1119322,16.74784461,16.7691189,16.88113767,16.72303209,16.7691189,90,15.70955282,100.6196858,670.7979053,67.07979053,301.8590574,space,6.34803,space,20.11618,space,22.619,space,7.833415,space,5.27981,space,4.595625,6,PF,3,weak,57.6454187,-81.62070349,1,0,0,response3disk_5,8,4,18.06527,-4.259467363,3.141487539,1,0,0,rectangle_8,-4.259467363,3.141487539,1,0,0,3,-4.259467363,3.141487539,1,0,0,0,0,0,6,1,,,,,,,,,,,,,,,,,,,,,,,,,,,,,,,,,,,,,,,,,,,,,,,,,,,,,,,,,,,,,
,,,,,,,,,,,,,,,,,,,,,,,,,,,,,,,,,,,,,,,,,,5f8efea0c0c62e0e48ff6b3e,606a12c661f9541d2dc7cf36,2021-04-04_22h26.33.436,Colour_Similarity_Experiment,2020.2.10,Linux x86_64,60,60675255c767bca6388caeee,17.1119322,16.74784461,16.7691189,16.88113767,16.72303209,16.7691189,,,,,,,,,,,,,,,,,,,7,PF,3,weak,-29.97357214,-55.90624994,1,0,0,response5disk_5,5,3,7.98076,20.50248706,-8.287106812,1,0,0,rectangle_8,-32.83095324,-62.57304624,1,0,0,3,11.9310413,0.284338951,1,0,0,0,1,1,4,1,response5disk_7,3,rectangle_4,,,,,,,,,,,,,,,,,,,,,,,,,,,,,,,,,,,,,,,,,,,,,,,,,,,,,,,,,,
,,,,,,,,,,,,,,,,,,,,,,,,,,,,,,,,,,,,,,,,,,5f8efea0c0c62e0e48ff6b3e,606a12c661f9541d2dc7cf36,2021-04-04_22h26.33.436,Colour_Similarity_Experiment,2020.2.10,Linux x86_64,60,60675255c767bca6388caeee,17.1119322,16.74784461,16.7691189,16.88113767,16.72303209,16.7691189,,,,,,,,,,,,,,,,,,,7,PF,3,weak,-55.68790943,-36.85859269,1,0,0,response5disk_5,5,2,5.22157,-1.402318776,9.808167577,1,0,0,rectangle_8,-1.402318776,9.808167577,1,0,0,3,-1.402318776,9.808167577,1,0,0,0,2,2,5,1,,,,,,,,,,,,,,,,,,,,,,,,,,,,,,,,,,,,,,,,,,,,,,,,,,,,,,,,,,,,,
,,,,,,,,,,,,,,,,,,,,,,,,,,,,,,,,,,,,,,,,,,5f8efea0c0c62e0e48ff6b3e,606a12c661f9541d2dc7cf36,2021-04-04_22h26.33.436,Colour_Similarity_Experiment,2020.2.10,Linux x86_64,60,60675255c767bca6388caeee,17.1119322,16.74784461,16.7691189,16.88113767,16.72303209,16.7691189,,,,,,,,,,,,,,,,,,,1,PF,3,strong,46.21682435,-18.7633183,1,0,0,response3disk_5,5,5,7.40673,23.35963565,-16.8586107,1,0,0,rectangle_8,23.35963565,-16.8586107,1,0,0,3,23.35963565,-16.8586107,1,0,0,0,3,3,0,1,,5,,,,,,,,,,,,,,,,,,,,,,,,,,,,,,,,,,,,,,,,,,,,,,,,,,,,,,,,,,,
,,,,,,,,,,,,,,,,,,,,,,,,,,,,,,,,,,,,,,,,,,5f8efea0c0c62e0e48ff6b3e,606a12c661f9541d2dc7cf36,2021-04-04_22h26.33.436,Colour_Similarity_Experiment,2020.2.10,Linux x86_64,60,60675255c767bca6388caeee,17.1119322,16.74784461,16.7691189,16.88113767,16.72303209,16.7691189,,,,,,,,,,,,,,,,,,,6,PF,3,weak,-41.40228275,-32.09667838,1,0,0,response5disk_5,1,2,4.104355,-5.211733968,-3.525308757,1,0,0,rectangle_8,-5.211733968,-3.525308757,1,0,0,3,-5.211733968,-3.525308757,1,0,0,0,4,4,1,1,,,,,,,,,,,,,,,,,,,,,,,,,,,,,,,,,,,,,,,,,,,,,,,,,,,,,,,,,,,,,
,,,,,,,,,,,,,,,,,,,,,,,,,,,,,,,,,,,,,,,,,,5f8efea0c0c62e0e48ff6b3e,606a12c661f9541d2dc7cf36,2021-04-04_22h26.33.436,Colour_Similarity_Experiment,2020.2.10,Linux x86_64,60,60675255c767bca6388caeee,17.1119322,16.74784461,16.7691189,16.88113767,16.72303209,16.7691189,,,,,,,,,,,,,,,,,,,4,PF,3,strong,95.74073321,22.18914479,1,0,0,response1disk_5,3,6,6.763625,42.40740916,-2.572809637,1,0,0,rectangle_8,-44.25931508,-57.81113192,1,0,0,3,6.21697664,0.284338951,1,0,0,0,5,5,3,1,response5disk_7,3,rectangle_4,,,,,,,,,,,,,,,,,,,,,,,,,,,,,,,,,,,,,,,,,,,,,,,,,,,,,,,,,,
,,,,,,,,,,,,,,,,,,,,,,,,,,,,,,,,,,,,,,,,,,5f8efea0c0c62e0e48ff6b3e,606a12c661f9541d2dc7cf36,2021-04-04_22h26.33.436,Colour_Similarity_Experiment,2020.2.10,Linux x86_64,60,60675255c767bca6388caeee,17.1119322,16.74784461,16.7691189,16.88113767,16.72303209,16.7691189,,,,,,,,,,,,,,,,,,,2,PF,3,strong,-38.54525042,-54.95386708,1,0,0,response5disk_5,4,3,2.55331,27.16939962,0.284338951,1,0,0,rectangle_8,27.16939962,0.284338951,1,0,0,3,27.16939962,0.284338951,1,0,0,0,6,6,2,1,,,,,,,,,,,,,,,,,,,,,,,,,,,,,,,,,,,,,,,,,,,,,,,,,,,,,,,,,,,,,
,,,,,,,,,,,,,,,,,,,,,,,,,,,,,,,,,,,,,,,,,,5f8efea0c0c62e0e48ff6b3e,606a12c661f9541d2dc7cf36,2021-04-04_22h26.33.436,Colour_Similarity_Experiment,2020.2.10,Linux x86_64,60,60675255c767bca6388caeee,17.1119322,16.74784461,16.7691189,16.88113767,16.72303209,16.7691189,,,,,,,,,,,,,,,,,,,,PF,3,strong,,,,,,,,2,2.62022,,,,,,,,,,,,,,,,,,,,,,,,,,space,15.092755,8,strong,-62.35482198,-33.0491775,1,0,0,response5disk,2,1,-6.164000573,0.284338951,1,0,0,rectangle,-6.164000573,0.284338951,1,0,0,,4,0.0058,-6.164000573,0.284338951,1,0,0,0,0,0,22,1,0,,,,,,,,,,,,,,,,,,,,,
,,,,,,,,,,,,,,,,,,,,,,,,,,,,,,,,,,,,,,,,,,5f8efea0c0c62e0e48ff6b3e,606a12c661f9541d2dc7cf36,2021-04-04_22h26.33.436,Colour_Similarity_Experiment,2020.2.10,Linux x86_64,60,60675255c767bca6388caeee,17.1119322,16.74784461,16.7691189,16.88113767,16.72303209,16.7691189,,,,,,,,,,,,,,,,,,,,PF,3,weak,,,,,,,,6,2.20339,,,,,,,,,,,,,,,,,,,,,,,,,,,,6,weak,69.07401305,24.09391052,1,0,0,response1disk,1,2,28.12178248,-4.477691619,1,0,0,rectangle,28.12178248,-4.477691619,1,0,0,,5,0.002305,28.12178248,-4.477691619,1,0,0,0,1,1,46,1,0,,,,,,,,,,,,,,,,,,,,,
,,,,,,,,,,,,,,,,,,,,,,,,,,,,,,,,,,,,,,,,,,5f8efea0c0c62e0e48ff6b3e,606a12c661f9541d2dc7cf36,2021-04-04_22h26.33.436,Colour_Similarity_Experiment,2020.2.10,Linux x86_64,60,60675255c767bca6388caeee,17.1119322,16.74784461,16.7691189,16.88113767,16.72303209,16.7691189,,,,,,,,,,,,,,,,,,,,PF,3,strong,,,,,,,,3,2.67286,,,,,,,,,,,,,,,,,,,,,,,,,,,,1,strong,-33.7833361,-74.00152433,1,0,0,response5disk,1,3,-5.211733968,-12.09663826,1,0,0,rectangle,-5.211733968,-12.09663826,1,0,0,,4,0.00148,-5.211733968,-12.09663826,1,0,0,0,2,2,151,1,0,,,,,,,,,,,,,,,,,,,,,
,,,,,,,,,,,,,,,,,,,,,,,,,,,,,,,,,,,,,,,,,,5f8efea0c0c62e0e48ff6b3e,606a12c661f9541d2dc7cf36,2021-04-04_22h26.33.436,Colour_Similarity_Experiment,2020.2.10,Linux x86_64,60,60675255c767bca6388caeee,17.1119322,16.74784461,16.7691189,16.88113767,16.72303209,16.7691189,,,,,,,,,,,,,,,,,,,,PF,3,weak,,,,,,,,4,2.814825,,,,,,,,,,,,,,,,,,,,,,,,,,,,4,weak,32.88346428,-45.43015471,1,0,0,response3disk,5,4,21.45486993,-6.382341087,1,0,0,rectangle,21.45486993,-6.382341087,1,0,0,,1,0.00251,21.45486993,-6.382341087,1,0,0,0,3,3,49,1,0,,,,,,,,,,,,,,,,,,,,,
,,,,,,,,,,,,,,,,,,,,,,,,,,,,,,,,,,,,,,,,,,5f8efea0c0c62e0e48ff6b3e,606a12c661f9541d2dc7cf36,2021-04-04_22h26.33.436,Colour_Similarity_Experiment,2020.2.10,Linux x86_64,60,60675255c767bca6388caeee,17.1119322,16.74784461,16.7691189,16.88113767,16.72303209,16.7691189,,,,,,,,,,,,,,,,,,,,PF,3,strong,,,,,,,,3,2.034495,,,,,,,,,,,,,,,,,,,,,,,,,,,,3,strong,-21.40235889,-47.33480418,1,0,0,response5disk,8,5,5.264593778,-7.334723949,1,0,0,rectangle,5.264593778,-7.334723949,1,0,0,,6,0.003125,5.264593778,-7.334723949,1,0,0,0,4,4,44,1,0,,,,,,,,,,,,,,,,,,,,,
,,,,,,,,,,,,,,,,,,,,,,,,,,,,,,,,,,,,,,,,,,5f8efea0c0c62e0e48ff6b3e,606a12c661f9541d2dc7cf36,2021-04-04_22h26.33.436,Colour_Similarity_Experiment,2020.2.10,Linux x86_64,60,60675255c767bca6388caeee,17.1119322,16.74784461,16.7691189,16.88113767,16.72303209,16.7691189,,,,,,,,,,,,,,,,,,,,PF,3,strong,,,,,,,,6,2.400295,,,,,,,,,,,,,,,,,,,,,,,,,,,,6,strong,85.26452172,24.09391052,1,0,0,response1disk,8,6,29.07416534,-7.334723949,1,0,0,rectangle,29.07416534,-7.334723949,1,0,0,,5,0.002075,29.07416534,-7.334723949,1,0,0,0,5,5,133,1,0,,,,,,,,,,,,,,,,,,,,,
,,,,,,,,,,,,,,,,,,,,,,,,,,,,,,,,,,,,,,,,,,5f8efea0c0c62e0e48ff6b3e,606a12c661f9541d2dc7cf36,2021-04-04_22h26.33.436,Colour_Similarity_Experiment,2020.2.10,Linux x86_64,60,60675255c767bca6388caeee,17.1119322,16.74784461,16.7691189,16.88113767,16.72303209,16.7691189,,,,,,,,,,,,,,,,,,,,PF,3,strong,,,,,,,,6,7.1905,,,,,,,,,,,,,,,,,,,,,,,,,,,,4,strong,84.31213886,16.47484761,1,0,0,response1disk,9,7,13.83580703,-2.572809637,1,0,0,rectangle,13.83580703,-2.572809637,1,0,0,,5,0.00224,13.83580703,-2.572809637,1,0,0,0,6,6,90,1,0,,,,,,,,,,,,,,,,,,,,,
,,,,,,,,,,,,,,,,,,,,,,,,,,,,,,,,,,,,,,,,,,5f8efea0c0c62e0e48ff6b3e,606a12c661f9541d2dc7cf36,2021-04-04_22h26.33.436,Colour_Similarity_Experiment,2020.2.10,Linux x86_64,60,60675255c767bca6388caeee,17.1119322,16.74784461,16.7691189,16.88113767,16.72303209,16.7691189,,,,,,,,,,,,,,,,,,,,PF,3,weak,,,,,,,,5,3.771335,,,,,,,,,,,,,,,,,,,,,,,,,,,,8,weak,52.88373691,-33.0491775,1,0,0,response3disk,5,8,29.07416534,3.141487539,1,0,0,rectangle,29.07416534,3.141487539,1,0,0,,4,0.00347,29.07416534,3.141487539,1,0,0,0,7,7,98,1,0,,,,,,,,,,,,,,,,,,,,,
,,,,,,,,,,,,,,,,,,,,,,,,,,,,,,,,,,,,,,,,,,5f8efea0c0c62e0e48ff6b3e,606a12c661f9541d2dc7cf36,2021-04-04_22h26.33.436,Colour_Similarity_Experiment,2020.2.10,Linux x86_64,60,60675255c767bca6388caeee,17.1119322,16.74784461,16.7691189,16.88113767,16.72303209,16.7691189,,,,,,,,,,,,,,,,,,,,PF,3,strong,,,,,,,,6,2.322065,,,,,,,,,,,,,,,,,,,,,,,,,,,,1,strong,80.50260741,17.42723048,1,0,0,response1disk,5,9,26.21678424,-12.09663826,1,0,0,rectangle,26.21678424,-12.09663826,1,0,0,,5,0.00285,26.21678424,-12.09663826,1,0,0,0,8,8,82,1,0,,,,,,,,,,,,,,,,,,,,,
,,,,,,,,,,,,,,,,,,,,,,,,,,,,,,,,,,,,,,,,,,5f8efea0c0c62e0e48ff6b3e,606a12c661f9541d2dc7cf36,2021-04-04_22h26.33.436,Colour_Similarity_Experiment,2020.2.10,Linux x86_64,60,60675255c767bca6388caeee,17.1119322,16.74784461,16.7691189,16.88113767,16.72303209,16.7691189,,,,,,,,,,,,,,,,,,,,PF,3,strong,,,,,,,,3,3.58637,,,,,,,,,,,,,,,,,,,,,,,,,,,,2,strong,-15.68806171,-66.38246143,1,0,0,response5disk,7,10,8.12150985,-6.382341087,1,0,0,rectangle,8.12150985,-6.382341087,1,0,0,,4,0.003355,8.12150985,-6.382341087,1,0,0,0,9,9,63,1,0,,,,,,,,,,,,,,,,,,,,,
,,,,,,,,,,,,,,,,,,,,,,,,,,,,,,,,,,,,,,,,,,5f8efea0c0c62e0e48ff6b3e,606a12c661f9541d2dc7cf36,2021-04-04_22h26.33.436,Colour_Similarity_Experiment,2020.2.10,Linux x86_64,60,60675255c767bca6388caeee,17.1119322,16.74784461,16.7691189,16.88113767,16.72303209,16.7691189,,,,,,,,,,,,,,,,,,,,PF,3,weak,,,,,,,,5,5.52257,,,,,,,,,,,,,,,,,,,,,,,,,,,,5,weak,31.93108141,-25.42999834,1,0,0,response3disk,5,11,26.21678424,-8.287106812,1,0,0,rectangle,26.21678424,-8.287106812,1,0,0,,3,0.001045,26.21678424,-8.287106812,1,0,0,0,10,10,94,1,0,,,,,,,,,,,,,,,,,,,,,
,,,,,,,,,,,,,,,,,,,,,,,,,,,,,,,,,,,,,,,,,,5f8efea0c0c62e0e48ff6b3e,606a12c661f9541d2dc7cf36,2021-04-04_22h26.33.436,Colour_Similarity_Experiment,2020.2.10,Linux x86_64,60,60675255c767bca6388caeee,17.1119322,16.74784461,16.7691189,16.88113767,16.72303209,16.7691189,,,,,,,,,,,,,,,,,,,,PF,3,weak,,,,,,,,6,3.0872,,,,,,,,,,,,,,,,,,,,,,,,,,,,1,weak,64.31233126,24.09391052,1,0,0,response1disk,1,12,28.12178248,-4.477691619,1,0,0,rectangle,25.26440138,-55.90624994,1,0,0,4,4,1.741095,17.64557099,-0.668043911,1,0,0,0,11,11,76,1,1,response3disk_3,rectangle,,,,,,,,,,,,,,,,,,,
,,,,,,,,,,,,,,,,,,,,,,,,,,,,,,,,,,,,,,,,,,5f8efea0c0c62e0e48ff6b3e,606a12c661f9541d2dc7cf36,2021-04-04_22h26.33.436,Colour_Similarity_Experiment,2020.2.10,Linux x86_64,60,60675255c767bca6388caeee,17.1119322,16.74784461,16.7691189,16.88113767,16.72303209,16.7691189,,,,,,,,,,,,,,,,,,,,PF,3,weak,,,,,,,,6,2.168655,,,,,,,,,,,,,,,,,,,,,,,,,,,,3,weak,70.97877878,25.99855998,1,0,0,response1disk,3,13,34.78823,-1.620426774,1,0,0,rectangle,34.78823,-1.620426774,1,0,0,4,7,0.00397,34.78823,-1.620426774,1,0,0,0,12,12,4,1,0,,,,,,,,,,,,,,,,,,,,,
,,,,,,,,,,,,,,,,,,,,,,,,,,,,,,,,,,,,,,,,,,5f8efea0c0c62e0e48ff6b3e,606a12c661f9541d2dc7cf36,2021-04-04_22h26.33.436,Colour_Similarity_Experiment,2020.2.10,Linux x86_64,60,60675255c767bca6388caeee,17.1119322,16.74784461,16.7691189,16.88113767,16.72303209,16.7691189,,,,,,,,,,,,,,,,,,,,PF,3,weak,,,,,,,,5,2.76968,,,,,,,,,,,,,,,,,,,,,,,,,,,,9,weak,57.6454187,-23.52523261,1,0,0,response3disk,2,14,24.31201851,-1.620426774,1,0,0,rectangle,24.31201851,-1.620426774,1,0,0,4,3,0.00237,24.31201851,-1.620426774,1,0,0,0,13,13,157,1,0,,,,,,,,,,,,,,,,,,,,,
,,,,,,,,,,,,,,,,,,,,,,,,,,,,,,,,,,,,,,,,,,5f8efea0c0c62e0e48ff6b3e,606a12c661f9541d2dc7cf36,2021-04-04_22h26.33.436,Colour_Similarity_Experiment,2020.2.10,Linux x86_64,60,60675255c767bca6388caeee,17.1119322,16.74784461,16.7691189,16.88113767,16.72303209,16.7691189,,,,,,,,,,,,,,,,,,,,PF,3,weak,,,,,,,,3,2.402925,,,,,,,,,,,,,,,,,,,,,,,,,,,,6,weak,-50.92622763,-69.23972627,1,0,0,response5disk,9,15,0.502446949,2.188988419,1,0,0,rectangle,0.502446949,2.188988419,1,0,0,4,6,0.00452,0.502446949,2.188988419,1,0,0,0,14,14,45,1,0,,,,,,,,,,,,,,,,,,,,,
,,,,,,,,,,,,,,,,,,,,,,,,,,,,,,,,,,,,,,,,,,5f8efea0c0c62e0e48ff6b3e,606a12c661f9541d2dc7cf36,2021-04-04_22h26.33.436,Colour_Similarity_Experiment,2020.2.10,Linux x86_64,60,60675255c767bca6388caeee,17.1119322,16.74784461,16.7691189,16.88113767,16.72303209,16.7691189,,,,,,,,,,,,,,,,,,,,PF,3,strong,,,,,,,,4,2.08589,,,,,,,,,,,,,,,,,,,,,,,,,,,,7,strong,21.45486993,-54.95386708,1,0,0,response3disk,5,16,24.31201851,-7.334723949,1,0,0,rectangle,24.31201851,-7.334723949,1,0,0,4,3,0.00279,24.31201851,-7.334723949,1,0,0,0,15,15,156,1,0,,,,,,,,,,,,,,,,,,,,,
,,,,,,,,,,,,,,,,,,,,,,,,,,,,,,,,,,,,,,,,,,5f8efea0c0c62e0e48ff6b3e,606a12c661f9541d2dc7cf36,2021-04-04_22h26.33.436,Colour_Similarity_Experiment,2020.2.10,Linux x86_64,60,60675255c767bca6388caeee,17.1119322,16.74784461,16.7691189,16.88113767,16.72303209,16.7691189,,,,,,,,,,,,,,,,,,,,PF,3,weak,,,,,,,,6,1.1851,,,,,,,,,,,,,,,,,,,,,,,,,,,,1,weak,68.12163019,24.09391052,1,0,0,response1disk,9,17,30.97869855,-8.287106812,1,0,0,rectangle,30.97869855,-8.287106812,1,0,0,4,0,0.00468,30.97869855,-8.287106812,1,0,0,0,16,16,15,1,0,,,,,,,,,,,,,,,,,,,,,
,,,,,,,,,,,,,,,,,,,,,,,,,,,,,,,,,,,,,,,,,,5f8efea0c0c62e0e48ff6b3e,606a12c661f9541d2dc7cf36,2021-04-04_22h26.33.436,Colour_Similarity_Experiment,2020.2.10,Linux x86_64,60,60675255c767bca6388caeee,17.1119322,16.74784461,16.7691189,16.88113767,16.72303209,16.7691189,,,,,,,,,,,,,,,,,,,,PF,3,weak,,,,,,,,7,1.95129,,,,,,,,,,,,,,,,,,,,,,,,,,,,8,weak,37.64537859,49.80813155,1,0,0,response1disk,3,18,24.31201851,4.093870401,1,0,0,rectangle,24.31201851,4.093870401,1,0,0,4,1,0.00522,24.31201851,4.093870401,1,0,0,0,17,17,71,1,0,,,,,,,,,,,,,,,,,,,,,
,,,,,,,,,,,,,,,,,,,,,,,,,,,,,,,,,,,,,,,,,,5f8efea0c0c62e0e48ff6b3e,606a12c661f9541d2dc7cf36,2021-04-04_22h26.33.436,Colour_Similarity_Experiment,2020.2.10,Linux x86_64,60,60675255c767bca6388caeee,17.1119322,16.74784461,16.7691189,16.88113767,16.72303209,16.7691189,,,,,,,,,,,,,,,,,,,,PF,3,weak,,,,,,,,5,1.51962,,,,,,,,,,,,,,,,,,,,,,,,,,,,5,weak,65.26471412,-20.66808403,1,0,0,response3disk,1,19,38.59776145,-5.429958224,1,0,0,rectangle,-57.59290767,21.23676193,1,0,0,1,1,2.33601,-30.925955,9.808167577,1,0,0,0,18,18,159,1,1,response7disk_3,rectangle,,,,,,,,,,,,,,,,,,,
,,,,,,,,,,,,,,,,,,,,,,,,,,,,,,,,,,,,,,,,,,5f8efea0c0c62e0e48ff6b3e,606a12c661f9541d2dc7cf36,2021-04-04_22h26.33.436,Colour_Similarity_Experiment,2020.2.10,Linux x86_64,60,60675255c767bca6388caeee,17.1119322,16.74784461,16.7691189,16.88113767,16.72303209,16.7691189,,,,,,,,,,,,,,,,,,,,PF,3,weak,,,,,,,,1,2.335775,,,,,,,,,,,,,,,,,,,,,,,,,,,,9,weak,-49.0214619,37.42715433,1,0,0,response7disk,9,20,-34.73571897,0.284338951,1,0,0,rectangle,-34.73571897,0.284338951,1,0,0,1,0,0.00306,-34.73571897,0.284338951,1,0,0,0,19,19,106,1,0,,,,,,,,,,,,,,,,,,,,,
,,,,,,,,,,,,,,,,,,,,,,,,,,,,,,,,,,,,,,,,,,5f8efea0c0c62e0e48ff6b3e,606a12c661f9541d2dc7cf36,2021-04-04_22h26.33.436,Colour_Similarity_Experiment,2020.2.10,Linux x86_64,60,60675255c767bca6388caeee,17.1119322,16.74784461,16.7691189,16.88113767,16.72303209,16.7691189,,,,,,,,,,,,,,,,,,,,PF,3,strong,,,,,,,,5,2.23631,,,,,,,,,,,,,,,,,,,,,,,,,,,,5,strong,43.35967577,-21.62058315,1,0,0,response3disk,8,21,30.97869855,-5.429958224,1,0,0,rectangle,30.97869855,-5.429958224,1,0,0,1,7,0.003745,30.97869855,-5.429958224,1,0,0,0,20,20,16,1,0,,,,,,,,,,,,,,,,,,,,,
,,,,,,,,,,,,,,,,,,,,,,,,,,,,,,,,,,,,,,,,,,5f8efea0c0c62e0e48ff6b3e,606a12c661f9541d2dc7cf36,2021-04-04_22h26.33.436,Colour_Similarity_Experiment,2020.2.10,Linux x86_64,60,60675255c767bca6388caeee,17.1119322,16.74784461,16.7691189,16.88113767,16.72303209,16.7691189,,,,,,,,,,,,,,,,,,,,PF,3,weak,,,,,,,,4,1.52568,,,,,,,,,,,,,,,,,,,,,,,,,,,,7,weak,21.45486993,-56.85874906,1,0,0,response3disk,4,22,21.45486993,-7.334723949,1,0,0,rectangle,21.45486993,-7.334723949,1,0,0,1,4,0.005065,21.45486993,-7.334723949,1,0,0,0,21,21,43,1,0,,,,,,,,,,,,,,,,,,,,,
,,,,,,,,,,,,,,,,,,,,,,,,,,,,,,,,,,,,,,,,,,5f8efea0c0c62e0e48ff6b3e,606a12c661f9541d2dc7cf36,2021-04-04_22h26.33.436,Colour_Similarity_Experiment,2020.2.10,Linux x86_64,60,60675255c767bca6388caeee,17.1119322,16.74784461,16.7691189,16.88113767,16.72303209,16.7691189,,,,,,,,,,,,,,,,,,,,PF,3,weak,,,,,,,,6,2.268975,,,,,,,,,,,,,,,,,,,,,,,,,,,,7,weak,75.74092561,18.37961334,1,0,0,response1disk,6,23,36.69299573,-10.19198879,1,0,0,rectangle,36.69299573,-10.19198879,1,0,0,1,5,0.00268,36.69299573,-10.19198879,1,0,0,0,22,22,29,1,0,,,,,,,,,,,,,,,,,,,,,
,,,,,,,,,,,,,,,,,,,,,,,,,,,,,,,,,,,,,,,,,,5f8efea0c0c62e0e48ff6b3e,606a12c661f9541d2dc7cf36,2021-04-04_22h26.33.436,Colour_Similarity_Experiment,2020.2.10,Linux x86_64,60,60675255c767bca6388caeee,17.1119322,16.74784461,16.7691189,16.88113767,16.72303209,16.7691189,,,,,,,,,,,,,,,,,,,,PF,3,weak,,,,,,,,6,2.16973,,,,,,,,,,,,,,,,,,,,,,,,,,,,7,weak,67.16924733,25.99855998,1,0,0,response1disk,7,24,30.97869855,-4.477691619,1,0,0,rectangle,30.97869855,-4.477691619,1,0,0,1,7,0.004105,30.97869855,-4.477691619,1,0,0,0,23,23,51,1,0,,,,,,,,,,,,,,,,,,,,,
,,,,,,,,,,,,,,,,,,,,,,,,,,,,,,,,,,,,,,,,,,5f8efea0c0c62e0e48ff6b3e,606a12c661f9541d2dc7cf36,2021-04-04_22h26.33.436,Colour_Similarity_Experiment,2020.2.10,Linux x86_64,60,60675255c767bca6388caeee,17.1119322,16.74784461,16.7691189,16.88113767,16.72303209,16.7691189,,,,,,,,,,,,,,,,,,,,PF,3,strong,,,,,,,,7,1.85242,,,,,,,,,,,,,,,,,,,,,,,,,,,,1,strong,45.26444149,66.9510812,1,0,0,response1disk,6,25,16.69318813,9.808167577,1,0,0,rectangle,16.69318813,9.808167577,1,0,0,1,4,0.004745,16.69318813,9.808167577,1,0,0,0,24,24,58,1,0,,,,,,,,,,,,,,,,,,,,,
,,,,,,,,,,,,,,,,,,,,,,,,,,,,,,,,,,,,,,,,,,5f8efea0c0c62e0e48ff6b3e,606a12c661f9541d2dc7cf36,2021-04-04_22h26.33.436,Colour_Similarity_Experiment,2020.2.10,Linux x86_64,60,60675255c767bca6388caeee,17.1119322,16.74784461,16.7691189,16.88113767,16.72303209,16.7691189,,,,,,,,,,,,,,,,,,,,PF,3,strong,,,,,,,,6,2.57406,,,,,,,,,,,,,,,,,,,,,,,,,,,,7,strong,90.97881889,21.23676193,1,0,0,response1disk,3,26,37.64537859,-0.668043911,1,0,0,rectangle,37.64537859,-0.668043911,1,0,0,1,3,0.00265,37.64537859,-0.668043911,1,0,0,0,25,25,73,1,0,,,,,,,,,,,,,,,,,,,,,
,,,,,,,,,,,,,,,,,,,,,,,,,,,,,,,,,,,,,,,,,,5f8efea0c0c62e0e48ff6b3e,606a12c661f9541d2dc7cf36,2021-04-04_22h26.33.436,Colour_Similarity_Experiment,2020.2.10,Linux x86_64,60,60675255c767bca6388caeee,17.1119322,16.74784461,16.7691189,16.88113767,16.72303209,16.7691189,,,,,,,,,,,,,,,,,,,,PF,3,weak,,,,,,,,7,1.417775,,,,,,,,,,,,,,,,,,,,,,,,,,,,8,weak,43.35967577,71.71305364,1,0,0,response1disk,1,27,30.97869855,5.998636127,1,0,0,rectangle,30.97869855,5.998636127,1,0,0,1,0,0.00393,30.97869855,5.998636127,1,0,0,0,26,26,57,1,0,,,,,,,,,,,,,,,,,,,,,
,,,,,,,,,,,,,,,,,,,,,,,,,,,,,,,,,,,,,,,,,,5f8efea0c0c62e0e48ff6b3e,606a12c661f9541d2dc7cf36,2021-04-04_22h26.33.436,Colour_Similarity_Experiment,2020.2.10,Linux x86_64,60,60675255c767bca6388caeee,17.1119322,16.74784461,16.7691189,16.88113767,16.72303209,16.7691189,,,,,,,,,,,,,,,,,,,,PF,3,strong,,,,,,,,3,1.73575,,,,,,,,,,,,,,,,,,,,,,,,,,,,1,strong,-28.06903893,-74.00152433,1,0,0,response5disk,4,28,7.169126987,-12.09663826,1,0,0,rectangle,7.169126987,-12.09663826,1,0,0,1,6,0.00305,7.169126987,-12.09663826,1,0,0,0,27,27,135,1,0,,,,,,,,,,,,,,,,,,,,,
,,,,,,,,,,,,,,,,,,,,,,,,,,,,,,,,,,,,,,,,,,5f8efea0c0c62e0e48ff6b3e,606a12c661f9541d2dc7cf36,2021-04-04_22h26.33.436,Colour_Similarity_Experiment,2020.2.10,Linux x86_64,60,60675255c767bca6388caeee,17.1119322,16.74784461,16.7691189,16.88113767,16.72303209,16.7691189,,,,,,,,,,,,,,,,,,,,PF,3,strong,,,,,,,,5,1.568475,,,,,,,,,,,,,,,,,,,,,,,,,,,,6,strong,69.07401305,-23.52523261,1,0,0,response3disk,6,29,21.45486993,-10.19198879,1,0,0,rectangle,21.45486993,-10.19198879,1,0,0,1,0,0.00325,21.45486993,-10.19198879,1,0,0,0,28,28,91,1,0,,,,,,,,,,,,,,,,,,,,,
,,,,,,,,,,,,,,,,,,,,,,,,,,,,,,,,,,,,,,,,,,5f8efea0c0c62e0e48ff6b3e,606a12c661f9541d2dc7cf36,2021-04-04_22h26.33.436,Colour_Similarity_Experiment,2020.2.10,Linux x86_64,60,60675255c767bca6388caeee,17.1119322,16.74784461,16.7691189,16.88113767,16.72303209,16.7691189,,,,,,,,,,,,,,,,,,,,PF,3,strong,,,,,,,,4,1.819935,,,,,,,,,,,,,,,,,,,,,,,,,,,,4,strong,21.45486993,-57.81113192,1,0,0,response3disk,5,30,1.454829812,-14.00140399,1,0,0,rectangle,1.454829812,-14.00140399,1,0,0,1,0,0.000455,1.454829812,-14.00140399,1,0,0,0,29,29,116,1,0,,,,,,,,,,,,,,,,,,,,,
,,,,,,,,,,,,,,,,,,,,,,,,,,,,,,,,,,,,,,,,,,5f8efea0c0c62e0e48ff6b3e,606a12c661f9541d2dc7cf36,2021-04-04_22h26.33.436,Colour_Similarity_Experiment,2020.2.10,Linux x86_64,60,60675255c767bca6388caeee,17.1119322,16.74784461,16.7691189,16.88113767,16.72303209,16.7691189,,,,,,,,,,,,,,,,,,,,PF,3,weak,,,,,,,,3,2.36963,,,,,,,,,,,,,,,,,,,,,,,,,,,,7,weak,-26.1642732,-48.28718704,1,0,0,response5disk,5,31,10.02627558,-2.572809637,1,0,0,rectangle,10.02627558,-2.572809637,1,0,0,1,0,0.0005,10.02627558,-2.572809637,1,0,0,0,30,30,92,1,0,,,,,,,,,,,,,,,,,,,,,
,,,,,,,,,,,,,,,,,,,,,,,,,,,,,,,,,,,,,,,,,,5f8efea0c0c62e0e48ff6b3e,606a12c661f9541d2dc7cf36,2021-04-04_22h26.33.436,Colour_Similarity_Experiment,2020.2.10,Linux x86_64,60,60675255c767bca6388caeee,17.1119322,16.74784461,16.7691189,16.88113767,16.72303209,16.7691189,,,,,,,,,,,,,,,,,,,,PF,3,strong,,,,,,,,5,1.584535,,,,,,,,,,,,,,,,,,,,,,,,,,,,5,strong,65.26471412,-35.90620983,1,0,0,response3disk,9,32,26.21678424,-6.382341087,1,0,0,rectangle,26.21678424,-6.382341087,1,0,0,1,0,0.00073,26.21678424,-6.382341087,1,0,0,0,31,31,61,1,0,,,,,,,,,,,,,,,,,,,,,
,,,,,,,,,,,,,,,,,,,,,,,,,,,,,,,,,,,,,,,,,,5f8efea0c0c62e0e48ff6b3e,606a12c661f9541d2dc7cf36,2021-04-04_22h26.33.436,Colour_Similarity_Experiment,2020.2.10,Linux x86_64,60,60675255c767bca6388caeee,17.1119322,16.74784461,16.7691189,16.88113767,16.72303209,16.7691189,,,,,,,,,,,,,,,,,,,,PF,3,weak,,,,,,,,4,1.5522,,,,,,,,,,,,,,,,,,,,,,,,,,,,6,weak,12.88342416,-65.43007857,1,0,0,response3disk,7,33,3.359828053,-20.66808403,1,0,0,rectangle,3.359828053,-20.66808403,1,0,0,1,7,0.00273,3.359828053,-20.66808403,1,0,0,0,32,32,50,1,0,,,,,,,,,,,,,,,,,,,,,
,,,,,,,,,,,,,,,,,,,,,,,,,,,,,,,,,,,,,,,,,,5f8efea0c0c62e0e48ff6b3e,606a12c661f9541d2dc7cf36,2021-04-04_22h26.33.436,Colour_Similarity_Experiment,2020.2.10,Linux x86_64,60,60675255c767bca6388caeee,17.1119322,16.74784461,16.7691189,16.88113767,16.72303209,16.7691189,,,,,,,,,,,,,,,,,,,,PF,3,weak,,,,,,,,6,2.435205,,,,,,,,,,,,,,,,,,,,,,,,,,,,7,weak,66.21709698,27.90344197,1,0,0,response1disk,2,34,25.26440138,-8.287106812,1,0,0,rectangle,25.26440138,-8.287106812,1,0,0,1,1,0.005335,25.26440138,-8.287106812,1,0,0,0,33,33,32,1,0,,,,,,,,,,,,,,,,,,,,,
,,,,,,,,,,,,,,,,,,,,,,,,,,,,,,,,,,,,,,,,,,5f8efea0c0c62e0e48ff6b3e,606a12c661f9541d2dc7cf36,2021-04-04_22h26.33.436,Colour_Similarity_Experiment,2020.2.10,Linux x86_64,60,60675255c767bca6388caeee,17.1119322,16.74784461,16.7691189,16.88113767,16.72303209,16.7691189,,,,,,,,,,,,,,,,,,,,PF,3,weak,,,,,,,,5,1.843255,,,,,,,,,,,,,,,,,,,,,,,,,,,,2,weak,69.07401305,-43.52527273,1,0,0,response3disk,6,35,41.45514256,-3.525308757,1,0,0,rectangle,41.45514256,-3.525308757,1,0,0,1,7,0.004795,41.45514256,-3.525308757,1,0,0,0,34,34,113,1,0,,,,,,,,,,,,,,,,,,,,,
,,,,,,,,,,,,,,,,,,,,,,,,,,,,,,,,,,,,,,,,,,5f8efea0c0c62e0e48ff6b3e,606a12c661f9541d2dc7cf36,2021-04-04_22h26.33.436,Colour_Similarity_Experiment,2020.2.10,Linux x86_64,60,60675255c767bca6388caeee,17.1119322,16.74784461,16.7691189,16.88113767,16.72303209,16.7691189,,,,,,,,,,,,,,,,,,,,PF,3,weak,,,,,,,,3,2.33629,,,,,,,,,,,,,,,,,,,,,,,,,,,,2,weak,-41.40228275,-82.57302822,1,0,0,response5disk,2,36,10.02627558,-3.525308757,1,0,0,rectangle,10.02627558,-3.525308757,1,0,0,1,0,0.003345,10.02627558,-3.525308757,1,0,0,0,35,35,14,1,0,,,,,,,,,,,,,,,,,,,,,
,,,,,,,,,,,,,,,,,,,,,,,,,,,,,,,,,,,,,,,,,,5f8efea0c0c62e0e48ff6b3e,606a12c661f9541d2dc7cf36,2021-04-04_22h26.33.436,Colour_Similarity_Experiment,2020.2.10,Linux x86_64,60,60675255c767bca6388caeee,17.1119322,16.74784461,16.7691189,16.88113767,16.72303209,16.7691189,,,,,,,,,,,,,,,,,,,,PF,3,weak,,,,,,,,6,1.685905,,,,,,,,,,,,,,,,,,,,,,,,,,,,5,weak,70.02639592,21.23676193,1,0,0,response1disk,6,37,22.40725279,-13.04902112,1,0,0,rectangle,22.40725279,-13.04902112,1,0,0,5,5,0.00473,22.40725279,-13.04902112,1,0,0,0,36,36,103,1,0,,,,,,,,,,,,,,,,,,,,,
,,,,,,,,,,,,,,,,,,,,,,,,,,,,,,,,,,,,,,,,,,5f8efea0c0c62e0e48ff6b3e,606a12c661f9541d2dc7cf36,2021-04-04_22h26.33.436,Colour_Similarity_Experiment,2020.2.10,Linux x86_64,60,60675255c767bca6388caeee,17.1119322,16.74784461,16.7691189,16.88113767,16.72303209,16.7691189,,,,,,,,,,,,,,,,,,,,PF,3,strong,,,,,,,,5,3.738525,,,,,,,,,,,,,,,,,,,,,,,,,,,,1,strong,61.45495015,-26.3823812,1,0,0,response3disk,8,38,22.40725279,-3.525308757,1,0,0,rectangle,22.40725279,-3.525308757,1,0,0,5,0,0.005825,22.40725279,-3.525308757,1,0,0,0,37,37,27,1,0,,,,,,,,,,,,,,,,,,,,,
,,,,,,,,,,,,,,,,,,,,,,,,,,,,,,,,,,,,,,,,,,5f8efea0c0c62e0e48ff6b3e,606a12c661f9541d2dc7cf36,2021-04-04_22h26.33.436,Colour_Similarity_Experiment,2020.2.10,Linux x86_64,60,60675255c767bca6388caeee,17.1119322,16.74784461,16.7691189,16.88113767,16.72303209,16.7691189,,,,,,,,,,,,,,,,,,,,PF,3,strong,,,,,,,,6,2.51016,,,,,,,,,,,,,,,,,,,,,,,,,,,,6,strong,65.26471412,24.09391052,1,0,0,response1disk,9,39,34.78823,-8.287106812,1,0,0,rectangle,29.07416534,-65.43007857,1,0,0,4,4,3.65384,24.31201851,-6.382341087,1,0,0,0,38,38,160,1,1,response3disk_3,rectangle,,,,,,,,,,,,,,,,,,,
,,,,,,,,,,,,,,,,,,,,,,,,,,,,,,,,,,,,,,,,,,5f8efea0c0c62e0e48ff6b3e,606a12c661f9541d2dc7cf36,2021-04-04_22h26.33.436,Colour_Similarity_Experiment,2020.2.10,Linux x86_64,60,60675255c767bca6388caeee,17.1119322,16.74784461,16.7691189,16.88113767,16.72303209,16.7691189,,,,,,,,,,,,,,,,,,,,PF,3,weak,,,,,,,,6,1.73609,,,,,,,,,,,,,,,,,,,,,,,,,,,,6,weak,70.02639592,39.33203632,1,0,0,response1disk,8,40,32.88346428,-0.668043911,1,0,0,rectangle,32.88346428,-0.668043911,1,0,0,4,6,0.00258,32.88346428,-0.668043911,1,0,0,0,39,39,64,1,0,,,,,,,,,,,,,,,,,,,,,
,,,,,,,,,,,,,,,,,,,,,,,,,,,,,,,,,,,,,,,,,,5f8efea0c0c62e0e48ff6b3e,606a12c661f9541d2dc7cf36,2021-04-04_22h26.33.436,Colour_Similarity_Experiment,2020.2.10,Linux x86_64,60,60675255c767bca6388caeee,17.1119322,16.74784461,16.7691189,16.88113767,16.72303209,16.7691189,,,,,,,,,,,,,,,,,,,,PF,3,weak,,,,,,,,5,2.7819,,,,,,,,,,,,,,,,,,,,,,,,,,,,8,weak,49.07397294,-27.33488032,1,0,0,response3disk,4,41,30.0265482,0.284338951,1,0,0,rectangle,30.0265482,0.284338951,1,0,0,4,7,0.003055,30.0265482,0.284338951,1,0,0,0,40,40,78,1,0,,,,,,,,,,,,,,,,,,,,,
,,,,,,,,,,,,,,,,,,,,,,,,,,,,,,,,,,,,,,,,,,5f8efea0c0c62e0e48ff6b3e,606a12c661f9541d2dc7cf36,2021-04-04_22h26.33.436,Colour_Similarity_Experiment,2020.2.10,Linux x86_64,60,60675255c767bca6388caeee,17.1119322,16.74784461,16.7691189,16.88113767,16.72303209,16.7691189,,,,,,,,,,,,,,,,,,,,PF,3,weak,,,,,,,,6,1.46765,,,,,,,,,,,,,,,,,,,,,,,,,,,,5,weak,49.07397294,31.71285716,1,0,0,response1disk,7,42,36.69299573,5.046253264,1,0,0,rectangle,36.69299573,5.046253264,1,0,0,4,2,0.0026,36.69299573,5.046253264,1,0,0,0,41,41,146,1,0,,,,,,,,,,,,,,,,,,,,,
,,,,,,,,,,,,,,,,,,,,,,,,,,,,,,,,,,,,,,,,,,5f8efea0c0c62e0e48ff6b3e,606a12c661f9541d2dc7cf36,2021-04-04_22h26.33.436,Colour_Similarity_Experiment,2020.2.10,Linux x86_64,60,60675255c767bca6388caeee,17.1119322,16.74784461,16.7691189,16.88113767,16.72303209,16.7691189,,,,,,,,,,,,,,,,,,,,PF,3,weak,,,,,,,,4,1.81895,,,,,,,,,,,,,,,,,,,,,,,,,,,,3,weak,33.83584714,-70.19210914,1,0,0,response3disk,6,43,30.97869855,-13.04902112,1,0,0,rectangle,30.97869855,-13.04902112,1,0,0,5,1,0.004475,30.97869855,-13.04902112,1,0,0,0,42,42,47,1,0,,,,,,,,,,,,,,,,,,,,,
,,,,,,,,,,,,,,,,,,,,,,,,,,,,,,,,,,,,,,,,,,5f8efea0c0c62e0e48ff6b3e,606a12c661f9541d2dc7cf36,2021-04-04_22h26.33.436,Colour_Similarity_Experiment,2020.2.10,Linux x86_64,60,60675255c767bca6388caeee,17.1119322,16.74784461,16.7691189,16.88113767,16.72303209,16.7691189,,,,,,,,,,,,,,,,,,,,PF,3,strong,,,,,,,,6,1.869645,,,,,,,,,,,,,,,,,,,,,,,,,,,,4,strong,54.78838637,27.90344197,1,0,0,response1disk,7,44,36.69299573,-3.525308757,1,0,0,rectangle,36.69299573,-3.525308757,1,0,0,5,2,0.00497,36.69299573,-3.525308757,1,0,0,0,43,43,87,1,0,,,,,,,,,,,,,,,,,,,,,
,,,,,,,,,,,,,,,,,,,,,,,,,,,,,,,,,,,,,,,,,,5f8efea0c0c62e0e48ff6b3e,606a12c661f9541d2dc7cf36,2021-04-04_22h26.33.436,Colour_Similarity_Experiment,2020.2.10,Linux x86_64,60,60675255c767bca6388caeee,17.1119322,16.74784461,16.7691189,16.88113767,16.72303209,16.7691189,,,,,,,,,,,,,,,,,,,,PF,3,strong,,,,,,,,4,1.768885,,,,,,,,,,,,,,,,,,,,,,,,,,,,2,strong,26.21678424,-64.47781196,1,0,0,response3disk,8,45,18.5978376,-10.19198879,1,0,0,rectangle,18.5978376,-10.19198879,1,0,0,5,2,0.000595,18.5978376,-10.19198879,1,0,0,0,44,44,62,1,0,,,,,,,,,,,,,,,,,,,,,
,,,,,,,,,,,,,,,,,,,,,,,,,,,,,,,,,,,,,,,,,,5f8efea0c0c62e0e48ff6b3e,606a12c661f9541d2dc7cf36,2021-04-04_22h26.33.436,Colour_Similarity_Experiment,2020.2.10,Linux x86_64,60,60675255c767bca6388caeee,17.1119322,16.74784461,16.7691189,16.88113767,16.72303209,16.7691189,,,,,,,,,,,,,,,,,,,,PF,3,strong,,,,,,,,6,2.0519,,,,,,,,,,,,,,,,,,,,,,,,,,,,8,strong,45.26444149,18.37961334,1,0,0,response1disk,1,46,40.50275969,-0.668043911,1,0,0,rectangle,40.50275969,-0.668043911,1,0,0,5,6,0.002585,40.50275969,-0.668043911,1,0,0,0,45,45,20,1,0,,,,,,,,,,,,,,,,,,,,,
,,,,,,,,,,,,,,,,,,,,,,,,,,,,,,,,,,,,,,,,,,5f8efea0c0c62e0e48ff6b3e,606a12c661f9541d2dc7cf36,2021-04-04_22h26.33.436,Colour_Similarity_Experiment,2020.2.10,Linux x86_64,60,60675255c767bca6388caeee,17.1119322,16.74784461,16.7691189,16.88113767,16.72303209,16.7691189,,,,,,,,,,,,,,,,,,,,PF,3,strong,,,,,,,,5,2.018735,,,,,,,,,,,,,,,,,,,,,,,,,,,,7,strong,50.0263558,-38.76347467,1,0,0,response3disk,8,47,33.83584714,-13.04902112,1,0,0,rectangle,74.78854275,42.1891849,1,0,0,6,6,2.168445,37.64537859,8.855668457,1,0,0,0,46,46,97,1,1,response1disk_3,rectangle,,,,,,,,,,,,,,,,,,,
,,,,,,,,,,,,,,,,,,,,,,,,,,,,,,,,,,,,,,,,,,5f8efea0c0c62e0e48ff6b3e,606a12c661f9541d2dc7cf36,2021-04-04_22h26.33.436,Colour_Similarity_Experiment,2020.2.10,Linux x86_64,60,60675255c767bca6388caeee,17.1119322,16.74784461,16.7691189,16.88113767,16.72303209,16.7691189,,,,,,,,,,,,,,,,,,,,PF,3,weak,,,,,,,,4,3.520445,,,,,,,,,,,,,,,,,,,,,,,,,,,,5,weak,25.26440138,-52.09683475,1,0,0,response3disk,8,48,6.21697664,-12.09663826,1,0,0,rectangle,6.21697664,-12.09663826,1,0,0,6,0,0.006085,6.21697664,-12.09663826,1,0,0,0,47,47,149,1,0,,,,,,,,,,,,,,,,,,,,,
,,,,,,,,,,,,,,,,,,,,,,,,,,,,,,,,,,,,,,,,,,5f8efea0c0c62e0e48ff6b3e,606a12c661f9541d2dc7cf36,2021-04-04_22h26.33.436,Colour_Similarity_Experiment,2020.2.10,Linux x86_64,60,60675255c767bca6388caeee,17.1119322,16.74784461,16.7691189,16.88113767,16.72303209,16.7691189,,,,,,,,,,,,,,,,,,,,PF,3,strong,,,,,,,,3,3.052225,,,,,,,,,,,,,,,,,,,,,,,,,,,,5,strong,-27.11665606,-49.2395699,1,0,0,response5disk,7,49,24.31201851,2.188988419,1,0,0,rectangle,24.31201851,2.188988419,1,0,0,6,4,0.00392,24.31201851,2.188988419,1,0,0,0,48,48,7,1,0,,,,,,,,,,,,,,,,,,,,,
,,,,,,,,,,,,,,,,,,,,,,,,,,,,,,,,,,,,,,,,,,5f8efea0c0c62e0e48ff6b3e,606a12c661f9541d2dc7cf36,2021-04-04_22h26.33.436,Colour_Similarity_Experiment,2020.2.10,Linux x86_64,60,60675255c767bca6388caeee,17.1119322,16.74784461,16.7691189,16.88113767,16.72303209,16.7691189,,,,,,,,,,,,,,,,,,,,PF,3,weak,,,,,,,,5,4.488415,,,,,,,,,,,,,,,,,,,,,,,,,,,,5,weak,67.16924733,-34.95388509,1,0,0,response3disk,9,50,39.55037683,-6.382341087,1,0,0,rectangle,59.55018443,28.85582483,1,0,0,6,6,2.170865,30.97869855,1.236605556,1,0,0,0,49,49,136,1,1,response1disk_3,rectangle,,,,,,,,,,,,,,,,,,,
,,,,,,,,,,,,,,,,,,,,,,,,,,,,,,,,,,,,,,,,,,5f8efea0c0c62e0e48ff6b3e,606a12c661f9541d2dc7cf36,2021-04-04_22h26.33.436,Colour_Similarity_Experiment,2020.2.10,Linux x86_64,60,60675255c767bca6388caeee,17.1119322,16.74784461,16.7691189,16.88113767,16.72303209,16.7691189,,,,,,,,,,,,,,,,,,,,PF,3,weak,,,,,,,,5,1.41876,,,,,,,,,,,,,,,,,,,,,,,,,,,,4,weak,50.97897118,-32.09667838,1,0,0,response3disk,7,51,36.69299573,-2.572809637,1,0,0,rectangle,36.69299573,-2.572809637,1,0,0,6,0,0.004265,36.69299573,-2.572809637,1,0,0,0,50,50,38,1,0,,,,,,,,,,,,,,,,,,,,,
,,,,,,,,,,,,,,,,,,,,,,,,,,,,,,,,,,,,,,,,,,5f8efea0c0c62e0e48ff6b3e,606a12c661f9541d2dc7cf36,2021-04-04_22h26.33.436,Colour_Similarity_Experiment,2020.2.10,Linux x86_64,60,60675255c767bca6388caeee,17.1119322,16.74784461,16.7691189,16.88113767,16.72303209,16.7691189,,,,,,,,,,,,,,,,,,,,PF,3,strong,,,,,,,,3,2.168845,,,,,,,,,,,,,,,,,,,,,,,,,,,,9,strong,-21.40235889,-52.09683475,1,0,0,response5disk,5,52,32.88346428,-3.525308757,1,0,0,rectangle,32.88346428,-3.525308757,1,0,0,6,4,0.00286,32.88346428,-3.525308757,1,0,0,0,51,51,128,1,0,,,,,,,,,,,,,,,,,,,,,
,,,,,,,,,,,,,,,,,,,,,,,,,,,,,,,,,,,,,,,,,,5f8efea0c0c62e0e48ff6b3e,606a12c661f9541d2dc7cf36,2021-04-04_22h26.33.436,Colour_Similarity_Experiment,2020.2.10,Linux x86_64,60,60675255c767bca6388caeee,17.1119322,16.74784461,16.7691189,16.88113767,16.72303209,16.7691189,,,,,,,,,,,,,,,,,,,,PF,3,weak,,,,,,,,4,1.767915,,,,,,,,,,,,,,,,,,,,,,,,,,,,5,weak,25.26440138,-47.33480418,1,0,0,response3disk,3,53,29.07416534,5.046253264,1,0,0,rectangle,29.07416534,5.046253264,1,0,0,6,4,0.000515,29.07416534,5.046253264,1,0,0,0,52,52,109,1,0,,,,,,,,,,,,,,,,,,,,,
,,,,,,,,,,,,,,,,,,,,,,,,,,,,,,,,,,,,,,,,,,5f8efea0c0c62e0e48ff6b3e,606a12c661f9541d2dc7cf36,2021-04-04_22h26.33.436,Colour_Similarity_Experiment,2020.2.10,Linux x86_64,60,60675255c767bca6388caeee,17.1119322,16.74784461,16.7691189,16.88113767,16.72303209,16.7691189,,,,,,,,,,,,,,,,,,,,PF,3,weak,,,,,,,,6,3.65386,,,,,,,,,,,,,,,,,,,,,,,,,,,,4,weak,48.12159008,36.47488773,1,0,0,response1disk,2,54,3.359828053,-11.1442554,1,0,0,rectangle,3.359828053,-11.1442554,1,0,0,6,0,0.00299,3.359828053,-11.1442554,1,0,0,0,53,53,108,1,0,,,,,,,,,,,,,,,,,,,,,
,,,,,,,,,,,,,,,,,,,,,,,,,,,,,,,,,,,,,,,,,,5f8efea0c0c62e0e48ff6b3e,606a12c661f9541d2dc7cf36,2021-04-04_22h26.33.436,Colour_Similarity_Experiment,2020.2.10,Linux x86_64,60,60675255c767bca6388caeee,17.1119322,16.74784461,16.7691189,16.88113767,16.72303209,16.7691189,,,,,,,,,,,,,,,,,,,,PF,3,strong,,,,,,,,2,1.41892,,,,,,,,,,,,,,,,,,,,,,,,,,,,4,strong,-57.59290767,-31.14429551,1,0,0,response5disk,4,55,-0.449935913,-5.429958224,1,0,0,rectangle,-0.449935913,-5.429958224,1,0,0,6,7,0.00355,-0.449935913,-5.429958224,1,0,0,0,54,54,84,1,0,,,,,,,,,,,,,,,,,,,,,
,,,,,,,,,,,,,,,,,,,,,,,,,,,,,,,,,,,,,,,,,,5f8efea0c0c62e0e48ff6b3e,606a12c661f9541d2dc7cf36,2021-04-04_22h26.33.436,Colour_Similarity_Experiment,2020.2.10,Linux x86_64,60,60675255c767bca6388caeee,17.1119322,16.74784461,16.7691189,16.88113767,16.72303209,16.7691189,,,,,,,,,,,,,,,,,,,,PF,3,strong,,,,,,,,3,1.134365,,,,,,,,,,,,,,,,,,,,,,,,,,,,9,strong,-25.21189034,-50.19195276,1,0,0,response5disk,7,56,3.359828053,-13.04902112,1,0,0,rectangle,3.359828053,-13.04902112,1,0,0,6,5,0.002975,3.359828053,-13.04902112,1,0,0,0,55,55,100,1,0,,,,,,,,,,,,,,,,,,,,,
,,,,,,,,,,,,,,,,,,,,,,,,,,,,,,,,,,,,,,,,,,5f8efea0c0c62e0e48ff6b3e,606a12c661f9541d2dc7cf36,2021-04-04_22h26.33.436,Colour_Similarity_Experiment,2020.2.10,Linux x86_64,60,60675255c767bca6388caeee,17.1119322,16.74784461,16.7691189,16.88113767,16.72303209,16.7691189,,,,,,,,,,,,,,,,,,,,PF,3,weak,,,,,,,,4,2.102885,,,,,,,,,,,,,,,,,,,,,,,,,,,,6,weak,29.07416534,-53.04910135,1,0,0,response3disk,2,57,29.07416534,-6.382341087,1,0,0,rectangle,29.07416534,-6.382341087,1,0,0,6,4,0.004845,29.07416534,-6.382341087,1,0,0,0,56,56,130,1,0,,,,,,,,,,,,,,,,,,,,,
,,,,,,,,,,,,,,,,,,,,,,,,,,,,,,,,,,,,,,,,,,5f8efea0c0c62e0e48ff6b3e,606a12c661f9541d2dc7cf36,2021-04-04_22h26.33.436,Colour_Similarity_Experiment,2020.2.10,Linux x86_64,60,60675255c767bca6388caeee,17.1119322,16.74784461,16.7691189,16.88113767,16.72303209,16.7691189,,,,,,,,,,,,,,,,,,,,PF,3,strong,,,,,,,,5,5.054975,,,,,,,,,,,,,,,,,,,,,,,,,,,,3,strong,50.97897118,-34.95388509,1,0,0,response3disk,3,58,10.02627558,-8.287106812,1,0,0,rectangle,10.02627558,-8.287106812,1,0,0,6,3,0.007665,10.02627558,-8.287106812,1,0,0,0,57,57,68,1,0,,,,,,,,,,,,,,,,,,,,,
,,,,,,,,,,,,,,,,,,,,,,,,,,,,,,,,,,,,,,,,,,5f8efea0c0c62e0e48ff6b3e,606a12c661f9541d2dc7cf36,2021-04-04_22h26.33.436,Colour_Similarity_Experiment,2020.2.10,Linux x86_64,60,60675255c767bca6388caeee,17.1119322,16.74784461,16.7691189,16.88113767,16.72303209,16.7691189,,,,,,,,,,,,,,,,,,,,PF,3,weak,,,,,,,,6,1.70182,,,,,,,,,,,,,,,,,,,,,,,,,,,,3,weak,48.12159008,25.99855998,1,0,0,response1disk,5,59,29.07416534,-8.287106812,1,0,0,rectangle,29.07416534,-8.287106812,1,0,0,6,7,0.00332,29.07416534,-8.287106812,1,0,0,0,58,58,66,1,0,,,,,,,,,,,,,,,,,,,,,
,,,,,,,,,,,,,,,,,,,,,,,,,,,,,,,,,,,,,,,,,,5f8efea0c0c62e0e48ff6b3e,606a12c661f9541d2dc7cf36,2021-04-04_22h26.33.436,Colour_Similarity_Experiment,2020.2.10,Linux x86_64,60,60675255c767bca6388caeee,17.1119322,16.74784461,16.7691189,16.88113767,16.72303209,16.7691189,,,,,,,,,,,,,,,,,,,,PF,3,strong,,,,,,,,6,2.20335,,,,,,,,,,,,,,,,,,,,,,,,,,,,8,strong,51.93135404,24.09391052,1,0,0,response1disk,4,60,24.31201851,-6.382341087,1,0,0,rectangle,24.31201851,-6.382341087,1,0,0,6,1,0.002825,24.31201851,-6.382341087,1,0,0,0,59,59,88,1,0,,,,,,,,,,,,,,,,,,,,,
,,,,,,,,,,,,,,,,,,,,,,,,,,,,,,,,,,,,,,,,,,5f8efea0c0c62e0e48ff6b3e,606a12c661f9541d2dc7cf36,2021-04-04_22h26.33.436,Colour_Similarity_Experiment,2020.2.10,Linux x86_64,60,60675255c767bca6388caeee,17.1119322,16.74784461,16.7691189,16.88113767,16.72303209,16.7691189,,,,,,,,,,,,,,,,,,,,PF,3,weak,,,,,,,,6,1.586165,,,,,,,,,,,,,,,,,,,,,,,,,,,,9,weak,63.35994839,38.3795372,1,0,0,response1disk,1,61,37.64537859,-0.668043911,1,0,0,rectangle,37.64537859,-0.668043911,1,0,0,6,2,0.00974,37.64537859,-0.668043911,1,0,0,0,60,60,74,1,0,,,,,,,,,,,,,,,,,,,,,
,,,,,,,,,,,,,,,,,,,,,,,,,,,,,,,,,,,,,,,,,,5f8efea0c0c62e0e48ff6b3e,606a12c661f9541d2dc7cf36,2021-04-04_22h26.33.436,Colour_Similarity_Experiment,2020.2.10,Linux x86_64,60,60675255c767bca6388caeee,17.1119322,16.74784461,16.7691189,16.88113767,16.72303209,16.7691189,,,,,,,,,,,,,,,,,,,,PF,3,strong,,,,,,,,6,1.41833,,,,,,,,,,,,,,,,,,,,,,,,,,,,3,strong,55.74065298,47.90348208,1,0,0,response1disk,5,62,32.88346428,4.093870401,1,0,0,rectangle,32.88346428,4.093870401,1,0,0,6,2,0.000495,32.88346428,4.093870401,1,0,0,0,61,61,101,1,0,,,,,,,,,,,,,,,,,,,,,
,,,,,,,,,,,,,,,,,,,,,,,,,,,,,,,,,,,,,,,,,,5f8efea0c0c62e0e48ff6b3e,606a12c661f9541d2dc7cf36,2021-04-04_22h26.33.436,Colour_Similarity_Experiment,2020.2.10,Linux x86_64,60,60675255c767bca6388caeee,17.1119322,16.74784461,16.7691189,16.88113767,16.72303209,16.7691189,,,,,,,,,,,,,,,,,,,,PF,3,strong,,,,,,,,5,2.086615,,,,,,,,,,,,,,,,,,,,,,,,,,,,3,strong,39.55037683,-14.00140399,1,0,0,response3disk,6,63,26.21678424,5.046253264,1,0,0,rectangle,26.21678424,5.046253264,1,0,0,6,5,0.004045,26.21678424,5.046253264,1,0,0,0,62,62,95,1,0,,,,,,,,,,,,,,,,,,,,,
,,,,,,,,,,,,,,,,,,,,,,,,,,,,,,,,,,,,,,,,,,5f8efea0c0c62e0e48ff6b3e,606a12c661f9541d2dc7cf36,2021-04-04_22h26.33.436,Colour_Similarity_Experiment,2020.2.10,Linux x86_64,60,60675255c767bca6388caeee,17.1119322,16.74784461,16.7691189,16.88113767,16.72303209,16.7691189,,,,,,,,,,,,,,,,,,,,PF,3,strong,,,,,,,,6,1.885255,,,,,,,,,,,,,,,,,,,,,,,,,,,,6,strong,43.35967577,19.33187994,1,0,0,response1disk,5,64,29.07416534,0.284338951,1,0,0,rectangle,29.07416534,0.284338951,1,0,0,6,3,0.002175,29.07416534,0.284338951,1,0,0,0,63,63,126,1,0,,,,,,,,,,,,,,,,,,,,,
,,,,,,,,,,,,,,,,,,,,,,,,,,,,,,,,,,,,,,,,,,5f8efea0c0c62e0e48ff6b3e,606a12c661f9541d2dc7cf36,2021-04-04_22h26.33.436,Colour_Similarity_Experiment,2020.2.10,Linux x86_64,60,60675255c767bca6388caeee,17.1119322,16.74784461,16.7691189,16.88113767,16.72303209,16.7691189,,,,,,,,,,,,,,,,,,,,PF,3,weak,,,,,,,,4,2.85609,,,,,,,,,,,,,,,,,,,,,,,,,,,,1,weak,32.88346428,-56.85874906,1,0,0,response3disk,7,65,26.21678424,-11.1442554,1,0,0,rectangle,26.21678424,-11.1442554,1,0,0,6,2,0.00262,26.21678424,-11.1442554,1,0,0,0,64,64,150,1,0,,,,,,,,,,,,,,,,,,,,,
,,,,,,,,,,,,,,,,,,,,,,,,,,,,,,,,,,,,,,,,,,5f8efea0c0c62e0e48ff6b3e,606a12c661f9541d2dc7cf36,2021-04-04_22h26.33.436,Colour_Similarity_Experiment,2020.2.10,Linux x86_64,60,60675255c767bca6388caeee,17.1119322,16.74784461,16.7691189,16.88113767,16.72303209,16.7691189,,,,,,,,,,,,,,,,,,,,PF,3,weak,,,,,,,,6,1.60315,,,,,,,,,,,,,,,,,,,,,,,,,,,,9,weak,54.78838637,17.42723048,1,0,0,response1disk,6,66,30.0265482,-2.572809637,1,0,0,rectangle,30.0265482,-2.572809637,1,0,0,6,2,0.000535,30.0265482,-2.572809637,1,0,0,0,65,65,148,1,0,,,,,,,,,,,,,,,,,,,,,
,,,,,,,,,,,,,,,,,,,,,,,,,,,,,,,,,,,,,,,,,,5f8efea0c0c62e0e48ff6b3e,606a12c661f9541d2dc7cf36,2021-04-04_22h26.33.436,Colour_Similarity_Experiment,2020.2.10,Linux x86_64,60,60675255c767bca6388caeee,17.1119322,16.74784461,16.7691189,16.88113767,16.72303209,16.7691189,,,,,,,,,,,,,,,,,,,,PF,3,weak,,,,,,,,6,1.88618,,,,,,,,,,,,,,,,,,,,,,,,,,,,3,weak,47.16920722,17.42723048,1,0,0,response1disk,1,67,29.07416534,-4.477691619,1,0,0,rectangle,29.07416534,-4.477691619,1,0,0,6,4,0.00462,29.07416534,-4.477691619,1,0,0,0,66,66,96,1,0,,,,,,,,,,,,,,,,,,,,,
,,,,,,,,,,,,,,,,,,,,,,,,,,,,,,,,,,,,,,,,,,5f8efea0c0c62e0e48ff6b3e,606a12c661f9541d2dc7cf36,2021-04-04_22h26.33.436,Colour_Similarity_Experiment,2020.2.10,Linux x86_64,60,60675255c767bca6388caeee,17.1119322,16.74784461,16.7691189,16.88113767,16.72303209,16.7691189,,,,,,,,,,,,,,,,,,,,PF,3,strong,,,,,,,,5,2.18424,,,,,,,,,,,,,,,,,,,,,,,,,,,,7,strong,49.07397294,-18.7633183,1,0,0,response3disk,7,68,35.74061286,-2.572809637,1,0,0,rectangle,35.74061286,-2.572809637,1,0,0,6,0,0.00464,35.74061286,-2.572809637,1,0,0,0,67,67,34,1,0,,,,,,,,,,,,,,,,,,,,,
,,,,,,,,,,,,,,,,,,,,,,,,,,,,,,,,,,,,,,,,,,5f8efea0c0c62e0e48ff6b3e,606a12c661f9541d2dc7cf36,2021-04-04_22h26.33.436,Colour_Similarity_Experiment,2020.2.10,Linux x86_64,60,60675255c767bca6388caeee,17.1119322,16.74784461,16.7691189,16.88113767,16.72303209,16.7691189,,,,,,,,,,,,,,,,,,,,PF,3,strong,,,,,,,,6,1.38401,,,,,,,,,,,,,,,,,,,,,,,,,,,,9,strong,39.55037683,22.18914479,1,0,0,response1disk,6,69,34.78823,-1.620426774,1,0,0,rectangle,34.78823,-1.620426774,1,0,0,6,1,0.002885,34.78823,-1.620426774,1,0,0,0,68,68,117,1,0,,,,,,,,,,,,,,,,,,,,,
,,,,,,,,,,,,,,,,,,,,,,,,,,,,,,,,,,,,,,,,,,5f8efea0c0c62e0e48ff6b3e,606a12c661f9541d2dc7cf36,2021-04-04_22h26.33.436,Colour_Similarity_Experiment,2020.2.10,Linux x86_64,60,60675255c767bca6388caeee,17.1119322,16.74784461,16.7691189,16.88113767,16.72303209,16.7691189,,,,,,,,,,,,,,,,,,,,PF,3,weak,,,,,,,,4,2.10282,,,,,,,,,,,,,,,,,,,,,,,,,,,,8,weak,23.35963565,-48.28718704,1,0,0,response3disk,2,70,7.169126987,-14.00140399,1,0,0,rectangle,7.169126987,-14.00140399,1,0,0,6,3,0.00377,7.169126987,-14.00140399,1,0,0,0,69,69,83,1,0,,,,,,,,,,,,,,,,,,,,,
,,,,,,,,,,,,,,,,,,,,,,,,,,,,,,,,,,,,,,,,,,5f8efea0c0c62e0e48ff6b3e,606a12c661f9541d2dc7cf36,2021-04-04_22h26.33.436,Colour_Similarity_Experiment,2020.2.10,Linux x86_64,60,60675255c767bca6388caeee,17.1119322,16.74784461,16.7691189,16.88113767,16.72303209,16.7691189,,,,,,,,,,,,,,,,,,,,PF,3,weak,,,,,,,,6,2.53036,,,,,,,,,,,,,,,,,,,,,,,,,,,,4,weak,50.0263558,21.23676193,1,0,0,response1disk,6,71,30.0265482,-5.429958224,1,0,0,rectangle,30.0265482,-5.429958224,1,0,0,6,3,0.00023,30.0265482,-5.429958224,1,0,0,0,70,70,120,1,0,,,,,,,,,,,,,,,,,,,,,
,,,,,,,,,,,,,,,,,,,,,,,,,,,,,,,,,,,,,,,,,,5f8efea0c0c62e0e48ff6b3e,606a12c661f9541d2dc7cf36,2021-04-04_22h26.33.436,Colour_Similarity_Experiment,2020.2.10,Linux x86_64,60,60675255c767bca6388caeee,17.1119322,16.74784461,16.7691189,16.88113767,16.72303209,16.7691189,,,,,,,,,,,,,,,,,,,,PF,3,weak,,,,,,,,6,1.199355,,,,,,,,,,,,,,,,,,,,,,,,,,,,9,weak,42.40740916,13.61758277,1,0,0,response1disk,3,72,39.55037683,0.284338951,1,0,0,rectangle,39.55037683,0.284338951,1,0,0,6,5,0.00141,39.55037683,0.284338951,1,0,0,0,71,71,119,1,0,,,,,,,,,,,,,,,,,,,,,
,,,,,,,,,,,,,,,,,,,,,,,,,,,,,,,,,,,,,,,,,,5f8efea0c0c62e0e48ff6b3e,606a12c661f9541d2dc7cf36,2021-04-04_22h26.33.436,Colour_Similarity_Experiment,2020.2.10,Linux x86_64,60,60675255c767bca6388caeee,17.1119322,16.74784461,16.7691189,16.88113767,16.72303209,16.7691189,,,,,,,,,,,,,,,,,,,,PF,3,strong,,,,,,,,5,1.166825,,,,,,,,,,,,,,,,,,,,,,,,,,,,2,strong,46.21682435,-33.0491775,1,0,0,response3disk,4,73,44.31205863,3.141487539,1,0,0,rectangle,44.31205863,3.141487539,1,0,0,6,6,0.00459,44.31205863,3.141487539,1,0,0,0,72,72,145,1,0,,,,,,,,,,,,,,,,,,,,,
,,,,,,,,,,,,,,,,,,,,,,,,,,,,,,,,,,,,,,,,,,5f8efea0c0c62e0e48ff6b3e,606a12c661f9541d2dc7cf36,2021-04-04_22h26.33.436,Colour_Similarity_Experiment,2020.2.10,Linux x86_64,60,60675255c767bca6388caeee,17.1119322,16.74784461,16.7691189,16.88113767,16.72303209,16.7691189,,,,,,,,,,,,,,,,,,,,PF,3,strong,,,,,,,,6,2.02144,,,,,,,,,,,,,,,,,,,,,,,,,,,,9,strong,83.35975599,13.61758277,1,0,0,response1disk,2,74,25.26440138,-14.95390311,1,0,0,rectangle,76.69330847,41.23680204,1,0,0,6,6,2.41781,34.78823,10.76055044,1,0,0,0,73,73,11,1,1,response1disk_3,rectangle,,,,,,,,,,,,,,,,,,,
,,,,,,,,,,,,,,,,,,,,,,,,,,,,,,,,,,,,,,,,,,5f8efea0c0c62e0e48ff6b3e,606a12c661f9541d2dc7cf36,2021-04-04_22h26.33.436,Colour_Similarity_Experiment,2020.2.10,Linux x86_64,60,60675255c767bca6388caeee,17.1119322,16.74784461,16.7691189,16.88113767,16.72303209,16.7691189,,,,,,,,,,,,,,,,,,,,PF,3,strong,,,,,,,,4,1.95917,,,,,,,,,,,,,,,,,,,,,,,,,,,,2,strong,20.50248706,-41.620507,1,0,0,response3disk,3,75,5.264593778,-7.334723949,1,0,0,rectangle,-29.02130553,70.76067078,1,0,0,0,0,1.700005,-11.87853026,15.52246475,1,0,0,0,74,74,104,1,1,response7disk_3,rectangle,,,,,,,,,,,,,,,,,,,
,,,,,,,,,,,,,,,,,,,,,,,,,,,,,,,,,,,,,,,,,,5f8efea0c0c62e0e48ff6b3e,606a12c661f9541d2dc7cf36,2021-04-04_22h26.33.436,Colour_Similarity_Experiment,2020.2.10,Linux x86_64,60,60675255c767bca6388caeee,17.1119322,16.74784461,16.7691189,16.88113767,16.72303209,16.7691189,,,,,,,,,,,,,,,,,,,,PF,3,weak,,,,,,,,3,1.36803,,,,,,,,,,,,,,,,,,,,,,,,,,,,4,weak,-19.49736065,-51.14445189,1,0,0,response5disk,3,76,10.02627558,-4.477691619,1,0,0,rectangle,10.02627558,-4.477691619,1,0,0,0,1,0.00197,10.02627558,-4.477691619,1,0,0,0,75,75,89,1,0,,,,,,,,,,,,,,,,,,,,,
,,,,,,,,,,,,,,,,,,,,,,,,,,,,,,,,,,,,,,,,,,5f8efea0c0c62e0e48ff6b3e,606a12c661f9541d2dc7cf36,2021-04-04_22h26.33.436,Colour_Similarity_Experiment,2020.2.10,Linux x86_64,60,60675255c767bca6388caeee,17.1119322,16.74784461,16.7691189,16.88113767,16.72303209,16.7691189,,,,,,,,,,,,,,,,,,,,PF,3,strong,,,,,,,,5,1.40283,,,,,,,,,,,,,,,,,,,,,,,,,,,,2,strong,67.16924733,-37.81097555,1,0,0,response3disk,1,77,24.31201851,-5.429958224,1,0,0,rectangle,24.31201851,-5.429958224,1,0,0,0,0,0.00326,24.31201851,-5.429958224,1,0,0,0,76,76,85,1,0,,,,,,,,,,,,,,,,,,,,,
,,,,,,,,,,,,,,,,,,,,,,,,,,,,,,,,,,,,,,,,,,5f8efea0c0c62e0e48ff6b3e,606a12c661f9541d2dc7cf36,2021-04-04_22h26.33.436,Colour_Similarity_Experiment,2020.2.10,Linux x86_64,60,60675255c767bca6388caeee,17.1119322,16.74784461,16.7691189,16.88113767,16.72303209,16.7691189,,,,,,,,,,,,,,,,,,,,PF,3,weak,,,,,,,,3,3.336525,,,,,,,,,,,,,,,,,,,,,,,,,,,,3,weak,-25.21189034,-65.43007857,1,0,0,response5disk,2,78,17.64557099,-12.09663826,1,0,0,rectangle,-68.06888664,29.80820769,1,0,0,1,1,1.68633,9.073892713,8.855668457,1,0,0,0,77,77,36,1,1,response7disk_3,rectangle,,,,,,,,,,,,,,,,,,,
,,,,,,,,,,,,,,,,,,,,,,,,,,,,,,,,,,,,,,,,,,5f8efea0c0c62e0e48ff6b3e,606a12c661f9541d2dc7cf36,2021-04-04_22h26.33.436,Colour_Similarity_Experiment,2020.2.10,Linux x86_64,60,60675255c767bca6388caeee,17.1119322,16.74784461,16.7691189,16.88113767,16.72303209,16.7691189,,,,,,,,,,,,,,,,,,,,PF,3,strong,,,,,,,,2,1.55161,,,,,,,,,,,,,,,,,,,,,,,,,,,,3,strong,-83.30724496,-33.0491775,1,0,0,response5disk,4,79,-23.30712461,-8.287106812,1,0,0,rectangle,-23.30712461,-8.287106812,1,0,0,1,0,0.002595,-23.30712461,-8.287106812,1,0,0,0,78,78,110,1,0,,,,,,,,,,,,,,,,,,,,,
,,,,,,,,,,,,,,,,,,,,,,,,,,,,,,,,,,,,,,,,,,5f8efea0c0c62e0e48ff6b3e,606a12c661f9541d2dc7cf36,2021-04-04_22h26.33.436,Colour_Similarity_Experiment,2020.2.10,Linux x86_64,60,60675255c767bca6388caeee,17.1119322,16.74784461,16.7691189,16.88113767,16.72303209,16.7691189,,,,,,,,,,,,,,,,,,,,PF,3,weak,,,,,,,,2,1.451895,,,,,,,,,,,,,,,,,,,,,,,,,,,,4,weak,-53.7831437,-24.47761548,1,0,0,response5disk,4,80,-15.68806171,-9.239605932,1,0,0,rectangle,-15.68806171,-9.239605932,1,0,0,1,4,0.00292,-15.68806171,-9.239605932,1,0,0,0,79,79,70,1,0,,,,,,,,,,,,,,,,,,,,,
,,,,,,,,,,,,,,,,,,,,,,,,,,,,,,,,,,,,,,,,,,5f8efea0c0c62e0e48ff6b3e,606a12c661f9541d2dc7cf36,2021-04-04_22h26.33.436,Colour_Similarity_Experiment,2020.2.10,Linux x86_64,60,60675255c767bca6388caeee,17.1119322,16.74784461,16.7691189,16.88113767,16.72303209,16.7691189,,,,,,,,,,,,,,,,,,,,PF,3,strong,,,,,,,,4,1.51894,,,,,,,,,,,,,,,,,,,,,,,,,,,,8,strong,27.16939962,-61.62054712,1,0,0,response3disk,9,81,6.21697664,-13.04902112,1,0,0,rectangle,6.21697664,-13.04902112,1,0,0,1,3,0.00336,6.21697664,-13.04902112,1,0,0,0,80,80,105,1,0,,,,,,,,,,,,,,,,,,,,,
,,,,,,,,,,,,,,,,,,,,,,,,,,,,,,,,,,,,,,,,,,5f8efea0c0c62e0e48ff6b3e,606a12c661f9541d2dc7cf36,2021-04-04_22h26.33.436,Colour_Similarity_Experiment,2020.2.10,Linux x86_64,60,60675255c767bca6388caeee,17.1119322,16.74784461,16.7691189,16.88113767,16.72303209,16.7691189,,,,,,,,,,,,,,,,,,,,PF,3,strong,,,,,,,,5,1.535625,,,,,,,,,,,,,,,,,,,,,,,,,,,,1,strong,32.88346428,-21.62058315,1,0,0,response3disk,7,82,0.502446949,-1.620426774,1,0,0,rectangle,0.502446949,-1.620426774,1,0,0,1,2,0.003115,0.502446949,-1.620426774,1,0,0,0,81,81,137,1,0,,,,,,,,,,,,,,,,,,,,,
,,,,,,,,,,,,,,,,,,,,,,,,,,,,,,,,,,,,,,,,,,5f8efea0c0c62e0e48ff6b3e,606a12c661f9541d2dc7cf36,2021-04-04_22h26.33.436,Colour_Similarity_Experiment,2020.2.10,Linux x86_64,60,60675255c767bca6388caeee,17.1119322,16.74784461,16.7691189,16.88113767,16.72303209,16.7691189,,,,,,,,,,,,,,,,,,,,PF,3,strong,,,,,,,,6,1.285175,,,,,,,,,,,,,,,,,,,,,,,,,,,,2,strong,53.83611977,19.33187994,1,0,0,response1disk,5,83,0.502446949,-9.239605932,1,0,0,rectangle,0.502446949,-9.239605932,1,0,0,1,1,0.00279,0.502446949,-9.239605932,1,0,0,0,82,82,80,1,0,,,,,,,,,,,,,,,,,,,,,
,,,,,,,,,,,,,,,,,,,,,,,,,,,,,,,,,,,,,,,,,,5f8efea0c0c62e0e48ff6b3e,606a12c661f9541d2dc7cf36,2021-04-04_22h26.33.436,Colour_Similarity_Experiment,2020.2.10,Linux x86_64,60,60675255c767bca6388caeee,17.1119322,16.74784461,16.7691189,16.88113767,16.72303209,16.7691189,,,,,,,,,,,,,,,,,,,,PF,3,weak,,,,,,,,4,1.718485,,,,,,,,,,,,,,,,,,,,,,,,,,,,1,weak,28.12178248,-54.00148422,1,0,0,response3disk,2,84,13.83580703,-1.620426774,1,0,0,rectangle,13.83580703,-1.620426774,1,0,0,1,4,0.00294,13.83580703,-1.620426774,1,0,0,0,83,83,24,1,0,,,,,,,,,,,,,,,,,,,,,
,,,,,,,,,,,,,,,,,,,,,,,,,,,,,,,,,,,,,,,,,,5f8efea0c0c62e0e48ff6b3e,606a12c661f9541d2dc7cf36,2021-04-04_22h26.33.436,Colour_Similarity_Experiment,2020.2.10,Linux x86_64,60,60675255c767bca6388caeee,17.1119322,16.74784461,16.7691189,16.88113767,16.72303209,16.7691189,,,,,,,,,,,,,,,,,,,,PF,3,weak,,,,,,,,6,2.619465,,,,,,,,,,,,,,,,,,,,,,,,,,,,2,weak,52.88373691,16.47484761,1,0,0,response1disk,8,85,22.40725279,0.284338951,1,0,0,rectangle,22.40725279,0.284338951,1,0,0,1,4,0.00038,22.40725279,0.284338951,1,0,0,0,84,84,52,1,0,,,,,,,,,,,,,,,,,,,,,
,,,,,,,,,,,,,,,,,,,,,,,,,,,,,,,,,,,,,,,,,,5f8efea0c0c62e0e48ff6b3e,606a12c661f9541d2dc7cf36,2021-04-04_22h26.33.436,Colour_Similarity_Experiment,2020.2.10,Linux x86_64,60,60675255c767bca6388caeee,17.1119322,16.74784461,16.7691189,16.88113767,16.72303209,16.7691189,,,,,,,,,,,,,,,,,,,,PF,3,weak,,,,,,,,5,1.368975,,,,,,,,,,,,,,,,,,,,,,,,,,,,4,weak,40.50275969,-29.23952979,1,0,0,response3disk,9,86,3.359828053,-7.334723949,1,0,0,rectangle,3.359828053,-7.334723949,1,0,0,1,2,0.003155,3.359828053,-7.334723949,1,0,0,0,85,85,75,1,0,,,,,,,,,,,,,,,,,,,,,
,,,,,,,,,,,,,,,,,,,,,,,,,,,,,,,,,,,,,,,,,,5f8efea0c0c62e0e48ff6b3e,606a12c661f9541d2dc7cf36,2021-04-04_22h26.33.436,Colour_Similarity_Experiment,2020.2.10,Linux x86_64,60,60675255c767bca6388caeee,17.1119322,16.74784461,16.7691189,16.88113767,16.72303209,16.7691189,,,,,,,,,,,,,,,,,,,,PF,3,strong,,,,,,,,4,1.67066,,,,,,,,,,,,,,,,,,,,,,,,,,,,2,strong,19.5501042,-48.28718704,1,0,0,response3disk,2,87,14.78818989,-4.477691619,1,0,0,rectangle,14.78818989,-4.477691619,1,0,0,1,6,0.002635,14.78818989,-4.477691619,1,0,0,0,86,86,142,1,0,,,,,,,,,,,,,,,,,,,,,
,,,,,,,,,,,,,,,,,,,,,,,,,,,,,,,,,,,,,,,,,,5f8efea0c0c62e0e48ff6b3e,606a12c661f9541d2dc7cf36,2021-04-04_22h26.33.436,Colour_Similarity_Experiment,2020.2.10,Linux x86_64,60,60675255c767bca6388caeee,17.1119322,16.74784461,16.7691189,16.88113767,16.72303209,16.7691189,,,,,,,,,,,,,,,,,,,,PF,3,strong,,,,,,,,6,3.719945,,,,,,,,,,,,,,,,,,,,,,,,,,,,1,strong,46.21682435,24.09391052,1,0,0,response1disk,2,88,5.264593778,-1.620426774,1,0,0,rectangle,5.264593778,-1.620426774,1,0,0,1,2,0.00243,5.264593778,-1.620426774,1,0,0,0,87,87,2,1,0,,,,,,,,,,,,,,,,,,,,,
,,,,,,,,,,,,,,,,,,,,,,,,,,,,,,,,,,,,,,,,,,5f8efea0c0c62e0e48ff6b3e,606a12c661f9541d2dc7cf36,2021-04-04_22h26.33.436,Colour_Similarity_Experiment,2020.2.10,Linux x86_64,60,60675255c767bca6388caeee,17.1119322,16.74784461,16.7691189,16.88113767,16.72303209,16.7691189,,,,,,,,,,,,,,,,,,,,PF,3,weak,,,,,,,,4,2.06273,,,,,,,,,,,,,,,,,,,,,,,,,,,,1,weak,28.12178248,-50.19195276,1,0,0,response3disk,5,89,18.5978376,4.093870401,1,0,0,rectangle,18.5978376,4.093870401,1,0,0,1,0,0.00239,18.5978376,4.093870401,1,0,0,0,88,88,28,1,0,,,,,,,,,,,,,,,,,,,,,
,,,,,,,,,,,,,,,,,,,,,,,,,,,,,,,,,,,,,,,,,,5f8efea0c0c62e0e48ff6b3e,606a12c661f9541d2dc7cf36,2021-04-04_22h26.33.436,Colour_Similarity_Experiment,2020.2.10,Linux x86_64,60,60675255c767bca6388caeee,17.1119322,16.74784461,16.7691189,16.88113767,16.72303209,16.7691189,,,,,,,,,,,,,,,,,,,,PF,3,strong,,,,,,,,6,1.886665,,,,,,,,,,,,,,,,,,,,,,,,,,,,4,strong,33.83584714,15.52246475,1,0,0,response1disk,6,90,32.88346428,4.093870401,1,0,0,rectangle,32.88346428,4.093870401,1,0,0,1,0,0.00044,32.88346428,4.093870401,1,0,0,0,89,89,122,1,0,,,,,,,,,,,,,,,,,,,,,
,,,,,,,,,,,,,,,,,,,,,,,,,,,,,,,,,,,,,,,,,,5f8efea0c0c62e0e48ff6b3e,606a12c661f9541d2dc7cf36,2021-04-04_22h26.33.436,Colour_Similarity_Experiment,2020.2.10,Linux x86_64,60,60675255c767bca6388caeee,17.1119322,16.74784461,16.7691189,16.88113767,16.72303209,16.7691189,,,,,,,,,,,,,,,,,,,,PF,3,weak,,,,,,,,6,1.20956,,,,,,,,,,,,,,,,,,,,,,,,,,,,3,weak,47.16920722,17.42723048,1,0,0,response1disk,8,91,26.21678424,2.188988419,1,0,0,rectangle,26.21678424,2.188988419,1,0,0,1,5,0.002425,26.21678424,2.188988419,1,0,0,0,90,90,3,1,0,,,,,,,,,,,,,,,,,,,,,
,,,,,,,,,,,,,,,,,,,,,,,,,,,,,,,,,,,,,,,,,,5f8efea0c0c62e0e48ff6b3e,606a12c661f9541d2dc7cf36,2021-04-04_22h26.33.436,Colour_Similarity_Experiment,2020.2.10,Linux x86_64,60,60675255c767bca6388caeee,17.1119322,16.74784461,16.7691189,16.88113767,16.72303209,16.7691189,,,,,,,,,,,,,,,,,,,,PF,3,weak,,,,,,,,6,3.537645,,,,,,,,,,,,,,,,,,,,,,,,,,,,7,weak,63.35994839,21.23676193,1,0,0,response1disk,3,92,19.5501042,1.236605556,1,0,0,rectangle,19.5501042,1.236605556,1,0,0,1,4,0.002585,19.5501042,1.236605556,1,0,0,0,91,91,81,1,0,,,,,,,,,,,,,,,,,,,,,
,,,,,,,,,,,,,,,,,,,,,,,,,,,,,,,,,,,,,,,,,,5f8efea0c0c62e0e48ff6b3e,606a12c661f9541d2dc7cf36,2021-04-04_22h26.33.436,Colour_Similarity_Experiment,2020.2.10,Linux x86_64,60,60675255c767bca6388caeee,17.1119322,16.74784461,16.7691189,16.88113767,16.72303209,16.7691189,,,,,,,,,,,,,,,,,,,,PF,3,weak,,,,,,,,4,2.78559,,,,,,,,,,,,,,,,,,,,,,,,,,,,4,weak,16.69318813,-57.81113192,1,0,0,response3disk,8,93,6.21697664,-2.572809637,1,0,0,rectangle,6.21697664,-2.572809637,1,0,0,1,4,0.000645,6.21697664,-2.572809637,1,0,0,0,92,92,124,1,0,,,,,,,,,,,,,,,,,,,,,
,,,,,,,,,,,,,,,,,,,,,,,,,,,,,,,,,,,,,,,,,,5f8efea0c0c62e0e48ff6b3e,606a12c661f9541d2dc7cf36,2021-04-04_22h26.33.436,Colour_Similarity_Experiment,2020.2.10,Linux x86_64,60,60675255c767bca6388caeee,17.1119322,16.74784461,16.7691189,16.88113767,16.72303209,16.7691189,,,,,,,,,,,,,,,,,,,,PF,3,strong,,,,,,,,7,2.25508,,,,,,,,,,,,,,,,,,,,,,,,,,,,8,strong,32.88346428,58.37969357,1,0,0,response1disk,7,94,25.26440138,-1.620426774,1,0,0,rectangle,25.26440138,-1.620426774,1,0,0,1,5,0.004525,25.26440138,-1.620426774,1,0,0,0,93,93,86,1,0,,,,,,,,,,,,,,,,,,,,,
,,,,,,,,,,,,,,,,,,,,,,,,,,,,,,,,,,,,,,,,,,5f8efea0c0c62e0e48ff6b3e,606a12c661f9541d2dc7cf36,2021-04-04_22h26.33.436,Colour_Similarity_Experiment,2020.2.10,Linux x86_64,60,60675255c767bca6388caeee,17.1119322,16.74784461,16.7691189,16.88113767,16.72303209,16.7691189,,,,,,,,,,,,,,,,,,,,PF,3,strong,,,,,,,,1,2.138115,,,,,,,,,,,,,,,,,,,,,,,,,,,,8,strong,-58.54529053,15.52246475,1,0,0,response7disk,8,95,-29.97357214,-2.572809637,1,0,0,rectangle,-29.97357214,-2.572809637,1,0,0,1,2,0.001675,-29.97357214,-2.572809637,1,0,0,0,94,94,48,1,0,,,,,,,,,,,,,,,,,,,,,
,,,,,,,,,,,,,,,,,,,,,,,,,,,,,,,,,,,,,,,,,,5f8efea0c0c62e0e48ff6b3e,606a12c661f9541d2dc7cf36,2021-04-04_22h26.33.436,Colour_Similarity_Experiment,2020.2.10,Linux x86_64,60,60675255c767bca6388caeee,17.1119322,16.74784461,16.7691189,16.88113767,16.72303209,16.7691189,,,,,,,,,,,,,,,,,,,,PF,3,strong,,,,,,,,5,4.454755,,,,,,,,,,,,,,,,,,,,,,,,,,,,6,strong,51.93135404,-23.52523261,1,0,0,response3disk,3,96,51.93135404,-8.287106812,1,0,0,rectangle,51.93135404,-8.287106812,1,0,0,1,4,0.002755,51.93135404,-8.287106812,1,0,0,0,95,95,21,1,0,,,,,,,,,,,,,,,,,,,,,
,,,,,,,,,,,,,,,,,,,,,,,,,,,,,,,,,,,,,,,,,,5f8efea0c0c62e0e48ff6b3e,606a12c661f9541d2dc7cf36,2021-04-04_22h26.33.436,Colour_Similarity_Experiment,2020.2.10,Linux x86_64,60,60675255c767bca6388caeee,17.1119322,16.74784461,16.7691189,16.88113767,16.72303209,16.7691189,,,,,,,,,,,,,,,,,,,,PF,3,weak,,,,,,,,6,2.635755,,,,,,,,,,,,,,,,,,,,,,,,,,,,9,weak,69.07401305,20.28426281,1,0,0,response1disk,5,97,31.93108141,-4.477691619,1,0,0,rectangle,31.93108141,-4.477691619,1,0,0,1,6,0.00305,31.93108141,-4.477691619,1,0,0,0,96,96,134,1,0,,,,,,,,,,,,,,,,,,,,,
,,,,,,,,,,,,,,,,,,,,,,,,,,,,,,,,,,,,,,,,,,5f8efea0c0c62e0e48ff6b3e,606a12c661f9541d2dc7cf36,2021-04-04_22h26.33.436,Colour_Similarity_Experiment,2020.2.10,Linux x86_64,60,60675255c767bca6388caeee,17.1119322,16.74784461,16.7691189,16.88113767,16.72303209,16.7691189,,,,,,,,,,,,,,,,,,,,PF,3,weak,,,,,,,,6,2.01893,,,,,,,,,,,,,,,,,,,,,,,,,,,,3,weak,66.21709698,22.18914479,1,0,0,response1disk,4,98,34.78823,0.284338951,1,0,0,rectangle,34.78823,0.284338951,1,0,0,1,3,0.00311,34.78823,0.284338951,1,0,0,0,97,97,30,1,0,,,,,,,,,,,,,,,,,,,,,
,,,,,,,,,,,,,,,,,,,,,,,,,,,,,,,,,,,,,,,,,,5f8efea0c0c62e0e48ff6b3e,606a12c661f9541d2dc7cf36,2021-04-04_22h26.33.436,Colour_Similarity_Experiment,2020.2.10,Linux x86_64,60,60675255c767bca6388caeee,17.1119322,16.74784461,16.7691189,16.88113767,16.72303209,16.7691189,,,,,,,,,,,,,,,,,,,,PF,3,weak,,,,,,,,6,2.61824,,,,,,,,,,,,,,,,,,,,,,,,,,,,2,weak,35.74061286,18.37961334,1,0,0,response1disk,5,99,33.83584714,11.7129333,1,0,0,rectangle,33.83584714,11.7129333,1,0,0,1,3,0.000405,33.83584714,11.7129333,1,0,0,0,98,98,147,1,0,,,,,,,,,,,,,,,,,,,,,
,,,,,,,,,,,,,,,,,,,,,,,,,,,,,,,,,,,,,,,,,,5f8efea0c0c62e0e48ff6b3e,606a12c661f9541d2dc7cf36,2021-04-04_22h26.33.436,Colour_Similarity_Experiment,2020.2.10,Linux x86_64,60,60675255c767bca6388caeee,17.1119322,16.74784461,16.7691189,16.88113767,16.72303209,16.7691189,,,,,,,,,,,,,,,,,,,,PF,3,weak,,,,,,,,4,2.00259,,,,,,,,,,,,,,,,,,,,,,,,,,,,7,weak,25.26440138,-54.00148422,1,0,0,response3disk,9,100,12.88342416,-7.334723949,1,0,0,rectangle,12.88342416,-7.334723949,1,0,0,1,4,0.0035,12.88342416,-7.334723949,1,0,0,0,99,99,10,1,0,,,,,,,,,,,,,,,,,,,,,
,,,,,,,,,,,,,,,,,,,,,,,,,,,,,,,,,,,,,,,,,,5f8efea0c0c62e0e48ff6b3e,606a12c661f9541d2dc7cf36,2021-04-04_22h26.33.436,Colour_Similarity_Experiment,2020.2.10,Linux x86_64,60,60675255c767bca6388caeee,17.1119322,16.74784461,16.7691189,16.88113767,16.72303209,16.7691189,,,,,,,,,,,,,,,,,,,,PF,3,weak,,,,,,,,3,1.585395,,,,,,,,,,,,,,,,,,,,,,,,,,,,5,weak,-21.40235889,-42.57288986,1,0,0,response5disk,4,101,3.359828053,-11.1442554,1,0,0,rectangle,3.359828053,-11.1442554,1,0,0,1,2,0.00142,3.359828053,-11.1442554,1,0,0,0,100,100,54,1,0,,,,,,,,,,,,,,,,,,,,,
,,,,,,,,,,,,,,,,,,,,,,,,,,,,,,,,,,,,,,,,,,5f8efea0c0c62e0e48ff6b3e,606a12c661f9541d2dc7cf36,2021-04-04_22h26.33.436,Colour_Similarity_Experiment,2020.2.10,Linux x86_64,60,60675255c767bca6388caeee,17.1119322,16.74784461,16.7691189,16.88113767,16.72303209,16.7691189,,,,,,,,,,,,,,,,,,,,PF,3,weak,,,,,,,,6,2.02078,,,,,,,,,,,,,,,,,,,,,,,,,,,,1,weak,62.40733302,21.23676193,1,0,0,response1disk,3,102,32.88346428,0.284338951,1,0,0,rectangle,32.88346428,0.284338951,1,0,0,1,5,0.00226,32.88346428,0.284338951,1,0,0,0,101,101,1,1,0,,,,,,,,,,,,,,,,,,,,,
,,,,,,,,,,,,,,,,,,,,,,,,,,,,,,,,,,,,,,,,,,5f8efea0c0c62e0e48ff6b3e,606a12c661f9541d2dc7cf36,2021-04-04_22h26.33.436,Colour_Similarity_Experiment,2020.2.10,Linux x86_64,60,60675255c767bca6388caeee,17.1119322,16.74784461,16.7691189,16.88113767,16.72303209,16.7691189,,,,,,,,,,,,,,,,,,,,PF,3,strong,,,,,,,,6,1.234565,,,,,,,,,,,,,,,,,,,,,,,,,,,,9,strong,47.16920722,21.23676193,1,0,0,response1disk,4,103,30.0265482,-5.429958224,1,0,0,rectangle,30.0265482,-5.429958224,1,0,0,1,5,0.000425,30.0265482,-5.429958224,1,0,0,0,102,102,60,1,0,,,,,,,,,,,,,,,,,,,,,
,,,,,,,,,,,,,,,,,,,,,,,,,,,,,,,,,,,,,,,,,,5f8efea0c0c62e0e48ff6b3e,606a12c661f9541d2dc7cf36,2021-04-04_22h26.33.436,Colour_Similarity_Experiment,2020.2.10,Linux x86_64,60,60675255c767bca6388caeee,17.1119322,16.74784461,16.7691189,16.88113767,16.72303209,16.7691189,,,,,,,,,,,,,,,,,,,,PF,3,strong,,,,,,,,6,2.535735,,,,,,,,,,,,,,,,,,,,,,,,,,,,7,strong,42.40740916,25.04623525,1,0,0,response1disk,6,104,20.50248706,5.046253264,1,0,0,rectangle,20.50248706,5.046253264,1,0,0,1,1,0.00292,20.50248706,5.046253264,1,0,0,0,103,103,31,1,0,,,,,,,,,,,,,,,,,,,,,
,,,,,,,,,,,,,,,,,,,,,,,,,,,,,,,,,,,,,,,,,,5f8efea0c0c62e0e48ff6b3e,606a12c661f9541d2dc7cf36,2021-04-04_22h26.33.436,Colour_Similarity_Experiment,2020.2.10,Linux x86_64,60,60675255c767bca6388caeee,17.1119322,16.74784461,16.7691189,16.88113767,16.72303209,16.7691189,,,,,,,,,,,,,,,,,,,,PF,3,strong,,,,,,,,3,14.795955,,,,,,,,,,,,,,,,,,,,,,,,,,,,6,strong,-24.25950748,-35.90620983,1,0,0,response5disk,7,105,9.073892713,-3.525308757,1,0,0,rectangle,9.073892713,-3.525308757,1,0,0,1,0,0.002455,9.073892713,-3.525308757,1,0,0,0,104,104,18,1,0,,,,,,,,,,,,,,,,,,,,,
,,,,,,,,,,,,,,,,,,,,,,,,,,,,,,,,,,,,,,,,,,5f8efea0c0c62e0e48ff6b3e,606a12c661f9541d2dc7cf36,2021-04-04_22h26.33.436,Colour_Similarity_Experiment,2020.2.10,Linux x86_64,60,60675255c767bca6388caeee,17.1119322,16.74784461,16.7691189,16.88113767,16.72303209,16.7691189,,,,,,,,,,,,,,,,,,,,PF,3,weak,,,,,,,,5,4.036815,,,,,,,,,,,,,,,,,,,,,,,,,,,,1,weak,55.74065298,-22.57296601,1,0,0,response3disk,4,106,27.16939962,-2.572809637,1,0,0,rectangle,27.16939962,-2.572809637,1,0,0,1,3,0.00287,27.16939962,-2.572809637,1,0,0,0,105,105,139,1,0,,,,,,,,,,,,,,,,,,,,,
,,,,,,,,,,,,,,,,,,,,,,,,,,,,,,,,,,,,,,,,,,5f8efea0c0c62e0e48ff6b3e,606a12c661f9541d2dc7cf36,2021-04-04_22h26.33.436,Colour_Similarity_Experiment,2020.2.10,Linux x86_64,60,60675255c767bca6388caeee,17.1119322,16.74784461,16.7691189,16.88113767,16.72303209,16.7691189,,,,,,,,,,,,,,,,,,,,PF,3,strong,,,,,,,,4,2.90214,,,,,,,,,,,,,,,,,,,,,,,,,,,,3,strong,19.5501042,-49.2395699,1,0,0,response3disk,7,107,16.69318813,9.808167577,1,0,0,rectangle,16.69318813,9.808167577,1,0,0,1,2,0.00201,16.69318813,9.808167577,1,0,0,0,106,106,118,1,0,,,,,,,,,,,,,,,,,,,,,
,,,,,,,,,,,,,,,,,,,,,,,,,,,,,,,,,,,,,,,,,,5f8efea0c0c62e0e48ff6b3e,606a12c661f9541d2dc7cf36,2021-04-04_22h26.33.436,Colour_Similarity_Experiment,2020.2.10,Linux x86_64,60,60675255c767bca6388caeee,17.1119322,16.74784461,16.7691189,16.88113767,16.72303209,16.7691189,,,,,,,,,,,,,,,,,,,,PF,3,strong,,,,,,,,5,1.76858,,,,,,,,,,,,,,,,,,,,,,,,,,,,4,strong,50.0263558,-27.33488032,1,0,0,response3disk,3,108,32.88346428,-4.477691619,1,0,0,rectangle,32.88346428,-4.477691619,1,0,0,1,4,0.00422,32.88346428,-4.477691619,1,0,0,0,107,107,77,1,0,,,,,,,,,,,,,,,,,,,,,
,,,,,,,,,,,,,,,,,,,,,,,,,,,,,,,,,,,,,,,,,,5f8efea0c0c62e0e48ff6b3e,606a12c661f9541d2dc7cf36,2021-04-04_22h26.33.436,Colour_Similarity_Experiment,2020.2.10,Linux x86_64,60,60675255c767bca6388caeee,17.1119322,16.74784461,16.7691189,16.88113767,16.72303209,16.7691189,,,,,,,,,,,,,,,,,,,,PF,3,strong,,,,,,,,6,1.152025,,,,,,,,,,,,,,,,,,,,,,,,,,,,8,strong,43.35967577,17.42723048,1,0,0,response1disk,6,109,24.31201851,-6.382341087,1,0,0,rectangle,24.31201851,-6.382341087,1,0,0,1,6,0.005095,24.31201851,-6.382341087,1,0,0,0,108,108,37,1,0,,,,,,,,,,,,,,,,,,,,,
,,,,,,,,,,,,,,,,,,,,,,,,,,,,,,,,,,,,,,,,,,5f8efea0c0c62e0e48ff6b3e,606a12c661f9541d2dc7cf36,2021-04-04_22h26.33.436,Colour_Similarity_Experiment,2020.2.10,Linux x86_64,60,60675255c767bca6388caeee,17.1119322,16.74784461,16.7691189,16.88113767,16.72303209,16.7691189,,,,,,,,,,,,,,,,,,,,PF,3,strong,,,,,,,,3,1.55113,,,,,,,,,,,,,,,,,,,,,,,,,,,,3,strong,-27.11665606,-49.2395699,1,0,0,response5disk,2,110,17.64557099,-10.19198879,1,0,0,rectangle,17.64557099,-10.19198879,1,0,0,1,2,0.00282,17.64557099,-10.19198879,1,0,0,0,109,109,93,1,0,,,,,,,,,,,,,,,,,,,,,
,,,,,,,,,,,,,,,,,,,,,,,,,,,,,,,,,,,,,,,,,,5f8efea0c0c62e0e48ff6b3e,606a12c661f9541d2dc7cf36,2021-04-04_22h26.33.436,Colour_Similarity_Experiment,2020.2.10,Linux x86_64,60,60675255c767bca6388caeee,17.1119322,16.74784461,16.7691189,16.88113767,16.72303209,16.7691189,,,,,,,,,,,,,,,,,,,,PF,3,strong,,,,,,,,5,3.56981,,,,,,,,,,,,,,,,,,,,,,,,,,,,4,strong,43.35967577,-20.66808403,1,0,0,response3disk,8,111,36.69299573,-1.620426774,1,0,0,rectangle,36.69299573,-1.620426774,1,0,0,1,2,0.00021,36.69299573,-1.620426774,1,0,0,0,110,110,35,1,0,,,,,,,,,,,,,,,,,,,,,
,,,,,,,,,,,,,,,,,,,,,,,,,,,,,,,,,,,,,,,,,,5f8efea0c0c62e0e48ff6b3e,606a12c661f9541d2dc7cf36,2021-04-04_22h26.33.436,Colour_Similarity_Experiment,2020.2.10,Linux x86_64,60,60675255c767bca6388caeee,17.1119322,16.74784461,16.7691189,16.88113767,16.72303209,16.7691189,,,,,,,,,,,,,,,,,,,,PF,3,strong,,,,,,,,6,1.402125,,,,,,,,,,,,,,,,,,,,,,,,,,,,1,strong,51.93135404,23.14152765,1,0,0,response1disk,9,112,4.312210915,-5.429958224,1,0,0,rectangle,4.312210915,-5.429958224,1,0,0,1,0,0.004495,4.312210915,-5.429958224,1,0,0,0,111,111,123,1,0,,,,,,,,,,,,,,,,,,,,,
,,,,,,,,,,,,,,,,,,,,,,,,,,,,,,,,,,,,,,,,,,5f8efea0c0c62e0e48ff6b3e,606a12c661f9541d2dc7cf36,2021-04-04_22h26.33.436,Colour_Similarity_Experiment,2020.2.10,Linux x86_64,60,60675255c767bca6388caeee,17.1119322,16.74784461,16.7691189,16.88113767,16.72303209,16.7691189,,,,,,,,,,,,,,,,,,,,PF,3,weak,,,,,,,,3,1.018825,,,,,,,,,,,,,,,,,,,,,,,,,,,,6,weak,-30.925955,-39.71585753,1,0,0,response5disk,6,113,-13.78329599,-2.572809637,1,0,0,rectangle,-13.78329599,-2.572809637,1,0,0,1,4,0.003225,-13.78329599,-2.572809637,1,0,0,0,112,112,0,1,0,,,,,,,,,,,,,,,,,,,,,
,,,,,,,,,,,,,,,,,,,,,,,,,,,,,,,,,,,,,,,,,,5f8efea0c0c62e0e48ff6b3e,606a12c661f9541d2dc7cf36,2021-04-04_22h26.33.436,Colour_Similarity_Experiment,2020.2.10,Linux x86_64,60,60675255c767bca6388caeee,17.1119322,16.74784461,16.7691189,16.88113767,16.72303209,16.7691189,,,,,,,,,,,,,,,,,,,,PF,3,weak,,,,,,,,6,1.351,,,,,,,,,,,,,,,,,,,,,,,,,,,,7,weak,45.26444149,23.14152765,1,0,0,response1disk,1,114,30.97869855,2.188988419,1,0,0,rectangle,30.97869855,2.188988419,1,0,0,1,4,0.00048,30.97869855,2.188988419,1,0,0,0,113,113,53,1,0,,,,,,,,,,,,,,,,,,,,,
,,,,,,,,,,,,,,,,,,,,,,,,,,,,,,,,,,,,,,,,,,5f8efea0c0c62e0e48ff6b3e,606a12c661f9541d2dc7cf36,2021-04-04_22h26.33.436,Colour_Similarity_Experiment,2020.2.10,Linux x86_64,60,60675255c767bca6388caeee,17.1119322,16.74784461,16.7691189,16.88113767,16.72303209,16.7691189,,,,,,,,,,,,,,,,,,,,PF,3,strong,,,,,,,,6,1.95347,,,,,,,,,,,,,,,,,,,,,,,,,,,,7,strong,54.78838637,23.14152765,1,0,0,response1disk,9,115,25.26440138,1.236605556,1,0,0,rectangle,25.26440138,1.236605556,1,0,0,1,4,0.0004,25.26440138,1.236605556,1,0,0,0,114,114,155,1,0,,,,,,,,,,,,,,,,,,,,,
,,,,,,,,,,,,,,,,,,,,,,,,,,,,,,,,,,,,,,,,,,5f8efea0c0c62e0e48ff6b3e,606a12c661f9541d2dc7cf36,2021-04-04_22h26.33.436,Colour_Similarity_Experiment,2020.2.10,Linux x86_64,60,60675255c767bca6388caeee,17.1119322,16.74784461,16.7691189,16.88113767,16.72303209,16.7691189,,,,,,,,,,,,,,,,,,,,PF,3,weak,,,,,,,,5,0.98593,,,,,,,,,,,,,,,,,,,,,,,,,,,,8,weak,41.45514256,-22.57296601,1,0,0,response3disk,6,116,6.21697664,-7.334723949,1,0,0,rectangle,-52.8308771,-72.0967586,1,0,0,3,3,2.089995,-11.87853026,-9.239605932,1,0,0,0,115,115,161,1,1,response5disk_3,rectangle,,,,,,,,,,,,,,,,,,,
,,,,,,,,,,,,,,,,,,,,,,,,,,,,,,,,,,,,,,,,,,5f8efea0c0c62e0e48ff6b3e,606a12c661f9541d2dc7cf36,2021-04-04_22h26.33.436,Colour_Similarity_Experiment,2020.2.10,Linux x86_64,60,60675255c767bca6388caeee,17.1119322,16.74784461,16.7691189,16.88113767,16.72303209,16.7691189,,,,,,,,,,,,,,,,,,,,PF,3,strong,,,,,,,,4,4.187115,,,,,,,,,,,,,,,,,,,,,,,,,,,,5,strong,20.50248706,-41.620507,1,0,0,response3disk,5,117,10.02627558,-11.1442554,1,0,0,rectangle,10.02627558,-11.1442554,1,0,0,3,7,0.0024,10.02627558,-11.1442554,1,0,0,0,116,116,19,1,0,,,,,,,,,,,,,,,,,,,,,
,,,,,,,,,,,,,,,,,,,,,,,,,,,,,,,,,,,,,,,,,,5f8efea0c0c62e0e48ff6b3e,606a12c661f9541d2dc7cf36,2021-04-04_22h26.33.436,Colour_Similarity_Experiment,2020.2.10,Linux x86_64,60,60675255c767bca6388caeee,17.1119322,16.74784461,16.7691189,16.88113767,16.72303209,16.7691189,,,,,,,,,,,,,,,,,,,,PF,3,strong,,,,,,,,3,1.61848,,,,,,,,,,,,,,,,,,,,,,,,,,,,2,strong,-31.87833786,-52.09683475,1,0,0,response5disk,9,118,1.454829812,-10.19198879,1,0,0,rectangle,1.454829812,-10.19198879,1,0,0,3,0,0.003185,1.454829812,-10.19198879,1,0,0,0,117,117,72,1,0,,,,,,,,,,,,,,,,,,,,,
,,,,,,,,,,,,,,,,,,,,,,,,,,,,,,,,,,,,,,,,,,5f8efea0c0c62e0e48ff6b3e,606a12c661f9541d2dc7cf36,2021-04-04_22h26.33.436,Colour_Similarity_Experiment,2020.2.10,Linux x86_64,60,60675255c767bca6388caeee,17.1119322,16.74784461,16.7691189,16.88113767,16.72303209,16.7691189,,,,,,,,,,,,,,,,,,,,PF,3,strong,,,,,,,,7,1.9168,,,,,,,,,,,,,,,,,,,,,,,,,,,,1,strong,27.16939962,45.99871635,1,0,0,response1disk,3,119,8.12150985,4.093870401,1,0,0,rectangle,8.12150985,4.093870401,1,0,0,3,0,0.000405,8.12150985,4.093870401,1,0,0,0,118,118,99,1,0,,,,,,,,,,,,,,,,,,,,,
,,,,,,,,,,,,,,,,,,,,,,,,,,,,,,,,,,,,,,,,,,5f8efea0c0c62e0e48ff6b3e,606a12c661f9541d2dc7cf36,2021-04-04_22h26.33.436,Colour_Similarity_Experiment,2020.2.10,Linux x86_64,60,60675255c767bca6388caeee,17.1119322,16.74784461,16.7691189,16.88113767,16.72303209,16.7691189,,,,,,,,,,,,,,,,,,,,PF,3,weak,,,,,,,,5,0.967565,,,,,,,,,,,,,,,,,,,,,,,,,,,,6,weak,46.21682435,-23.52523261,1,0,0,response3disk,4,120,22.40725279,-4.477691619,1,0,0,rectangle,22.40725279,-4.477691619,1,0,0,3,0,0.000395,22.40725279,-4.477691619,1,0,0,0,119,119,33,1,0,,,,,,,,,,,,,,,,,,,,,
,,,,,,,,,,,,,,,,,,,,,,,,,,,,,,,,,,,,,,,,,,5f8efea0c0c62e0e48ff6b3e,606a12c661f9541d2dc7cf36,2021-04-04_22h26.33.436,Colour_Similarity_Experiment,2020.2.10,Linux x86_64,60,60675255c767bca6388caeee,17.1119322,16.74784461,16.7691189,16.88113767,16.72303209,16.7691189,,,,,,,,,,,,,,,,,,,,PF,3,strong,,,,,,,,6,1.386355,,,,,,,,,,,,,,,,,,,,,,,,,,,,5,strong,77.64569133,26.95094285,1,0,0,response1disk,2,121,28.12178248,-9.239605932,1,0,0,rectangle,-92.83107358,41.23680204,1,0,0,1,1,1.93335,15.74080527,-1.620426774,1,0,0,0,120,120,55,1,1,response7disk_3,rectangle,,,,,,,,,,,,,,,,,,,
,,,,,,,,,,,,,,,,,,,,,,,,,,,,,,,,,,,,,,,,,,5f8efea0c0c62e0e48ff6b3e,606a12c661f9541d2dc7cf36,2021-04-04_22h26.33.436,Colour_Similarity_Experiment,2020.2.10,Linux x86_64,60,60675255c767bca6388caeee,17.1119322,16.74784461,16.7691189,16.88113767,16.72303209,16.7691189,,,,,,,,,,,,,,,,,,,,PF,3,weak,,,,,,,,4,1.702205,,,,,,,,,,,,,,,,,,,,,,,,,,,,2,weak,19.5501042,-58.76345666,1,0,0,response3disk,9,122,2.407212675,-14.00140399,1,0,0,rectangle,2.407212675,-14.00140399,1,0,0,1,4,0.00287,2.407212675,-14.00140399,1,0,0,0,121,121,39,1,0,,,,,,,,,,,,,,,,,,,,,
,,,,,,,,,,,,,,,,,,,,,,,,,,,,,,,,,,,,,,,,,,5f8efea0c0c62e0e48ff6b3e,606a12c661f9541d2dc7cf36,2021-04-04_22h26.33.436,Colour_Similarity_Experiment,2020.2.10,Linux x86_64,60,60675255c767bca6388caeee,17.1119322,16.74784461,16.7691189,16.88113767,16.72303209,16.7691189,,,,,,,,,,,,,,,,,,,,PF,3,strong,,,,,,,,4,1.6529,,,,,,,,,,,,,,,,,,,,,,,,,,,,9,strong,21.45486993,-66.38246143,1,0,0,response3disk,9,123,4.312210915,-11.1442554,1,0,0,rectangle,4.312210915,-11.1442554,1,0,0,1,5,0.004615,4.312210915,-11.1442554,1,0,0,0,122,122,17,1,0,,,,,,,,,,,,,,,,,,,,,
,,,,,,,,,,,,,,,,,,,,,,,,,,,,,,,,,,,,,,,,,,5f8efea0c0c62e0e48ff6b3e,606a12c661f9541d2dc7cf36,2021-04-04_22h26.33.436,Colour_Similarity_Experiment,2020.2.10,Linux x86_64,60,60675255c767bca6388caeee,17.1119322,16.74784461,16.7691189,16.88113767,16.72303209,16.7691189,,,,,,,,,,,,,,,,,,,,PF,3,weak,,,,,,,,5,2.03387,,,,,,,,,,,,,,,,,,,,,,,,,,,,1,weak,43.35967577,-22.57296601,1,0,0,response3disk,6,124,19.5501042,-3.525308757,1,0,0,rectangle,19.5501042,-3.525308757,1,0,0,1,5,0.00048,19.5501042,-3.525308757,1,0,0,0,123,123,144,1,0,,,,,,,,,,,,,,,,,,,,,
,,,,,,,,,,,,,,,,,,,,,,,,,,,,,,,,,,,,,,,,,,5f8efea0c0c62e0e48ff6b3e,606a12c661f9541d2dc7cf36,2021-04-04_22h26.33.436,Colour_Similarity_Experiment,2020.2.10,Linux x86_64,60,60675255c767bca6388caeee,17.1119322,16.74784461,16.7691189,16.88113767,16.72303209,16.7691189,,,,,,,,,,,,,,,,,,,,PF,3,weak,,,,,,,,6,1.451335,,,,,,,,,,,,,,,,,,,,,,,,,,,,5,weak,51.93135404,23.14152765,1,0,0,response1disk,2,125,26.21678424,-7.334723949,1,0,0,rectangle,26.21678424,-7.334723949,1,0,0,1,0,0.00217,26.21678424,-7.334723949,1,0,0,0,124,124,129,1,0,,,,,,,,,,,,,,,,,,,,,
,,,,,,,,,,,,,,,,,,,,,,,,,,,,,,,,,,,,,,,,,,5f8efea0c0c62e0e48ff6b3e,606a12c661f9541d2dc7cf36,2021-04-04_22h26.33.436,Colour_Similarity_Experiment,2020.2.10,Linux x86_64,60,60675255c767bca6388caeee,17.1119322,16.74784461,16.7691189,16.88113767,16.72303209,16.7691189,,,,,,,,,,,,,,,,,,,,PF,3,weak,,,,,,,,4,0.98445,,,,,,,,,,,,,,,,,,,,,,,,,,,,6,weak,30.0265482,-48.28718704,1,0,0,response3disk,3,126,15.74080527,-18.7633183,1,0,0,rectangle,15.74080527,-18.7633183,1,0,0,4,5,0.002645,15.74080527,-18.7633183,1,0,0,0,125,125,26,1,0,,,,,,,,,,,,,,,,,,,,,
,,,,,,,,,,,,,,,,,,,,,,,,,,,,,,,,,,,,,,,,,,5f8efea0c0c62e0e48ff6b3e,606a12c661f9541d2dc7cf36,2021-04-04_22h26.33.436,Colour_Similarity_Experiment,2020.2.10,Linux x86_64,60,60675255c767bca6388caeee,17.1119322,16.74784461,16.7691189,16.88113767,16.72303209,16.7691189,,,,,,,,,,,,,,,,,,,,PF,3,strong,,,,,,,,5,2.636,,,,,,,,,,,,,,,,,,,,,,,,,,,,3,strong,72.8835445,-40.66818227,1,0,0,response3disk,1,127,16.69318813,-7.334723949,1,0,0,rectangle,16.69318813,-7.334723949,1,0,0,4,2,0.00429,16.69318813,-7.334723949,1,0,0,0,126,126,125,1,0,,,,,,,,,,,,,,,,,,,,,
,,,,,,,,,,,,,,,,,,,,,,,,,,,,,,,,,,,,,,,,,,5f8efea0c0c62e0e48ff6b3e,606a12c661f9541d2dc7cf36,2021-04-04_22h26.33.436,Colour_Similarity_Experiment,2020.2.10,Linux x86_64,60,60675255c767bca6388caeee,17.1119322,16.74784461,16.7691189,16.88113767,16.72303209,16.7691189,,,,,,,,,,,,,,,,,,,,PF,3,weak,,,,,,,,6,1.53379,,,,,,,,,,,,,,,,,,,,,,,,,,,,8,weak,42.40740916,15.52246475,1,0,0,response1disk,8,128,31.93108141,1.236605556,1,0,0,rectangle,31.93108141,1.236605556,1,0,0,4,4,0.00349,31.93108141,1.236605556,1,0,0,0,127,127,153,1,0,,,,,,,,,,,,,,,,,,,,,
,,,,,,,,,,,,,,,,,,,,,,,,,,,,,,,,,,,,,,,,,,5f8efea0c0c62e0e48ff6b3e,606a12c661f9541d2dc7cf36,2021-04-04_22h26.33.436,Colour_Similarity_Experiment,2020.2.10,Linux x86_64,60,60675255c767bca6388caeee,17.1119322,16.74784461,16.7691189,16.88113767,16.72303209,16.7691189,,,,,,,,,,,,,,,,,,,,PF,3,strong,,,,,,,,4,1.285505,,,,,,,,,,,,,,,,,,,,,,,,,,,,9,strong,34.78823,-51.14445189,1,0,0,response3disk,8,129,-6.164000573,-4.477691619,1,0,0,rectangle,-6.164000573,-4.477691619,1,0,0,4,3,0.00236,-6.164000573,-4.477691619,1,0,0,0,128,128,6,1,0,,,,,,,,,,,,,,,,,,,,,
,,,,,,,,,,,,,,,,,,,,,,,,,,,,,,,,,,,,,,,,,,5f8efea0c0c62e0e48ff6b3e,606a12c661f9541d2dc7cf36,2021-04-04_22h26.33.436,Colour_Similarity_Experiment,2020.2.10,Linux x86_64,60,60675255c767bca6388caeee,17.1119322,16.74784461,16.7691189,16.88113767,16.72303209,16.7691189,,,,,,,,,,,,,,,,,,,,PF,3,weak,,,,,,,,6,2.01855,,,,,,,,,,,,,,,,,,,,,,,,,,,,4,weak,31.93108141,17.42723048,1,0,0,response1disk,1,130,6.21697664,-16.8586107,1,0,0,rectangle,6.21697664,-16.8586107,1,0,0,4,2,0.003,6.21697664,-16.8586107,1,0,0,0,129,129,115,1,0,,,,,,,,,,,,,,,,,,,,,
,,,,,,,,,,,,,,,,,,,,,,,,,,,,,,,,,,,,,,,,,,5f8efea0c0c62e0e48ff6b3e,606a12c661f9541d2dc7cf36,2021-04-04_22h26.33.436,Colour_Similarity_Experiment,2020.2.10,Linux x86_64,60,60675255c767bca6388caeee,17.1119322,16.74784461,16.7691189,16.88113767,16.72303209,16.7691189,,,,,,,,,,,,,,,,,,,,PF,3,weak,,,,,,,,7,2.96865,,,,,,,,,,,,,,,,,,,,,,,,,,,,8,weak,38.59776145,48.85580681,1,0,0,response1disk,7,131,24.31201851,11.7129333,1,0,0,rectangle,24.31201851,11.7129333,1,0,0,4,2,0.00037,24.31201851,11.7129333,1,0,0,0,130,130,23,1,0,,,,,,,,,,,,,,,,,,,,,
,,,,,,,,,,,,,,,,,,,,,,,,,,,,,,,,,,,,,,,,,,5f8efea0c0c62e0e48ff6b3e,606a12c661f9541d2dc7cf36,2021-04-04_22h26.33.436,Colour_Similarity_Experiment,2020.2.10,Linux x86_64,60,60675255c767bca6388caeee,17.1119322,16.74784461,16.7691189,16.88113767,16.72303209,16.7691189,,,,,,,,,,,,,,,,,,,,PF,3,weak,,,,,,,,6,3.05154,,,,,,,,,,,,,,,,,,,,,,,,,,,,2,weak,71.93116164,42.1891849,1,0,0,response1disk,7,132,13.83580703,5.046253264,1,0,0,rectangle,13.83580703,5.046253264,1,0,0,4,6,0.002695,13.83580703,5.046253264,1,0,0,0,131,131,107,1,0,,,,,,,,,,,,,,,,,,,,,
,,,,,,,,,,,,,,,,,,,,,,,,,,,,,,,,,,,,,,,,,,5f8efea0c0c62e0e48ff6b3e,606a12c661f9541d2dc7cf36,2021-04-04_22h26.33.436,Colour_Similarity_Experiment,2020.2.10,Linux x86_64,60,60675255c767bca6388caeee,17.1119322,16.74784461,16.7691189,16.88113767,16.72303209,16.7691189,,,,,,,,,,,,,,,,,,,,PF,3,weak,,,,,,,,7,1.001195,,,,,,,,,,,,,,,,,,,,,,,,,,,,9,weak,44.31205863,48.85580681,1,0,0,response1disk,7,133,18.5978376,17.42723048,1,0,0,rectangle,18.5978376,17.42723048,1,0,0,6,6,0.00027,18.5978376,17.42723048,1,0,0,0,132,132,121,1,0,,,,,,,,,,,,,,,,,,,,,
,,,,,,,,,,,,,,,,,,,,,,,,,,,,,,,,,,,,,,,,,,5f8efea0c0c62e0e48ff6b3e,606a12c661f9541d2dc7cf36,2021-04-04_22h26.33.436,Colour_Similarity_Experiment,2020.2.10,Linux x86_64,60,60675255c767bca6388caeee,17.1119322,16.74784461,16.7691189,16.88113767,16.72303209,16.7691189,,,,,,,,,,,,,,,,,,,,PF,3,weak,,,,,,,,6,1.708445,,,,,,,,,,,,,,,,,,,,,,,,,,,,3,weak,34.78823,22.18914479,1,0,0,response1disk,9,134,25.26440138,-2.572809637,1,0,0,rectangle,25.26440138,-2.572809637,1,0,0,6,6,0.00017,25.26440138,-2.572809637,1,0,0,0,133,133,79,1,0,,,,,,,,,,,,,,,,,,,,,
,,,,,,,,,,,,,,,,,,,,,,,,,,,,,,,,,,,,,,,,,,5f8efea0c0c62e0e48ff6b3e,606a12c661f9541d2dc7cf36,2021-04-04_22h26.33.436,Colour_Similarity_Experiment,2020.2.10,Linux x86_64,60,60675255c767bca6388caeee,17.1119322,16.74784461,16.7691189,16.88113767,16.72303209,16.7691189,,,,,,,,,,,,,,,,,,,,PF,3,strong,,,,,,,,5,1.06783,,,,,,,,,,,,,,,,,,,,,,,,,,,,9,strong,40.50275969,-23.52523261,1,0,0,response3disk,1,135,14.78818989,-3.525308757,1,0,0,rectangle,14.78818989,-3.525308757,1,0,0,6,7,0.001585,14.78818989,-3.525308757,1,0,0,0,134,134,111,1,0,,,,,,,,,,,,,,,,,,,,,
,,,,,,,,,,,,,,,,,,,,,,,,,,,,,,,,,,,,,,,,,,5f8efea0c0c62e0e48ff6b3e,606a12c661f9541d2dc7cf36,2021-04-04_22h26.33.436,Colour_Similarity_Experiment,2020.2.10,Linux x86_64,60,60675255c767bca6388caeee,17.1119322,16.74784461,16.7691189,16.88113767,16.72303209,16.7691189,,,,,,,,,,,,,,,,,,,,PF,3,weak,,,,,,,,6,1.67012,,,,,,,,,,,,,,,,,,,,,,,,,,,,6,weak,47.16920722,28.85582483,1,0,0,response1disk,5,136,33.83584714,-1.620426774,1,0,0,rectangle,33.83584714,-1.620426774,1,0,0,6,1,0.005075,33.83584714,-1.620426774,1,0,0,0,135,135,59,1,0,,,,,,,,,,,,,,,,,,,,,
,,,,,,,,,,,,,,,,,,,,,,,,,,,,,,,,,,,,,,,,,,5f8efea0c0c62e0e48ff6b3e,606a12c661f9541d2dc7cf36,2021-04-04_22h26.33.436,Colour_Similarity_Experiment,2020.2.10,Linux x86_64,60,60675255c767bca6388caeee,17.1119322,16.74784461,16.7691189,16.88113767,16.72303209,16.7691189,,,,,,,,,,,,,,,,,,,,PF,3,strong,,,,,,,,7,1.601085,,,,,,,,,,,,,,,,,,,,,,,,,,,,6,strong,25.26440138,41.23680204,1,0,0,response1disk,2,137,16.69318813,9.808167577,1,0,0,rectangle,16.69318813,9.808167577,1,0,0,6,7,0.000965,16.69318813,9.808167577,1,0,0,0,136,136,112,1,0,,,,,,,,,,,,,,,,,,,,,
,,,,,,,,,,,,,,,,,,,,,,,,,,,,,,,,,,,,,,,,,,5f8efea0c0c62e0e48ff6b3e,606a12c661f9541d2dc7cf36,2021-04-04_22h26.33.436,Colour_Similarity_Experiment,2020.2.10,Linux x86_64,60,60675255c767bca6388caeee,17.1119322,16.74784461,16.7691189,16.88113767,16.72303209,16.7691189,,,,,,,,,,,,,,,,,,,,PF,3,weak,,,,,,,,5,1.551425,,,,,,,,,,,,,,,,,,,,,,,,,,,,1,weak,51.93135404,-19.71570116,1,0,0,response3disk,8,138,21.45486993,-2.572809637,1,0,0,rectangle,21.45486993,-2.572809637,1,0,0,6,7,0.000185,21.45486993,-2.572809637,1,0,0,0,137,137,65,1,0,,,,,,,,,,,,,,,,,,,,,
,,,,,,,,,,,,,,,,,,,,,,,,,,,,,,,,,,,,,,,,,,5f8efea0c0c62e0e48ff6b3e,606a12c661f9541d2dc7cf36,2021-04-04_22h26.33.436,Colour_Similarity_Experiment,2020.2.10,Linux x86_64,60,60675255c767bca6388caeee,17.1119322,16.74784461,16.7691189,16.88113767,16.72303209,16.7691189,,,,,,,,,,,,,,,,,,,,PF,3,strong,,,,,,,,6,1.317745,,,,,,,,,,,,,,,,,,,,,,,,,,,,4,strong,50.97897118,36.47488773,1,0,0,response1disk,1,139,2.407212675,5.998636127,1,0,0,rectangle,2.407212675,5.998636127,1,0,0,6,0,0.00222,2.407212675,5.998636127,1,0,0,0,138,138,102,1,0,,,,,,,,,,,,,,,,,,,,,
,,,,,,,,,,,,,,,,,,,,,,,,,,,,,,,,,,,,,,,,,,5f8efea0c0c62e0e48ff6b3e,606a12c661f9541d2dc7cf36,2021-04-04_22h26.33.436,Colour_Similarity_Experiment,2020.2.10,Linux x86_64,60,60675255c767bca6388caeee,17.1119322,16.74784461,16.7691189,16.88113767,16.72303209,16.7691189,,,,,,,,,,,,,,,,,,,,PF,3,strong,,,,,,,,7,1.149855,,,,,,,,,,,,,,,,,,,,,,,,,,,,5,strong,21.45486993,49.80813155,1,0,0,response1disk,6,140,13.83580703,-0.668043911,1,0,0,rectangle,13.83580703,-0.668043911,1,0,0,6,1,0.003595,13.83580703,-0.668043911,1,0,0,0,139,139,12,1,0,,,,,,,,,,,,,,,,,,,,,
,,,,,,,,,,,,,,,,,,,,,,,,,,,,,,,,,,,,,,,,,,5f8efea0c0c62e0e48ff6b3e,606a12c661f9541d2dc7cf36,2021-04-04_22h26.33.436,Colour_Similarity_Experiment,2020.2.10,Linux x86_64,60,60675255c767bca6388caeee,17.1119322,16.74784461,16.7691189,16.88113767,16.72303209,16.7691189,,,,,,,,,,,,,,,,,,,,PF,3,strong,,,,,,,,5,3.20282,,,,,,,,,,,,,,,,,,,,,,,,,,,,4,strong,56.69303584,-46.38253757,1,0,0,response3disk,2,141,-22.35474175,-0.668043911,1,0,0,rectangle,-22.35474175,-0.668043911,1,0,0,6,3,0.002605,-22.35474175,-0.668043911,1,0,0,0,140,140,13,1,0,,,,,,,,,,,,,,,,,,,,,
,,,,,,,,,,,,,,,,,,,,,,,,,,,,,,,,,,,,,,,,,,5f8efea0c0c62e0e48ff6b3e,606a12c661f9541d2dc7cf36,2021-04-04_22h26.33.436,Colour_Similarity_Experiment,2020.2.10,Linux x86_64,60,60675255c767bca6388caeee,17.1119322,16.74784461,16.7691189,16.88113767,16.72303209,16.7691189,,,,,,,,,,,,,,,,,,,,PF,3,strong,,,,,,,,6,1.30434,,,,,,,,,,,,,,,,,,,,,,,,,,,,6,strong,46.21682435,22.18914479,1,0,0,response1disk,1,142,17.64557099,3.141487539,1,0,0,rectangle,17.64557099,3.141487539,1,0,0,6,4,0.0033,17.64557099,3.141487539,1,0,0,0,141,141,5,1,0,,,,,,,,,,,,,,,,,,,,,
,,,,,,,,,,,,,,,,,,,,,,,,,,,,,,,,,,,,,,,,,,5f8efea0c0c62e0e48ff6b3e,606a12c661f9541d2dc7cf36,2021-04-04_22h26.33.436,Colour_Similarity_Experiment,2020.2.10,Linux x86_64,60,60675255c767bca6388caeee,17.1119322,16.74784461,16.7691189,16.88113767,16.72303209,16.7691189,,,,,,,,,,,,,,,,,,,,PF,3,strong,,,,,,,,5,1.63383,,,,,,,,,,,,,,,,,,,,,,,,,,,,3,strong,47.16920722,-31.14429551,1,0,0,response3disk,9,143,8.12150985,-2.572809637,1,0,0,rectangle,8.12150985,-2.572809637,1,0,0,6,5,0.00431,8.12150985,-2.572809637,1,0,0,0,142,142,143,1,0,,,,,,,,,,,,,,,,,,,,,
,,,,,,,,,,,,,,,,,,,,,,,,,,,,,,,,,,,,,,,,,,5f8efea0c0c62e0e48ff6b3e,606a12c661f9541d2dc7cf36,2021-04-04_22h26.33.436,Colour_Similarity_Experiment,2020.2.10,Linux x86_64,60,60675255c767bca6388caeee,17.1119322,16.74784461,16.7691189,16.88113767,16.72303209,16.7691189,,,,,,,,,,,,,,,,,,,,PF,3,weak,,,,,,,,5,1.00181,,,,,,,,,,,,,,,,,,,,,,,,,,,,8,weak,44.31205863,-30.19191265,1,0,0,response3disk,9,144,19.5501042,-1.620426774,1,0,0,rectangle,19.5501042,-1.620426774,1,0,0,6,1,0.002205,19.5501042,-1.620426774,1,0,0,0,143,143,42,1,0,,,,,,,,,,,,,,,,,,,,,
,,,,,,,,,,,,,,,,,,,,,,,,,,,,,,,,,,,,,,,,,,5f8efea0c0c62e0e48ff6b3e,606a12c661f9541d2dc7cf36,2021-04-04_22h26.33.436,Colour_Similarity_Experiment,2020.2.10,Linux x86_64,60,60675255c767bca6388caeee,17.1119322,16.74784461,16.7691189,16.88113767,16.72303209,16.7691189,,,,,,,,,,,,,,,,,,,,PF,3,weak,,,,,,,,3,1.368205,,,,,,,,,,,,,,,,,,,,,,,,,,,,2,weak,-36.64048469,-60.66816425,1,0,0,response5disk,3,145,18.5978376,-2.572809637,1,0,0,rectangle,18.5978376,-2.572809637,1,0,0,6,3,0.00141,18.5978376,-2.572809637,1,0,0,0,144,144,69,1,0,,,,,,,,,,,,,,,,,,,,,
,,,,,,,,,,,,,,,,,,,,,,,,,,,,,,,,,,,,,,,,,,5f8efea0c0c62e0e48ff6b3e,606a12c661f9541d2dc7cf36,2021-04-04_22h26.33.436,Colour_Similarity_Experiment,2020.2.10,Linux x86_64,60,60675255c767bca6388caeee,17.1119322,16.74784461,16.7691189,16.88113767,16.72303209,16.7691189,,,,,,,,,,,,,,,,,,,,PF,3,weak,,,,,,,,3,1.117495,,,,,,,,,,,,,,,,,,,,,,,,,,,,2,weak,-33.7833361,-44.47765559,1,0,0,response5disk,4,146,-16.64044458,0.284338951,1,0,0,rectangle,-16.64044458,0.284338951,1,0,0,6,5,0.002515,-16.64044458,0.284338951,1,0,0,0,145,145,127,1,0,,,,,,,,,,,,,,,,,,,,,
,,,,,,,,,,,,,,,,,,,,,,,,,,,,,,,,,,,,,,,,,,5f8efea0c0c62e0e48ff6b3e,606a12c661f9541d2dc7cf36,2021-04-04_22h26.33.436,Colour_Similarity_Experiment,2020.2.10,Linux x86_64,60,60675255c767bca6388caeee,17.1119322,16.74784461,16.7691189,16.88113767,16.72303209,16.7691189,,,,,,,,,,,,,,,,,,,,PF,3,strong,,,,,,,,4,2.270905,,,,,,,,,,,,,,,,,,,,,,,,,,,,2,strong,47.16920722,-66.38246143,1,0,0,response3disk,6,147,1.454829812,-15.90628597,1,0,0,rectangle,1.454829812,-15.90628597,1,0,0,6,3,0.003395,1.454829812,-15.90628597,1,0,0,0,146,146,40,1,0,,,,,,,,,,,,,,,,,,,,,
,,,,,,,,,,,,,,,,,,,,,,,,,,,,,,,,,,,,,,,,,,5f8efea0c0c62e0e48ff6b3e,606a12c661f9541d2dc7cf36,2021-04-04_22h26.33.436,Colour_Similarity_Experiment,2020.2.10,Linux x86_64,60,60675255c767bca6388caeee,17.1119322,16.74784461,16.7691189,16.88113767,16.72303209,16.7691189,,,,,,,,,,,,,,,,,,,,PF,3,strong,,,,,,,,4,1.133905,,,,,,,,,,,,,,,,,,,,,,,,,,,,8,strong,23.35963565,-57.81113192,1,0,0,response3disk,5,148,-6.164000573,-13.04902112,1,0,0,rectangle,-6.164000573,-13.04902112,1,0,0,6,2,0.00287,-6.164000573,-13.04902112,1,0,0,0,147,147,152,1,0,,,,,,,,,,,,,,,,,,,,,
,,,,,,,,,,,,,,,,,,,,,,,,,,,,,,,,,,,,,,,,,,5f8efea0c0c62e0e48ff6b3e,606a12c661f9541d2dc7cf36,2021-04-04_22h26.33.436,Colour_Similarity_Experiment,2020.2.10,Linux x86_64,60,60675255c767bca6388caeee,17.1119322,16.74784461,16.7691189,16.88113767,16.72303209,16.7691189,,,,,,,,,,,,,,,,,,,,PF,3,weak,,,,,,,,4,1.501215,,,,,,,,,,,,,,,,,,,,,,,,,,,,2,weak,30.0265482,-66.38246143,1,0,0,response3disk,1,149,-23.30712461,-11.1442554,1,0,0,rectangle,-23.30712461,-11.1442554,1,0,0,6,1,0.003225,-23.30712461,-11.1442554,1,0,0,0,148,148,9,1,0,,,,,,,,,,,,,,,,,,,,,
,,,,,,,,,,,,,,,,,,,,,,,,,,,,,,,,,,,,,,,,,,5f8efea0c0c62e0e48ff6b3e,606a12c661f9541d2dc7cf36,2021-04-04_22h26.33.436,Colour_Similarity_Experiment,2020.2.10,Linux x86_64,60,60675255c767bca6388caeee,17.1119322,16.74784461,16.7691189,16.88113767,16.72303209,16.7691189,,,,,,,,,,,,,,,,,,,,PF,3,weak,,,,,,,,3,1.136095,,,,,,,,,,,,,,,,,,,,,,,,,,,,3,weak,-23.30712461,-64.47781196,1,0,0,response5disk,7,150,-19.49736065,-18.7633183,1,0,0,rectangle,-19.49736065,-18.7633183,1,0,0,6,1,0.000705,-19.49736065,-18.7633183,1,0,0,0,149,149,41,1,0,,,,,,,,,,,,,,,,,,,,,
,,,,,,,,,,,,,,,,,,,,,,,,,,,,,,,,,,,,,,,,,,5f8efea0c0c62e0e48ff6b3e,606a12c661f9541d2dc7cf36,2021-04-04_22h26.33.436,Colour_Similarity_Experiment,2020.2.10,Linux x86_64,60,60675255c767bca6388caeee,17.1119322,16.74784461,16.7691189,16.88113767,16.72303209,16.7691189,,,,,,,,,,,,,,,,,,,,PF,3,strong,,,,,,,,4,0.800955,,,,,,,,,,,,,,,,,,,,,,,,,,,,7,strong,40.50275969,-57.81113192,1,0,0,response3disk,4,151,-3.307084501,-3.525308757,1,0,0,rectangle,-3.307084501,-3.525308757,1,0,0,6,6,0.002395,-3.307084501,-3.525308757,1,0,0,0,150,150,158,1,0,,,,,,,,,,,,,,,,,,,,,
,,,,,,,,,,,,,,,,,,,,,,,,,,,,,,,,,,,,,,,,,,5f8efea0c0c62e0e48ff6b3e,606a12c661f9541d2dc7cf36,2021-04-04_22h26.33.436,Colour_Similarity_Experiment,2020.2.10,Linux x86_64,60,60675255c767bca6388caeee,17.1119322,16.74784461,16.7691189,16.88113767,16.72303209,16.7691189,,,,,,,,,,,,,,,,,,,,PF,3,weak,,,,,,,,5,1.53553,,,,,,,,,,,,,,,,,,,,,,,,,,,,7,weak,42.40740916,-26.3823812,1,0,0,response3disk,8,152,15.74080527,-1.620426774,1,0,0,rectangle,15.74080527,-1.620426774,1,0,0,6,1,0.004035,15.74080527,-1.620426774,1,0,0,0,151,151,140,1,0,,,,,,,,,,,,,,,,,,,,,
,,,,,,,,,,,,,,,,,,,,,,,,,,,,,,,,,,,,,,,,,,5f8efea0c0c62e0e48ff6b3e,606a12c661f9541d2dc7cf36,2021-04-04_22h26.33.436,Colour_Similarity_Experiment,2020.2.10,Linux x86_64,60,60675255c767bca6388caeee,17.1119322,16.74784461,16.7691189,16.88113767,16.72303209,16.7691189,,,,,,,,,,,,,,,,,,,,PF,3,strong,,,,,,,,5,0.88338,,,,,,,,,,,,,,,,,,,,,,,,,,,,8,strong,48.12159008,-24.47761548,1,0,0,response3disk,3,153,10.97865844,8.855668457,1,0,0,rectangle,10.97865844,8.855668457,1,0,0,6,7,0.004445,10.97865844,8.855668457,1,0,0,0,152,152,154,1,0,,,,,,,,,,,,,,,,,,,,,
,,,,,,,,,,,,,,,,,,,,,,,,,,,,,,,,,,,,,,,,,,5f8efea0c0c62e0e48ff6b3e,606a12c661f9541d2dc7cf36,2021-04-04_22h26.33.436,Colour_Similarity_Experiment,2020.2.10,Linux x86_64,60,60675255c767bca6388caeee,17.1119322,16.74784461,16.7691189,16.88113767,16.72303209,16.7691189,,,,,,,,,,,,,,,,,,,,PF,3,weak,,,,,,,,4,0.551255,,,,,,,,,,,,,,,,,,,,,,,,,,,,9,weak,17.64557099,-44.47765559,1,0,0,response3disk,4,154,-22.35474175,-8.287106812,1,0,0,rectangle,-22.35474175,-8.287106812,1,0,0,6,1,0.002135,-22.35474175,-8.287106812,1,0,0,0,153,153,114,1,0,,,,,,,,,,,,,,,,,,,,,
,,,,,,,,,,,,,,,,,,,,,,,,,,,,,,,,,,,,,,,,,,5f8efea0c0c62e0e48ff6b3e,606a12c661f9541d2dc7cf36,2021-04-04_22h26.33.436,Colour_Similarity_Experiment,2020.2.10,Linux x86_64,60,60675255c767bca6388caeee,17.1119322,16.74784461,16.7691189,16.88113767,16.72303209,16.7691189,,,,,,,,,,,,,,,,,,,,PF,3,weak,,,,,,,,3,0.949875,,,,,,,,,,,,,,,,,,,,,,,,,,,,9,weak,-32.83095324,-64.47781196,1,0,0,response5disk,8,155,1.454829812,-11.1442554,1,0,0,rectangle,1.454829812,-11.1442554,1,0,0,6,6,0.002485,1.454829812,-11.1442554,1,0,0,0,154,154,67,1,0,,,,,,,,,,,,,,,,,,,,,
,,,,,,,,,,,,,,,,,,,,,,,,,,,,,,,,,,,,,,,,,,5f8efea0c0c62e0e48ff6b3e,606a12c661f9541d2dc7cf36,2021-04-04_22h26.33.436,Colour_Similarity_Experiment,2020.2.10,Linux x86_64,60,60675255c767bca6388caeee,17.1119322,16.74784461,16.7691189,16.88113767,16.72303209,16.7691189,,,,,,,,,,,,,,,,,,,,PF,3,strong,,,,,,,,4,1.817425,,,,,,,,,,,,,,,,,,,,,,,,,,,,5,strong,31.93108141,-54.00148422,1,0,0,response3disk,3,156,-24.25950748,0.284338951,1,0,0,rectangle,-24.25950748,0.284338951,1,0,0,6,3,0.002305,-24.25950748,0.284338951,1,0,0,0,155,155,25,1,0,,,,,,,,,,,,,,,,,,,,,
,,,,,,,,,,,,,,,,,,,,,,,,,,,,,,,,,,,,,,,,,,5f8efea0c0c62e0e48ff6b3e,606a12c661f9541d2dc7cf36,2021-04-04_22h26.33.436,Colour_Similarity_Experiment,2020.2.10,Linux x86_64,60,60675255c767bca6388caeee,17.1119322,16.74784461,16.7691189,16.88113767,16.72303209,16.7691189,,,,,,,,,,,,,,,,,,,,PF,3,strong,,,,,,,,6,1.65316,,,,,,,,,,,,,,,,,,,,,,,,,,,,5,strong,45.26444149,13.61758277,1,0,0,response1disk,1,157,42.40740916,-9.239605932,1,0,0,rectangle,42.40740916,-9.239605932,1,0,0,6,7,0.002285,42.40740916,-9.239605932,1,0,0,0,156,156,131,1,0,,,,,,,,,,,,,,,,,,,,,
,,,,,,,,,,,,,,,,,,,,,,,,,,,,,,,,,,,,,,,,,,5f8efea0c0c62e0e48ff6b3e,606a12c661f9541d2dc7cf36,2021-04-04_22h26.33.436,Colour_Similarity_Experiment,2020.2.10,Linux x86_64,60,60675255c767bca6388caeee,17.1119322,16.74784461,16.7691189,16.88113767,16.72303209,16.7691189,,,,,,,,,,,,,,,,,,,,PF,3,strong,,,,,,,,4,1.35227,,,,,,,,,,,,,,,,,,,,,,,,,,,,6,strong,21.45486993,-60.66816425,1,0,0,response3disk,4,158,-26.1642732,-8.287106812,1,0,0,rectangle,-26.1642732,-8.287106812,1,0,0,6,1,0.0028,-26.1642732,-8.287106812,1,0,0,0,157,157,56,1,0,,,,,,,,,,,,,,,,,,,,,
,,,,,,,,,,,,,,,,,,,,,,,,,,,,,,,,,,,,,,,,,,5f8efea0c0c62e0e48ff6b3e,606a12c661f9541d2dc7cf36,2021-04-04_22h26.33.436,Colour_Similarity_Experiment,2020.2.10,Linux x86_64,60,60675255c767bca6388caeee,17.1119322,16.74784461,16.7691189,16.88113767,16.72303209,16.7691189,,,,,,,,,,,,,,,,,,,,PF,3,strong,,,,,,,,3,1.935685,,,,,,,,,,,,,,,,,,,,,,,,,,,,9,strong,-16.64044458,-72.0967586,1,0,0,response5disk,3,159,12.88342416,-3.525308757,1,0,0,rectangle,12.88342416,-3.525308757,1,0,0,6,5,0.002695,12.88342416,-3.525308757,1,0,0,0,158,158,141,1,0,,,,,,,,,,,,,,,,,,,,,
,,,,,,,,,,,,,,,,,,,,,,,,,,,,,,,,,,,,,,,,,,5f8efea0c0c62e0e48ff6b3e,606a12c661f9541d2dc7cf36,2021-04-04_22h26.33.436,Colour_Similarity_Experiment,2020.2.10,Linux x86_64,60,60675255c767bca6388caeee,17.1119322,16.74784461,16.7691189,16.88113767,16.72303209,16.7691189,,,,,,,,,,,,,,,,,,,,PF,3,strong,,,,,,,,4,0.88506,,,,,,,,,,,,,,,,,,,,,,,,,,,,7,strong,25.26440138,-35.90620983,1,0,0,response3disk,1,160,-0.449935913,-4.477691619,1,0,0,rectangle,-0.449935913,-4.477691619,1,0,0,6,5,0.00046,-0.449935913,-4.477691619,1,0,0,0,159,159,132,1,0,,,,,,,,,,,,,,,,,,,,,
,,,,,,,,,,,,,,,,,,,,,,,,,,,,,,,,,,,,,,,,,,5f8efea0c0c62e0e48ff6b3e,606a12c661f9541d2dc7cf36,2021-04-04_22h26.33.436,Colour_Similarity_Experiment,2020.2.10,Linux x86_64,60,60675255c767bca6388caeee,17.1119322,16.74784461,16.7691189,16.88113767,16.72303209,16.7691189,,,,,,,,,,,,,,,,,,,,PF,3,strong,,,,,,,,5,1.018005,,,,,,,,,,,,,,,,,,,,,,,,,,,,5,strong,62.40733302,-28.28726318,1,0,0,response3disk,4,161,11.9310413,1.236605556,1,0,0,rectangle,11.9310413,1.236605556,1,0,0,6,0,0.00273,11.9310413,1.236605556,1,0,0,0,160,160,8,1,0,,,,,,,,,,,,,,,,,,,,,
,,,,,,,,,,,,,,,,,,,,,,,,,,,,,,,,,,,,,,,,,,5f8efea0c0c62e0e48ff6b3e,606a12c661f9541d2dc7cf36,2021-04-04_22h26.33.436,Colour_Similarity_Experiment,2020.2.10,Linux x86_64,60,60675255c767bca6388caeee,17.1119322,16.74784461,16.7691189,16.88113767,16.72303209,16.7691189,,,,,,,,,,,,,,,,,,,,PF,3,strong,,,,,,,,3,1.13434,,,,,,,,,,,,,,,,,,,,,,,,,,,,7,strong,-27.11665606,-53.04910135,1,0,0,response5disk,2,162,-32.83095324,-14.95390311,1,0,0,rectangle,-32.83095324,-14.95390311,1,0,0,6,4,0.00399,-32.83095324,-14.95390311,1,0,0,0,161,161,138,1,0,,,,,,,,,,,,,,,,,,,,,
,,,,,,,,,,,,,,,,,,,,,,,,,,,,,,,,,,,,,,,,,,5f8efea0c0c62e0e48ff6b3e,606a12c661f9541d2dc7cf36,2021-04-04_22h26.33.436,Colour_Similarity_Experiment,2020.2.10,Linux x86_64,60,60675255c767bca6388caeee,17.1119322,16.74784461,16.7691189,16.88113767,16.72303209,16.7691189,,,,,,,,,,,,,,,,,,,,,,,,,,,,,,,,,,,,,,,,,,,,,,,,,,,,,,,,,,,,,,,,,,,,,,,,,,,,,,,,,,,,,,,,,,,,,,,,0,0,0,0,1,,,,,,,,,,,,,,
,,,,,,,,,,,,,,,,,,,,,,,,,,,,,,,,,,,,,,,,,,5f8efea0c0c62e0e48ff6b3e,606a12c661f9541d2dc7cf36,2021-04-04_22h26.33.436,Colour_Similarity_Experiment,2020.2.10,Linux x86_64,60,60675255c767bca6388caeee,17.1119322,16.74784461,16.7691189,16.88113767,16.72303209,16.7691189,,,,,,,,,,,,,,,,,,,,PF,3,strong,,,,,,,,3,1.458415,,,,,,,,,,,,,,,,,,,,,,,,,,,,8,strong,-31.87833786,-55.90624994,1,0,0,response5disk,2,163,-28.06903893,-5.429958224,1,0,0,rectangle,-28.06903893,-5.429958224,1,0,0,6,4,0.000545,-28.06903893,-5.429958224,1,0,0,0,0,0,22,1,0,,,,,,,,,,,,,,,,,,,,,
,,,,,,,,,,,,,,,,,,,,,,,,,,,,,,,,,,,,,,,,,,5f8efea0c0c62e0e48ff6b3e,606a12c661f9541d2dc7cf36,2021-04-04_22h26.33.436,Colour_Similarity_Experiment,2020.2.10,Linux x86_64,60,60675255c767bca6388caeee,17.1119322,16.74784461,16.7691189,16.88113767,16.72303209,16.7691189,,,,,,,,,,,,,,,,,,,,PF,3,weak,,,,,,,,5,1.17867,,,,,,,,,,,,,,,,,,,,,,,,,,,,6,weak,51.93135404,-23.52523261,1,0,0,response3disk,1,164,26.21678424,-2.572809637,1,0,0,rectangle,26.21678424,-2.572809637,1,0,0,6,5,0.002875,26.21678424,-2.572809637,1,0,0,0,1,1,46,1,0,,,,,,,,,,,,,,,,,,,,,
,,,,,,,,,,,,,,,,,,,,,,,,,,,,,,,,,,,,,,,,,,5f8efea0c0c62e0e48ff6b3e,606a12c661f9541d2dc7cf36,2021-04-04_22h26.33.436,Colour_Similarity_Experiment,2020.2.10,Linux x86_64,60,60675255c767bca6388caeee,17.1119322,16.74784461,16.7691189,16.88113767,16.72303209,16.7691189,,,,,,,,,,,,,,,,,,,,PF,3,strong,,,,,,,,6,1.216805,,,,,,,,,,,,,,,,,,,,,,,,,,,,1,strong,39.55037683,22.18914479,1,0,0,response1disk,1,165,25.26440138,2.188988419,1,0,0,rectangle,25.26440138,2.188988419,1,0,0,6,4,0.00927,25.26440138,2.188988419,1,0,0,0,2,2,151,1,0,,,,,,,,,,,,,,,,,,,,,
