key_resp.keys,key_resp.rt,key_resp_16.keys,key_resp_16.rt,key_resp_2.keys,key_resp_2.rt,X Scale,ratio_pxpermm,screen_size_x,screen_size_y,testsize,key_resp_3.keys,key_resp_4.keys,key_resp_4.rt,line_size,key_resp_5.keys,key_resp_5.rt,key_resp_6.keys,key_resp_6.rt,key_resp_8.keys,key_resp_8.rt,key_resp_7.keys,key_resp_7.rt,key_resp_12.keys,key_resp_12.rt,key_resp_11.keys,key_resp_11.rt,key_resp_18.keys,key_resp_18.rt,key_resp_21.keys,key_resp_21.rt,key_resp_13.keys,key_resp_13.rt,key_resp_19.keys,key_resp_19.rt,ballposx,viewer_distance,trials.thisRepN,trials.thisTrialN,trials.thisN,trials.thisIndex,trials.ran,participant,session,date,expName,psychopyVersion,OS,frameRate,study_id,realFrameRate1,realFrameRate2,realFrameRate3,realFrameRate4,realFrameRate5,realFrameRate,viewerdistancecm,DVA_to_distance,radius_F,radius_P,r_F,R_P,key_resp_20.keys,key_resp_20.rt,key_resp_14.keys,key_resp_14.rt,key_resp_15.keys,key_resp_15.rt,key_resp_17.keys,key_resp_17.rt,key_resp_9.keys,key_resp_9.rt,key_resp_10.keys,key_resp_10.rt,Colour_1,Ecc,mask_frames,maskCon,mouse_5.x,mouse_5.y,mouse_5.leftButton,mouse_5.midButton,mouse_5.rightButton,mouse_5.clicked_name,Colour_2,similarity,response_time,mouse_10.x,mouse_10.y,mouse_10.leftButton,mouse_10.midButton,mouse_10.rightButton,mouse_10.clicked_name,mouse_7.x,mouse_7.y,mouse_7.leftButton,mouse_7.midButton,mouse_7.rightButton,catchnumberprac,mouse_6.x,mouse_6.y,mouse_6.leftButton,mouse_6.midButton,mouse_6.rightButton,duringprac.thisRepN,duringprac.thisTrialN,duringprac.thisN,duringprac.thisIndex,duringprac.ran,mouse_7.clicked_name,catchprac,mouse_6.clicked_name,key_resp_22.keys,key_resp_22.rt,Colour1,maskCon1,mouse.x,mouse.y,mouse.leftButton,mouse.midButton,mouse.rightButton,mouse.clicked_name,Colour2,trialnumber,mouse_2.x,mouse_2.y,mouse_2.leftButton,mouse_2.midButton,mouse_2.rightButton,mouse_2.clicked_name,mouse_3.x,mouse_3.y,mouse_3.leftButton,mouse_3.midButton,mouse_3.rightButton,catchresponse,catchnumber,response_time_catch,mouse_11.x,mouse_11.y,mouse_11.leftButton,mouse_11.midButton,mouse_11.rightButton,trials_2.thisRepN,trials_2.thisTrialN,trials_2.thisN,trials_2.thisIndex,trials_2.ran,Catch,mouse_3.clicked_name,mouse_11.clicked_name,trials_3.thisRepN,trials_3.thisTrialN,trials_3.thisN,trials_3.thisIndex,trials_3.ran,answer1,rt1,answer2,rt2,answer3,rt3,answer4,rt4,answer5,rt5,answer6,rt6,answer7,rt7
space,1.76779,space,6.44627,space,37.651035,47.2,4.72,289.4067797,162.7118644,1366,,space,62.378325,94.4,space,49.9099,space,3.825285,space,1.216355,space,7.560865,space,9.662195,space,8.08794,space,47.35487,space,22.212885,space,9.154445,return,23.31275,-713.052,1111.440058,0,0,0,0,1,5f9aba6600cdf11f1c9b915c,606bfa88dbd290d72095ede2,2021-04-06_08h23.50.307,Colour_Similarity_Experiment,2020.2.10,Win32,60,60675255c767bca6388caeee,17.50156682,17.10932895,22.36541714,16.85827842,16.68218278,17.10932895,,,,,,,,,,,,,,,,,,,,,,,,,,,,,,,,,,,,,,,,,,,,,,,,,,,,,,,,,,,,,,,,,,,,,,,,,,,,,,,,,,,,,,,,,,,,,,,,,,,,,,,,,,,,,,,,,,
,,,,,,,,,,,,,,,,,,,,,,,,,,,,,,,,,return,10.002295,-719.199,1116.864657,1,0,1,0,1,5f9aba6600cdf11f1c9b915c,606bfa88dbd290d72095ede2,2021-04-06_08h23.50.307,Colour_Similarity_Experiment,2020.2.10,Win32,60,60675255c767bca6388caeee,17.50156682,17.10932895,22.36541714,16.85827842,16.68218278,17.10932895,,,,,,,,,,,,,,,,,,,,,,,,,,,,,,,,,,,,,,,,,,,,,,,,,,,,,,,,,,,,,,,,,,,,,,,,,,,,,,,,,,,,,,,,,,,,,,,,,,,,,,,,,,,,,,,,,,
,,,,,,,,,,,,,,,,,,,,,,,,,,,,,,,,,return,9.98313,-715.101,1113.248258,2,0,2,0,1,5f9aba6600cdf11f1c9b915c,606bfa88dbd290d72095ede2,2021-04-06_08h23.50.307,Colour_Similarity_Experiment,2020.2.10,Win32,60,60675255c767bca6388caeee,17.50156682,17.10932895,22.36541714,16.85827842,16.68218278,17.10932895,,,,,,,,,,,,,,,,,,,,,,,,,,,,,,,,,,,,,,,,,,,,,,,,,,,,,,,,,,,,,,,,,,,,,,,,,,,,,,,,,,,,,,,,,,,,,,,,,,,,,,,,,,,,,,,,,,
,,,,,,,,,,,,,,,,,,,,,,,,,,,,,,,,,return,9.965915,-715.101,1113.248258,3,0,3,0,1,5f9aba6600cdf11f1c9b915c,606bfa88dbd290d72095ede2,2021-04-06_08h23.50.307,Colour_Similarity_Experiment,2020.2.10,Win32,60,60675255c767bca6388caeee,17.50156682,17.10932895,22.36541714,16.85827842,16.68218278,17.10932895,,,,,,,,,,,,,,,,,,,,,,,,,,,,,,,,,,,,,,,,,,,,,,,,,,,,,,,,,,,,,,,,,,,,,,,,,,,,,,,,,,,,,,,,,,,,,,,,,,,,,,,,,,,,,,,,,,
,,,,,,,,,,,,,,,,,,,,,,,,,,,,,,,,,return,10.021835,-721.248,1118.672856,4,0,4,0,1,5f9aba6600cdf11f1c9b915c,606bfa88dbd290d72095ede2,2021-04-06_08h23.50.307,Colour_Similarity_Experiment,2020.2.10,Win32,60,60675255c767bca6388caeee,17.50156682,17.10932895,22.36541714,16.85827842,16.68218278,17.10932895,,,,,,,,,,,,,,,,,,,,,,,,,,,,,,,,,,,,,,,,,,,,,,,,,,,,,,,,,,,,,,,,,,,,,,,,,,,,,,,,,,,,,,,,,,,,,,,,,,,,,,,,,,,,,,,,,,
,,,,,,,,,,,,,,,,,,,,,,,,,,,,,,,,,,,,,,,,,,5f9aba6600cdf11f1c9b915c,606bfa88dbd290d72095ede2,2021-04-06_08h23.50.307,Colour_Similarity_Experiment,2020.2.10,Win32,60,60675255c767bca6388caeee,17.50156682,17.10932895,22.36541714,16.85827842,16.68218278,17.10932895,111,19.37511514,137.1758152,914.5054347,91.45054347,411.5274456,space,6.55978,space,161.461095,space,36.275225,space,6.754855,space,2.954315,space,4.72923,2,PF,3,strong,-61,-72.5,1,0,0,response5disk_5,8,3,11.86368,-6,5.5,1,0,0,rectangle_8,-6,5.5,1,0,0,1,-6,5.5,1,0,0,0,0,0,3,1,,,,,,,,,,,,,,,,,,,,,,,,,,,,,,,,,,,,,,,,,,,,,,,,,,,,,,,,,,,,,
,,,,,,,,,,,,,,,,,,,,,,,,,,,,,,,,,,,,,,,,,,5f9aba6600cdf11f1c9b915c,606bfa88dbd290d72095ede2,2021-04-06_08h23.50.307,Colour_Similarity_Experiment,2020.2.10,Win32,60,60675255c767bca6388caeee,17.50156682,17.10932895,22.36541714,16.85827842,16.68218278,17.10932895,,,,,,,,,,,,,,,,,,,3,PF,3,weak,-69,-49.5,1,0,0,response5disk_5,8,2,4.93193,25,2.5,1,0,0,rectangle_8,25,2.5,1,0,0,1,25,2.5,1,0,0,0,1,1,4,1,,,,,,,,,,,,,,,,,,,,,,,,,,,,,,,,,,,,,,,,,,,,,,,,,,,,,,,,,,,,,
,,,,,,,,,,,,,,,,,,,,,,,,,,,,,,,,,,,,,,,,,,5f9aba6600cdf11f1c9b915c,606bfa88dbd290d72095ede2,2021-04-06_08h23.50.307,Colour_Similarity_Experiment,2020.2.10,Win32,60,60675255c767bca6388caeee,17.50156682,17.10932895,22.36541714,16.85827842,16.68218278,17.10932895,,,,,,,,,,,,,,,,,,,5,PF,3,weak,-67,23.5,1,0,0,response7disk_5,5,1,5.81589,-4,-4.5,1,0,0,rectangle_8,-4,-4.5,1,0,0,1,-4,-4.5,1,0,0,0,2,2,6,1,,,,,,,,,,,,,,,,,,,,,,,,,,,,,,,,,,,,,,,,,,,,,,,,,,,,,,,,,,,,,
,,,,,,,,,,,,,,,,,,,,,,,,,,,,,,,,,,,,,,,,,,5f9aba6600cdf11f1c9b915c,606bfa88dbd290d72095ede2,2021-04-06_08h23.50.307,Colour_Similarity_Experiment,2020.2.10,Win32,60,60675255c767bca6388caeee,17.50156682,17.10932895,22.36541714,16.85827842,16.68218278,17.10932895,,,,,,,,,,,,,,,,,,,6,PF,3,weak,81,27.5,1,0,0,response1disk_5,1,6,5.050585,25,2.5,1,0,0,rectangle_8,-79,41.5,1,0,0,1,12,-0.5,1,0,0,0,3,3,5,1,response7disk_7,1,rectangle_4,,,,,,,,,,,,,,,,,,,,,,,,,,,,,,,,,,,,,,,,,,,,,,,,,,,,,,,,,,
,,,,,,,,,,,,,,,,,,,,,,,,,,,,,,,,,,,,,,,,,,5f9aba6600cdf11f1c9b915c,606bfa88dbd290d72095ede2,2021-04-06_08h23.50.307,Colour_Similarity_Experiment,2020.2.10,Win32,60,60675255c767bca6388caeee,17.50156682,17.10932895,22.36541714,16.85827842,16.68218278,17.10932895,,,,,,,,,,,,,,,,,,,4,PF,3,strong,84,-29.5,1,0,0,response3disk_5,5,5,5.81562,13,4.5,1,0,0,rectangle_8,13,4.5,1,0,0,1,13,4.5,1,0,0,0,4,4,0,1,,,,,,,,,,,,,,,,,,,,,,,,,,,,,,,,,,,,,,,,,,,,,,,,,,,,,,,,,,,,,
,,,,,,,,,,,,,,,,,,,,,,,,,,,,,,,,,,,,,,,,,,5f9aba6600cdf11f1c9b915c,606bfa88dbd290d72095ede2,2021-04-06_08h23.50.307,Colour_Similarity_Experiment,2020.2.10,Win32,60,60675255c767bca6388caeee,17.50156682,17.10932895,22.36541714,16.85827842,16.68218278,17.10932895,,,,,,,,,,,,,,,,,,,1,PF,3,strong,-36,-84.5,1,0,0,response5disk_5,8,3,3.71666,-2,-9.5,1,0,0,rectangle_8,-83,20.5,1,0,0,1,0,1.5,1,0,0,0,5,5,2,1,response7disk_7,1,rectangle_4,,,,,,,,,,,,,,,,,,,,,,,,,,,,,,,,,,,,,,,,,,,,,,,,,,,,,,,,,,
,,,,,,,,,,,,,,,,,,,,,,,,,,,,,,,,,,,,,,,,,,5f9aba6600cdf11f1c9b915c,606bfa88dbd290d72095ede2,2021-04-06_08h23.50.307,Colour_Similarity_Experiment,2020.2.10,Win32,60,60675255c767bca6388caeee,17.50156682,17.10932895,22.36541714,16.85827842,16.68218278,17.10932895,,,,,,,,,,,,,,,,,,,6,PF,3,weak,-92,-55.5,1,0,0,response5disk_5,9,2,5.19854,-1,-2.5,1,0,0,rectangle_8,-1,-2.5,1,0,0,1,-1,-2.5,1,0,0,0,6,6,1,1,,,,,,,,,,,,,,,,,,,,,,,,,,,,,,,,,,,,,,,,,,,,,,,,,,,,,,,,,,,,,
,,,,,,,,,,,,,,,,,,,,,,,,,,,,,,,,,,,,,,,,,,5f9aba6600cdf11f1c9b915c,606bfa88dbd290d72095ede2,2021-04-06_08h23.50.307,Colour_Similarity_Experiment,2020.2.10,Win32,60,60675255c767bca6388caeee,17.50156682,17.10932895,22.36541714,16.85827842,16.68218278,17.10932895,,,,,,,,,,,,,,,,,,,,PF,3,strong,,,,,,,,0,7.31239,,,,,,,,,,,,,,,,,,,,,,,,,,space,3.27401,8,strong,-47,82.5,1,0,0,response7disk,8,1,-22,-3.5,1,0,0,rectangle,-22,-3.5,1,0,0,,2,0.00273,-22,-3.5,1,0,0,0,0,0,48,1,0,,,,,,,,,,,,,,,,,,,,,
,,,,,,,,,,,,,,,,,,,,,,,,,,,,,,,,,,,,,,,,,,5f9aba6600cdf11f1c9b915c,606bfa88dbd290d72095ede2,2021-04-06_08h23.50.307,Colour_Similarity_Experiment,2020.2.10,Win32,60,60675255c767bca6388caeee,17.50156682,17.10932895,22.36541714,16.85827842,16.68218278,17.10932895,,,,,,,,,,,,,,,,,,,,PF,3,weak,,,,,,,,4,2.53153,,,,,,,,,,,,,,,,,,,,,,,,,,,,9,weak,57,-104.5,1,0,0,response3disk,3,2,28,9.5,1,0,0,rectangle,28,9.5,1,0,0,,6,0.002125,28,9.5,1,0,0,0,1,1,119,1,0,,,,,,,,,,,,,,,,,,,,,
,,,,,,,,,,,,,,,,,,,,,,,,,,,,,,,,,,,,,,,,,,5f9aba6600cdf11f1c9b915c,606bfa88dbd290d72095ede2,2021-04-06_08h23.50.307,Colour_Similarity_Experiment,2020.2.10,Win32,60,60675255c767bca6388caeee,17.50156682,17.10932895,22.36541714,16.85827842,16.68218278,17.10932895,,,,,,,,,,,,,,,,,,,,PF,3,strong,,,,,,,,3,2.052805,,,,,,,,,,,,,,,,,,,,,,,,,,,,8,strong,-44,-75.5,1,0,0,response5disk,2,3,8,-2.5,1,0,0,rectangle,8,-2.5,1,0,0,,1,0.002405,8,-2.5,1,0,0,0,2,2,22,1,0,,,,,,,,,,,,,,,,,,,,,
,,,,,,,,,,,,,,,,,,,,,,,,,,,,,,,,,,,,,,,,,,5f9aba6600cdf11f1c9b915c,606bfa88dbd290d72095ede2,2021-04-06_08h23.50.307,Colour_Similarity_Experiment,2020.2.10,Win32,60,60675255c767bca6388caeee,17.50156682,17.10932895,22.36541714,16.85827842,16.68218278,17.10932895,,,,,,,,,,,,,,,,,,,,PF,3,weak,,,,,,,,4,2.417075,,,,,,,,,,,,,,,,,,,,,,,,,,,,6,weak,29,-96.5,1,0,0,response3disk,3,4,17,-2.5,1,0,0,rectangle,17,-2.5,1,0,0,,2,0.00201,17,-2.5,1,0,0,0,3,3,26,1,0,,,,,,,,,,,,,,,,,,,,,
,,,,,,,,,,,,,,,,,,,,,,,,,,,,,,,,,,,,,,,,,,5f9aba6600cdf11f1c9b915c,606bfa88dbd290d72095ede2,2021-04-06_08h23.50.307,Colour_Similarity_Experiment,2020.2.10,Win32,60,60675255c767bca6388caeee,17.50156682,17.10932895,22.36541714,16.85827842,16.68218278,17.10932895,,,,,,,,,,,,,,,,,,,,PF,3,weak,,,,,,,,6,1.782465,,,,,,,,,,,,,,,,,,,,,,,,,,,,1,weak,94,54.5,1,0,0,response1disk,9,5,21,2.5,1,0,0,rectangle,21,2.5,1,0,0,,6,0.001945,21,2.5,1,0,0,0,4,4,15,1,0,,,,,,,,,,,,,,,,,,,,,
,,,,,,,,,,,,,,,,,,,,,,,,,,,,,,,,,,,,,,,,,,5f9aba6600cdf11f1c9b915c,606bfa88dbd290d72095ede2,2021-04-06_08h23.50.307,Colour_Similarity_Experiment,2020.2.10,Win32,60,60675255c767bca6388caeee,17.50156682,17.10932895,22.36541714,16.85827842,16.68218278,17.10932895,,,,,,,,,,,,,,,,,,,,PF,3,weak,,,,,,,,1,2.082405,,,,,,,,,,,,,,,,,,,,,,,,,,,,6,weak,-66,35.5,1,0,0,response7disk,2,6,-8,-1.5,1,0,0,rectangle,-8,-1.5,1,0,0,,2,0.001935,-8,-1.5,1,0,0,0,5,5,130,1,0,,,,,,,,,,,,,,,,,,,,,
,,,,,,,,,,,,,,,,,,,,,,,,,,,,,,,,,,,,,,,,,,5f9aba6600cdf11f1c9b915c,606bfa88dbd290d72095ede2,2021-04-06_08h23.50.307,Colour_Similarity_Experiment,2020.2.10,Win32,60,60675255c767bca6388caeee,17.50156682,17.10932895,22.36541714,16.85827842,16.68218278,17.10932895,,,,,,,,,,,,,,,,,,,,PF,3,strong,,,,,,,,4,2.165845,,,,,,,,,,,,,,,,,,,,,,,,,,,,4,strong,29,-96.5,1,0,0,response3disk,4,7,31,0.5,1,0,0,rectangle,31,0.5,1,0,0,,0,0.002505,31,0.5,1,0,0,0,6,6,84,1,0,,,,,,,,,,,,,,,,,,,,,
,,,,,,,,,,,,,,,,,,,,,,,,,,,,,,,,,,,,,,,,,,5f9aba6600cdf11f1c9b915c,606bfa88dbd290d72095ede2,2021-04-06_08h23.50.307,Colour_Similarity_Experiment,2020.2.10,Win32,60,60675255c767bca6388caeee,17.50156682,17.10932895,22.36541714,16.85827842,16.68218278,17.10932895,,,,,,,,,,,,,,,,,,,,PF,3,strong,,,,,,,,0,1.565685,,,,,,,,,,,,,,,,,,,,,,,,,,,,8,strong,-34,109.5,1,0,0,response7disk,3,8,-25,-0.5,1,0,0,rectangle,-25,-0.5,1,0,0,,5,0.002135,-25,-0.5,1,0,0,0,7,7,154,1,0,,,,,,,,,,,,,,,,,,,,,
,,,,,,,,,,,,,,,,,,,,,,,,,,,,,,,,,,,,,,,,,,5f9aba6600cdf11f1c9b915c,606bfa88dbd290d72095ede2,2021-04-06_08h23.50.307,Colour_Similarity_Experiment,2020.2.10,Win32,60,60675255c767bca6388caeee,17.50156682,17.10932895,22.36541714,16.85827842,16.68218278,17.10932895,,,,,,,,,,,,,,,,,,,,PF,3,weak,,,,,,,,0,1.10071,,,,,,,,,,,,,,,,,,,,,,,,,,,,8,weak,-33,75.5,1,0,0,response7disk,3,9,-11,8.5,1,0,0,rectangle,-11,8.5,1,0,0,,5,0.00065,-11,8.5,1,0,0,0,8,8,71,1,0,,,,,,,,,,,,,,,,,,,,,
,,,,,,,,,,,,,,,,,,,,,,,,,,,,,,,,,,,,,,,,,,5f9aba6600cdf11f1c9b915c,606bfa88dbd290d72095ede2,2021-04-06_08h23.50.307,Colour_Similarity_Experiment,2020.2.10,Win32,60,60675255c767bca6388caeee,17.50156682,17.10932895,22.36541714,16.85827842,16.68218278,17.10932895,,,,,,,,,,,,,,,,,,,,PF,3,strong,,,,,,,,1,1.647935,,,,,,,,,,,,,,,,,,,,,,,,,,,,3,strong,-80,38.5,1,0,0,response7disk,5,10,9,4.5,1,0,0,rectangle,9,4.5,1,0,0,,5,0.000235,9,4.5,1,0,0,0,9,9,101,1,0,,,,,,,,,,,,,,,,,,,,,
,,,,,,,,,,,,,,,,,,,,,,,,,,,,,,,,,,,,,,,,,,5f9aba6600cdf11f1c9b915c,606bfa88dbd290d72095ede2,2021-04-06_08h23.50.307,Colour_Similarity_Experiment,2020.2.10,Win32,60,60675255c767bca6388caeee,17.50156682,17.10932895,22.36541714,16.85827842,16.68218278,17.10932895,,,,,,,,,,,,,,,,,,,,PF,3,strong,,,,,,,,0,1.20002,,,,,,,,,,,,,,,,,,,,,,,,,,,,1,strong,-35,43.5,1,0,0,response7disk,5,11,-7,8.5,1,0,0,rectangle,-7,8.5,1,0,0,,4,0.001165,-7,8.5,1,0,0,0,10,10,82,1,0,,,,,,,,,,,,,,,,,,,,,
,,,,,,,,,,,,,,,,,,,,,,,,,,,,,,,,,,,,,,,,,,5f9aba6600cdf11f1c9b915c,606bfa88dbd290d72095ede2,2021-04-06_08h23.50.307,Colour_Similarity_Experiment,2020.2.10,Win32,60,60675255c767bca6388caeee,17.50156682,17.10932895,22.36541714,16.85827842,16.68218278,17.10932895,,,,,,,,,,,,,,,,,,,,PF,3,strong,,,,,,,,3,2.362995,,,,,,,,,,,,,,,,,,,,,,,,,,,,5,strong,-55,-67.5,1,0,0,response5disk,7,12,4,6.5,1,0,0,rectangle,4,6.5,1,0,0,,7,0.001565,4,6.5,1,0,0,0,11,11,7,1,0,,,,,,,,,,,,,,,,,,,,,
,,,,,,,,,,,,,,,,,,,,,,,,,,,,,,,,,,,,,,,,,,5f9aba6600cdf11f1c9b915c,606bfa88dbd290d72095ede2,2021-04-06_08h23.50.307,Colour_Similarity_Experiment,2020.2.10,Win32,60,60675255c767bca6388caeee,17.50156682,17.10932895,22.36541714,16.85827842,16.68218278,17.10932895,,,,,,,,,,,,,,,,,,,,PF,3,weak,,,,,,,,2,1.433165,,,,,,,,,,,,,,,,,,,,,,,,,,,,8,weak,-73,-32.5,1,0,0,response5disk,5,13,-9,2.5,1,0,0,rectangle,-9,2.5,1,0,0,,6,0.00127,-9,2.5,1,0,0,0,12,12,98,1,0,,,,,,,,,,,,,,,,,,,,,
,,,,,,,,,,,,,,,,,,,,,,,,,,,,,,,,,,,,,,,,,,5f9aba6600cdf11f1c9b915c,606bfa88dbd290d72095ede2,2021-04-06_08h23.50.307,Colour_Similarity_Experiment,2020.2.10,Win32,60,60675255c767bca6388caeee,17.50156682,17.10932895,22.36541714,16.85827842,16.68218278,17.10932895,,,,,,,,,,,,,,,,,,,,PF,3,weak,,,,,,,,4,5.948545,,,,,,,,,,,,,,,,,,,,,,,,,,,,3,weak,48,-86.5,1,0,0,response3disk,4,14,17,-1.5,1,0,0,rectangle,17,-1.5,1,0,0,,3,0.002365,17,-1.5,1,0,0,0,13,13,30,1,0,,,,,,,,,,,,,,,,,,,,,
,,,,,,,,,,,,,,,,,,,,,,,,,,,,,,,,,,,,,,,,,,5f9aba6600cdf11f1c9b915c,606bfa88dbd290d72095ede2,2021-04-06_08h23.50.307,Colour_Similarity_Experiment,2020.2.10,Win32,60,60675255c767bca6388caeee,17.50156682,17.10932895,22.36541714,16.85827842,16.68218278,17.10932895,,,,,,,,,,,,,,,,,,,,PF,3,strong,,,,,,,,6,1.663415,,,,,,,,,,,,,,,,,,,,,,,,,,,,7,strong,70,50.5,1,0,0,response1disk,2,15,31,7.5,1,0,0,rectangle,31,7.5,1,0,0,,2,0.002065,31,7.5,1,0,0,0,14,14,138,1,0,,,,,,,,,,,,,,,,,,,,,
,,,,,,,,,,,,,,,,,,,,,,,,,,,,,,,,,,,,,,,,,,5f9aba6600cdf11f1c9b915c,606bfa88dbd290d72095ede2,2021-04-06_08h23.50.307,Colour_Similarity_Experiment,2020.2.10,Win32,60,60675255c767bca6388caeee,17.50156682,17.10932895,22.36541714,16.85827842,16.68218278,17.10932895,,,,,,,,,,,,,,,,,,,,PF,3,strong,,,,,,,,3,1.96539,,,,,,,,,,,,,,,,,,,,,,,,,,,,2,strong,-24,-81.5,1,0,0,response5disk,3,16,14,7.5,1,0,0,rectangle,-68,-26.5,1,0,0,,2,2.702025,-17,-7.5,1,0,0,0,15,15,104,1,1,response5disk_3,rectangle,,,,,,,,,,,,,,,,,,,
,,,,,,,,,,,,,,,,,,,,,,,,,,,,,,,,,,,,,,,,,,5f9aba6600cdf11f1c9b915c,606bfa88dbd290d72095ede2,2021-04-06_08h23.50.307,Colour_Similarity_Experiment,2020.2.10,Win32,60,60675255c767bca6388caeee,17.50156682,17.10932895,22.36541714,16.85827842,16.68218278,17.10932895,,,,,,,,,,,,,,,,,,,,PF,3,strong,,,,,,,,2,4.517025,,,,,,,,,,,,,,,,,,,,,,,,,,,,4,strong,-57,-37.5,1,0,0,response5disk,6,17,-1,6.5,1,0,0,rectangle,-1,6.5,1,0,0,,0,0.002775,-1,6.5,1,0,0,0,16,16,122,1,0,,,,,,,,,,,,,,,,,,,,,
,,,,,,,,,,,,,,,,,,,,,,,,,,,,,,,,,,,,,,,,,,5f9aba6600cdf11f1c9b915c,606bfa88dbd290d72095ede2,2021-04-06_08h23.50.307,Colour_Similarity_Experiment,2020.2.10,Win32,60,60675255c767bca6388caeee,17.50156682,17.10932895,22.36541714,16.85827842,16.68218278,17.10932895,,,,,,,,,,,,,,,,,,,,PF,3,weak,,,,,,,,7,1.58415,,,,,,,,,,,,,,,,,,,,,,,,,,,,7,weak,70,118.5,1,0,0,response1disk,1,18,15,3.5,1,0,0,rectangle,15,3.5,1,0,0,,1,0.001315,15,3.5,1,0,0,0,17,17,53,1,0,,,,,,,,,,,,,,,,,,,,,
,,,,,,,,,,,,,,,,,,,,,,,,,,,,,,,,,,,,,,,,,,5f9aba6600cdf11f1c9b915c,606bfa88dbd290d72095ede2,2021-04-06_08h23.50.307,Colour_Similarity_Experiment,2020.2.10,Win32,60,60675255c767bca6388caeee,17.50156682,17.10932895,22.36541714,16.85827842,16.68218278,17.10932895,,,,,,,,,,,,,,,,,,,,PF,3,strong,,,,,,,,7,1.3661,,,,,,,,,,,,,,,,,,,,,,,,,,,,7,strong,72,80.5,1,0,0,response1disk,5,19,12,2.5,1,0,0,rectangle,12,2.5,1,0,0,,7,0.001555,12,2.5,1,0,0,0,18,18,156,1,0,,,,,,,,,,,,,,,,,,,,,
,,,,,,,,,,,,,,,,,,,,,,,,,,,,,,,,,,,,,,,,,,5f9aba6600cdf11f1c9b915c,606bfa88dbd290d72095ede2,2021-04-06_08h23.50.307,Colour_Similarity_Experiment,2020.2.10,Win32,60,60675255c767bca6388caeee,17.50156682,17.10932895,22.36541714,16.85827842,16.68218278,17.10932895,,,,,,,,,,,,,,,,,,,,PF,3,weak,,,,,,,,6,2.31539,,,,,,,,,,,,,,,,,,,,,,,,,,,,1,weak,76,40.5,1,0,0,response1disk,7,20,15,7.5,1,0,0,rectangle,15,7.5,1,0,0,,4,0.00151,15,7.5,1,0,0,0,19,19,150,1,0,,,,,,,,,,,,,,,,,,,,,
,,,,,,,,,,,,,,,,,,,,,,,,,,,,,,,,,,,,,,,,,,5f9aba6600cdf11f1c9b915c,606bfa88dbd290d72095ede2,2021-04-06_08h23.50.307,Colour_Similarity_Experiment,2020.2.10,Win32,60,60675255c767bca6388caeee,17.50156682,17.10932895,22.36541714,16.85827842,16.68218278,17.10932895,,,,,,,,,,,,,,,,,,,,PF,3,strong,,,,,,,,4,1.58303,,,,,,,,,,,,,,,,,,,,,,,,,,,,8,strong,30,-52.5,1,0,0,response3disk,4,21,20,7.5,1,0,0,rectangle,20,7.5,1,0,0,,5,0.00136,20,7.5,1,0,0,0,20,20,88,1,0,,,,,,,,,,,,,,,,,,,,,
,,,,,,,,,,,,,,,,,,,,,,,,,,,,,,,,,,,,,,,,,,5f9aba6600cdf11f1c9b915c,606bfa88dbd290d72095ede2,2021-04-06_08h23.50.307,Colour_Similarity_Experiment,2020.2.10,Win32,60,60675255c767bca6388caeee,17.50156682,17.10932895,22.36541714,16.85827842,16.68218278,17.10932895,,,,,,,,,,,,,,,,,,,,PF,3,strong,,,,,,,,1,1.667185,,,,,,,,,,,,,,,,,,,,,,,,,,,,6,strong,-70,28.5,1,0,0,response7disk,3,22,-16,-11.5,1,0,0,rectangle,-16,-11.5,1,0,0,,2,0.00138,-16,-11.5,1,0,0,0,21,21,21,1,0,,,,,,,,,,,,,,,,,,,,,
,,,,,,,,,,,,,,,,,,,,,,,,,,,,,,,,,,,,,,,,,,5f9aba6600cdf11f1c9b915c,606bfa88dbd290d72095ede2,2021-04-06_08h23.50.307,Colour_Similarity_Experiment,2020.2.10,Win32,60,60675255c767bca6388caeee,17.50156682,17.10932895,22.36541714,16.85827842,16.68218278,17.10932895,,,,,,,,,,,,,,,,,,,,PF,3,weak,,,,,,,,4,1.73621,,,,,,,,,,,,,,,,,,,,,,,,,,,,4,weak,15,-79.5,1,0,0,response3disk,7,23,6,-11.5,1,0,0,rectangle,6,-11.5,1,0,0,,7,0.001285,6,-11.5,1,0,0,0,22,22,38,1,0,,,,,,,,,,,,,,,,,,,,,
,,,,,,,,,,,,,,,,,,,,,,,,,,,,,,,,,,,,,,,,,,5f9aba6600cdf11f1c9b915c,606bfa88dbd290d72095ede2,2021-04-06_08h23.50.307,Colour_Similarity_Experiment,2020.2.10,Win32,60,60675255c767bca6388caeee,17.50156682,17.10932895,22.36541714,16.85827842,16.68218278,17.10932895,,,,,,,,,,,,,,,,,,,,PF,3,strong,,,,,,,,6,1.448565,,,,,,,,,,,,,,,,,,,,,,,,,,,,7,strong,50,28.5,1,0,0,response1disk,1,24,15,-0.5,1,0,0,rectangle,15,-0.5,1,0,0,,2,0.002515,15,-0.5,1,0,0,0,23,23,132,1,0,,,,,,,,,,,,,,,,,,,,,
,,,,,,,,,,,,,,,,,,,,,,,,,,,,,,,,,,,,,,,,,,5f9aba6600cdf11f1c9b915c,606bfa88dbd290d72095ede2,2021-04-06_08h23.50.307,Colour_Similarity_Experiment,2020.2.10,Win32,60,60675255c767bca6388caeee,17.50156682,17.10932895,22.36541714,16.85827842,16.68218278,17.10932895,,,,,,,,,,,,,,,,,,,,PF,3,strong,,,,,,,,6,2.35362,,,,,,,,,,,,,,,,,,,,,,,,,,,,8,strong,68,40.5,1,0,0,response1disk,5,25,14,-2.5,1,0,0,rectangle,14,-2.5,1,0,0,,3,0.00121,14,-2.5,1,0,0,0,24,24,152,1,0,,,,,,,,,,,,,,,,,,,,,
,,,,,,,,,,,,,,,,,,,,,,,,,,,,,,,,,,,,,,,,,,5f9aba6600cdf11f1c9b915c,606bfa88dbd290d72095ede2,2021-04-06_08h23.50.307,Colour_Similarity_Experiment,2020.2.10,Win32,60,60675255c767bca6388caeee,17.50156682,17.10932895,22.36541714,16.85827842,16.68218278,17.10932895,,,,,,,,,,,,,,,,,,,,PF,3,weak,,,,,,,,3,1.63322,,,,,,,,,,,,,,,,,,,,,,,,,,,,5,weak,-22,-79.5,1,0,0,response5disk,8,26,10,-11.5,1,0,0,rectangle,10,-11.5,1,0,0,,2,0.002025,10,-11.5,1,0,0,0,25,25,149,1,0,,,,,,,,,,,,,,,,,,,,,
,,,,,,,,,,,,,,,,,,,,,,,,,,,,,,,,,,,,,,,,,,5f9aba6600cdf11f1c9b915c,606bfa88dbd290d72095ede2,2021-04-06_08h23.50.307,Colour_Similarity_Experiment,2020.2.10,Win32,60,60675255c767bca6388caeee,17.50156682,17.10932895,22.36541714,16.85827842,16.68218278,17.10932895,,,,,,,,,,,,,,,,,,,,PF,3,strong,,,,,,,,5,1.750695,,,,,,,,,,,,,,,,,,,,,,,,,,,,9,strong,78,-49.5,1,0,0,response3disk,4,27,30,10.5,1,0,0,rectangle,30,10.5,1,0,0,,3,0.00144,30,10.5,1,0,0,0,26,26,60,1,0,,,,,,,,,,,,,,,,,,,,,
,,,,,,,,,,,,,,,,,,,,,,,,,,,,,,,,,,,,,,,,,,5f9aba6600cdf11f1c9b915c,606bfa88dbd290d72095ede2,2021-04-06_08h23.50.307,Colour_Similarity_Experiment,2020.2.10,Win32,60,60675255c767bca6388caeee,17.50156682,17.10932895,22.36541714,16.85827842,16.68218278,17.10932895,,,,,,,,,,,,,,,,,,,,PF,3,weak,,,,,,,,2,1.61498,,,,,,,,,,,,,,,,,,,,,,,,,,,,2,weak,-92,-26.5,1,0,0,response5disk,3,28,-29,-12.5,1,0,0,rectangle,-29,-12.5,1,0,0,,6,0.002635,-29,-12.5,1,0,0,0,27,27,69,1,0,,,,,,,,,,,,,,,,,,,,,
,,,,,,,,,,,,,,,,,,,,,,,,,,,,,,,,,,,,,,,,,,5f9aba6600cdf11f1c9b915c,606bfa88dbd290d72095ede2,2021-04-06_08h23.50.307,Colour_Similarity_Experiment,2020.2.10,Win32,60,60675255c767bca6388caeee,17.50156682,17.10932895,22.36541714,16.85827842,16.68218278,17.10932895,,,,,,,,,,,,,,,,,,,,PF,3,weak,,,,,,,,2,1.59932,,,,,,,,,,,,,,,,,,,,,,,,,,,,6,weak,-75,-43.5,1,0,0,response5disk,5,29,7,-1.5,1,0,0,rectangle,7,-1.5,1,0,0,,3,0.002495,7,-1.5,1,0,0,0,28,28,59,1,0,,,,,,,,,,,,,,,,,,,,,
,,,,,,,,,,,,,,,,,,,,,,,,,,,,,,,,,,,,,,,,,,5f9aba6600cdf11f1c9b915c,606bfa88dbd290d72095ede2,2021-04-06_08h23.50.307,Colour_Similarity_Experiment,2020.2.10,Win32,60,60675255c767bca6388caeee,17.50156682,17.10932895,22.36541714,16.85827842,16.68218278,17.10932895,,,,,,,,,,,,,,,,,,,,PF,3,weak,,,,,,,,1,1.66643,,,,,,,,,,,,,,,,,,,,,,,,,,,,6,weak,-66,32.5,1,0,0,response7disk,6,30,-28,-4.5,1,0,0,rectangle,-28,-4.5,1,0,0,,5,0.00128,-28,-4.5,1,0,0,0,29,29,0,1,0,,,,,,,,,,,,,,,,,,,,,
,,,,,,,,,,,,,,,,,,,,,,,,,,,,,,,,,,,,,,,,,,5f9aba6600cdf11f1c9b915c,606bfa88dbd290d72095ede2,2021-04-06_08h23.50.307,Colour_Similarity_Experiment,2020.2.10,Win32,60,60675255c767bca6388caeee,17.50156682,17.10932895,22.36541714,16.85827842,16.68218278,17.10932895,,,,,,,,,,,,,,,,,,,,PF,3,strong,,,,,,,,0,2.71501,,,,,,,,,,,,,,,,,,,,,,,,,,,,8,strong,-60,82.5,1,0,0,response7disk,6,31,-7,3.5,1,0,0,rectangle,-7,3.5,1,0,0,,6,0.00264,-7,3.5,1,0,0,0,30,30,37,1,0,,,,,,,,,,,,,,,,,,,,,
,,,,,,,,,,,,,,,,,,,,,,,,,,,,,,,,,,,,,,,,,,5f9aba6600cdf11f1c9b915c,606bfa88dbd290d72095ede2,2021-04-06_08h23.50.307,Colour_Similarity_Experiment,2020.2.10,Win32,60,60675255c767bca6388caeee,17.50156682,17.10932895,22.36541714,16.85827842,16.68218278,17.10932895,,,,,,,,,,,,,,,,,,,,PF,3,weak,,,,,,,,2,1.317685,,,,,,,,,,,,,,,,,,,,,,,,,,,,3,weak,-71,-38.5,1,0,0,response5disk,5,32,-5,-6.5,1,0,0,rectangle,-5,-6.5,1,0,0,,7,0.002425,-5,-6.5,1,0,0,0,31,31,66,1,0,,,,,,,,,,,,,,,,,,,,,
,,,,,,,,,,,,,,,,,,,,,,,,,,,,,,,,,,,,,,,,,,5f9aba6600cdf11f1c9b915c,606bfa88dbd290d72095ede2,2021-04-06_08h23.50.307,Colour_Similarity_Experiment,2020.2.10,Win32,60,60675255c767bca6388caeee,17.50156682,17.10932895,22.36541714,16.85827842,16.68218278,17.10932895,,,,,,,,,,,,,,,,,,,,PF,3,weak,,,,,,,,5,1.66528,,,,,,,,,,,,,,,,,,,,,,,,,,,,7,weak,46,-21.5,1,0,0,response3disk,2,33,20,0.5,1,0,0,rectangle,20,0.5,1,0,0,,6,0.002535,20,0.5,1,0,0,0,32,32,32,1,0,,,,,,,,,,,,,,,,,,,,,
,,,,,,,,,,,,,,,,,,,,,,,,,,,,,,,,,,,,,,,,,,5f9aba6600cdf11f1c9b915c,606bfa88dbd290d72095ede2,2021-04-06_08h23.50.307,Colour_Similarity_Experiment,2020.2.10,Win32,60,60675255c767bca6388caeee,17.50156682,17.10932895,22.36541714,16.85827842,16.68218278,17.10932895,,,,,,,,,,,,,,,,,,,,PF,3,weak,,,,,,,,5,1.615465,,,,,,,,,,,,,,,,,,,,,,,,,,,,7,weak,102,-44.5,1,0,0,response3disk,6,34,25,9.5,1,0,0,rectangle,25,9.5,1,0,0,,7,0.00244,25,9.5,1,0,0,0,33,33,29,1,0,,,,,,,,,,,,,,,,,,,,,
,,,,,,,,,,,,,,,,,,,,,,,,,,,,,,,,,,,,,,,,,,5f9aba6600cdf11f1c9b915c,606bfa88dbd290d72095ede2,2021-04-06_08h23.50.307,Colour_Similarity_Experiment,2020.2.10,Win32,60,60675255c767bca6388caeee,17.50156682,17.10932895,22.36541714,16.85827842,16.68218278,17.10932895,,,,,,,,,,,,,,,,,,,,PF,3,strong,,,,,,,,3,1.4492,,,,,,,,,,,,,,,,,,,,,,,,,,,,6,strong,-30,-30.5,1,0,0,response5disk,8,35,2,0.5,1,0,0,rectangle,2,0.5,1,0,0,,6,0.00242,2,0.5,1,0,0,0,34,34,133,1,0,,,,,,,,,,,,,,,,,,,,,
,,,,,,,,,,,,,,,,,,,,,,,,,,,,,,,,,,,,,,,,,,5f9aba6600cdf11f1c9b915c,606bfa88dbd290d72095ede2,2021-04-06_08h23.50.307,Colour_Similarity_Experiment,2020.2.10,Win32,60,60675255c767bca6388caeee,17.50156682,17.10932895,22.36541714,16.85827842,16.68218278,17.10932895,,,,,,,,,,,,,,,,,,,,PF,3,strong,,,,,,,,0,1.11716,,,,,,,,,,,,,,,,,,,,,,,,,,,,5,strong,-33,70.5,1,0,0,response7disk,8,36,5,7.5,1,0,0,rectangle,5,7.5,1,0,0,,1,0.001405,5,7.5,1,0,0,0,35,35,16,1,0,,,,,,,,,,,,,,,,,,,,,
,,,,,,,,,,,,,,,,,,,,,,,,,,,,,,,,,,,,,,,,,,5f9aba6600cdf11f1c9b915c,606bfa88dbd290d72095ede2,2021-04-06_08h23.50.307,Colour_Similarity_Experiment,2020.2.10,Win32,60,60675255c767bca6388caeee,17.50156682,17.10932895,22.36541714,16.85827842,16.68218278,17.10932895,,,,,,,,,,,,,,,,,,,,PF,3,strong,,,,,,,,6,1.682875,,,,,,,,,,,,,,,,,,,,,,,,,,,,5,strong,80,49.5,1,0,0,response1disk,2,37,12,7.5,1,0,0,rectangle,41,85.5,1,0,0,7,7,2.052805,14,10.5,1,0,0,0,36,36,55,1,1,response1disk_3,rectangle,,,,,,,,,,,,,,,,,,,
,,,,,,,,,,,,,,,,,,,,,,,,,,,,,,,,,,,,,,,,,,5f9aba6600cdf11f1c9b915c,606bfa88dbd290d72095ede2,2021-04-06_08h23.50.307,Colour_Similarity_Experiment,2020.2.10,Win32,60,60675255c767bca6388caeee,17.50156682,17.10932895,22.36541714,16.85827842,16.68218278,17.10932895,,,,,,,,,,,,,,,,,,,,PF,3,strong,,,,,,,,4,3.18248,,,,,,,,,,,,,,,,,,,,,,,,,,,,4,strong,46,-103.5,1,0,0,response3disk,9,38,7,8.5,1,0,0,rectangle,7,8.5,1,0,0,7,6,0.00191,7,8.5,1,0,0,0,37,37,90,1,0,,,,,,,,,,,,,,,,,,,,,
,,,,,,,,,,,,,,,,,,,,,,,,,,,,,,,,,,,,,,,,,,5f9aba6600cdf11f1c9b915c,606bfa88dbd290d72095ede2,2021-04-06_08h23.50.307,Colour_Similarity_Experiment,2020.2.10,Win32,60,60675255c767bca6388caeee,17.50156682,17.10932895,22.36541714,16.85827842,16.68218278,17.10932895,,,,,,,,,,,,,,,,,,,,PF,3,weak,,,,,,,,3,1.482645,,,,,,,,,,,,,,,,,,,,,,,,,,,,1,weak,-41,-97.5,1,0,0,response5disk,2,39,17,2.5,1,0,0,rectangle,17,2.5,1,0,0,7,6,0.0009,17,2.5,1,0,0,0,38,38,24,1,0,,,,,,,,,,,,,,,,,,,,,
,,,,,,,,,,,,,,,,,,,,,,,,,,,,,,,,,,,,,,,,,,5f9aba6600cdf11f1c9b915c,606bfa88dbd290d72095ede2,2021-04-06_08h23.50.307,Colour_Similarity_Experiment,2020.2.10,Win32,60,60675255c767bca6388caeee,17.50156682,17.10932895,22.36541714,16.85827842,16.68218278,17.10932895,,,,,,,,,,,,,,,,,,,,PF,3,weak,,,,,,,,4,2.08258,,,,,,,,,,,,,,,,,,,,,,,,,,,,1,weak,36,-80.5,1,0,0,response3disk,8,40,19,0.5,1,0,0,rectangle,19,0.5,1,0,0,7,6,0.00077,19,0.5,1,0,0,0,39,39,65,1,0,,,,,,,,,,,,,,,,,,,,,
,,,,,,,,,,,,,,,,,,,,,,,,,,,,,,,,,,,,,,,,,,5f9aba6600cdf11f1c9b915c,606bfa88dbd290d72095ede2,2021-04-06_08h23.50.307,Colour_Similarity_Experiment,2020.2.10,Win32,60,60675255c767bca6388caeee,17.50156682,17.10932895,22.36541714,16.85827842,16.68218278,17.10932895,,,,,,,,,,,,,,,,,,,,PF,3,strong,,,,,,,,3,2.21005,,,,,,,,,,,,,,,,,,,,,,,,,,,,2,strong,-23,-67.5,1,0,0,response5disk,6,41,13,-4.5,1,0,0,rectangle,13,-4.5,1,0,0,7,6,0.00014,13,-4.5,1,0,0,0,40,40,40,1,0,,,,,,,,,,,,,,,,,,,,,
,,,,,,,,,,,,,,,,,,,,,,,,,,,,,,,,,,,,,,,,,,5f9aba6600cdf11f1c9b915c,606bfa88dbd290d72095ede2,2021-04-06_08h23.50.307,Colour_Similarity_Experiment,2020.2.10,Win32,60,60675255c767bca6388caeee,17.50156682,17.10932895,22.36541714,16.85827842,16.68218278,17.10932895,,,,,,,,,,,,,,,,,,,,PF,3,strong,,,,,,,,6,1.663215,,,,,,,,,,,,,,,,,,,,,,,,,,,,2,strong,59,44.5,1,0,0,response1disk,4,42,14,4.5,1,0,0,rectangle,14,4.5,1,0,0,7,1,0.001205,14,4.5,1,0,0,0,41,41,145,1,0,,,,,,,,,,,,,,,,,,,,,
,,,,,,,,,,,,,,,,,,,,,,,,,,,,,,,,,,,,,,,,,,5f9aba6600cdf11f1c9b915c,606bfa88dbd290d72095ede2,2021-04-06_08h23.50.307,Colour_Similarity_Experiment,2020.2.10,Win32,60,60675255c767bca6388caeee,17.50156682,17.10932895,22.36541714,16.85827842,16.68218278,17.10932895,,,,,,,,,,,,,,,,,,,,PF,3,weak,,,,,,,,6,1.69864,,,,,,,,,,,,,,,,,,,,,,,,,,,,2,weak,68,28.5,1,0,0,response1disk,6,43,5,-11.5,1,0,0,rectangle,5,-11.5,1,0,0,7,7,0.002645,5,-11.5,1,0,0,0,42,42,113,1,0,,,,,,,,,,,,,,,,,,,,,
,,,,,,,,,,,,,,,,,,,,,,,,,,,,,,,,,,,,,,,,,,5f9aba6600cdf11f1c9b915c,606bfa88dbd290d72095ede2,2021-04-06_08h23.50.307,Colour_Similarity_Experiment,2020.2.10,Win32,60,60675255c767bca6388caeee,17.50156682,17.10932895,22.36541714,16.85827842,16.68218278,17.10932895,,,,,,,,,,,,,,,,,,,,PF,3,strong,,,,,,,,6,1.202115,,,,,,,,,,,,,,,,,,,,,,,,,,,,3,strong,58,18.5,1,0,0,response1disk,4,44,9,2.5,1,0,0,rectangle,9,2.5,1,0,0,7,3,0.00101,9,2.5,1,0,0,0,43,43,110,1,0,,,,,,,,,,,,,,,,,,,,,
,,,,,,,,,,,,,,,,,,,,,,,,,,,,,,,,,,,,,,,,,,5f9aba6600cdf11f1c9b915c,606bfa88dbd290d72095ede2,2021-04-06_08h23.50.307,Colour_Similarity_Experiment,2020.2.10,Win32,60,60675255c767bca6388caeee,17.50156682,17.10932895,22.36541714,16.85827842,16.68218278,17.10932895,,,,,,,,,,,,,,,,,,,,PF,3,strong,,,,,,,,0,1.401615,,,,,,,,,,,,,,,,,,,,,,,,,,,,3,strong,-29,80.5,1,0,0,response7disk,3,45,-11,8.5,1,0,0,rectangle,-11,8.5,1,0,0,7,0,0.001255,-11,8.5,1,0,0,0,44,44,68,1,0,,,,,,,,,,,,,,,,,,,,,
,,,,,,,,,,,,,,,,,,,,,,,,,,,,,,,,,,,,,,,,,,5f9aba6600cdf11f1c9b915c,606bfa88dbd290d72095ede2,2021-04-06_08h23.50.307,Colour_Similarity_Experiment,2020.2.10,Win32,60,60675255c767bca6388caeee,17.50156682,17.10932895,22.36541714,16.85827842,16.68218278,17.10932895,,,,,,,,,,,,,,,,,,,,PF,3,weak,,,,,,,,0,0.916005,,,,,,,,,,,,,,,,,,,,,,,,,,,,5,weak,-21,68.5,1,0,0,response7disk,4,46,17,10.5,1,0,0,rectangle,17,10.5,1,0,0,7,2,0.002695,17,10.5,1,0,0,0,45,45,54,1,0,,,,,,,,,,,,,,,,,,,,,
,,,,,,,,,,,,,,,,,,,,,,,,,,,,,,,,,,,,,,,,,,5f9aba6600cdf11f1c9b915c,606bfa88dbd290d72095ede2,2021-04-06_08h23.50.307,Colour_Similarity_Experiment,2020.2.10,Win32,60,60675255c767bca6388caeee,17.50156682,17.10932895,22.36541714,16.85827842,16.68218278,17.10932895,,,,,,,,,,,,,,,,,,,,PF,3,weak,,,,,,,,4,3.31782,,,,,,,,,,,,,,,,,,,,,,,,,,,,8,weak,30,-88.5,1,0,0,response3disk,8,47,19,4.5,1,0,0,rectangle,19,4.5,1,0,0,7,5,0.002465,19,4.5,1,0,0,0,46,46,153,1,0,,,,,,,,,,,,,,,,,,,,,
,,,,,,,,,,,,,,,,,,,,,,,,,,,,,,,,,,,,,,,,,,5f9aba6600cdf11f1c9b915c,606bfa88dbd290d72095ede2,2021-04-06_08h23.50.307,Colour_Similarity_Experiment,2020.2.10,Win32,60,60675255c767bca6388caeee,17.50156682,17.10932895,22.36541714,16.85827842,16.68218278,17.10932895,,,,,,,,,,,,,,,,,,,,PF,3,weak,,,,,,,,4,1.565,,,,,,,,,,,,,,,,,,,,,,,,,,,,4,weak,33,-82.5,1,0,0,response3disk,3,48,14,4.5,1,0,0,rectangle,14,4.5,1,0,0,7,6,0.00244,14,4.5,1,0,0,0,47,47,89,1,0,,,,,,,,,,,,,,,,,,,,,
,,,,,,,,,,,,,,,,,,,,,,,,,,,,,,,,,,,,,,,,,,5f9aba6600cdf11f1c9b915c,606bfa88dbd290d72095ede2,2021-04-06_08h23.50.307,Colour_Similarity_Experiment,2020.2.10,Win32,60,60675255c767bca6388caeee,17.50156682,17.10932895,22.36541714,16.85827842,16.68218278,17.10932895,,,,,,,,,,,,,,,,,,,,PF,3,strong,,,,,,,,3,2.166205,,,,,,,,,,,,,,,,,,,,,,,,,,,,4,strong,-38,-91.5,1,0,0,response5disk,2,49,19,7.5,1,0,0,rectangle,19,7.5,1,0,0,7,6,0.000265,19,7.5,1,0,0,0,48,48,13,1,0,,,,,,,,,,,,,,,,,,,,,
,,,,,,,,,,,,,,,,,,,,,,,,,,,,,,,,,,,,,,,,,,5f9aba6600cdf11f1c9b915c,606bfa88dbd290d72095ede2,2021-04-06_08h23.50.307,Colour_Similarity_Experiment,2020.2.10,Win32,60,60675255c767bca6388caeee,17.50156682,17.10932895,22.36541714,16.85827842,16.68218278,17.10932895,,,,,,,,,,,,,,,,,,,,PF,3,weak,,,,,,,,0,1.300615,,,,,,,,,,,,,,,,,,,,,,,,,,,,4,weak,-43,93.5,1,0,0,response7disk,2,50,-1,9.5,1,0,0,rectangle,-1,9.5,1,0,0,7,5,0.001335,-1,9.5,1,0,0,0,49,49,108,1,0,,,,,,,,,,,,,,,,,,,,,
,,,,,,,,,,,,,,,,,,,,,,,,,,,,,,,,,,,,,,,,,,5f9aba6600cdf11f1c9b915c,606bfa88dbd290d72095ede2,2021-04-06_08h23.50.307,Colour_Similarity_Experiment,2020.2.10,Win32,60,60675255c767bca6388caeee,17.50156682,17.10932895,22.36541714,16.85827842,16.68218278,17.10932895,,,,,,,,,,,,,,,,,,,,PF,3,strong,,,,,,,,5,1.316875,,,,,,,,,,,,,,,,,,,,,,,,,,,,5,strong,62,-16.5,1,0,0,response3disk,6,51,14,2.5,1,0,0,rectangle,14,2.5,1,0,0,7,0,0.001075,14,2.5,1,0,0,0,50,50,12,1,0,,,,,,,,,,,,,,,,,,,,,
,,,,,,,,,,,,,,,,,,,,,,,,,,,,,,,,,,,,,,,,,,5f9aba6600cdf11f1c9b915c,606bfa88dbd290d72095ede2,2021-04-06_08h23.50.307,Colour_Similarity_Experiment,2020.2.10,Win32,60,60675255c767bca6388caeee,17.50156682,17.10932895,22.36541714,16.85827842,16.68218278,17.10932895,,,,,,,,,,,,,,,,,,,,PF,3,strong,,,,,,,,6,2.198925,,,,,,,,,,,,,,,,,,,,,,,,,,,,9,strong,79,39.5,1,0,0,response1disk,9,52,26,0.5,1,0,0,rectangle,26,0.5,1,0,0,7,3,0.001185,26,0.5,1,0,0,0,51,51,17,1,0,,,,,,,,,,,,,,,,,,,,,
,,,,,,,,,,,,,,,,,,,,,,,,,,,,,,,,,,,,,,,,,,5f9aba6600cdf11f1c9b915c,606bfa88dbd290d72095ede2,2021-04-06_08h23.50.307,Colour_Similarity_Experiment,2020.2.10,Win32,60,60675255c767bca6388caeee,17.50156682,17.10932895,22.36541714,16.85827842,16.68218278,17.10932895,,,,,,,,,,,,,,,,,,,,PF,3,strong,,,,,,,,3,1.950195,,,,,,,,,,,,,,,,,,,,,,,,,,,,2,strong,-36,-73.5,1,0,0,response5disk,1,53,-2,-1.5,1,0,0,rectangle,-2,-1.5,1,0,0,7,2,0.002025,-2,-1.5,1,0,0,0,52,52,85,1,0,,,,,,,,,,,,,,,,,,,,,
,,,,,,,,,,,,,,,,,,,,,,,,,,,,,,,,,,,,,,,,,,5f9aba6600cdf11f1c9b915c,606bfa88dbd290d72095ede2,2021-04-06_08h23.50.307,Colour_Similarity_Experiment,2020.2.10,Win32,60,60675255c767bca6388caeee,17.50156682,17.10932895,22.36541714,16.85827842,16.68218278,17.10932895,,,,,,,,,,,,,,,,,,,,PF,3,weak,,,,,,,,3,2.032995,,,,,,,,,,,,,,,,,,,,,,,,,,,,2,weak,-38,-79.5,1,0,0,response5disk,9,54,-13,-2.5,1,0,0,rectangle,-13,-2.5,1,0,0,7,0,0.00236,-13,-2.5,1,0,0,0,53,53,39,1,0,,,,,,,,,,,,,,,,,,,,,
,,,,,,,,,,,,,,,,,,,,,,,,,,,,,,,,,,,,,,,,,,5f9aba6600cdf11f1c9b915c,606bfa88dbd290d72095ede2,2021-04-06_08h23.50.307,Colour_Similarity_Experiment,2020.2.10,Win32,60,60675255c767bca6388caeee,17.50156682,17.10932895,22.36541714,16.85827842,16.68218278,17.10932895,,,,,,,,,,,,,,,,,,,,PF,3,weak,,,,,,,,5,1.528325,,,,,,,,,,,,,,,,,,,,,,,,,,,,7,weak,65,-38.5,1,0,0,response3disk,3,55,19,-7.5,1,0,0,rectangle,19,-7.5,1,0,0,7,2,0.003335,19,-7.5,1,0,0,0,54,54,81,1,0,,,,,,,,,,,,,,,,,,,,,
,,,,,,,,,,,,,,,,,,,,,,,,,,,,,,,,,,,,,,,,,,5f9aba6600cdf11f1c9b915c,606bfa88dbd290d72095ede2,2021-04-06_08h23.50.307,Colour_Similarity_Experiment,2020.2.10,Win32,60,60675255c767bca6388caeee,17.50156682,17.10932895,22.36541714,16.85827842,16.68218278,17.10932895,,,,,,,,,,,,,,,,,,,,PF,3,weak,,,,,,,,3,1.499215,,,,,,,,,,,,,,,,,,,,,,,,,,,,5,weak,-45,-79.5,1,0,0,response5disk,2,56,5,2.5,1,0,0,rectangle,5,2.5,1,0,0,7,3,0.001455,5,2.5,1,0,0,0,55,55,129,1,0,,,,,,,,,,,,,,,,,,,,,
,,,,,,,,,,,,,,,,,,,,,,,,,,,,,,,,,,,,,,,,,,5f9aba6600cdf11f1c9b915c,606bfa88dbd290d72095ede2,2021-04-06_08h23.50.307,Colour_Similarity_Experiment,2020.2.10,Win32,60,60675255c767bca6388caeee,17.50156682,17.10932895,22.36541714,16.85827842,16.68218278,17.10932895,,,,,,,,,,,,,,,,,,,,PF,3,weak,,,,,,,,4,2.36609,,,,,,,,,,,,,,,,,,,,,,,,,,,,1,weak,48,-62.5,1,0,0,response3disk,5,57,16,-7.5,1,0,0,rectangle,16,-7.5,1,0,0,7,6,0.00115,16,-7.5,1,0,0,0,56,56,28,1,0,,,,,,,,,,,,,,,,,,,,,
,,,,,,,,,,,,,,,,,,,,,,,,,,,,,,,,,,,,,,,,,,5f9aba6600cdf11f1c9b915c,606bfa88dbd290d72095ede2,2021-04-06_08h23.50.307,Colour_Similarity_Experiment,2020.2.10,Win32,60,60675255c767bca6388caeee,17.50156682,17.10932895,22.36541714,16.85827842,16.68218278,17.10932895,,,,,,,,,,,,,,,,,,,,PF,3,weak,,,,,,,,2,1.578445,,,,,,,,,,,,,,,,,,,,,,,,,,,,8,weak,-70,-30.5,1,0,0,response5disk,7,58,-11,-2.5,1,0,0,rectangle,-11,-2.5,1,0,0,7,3,0.002675,-11,-2.5,1,0,0,0,57,57,23,1,0,,,,,,,,,,,,,,,,,,,,,
,,,,,,,,,,,,,,,,,,,,,,,,,,,,,,,,,,,,,,,,,,5f9aba6600cdf11f1c9b915c,606bfa88dbd290d72095ede2,2021-04-06_08h23.50.307,Colour_Similarity_Experiment,2020.2.10,Win32,60,60675255c767bca6388caeee,17.50156682,17.10932895,22.36541714,16.85827842,16.68218278,17.10932895,,,,,,,,,,,,,,,,,,,,PF,3,strong,,,,,,,,5,1.799215,,,,,,,,,,,,,,,,,,,,,,,,,,,,6,strong,95,-69.5,1,0,0,response3disk,4,59,19,-4.5,1,0,0,rectangle,19,-4.5,1,0,0,7,3,0.000345,19,-4.5,1,0,0,0,58,58,56,1,0,,,,,,,,,,,,,,,,,,,,,
,,,,,,,,,,,,,,,,,,,,,,,,,,,,,,,,,,,,,,,,,,5f9aba6600cdf11f1c9b915c,606bfa88dbd290d72095ede2,2021-04-06_08h23.50.307,Colour_Similarity_Experiment,2020.2.10,Win32,60,60675255c767bca6388caeee,17.50156682,17.10932895,22.36541714,16.85827842,16.68218278,17.10932895,,,,,,,,,,,,,,,,,,,,PF,3,weak,,,,,,,,4,2.599645,,,,,,,,,,,,,,,,,,,,,,,,,,,,5,weak,42,-100.5,1,0,0,response3disk,9,60,12,6.5,1,0,0,rectangle,38,-70.5,1,0,0,4,4,2.46545,24,-9.5,1,0,0,0,59,59,136,1,1,response3disk_3,rectangle,,,,,,,,,,,,,,,,,,,
,,,,,,,,,,,,,,,,,,,,,,,,,,,,,,,,,,,,,,,,,,5f9aba6600cdf11f1c9b915c,606bfa88dbd290d72095ede2,2021-04-06_08h23.50.307,Colour_Similarity_Experiment,2020.2.10,Win32,60,60675255c767bca6388caeee,17.50156682,17.10932895,22.36541714,16.85827842,16.68218278,17.10932895,,,,,,,,,,,,,,,,,,,,PF,3,strong,,,,,,,,1,1.26694,,,,,,,,,,,,,,,,,,,,,,,,,,,,9,strong,-49,23.5,1,0,0,response7disk,1,61,2,1.5,1,0,0,rectangle,2,1.5,1,0,0,4,0,0.00201,2,1.5,1,0,0,0,60,60,111,1,0,,,,,,,,,,,,,,,,,,,,,
,,,,,,,,,,,,,,,,,,,,,,,,,,,,,,,,,,,,,,,,,,5f9aba6600cdf11f1c9b915c,606bfa88dbd290d72095ede2,2021-04-06_08h23.50.307,Colour_Similarity_Experiment,2020.2.10,Win32,60,60675255c767bca6388caeee,17.50156682,17.10932895,22.36541714,16.85827842,16.68218278,17.10932895,,,,,,,,,,,,,,,,,,,,PF,3,strong,,,,,,,,4,1.582125,,,,,,,,,,,,,,,,,,,,,,,,,,,,7,strong,78,-101.5,1,0,0,response3disk,7,62,-6,8.5,1,0,0,rectangle,-6,8.5,1,0,0,4,4,0.002585,-6,8.5,1,0,0,0,61,61,34,1,0,,,,,,,,,,,,,,,,,,,,,
,,,,,,,,,,,,,,,,,,,,,,,,,,,,,,,,,,,,,,,,,,5f9aba6600cdf11f1c9b915c,606bfa88dbd290d72095ede2,2021-04-06_08h23.50.307,Colour_Similarity_Experiment,2020.2.10,Win32,60,60675255c767bca6388caeee,17.50156682,17.10932895,22.36541714,16.85827842,16.68218278,17.10932895,,,,,,,,,,,,,,,,,,,,PF,3,weak,,,,,,,,1,1.748475,,,,,,,,,,,,,,,,,,,,,,,,,,,,9,weak,-52,35.5,1,0,0,response7disk,6,63,-3,-3.5,1,0,0,rectangle,-3,-3.5,1,0,0,4,7,0.004095,-3,-3.5,1,0,0,0,62,62,148,1,0,,,,,,,,,,,,,,,,,,,,,
,,,,,,,,,,,,,,,,,,,,,,,,,,,,,,,,,,,,,,,,,,5f9aba6600cdf11f1c9b915c,606bfa88dbd290d72095ede2,2021-04-06_08h23.50.307,Colour_Similarity_Experiment,2020.2.10,Win32,60,60675255c767bca6388caeee,17.50156682,17.10932895,22.36541714,16.85827842,16.68218278,17.10932895,,,,,,,,,,,,,,,,,,,,PF,3,weak,,,,,,,,4,1.934115,,,,,,,,,,,,,,,,,,,,,,,,,,,,8,weak,64,-83.5,1,0,0,response3disk,1,64,-7,2.5,1,0,0,rectangle,-7,2.5,1,0,0,4,2,0.00242,-7,2.5,1,0,0,0,63,63,57,1,0,,,,,,,,,,,,,,,,,,,,,
,,,,,,,,,,,,,,,,,,,,,,,,,,,,,,,,,,,,,,,,,,5f9aba6600cdf11f1c9b915c,606bfa88dbd290d72095ede2,2021-04-06_08h23.50.307,Colour_Similarity_Experiment,2020.2.10,Win32,60,60675255c767bca6388caeee,17.50156682,17.10932895,22.36541714,16.85827842,16.68218278,17.10932895,,,,,,,,,,,,,,,,,,,,PF,3,strong,,,,,,,,0,1.09834,,,,,,,,,,,,,,,,,,,,,,,,,,,,3,strong,-36,88.5,1,0,0,response7disk,1,65,-15,7.5,1,0,0,rectangle,-15,7.5,1,0,0,4,5,0.002315,-15,7.5,1,0,0,0,64,64,125,1,0,,,,,,,,,,,,,,,,,,,,,
,,,,,,,,,,,,,,,,,,,,,,,,,,,,,,,,,,,,,,,,,,5f9aba6600cdf11f1c9b915c,606bfa88dbd290d72095ede2,2021-04-06_08h23.50.307,Colour_Similarity_Experiment,2020.2.10,Win32,60,60675255c767bca6388caeee,17.50156682,17.10932895,22.36541714,16.85827842,16.68218278,17.10932895,,,,,,,,,,,,,,,,,,,,PF,3,strong,,,,,,,,4,1.314805,,,,,,,,,,,,,,,,,,,,,,,,,,,,9,strong,23,-52.5,1,0,0,response3disk,5,66,3,-1.5,1,0,0,rectangle,3,-1.5,1,0,0,4,4,0.00152,3,-1.5,1,0,0,0,65,65,128,1,0,,,,,,,,,,,,,,,,,,,,,
,,,,,,,,,,,,,,,,,,,,,,,,,,,,,,,,,,,,,,,,,,5f9aba6600cdf11f1c9b915c,606bfa88dbd290d72095ede2,2021-04-06_08h23.50.307,Colour_Similarity_Experiment,2020.2.10,Win32,60,60675255c767bca6388caeee,17.50156682,17.10932895,22.36541714,16.85827842,16.68218278,17.10932895,,,,,,,,,,,,,,,,,,,,PF,3,strong,,,,,,,,4,1.314765,,,,,,,,,,,,,,,,,,,,,,,,,,,,1,strong,17,-61.5,1,0,0,response3disk,1,67,13,0.5,1,0,0,rectangle,13,0.5,1,0,0,4,1,0.00206,13,0.5,1,0,0,0,66,66,151,1,0,,,,,,,,,,,,,,,,,,,,,
,,,,,,,,,,,,,,,,,,,,,,,,,,,,,,,,,,,,,,,,,,5f9aba6600cdf11f1c9b915c,606bfa88dbd290d72095ede2,2021-04-06_08h23.50.307,Colour_Similarity_Experiment,2020.2.10,Win32,60,60675255c767bca6388caeee,17.50156682,17.10932895,22.36541714,16.85827842,16.68218278,17.10932895,,,,,,,,,,,,,,,,,,,,PF,3,strong,,,,,,,,0,1.23522,,,,,,,,,,,,,,,,,,,,,,,,,,,,8,strong,-33,73.5,1,0,0,response7disk,1,68,-9,-5.5,1,0,0,rectangle,-9,-5.5,1,0,0,4,3,0.000945,-9,-5.5,1,0,0,0,67,67,20,1,0,,,,,,,,,,,,,,,,,,,,,
,,,,,,,,,,,,,,,,,,,,,,,,,,,,,,,,,,,,,,,,,,5f9aba6600cdf11f1c9b915c,606bfa88dbd290d72095ede2,2021-04-06_08h23.50.307,Colour_Similarity_Experiment,2020.2.10,Win32,60,60675255c767bca6388caeee,17.50156682,17.10932895,22.36541714,16.85827842,16.68218278,17.10932895,,,,,,,,,,,,,,,,,,,,PF,3,strong,,,,,,,,2,2.01627,,,,,,,,,,,,,,,,,,,,,,,,,,,,2,strong,-86,-37.5,1,0,0,response5disk,9,69,-9,-7.5,1,0,0,rectangle,-9,-7.5,1,0,0,4,3,0.00051,-9,-7.5,1,0,0,0,68,68,72,1,0,,,,,,,,,,,,,,,,,,,,,
,,,,,,,,,,,,,,,,,,,,,,,,,,,,,,,,,,,,,,,,,,5f9aba6600cdf11f1c9b915c,606bfa88dbd290d72095ede2,2021-04-06_08h23.50.307,Colour_Similarity_Experiment,2020.2.10,Win32,60,60675255c767bca6388caeee,17.50156682,17.10932895,22.36541714,16.85827842,16.68218278,17.10932895,,,,,,,,,,,,,,,,,,,,PF,3,strong,,,,,,,,5,1.382175,,,,,,,,,,,,,,,,,,,,,,,,,,,,9,strong,99,-33.5,1,0,0,response3disk,7,70,12,0.5,1,0,0,rectangle,12,0.5,1,0,0,4,7,0.001015,12,0.5,1,0,0,0,69,69,100,1,0,,,,,,,,,,,,,,,,,,,,,
,,,,,,,,,,,,,,,,,,,,,,,,,,,,,,,,,,,,,,,,,,5f9aba6600cdf11f1c9b915c,606bfa88dbd290d72095ede2,2021-04-06_08h23.50.307,Colour_Similarity_Experiment,2020.2.10,Win32,60,60675255c767bca6388caeee,17.50156682,17.10932895,22.36541714,16.85827842,16.68218278,17.10932895,,,,,,,,,,,,,,,,,,,,PF,3,weak,,,,,,,,2,1.99928,,,,,,,,,,,,,,,,,,,,,,,,,,,,7,weak,-71,-51.5,1,0,0,response5disk,5,71,-13,-2.5,1,0,0,rectangle,-13,-2.5,1,0,0,4,5,0.002965,-13,-2.5,1,0,0,0,70,70,92,1,0,,,,,,,,,,,,,,,,,,,,,
,,,,,,,,,,,,,,,,,,,,,,,,,,,,,,,,,,,,,,,,,,5f9aba6600cdf11f1c9b915c,606bfa88dbd290d72095ede2,2021-04-06_08h23.50.307,Colour_Similarity_Experiment,2020.2.10,Win32,60,60675255c767bca6388caeee,17.50156682,17.10932895,22.36541714,16.85827842,16.68218278,17.10932895,,,,,,,,,,,,,,,,,,,,PF,3,weak,,,,,,,,2,1.599985,,,,,,,,,,,,,,,,,,,,,,,,,,,,3,weak,-63,-39.5,1,0,0,response5disk,3,72,-23,3.5,1,0,0,rectangle,-23,3.5,1,0,0,4,3,0.00281,-23,3.5,1,0,0,0,71,71,4,1,0,,,,,,,,,,,,,,,,,,,,,
,,,,,,,,,,,,,,,,,,,,,,,,,,,,,,,,,,,,,,,,,,5f9aba6600cdf11f1c9b915c,606bfa88dbd290d72095ede2,2021-04-06_08h23.50.307,Colour_Similarity_Experiment,2020.2.10,Win32,60,60675255c767bca6388caeee,17.50156682,17.10932895,22.36541714,16.85827842,16.68218278,17.10932895,,,,,,,,,,,,,,,,,,,,PF,3,weak,,,,,,,,2,1.00019,,,,,,,,,,,,,,,,,,,,,,,,,,,,9,weak,-56,-29.5,1,0,0,response5disk,5,73,-16,1.5,1,0,0,rectangle,-16,1.5,1,0,0,4,5,0.002305,-16,1.5,1,0,0,0,72,72,134,1,0,,,,,,,,,,,,,,,,,,,,,
,,,,,,,,,,,,,,,,,,,,,,,,,,,,,,,,,,,,,,,,,,5f9aba6600cdf11f1c9b915c,606bfa88dbd290d72095ede2,2021-04-06_08h23.50.307,Colour_Similarity_Experiment,2020.2.10,Win32,60,60675255c767bca6388caeee,17.50156682,17.10932895,22.36541714,16.85827842,16.68218278,17.10932895,,,,,,,,,,,,,,,,,,,,PF,3,strong,,,,,,,,6,1.332095,,,,,,,,,,,,,,,,,,,,,,,,,,,,3,strong,53,36.5,1,0,0,response1disk,8,74,13,1.5,1,0,0,rectangle,13,1.5,1,0,0,4,0,0.00132,13,1.5,1,0,0,0,73,73,44,1,0,,,,,,,,,,,,,,,,,,,,,
,,,,,,,,,,,,,,,,,,,,,,,,,,,,,,,,,,,,,,,,,,5f9aba6600cdf11f1c9b915c,606bfa88dbd290d72095ede2,2021-04-06_08h23.50.307,Colour_Similarity_Experiment,2020.2.10,Win32,60,60675255c767bca6388caeee,17.50156682,17.10932895,22.36541714,16.85827842,16.68218278,17.10932895,,,,,,,,,,,,,,,,,,,,PF,3,weak,,,,,,,,6,1.633315,,,,,,,,,,,,,,,,,,,,,,,,,,,,1,weak,57,20.5,1,0,0,response1disk,4,75,12,-9.5,1,0,0,rectangle,12,-9.5,1,0,0,4,3,0.00161,12,-9.5,1,0,0,0,74,74,139,1,0,,,,,,,,,,,,,,,,,,,,,
,,,,,,,,,,,,,,,,,,,,,,,,,,,,,,,,,,,,,,,,,,5f9aba6600cdf11f1c9b915c,606bfa88dbd290d72095ede2,2021-04-06_08h23.50.307,Colour_Similarity_Experiment,2020.2.10,Win32,60,60675255c767bca6388caeee,17.50156682,17.10932895,22.36541714,16.85827842,16.68218278,17.10932895,,,,,,,,,,,,,,,,,,,,PF,3,weak,,,,,,,,6,1.3028,,,,,,,,,,,,,,,,,,,,,,,,,,,,6,weak,59,40.5,1,0,0,response1disk,8,76,25,11.5,1,0,0,rectangle,25,11.5,1,0,0,4,3,0.00121,25,11.5,1,0,0,0,75,75,64,1,0,,,,,,,,,,,,,,,,,,,,,
,,,,,,,,,,,,,,,,,,,,,,,,,,,,,,,,,,,,,,,,,,5f9aba6600cdf11f1c9b915c,606bfa88dbd290d72095ede2,2021-04-06_08h23.50.307,Colour_Similarity_Experiment,2020.2.10,Win32,60,60675255c767bca6388caeee,17.50156682,17.10932895,22.36541714,16.85827842,16.68218278,17.10932895,,,,,,,,,,,,,,,,,,,,PF,3,strong,,,,,,,,3,1.36764,,,,,,,,,,,,,,,,,,,,,,,,,,,,8,strong,-33,-100.5,1,0,0,response5disk,7,77,-1,-5.5,1,0,0,rectangle,-1,-5.5,1,0,0,4,5,0.001115,-1,-5.5,1,0,0,0,76,76,86,1,0,,,,,,,,,,,,,,,,,,,,,
,,,,,,,,,,,,,,,,,,,,,,,,,,,,,,,,,,,,,,,,,,5f9aba6600cdf11f1c9b915c,606bfa88dbd290d72095ede2,2021-04-06_08h23.50.307,Colour_Similarity_Experiment,2020.2.10,Win32,60,60675255c767bca6388caeee,17.50156682,17.10932895,22.36541714,16.85827842,16.68218278,17.10932895,,,,,,,,,,,,,,,,,,,,PF,3,weak,,,,,,,,5,1.63352,,,,,,,,,,,,,,,,,,,,,,,,,,,,3,weak,84,-59.5,1,0,0,response3disk,9,78,26,8.5,1,0,0,rectangle,26,8.5,1,0,0,4,2,0.00151,26,8.5,1,0,0,0,77,77,79,1,0,,,,,,,,,,,,,,,,,,,,,
,,,,,,,,,,,,,,,,,,,,,,,,,,,,,,,,,,,,,,,,,,5f9aba6600cdf11f1c9b915c,606bfa88dbd290d72095ede2,2021-04-06_08h23.50.307,Colour_Similarity_Experiment,2020.2.10,Win32,60,60675255c767bca6388caeee,17.50156682,17.10932895,22.36541714,16.85827842,16.68218278,17.10932895,,,,,,,,,,,,,,,,,,,,PF,3,weak,,,,,,,,5,1.015585,,,,,,,,,,,,,,,,,,,,,,,,,,,,4,weak,63,-31.5,1,0,0,response3disk,6,79,13,10.5,1,0,0,rectangle,13,10.5,1,0,0,4,1,0.003815,13,10.5,1,0,0,0,78,78,120,1,0,,,,,,,,,,,,,,,,,,,,,
,,,,,,,,,,,,,,,,,,,,,,,,,,,,,,,,,,,,,,,,,,5f9aba6600cdf11f1c9b915c,606bfa88dbd290d72095ede2,2021-04-06_08h23.50.307,Colour_Similarity_Experiment,2020.2.10,Win32,60,60675255c767bca6388caeee,17.50156682,17.10932895,22.36541714,16.85827842,16.68218278,17.10932895,,,,,,,,,,,,,,,,,,,,PF,3,weak,,,,,,,,3,1.3661,,,,,,,,,,,,,,,,,,,,,,,,,,,,6,weak,-46,-57.5,1,0,0,response5disk,7,80,-1,-2.5,1,0,0,rectangle,-1,-2.5,1,0,0,4,3,0.00133,-1,-2.5,1,0,0,0,79,79,50,1,0,,,,,,,,,,,,,,,,,,,,,
,,,,,,,,,,,,,,,,,,,,,,,,,,,,,,,,,,,,,,,,,,5f9aba6600cdf11f1c9b915c,606bfa88dbd290d72095ede2,2021-04-06_08h23.50.307,Colour_Similarity_Experiment,2020.2.10,Win32,60,60675255c767bca6388caeee,17.50156682,17.10932895,22.36541714,16.85827842,16.68218278,17.10932895,,,,,,,,,,,,,,,,,,,,PF,3,weak,,,,,,,,4,1.04859,,,,,,,,,,,,,,,,,,,,,,,,,,,,5,weak,52,-79.5,1,0,0,response3disk,3,81,14,-10.5,1,0,0,rectangle,14,-10.5,1,0,0,4,3,0.000105,14,-10.5,1,0,0,0,80,80,109,1,0,,,,,,,,,,,,,,,,,,,,,
,,,,,,,,,,,,,,,,,,,,,,,,,,,,,,,,,,,,,,,,,,5f9aba6600cdf11f1c9b915c,606bfa88dbd290d72095ede2,2021-04-06_08h23.50.307,Colour_Similarity_Experiment,2020.2.10,Win32,60,60675255c767bca6388caeee,17.50156682,17.10932895,22.36541714,16.85827842,16.68218278,17.10932895,,,,,,,,,,,,,,,,,,,,PF,3,strong,,,,,,,,3,1.048795,,,,,,,,,,,,,,,,,,,,,,,,,,,,1,strong,-37,-74.5,1,0,0,response5disk,6,82,-1,-8.5,1,0,0,rectangle,-1,-8.5,1,0,0,4,5,0.00204,-1,-8.5,1,0,0,0,81,81,58,1,0,,,,,,,,,,,,,,,,,,,,,
,,,,,,,,,,,,,,,,,,,,,,,,,,,,,,,,,,,,,,,,,,5f9aba6600cdf11f1c9b915c,606bfa88dbd290d72095ede2,2021-04-06_08h23.50.307,Colour_Similarity_Experiment,2020.2.10,Win32,60,60675255c767bca6388caeee,17.50156682,17.10932895,22.36541714,16.85827842,16.68218278,17.10932895,,,,,,,,,,,,,,,,,,,,PF,3,weak,,,,,,,,2,1.397895,,,,,,,,,,,,,,,,,,,,,,,,,,,,7,weak,-89,-43.5,1,0,0,response5disk,7,83,-19,-2.5,1,0,0,rectangle,-19,-2.5,1,0,0,4,1,0.001095,-19,-2.5,1,0,0,0,82,82,51,1,0,,,,,,,,,,,,,,,,,,,,,
,,,,,,,,,,,,,,,,,,,,,,,,,,,,,,,,,,,,,,,,,,5f9aba6600cdf11f1c9b915c,606bfa88dbd290d72095ede2,2021-04-06_08h23.50.307,Colour_Similarity_Experiment,2020.2.10,Win32,60,60675255c767bca6388caeee,17.50156682,17.10932895,22.36541714,16.85827842,16.68218278,17.10932895,,,,,,,,,,,,,,,,,,,,PF,3,strong,,,,,,,,0,1.6825,,,,,,,,,,,,,,,,,,,,,,,,,,,,3,strong,-21,67.5,1,0,0,response7disk,7,84,0,10.5,1,0,0,rectangle,0,10.5,1,0,0,4,1,0.00084,0,10.5,1,0,0,0,83,83,118,1,0,,,,,,,,,,,,,,,,,,,,,
,,,,,,,,,,,,,,,,,,,,,,,,,,,,,,,,,,,,,,,,,,5f9aba6600cdf11f1c9b915c,606bfa88dbd290d72095ede2,2021-04-06_08h23.50.307,Colour_Similarity_Experiment,2020.2.10,Win32,60,60675255c767bca6388caeee,17.50156682,17.10932895,22.36541714,16.85827842,16.68218278,17.10932895,,,,,,,,,,,,,,,,,,,,PF,3,strong,,,,,,,,0,0.947665,,,,,,,,,,,,,,,,,,,,,,,,,,,,6,strong,-26,70.5,1,0,0,response7disk,7,85,-18,6.5,1,0,0,rectangle,-18,6.5,1,0,0,4,7,0.002115,-18,6.5,1,0,0,0,84,84,18,1,0,,,,,,,,,,,,,,,,,,,,,
,,,,,,,,,,,,,,,,,,,,,,,,,,,,,,,,,,,,,,,,,,5f9aba6600cdf11f1c9b915c,606bfa88dbd290d72095ede2,2021-04-06_08h23.50.307,Colour_Similarity_Experiment,2020.2.10,Win32,60,60675255c767bca6388caeee,17.50156682,17.10932895,22.36541714,16.85827842,16.68218278,17.10932895,,,,,,,,,,,,,,,,,,,,PF,3,weak,,,,,,,,5,1.71779,,,,,,,,,,,,,,,,,,,,,,,,,,,,9,weak,56,-46.5,1,0,0,response3disk,9,86,20,-2.5,1,0,0,rectangle,20,-2.5,1,0,0,4,3,0.00222,20,-2.5,1,0,0,0,85,85,106,1,0,,,,,,,,,,,,,,,,,,,,,
,,,,,,,,,,,,,,,,,,,,,,,,,,,,,,,,,,,,,,,,,,5f9aba6600cdf11f1c9b915c,606bfa88dbd290d72095ede2,2021-04-06_08h23.50.307,Colour_Similarity_Experiment,2020.2.10,Win32,60,60675255c767bca6388caeee,17.50156682,17.10932895,22.36541714,16.85827842,16.68218278,17.10932895,,,,,,,,,,,,,,,,,,,,PF,3,strong,,,,,,,,4,1.217605,,,,,,,,,,,,,,,,,,,,,,,,,,,,9,strong,45,-87.5,1,0,0,response3disk,3,87,24,-9.5,1,0,0,rectangle,24,-9.5,1,0,0,4,2,0.0025,24,-9.5,1,0,0,0,86,86,141,1,0,,,,,,,,,,,,,,,,,,,,,
,,,,,,,,,,,,,,,,,,,,,,,,,,,,,,,,,,,,,,,,,,5f9aba6600cdf11f1c9b915c,606bfa88dbd290d72095ede2,2021-04-06_08h23.50.307,Colour_Similarity_Experiment,2020.2.10,Win32,60,60675255c767bca6388caeee,17.50156682,17.10932895,22.36541714,16.85827842,16.68218278,17.10932895,,,,,,,,,,,,,,,,,,,,PF,3,weak,,,,,,,,0,1.09903,,,,,,,,,,,,,,,,,,,,,,,,,,,,7,weak,-26,75.5,1,0,0,response7disk,4,88,-12,-5.5,1,0,0,rectangle,-12,-5.5,1,0,0,4,2,0.000225,-12,-5.5,1,0,0,0,87,87,43,1,0,,,,,,,,,,,,,,,,,,,,,
,,,,,,,,,,,,,,,,,,,,,,,,,,,,,,,,,,,,,,,,,,5f9aba6600cdf11f1c9b915c,606bfa88dbd290d72095ede2,2021-04-06_08h23.50.307,Colour_Similarity_Experiment,2020.2.10,Win32,60,60675255c767bca6388caeee,17.50156682,17.10932895,22.36541714,16.85827842,16.68218278,17.10932895,,,,,,,,,,,,,,,,,,,,PF,3,weak,,,,,,,,6,1.217215,,,,,,,,,,,,,,,,,,,,,,,,,,,,7,weak,70,37.5,1,0,0,response1disk,9,89,20,9.5,1,0,0,rectangle,20,9.5,1,0,0,4,3,0.00168,20,9.5,1,0,0,0,88,88,10,1,0,,,,,,,,,,,,,,,,,,,,,
,,,,,,,,,,,,,,,,,,,,,,,,,,,,,,,,,,,,,,,,,,5f9aba6600cdf11f1c9b915c,606bfa88dbd290d72095ede2,2021-04-06_08h23.50.307,Colour_Similarity_Experiment,2020.2.10,Win32,60,60675255c767bca6388caeee,17.50156682,17.10932895,22.36541714,16.85827842,16.68218278,17.10932895,,,,,,,,,,,,,,,,,,,,PF,3,weak,,,,,,,,2,2.08165,,,,,,,,,,,,,,,,,,,,,,,,,,,,3,weak,-46,-26.5,1,0,0,response5disk,2,90,-13,-1.5,1,0,0,rectangle,34,-110.5,1,0,0,4,4,1.632285,14,-0.5,1,0,0,0,89,89,36,1,1,response3disk_3,rectangle,,,,,,,,,,,,,,,,,,,
,,,,,,,,,,,,,,,,,,,,,,,,,,,,,,,,,,,,,,,,,,5f9aba6600cdf11f1c9b915c,606bfa88dbd290d72095ede2,2021-04-06_08h23.50.307,Colour_Similarity_Experiment,2020.2.10,Win32,60,60675255c767bca6388caeee,17.50156682,17.10932895,22.36541714,16.85827842,16.68218278,17.10932895,,,,,,,,,,,,,,,,,,,,PF,3,weak,,,,,,,,2,1.18406,,,,,,,,,,,,,,,,,,,,,,,,,,,,9,weak,-73,-45.5,1,0,0,response5disk,4,91,-12,8.5,1,0,0,rectangle,-12,8.5,1,0,0,4,6,0.00155,-12,8.5,1,0,0,0,90,90,114,1,0,,,,,,,,,,,,,,,,,,,,,
,,,,,,,,,,,,,,,,,,,,,,,,,,,,,,,,,,,,,,,,,,5f9aba6600cdf11f1c9b915c,606bfa88dbd290d72095ede2,2021-04-06_08h23.50.307,Colour_Similarity_Experiment,2020.2.10,Win32,60,60675255c767bca6388caeee,17.50156682,17.10932895,22.36541714,16.85827842,16.68218278,17.10932895,,,,,,,,,,,,,,,,,,,,PF,3,strong,,,,,,,,4,2.315725,,,,,,,,,,,,,,,,,,,,,,,,,,,,8,strong,40,-101.5,1,0,0,response3disk,9,92,7,-8.5,1,0,0,rectangle,7,-8.5,1,0,0,4,5,0.00246,7,-8.5,1,0,0,0,91,91,105,1,0,,,,,,,,,,,,,,,,,,,,,
,,,,,,,,,,,,,,,,,,,,,,,,,,,,,,,,,,,,,,,,,,5f9aba6600cdf11f1c9b915c,606bfa88dbd290d72095ede2,2021-04-06_08h23.50.307,Colour_Similarity_Experiment,2020.2.10,Win32,60,60675255c767bca6388caeee,17.50156682,17.10932895,22.36541714,16.85827842,16.68218278,17.10932895,,,,,,,,,,,,,,,,,,,,PF,3,weak,,,,,,,,2,0.917225,,,,,,,,,,,,,,,,,,,,,,,,,,,,2,weak,-65,-51.5,1,0,0,response5disk,5,93,-4,2.5,1,0,0,rectangle,-4,2.5,1,0,0,4,6,0.001325,-4,2.5,1,0,0,0,92,92,147,1,0,,,,,,,,,,,,,,,,,,,,,
,,,,,,,,,,,,,,,,,,,,,,,,,,,,,,,,,,,,,,,,,,5f9aba6600cdf11f1c9b915c,606bfa88dbd290d72095ede2,2021-04-06_08h23.50.307,Colour_Similarity_Experiment,2020.2.10,Win32,60,60675255c767bca6388caeee,17.50156682,17.10932895,22.36541714,16.85827842,16.68218278,17.10932895,,,,,,,,,,,,,,,,,,,,PF,3,strong,,,,,,,,4,1.95164,,,,,,,,,,,,,,,,,,,,,,,,,,,,1,strong,39,-73.5,1,0,0,response3disk,9,94,18,-5.5,1,0,0,rectangle,18,-5.5,1,0,0,4,1,0.00133,18,-5.5,1,0,0,0,93,93,123,1,0,,,,,,,,,,,,,,,,,,,,,
,,,,,,,,,,,,,,,,,,,,,,,,,,,,,,,,,,,,,,,,,,5f9aba6600cdf11f1c9b915c,606bfa88dbd290d72095ede2,2021-04-06_08h23.50.307,Colour_Similarity_Experiment,2020.2.10,Win32,60,60675255c767bca6388caeee,17.50156682,17.10932895,22.36541714,16.85827842,16.68218278,17.10932895,,,,,,,,,,,,,,,,,,,,PF,3,strong,,,,,,,,4,0.97011,,,,,,,,,,,,,,,,,,,,,,,,,,,,1,strong,37,-57.5,1,0,0,response3disk,3,95,9,-4.5,1,0,0,rectangle,9,-4.5,1,0,0,4,5,0.00223,9,-4.5,1,0,0,0,94,94,99,1,0,,,,,,,,,,,,,,,,,,,,,
,,,,,,,,,,,,,,,,,,,,,,,,,,,,,,,,,,,,,,,,,,5f9aba6600cdf11f1c9b915c,606bfa88dbd290d72095ede2,2021-04-06_08h23.50.307,Colour_Similarity_Experiment,2020.2.10,Win32,60,60675255c767bca6388caeee,17.50156682,17.10932895,22.36541714,16.85827842,16.68218278,17.10932895,,,,,,,,,,,,,,,,,,,,PF,3,strong,,,,,,,,3,2.10098,,,,,,,,,,,,,,,,,,,,,,,,,,,,3,strong,-23,-73.5,1,0,0,response5disk,6,96,17,-3.5,1,0,0,rectangle,17,-3.5,1,0,0,4,0,0.001085,17,-3.5,1,0,0,0,95,95,95,1,0,,,,,,,,,,,,,,,,,,,,,
,,,,,,,,,,,,,,,,,,,,,,,,,,,,,,,,,,,,,,,,,,5f9aba6600cdf11f1c9b915c,606bfa88dbd290d72095ede2,2021-04-06_08h23.50.307,Colour_Similarity_Experiment,2020.2.10,Win32,60,60675255c767bca6388caeee,17.50156682,17.10932895,22.36541714,16.85827842,16.68218278,17.10932895,,,,,,,,,,,,,,,,,,,,PF,3,weak,,,,,,,,3,0.967555,,,,,,,,,,,,,,,,,,,,,,,,,,,,1,weak,-39,-82.5,1,0,0,response5disk,3,97,7,4.5,1,0,0,rectangle,7,4.5,1,0,0,4,1,0.001335,7,4.5,1,0,0,0,96,96,1,1,0,,,,,,,,,,,,,,,,,,,,,
,,,,,,,,,,,,,,,,,,,,,,,,,,,,,,,,,,,,,,,,,,5f9aba6600cdf11f1c9b915c,606bfa88dbd290d72095ede2,2021-04-06_08h23.50.307,Colour_Similarity_Experiment,2020.2.10,Win32,60,60675255c767bca6388caeee,17.50156682,17.10932895,22.36541714,16.85827842,16.68218278,17.10932895,,,,,,,,,,,,,,,,,,,,PF,3,strong,,,,,,,,5,2.73131,,,,,,,,,,,,,,,,,,,,,,,,,,,,1,strong,73,-41.5,1,0,0,response3disk,8,98,29,-0.5,1,0,0,rectangle,29,-0.5,1,0,0,4,7,0.002845,29,-0.5,1,0,0,0,97,97,27,1,0,,,,,,,,,,,,,,,,,,,,,
,,,,,,,,,,,,,,,,,,,,,,,,,,,,,,,,,,,,,,,,,,5f9aba6600cdf11f1c9b915c,606bfa88dbd290d72095ede2,2021-04-06_08h23.50.307,Colour_Similarity_Experiment,2020.2.10,Win32,60,60675255c767bca6388caeee,17.50156682,17.10932895,22.36541714,16.85827842,16.68218278,17.10932895,,,,,,,,,,,,,,,,,,,,PF,3,weak,,,,,,,,5,1.05144,,,,,,,,,,,,,,,,,,,,,,,,,,,,2,weak,59,-20.5,1,0,0,response3disk,4,99,24,6.5,1,0,0,rectangle,24,6.5,1,0,0,4,7,0.000595,24,6.5,1,0,0,0,98,98,127,1,0,,,,,,,,,,,,,,,,,,,,,
,,,,,,,,,,,,,,,,,,,,,,,,,,,,,,,,,,,,,,,,,,5f9aba6600cdf11f1c9b915c,606bfa88dbd290d72095ede2,2021-04-06_08h23.50.307,Colour_Similarity_Experiment,2020.2.10,Win32,60,60675255c767bca6388caeee,17.50156682,17.10932895,22.36541714,16.85827842,16.68218278,17.10932895,,,,,,,,,,,,,,,,,,,,PF,3,weak,,,,,,,,5,0.951385,,,,,,,,,,,,,,,,,,,,,,,,,,,,6,weak,61,-28.5,1,0,0,response3disk,9,100,10,5.5,1,0,0,rectangle,10,5.5,1,0,0,4,2,0.001345,10,5.5,1,0,0,0,99,99,45,1,0,,,,,,,,,,,,,,,,,,,,,
,,,,,,,,,,,,,,,,,,,,,,,,,,,,,,,,,,,,,,,,,,5f9aba6600cdf11f1c9b915c,606bfa88dbd290d72095ede2,2021-04-06_08h23.50.307,Colour_Similarity_Experiment,2020.2.10,Win32,60,60675255c767bca6388caeee,17.50156682,17.10932895,22.36541714,16.85827842,16.68218278,17.10932895,,,,,,,,,,,,,,,,,,,,PF,3,weak,,,,,,,,4,1.733855,,,,,,,,,,,,,,,,,,,,,,,,,,,,5,weak,34,-74.5,1,0,0,response3disk,6,101,18,-5.5,1,0,0,rectangle,18,-5.5,1,0,0,4,6,0.002385,18,-5.5,1,0,0,0,100,100,103,1,0,,,,,,,,,,,,,,,,,,,,,
,,,,,,,,,,,,,,,,,,,,,,,,,,,,,,,,,,,,,,,,,,5f9aba6600cdf11f1c9b915c,606bfa88dbd290d72095ede2,2021-04-06_08h23.50.307,Colour_Similarity_Experiment,2020.2.10,Win32,60,60675255c767bca6388caeee,17.50156682,17.10932895,22.36541714,16.85827842,16.68218278,17.10932895,,,,,,,,,,,,,,,,,,,,PF,3,strong,,,,,,,,5,1.081785,,,,,,,,,,,,,,,,,,,,,,,,,,,,6,strong,46,-40.5,1,0,0,response3disk,2,102,19,-4.5,1,0,0,rectangle,19,-4.5,1,0,0,4,2,0.00139,19,-4.5,1,0,0,0,101,101,112,1,0,,,,,,,,,,,,,,,,,,,,,
,,,,,,,,,,,,,,,,,,,,,,,,,,,,,,,,,,,,,,,,,,5f9aba6600cdf11f1c9b915c,606bfa88dbd290d72095ede2,2021-04-06_08h23.50.307,Colour_Similarity_Experiment,2020.2.10,Win32,60,60675255c767bca6388caeee,17.50156682,17.10932895,22.36541714,16.85827842,16.68218278,17.10932895,,,,,,,,,,,,,,,,,,,,PF,3,strong,,,,,,,,0,1.44935,,,,,,,,,,,,,,,,,,,,,,,,,,,,9,strong,-44,84.5,1,0,0,response7disk,2,103,-11,-6.5,1,0,0,rectangle,107,-77.5,1,0,0,5,5,388.13553,-8,-8.5,1,0,0,0,102,102,11,1,1,response3disk_3,rectangle,,,,,,,,,,,,,,,,,,,
,,,,,,,,,,,,,,,,,,,,,,,,,,,,,,,,,,,,,,,,,,5f9aba6600cdf11f1c9b915c,606bfa88dbd290d72095ede2,2021-04-06_08h23.50.307,Colour_Similarity_Experiment,2020.2.10,Win32,60,60675255c767bca6388caeee,17.50156682,17.10932895,22.36541714,16.85827842,16.68218278,17.10932895,,,,,,,,,,,,,,,,,,,,PF,3,weak,,,,,,,,2,2.01492,,,,,,,,,,,,,,,,,,,,,,,,,,,,5,weak,-120,-40.5,1,0,0,response5disk,1,104,-32,-11.5,1,0,0,rectangle,63,-31.5,1,0,0,5,5,1.515815,4,2.5,1,0,0,0,103,103,159,1,1,response3disk_3,rectangle,,,,,,,,,,,,,,,,,,,
,,,,,,,,,,,,,,,,,,,,,,,,,,,,,,,,,,,,,,,,,,5f9aba6600cdf11f1c9b915c,606bfa88dbd290d72095ede2,2021-04-06_08h23.50.307,Colour_Similarity_Experiment,2020.2.10,Win32,60,60675255c767bca6388caeee,17.50156682,17.10932895,22.36541714,16.85827842,16.68218278,17.10932895,,,,,,,,,,,,,,,,,,,,PF,3,strong,,,,,,,,3,1.4341,,,,,,,,,,,,,,,,,,,,,,,,,,,,7,strong,-45,-89.5,1,0,0,response5disk,9,105,8,-2.5,1,0,0,rectangle,8,-2.5,1,0,0,5,2,0.001425,8,-2.5,1,0,0,0,104,104,155,1,0,,,,,,,,,,,,,,,,,,,,,
,,,,,,,,,,,,,,,,,,,,,,,,,,,,,,,,,,,,,,,,,,5f9aba6600cdf11f1c9b915c,606bfa88dbd290d72095ede2,2021-04-06_08h23.50.307,Colour_Similarity_Experiment,2020.2.10,Win32,60,60675255c767bca6388caeee,17.50156682,17.10932895,22.36541714,16.85827842,16.68218278,17.10932895,,,,,,,,,,,,,,,,,,,,PF,3,weak,,,,,,,,0,1.36713,,,,,,,,,,,,,,,,,,,,,,,,,,,,4,weak,-42,97.5,1,0,0,response7disk,9,106,19,-2.5,1,0,0,rectangle,19,-2.5,1,0,0,5,1,0.00263,19,-2.5,1,0,0,0,105,105,75,1,0,,,,,,,,,,,,,,,,,,,,,
,,,,,,,,,,,,,,,,,,,,,,,,,,,,,,,,,,,,,,,,,,5f9aba6600cdf11f1c9b915c,606bfa88dbd290d72095ede2,2021-04-06_08h23.50.307,Colour_Similarity_Experiment,2020.2.10,Win32,60,60675255c767bca6388caeee,17.50156682,17.10932895,22.36541714,16.85827842,16.68218278,17.10932895,,,,,,,,,,,,,,,,,,,,PF,3,weak,,,,,,,,3,1.06654,,,,,,,,,,,,,,,,,,,,,,,,,,,,1,weak,-29,-51.5,1,0,0,response5disk,1,107,1,3.5,1,0,0,rectangle,29,75.5,1,0,0,7,7,2.63243,11,4.5,1,0,0,0,106,106,76,1,1,response1disk_3,rectangle,,,,,,,,,,,,,,,,,,,
,,,,,,,,,,,,,,,,,,,,,,,,,,,,,,,,,,,,,,,,,,5f9aba6600cdf11f1c9b915c,606bfa88dbd290d72095ede2,2021-04-06_08h23.50.307,Colour_Similarity_Experiment,2020.2.10,Win32,60,60675255c767bca6388caeee,17.50156682,17.10932895,22.36541714,16.85827842,16.68218278,17.10932895,,,,,,,,,,,,,,,,,,,,PF,3,weak,,,,,,,,3,1.16509,,,,,,,,,,,,,,,,,,,,,,,,,,,,8,weak,-51,-62.5,1,0,0,response5disk,9,108,16,-6.5,1,0,0,rectangle,16,-6.5,1,0,0,7,0,0.002225,16,-6.5,1,0,0,0,107,107,42,1,0,,,,,,,,,,,,,,,,,,,,,
,,,,,,,,,,,,,,,,,,,,,,,,,,,,,,,,,,,,,,,,,,5f9aba6600cdf11f1c9b915c,606bfa88dbd290d72095ede2,2021-04-06_08h23.50.307,Colour_Similarity_Experiment,2020.2.10,Win32,60,60675255c767bca6388caeee,17.50156682,17.10932895,22.36541714,16.85827842,16.68218278,17.10932895,,,,,,,,,,,,,,,,,,,,PF,3,weak,,,,,,,,3,1.315265,,,,,,,,,,,,,,,,,,,,,,,,,,,,2,weak,-53,-83.5,1,0,0,response5disk,1,109,1,7.5,1,0,0,rectangle,1,7.5,1,0,0,7,4,0.00224,1,7.5,1,0,0,0,108,108,9,1,0,,,,,,,,,,,,,,,,,,,,,
,,,,,,,,,,,,,,,,,,,,,,,,,,,,,,,,,,,,,,,,,,5f9aba6600cdf11f1c9b915c,606bfa88dbd290d72095ede2,2021-04-06_08h23.50.307,Colour_Similarity_Experiment,2020.2.10,Win32,60,60675255c767bca6388caeee,17.50156682,17.10932895,22.36541714,16.85827842,16.68218278,17.10932895,,,,,,,,,,,,,,,,,,,,PF,3,strong,,,,,,,,5,2.51301,,,,,,,,,,,,,,,,,,,,,,,,,,,,2,strong,87,-46.5,1,0,0,response3disk,8,110,29,-2.5,1,0,0,rectangle,29,-2.5,1,0,0,7,4,0.00023,29,-2.5,1,0,0,0,109,109,62,1,0,,,,,,,,,,,,,,,,,,,,,
,,,,,,,,,,,,,,,,,,,,,,,,,,,,,,,,,,,,,,,,,,5f9aba6600cdf11f1c9b915c,606bfa88dbd290d72095ede2,2021-04-06_08h23.50.307,Colour_Similarity_Experiment,2020.2.10,Win32,60,60675255c767bca6388caeee,17.50156682,17.10932895,22.36541714,16.85827842,16.68218278,17.10932895,,,,,,,,,,,,,,,,,,,,PF,3,weak,,,,,,,,5,1.282605,,,,,,,,,,,,,,,,,,,,,,,,,,,,4,weak,88,-35.5,1,0,0,response3disk,1,111,28,-1.5,1,0,0,rectangle,28,-1.5,1,0,0,7,6,0.00262,28,-1.5,1,0,0,0,110,110,115,1,0,,,,,,,,,,,,,,,,,,,,,
,,,,,,,,,,,,,,,,,,,,,,,,,,,,,,,,,,,,,,,,,,5f9aba6600cdf11f1c9b915c,606bfa88dbd290d72095ede2,2021-04-06_08h23.50.307,Colour_Similarity_Experiment,2020.2.10,Win32,60,60675255c767bca6388caeee,17.50156682,17.10932895,22.36541714,16.85827842,16.68218278,17.10932895,,,,,,,,,,,,,,,,,,,,PF,3,strong,,,,,,,,6,1.46719,,,,,,,,,,,,,,,,,,,,,,,,,,,,5,strong,92,43.5,1,0,0,response1disk,3,112,1,6.5,1,0,0,rectangle,1,6.5,1,0,0,7,6,0.00065,1,6.5,1,0,0,0,111,111,25,1,0,,,,,,,,,,,,,,,,,,,,,
,,,,,,,,,,,,,,,,,,,,,,,,,,,,,,,,,,,,,,,,,,5f9aba6600cdf11f1c9b915c,606bfa88dbd290d72095ede2,2021-04-06_08h23.50.307,Colour_Similarity_Experiment,2020.2.10,Win32,60,60675255c767bca6388caeee,17.50156682,17.10932895,22.36541714,16.85827842,16.68218278,17.10932895,,,,,,,,,,,,,,,,,,,,PF,3,weak,,,,,,,,4,2.89894,,,,,,,,,,,,,,,,,,,,,,,,,,,,9,weak,22,-67.5,1,0,0,response3disk,7,113,20,-6.5,1,0,0,rectangle,20,-6.5,1,0,0,7,3,0.00228,20,-6.5,1,0,0,0,112,112,121,1,0,,,,,,,,,,,,,,,,,,,,,
,,,,,,,,,,,,,,,,,,,,,,,,,,,,,,,,,,,,,,,,,,5f9aba6600cdf11f1c9b915c,606bfa88dbd290d72095ede2,2021-04-06_08h23.50.307,Colour_Similarity_Experiment,2020.2.10,Win32,60,60675255c767bca6388caeee,17.50156682,17.10932895,22.36541714,16.85827842,16.68218278,17.10932895,,,,,,,,,,,,,,,,,,,,PF,3,weak,,,,,,,,4,1.93227,,,,,,,,,,,,,,,,,,,,,,,,,,,,4,weak,48,-63.5,1,0,0,response3disk,4,114,27,-1.5,1,0,0,rectangle,27,-1.5,1,0,0,7,7,0.002015,27,-1.5,1,0,0,0,113,113,70,1,0,,,,,,,,,,,,,,,,,,,,,
,,,,,,,,,,,,,,,,,,,,,,,,,,,,,,,,,,,,,,,,,,5f9aba6600cdf11f1c9b915c,606bfa88dbd290d72095ede2,2021-04-06_08h23.50.307,Colour_Similarity_Experiment,2020.2.10,Win32,60,60675255c767bca6388caeee,17.50156682,17.10932895,22.36541714,16.85827842,16.68218278,17.10932895,,,,,,,,,,,,,,,,,,,,PF,3,strong,,,,,,,,0,1.465805,,,,,,,,,,,,,,,,,,,,,,,,,,,,4,strong,-32,77.5,1,0,0,response7disk,3,115,-24,-5.5,1,0,0,rectangle,-24,-5.5,1,0,0,7,1,0.00231,-24,-5.5,1,0,0,0,114,114,77,1,0,,,,,,,,,,,,,,,,,,,,,
,,,,,,,,,,,,,,,,,,,,,,,,,,,,,,,,,,,,,,,,,,5f9aba6600cdf11f1c9b915c,606bfa88dbd290d72095ede2,2021-04-06_08h23.50.307,Colour_Similarity_Experiment,2020.2.10,Win32,60,60675255c767bca6388caeee,17.50156682,17.10932895,22.36541714,16.85827842,16.68218278,17.10932895,,,,,,,,,,,,,,,,,,,,PF,3,strong,,,,,,,,0,0.8463,,,,,,,,,,,,,,,,,,,,,,,,,,,,7,strong,-34,77.5,1,0,0,response7disk,3,116,-15,-2.5,1,0,0,rectangle,-15,-2.5,1,0,0,7,4,0.000975,-15,-2.5,1,0,0,0,115,115,73,1,0,,,,,,,,,,,,,,,,,,,,,
,,,,,,,,,,,,,,,,,,,,,,,,,,,,,,,,,,,,,,,,,,5f9aba6600cdf11f1c9b915c,606bfa88dbd290d72095ede2,2021-04-06_08h23.50.307,Colour_Similarity_Experiment,2020.2.10,Win32,60,60675255c767bca6388caeee,17.50156682,17.10932895,22.36541714,16.85827842,16.68218278,17.10932895,,,,,,,,,,,,,,,,,,,,PF,3,strong,,,,,,,,5,1.66582,,,,,,,,,,,,,,,,,,,,,,,,,,,,9,strong,52,-43.5,1,0,0,response3disk,8,117,-8,-3.5,1,0,0,rectangle,-8,-3.5,1,0,0,7,2,0.00231,-8,-3.5,1,0,0,0,116,116,6,1,0,,,,,,,,,,,,,,,,,,,,,
,,,,,,,,,,,,,,,,,,,,,,,,,,,,,,,,,,,,,,,,,,5f9aba6600cdf11f1c9b915c,606bfa88dbd290d72095ede2,2021-04-06_08h23.50.307,Colour_Similarity_Experiment,2020.2.10,Win32,60,60675255c767bca6388caeee,17.50156682,17.10932895,22.36541714,16.85827842,16.68218278,17.10932895,,,,,,,,,,,,,,,,,,,,PF,3,weak,,,,,,,,4,2.216375,,,,,,,,,,,,,,,,,,,,,,,,,,,,2,weak,45,-94.5,1,0,0,response3disk,2,118,19,-9.5,1,0,0,rectangle,19,-9.5,1,0,0,7,2,0.000365,19,-9.5,1,0,0,0,117,117,14,1,0,,,,,,,,,,,,,,,,,,,,,
,,,,,,,,,,,,,,,,,,,,,,,,,,,,,,,,,,,,,,,,,,5f9aba6600cdf11f1c9b915c,606bfa88dbd290d72095ede2,2021-04-06_08h23.50.307,Colour_Similarity_Experiment,2020.2.10,Win32,60,60675255c767bca6388caeee,17.50156682,17.10932895,22.36541714,16.85827842,16.68218278,17.10932895,,,,,,,,,,,,,,,,,,,,PF,3,strong,,,,,,,,0,1.399865,,,,,,,,,,,,,,,,,,,,,,,,,,,,1,strong,-73,115.5,1,0,0,response7disk,2,119,-22,8.5,1,0,0,rectangle,-22,8.5,1,0,0,7,4,0.001825,-22,8.5,1,0,0,0,118,118,2,1,0,,,,,,,,,,,,,,,,,,,,,
,,,,,,,,,,,,,,,,,,,,,,,,,,,,,,,,,,,,,,,,,,5f9aba6600cdf11f1c9b915c,606bfa88dbd290d72095ede2,2021-04-06_08h23.50.307,Colour_Similarity_Experiment,2020.2.10,Win32,60,60675255c767bca6388caeee,17.50156682,17.10932895,22.36541714,16.85827842,16.68218278,17.10932895,,,,,,,,,,,,,,,,,,,,PF,3,weak,,,,,,,,6,1.06626,,,,,,,,,,,,,,,,,,,,,,,,,,,,3,weak,66,28.5,1,0,0,response1disk,6,120,11,-8.5,1,0,0,rectangle,11,-8.5,1,0,0,7,7,0.001255,11,-8.5,1,0,0,0,119,119,47,1,0,,,,,,,,,,,,,,,,,,,,,
,,,,,,,,,,,,,,,,,,,,,,,,,,,,,,,,,,,,,,,,,,5f9aba6600cdf11f1c9b915c,606bfa88dbd290d72095ede2,2021-04-06_08h23.50.307,Colour_Similarity_Experiment,2020.2.10,Win32,60,60675255c767bca6388caeee,17.50156682,17.10932895,22.36541714,16.85827842,16.68218278,17.10932895,,,,,,,,,,,,,,,,,,,,PF,3,strong,,,,,,,,6,1.74937,,,,,,,,,,,,,,,,,,,,,,,,,,,,6,strong,119,52.5,1,0,0,response1disk,9,121,30,8.5,1,0,0,rectangle,-66,37.5,1,0,0,1,1,2.148625,-18,11.5,1,0,0,0,120,120,160,1,1,response7disk_3,rectangle,,,,,,,,,,,,,,,,,,,
,,,,,,,,,,,,,,,,,,,,,,,,,,,,,,,,,,,,,,,,,,5f9aba6600cdf11f1c9b915c,606bfa88dbd290d72095ede2,2021-04-06_08h23.50.307,Colour_Similarity_Experiment,2020.2.10,Win32,60,60675255c767bca6388caeee,17.50156682,17.10932895,22.36541714,16.85827842,16.68218278,17.10932895,,,,,,,,,,,,,,,,,,,,PF,3,weak,,,,,,,,3,1.28394,,,,,,,,,,,,,,,,,,,,,,,,,,,,5,weak,-50,-90.5,1,0,0,response5disk,5,122,-6,-2.5,1,0,0,rectangle,-6,-2.5,1,0,0,1,4,0.0017,-6,-2.5,1,0,0,0,121,121,94,1,0,,,,,,,,,,,,,,,,,,,,,
,,,,,,,,,,,,,,,,,,,,,,,,,,,,,,,,,,,,,,,,,,5f9aba6600cdf11f1c9b915c,606bfa88dbd290d72095ede2,2021-04-06_08h23.50.307,Colour_Similarity_Experiment,2020.2.10,Win32,60,60675255c767bca6388caeee,17.50156682,17.10932895,22.36541714,16.85827842,16.68218278,17.10932895,,,,,,,,,,,,,,,,,,,,PF,3,weak,,,,,,,,5,1.182965,,,,,,,,,,,,,,,,,,,,,,,,,,,,5,weak,89,-19.5,1,0,0,response3disk,7,123,3,-2.5,1,0,0,rectangle,3,-2.5,1,0,0,1,5,0.001415,3,-2.5,1,0,0,0,122,122,146,1,0,,,,,,,,,,,,,,,,,,,,,
,,,,,,,,,,,,,,,,,,,,,,,,,,,,,,,,,,,,,,,,,,5f9aba6600cdf11f1c9b915c,606bfa88dbd290d72095ede2,2021-04-06_08h23.50.307,Colour_Similarity_Experiment,2020.2.10,Win32,60,60675255c767bca6388caeee,17.50156682,17.10932895,22.36541714,16.85827842,16.68218278,17.10932895,,,,,,,,,,,,,,,,,,,,PF,3,strong,,,,,,,,6,2.03112,,,,,,,,,,,,,,,,,,,,,,,,,,,,2,strong,122,41.5,1,0,0,response1disk,2,124,30,0.5,1,0,0,rectangle,30,0.5,1,0,0,1,0,0.00115,30,0.5,1,0,0,0,123,123,142,1,0,,,,,,,,,,,,,,,,,,,,,
,,,,,,,,,,,,,,,,,,,,,,,,,,,,,,,,,,,,,,,,,,5f9aba6600cdf11f1c9b915c,606bfa88dbd290d72095ede2,2021-04-06_08h23.50.307,Colour_Similarity_Experiment,2020.2.10,Win32,60,60675255c767bca6388caeee,17.50156682,17.10932895,22.36541714,16.85827842,16.68218278,17.10932895,,,,,,,,,,,,,,,,,,,,PF,3,weak,,,,,,,,6,1.432655,,,,,,,,,,,,,,,,,,,,,,,,,,,,8,weak,95,67.5,1,0,0,response1disk,6,125,19,3.5,1,0,0,rectangle,67,28.5,1,0,0,6,6,2.381525,16,10.5,1,0,0,0,124,124,161,1,1,response1disk_3,rectangle,,,,,,,,,,,,,,,,,,,
,,,,,,,,,,,,,,,,,,,,,,,,,,,,,,,,,,,,,,,,,,5f9aba6600cdf11f1c9b915c,606bfa88dbd290d72095ede2,2021-04-06_08h23.50.307,Colour_Similarity_Experiment,2020.2.10,Win32,60,60675255c767bca6388caeee,17.50156682,17.10932895,22.36541714,16.85827842,16.68218278,17.10932895,,,,,,,,,,,,,,,,,,,,PF,3,strong,,,,,,,,4,1.933795,,,,,,,,,,,,,,,,,,,,,,,,,,,,7,strong,29,-107.5,1,0,0,response3disk,8,126,-8,-11.5,1,0,0,rectangle,-68,28.5,1,0,0,1,1,2.548525,5,-0.5,1,0,0,0,125,125,97,1,1,response7disk_3,rectangle,,,,,,,,,,,,,,,,,,,
,,,,,,,,,,,,,,,,,,,,,,,,,,,,,,,,,,,,,,,,,,5f9aba6600cdf11f1c9b915c,606bfa88dbd290d72095ede2,2021-04-06_08h23.50.307,Colour_Similarity_Experiment,2020.2.10,Win32,60,60675255c767bca6388caeee,17.50156682,17.10932895,22.36541714,16.85827842,16.68218278,17.10932895,,,,,,,,,,,,,,,,,,,,PF,3,strong,,,,,,,,6,0.68322,,,,,,,,,,,,,,,,,,,,,,,,,,,,6,strong,67,33.5,1,0,0,response1disk,6,127,20,4.5,1,0,0,rectangle,20,4.5,1,0,0,1,3,0.001325,20,4.5,1,0,0,0,126,126,91,1,0,,,,,,,,,,,,,,,,,,,,,
,,,,,,,,,,,,,,,,,,,,,,,,,,,,,,,,,,,,,,,,,,5f9aba6600cdf11f1c9b915c,606bfa88dbd290d72095ede2,2021-04-06_08h23.50.307,Colour_Similarity_Experiment,2020.2.10,Win32,60,60675255c767bca6388caeee,17.50156682,17.10932895,22.36541714,16.85827842,16.68218278,17.10932895,,,,,,,,,,,,,,,,,,,,PF,3,weak,,,,,,,,4,0.36538,,,,,,,,,,,,,,,,,,,,,,,,,,,,7,weak,48,-75.5,1,0,0,response3disk,8,128,14,-0.5,1,0,0,rectangle,14,-0.5,1,0,0,1,3,0.00033,14,-0.5,1,0,0,0,127,127,140,1,0,,,,,,,,,,,,,,,,,,,,,
,,,,,,,,,,,,,,,,,,,,,,,,,,,,,,,,,,,,,,,,,,5f9aba6600cdf11f1c9b915c,606bfa88dbd290d72095ede2,2021-04-06_08h23.50.307,Colour_Similarity_Experiment,2020.2.10,Win32,60,60675255c767bca6388caeee,17.50156682,17.10932895,22.36541714,16.85827842,16.68218278,17.10932895,,,,,,,,,,,,,,,,,,,,PF,3,weak,,,,,,,,0,1.04931,,,,,,,,,,,,,,,,,,,,,,,,,,,,4,weak,-20,46.5,1,0,0,response7disk,8,129,-9,4.5,1,0,0,rectangle,-9,4.5,1,0,0,1,4,0.002375,-9,4.5,1,0,0,0,128,128,124,1,0,,,,,,,,,,,,,,,,,,,,,
,,,,,,,,,,,,,,,,,,,,,,,,,,,,,,,,,,,,,,,,,,5f9aba6600cdf11f1c9b915c,606bfa88dbd290d72095ede2,2021-04-06_08h23.50.307,Colour_Similarity_Experiment,2020.2.10,Win32,60,60675255c767bca6388caeee,17.50156682,17.10932895,22.36541714,16.85827842,16.68218278,17.10932895,,,,,,,,,,,,,,,,,,,,PF,3,strong,,,,,,,,2,1.13336,,,,,,,,,,,,,,,,,,,,,,,,,,,,5,strong,-39,-36.5,1,0,0,response5disk,9,130,0,5.5,1,0,0,rectangle,0,5.5,1,0,0,1,1,0.00238,0,5.5,1,0,0,0,129,129,61,1,0,,,,,,,,,,,,,,,,,,,,,
,,,,,,,,,,,,,,,,,,,,,,,,,,,,,,,,,,,,,,,,,,5f9aba6600cdf11f1c9b915c,606bfa88dbd290d72095ede2,2021-04-06_08h23.50.307,Colour_Similarity_Experiment,2020.2.10,Win32,60,60675255c767bca6388caeee,17.50156682,17.10932895,22.36541714,16.85827842,16.68218278,17.10932895,,,,,,,,,,,,,,,,,,,,PF,3,weak,,,,,,,,3,2.233845,,,,,,,,,,,,,,,,,,,,,,,,,,,,6,weak,-60,-64.5,1,0,0,response5disk,1,131,-30,-6.5,1,0,0,rectangle,-30,-6.5,1,0,0,1,7,0.002695,-30,-6.5,1,0,0,0,130,130,46,1,0,,,,,,,,,,,,,,,,,,,,,
,,,,,,,,,,,,,,,,,,,,,,,,,,,,,,,,,,,,,,,,,,5f9aba6600cdf11f1c9b915c,606bfa88dbd290d72095ede2,2021-04-06_08h23.50.307,Colour_Similarity_Experiment,2020.2.10,Win32,60,60675255c767bca6388caeee,17.50156682,17.10932895,22.36541714,16.85827842,16.68218278,17.10932895,,,,,,,,,,,,,,,,,,,,PF,3,strong,,,,,,,,4,1.282405,,,,,,,,,,,,,,,,,,,,,,,,,,,,4,strong,36,-72.5,1,0,0,response3disk,8,132,-4,5.5,1,0,0,rectangle,-4,5.5,1,0,0,1,1,0.002475,-4,5.5,1,0,0,0,131,131,35,1,0,,,,,,,,,,,,,,,,,,,,,
,,,,,,,,,,,,,,,,,,,,,,,,,,,,,,,,,,,,,,,,,,5f9aba6600cdf11f1c9b915c,606bfa88dbd290d72095ede2,2021-04-06_08h23.50.307,Colour_Similarity_Experiment,2020.2.10,Win32,60,60675255c767bca6388caeee,17.50156682,17.10932895,22.36541714,16.85827842,16.68218278,17.10932895,,,,,,,,,,,,,,,,,,,,PF,3,weak,,,,,,,,3,3.05067,,,,,,,,,,,,,,,,,,,,,,,,,,,,4,weak,-25,-68.5,1,0,0,response5disk,5,133,12,-6.5,1,0,0,rectangle,12,-6.5,1,0,0,1,5,0.002595,12,-6.5,1,0,0,0,132,132,49,1,0,,,,,,,,,,,,,,,,,,,,,
,,,,,,,,,,,,,,,,,,,,,,,,,,,,,,,,,,,,,,,,,,5f9aba6600cdf11f1c9b915c,606bfa88dbd290d72095ede2,2021-04-06_08h23.50.307,Colour_Similarity_Experiment,2020.2.10,Win32,60,60675255c767bca6388caeee,17.50156682,17.10932895,22.36541714,16.85827842,16.68218278,17.10932895,,,,,,,,,,,,,,,,,,,,PF,3,weak,,,,,,,,3,1.14924,,,,,,,,,,,,,,,,,,,,,,,,,,,,9,weak,-41,-95.5,1,0,0,response5disk,8,134,-8,-1.5,1,0,0,rectangle,-8,-1.5,1,0,0,1,5,0.00088,-8,-1.5,1,0,0,0,133,133,67,1,0,,,,,,,,,,,,,,,,,,,,,
,,,,,,,,,,,,,,,,,,,,,,,,,,,,,,,,,,,,,,,,,,5f9aba6600cdf11f1c9b915c,606bfa88dbd290d72095ede2,2021-04-06_08h23.50.307,Colour_Similarity_Experiment,2020.2.10,Win32,60,60675255c767bca6388caeee,17.50156682,17.10932895,22.36541714,16.85827842,16.68218278,17.10932895,,,,,,,,,,,,,,,,,,,,PF,3,strong,,,,,,,,3,0.93183,,,,,,,,,,,,,,,,,,,,,,,,,,,,6,strong,-36,-59.5,1,0,0,response5disk,5,135,-12,-1.5,1,0,0,rectangle,-12,-1.5,1,0,0,1,3,0.001805,-12,-1.5,1,0,0,0,134,134,126,1,0,,,,,,,,,,,,,,,,,,,,,
,,,,,,,,,,,,,,,,,,,,,,,,,,,,,,,,,,,,,,,,,,5f9aba6600cdf11f1c9b915c,606bfa88dbd290d72095ede2,2021-04-06_08h23.50.307,Colour_Similarity_Experiment,2020.2.10,Win32,60,60675255c767bca6388caeee,17.50156682,17.10932895,22.36541714,16.85827842,16.68218278,17.10932895,,,,,,,,,,,,,,,,,,,,PF,3,strong,,,,,,,,2,1.96628,,,,,,,,,,,,,,,,,,,,,,,,,,,,4,strong,-65,-18.5,1,0,0,response5disk,7,136,-30,1.5,1,0,0,rectangle,-30,1.5,1,0,0,1,0,0.00186,-30,1.5,1,0,0,0,135,135,87,1,0,,,,,,,,,,,,,,,,,,,,,
,,,,,,,,,,,,,,,,,,,,,,,,,,,,,,,,,,,,,,,,,,5f9aba6600cdf11f1c9b915c,606bfa88dbd290d72095ede2,2021-04-06_08h23.50.307,Colour_Similarity_Experiment,2020.2.10,Win32,60,60675255c767bca6388caeee,17.50156682,17.10932895,22.36541714,16.85827842,16.68218278,17.10932895,,,,,,,,,,,,,,,,,,,,PF,3,strong,,,,,,,,7,2.832905,,,,,,,,,,,,,,,,,,,,,,,,,,,,4,strong,46,72.5,1,0,0,response1disk,1,137,14,7.5,1,0,0,rectangle,14,7.5,1,0,0,1,5,0.002085,14,7.5,1,0,0,0,136,136,102,1,0,,,,,,,,,,,,,,,,,,,,,
,,,,,,,,,,,,,,,,,,,,,,,,,,,,,,,,,,,,,,,,,,5f9aba6600cdf11f1c9b915c,606bfa88dbd290d72095ede2,2021-04-06_08h23.50.307,Colour_Similarity_Experiment,2020.2.10,Win32,60,60675255c767bca6388caeee,17.50156682,17.10932895,22.36541714,16.85827842,16.68218278,17.10932895,,,,,,,,,,,,,,,,,,,,PF,3,weak,,,,,,,,2,1.816695,,,,,,,,,,,,,,,,,,,,,,,,,,,,9,weak,-46,-36.5,1,0,0,response5disk,2,138,-17,-7.5,1,0,0,rectangle,-17,-7.5,1,0,0,1,1,0.0024,-17,-7.5,1,0,0,0,137,137,157,1,0,,,,,,,,,,,,,,,,,,,,,
,,,,,,,,,,,,,,,,,,,,,,,,,,,,,,,,,,,,,,,,,,5f9aba6600cdf11f1c9b915c,606bfa88dbd290d72095ede2,2021-04-06_08h23.50.307,Colour_Similarity_Experiment,2020.2.10,Win32,60,60675255c767bca6388caeee,17.50156682,17.10932895,22.36541714,16.85827842,16.68218278,17.10932895,,,,,,,,,,,,,,,,,,,,PF,3,weak,,,,,,,,4,1.096025,,,,,,,,,,,,,,,,,,,,,,,,,,,,8,weak,36,-76.5,1,0,0,response3disk,4,139,-14,-0.5,1,0,0,rectangle,-14,-0.5,1,0,0,1,3,0.00102,-14,-0.5,1,0,0,0,138,138,78,1,0,,,,,,,,,,,,,,,,,,,,,
,,,,,,,,,,,,,,,,,,,,,,,,,,,,,,,,,,,,,,,,,,5f9aba6600cdf11f1c9b915c,606bfa88dbd290d72095ede2,2021-04-06_08h23.50.307,Colour_Similarity_Experiment,2020.2.10,Win32,60,60675255c767bca6388caeee,17.50156682,17.10932895,22.36541714,16.85827842,16.68218278,17.10932895,,,,,,,,,,,,,,,,,,,,PF,3,strong,,,,,,,,6,2.248905,,,,,,,,,,,,,,,,,,,,,,,,,,,,6,strong,54,53.5,1,0,0,response1disk,1,140,17,8.5,1,0,0,rectangle,17,8.5,1,0,0,1,2,0.00235,17,8.5,1,0,0,0,139,139,5,1,0,,,,,,,,,,,,,,,,,,,,,
,,,,,,,,,,,,,,,,,,,,,,,,,,,,,,,,,,,,,,,,,,5f9aba6600cdf11f1c9b915c,606bfa88dbd290d72095ede2,2021-04-06_08h23.50.307,Colour_Similarity_Experiment,2020.2.10,Win32,60,60675255c767bca6388caeee,17.50156682,17.10932895,22.36541714,16.85827842,16.68218278,17.10932895,,,,,,,,,,,,,,,,,,,,PF,3,weak,,,,,,,,6,1.216025,,,,,,,,,,,,,,,,,,,,,,,,,,,,1,weak,84,51.5,1,0,0,response1disk,6,141,20,7.5,1,0,0,rectangle,20,7.5,1,0,0,1,2,0.000645,20,7.5,1,0,0,0,140,140,144,1,0,,,,,,,,,,,,,,,,,,,,,
,,,,,,,,,,,,,,,,,,,,,,,,,,,,,,,,,,,,,,,,,,5f9aba6600cdf11f1c9b915c,606bfa88dbd290d72095ede2,2021-04-06_08h23.50.307,Colour_Similarity_Experiment,2020.2.10,Win32,60,60675255c767bca6388caeee,17.50156682,17.10932895,22.36541714,16.85827842,16.68218278,17.10932895,,,,,,,,,,,,,,,,,,,,PF,3,strong,,,,,,,,4,1.466375,,,,,,,,,,,,,,,,,,,,,,,,,,,,1,strong,44,-69.5,1,0,0,response3disk,4,142,0,3.5,1,0,0,rectangle,0,3.5,1,0,0,1,7,0.002175,0,3.5,1,0,0,0,141,141,135,1,0,,,,,,,,,,,,,,,,,,,,,
,,,,,,,,,,,,,,,,,,,,,,,,,,,,,,,,,,,,,,,,,,5f9aba6600cdf11f1c9b915c,606bfa88dbd290d72095ede2,2021-04-06_08h23.50.307,Colour_Similarity_Experiment,2020.2.10,Win32,60,60675255c767bca6388caeee,17.50156682,17.10932895,22.36541714,16.85827842,16.68218278,17.10932895,,,,,,,,,,,,,,,,,,,,PF,3,strong,,,,,,,,0,1.882355,,,,,,,,,,,,,,,,,,,,,,,,,,,,5,strong,-48,104.5,1,0,0,response7disk,4,143,-12,-3.5,1,0,0,rectangle,-12,-3.5,1,0,0,1,4,0.00192,-12,-3.5,1,0,0,0,142,142,8,1,0,,,,,,,,,,,,,,,,,,,,,
,,,,,,,,,,,,,,,,,,,,,,,,,,,,,,,,,,,,,,,,,,5f9aba6600cdf11f1c9b915c,606bfa88dbd290d72095ede2,2021-04-06_08h23.50.307,Colour_Similarity_Experiment,2020.2.10,Win32,60,60675255c767bca6388caeee,17.50156682,17.10932895,22.36541714,16.85827842,16.68218278,17.10932895,,,,,,,,,,,,,,,,,,,,PF,3,weak,,,,,,,,4,2.94959,,,,,,,,,,,,,,,,,,,,,,,,,,,,3,weak,34,-56.5,1,0,0,response3disk,7,144,1,6.5,1,0,0,rectangle,1,6.5,1,0,0,1,4,0.00061,1,6.5,1,0,0,0,143,143,41,1,0,,,,,,,,,,,,,,,,,,,,,
,,,,,,,,,,,,,,,,,,,,,,,,,,,,,,,,,,,,,,,,,,5f9aba6600cdf11f1c9b915c,606bfa88dbd290d72095ede2,2021-04-06_08h23.50.307,Colour_Similarity_Experiment,2020.2.10,Win32,60,60675255c767bca6388caeee,17.50156682,17.10932895,22.36541714,16.85827842,16.68218278,17.10932895,,,,,,,,,,,,,,,,,,,,PF,3,strong,,,,,,,,6,2.817195,,,,,,,,,,,,,,,,,,,,,,,,,,,,3,strong,90,36.5,1,0,0,response1disk,2,145,27,0.5,1,0,0,rectangle,27,0.5,1,0,0,1,7,0.00218,27,0.5,1,0,0,0,144,144,93,1,0,,,,,,,,,,,,,,,,,,,,,
,,,,,,,,,,,,,,,,,,,,,,,,,,,,,,,,,,,,,,,,,,5f9aba6600cdf11f1c9b915c,606bfa88dbd290d72095ede2,2021-04-06_08h23.50.307,Colour_Similarity_Experiment,2020.2.10,Win32,60,60675255c767bca6388caeee,17.50156682,17.10932895,22.36541714,16.85827842,16.68218278,17.10932895,,,,,,,,,,,,,,,,,,,,PF,3,strong,,,,,,,,2,1.84822,,,,,,,,,,,,,,,,,,,,,,,,,,,,5,strong,-70,-44.5,1,0,0,response5disk,1,146,-27,0.5,1,0,0,rectangle,-27,0.5,1,0,0,1,2,0.00201,-27,0.5,1,0,0,0,145,145,131,1,0,,,,,,,,,,,,,,,,,,,,,
,,,,,,,,,,,,,,,,,,,,,,,,,,,,,,,,,,,,,,,,,,5f9aba6600cdf11f1c9b915c,606bfa88dbd290d72095ede2,2021-04-06_08h23.50.307,Colour_Similarity_Experiment,2020.2.10,Win32,60,60675255c767bca6388caeee,17.50156682,17.10932895,22.36541714,16.85827842,16.68218278,17.10932895,,,,,,,,,,,,,,,,,,,,PF,3,strong,,,,,,,,4,1.89815,,,,,,,,,,,,,,,,,,,,,,,,,,,,7,strong,25,-73.5,1,0,0,response3disk,4,147,5,9.5,1,0,0,rectangle,5,9.5,1,0,0,1,5,0.001845,5,9.5,1,0,0,0,146,146,158,1,0,,,,,,,,,,,,,,,,,,,,,
,,,,,,,,,,,,,,,,,,,,,,,,,,,,,,,,,,,,,,,,,,5f9aba6600cdf11f1c9b915c,606bfa88dbd290d72095ede2,2021-04-06_08h23.50.307,Colour_Similarity_Experiment,2020.2.10,Win32,60,60675255c767bca6388caeee,17.50156682,17.10932895,22.36541714,16.85827842,16.68218278,17.10932895,,,,,,,,,,,,,,,,,,,,PF,3,strong,,,,,,,,3,1.316065,,,,,,,,,,,,,,,,,,,,,,,,,,,,5,strong,-42,-89.5,1,0,0,response5disk,5,148,3,6.5,1,0,0,rectangle,3,6.5,1,0,0,1,6,0.00182,3,6.5,1,0,0,0,147,147,19,1,0,,,,,,,,,,,,,,,,,,,,,
,,,,,,,,,,,,,,,,,,,,,,,,,,,,,,,,,,,,,,,,,,5f9aba6600cdf11f1c9b915c,606bfa88dbd290d72095ede2,2021-04-06_08h23.50.307,Colour_Similarity_Experiment,2020.2.10,Win32,60,60675255c767bca6388caeee,17.50156682,17.10932895,22.36541714,16.85827842,16.68218278,17.10932895,,,,,,,,,,,,,,,,,,,,PF,3,strong,,,,,,,,5,1.39959,,,,,,,,,,,,,,,,,,,,,,,,,,,,3,strong,60,-31.5,1,0,0,response3disk,9,149,17,3.5,1,0,0,rectangle,17,3.5,1,0,0,1,7,0.00219,17,3.5,1,0,0,0,148,148,143,1,0,,,,,,,,,,,,,,,,,,,,,
,,,,,,,,,,,,,,,,,,,,,,,,,,,,,,,,,,,,,,,,,,5f9aba6600cdf11f1c9b915c,606bfa88dbd290d72095ede2,2021-04-06_08h23.50.307,Colour_Similarity_Experiment,2020.2.10,Win32,60,60675255c767bca6388caeee,17.50156682,17.10932895,22.36541714,16.85827842,16.68218278,17.10932895,,,,,,,,,,,,,,,,,,,,PF,3,strong,,,,,,,,6,1.966515,,,,,,,,,,,,,,,,,,,,,,,,,,,,7,strong,69,29.5,1,0,0,response1disk,6,150,24,1.5,1,0,0,rectangle,24,1.5,1,0,0,1,6,0.00182,24,1.5,1,0,0,0,149,149,31,1,0,,,,,,,,,,,,,,,,,,,,,
,,,,,,,,,,,,,,,,,,,,,,,,,,,,,,,,,,,,,,,,,,5f9aba6600cdf11f1c9b915c,606bfa88dbd290d72095ede2,2021-04-06_08h23.50.307,Colour_Similarity_Experiment,2020.2.10,Win32,60,60675255c767bca6388caeee,17.50156682,17.10932895,22.36541714,16.85827842,16.68218278,17.10932895,,,,,,,,,,,,,,,,,,,,PF,3,weak,,,,,,,,6,1.1155,,,,,,,,,,,,,,,,,,,,,,,,,,,,8,weak,61,34.5,1,0,0,response1disk,2,151,10,2.5,1,0,0,rectangle,10,2.5,1,0,0,1,5,0.002065,10,2.5,1,0,0,0,150,150,83,1,0,,,,,,,,,,,,,,,,,,,,,
,,,,,,,,,,,,,,,,,,,,,,,,,,,,,,,,,,,,,,,,,,5f9aba6600cdf11f1c9b915c,606bfa88dbd290d72095ede2,2021-04-06_08h23.50.307,Colour_Similarity_Experiment,2020.2.10,Win32,60,60675255c767bca6388caeee,17.50156682,17.10932895,22.36541714,16.85827842,16.68218278,17.10932895,,,,,,,,,,,,,,,,,,,,PF,3,strong,,,,,,,,6,1.28315,,,,,,,,,,,,,,,,,,,,,,,,,,,,1,strong,63,30.5,1,0,0,response1disk,7,152,22,3.5,1,0,0,rectangle,22,3.5,1,0,0,1,0,0.002095,22,3.5,1,0,0,0,151,151,137,1,0,,,,,,,,,,,,,,,,,,,,,
,,,,,,,,,,,,,,,,,,,,,,,,,,,,,,,,,,,,,,,,,,5f9aba6600cdf11f1c9b915c,606bfa88dbd290d72095ede2,2021-04-06_08h23.50.307,Colour_Similarity_Experiment,2020.2.10,Win32,60,60675255c767bca6388caeee,17.50156682,17.10932895,22.36541714,16.85827842,16.68218278,17.10932895,,,,,,,,,,,,,,,,,,,,PF,3,weak,,,,,,,,0,1.36675,,,,,,,,,,,,,,,,,,,,,,,,,,,,2,weak,-27,100.5,1,0,0,response7disk,7,153,-5,-4.5,1,0,0,rectangle,-5,-4.5,1,0,0,1,1,0.00213,-5,-4.5,1,0,0,0,152,152,107,1,0,,,,,,,,,,,,,,,,,,,,,
,,,,,,,,,,,,,,,,,,,,,,,,,,,,,,,,,,,,,,,,,,5f9aba6600cdf11f1c9b915c,606bfa88dbd290d72095ede2,2021-04-06_08h23.50.307,Colour_Similarity_Experiment,2020.2.10,Win32,60,60675255c767bca6388caeee,17.50156682,17.10932895,22.36541714,16.85827842,16.68218278,17.10932895,,,,,,,,,,,,,,,,,,,,PF,3,weak,,,,,,,,2,1.349725,,,,,,,,,,,,,,,,,,,,,,,,,,,,3,weak,-53,-46.5,1,0,0,response5disk,8,154,-9,-2.5,1,0,0,rectangle,-9,-2.5,1,0,0,1,1,0.000855,-9,-2.5,1,0,0,0,153,153,3,1,0,,,,,,,,,,,,,,,,,,,,,
,,,,,,,,,,,,,,,,,,,,,,,,,,,,,,,,,,,,,,,,,,5f9aba6600cdf11f1c9b915c,606bfa88dbd290d72095ede2,2021-04-06_08h23.50.307,Colour_Similarity_Experiment,2020.2.10,Win32,60,60675255c767bca6388caeee,17.50156682,17.10932895,22.36541714,16.85827842,16.68218278,17.10932895,,,,,,,,,,,,,,,,,,,,PF,3,strong,,,,,,,,4,1.48284,,,,,,,,,,,,,,,,,,,,,,,,,,,,2,strong,23,-90.5,1,0,0,response3disk,5,155,13,4.5,1,0,0,rectangle,13,4.5,1,0,0,1,0,0.00237,13,4.5,1,0,0,0,154,154,80,1,0,,,,,,,,,,,,,,,,,,,,,
,,,,,,,,,,,,,,,,,,,,,,,,,,,,,,,,,,,,,,,,,,5f9aba6600cdf11f1c9b915c,606bfa88dbd290d72095ede2,2021-04-06_08h23.50.307,Colour_Similarity_Experiment,2020.2.10,Win32,60,60675255c767bca6388caeee,17.50156682,17.10932895,22.36541714,16.85827842,16.68218278,17.10932895,,,,,,,,,,,,,,,,,,,,PF,3,strong,,,,,,,,6,2.24961,,,,,,,,,,,,,,,,,,,,,,,,,,,,2,strong,65,48.5,1,0,0,response1disk,7,156,15,4.5,1,0,0,rectangle,15,4.5,1,0,0,1,1,0.00223,15,4.5,1,0,0,0,155,155,63,1,0,,,,,,,,,,,,,,,,,,,,,
,,,,,,,,,,,,,,,,,,,,,,,,,,,,,,,,,,,,,,,,,,5f9aba6600cdf11f1c9b915c,606bfa88dbd290d72095ede2,2021-04-06_08h23.50.307,Colour_Similarity_Experiment,2020.2.10,Win32,60,60675255c767bca6388caeee,17.50156682,17.10932895,22.36541714,16.85827842,16.68218278,17.10932895,,,,,,,,,,,,,,,,,,,,PF,3,strong,,,,,,,,1,1.833235,,,,,,,,,,,,,,,,,,,,,,,,,,,,9,strong,-54,52.5,1,0,0,response7disk,6,157,-26,7.5,1,0,0,rectangle,-26,7.5,1,0,0,1,2,0.00261,-26,7.5,1,0,0,0,156,156,117,1,0,,,,,,,,,,,,,,,,,,,,,
,,,,,,,,,,,,,,,,,,,,,,,,,,,,,,,,,,,,,,,,,,5f9aba6600cdf11f1c9b915c,606bfa88dbd290d72095ede2,2021-04-06_08h23.50.307,Colour_Similarity_Experiment,2020.2.10,Win32,60,60675255c767bca6388caeee,17.50156682,17.10932895,22.36541714,16.85827842,16.68218278,17.10932895,,,,,,,,,,,,,,,,,,,,PF,3,weak,,,,,,,,3,1.69934,,,,,,,,,,,,,,,,,,,,,,,,,,,,6,weak,-33,-77.5,1,0,0,response5disk,4,158,-3,4.5,1,0,0,rectangle,-3,4.5,1,0,0,1,7,0.00237,-3,4.5,1,0,0,0,157,157,33,1,0,,,,,,,,,,,,,,,,,,,,,
,,,,,,,,,,,,,,,,,,,,,,,,,,,,,,,,,,,,,,,,,,5f9aba6600cdf11f1c9b915c,606bfa88dbd290d72095ede2,2021-04-06_08h23.50.307,Colour_Similarity_Experiment,2020.2.10,Win32,60,60675255c767bca6388caeee,17.50156682,17.10932895,22.36541714,16.85827842,16.68218278,17.10932895,,,,,,,,,,,,,,,,,,,,PF,3,strong,,,,,,,,2,1.582885,,,,,,,,,,,,,,,,,,,,,,,,,,,,4,strong,-60,-14.5,1,0,0,response5disk,5,159,-9,-2.5,1,0,0,rectangle,-9,-2.5,1,0,0,1,0,0.002725,-9,-2.5,1,0,0,0,158,158,116,1,0,,,,,,,,,,,,,,,,,,,,,
,,,,,,,,,,,,,,,,,,,,,,,,,,,,,,,,,,,,,,,,,,5f9aba6600cdf11f1c9b915c,606bfa88dbd290d72095ede2,2021-04-06_08h23.50.307,Colour_Similarity_Experiment,2020.2.10,Win32,60,60675255c767bca6388caeee,17.50156682,17.10932895,22.36541714,16.85827842,16.68218278,17.10932895,,,,,,,,,,,,,,,,,,,,PF,3,weak,,,,,,,,5,1.182525,,,,,,,,,,,,,,,,,,,,,,,,,,,,2,weak,59,-53.5,1,0,0,response3disk,8,160,19,2.5,1,0,0,rectangle,19,2.5,1,0,0,1,6,0.00232,19,2.5,1,0,0,0,159,159,52,1,0,,,,,,,,,,,,,,,,,,,,,
,,,,,,,,,,,,,,,,,,,,,,,,,,,,,,,,,,,,,,,,,,5f9aba6600cdf11f1c9b915c,606bfa88dbd290d72095ede2,2021-04-06_08h23.50.307,Colour_Similarity_Experiment,2020.2.10,Win32,60,60675255c767bca6388caeee,17.50156682,17.10932895,22.36541714,16.85827842,16.68218278,17.10932895,,,,,,,,,,,,,,,,,,,,PF,3,weak,,,,,,,,6,1.45249,,,,,,,,,,,,,,,,,,,,,,,,,,,,9,weak,78,62.5,1,0,0,response1disk,1,161,28,8.5,1,0,0,rectangle,28,8.5,1,0,0,1,4,0.00225,28,8.5,1,0,0,0,160,160,74,1,0,,,,,,,,,,,,,,,,,,,,,
,,,,,,,,,,,,,,,,,,,,,,,,,,,,,,,,,,,,,,,,,,5f9aba6600cdf11f1c9b915c,606bfa88dbd290d72095ede2,2021-04-06_08h23.50.307,Colour_Similarity_Experiment,2020.2.10,Win32,60,60675255c767bca6388caeee,17.50156682,17.10932895,22.36541714,16.85827842,16.68218278,17.10932895,,,,,,,,,,,,,,,,,,,,PF,3,weak,,,,,,,,0,1.215675,,,,,,,,,,,,,,,,,,,,,,,,,,,,3,weak,-42,78.5,1,0,0,response7disk,1,162,-11,6.5,1,0,0,rectangle,-11,6.5,1,0,0,1,2,0.00184,-11,6.5,1,0,0,0,161,161,96,1,0,,,,,,,,,,,,,,,,,,,,,
,,,,,,,,,,,,,,,,,,,,,,,,,,,,,,,,,,,,,,,,,,5f9aba6600cdf11f1c9b915c,606bfa88dbd290d72095ede2,2021-04-06_08h23.50.307,Colour_Similarity_Experiment,2020.2.10,Win32,60,60675255c767bca6388caeee,17.50156682,17.10932895,22.36541714,16.85827842,16.68218278,17.10932895,,,,,,,,,,,,,,,,,,,,,,,,,,,,,,,,,,,,,,,,,,,,,,,,,,,,,,,,,,,,,,,,,,,,,,,,,,,,,,,,,,,,,,,,,,,,,,,,0,0,0,0,1,,,,,,,,,,,,,,
,,,,,,,,,,,,,,,,,,,,,,,,,,,,,,,,,,,,,,,,,,5f9aba6600cdf11f1c9b915c,606bfa88dbd290d72095ede2,2021-04-06_08h23.50.307,Colour_Similarity_Experiment,2020.2.10,Win32,60,60675255c767bca6388caeee,17.50156682,17.10932895,22.36541714,16.85827842,16.68218278,17.10932895,,,,,,,,,,,,,,,,,,,,PF,3,strong,,,,,,,,6,1.38212,,,,,,,,,,,,,,,,,,,,,,,,,,,,8,strong,78,28.5,1,0,0,response1disk,8,163,26,8.5,1,0,0,rectangle,26,8.5,1,0,0,1,2,0.00017,26,8.5,1,0,0,0,0,0,48,1,0,,,,,,,,,,,,,,,,,,,,,
,,,,,,,,,,,,,,,,,,,,,,,,,,,,,,,,,,,,,,,,,,5f9aba6600cdf11f1c9b915c,606bfa88dbd290d72095ede2,2021-04-06_08h23.50.307,Colour_Similarity_Experiment,2020.2.10,Win32,60,60675255c767bca6388caeee,17.50156682,17.10932895,22.36541714,16.85827842,16.68218278,17.10932895,,,,,,,,,,,,,,,,,,,,PF,3,weak,,,,,,,,4,1.11668,,,,,,,,,,,,,,,,,,,,,,,,,,,,9,weak,46,-74.5,1,0,0,response3disk,3,164,5,-5.5,1,0,0,rectangle,5,-5.5,1,0,0,1,6,0.002425,5,-5.5,1,0,0,0,1,1,119,1,0,,,,,,,,,,,,,,,,,,,,,
,,,,,,,,,,,,,,,,,,,,,,,,,,,,,,,,,,,,,,,,,,5f9aba6600cdf11f1c9b915c,606bfa88dbd290d72095ede2,2021-04-06_08h23.50.307,Colour_Similarity_Experiment,2020.2.10,Win32,60,60675255c767bca6388caeee,17.50156682,17.10932895,22.36541714,16.85827842,16.68218278,17.10932895,,,,,,,,,,,,,,,,,,,,PF,3,strong,,,,,,,,4,1.83239,,,,,,,,,,,,,,,,,,,,,,,,,,,,8,strong,45,-68.5,1,0,0,response3disk,2,165,2,7.5,1,0,0,rectangle,2,7.5,1,0,0,1,1,0.003355,2,7.5,1,0,0,0,2,2,22,1,0,,,,,,,,,,,,,,,,,,,,,
,,,,,,,,,,,,,,,,,,,,,,,,,,,,,,,,,,,,,,,,,,5f9aba6600cdf11f1c9b915c,606bfa88dbd290d72095ede2,2021-04-06_08h23.50.307,Colour_Similarity_Experiment,2020.2.10,Win32,60,60675255c767bca6388caeee,17.50156682,17.10932895,22.36541714,16.85827842,16.68218278,17.10932895,,,,,,,,,,,,,,,,,,,,PF,3,weak,,,,,,,,4,1.300085,,,,,,,,,,,,,,,,,,,,,,,,,,,,6,weak,29,-89.5,1,0,0,response3disk,3,166,14,-7.5,1,0,0,rectangle,14,-7.5,1,0,0,1,2,0.002565,14,-7.5,1,0,0,0,3,3,26,1,0,,,,,,,,,,,,,,,,,,,,,
,,,,,,,,,,,,,,,,,,,,,,,,,,,,,,,,,,,,,,,,,,5f9aba6600cdf11f1c9b915c,606bfa88dbd290d72095ede2,2021-04-06_08h23.50.307,Colour_Similarity_Experiment,2020.2.10,Win32,60,60675255c767bca6388caeee,17.50156682,17.10932895,22.36541714,16.85827842,16.68218278,17.10932895,,,,,,,,,,,,,,,,,,,,PF,3,weak,,,,,,,,3,1.131755,,,,,,,,,,,,,,,,,,,,,,,,,,,,1,weak,-26,-63.5,1,0,0,response5disk,9,167,3,-2.5,1,0,0,rectangle,3,-2.5,1,0,0,1,6,0.00213,3,-2.5,1,0,0,0,4,4,15,1,0,,,,,,,,,,,,,,,,,,,,,
,,,,,,,,,,,,,,,,,,,,,,,,,,,,,,,,,,,,,,,,,,5f9aba6600cdf11f1c9b915c,606bfa88dbd290d72095ede2,2021-04-06_08h23.50.307,Colour_Similarity_Experiment,2020.2.10,Win32,60,60675255c767bca6388caeee,17.50156682,17.10932895,22.36541714,16.85827842,16.68218278,17.10932895,,,,,,,,,,,,,,,,,,,,PF,3,weak,,,,,,,,4,1.166505,,,,,,,,,,,,,,,,,,,,,,,,,,,,6,weak,61,-69.5,1,0,0,response3disk,2,168,25,0.5,1,0,0,rectangle,25,0.5,1,0,0,1,2,0.00216,25,0.5,1,0,0,0,5,5,130,1,0,,,,,,,,,,,,,,,,,,,,,
,,,,,,,,,,,,,,,,,,,,,,,,,,,,,,,,,,,,,,,,,,5f9aba6600cdf11f1c9b915c,606bfa88dbd290d72095ede2,2021-04-06_08h23.50.307,Colour_Similarity_Experiment,2020.2.10,Win32,60,60675255c767bca6388caeee,17.50156682,17.10932895,22.36541714,16.85827842,16.68218278,17.10932895,,,,,,,,,,,,,,,,,,,,PF,3,strong,,,,,,,,5,0.932725,,,,,,,,,,,,,,,,,,,,,,,,,,,,4,strong,107,-64.5,1,0,0,response3disk,4,169,-15,3.5,1,0,0,rectangle,-15,3.5,1,0,0,1,0,0.002035,-15,3.5,1,0,0,0,6,6,84,1,0,,,,,,,,,,,,,,,,,,,,,
,,,,,,,,,,,,,,,,,,,,,,,,,,,,,,,,,,,,,,,,,,5f9aba6600cdf11f1c9b915c,606bfa88dbd290d72095ede2,2021-04-06_08h23.50.307,Colour_Similarity_Experiment,2020.2.10,Win32,60,60675255c767bca6388caeee,17.50156682,17.10932895,22.36541714,16.85827842,16.68218278,17.10932895,,,,,,,,,,,,,,,,,,,,PF,3,strong,,,,,,,,0,1.482925,,,,,,,,,,,,,,,,,,,,,,,,,,,,8,strong,-25,67.5,1,0,0,response7disk,3,170,-1,-7.5,1,0,0,rectangle,-1,-7.5,1,0,0,1,5,0.00225,-1,-7.5,1,0,0,0,7,7,154,1,0,,,,,,,,,,,,,,,,,,,,,
,,,,,,,,,,,,,,,,,,,,,,,,,,,,,,,,,,,,,,,,,,5f9aba6600cdf11f1c9b915c,606bfa88dbd290d72095ede2,2021-04-06_08h23.50.307,Colour_Similarity_Experiment,2020.2.10,Win32,60,60675255c767bca6388caeee,17.50156682,17.10932895,22.36541714,16.85827842,16.68218278,17.10932895,,,,,,,,,,,,,,,,,,,,PF,3,weak,,,,,,,,0,1.01489,,,,,,,,,,,,,,,,,,,,,,,,,,,,8,weak,-33,53.5,1,0,0,response7disk,3,171,-8,-7.5,1,0,0,rectangle,-8,-7.5,1,0,0,1,5,0.000445,-8,-7.5,1,0,0,0,8,8,71,1,0,,,,,,,,,,,,,,,,,,,,,
,,,,,,,,,,,,,,,,,,,,,,,,,,,,,,,,,,,,,,,,,,5f9aba6600cdf11f1c9b915c,606bfa88dbd290d72095ede2,2021-04-06_08h23.50.307,Colour_Similarity_Experiment,2020.2.10,Win32,60,60675255c767bca6388caeee,17.50156682,17.10932895,22.36541714,16.85827842,16.68218278,17.10932895,,,,,,,,,,,,,,,,,,,,PF,3,strong,,,,,,,,1,0.999625,,,,,,,,,,,,,,,,,,,,,,,,,,,,3,strong,-67,42.5,1,0,0,response7disk,5,172,-26,-9.5,1,0,0,rectangle,-26,-9.5,1,0,0,1,5,0.000305,-26,-9.5,1,0,0,0,9,9,101,1,0,,,,,,,,,,,,,,,,,,,,,
,,,,,,,,,,,,,,,,,,,,,,,,,,,,,,,,,,,,,,,,,,5f9aba6600cdf11f1c9b915c,606bfa88dbd290d72095ede2,2021-04-06_08h23.50.307,Colour_Similarity_Experiment,2020.2.10,Win32,60,60675255c767bca6388caeee,17.50156682,17.10932895,22.36541714,16.85827842,16.68218278,17.10932895,,,,,,,,,,,,,,,,,,,,PF,3,strong,,,,,,,,0,1.10019,,,,,,,,,,,,,,,,,,,,,,,,,,,,1,strong,-35,54.5,1,0,0,response7disk,5,173,-16,9.5,1,0,0,rectangle,-16,9.5,1,0,0,1,4,0.002305,-16,9.5,1,0,0,0,10,10,82,1,0,,,,,,,,,,,,,,,,,,,,,
,,,,,,,,,,,,,,,,,,,,,,,,,,,,,,,,,,,,,,,,,,5f9aba6600cdf11f1c9b915c,606bfa88dbd290d72095ede2,2021-04-06_08h23.50.307,Colour_Similarity_Experiment,2020.2.10,Win32,60,60675255c767bca6388caeee,17.50156682,17.10932895,22.36541714,16.85827842,16.68218278,17.10932895,,,,,,,,,,,,,,,,,,,,PF,3,strong,,,,,,,,3,1.24977,,,,,,,,,,,,,,,,,,,,,,,,,,,,5,strong,-44,-63.5,1,0,0,response5disk,7,174,-9,0.5,1,0,0,rectangle,-9,0.5,1,0,0,1,7,0.0023,-9,0.5,1,0,0,0,11,11,7,1,0,,,,,,,,,,,,,,,,,,,,,
,,,,,,,,,,,,,,,,,,,,,,,,,,,,,,,,,,,,,,,,,,5f9aba6600cdf11f1c9b915c,606bfa88dbd290d72095ede2,2021-04-06_08h23.50.307,Colour_Similarity_Experiment,2020.2.10,Win32,60,60675255c767bca6388caeee,17.50156682,17.10932895,22.36541714,16.85827842,16.68218278,17.10932895,,,,,,,,,,,,,,,,,,,,PF,3,weak,,,,,,,,3,1.465915,,,,,,,,,,,,,,,,,,,,,,,,,,,,8,weak,-24,-60.5,1,0,0,response5disk,5,175,-2,-11.5,1,0,0,rectangle,-2,-11.5,1,0,0,1,6,0.002305,-2,-11.5,1,0,0,0,12,12,98,1,0,,,,,,,,,,,,,,,,,,,,,
,,,,,,,,,,,,,,,,,,,,,,,,,,,,,,,,,,,,,,,,,,5f9aba6600cdf11f1c9b915c,606bfa88dbd290d72095ede2,2021-04-06_08h23.50.307,Colour_Similarity_Experiment,2020.2.10,Win32,60,60675255c767bca6388caeee,17.50156682,17.10932895,22.36541714,16.85827842,16.68218278,17.10932895,,,,,,,,,,,,,,,,,,,,PF,3,weak,,,,,,,,4,1.44889,,,,,,,,,,,,,,,,,,,,,,,,,,,,3,weak,25,-63.5,1,0,0,response3disk,4,176,9,-10.5,1,0,0,rectangle,9,-10.5,1,0,0,1,3,0.00228,9,-10.5,1,0,0,0,13,13,30,1,0,,,,,,,,,,,,,,,,,,,,,
,,,,,,,,,,,,,,,,,,,,,,,,,,,,,,,,,,,,,,,,,,5f9aba6600cdf11f1c9b915c,606bfa88dbd290d72095ede2,2021-04-06_08h23.50.307,Colour_Similarity_Experiment,2020.2.10,Win32,60,60675255c767bca6388caeee,17.50156682,17.10932895,22.36541714,16.85827842,16.68218278,17.10932895,,,,,,,,,,,,,,,,,,,,PF,3,strong,,,,,,,,4,1.66623,,,,,,,,,,,,,,,,,,,,,,,,,,,,7,strong,40,-67.5,1,0,0,response3disk,2,177,-5,7.5,1,0,0,rectangle,-5,7.5,1,0,0,1,2,0.00249,-5,7.5,1,0,0,0,14,14,138,1,0,,,,,,,,,,,,,,,,,,,,,
,,,,,,,,,,,,,,,,,,,,,,,,,,,,,,,,,,,,,,,,,,5f9aba6600cdf11f1c9b915c,606bfa88dbd290d72095ede2,2021-04-06_08h23.50.307,Colour_Similarity_Experiment,2020.2.10,Win32,60,60675255c767bca6388caeee,17.50156682,17.10932895,22.36541714,16.85827842,16.68218278,17.10932895,,,,,,,,,,,,,,,,,,,,PF,3,strong,,,,,,,,5,1.36624,,,,,,,,,,,,,,,,,,,,,,,,,,,,2,strong,69,-40.5,1,0,0,response3disk,3,178,25,9.5,1,0,0,rectangle,-62,-49.5,1,0,0,1,2,2.80153,-26,-5.5,1,0,0,0,15,15,104,1,1,response5disk_3,rectangle,,,,,,,,,,,,,,,,,,,
,,,,,,,,,,,,,,,,,,,,,,,,,,,,,,,,,,,,,,,,,,5f9aba6600cdf11f1c9b915c,606bfa88dbd290d72095ede2,2021-04-06_08h23.50.307,Colour_Similarity_Experiment,2020.2.10,Win32,60,60675255c767bca6388caeee,17.50156682,17.10932895,22.36541714,16.85827842,16.68218278,17.10932895,,,,,,,,,,,,,,,,,,,,PF,3,strong,,,,,,,,3,1.26702,,,,,,,,,,,,,,,,,,,,,,,,,,,,4,strong,-41,-83.5,1,0,0,response5disk,6,179,-19,-11.5,1,0,0,rectangle,-19,-11.5,1,0,0,1,0,0.002385,-19,-11.5,1,0,0,0,16,16,122,1,0,,,,,,,,,,,,,,,,,,,,,
,,,,,,,,,,,,,,,,,,,,,,,,,,,,,,,,,,,,,,,,,,5f9aba6600cdf11f1c9b915c,606bfa88dbd290d72095ede2,2021-04-06_08h23.50.307,Colour_Similarity_Experiment,2020.2.10,Win32,60,60675255c767bca6388caeee,17.50156682,17.10932895,22.36541714,16.85827842,16.68218278,17.10932895,,,,,,,,,,,,,,,,,,,,PF,3,weak,,,,,,,,6,0.99981,,,,,,,,,,,,,,,,,,,,,,,,,,,,7,weak,51,34.5,1,0,0,response1disk,1,180,13,-2.5,1,0,0,rectangle,13,-2.5,1,0,0,1,1,0.002275,13,-2.5,1,0,0,0,17,17,53,1,0,,,,,,,,,,,,,,,,,,,,,
,,,,,,,,,,,,,,,,,,,,,,,,,,,,,,,,,,,,,,,,,,5f9aba6600cdf11f1c9b915c,606bfa88dbd290d72095ede2,2021-04-06_08h23.50.307,Colour_Similarity_Experiment,2020.2.10,Win32,60,60675255c767bca6388caeee,17.50156682,17.10932895,22.36541714,16.85827842,16.68218278,17.10932895,,,,,,,,,,,,,,,,,,,,PF,3,strong,,,,,,,,6,1.51651,,,,,,,,,,,,,,,,,,,,,,,,,,,,7,strong,88,59.5,1,0,0,response1disk,5,181,21,4.5,1,0,0,rectangle,21,4.5,1,0,0,1,7,0.00196,21,4.5,1,0,0,0,18,18,156,1,0,,,,,,,,,,,,,,,,,,,,,
,,,,,,,,,,,,,,,,,,,,,,,,,,,,,,,,,,,,,,,,,,5f9aba6600cdf11f1c9b915c,606bfa88dbd290d72095ede2,2021-04-06_08h23.50.307,Colour_Similarity_Experiment,2020.2.10,Win32,60,60675255c767bca6388caeee,17.50156682,17.10932895,22.36541714,16.85827842,16.68218278,17.10932895,,,,,,,,,,,,,,,,,,,,PF,3,weak,,,,,,,,7,1.433105,,,,,,,,,,,,,,,,,,,,,,,,,,,,1,weak,42,71.5,1,0,0,response1disk,7,182,-5,-12.5,1,0,0,rectangle,-5,-12.5,1,0,0,1,4,0.001835,-5,-12.5,1,0,0,0,19,19,150,1,0,,,,,,,,,,,,,,,,,,,,,
,,,,,,,,,,,,,,,,,,,,,,,,,,,,,,,,,,,,,,,,,,5f9aba6600cdf11f1c9b915c,606bfa88dbd290d72095ede2,2021-04-06_08h23.50.307,Colour_Similarity_Experiment,2020.2.10,Win32,60,60675255c767bca6388caeee,17.50156682,17.10932895,22.36541714,16.85827842,16.68218278,17.10932895,,,,,,,,,,,,,,,,,,,,PF,3,strong,,,,,,,,5,2.2835,,,,,,,,,,,,,,,,,,,,,,,,,,,,8,strong,48,-40.5,1,0,0,response3disk,4,183,16,-10.5,1,0,0,rectangle,16,-10.5,1,0,0,1,5,0.00276,16,-10.5,1,0,0,0,20,20,88,1,0,,,,,,,,,,,,,,,,,,,,,
,,,,,,,,,,,,,,,,,,,,,,,,,,,,,,,,,,,,,,,,,,5f9aba6600cdf11f1c9b915c,606bfa88dbd290d72095ede2,2021-04-06_08h23.50.307,Colour_Similarity_Experiment,2020.2.10,Win32,60,60675255c767bca6388caeee,17.50156682,17.10932895,22.36541714,16.85827842,16.68218278,17.10932895,,,,,,,,,,,,,,,,,,,,PF,3,strong,,,,,,,,2,1.41622,,,,,,,,,,,,,,,,,,,,,,,,,,,,6,strong,-83,-49.5,1,0,0,response5disk,3,184,-25,2.5,1,0,0,rectangle,-25,2.5,1,0,0,1,2,0.002035,-25,2.5,1,0,0,0,21,21,21,1,0,,,,,,,,,,,,,,,,,,,,,
,,,,,,,,,,,,,,,,,,,,,,,,,,,,,,,,,,,,,,,,,,5f9aba6600cdf11f1c9b915c,606bfa88dbd290d72095ede2,2021-04-06_08h23.50.307,Colour_Similarity_Experiment,2020.2.10,Win32,60,60675255c767bca6388caeee,17.50156682,17.10932895,22.36541714,16.85827842,16.68218278,17.10932895,,,,,,,,,,,,,,,,,,,,PF,3,weak,,,,,,,,4,3.41637,,,,,,,,,,,,,,,,,,,,,,,,,,,,4,weak,44,-73.5,1,0,0,response3disk,7,185,18,1.5,1,0,0,rectangle,18,1.5,1,0,0,1,7,0.00188,18,1.5,1,0,0,0,22,22,38,1,0,,,,,,,,,,,,,,,,,,,,,
,,,,,,,,,,,,,,,,,,,,,,,,,,,,,,,,,,,,,,,,,,5f9aba6600cdf11f1c9b915c,606bfa88dbd290d72095ede2,2021-04-06_08h23.50.307,Colour_Similarity_Experiment,2020.2.10,Win32,60,60675255c767bca6388caeee,17.50156682,17.10932895,22.36541714,16.85827842,16.68218278,17.10932895,,,,,,,,,,,,,,,,,,,,PF,3,strong,,,,,,,,7,1.74945,,,,,,,,,,,,,,,,,,,,,,,,,,,,7,strong,45,67.5,1,0,0,response1disk,1,186,11,5.5,1,0,0,rectangle,11,5.5,1,0,0,1,2,0.00207,11,5.5,1,0,0,0,23,23,132,1,0,,,,,,,,,,,,,,,,,,,,,
,,,,,,,,,,,,,,,,,,,,,,,,,,,,,,,,,,,,,,,,,,5f9aba6600cdf11f1c9b915c,606bfa88dbd290d72095ede2,2021-04-06_08h23.50.307,Colour_Similarity_Experiment,2020.2.10,Win32,60,60675255c767bca6388caeee,17.50156682,17.10932895,22.36541714,16.85827842,16.68218278,17.10932895,,,,,,,,,,,,,,,,,,,,PF,3,strong,,,,,,,,3,1.2501,,,,,,,,,,,,,,,,,,,,,,,,,,,,8,strong,-25,-38.5,1,0,0,response5disk,5,187,-5,11.5,1,0,0,rectangle,-5,11.5,1,0,0,1,3,0.00174,-5,11.5,1,0,0,0,24,24,152,1,0,,,,,,,,,,,,,,,,,,,,,
,,,,,,,,,,,,,,,,,,,,,,,,,,,,,,,,,,,,,,,,,,5f9aba6600cdf11f1c9b915c,606bfa88dbd290d72095ede2,2021-04-06_08h23.50.307,Colour_Similarity_Experiment,2020.2.10,Win32,60,60675255c767bca6388caeee,17.50156682,17.10932895,22.36541714,16.85827842,16.68218278,17.10932895,,,,,,,,,,,,,,,,,,,,PF,3,weak,,,,,,,,4,1.99784,,,,,,,,,,,,,,,,,,,,,,,,,,,,5,weak,33,-68.5,1,0,0,response3disk,8,188,25,-7.5,1,0,0,rectangle,25,-7.5,1,0,0,1,2,0.001855,25,-7.5,1,0,0,0,25,25,149,1,0,,,,,,,,,,,,,,,,,,,,,
,,,,,,,,,,,,,,,,,,,,,,,,,,,,,,,,,,,,,,,,,,5f9aba6600cdf11f1c9b915c,606bfa88dbd290d72095ede2,2021-04-06_08h23.50.307,Colour_Similarity_Experiment,2020.2.10,Win32,60,60675255c767bca6388caeee,17.50156682,17.10932895,22.36541714,16.85827842,16.68218278,17.10932895,,,,,,,,,,,,,,,,,,,,PF,3,strong,,,,,,,,3,1.35154,,,,,,,,,,,,,,,,,,,,,,,,,,,,9,strong,-39,-60.5,1,0,0,response5disk,4,189,9,4.5,1,0,0,rectangle,9,4.5,1,0,0,1,3,0.00186,9,4.5,1,0,0,0,26,26,60,1,0,,,,,,,,,,,,,,,,,,,,,
,,,,,,,,,,,,,,,,,,,,,,,,,,,,,,,,,,,,,,,,,,5f9aba6600cdf11f1c9b915c,606bfa88dbd290d72095ede2,2021-04-06_08h23.50.307,Colour_Similarity_Experiment,2020.2.10,Win32,60,60675255c767bca6388caeee,17.50156682,17.10932895,22.36541714,16.85827842,16.68218278,17.10932895,,,,,,,,,,,,,,,,,,,,PF,3,weak,,,,,,,,0,1.43322,,,,,,,,,,,,,,,,,,,,,,,,,,,,2,weak,-22,86.5,1,0,0,response7disk,3,190,-2,5.5,1,0,0,rectangle,-2,5.5,1,0,0,1,6,0.00226,-2,5.5,1,0,0,0,27,27,69,1,0,,,,,,,,,,,,,,,,,,,,,
