key_resp.keys,key_resp.rt,key_resp_16.keys,key_resp_16.rt,key_resp_2.keys,key_resp_2.rt,X Scale,ratio_pxpermm,screen_size_x,screen_size_y,testsize,key_resp_3.keys,key_resp_4.keys,key_resp_4.rt,line_size,key_resp_5.keys,key_resp_5.rt,key_resp_6.keys,key_resp_6.rt,key_resp_8.keys,key_resp_8.rt,key_resp_7.keys,key_resp_7.rt,key_resp_12.keys,key_resp_12.rt,key_resp_11.keys,key_resp_11.rt,key_resp_18.keys,key_resp_18.rt,key_resp_21.keys,key_resp_21.rt,key_resp_13.keys,key_resp_13.rt,key_resp_19.keys,key_resp_19.rt,ballposx,viewer_distance,trials.thisRepN,trials.thisTrialN,trials.thisN,trials.thisIndex,trials.ran,participant,session,date,expName,psychopyVersion,OS,frameRate,study_id,realFrameRate1,realFrameRate2,realFrameRate3,realFrameRate4,realFrameRate5,realFrameRate,viewerdistancecm,DVA_to_distance,radius_F,radius_P,r_F,R_P,key_resp_20.keys,key_resp_20.rt,key_resp_14.keys,key_resp_14.rt,key_resp_15.keys,key_resp_15.rt,key_resp_17.keys,key_resp_17.rt,key_resp_9.keys,key_resp_9.rt,key_resp_10.keys,key_resp_10.rt,Colour_1,Ecc,mask_frames,maskCon,mouse_5.x,mouse_5.y,mouse_5.leftButton,mouse_5.midButton,mouse_5.rightButton,mouse_5.clicked_name,Colour_2,similarity,response_time,mouse_10.x,mouse_10.y,mouse_10.leftButton,mouse_10.midButton,mouse_10.rightButton,mouse_10.clicked_name,mouse_7.x,mouse_7.y,mouse_7.leftButton,mouse_7.midButton,mouse_7.rightButton,catchnumberprac,mouse_6.x,mouse_6.y,mouse_6.leftButton,mouse_6.midButton,mouse_6.rightButton,duringprac.thisRepN,duringprac.thisTrialN,duringprac.thisN,duringprac.thisIndex,duringprac.ran,mouse_7.clicked_name,catchprac,mouse_6.clicked_name,key_resp_22.keys,key_resp_22.rt,Colour1,maskCon1,mouse.x,mouse.y,mouse.leftButton,mouse.midButton,mouse.rightButton,mouse.clicked_name,Colour2,trialnumber,mouse_2.x,mouse_2.y,mouse_2.leftButton,mouse_2.midButton,mouse_2.rightButton,mouse_2.clicked_name,mouse_3.x,mouse_3.y,mouse_3.leftButton,mouse_3.midButton,mouse_3.rightButton,catchresponse,catchnumber,response_time_catch,mouse_11.x,mouse_11.y,mouse_11.leftButton,mouse_11.midButton,mouse_11.rightButton,trials_2.thisRepN,trials_2.thisTrialN,trials_2.thisN,trials_2.thisIndex,trials_2.ran,Catch,mouse_3.clicked_name,mouse_11.clicked_name,trials_3.thisRepN,trials_3.thisTrialN,trials_3.thisN,trials_3.thisIndex,trials_3.ran,answer1,rt1,answer2,rt2,answer3,rt3,answer4,rt4,answer5,rt5,answer6,rt6,answer7,rt7
space,2.898295,space,31.840125,space,10.067,49.9,4.99,288.5771543,180.3607214,1440,,space,12.45813,99.8,space,15.531625,space,10.54062,space,1.703915,space,5.629335,space,9.268,space,9.77242,space,12.33,space,10.246415,space,17.120045,return,4.13875,0,480.8043202,0,0,0,0,1,5fde2f7e43c57856e4e4a919,606a0f487d2ca0eaf2287a37,2021-04-04_21h12.14.090,Colour_Similarity_Experiment,2020.2.10,MacIntel,60,60675255c767bca6388caeee,16.7670068,16.66666841,16.7101174,16.66438585,16.66603416,16.66666841,,,,,,,,,,,,,,,,,,,,,,,,,,,,,,,,,,,,,,,,,,,,,,,,,,,,,,,,,,,,,,,,,,,,,,,,,,,,,,,,,,,,,,,,,,,,,,,,,,,,,,,,,,,,,,,,,,
,,,,,,,,,,,,,,,,,,,,,,,,,,,,,,,,,return,4.08438,8.64,473.5922554,1,0,1,0,1,5fde2f7e43c57856e4e4a919,606a0f487d2ca0eaf2287a37,2021-04-04_21h12.14.090,Colour_Similarity_Experiment,2020.2.10,MacIntel,60,60675255c767bca6388caeee,16.7670068,16.66666841,16.7101174,16.66438585,16.66603416,16.66666841,,,,,,,,,,,,,,,,,,,,,,,,,,,,,,,,,,,,,,,,,,,,,,,,,,,,,,,,,,,,,,,,,,,,,,,,,,,,,,,,,,,,,,,,,,,,,,,,,,,,,,,,,,,,,,,,,,
,,,,,,,,,,,,,,,,,,,,,,,,,,,,,,,,,return,3.95163,25.92,459.1681258,2,0,2,0,1,5fde2f7e43c57856e4e4a919,606a0f487d2ca0eaf2287a37,2021-04-04_21h12.14.090,Colour_Similarity_Experiment,2020.2.10,MacIntel,60,60675255c767bca6388caeee,16.7670068,16.66666841,16.7101174,16.66438585,16.66603416,16.66666841,,,,,,,,,,,,,,,,,,,,,,,,,,,,,,,,,,,,,,,,,,,,,,,,,,,,,,,,,,,,,,,,,,,,,,,,,,,,,,,,,,,,,,,,,,,,,,,,,,,,,,,,,,,,,,,,,,
,,,,,,,,,,,,,,,,,,,,,,,,,,,,,,,,,return,4.05258,12.96,469.986223,3,0,3,0,1,5fde2f7e43c57856e4e4a919,606a0f487d2ca0eaf2287a37,2021-04-04_21h12.14.090,Colour_Similarity_Experiment,2020.2.10,MacIntel,60,60675255c767bca6388caeee,16.7670068,16.66666841,16.7101174,16.66438585,16.66603416,16.66666841,,,,,,,,,,,,,,,,,,,,,,,,,,,,,,,,,,,,,,,,,,,,,,,,,,,,,,,,,,,,,,,,,,,,,,,,,,,,,,,,,,,,,,,,,,,,,,,,,,,,,,,,,,,,,,,,,,
,,,,,,,,,,,,,,,,,,,,,,,,,,,,,,,,,return,3.923045,30.24,455.5620934,4,0,4,0,1,5fde2f7e43c57856e4e4a919,606a0f487d2ca0eaf2287a37,2021-04-04_21h12.14.090,Colour_Similarity_Experiment,2020.2.10,MacIntel,60,60675255c767bca6388caeee,16.7670068,16.66666841,16.7101174,16.66438585,16.66603416,16.66666841,,,,,,,,,,,,,,,,,,,,,,,,,,,,,,,,,,,,,,,,,,,,,,,,,,,,,,,,,,,,,,,,,,,,,,,,,,,,,,,,,,,,,,,,,,,,,,,,,,,,,,,,,,,,,,,,,,
,,,,,,,,,,,,,,,,,,,,,,,,,,,,,,,,,,,,,,,,,,5fde2f7e43c57856e4e4a919,606a0f487d2ca0eaf2287a37,2021-04-04_21h12.14.090,Colour_Similarity_Experiment,2020.2.10,MacIntel,60,60675255c767bca6388caeee,16.7670068,16.66666841,16.7101174,16.66438585,16.66603416,16.66666841,47,8.203877582,61.4060237,409.3734914,40.93734914,184.2180711,space,5.01696,space,26.72687,space,41.81871,space,7.34642,space,6.133795,space,5.351085,7,PF,3,weak,-31.56640625,87.9140625,1,0,0,response7disk_5,9,0,16.13488,3.4296875,4.2421875,1,0,0,rectangle_8,3.4296875,4.2421875,1,0,0,1,3.4296875,4.2421875,1,0,0,0,0,0,4,1,,,,,,,,,,,,,,,,,,,,,,,,,,,,,,,,,,,,,,,,,,,,,,,,,,,,,,,,,,,,,
,,,,,,,,,,,,,,,,,,,,,,,,,,,,,,,,,,,,,,,,,,5fde2f7e43c57856e4e4a919,606a0f487d2ca0eaf2287a37,2021-04-04_21h12.14.090,Colour_Similarity_Experiment,2020.2.10,MacIntel,60,60675255c767bca6388caeee,16.7670068,16.66666841,16.7101174,16.66438585,16.66603416,16.66666841,,,,,,,,,,,,,,,,,,,8,PF,3,weak,37.0234375,-67.4296875,1,0,0,response3disk_5,1,4,7.417125,-2.32421875,3.97265625,1,0,0,rectangle_8,-2.32421875,3.97265625,1,0,0,1,-2.32421875,3.97265625,1,0,0,0,1,1,5,1,,,,,,,,,,,,,,,,,,,,,,,,,,,,,,,,,,,,,,,,,,,,,,,,,,,,,,,,,,,,,
,,,,,,,,,,,,,,,,,,,,,,,,,,,,,,,,,,,,,,,,,,5fde2f7e43c57856e4e4a919,606a0f487d2ca0eaf2287a37,2021-04-04_21h12.14.090,Colour_Similarity_Experiment,2020.2.10,MacIntel,60,60675255c767bca6388caeee,16.7670068,16.66666841,16.7101174,16.66438585,16.66603416,16.66666841,,,,,,,,,,,,,,,,,,,3,PF,3,weak,61.3203125,26.44140625,1,0,0,response1disk_5,9,6,3.601665,17.1015625,-5.6484375,1,0,0,rectangle_8,17.1015625,-5.6484375,1,0,0,1,17.1015625,-5.6484375,1,0,0,0,2,2,6,1,,,,,,,,,,,,,,,,,,,,,,,,,,,,,,,,,,,,,,,,,,,,,,,,,,,,,,,,,,,,,
,,,,,,,,,,,,,,,,,,,,,,,,,,,,,,,,,,,,,,,,,,5fde2f7e43c57856e4e4a919,606a0f487d2ca0eaf2287a37,2021-04-04_21h12.14.090,Colour_Similarity_Experiment,2020.2.10,MacIntel,60,60675255c767bca6388caeee,16.7670068,16.66666841,16.7101174,16.66438585,16.66603416,16.66666841,,,,,,,,,,,,,,,,,,,6,PF,3,weak,-79.13671875,-23.96484375,1,0,0,response5disk_5,3,2,2.600835,-5.578125,-7.0546875,1,0,0,rectangle_8,-5.578125,-7.0546875,1,0,0,1,-5.578125,-7.0546875,1,0,0,0,3,3,1,1,,,,,,,,,,,,,,,,,,,,,,,,,,,,,,,,,,,,,,,,,,,,,,,,,,,,,,,,,,,,,
,,,,,,,,,,,,,,,,,,,,,,,,,,,,,,,,,,,,,,,,,,5fde2f7e43c57856e4e4a919,606a0f487d2ca0eaf2287a37,2021-04-04_21h12.14.090,Colour_Similarity_Experiment,2020.2.10,MacIntel,60,60675255c767bca6388caeee,16.7670068,16.66666841,16.7101174,16.66438585,16.66603416,16.66666841,,,,,,,,,,,,,,,,,,,5,PF,3,strong,-62.20703125,-30.98828125,1,0,0,response5disk_5,8,2,3.050835,-5.5,-2.921875,1,0,0,rectangle_8,-72.0703125,33.58984375,1,0,0,1,-10.87890625,-2.3046875,1,0,0,0,4,4,2,1,response7disk_7,1,rectangle_4,,,,,,,,,,,,,,,,,,,,,,,,,,,,,,,,,,,,,,,,,,,,,,,,,,,,,,,,,,
,,,,,,,,,,,,,,,,,,,,,,,,,,,,,,,,,,,,,,,,,,5fde2f7e43c57856e4e4a919,606a0f487d2ca0eaf2287a37,2021-04-04_21h12.14.090,Colour_Similarity_Experiment,2020.2.10,MacIntel,60,60675255c767bca6388caeee,16.7670068,16.66666841,16.7101174,16.66438585,16.66603416,16.66666841,,,,,,,,,,,,,,,,,,,5,PF,3,strong,-33.94140625,-68.57421875,1,0,0,response5disk_5,5,3,2.11633,-5.55078125,-5.91015625,1,0,0,rectangle_8,-5.55078125,-5.91015625,1,0,0,1,-5.55078125,-5.91015625,1,0,0,0,5,5,3,1,,,,,,,,,,,,,,,,,,,,,,,,,,,,,,,,,,,,,,,,,,,,,,,,,,,,,,,,,,,,,
,,,,,,,,,,,,,,,,,,,,,,,,,,,,,,,,,,,,,,,,,,5fde2f7e43c57856e4e4a919,606a0f487d2ca0eaf2287a37,2021-04-04_21h12.14.090,Colour_Similarity_Experiment,2020.2.10,MacIntel,60,60675255c767bca6388caeee,16.7670068,16.66666841,16.7101174,16.66438585,16.66603416,16.66666841,,,,,,,,,,,,,,,,,,,1,PF,3,strong,37.1015625,-66.89453125,1,0,0,response3disk_5,5,4,2.051375,4.65625,-3.08984375,1,0,0,rectangle_8,4.65625,-3.08984375,1,0,0,1,4.65625,-3.08984375,1,0,0,0,6,6,0,1,,,,,,,,,,,,,,,,,,,,,,,,,,,,,,,,,,,,,,,,,,,,,,,,,,,,,,,,,,,,,
,,,,,,,,,,,,,,,,,,,,,,,,,,,,,,,,,,,,,,,,,,5fde2f7e43c57856e4e4a919,606a0f487d2ca0eaf2287a37,2021-04-04_21h12.14.090,Colour_Similarity_Experiment,2020.2.10,MacIntel,60,60675255c767bca6388caeee,16.7670068,16.66666841,16.7101174,16.66438585,16.66603416,16.66666841,,,,,,,,,,,,,,,,,,,,PF,3,strong,,,,,,,,5,4.234455,,,,,,,,,,,,,,,,,,,,,,,,,,space,8.490995,7,strong,70.15625,-32.73046875,1,0,0,response3disk,1,1,0.5703125,-6.3515625,1,0,0,rectangle,0.5703125,-6.3515625,1,0,0,,6,0.003125,0.5703125,-6.3515625,1,0,0,0,0,0,132,1,0,,,,,,,,,,,,,,,,,,,,,
,,,,,,,,,,,,,,,,,,,,,,,,,,,,,,,,,,,,,,,,,,5fde2f7e43c57856e4e4a919,606a0f487d2ca0eaf2287a37,2021-04-04_21h12.14.090,Colour_Similarity_Experiment,2020.2.10,MacIntel,60,60675255c767bca6388caeee,16.7670068,16.66666841,16.7101174,16.66438585,16.66603416,16.66666841,,,,,,,,,,,,,,,,,,,,PF,3,weak,,,,,,,,6,2.10071,,,,,,,,,,,,,,,,,,,,,,,,,,,,8,weak,67.75390625,25.47265625,1,0,0,response1disk,6,2,7.546875,-9.6484375,1,0,0,rectangle,83.640625,-47.25390625,1,0,0,5,5,3.434165,4.921875,-5.86328125,1,0,0,0,1,1,161,1,1,response3disk_3,rectangle,,,,,,,,,,,,,,,,,,,
,,,,,,,,,,,,,,,,,,,,,,,,,,,,,,,,,,,,,,,,,,5fde2f7e43c57856e4e4a919,606a0f487d2ca0eaf2287a37,2021-04-04_21h12.14.090,Colour_Similarity_Experiment,2020.2.10,MacIntel,60,60675255c767bca6388caeee,16.7670068,16.66666841,16.7101174,16.66438585,16.66603416,16.66666841,,,,,,,,,,,,,,,,,,,,PF,3,strong,,,,,,,,3,2.40029,,,,,,,,,,,,,,,,,,,,,,,,,,,,5,strong,-32.47265625,-65.31640625,1,0,0,response5disk,8,3,-7.3828125,-0.421875,1,0,0,rectangle,-7.3828125,-0.421875,1,0,0,5,4,0.001665,-7.3828125,-0.421875,1,0,0,0,2,2,16,1,0,,,,,,,,,,,,,,,,,,,,,
,,,,,,,,,,,,,,,,,,,,,,,,,,,,,,,,,,,,,,,,,,5fde2f7e43c57856e4e4a919,606a0f487d2ca0eaf2287a37,2021-04-04_21h12.14.090,Colour_Similarity_Experiment,2020.2.10,MacIntel,60,60675255c767bca6388caeee,16.7670068,16.66666841,16.7101174,16.66438585,16.66603416,16.66666841,,,,,,,,,,,,,,,,,,,,PF,3,weak,,,,,,,,6,2.184915,,,,,,,,,,,,,,,,,,,,,,,,,,,,9,weak,86.6328125,31.93359375,1,0,0,response1disk,3,4,-6.27734375,-0.17578125,1,0,0,rectangle,-6.27734375,-0.17578125,1,0,0,5,7,0.00133,-6.27734375,-0.17578125,1,0,0,0,3,3,119,1,0,,,,,,,,,,,,,,,,,,,,,
,,,,,,,,,,,,,,,,,,,,,,,,,,,,,,,,,,,,,,,,,,5fde2f7e43c57856e4e4a919,606a0f487d2ca0eaf2287a37,2021-04-04_21h12.14.090,Colour_Similarity_Experiment,2020.2.10,MacIntel,60,60675255c767bca6388caeee,16.7670068,16.66666841,16.7101174,16.66438585,16.66603416,16.66666841,,,,,,,,,,,,,,,,,,,,PF,3,weak,,,,,,,,3,2.21716,,,,,,,,,,,,,,,,,,,,,,,,,,,,6,weak,-40.88671875,-65.58984375,1,0,0,response5disk,7,5,-10.890625,6.203125,1,0,0,rectangle,-10.890625,6.203125,1,0,0,5,0,0.00125,-10.890625,6.203125,1,0,0,0,4,4,50,1,0,,,,,,,,,,,,,,,,,,,,,
,,,,,,,,,,,,,,,,,,,,,,,,,,,,,,,,,,,,,,,,,,5fde2f7e43c57856e4e4a919,606a0f487d2ca0eaf2287a37,2021-04-04_21h12.14.090,Colour_Similarity_Experiment,2020.2.10,MacIntel,60,60675255c767bca6388caeee,16.7670068,16.66666841,16.7101174,16.66438585,16.66603416,16.66666841,,,,,,,,,,,,,,,,,,,,PF,3,weak,,,,,,,,1,2.08358,,,,,,,,,,,,,,,,,,,,,,,,,,,,2,weak,-77.73828125,24.3671875,1,0,0,response7disk,4,6,-19.015625,-9.82421875,1,0,0,rectangle,-19.015625,-9.82421875,1,0,0,5,3,0.001715,-19.015625,-9.82421875,1,0,0,0,5,5,127,1,0,,,,,,,,,,,,,,,,,,,,,
,,,,,,,,,,,,,,,,,,,,,,,,,,,,,,,,,,,,,,,,,,5fde2f7e43c57856e4e4a919,606a0f487d2ca0eaf2287a37,2021-04-04_21h12.14.090,Colour_Similarity_Experiment,2020.2.10,MacIntel,60,60675255c767bca6388caeee,16.7670068,16.66666841,16.7101174,16.66438585,16.66603416,16.66666841,,,,,,,,,,,,,,,,,,,,PF,3,strong,,,,,,,,5,2.4675,,,,,,,,,,,,,,,,,,,,,,,,,,,,1,strong,57.71875,-40.84765625,1,0,0,response3disk,2,7,-7.46484375,6.30078125,1,0,0,rectangle,-7.46484375,6.30078125,1,0,0,5,1,0.00179,-7.46484375,6.30078125,1,0,0,0,6,6,2,1,0,,,,,,,,,,,,,,,,,,,,,
,,,,,,,,,,,,,,,,,,,,,,,,,,,,,,,,,,,,,,,,,,5fde2f7e43c57856e4e4a919,606a0f487d2ca0eaf2287a37,2021-04-04_21h12.14.090,Colour_Similarity_Experiment,2020.2.10,MacIntel,60,60675255c767bca6388caeee,16.7670068,16.66666841,16.7101174,16.66438585,16.66603416,16.66666841,,,,,,,,,,,,,,,,,,,,PF,3,strong,,,,,,,,4,1.81788,,,,,,,,,,,,,,,,,,,,,,,,,,,,8,strong,37.66796875,-62.59375,1,0,0,response3disk,5,8,5.8984375,5.55078125,1,0,0,rectangle,5.8984375,5.55078125,1,0,0,5,7,0.001415,5.8984375,5.55078125,1,0,0,0,7,7,152,1,0,,,,,,,,,,,,,,,,,,,,,
,,,,,,,,,,,,,,,,,,,,,,,,,,,,,,,,,,,,,,,,,,5fde2f7e43c57856e4e4a919,606a0f487d2ca0eaf2287a37,2021-04-04_21h12.14.090,Colour_Similarity_Experiment,2020.2.10,MacIntel,60,60675255c767bca6388caeee,16.7670068,16.66666841,16.7101174,16.66438585,16.66603416,16.66666841,,,,,,,,,,,,,,,,,,,,PF,3,strong,,,,,,,,5,2.5675,,,,,,,,,,,,,,,,,,,,,,,,,,,,2,strong,55.8203125,-29.05859375,1,0,0,response3disk,2,9,3.76953125,10.14453125,1,0,0,rectangle,3.76953125,10.14453125,1,0,0,5,5,0.001625,3.76953125,10.14453125,1,0,0,0,8,8,142,1,0,,,,,,,,,,,,,,,,,,,,,
,,,,,,,,,,,,,,,,,,,,,,,,,,,,,,,,,,,,,,,,,,5fde2f7e43c57856e4e4a919,606a0f487d2ca0eaf2287a37,2021-04-04_21h12.14.090,Colour_Similarity_Experiment,2020.2.10,MacIntel,60,60675255c767bca6388caeee,16.7670068,16.66666841,16.7101174,16.66438585,16.66603416,16.66666841,,,,,,,,,,,,,,,,,,,,PF,3,weak,,,,,,,,6,2.351125,,,,,,,,,,,,,,,,,,,,,,,,,,,,1,weak,92.5390625,25.578125,1,0,0,response1disk,3,10,-0.28125,-5.8046875,1,0,0,rectangle,-0.28125,-5.8046875,1,0,0,5,6,0.0015,-0.28125,-5.8046875,1,0,0,0,9,9,1,1,0,,,,,,,,,,,,,,,,,,,,,
,,,,,,,,,,,,,,,,,,,,,,,,,,,,,,,,,,,,,,,,,,5fde2f7e43c57856e4e4a919,606a0f487d2ca0eaf2287a37,2021-04-04_21h12.14.090,Colour_Similarity_Experiment,2020.2.10,MacIntel,60,60675255c767bca6388caeee,16.7670068,16.66666841,16.7101174,16.66438585,16.66603416,16.66666841,,,,,,,,,,,,,,,,,,,,PF,3,strong,,,,,,,,7,2.18454,,,,,,,,,,,,,,,,,,,,,,,,,,,,9,strong,28.5625,84.23828125,1,0,0,response1disk,2,11,8.2421875,6.64453125,1,0,0,rectangle,-37.04296875,87.80859375,1,0,0,0,0,3.29979,0.34375,-1.453125,1,0,0,0,10,10,11,1,1,response7disk_3,rectangle,,,,,,,,,,,,,,,,,,,
,,,,,,,,,,,,,,,,,,,,,,,,,,,,,,,,,,,,,,,,,,5fde2f7e43c57856e4e4a919,606a0f487d2ca0eaf2287a37,2021-04-04_21h12.14.090,Colour_Similarity_Experiment,2020.2.10,MacIntel,60,60675255c767bca6388caeee,16.7670068,16.66666841,16.7101174,16.66438585,16.66603416,16.66666841,,,,,,,,,,,,,,,,,,,,PF,3,weak,,,,,,,,3,1.85042,,,,,,,,,,,,,,,,,,,,,,,,,,,,6,weak,-33.62890625,-76.41015625,1,0,0,response5disk,4,12,-1.0625,2.94921875,1,0,0,rectangle,-1.0625,2.94921875,1,0,0,0,3,0.001625,-1.0625,2.94921875,1,0,0,0,11,11,33,1,0,,,,,,,,,,,,,,,,,,,,,
,,,,,,,,,,,,,,,,,,,,,,,,,,,,,,,,,,,,,,,,,,5fde2f7e43c57856e4e4a919,606a0f487d2ca0eaf2287a37,2021-04-04_21h12.14.090,Colour_Similarity_Experiment,2020.2.10,MacIntel,60,60675255c767bca6388caeee,16.7670068,16.66666841,16.7101174,16.66438585,16.66603416,16.66666841,,,,,,,,,,,,,,,,,,,,PF,3,weak,,,,,,,,5,2.63283,,,,,,,,,,,,,,,,,,,,,,,,,,,,4,weak,70.43359375,-42.9921875,1,0,0,response3disk,7,13,15.1640625,1.62109375,1,0,0,rectangle,15.1640625,1.62109375,1,0,0,0,1,0.001495,15.1640625,1.62109375,1,0,0,0,12,12,38,1,0,,,,,,,,,,,,,,,,,,,,,
,,,,,,,,,,,,,,,,,,,,,,,,,,,,,,,,,,,,,,,,,,5fde2f7e43c57856e4e4a919,606a0f487d2ca0eaf2287a37,2021-04-04_21h12.14.090,Colour_Similarity_Experiment,2020.2.10,MacIntel,60,60675255c767bca6388caeee,16.7670068,16.66666841,16.7101174,16.66438585,16.66603416,16.66666841,,,,,,,,,,,,,,,,,,,,PF,3,weak,,,,,,,,3,1.59946,,,,,,,,,,,,,,,,,,,,,,,,,,,,1,weak,-35.109375,-73.7890625,1,0,0,response5disk,4,14,-11.9765625,-12.5390625,1,0,0,rectangle,-11.9765625,-12.5390625,1,0,0,0,6,0.00117,-11.9765625,-12.5390625,1,0,0,0,13,13,139,1,0,,,,,,,,,,,,,,,,,,,,,
,,,,,,,,,,,,,,,,,,,,,,,,,,,,,,,,,,,,,,,,,,5fde2f7e43c57856e4e4a919,606a0f487d2ca0eaf2287a37,2021-04-04_21h12.14.090,Colour_Similarity_Experiment,2020.2.10,MacIntel,60,60675255c767bca6388caeee,16.7670068,16.66666841,16.7101174,16.66438585,16.66603416,16.66666841,,,,,,,,,,,,,,,,,,,,PF,3,strong,,,,,,,,2,1.750585,,,,,,,,,,,,,,,,,,,,,,,,,,,,1,strong,-65.1953125,-58.6953125,1,0,0,response5disk,8,15,1.49609375,-4.10546875,1,0,0,rectangle,1.49609375,-4.10546875,1,0,0,0,1,0.00133,1.49609375,-4.10546875,1,0,0,0,14,14,27,1,0,,,,,,,,,,,,,,,,,,,,,
,,,,,,,,,,,,,,,,,,,,,,,,,,,,,,,,,,,,,,,,,,5fde2f7e43c57856e4e4a919,606a0f487d2ca0eaf2287a37,2021-04-04_21h12.14.090,Colour_Similarity_Experiment,2020.2.10,MacIntel,60,60675255c767bca6388caeee,16.7670068,16.66666841,16.7101174,16.66438585,16.66603416,16.66666841,,,,,,,,,,,,,,,,,,,,PF,3,weak,,,,,,,,2,3.650005,,,,,,,,,,,,,,,,,,,,,,,,,,,,8,weak,-65.3828125,-30.2421875,1,0,0,response5disk,5,16,7.8515625,11.64453125,1,0,0,rectangle,7.8515625,11.64453125,1,0,0,0,7,0.00158,7.8515625,11.64453125,1,0,0,0,15,15,98,1,0,,,,,,,,,,,,,,,,,,,,,
,,,,,,,,,,,,,,,,,,,,,,,,,,,,,,,,,,,,,,,,,,5fde2f7e43c57856e4e4a919,606a0f487d2ca0eaf2287a37,2021-04-04_21h12.14.090,Colour_Similarity_Experiment,2020.2.10,MacIntel,60,60675255c767bca6388caeee,16.7670068,16.66666841,16.7101174,16.66438585,16.66603416,16.66666841,,,,,,,,,,,,,,,,,,,,PF,3,weak,,,,,,,,4,2.25154,,,,,,,,,,,,,,,,,,,,,,,,,,,,3,weak,31.39453125,-65.75,1,0,0,response3disk,8,17,3.765625,0.3828125,1,0,0,rectangle,3.765625,0.3828125,1,0,0,0,2,0.000875,3.765625,0.3828125,1,0,0,0,16,16,3,1,0,,,,,,,,,,,,,,,,,,,,,
,,,,,,,,,,,,,,,,,,,,,,,,,,,,,,,,,,,,,,,,,,5fde2f7e43c57856e4e4a919,606a0f487d2ca0eaf2287a37,2021-04-04_21h12.14.090,Colour_Similarity_Experiment,2020.2.10,MacIntel,60,60675255c767bca6388caeee,16.7670068,16.66666841,16.7101174,16.66438585,16.66603416,16.66666841,,,,,,,,,,,,,,,,,,,,PF,3,weak,,,,,,,,5,3.86741,,,,,,,,,,,,,,,,,,,,,,,,,,,,7,weak,73.12890625,-38.80078125,1,0,0,response3disk,3,18,-9.76953125,0.9921875,1,0,0,rectangle,-9.76953125,0.9921875,1,0,0,0,1,0.00171,-9.76953125,0.9921875,1,0,0,0,17,17,81,1,0,,,,,,,,,,,,,,,,,,,,,
,,,,,,,,,,,,,,,,,,,,,,,,,,,,,,,,,,,,,,,,,,5fde2f7e43c57856e4e4a919,606a0f487d2ca0eaf2287a37,2021-04-04_21h12.14.090,Colour_Similarity_Experiment,2020.2.10,MacIntel,60,60675255c767bca6388caeee,16.7670068,16.66666841,16.7101174,16.66438585,16.66603416,16.66666841,,,,,,,,,,,,,,,,,,,,PF,3,strong,,,,,,,,6,1.66654,,,,,,,,,,,,,,,,,,,,,,,,,,,,3,strong,78.078125,32.4296875,1,0,0,response1disk,8,19,-7.51171875,2.01953125,1,0,0,rectangle,-7.51171875,2.01953125,1,0,0,0,5,0.00075,-7.51171875,2.01953125,1,0,0,0,18,18,44,1,0,,,,,,,,,,,,,,,,,,,,,
,,,,,,,,,,,,,,,,,,,,,,,,,,,,,,,,,,,,,,,,,,5fde2f7e43c57856e4e4a919,606a0f487d2ca0eaf2287a37,2021-04-04_21h12.14.090,Colour_Similarity_Experiment,2020.2.10,MacIntel,60,60675255c767bca6388caeee,16.7670068,16.66666841,16.7101174,16.66438585,16.66603416,16.66666841,,,,,,,,,,,,,,,,,,,,PF,3,weak,,,,,,,,7,1.48388,,,,,,,,,,,,,,,,,,,,,,,,,,,,4,weak,44.89453125,92.65234375,1,0,0,response1disk,1,20,1.6875,-11.30859375,1,0,0,rectangle,1.6875,-11.30859375,1,0,0,0,0,0.00133,1.6875,-11.30859375,1,0,0,0,19,19,115,1,0,,,,,,,,,,,,,,,,,,,,,
,,,,,,,,,,,,,,,,,,,,,,,,,,,,,,,,,,,,,,,,,,5fde2f7e43c57856e4e4a919,606a0f487d2ca0eaf2287a37,2021-04-04_21h12.14.090,Colour_Similarity_Experiment,2020.2.10,MacIntel,60,60675255c767bca6388caeee,16.7670068,16.66666841,16.7101174,16.66438585,16.66603416,16.66666841,,,,,,,,,,,,,,,,,,,,PF,3,weak,,,,,,,,1,1.484165,,,,,,,,,,,,,,,,,,,,,,,,,,,,3,weak,-73.8828125,34.5859375,1,0,0,response7disk,4,21,5.96484375,-6.1796875,1,0,0,rectangle,5.96484375,-6.1796875,1,0,0,0,1,0.00142,5.96484375,-6.1796875,1,0,0,0,20,20,30,1,0,,,,,,,,,,,,,,,,,,,,,
,,,,,,,,,,,,,,,,,,,,,,,,,,,,,,,,,,,,,,,,,,5fde2f7e43c57856e4e4a919,606a0f487d2ca0eaf2287a37,2021-04-04_21h12.14.090,Colour_Similarity_Experiment,2020.2.10,MacIntel,60,60675255c767bca6388caeee,16.7670068,16.66666841,16.7101174,16.66438585,16.66603416,16.66666841,,,,,,,,,,,,,,,,,,,,PF,3,weak,,,,,,,,3,1.21775,,,,,,,,,,,,,,,,,,,,,,,,,,,,7,weak,-27.10546875,-70.15234375,1,0,0,response5disk,5,22,-5.4609375,5.30859375,1,0,0,rectangle,-5.4609375,5.30859375,1,0,0,0,1,0.000085,-5.4609375,5.30859375,1,0,0,0,21,21,92,1,0,,,,,,,,,,,,,,,,,,,,,
,,,,,,,,,,,,,,,,,,,,,,,,,,,,,,,,,,,,,,,,,,5fde2f7e43c57856e4e4a919,606a0f487d2ca0eaf2287a37,2021-04-04_21h12.14.090,Colour_Similarity_Experiment,2020.2.10,MacIntel,60,60675255c767bca6388caeee,16.7670068,16.66666841,16.7101174,16.66438585,16.66603416,16.66666841,,,,,,,,,,,,,,,,,,,,PF,3,strong,,,,,,,,6,6.366705,,,,,,,,,,,,,,,,,,,,,,,,,,,,5,strong,63.265625,32.0078125,1,0,0,response1disk,5,23,6.69921875,-6.8203125,1,0,0,rectangle,6.69921875,-6.8203125,1,0,0,0,2,0.001745,6.69921875,-6.8203125,1,0,0,0,22,22,19,1,0,,,,,,,,,,,,,,,,,,,,,
,,,,,,,,,,,,,,,,,,,,,,,,,,,,,,,,,,,,,,,,,,5fde2f7e43c57856e4e4a919,606a0f487d2ca0eaf2287a37,2021-04-04_21h12.14.090,Colour_Similarity_Experiment,2020.2.10,MacIntel,60,60675255c767bca6388caeee,16.7670068,16.66666841,16.7101174,16.66438585,16.66603416,16.66666841,,,,,,,,,,,,,,,,,,,,PF,3,weak,,,,,,,,2,2.68425,,,,,,,,,,,,,,,,,,,,,,,,,,,,5,weak,-80.8984375,-45.3828125,1,0,0,response5disk,9,24,-11.8125,-11.359375,1,0,0,rectangle,39.6015625,-68.48046875,1,0,0,4,4,2.34971,-6.81640625,4.48046875,1,0,0,0,23,23,136,1,1,response3disk_3,rectangle,,,,,,,,,,,,,,,,,,,
,,,,,,,,,,,,,,,,,,,,,,,,,,,,,,,,,,,,,,,,,,5fde2f7e43c57856e4e4a919,606a0f487d2ca0eaf2287a37,2021-04-04_21h12.14.090,Colour_Similarity_Experiment,2020.2.10,MacIntel,60,60675255c767bca6388caeee,16.7670068,16.66666841,16.7101174,16.66438585,16.66603416,16.66666841,,,,,,,,,,,,,,,,,,,,PF,3,strong,,,,,,,,3,4.800955,,,,,,,,,,,,,,,,,,,,,,,,,,,,1,strong,-34.62890625,-79.3125,1,0,0,response5disk,3,25,-6.875,-10.6171875,1,0,0,rectangle,-6.875,-10.6171875,1,0,0,4,0,0.00146,-6.875,-10.6171875,1,0,0,0,24,24,99,1,0,,,,,,,,,,,,,,,,,,,,,
,,,,,,,,,,,,,,,,,,,,,,,,,,,,,,,,,,,,,,,,,,5fde2f7e43c57856e4e4a919,606a0f487d2ca0eaf2287a37,2021-04-04_21h12.14.090,Colour_Similarity_Experiment,2020.2.10,MacIntel,60,60675255c767bca6388caeee,16.7670068,16.66666841,16.7101174,16.66438585,16.66603416,16.66666841,,,,,,,,,,,,,,,,,,,,PF,3,strong,,,,,,,,1,1.483915,,,,,,,,,,,,,,,,,,,,,,,,,,,,4,strong,-65.8984375,40.37890625,1,0,0,response7disk,9,26,-9.9140625,0.6953125,1,0,0,rectangle,-9.9140625,0.6953125,1,0,0,4,2,0.00158,-9.9140625,0.6953125,1,0,0,0,25,25,90,1,0,,,,,,,,,,,,,,,,,,,,,
,,,,,,,,,,,,,,,,,,,,,,,,,,,,,,,,,,,,,,,,,,5fde2f7e43c57856e4e4a919,606a0f487d2ca0eaf2287a37,2021-04-04_21h12.14.090,Colour_Similarity_Experiment,2020.2.10,MacIntel,60,60675255c767bca6388caeee,16.7670068,16.66666841,16.7101174,16.66438585,16.66603416,16.66666841,,,,,,,,,,,,,,,,,,,,PF,3,weak,,,,,,,,3,5.066335,,,,,,,,,,,,,,,,,,,,,,,,,,,,4,weak,-45,-66.11328125,1,0,0,response5disk,4,27,-1.3984375,-0.26953125,1,0,0,rectangle,-1.3984375,-0.26953125,1,0,0,4,1,0.001415,-1.3984375,-0.26953125,1,0,0,0,26,26,70,1,0,,,,,,,,,,,,,,,,,,,,,
,,,,,,,,,,,,,,,,,,,,,,,,,,,,,,,,,,,,,,,,,,5fde2f7e43c57856e4e4a919,606a0f487d2ca0eaf2287a37,2021-04-04_21h12.14.090,Colour_Similarity_Experiment,2020.2.10,MacIntel,60,60675255c767bca6388caeee,16.7670068,16.66666841,16.7101174,16.66438585,16.66603416,16.66666841,,,,,,,,,,,,,,,,,,,,PF,3,strong,,,,,,,,2,2.36771,,,,,,,,,,,,,,,,,,,,,,,,,,,,6,strong,-80.94921875,-44.7734375,1,0,0,response5disk,1,28,6.3359375,-8.96484375,1,0,0,rectangle,6.3359375,-8.96484375,1,0,0,4,2,0.001585,6.3359375,-8.96484375,1,0,0,0,27,27,5,1,0,,,,,,,,,,,,,,,,,,,,,
,,,,,,,,,,,,,,,,,,,,,,,,,,,,,,,,,,,,,,,,,,5fde2f7e43c57856e4e4a919,606a0f487d2ca0eaf2287a37,2021-04-04_21h12.14.090,Colour_Similarity_Experiment,2020.2.10,MacIntel,60,60675255c767bca6388caeee,16.7670068,16.66666841,16.7101174,16.66438585,16.66603416,16.66666841,,,,,,,,,,,,,,,,,,,,PF,3,weak,,,,,,,,1,1.366665,,,,,,,,,,,,,,,,,,,,,,,,,,,,5,weak,-70.64453125,45.40234375,1,0,0,response7disk,5,29,-14.23046875,6.21875,1,0,0,rectangle,-14.23046875,6.21875,1,0,0,4,1,0.002875,-14.23046875,6.21875,1,0,0,0,28,28,94,1,0,,,,,,,,,,,,,,,,,,,,,
,,,,,,,,,,,,,,,,,,,,,,,,,,,,,,,,,,,,,,,,,,5fde2f7e43c57856e4e4a919,606a0f487d2ca0eaf2287a37,2021-04-04_21h12.14.090,Colour_Similarity_Experiment,2020.2.10,MacIntel,60,60675255c767bca6388caeee,16.7670068,16.66666841,16.7101174,16.66438585,16.66603416,16.66666841,,,,,,,,,,,,,,,,,,,,PF,3,weak,,,,,,,,3,2.10117,,,,,,,,,,,,,,,,,,,,,,,,,,,,1,weak,-29.48046875,-68.01953125,1,0,0,response5disk,2,30,-1.5625,5.7421875,1,0,0,rectangle,-1.5625,5.7421875,1,0,0,4,5,0.00129,-1.5625,5.7421875,1,0,0,0,29,29,24,1,0,,,,,,,,,,,,,,,,,,,,,
,,,,,,,,,,,,,,,,,,,,,,,,,,,,,,,,,,,,,,,,,,5fde2f7e43c57856e4e4a919,606a0f487d2ca0eaf2287a37,2021-04-04_21h12.14.090,Colour_Similarity_Experiment,2020.2.10,MacIntel,60,60675255c767bca6388caeee,16.7670068,16.66666841,16.7101174,16.66438585,16.66603416,16.66666841,,,,,,,,,,,,,,,,,,,,PF,3,weak,,,,,,,,1,1.46825,,,,,,,,,,,,,,,,,,,,,,,,,,,,3,weak,-71.26953125,39.984375,1,0,0,response7disk,9,31,-1.88671875,-6.2109375,1,0,0,rectangle,-1.88671875,-6.2109375,1,0,0,4,0,0.00175,-1.88671875,-6.2109375,1,0,0,0,30,30,79,1,0,,,,,,,,,,,,,,,,,,,,,
,,,,,,,,,,,,,,,,,,,,,,,,,,,,,,,,,,,,,,,,,,5fde2f7e43c57856e4e4a919,606a0f487d2ca0eaf2287a37,2021-04-04_21h12.14.090,Colour_Similarity_Experiment,2020.2.10,MacIntel,60,60675255c767bca6388caeee,16.7670068,16.66666841,16.7101174,16.66438585,16.66603416,16.66666841,,,,,,,,,,,,,,,,,,,,PF,3,weak,,,,,,,,6,1.434835,,,,,,,,,,,,,,,,,,,,,,,,,,,,1,weak,94.08203125,22.44140625,1,0,0,response1disk,6,32,-8.73828125,5.15625,1,0,0,rectangle,-8.73828125,5.15625,1,0,0,4,7,0.001335,-8.73828125,5.15625,1,0,0,0,31,31,144,1,0,,,,,,,,,,,,,,,,,,,,,
,,,,,,,,,,,,,,,,,,,,,,,,,,,,,,,,,,,,,,,,,,5fde2f7e43c57856e4e4a919,606a0f487d2ca0eaf2287a37,2021-04-04_21h12.14.090,Colour_Similarity_Experiment,2020.2.10,MacIntel,60,60675255c767bca6388caeee,16.7670068,16.66666841,16.7101174,16.66438585,16.66603416,16.66666841,,,,,,,,,,,,,,,,,,,,PF,3,strong,,,,,,,,3,2.300415,,,,,,,,,,,,,,,,,,,,,,,,,,,,2,strong,-40.3671875,-66.1171875,1,0,0,response5disk,8,33,17.9140625,10.69921875,1,0,0,rectangle,17.9140625,10.69921875,1,0,0,4,4,0.001955,17.9140625,10.69921875,1,0,0,0,32,32,62,1,0,,,,,,,,,,,,,,,,,,,,,
,,,,,,,,,,,,,,,,,,,,,,,,,,,,,,,,,,,,,,,,,,5fde2f7e43c57856e4e4a919,606a0f487d2ca0eaf2287a37,2021-04-04_21h12.14.090,Colour_Similarity_Experiment,2020.2.10,MacIntel,60,60675255c767bca6388caeee,16.7670068,16.66666841,16.7101174,16.66438585,16.66603416,16.66666841,,,,,,,,,,,,,,,,,,,,PF,3,weak,,,,,,,,5,2.41779,,,,,,,,,,,,,,,,,,,,,,,,,,,,8,weak,78.76953125,-33.0703125,1,0,0,response3disk,3,34,10.4609375,-4.234375,1,0,0,rectangle,10.4609375,-4.234375,1,0,0,4,5,0.00167,10.4609375,-4.234375,1,0,0,0,33,33,71,1,0,,,,,,,,,,,,,,,,,,,,,
,,,,,,,,,,,,,,,,,,,,,,,,,,,,,,,,,,,,,,,,,,5fde2f7e43c57856e4e4a919,606a0f487d2ca0eaf2287a37,2021-04-04_21h12.14.090,Colour_Similarity_Experiment,2020.2.10,MacIntel,60,60675255c767bca6388caeee,16.7670068,16.66666841,16.7101174,16.66438585,16.66603416,16.66666841,,,,,,,,,,,,,,,,,,,,PF,3,weak,,,,,,,,6,2.316915,,,,,,,,,,,,,,,,,,,,,,,,,,,,6,weak,75.953125,29.4140625,1,0,0,response1disk,1,35,-9.890625,-1.15625,1,0,0,rectangle,-9.890625,-1.15625,1,0,0,4,7,0.002,-9.890625,-1.15625,1,0,0,0,34,34,46,1,0,,,,,,,,,,,,,,,,,,,,,
,,,,,,,,,,,,,,,,,,,,,,,,,,,,,,,,,,,,,,,,,,5fde2f7e43c57856e4e4a919,606a0f487d2ca0eaf2287a37,2021-04-04_21h12.14.090,Colour_Similarity_Experiment,2020.2.10,MacIntel,60,60675255c767bca6388caeee,16.7670068,16.66666841,16.7101174,16.66438585,16.66603416,16.66666841,,,,,,,,,,,,,,,,,,,,PF,3,weak,,,,,,,,1,1.400665,,,,,,,,,,,,,,,,,,,,,,,,,,,,9,weak,-79.19921875,40.7265625,1,0,0,response7disk,8,36,-1.5625,2.015625,1,0,0,rectangle,-1.5625,2.015625,1,0,0,4,1,0.00142,-1.5625,2.015625,1,0,0,0,35,35,67,1,0,,,,,,,,,,,,,,,,,,,,,
,,,,,,,,,,,,,,,,,,,,,,,,,,,,,,,,,,,,,,,,,,5fde2f7e43c57856e4e4a919,606a0f487d2ca0eaf2287a37,2021-04-04_21h12.14.090,Colour_Similarity_Experiment,2020.2.10,MacIntel,60,60675255c767bca6388caeee,16.7670068,16.66666841,16.7101174,16.66438585,16.66603416,16.66666841,,,,,,,,,,,,,,,,,,,,PF,3,strong,,,,,,,,4,1.933955,,,,,,,,,,,,,,,,,,,,,,,,,,,,2,strong,22.30859375,-61.30078125,1,0,0,response3disk,5,37,-0.7109375,-0.2578125,1,0,0,rectangle,-0.7109375,-0.2578125,1,0,0,4,5,0.00138,-0.7109375,-0.2578125,1,0,0,0,36,36,80,1,0,,,,,,,,,,,,,,,,,,,,,
,,,,,,,,,,,,,,,,,,,,,,,,,,,,,,,,,,,,,,,,,,5fde2f7e43c57856e4e4a919,606a0f487d2ca0eaf2287a37,2021-04-04_21h12.14.090,Colour_Similarity_Experiment,2020.2.10,MacIntel,60,60675255c767bca6388caeee,16.7670068,16.66666841,16.7101174,16.66438585,16.66603416,16.66666841,,,,,,,,,,,,,,,,,,,,PF,3,weak,,,,,,,,1,1.267415,,,,,,,,,,,,,,,,,,,,,,,,,,,,8,weak,-73.01953125,36.875,1,0,0,response7disk,8,38,-13.66015625,8.01953125,1,0,0,rectangle,-13.66015625,8.01953125,1,0,0,4,7,0.001415,-13.66015625,8.01953125,1,0,0,0,37,37,153,1,0,,,,,,,,,,,,,,,,,,,,,
,,,,,,,,,,,,,,,,,,,,,,,,,,,,,,,,,,,,,,,,,,5fde2f7e43c57856e4e4a919,606a0f487d2ca0eaf2287a37,2021-04-04_21h12.14.090,Colour_Similarity_Experiment,2020.2.10,MacIntel,60,60675255c767bca6388caeee,16.7670068,16.66666841,16.7101174,16.66438585,16.66603416,16.66666841,,,,,,,,,,,,,,,,,,,,PF,3,weak,,,,,,,,5,1.45071,,,,,,,,,,,,,,,,,,,,,,,,,,,,5,weak,69.96484375,-37.98046875,1,0,0,response3disk,7,39,1.33984375,4.60546875,1,0,0,rectangle,1.33984375,4.60546875,1,0,0,4,6,0.001455,1.33984375,4.60546875,1,0,0,0,38,38,146,1,0,,,,,,,,,,,,,,,,,,,,,
,,,,,,,,,,,,,,,,,,,,,,,,,,,,,,,,,,,,,,,,,,5fde2f7e43c57856e4e4a919,606a0f487d2ca0eaf2287a37,2021-04-04_21h12.14.090,Colour_Similarity_Experiment,2020.2.10,MacIntel,60,60675255c767bca6388caeee,16.7670068,16.66666841,16.7101174,16.66438585,16.66603416,16.66666841,,,,,,,,,,,,,,,,,,,,PF,3,strong,,,,,,,,6,2.93396,,,,,,,,,,,,,,,,,,,,,,,,,,,,2,strong,91.734375,18.63671875,1,0,0,response1disk,4,40,4.7109375,-8.078125,1,0,0,rectangle,4.7109375,-8.078125,1,0,0,4,2,0.001335,4.7109375,-8.078125,1,0,0,0,39,39,145,1,0,,,,,,,,,,,,,,,,,,,,,
,,,,,,,,,,,,,,,,,,,,,,,,,,,,,,,,,,,,,,,,,,5fde2f7e43c57856e4e4a919,606a0f487d2ca0eaf2287a37,2021-04-04_21h12.14.090,Colour_Similarity_Experiment,2020.2.10,MacIntel,60,60675255c767bca6388caeee,16.7670068,16.66666841,16.7101174,16.66438585,16.66603416,16.66666841,,,,,,,,,,,,,,,,,,,,PF,3,strong,,,,,,,,1,1.23408,,,,,,,,,,,,,,,,,,,,,,,,,,,,9,strong,-65.6953125,28.9375,1,0,0,response7disk,8,41,-9.55859375,5.0625,1,0,0,rectangle,-9.55859375,5.0625,1,0,0,4,2,0.00016,-9.55859375,5.0625,1,0,0,0,40,40,6,1,0,,,,,,,,,,,,,,,,,,,,,
,,,,,,,,,,,,,,,,,,,,,,,,,,,,,,,,,,,,,,,,,,5fde2f7e43c57856e4e4a919,606a0f487d2ca0eaf2287a37,2021-04-04_21h12.14.090,Colour_Similarity_Experiment,2020.2.10,MacIntel,60,60675255c767bca6388caeee,16.7670068,16.66666841,16.7101174,16.66438585,16.66603416,16.66666841,,,,,,,,,,,,,,,,,,,,PF,3,weak,,,,,,,,4,1.283875,,,,,,,,,,,,,,,,,,,,,,,,,,,,9,weak,38.5625,-73.96875,1,0,0,response3disk,4,42,-10.8125,2.90234375,1,0,0,rectangle,-10.8125,2.90234375,1,0,0,4,7,0.0015,-10.8125,2.90234375,1,0,0,0,41,41,114,1,0,,,,,,,,,,,,,,,,,,,,,
,,,,,,,,,,,,,,,,,,,,,,,,,,,,,,,,,,,,,,,,,,5fde2f7e43c57856e4e4a919,606a0f487d2ca0eaf2287a37,2021-04-04_21h12.14.090,Colour_Similarity_Experiment,2020.2.10,MacIntel,60,60675255c767bca6388caeee,16.7670068,16.66666841,16.7101174,16.66438585,16.66603416,16.66666841,,,,,,,,,,,,,,,,,,,,PF,3,weak,,,,,,,,2,1.551415,,,,,,,,,,,,,,,,,,,,,,,,,,,,6,weak,-80.81640625,-36.6484375,1,0,0,response5disk,8,43,4.5390625,-5.80859375,1,0,0,rectangle,4.5390625,-5.80859375,1,0,0,4,1,0.00171,4.5390625,-5.80859375,1,0,0,0,42,42,64,1,0,,,,,,,,,,,,,,,,,,,,,
,,,,,,,,,,,,,,,,,,,,,,,,,,,,,,,,,,,,,,,,,,5fde2f7e43c57856e4e4a919,606a0f487d2ca0eaf2287a37,2021-04-04_21h12.14.090,Colour_Similarity_Experiment,2020.2.10,MacIntel,60,60675255c767bca6388caeee,16.7670068,16.66666841,16.7101174,16.66438585,16.66603416,16.66666841,,,,,,,,,,,,,,,,,,,,PF,3,weak,,,,,,,,1,1.20146,,,,,,,,,,,,,,,,,,,,,,,,,,,,7,weak,-80.51171875,57.5234375,1,0,0,response7disk,7,44,-7.5390625,5.58984375,1,0,0,rectangle,-7.5390625,5.58984375,1,0,0,4,1,0.00021,-7.5390625,5.58984375,1,0,0,0,43,43,51,1,0,,,,,,,,,,,,,,,,,,,,,
,,,,,,,,,,,,,,,,,,,,,,,,,,,,,,,,,,,,,,,,,,5fde2f7e43c57856e4e4a919,606a0f487d2ca0eaf2287a37,2021-04-04_21h12.14.090,Colour_Similarity_Experiment,2020.2.10,MacIntel,60,60675255c767bca6388caeee,16.7670068,16.66666841,16.7101174,16.66438585,16.66603416,16.66666841,,,,,,,,,,,,,,,,,,,,PF,3,weak,,,,,,,,3,2.08417,,,,,,,,,,,,,,,,,,,,,,,,,,,,3,weak,-34.9453125,-88.00390625,1,0,0,response5disk,5,45,5.45703125,-1.96875,1,0,0,rectangle,5.45703125,-1.96875,1,0,0,4,6,0.001875,5.45703125,-1.96875,1,0,0,0,44,44,66,1,0,,,,,,,,,,,,,,,,,,,,,
,,,,,,,,,,,,,,,,,,,,,,,,,,,,,,,,,,,,,,,,,,5fde2f7e43c57856e4e4a919,606a0f487d2ca0eaf2287a37,2021-04-04_21h12.14.090,Colour_Similarity_Experiment,2020.2.10,MacIntel,60,60675255c767bca6388caeee,16.7670068,16.66666841,16.7101174,16.66438585,16.66603416,16.66666841,,,,,,,,,,,,,,,,,,,,PF,3,weak,,,,,,,,2,3.283665,,,,,,,,,,,,,,,,,,,,,,,,,,,,1,weak,-76.21484375,-54.609375,1,0,0,response5disk,9,46,-8.65625,1.25,1,0,0,rectangle,-8.65625,1.25,1,0,0,4,0,0.001585,-8.65625,1.25,1,0,0,0,45,45,15,1,0,,,,,,,,,,,,,,,,,,,,,
,,,,,,,,,,,,,,,,,,,,,,,,,,,,,,,,,,,,,,,,,,5fde2f7e43c57856e4e4a919,606a0f487d2ca0eaf2287a37,2021-04-04_21h12.14.090,Colour_Similarity_Experiment,2020.2.10,MacIntel,60,60675255c767bca6388caeee,16.7670068,16.66666841,16.7101174,16.66438585,16.66603416,16.66666841,,,,,,,,,,,,,,,,,,,,PF,3,strong,,,,,,,,5,6.050875,,,,,,,,,,,,,,,,,,,,,,,,,,,,4,strong,72.7734375,-30.6484375,1,0,0,response3disk,1,47,-14.19140625,2.15625,1,0,0,rectangle,-14.19140625,2.15625,1,0,0,4,7,0.00117,-14.19140625,2.15625,1,0,0,0,46,46,102,1,0,,,,,,,,,,,,,,,,,,,,,
,,,,,,,,,,,,,,,,,,,,,,,,,,,,,,,,,,,,,,,,,,5fde2f7e43c57856e4e4a919,606a0f487d2ca0eaf2287a37,2021-04-04_21h12.14.090,Colour_Similarity_Experiment,2020.2.10,MacIntel,60,60675255c767bca6388caeee,16.7670068,16.66666841,16.7101174,16.66438585,16.66603416,16.66666841,,,,,,,,,,,,,,,,,,,,PF,3,weak,,,,,,,,1,1.26662,,,,,,,,,,,,,,,,,,,,,,,,,,,,3,weak,-72.94921875,33.05078125,1,0,0,response7disk,3,48,2.8984375,-5.07421875,1,0,0,rectangle,2.8984375,-5.07421875,1,0,0,4,0,0.0015,2.8984375,-5.07421875,1,0,0,0,47,47,4,1,0,,,,,,,,,,,,,,,,,,,,,
,,,,,,,,,,,,,,,,,,,,,,,,,,,,,,,,,,,,,,,,,,5fde2f7e43c57856e4e4a919,606a0f487d2ca0eaf2287a37,2021-04-04_21h12.14.090,Colour_Similarity_Experiment,2020.2.10,MacIntel,60,60675255c767bca6388caeee,16.7670068,16.66666841,16.7101174,16.66438585,16.66603416,16.66666841,,,,,,,,,,,,,,,,,,,,PF,3,weak,,,,,,,,4,1.43304,,,,,,,,,,,,,,,,,,,,,,,,,,,,3,weak,29.2109375,-59.375,1,0,0,response3disk,2,49,-0.66796875,2.09765625,1,0,0,rectangle,-35.1484375,86.40625,1,0,0,0,0,2.91725,-5.32421875,-3.44140625,1,0,0,0,48,48,36,1,1,response7disk_3,rectangle,,,,,,,,,,,,,,,,,,,
,,,,,,,,,,,,,,,,,,,,,,,,,,,,,,,,,,,,,,,,,,5fde2f7e43c57856e4e4a919,606a0f487d2ca0eaf2287a37,2021-04-04_21h12.14.090,Colour_Similarity_Experiment,2020.2.10,MacIntel,60,60675255c767bca6388caeee,16.7670068,16.66666841,16.7101174,16.66438585,16.66603416,16.66666841,,,,,,,,,,,,,,,,,,,,PF,3,weak,,,,,,,,6,4.201165,,,,,,,,,,,,,,,,,,,,,,,,,,,,8,weak,87.97265625,30.5390625,1,0,0,response1disk,7,50,-0.96484375,-1.640625,1,0,0,rectangle,-0.96484375,-1.640625,1,0,0,0,7,0.001665,-0.96484375,-1.640625,1,0,0,0,49,49,23,1,0,,,,,,,,,,,,,,,,,,,,,
,,,,,,,,,,,,,,,,,,,,,,,,,,,,,,,,,,,,,,,,,,5fde2f7e43c57856e4e4a919,606a0f487d2ca0eaf2287a37,2021-04-04_21h12.14.090,Colour_Similarity_Experiment,2020.2.10,MacIntel,60,60675255c767bca6388caeee,16.7670068,16.66666841,16.7101174,16.66438585,16.66603416,16.66666841,,,,,,,,,,,,,,,,,,,,PF,3,weak,,,,,,,,3,1.73367,,,,,,,,,,,,,,,,,,,,,,,,,,,,7,weak,-32.29296875,-62.87109375,1,0,0,response5disk,9,51,-13.3046875,-0.6953125,1,0,0,rectangle,-13.3046875,-0.6953125,1,0,0,0,6,0.001585,-13.3046875,-0.6953125,1,0,0,0,50,50,10,1,0,,,,,,,,,,,,,,,,,,,,,
,,,,,,,,,,,,,,,,,,,,,,,,,,,,,,,,,,,,,,,,,,5fde2f7e43c57856e4e4a919,606a0f487d2ca0eaf2287a37,2021-04-04_21h12.14.090,Colour_Similarity_Experiment,2020.2.10,MacIntel,60,60675255c767bca6388caeee,16.7670068,16.66666841,16.7101174,16.66438585,16.66603416,16.66666841,,,,,,,,,,,,,,,,,,,,PF,3,strong,,,,,,,,5,1.634,,,,,,,,,,,,,,,,,,,,,,,,,,,,4,strong,53.76953125,-24.9453125,1,0,0,response3disk,6,52,6.90234375,-4.34765625,1,0,0,rectangle,6.90234375,-4.34765625,1,0,0,0,4,0.001505,6.90234375,-4.34765625,1,0,0,0,51,51,122,1,0,,,,,,,,,,,,,,,,,,,,,
,,,,,,,,,,,,,,,,,,,,,,,,,,,,,,,,,,,,,,,,,,5fde2f7e43c57856e4e4a919,606a0f487d2ca0eaf2287a37,2021-04-04_21h12.14.090,Colour_Similarity_Experiment,2020.2.10,MacIntel,60,60675255c767bca6388caeee,16.7670068,16.66666841,16.7101174,16.66438585,16.66603416,16.66666841,,,,,,,,,,,,,,,,,,,,PF,3,strong,,,,,,,,1,1.33413,,,,,,,,,,,,,,,,,,,,,,,,,,,,6,strong,-62.90234375,22.72265625,1,0,0,response7disk,7,53,-9.9453125,-7.12109375,1,0,0,rectangle,-9.9453125,-7.12109375,1,0,0,0,3,0.00146,-9.9453125,-7.12109375,1,0,0,0,52,52,18,1,0,,,,,,,,,,,,,,,,,,,,,
,,,,,,,,,,,,,,,,,,,,,,,,,,,,,,,,,,,,,,,,,,5fde2f7e43c57856e4e4a919,606a0f487d2ca0eaf2287a37,2021-04-04_21h12.14.090,Colour_Similarity_Experiment,2020.2.10,MacIntel,60,60675255c767bca6388caeee,16.7670068,16.66666841,16.7101174,16.66438585,16.66603416,16.66666841,,,,,,,,,,,,,,,,,,,,PF,3,strong,,,,,,,,3,1.467625,,,,,,,,,,,,,,,,,,,,,,,,,,,,3,strong,-30.75390625,-66.984375,1,0,0,response5disk,2,54,-2.546875,5.51171875,1,0,0,rectangle,-2.546875,5.51171875,1,0,0,0,6,0.00125,-2.546875,5.51171875,1,0,0,0,53,53,93,1,0,,,,,,,,,,,,,,,,,,,,,
,,,,,,,,,,,,,,,,,,,,,,,,,,,,,,,,,,,,,,,,,,5fde2f7e43c57856e4e4a919,606a0f487d2ca0eaf2287a37,2021-04-04_21h12.14.090,Colour_Similarity_Experiment,2020.2.10,MacIntel,60,60675255c767bca6388caeee,16.7670068,16.66666841,16.7101174,16.66438585,16.66603416,16.66666841,,,,,,,,,,,,,,,,,,,,PF,3,strong,,,,,,,,1,1.200705,,,,,,,,,,,,,,,,,,,,,,,,,,,,6,strong,-67.671875,39.109375,1,0,0,response7disk,8,55,-9.69140625,1.85546875,1,0,0,rectangle,-9.69140625,1.85546875,1,0,0,0,2,0.001505,-9.69140625,1.85546875,1,0,0,0,54,54,133,1,0,,,,,,,,,,,,,,,,,,,,,
,,,,,,,,,,,,,,,,,,,,,,,,,,,,,,,,,,,,,,,,,,5fde2f7e43c57856e4e4a919,606a0f487d2ca0eaf2287a37,2021-04-04_21h12.14.090,Colour_Similarity_Experiment,2020.2.10,MacIntel,60,60675255c767bca6388caeee,16.7670068,16.66666841,16.7101174,16.66438585,16.66603416,16.66666841,,,,,,,,,,,,,,,,,,,,PF,3,strong,,,,,,,,2,1.28346,,,,,,,,,,,,,,,,,,,,,,,,,,,,5,strong,-58.5078125,-30.55078125,1,0,0,response5disk,3,56,7.24609375,-1.54296875,1,0,0,rectangle,7.24609375,-1.54296875,1,0,0,0,0,0.001245,7.24609375,-1.54296875,1,0,0,0,55,55,25,1,0,,,,,,,,,,,,,,,,,,,,,
,,,,,,,,,,,,,,,,,,,,,,,,,,,,,,,,,,,,,,,,,,5fde2f7e43c57856e4e4a919,606a0f487d2ca0eaf2287a37,2021-04-04_21h12.14.090,Colour_Similarity_Experiment,2020.2.10,MacIntel,60,60675255c767bca6388caeee,16.7670068,16.66666841,16.7101174,16.66438585,16.66603416,16.66666841,,,,,,,,,,,,,,,,,,,,PF,3,weak,,,,,,,,6,1.534665,,,,,,,,,,,,,,,,,,,,,,,,,,,,2,weak,75.25390625,37.55078125,1,0,0,response1disk,3,57,0.078125,11.70703125,1,0,0,rectangle,0.078125,11.70703125,1,0,0,0,4,0.00246,0.078125,11.70703125,1,0,0,0,56,56,69,1,0,,,,,,,,,,,,,,,,,,,,,
,,,,,,,,,,,,,,,,,,,,,,,,,,,,,,,,,,,,,,,,,,5fde2f7e43c57856e4e4a919,606a0f487d2ca0eaf2287a37,2021-04-04_21h12.14.090,Colour_Similarity_Experiment,2020.2.10,MacIntel,60,60675255c767bca6388caeee,16.7670068,16.66666841,16.7101174,16.66438585,16.66603416,16.66666841,,,,,,,,,,,,,,,,,,,,PF,3,weak,,,,,,,,6,1.350705,,,,,,,,,,,,,,,,,,,,,,,,,,,,5,weak,72.5625,46.15625,1,0,0,response1disk,1,58,-0.6875,1.98828125,1,0,0,rectangle,75.45703125,30.4296875,1,0,0,6,6,2.349125,5.4921875,6.3984375,1,0,0,0,57,57,159,1,1,response1disk_3,rectangle,,,,,,,,,,,,,,,,,,,
,,,,,,,,,,,,,,,,,,,,,,,,,,,,,,,,,,,,,,,,,,5fde2f7e43c57856e4e4a919,606a0f487d2ca0eaf2287a37,2021-04-04_21h12.14.090,Colour_Similarity_Experiment,2020.2.10,MacIntel,60,60675255c767bca6388caeee,16.7670068,16.66666841,16.7101174,16.66438585,16.66603416,16.66666841,,,,,,,,,,,,,,,,,,,,PF,3,strong,,,,,,,,3,1.54954,,,,,,,,,,,,,,,,,,,,,,,,,,,,7,strong,-43.64453125,-68.671875,1,0,0,response5disk,3,59,-0.80078125,1.95703125,1,0,0,rectangle,-0.80078125,1.95703125,1,0,0,6,6,0.000205,-0.80078125,1.95703125,1,0,0,0,58,58,73,1,0,,,,,,,,,,,,,,,,,,,,,
,,,,,,,,,,,,,,,,,,,,,,,,,,,,,,,,,,,,,,,,,,5fde2f7e43c57856e4e4a919,606a0f487d2ca0eaf2287a37,2021-04-04_21h12.14.090,Colour_Similarity_Experiment,2020.2.10,MacIntel,60,60675255c767bca6388caeee,16.7670068,16.66666841,16.7101174,16.66438585,16.66603416,16.66666841,,,,,,,,,,,,,,,,,,,,PF,3,strong,,,,,,,,3,2.534545,,,,,,,,,,,,,,,,,,,,,,,,,,,,9,strong,-24.91015625,-73.15234375,1,0,0,response5disk,5,60,-2.90234375,8.046875,1,0,0,rectangle,-2.90234375,8.046875,1,0,0,6,5,0.00154,-2.90234375,8.046875,1,0,0,0,59,59,128,1,0,,,,,,,,,,,,,,,,,,,,,
,,,,,,,,,,,,,,,,,,,,,,,,,,,,,,,,,,,,,,,,,,5fde2f7e43c57856e4e4a919,606a0f487d2ca0eaf2287a37,2021-04-04_21h12.14.090,Colour_Similarity_Experiment,2020.2.10,MacIntel,60,60675255c767bca6388caeee,16.7670068,16.66666841,16.7101174,16.66438585,16.66603416,16.66666841,,,,,,,,,,,,,,,,,,,,PF,3,weak,,,,,,,,6,1.283505,,,,,,,,,,,,,,,,,,,,,,,,,,,,4,weak,81.4921875,35.90234375,1,0,0,response1disk,2,61,-5.92578125,-1.76171875,1,0,0,rectangle,-5.92578125,-1.76171875,1,0,0,6,2,0.000875,-5.92578125,-1.76171875,1,0,0,0,60,60,108,1,0,,,,,,,,,,,,,,,,,,,,,
,,,,,,,,,,,,,,,,,,,,,,,,,,,,,,,,,,,,,,,,,,5fde2f7e43c57856e4e4a919,606a0f487d2ca0eaf2287a37,2021-04-04_21h12.14.090,Colour_Similarity_Experiment,2020.2.10,MacIntel,60,60675255c767bca6388caeee,16.7670068,16.66666841,16.7101174,16.66438585,16.66603416,16.66666841,,,,,,,,,,,,,,,,,,,,PF,3,strong,,,,,,,,2,1.90054,,,,,,,,,,,,,,,,,,,,,,,,,,,,3,strong,-66.07421875,-32.05078125,1,0,0,response5disk,9,62,5.09375,-6.88671875,1,0,0,rectangle,5.09375,-6.88671875,1,0,0,6,6,0.00146,5.09375,-6.88671875,1,0,0,0,61,61,143,1,0,,,,,,,,,,,,,,,,,,,,,
,,,,,,,,,,,,,,,,,,,,,,,,,,,,,,,,,,,,,,,,,,5fde2f7e43c57856e4e4a919,606a0f487d2ca0eaf2287a37,2021-04-04_21h12.14.090,Colour_Similarity_Experiment,2020.2.10,MacIntel,60,60675255c767bca6388caeee,16.7670068,16.66666841,16.7101174,16.66438585,16.66603416,16.66666841,,,,,,,,,,,,,,,,,,,,PF,3,weak,,,,,,,,3,3.100415,,,,,,,,,,,,,,,,,,,,,,,,,,,,7,weak,-26.15234375,-78.2265625,1,0,0,response5disk,8,63,1.59375,0.3984375,1,0,0,rectangle,1.59375,0.3984375,1,0,0,6,1,0.0015,1.59375,0.3984375,1,0,0,0,62,62,140,1,0,,,,,,,,,,,,,,,,,,,,,
,,,,,,,,,,,,,,,,,,,,,,,,,,,,,,,,,,,,,,,,,,5fde2f7e43c57856e4e4a919,606a0f487d2ca0eaf2287a37,2021-04-04_21h12.14.090,Colour_Similarity_Experiment,2020.2.10,MacIntel,60,60675255c767bca6388caeee,16.7670068,16.66666841,16.7101174,16.66438585,16.66603416,16.66666841,,,,,,,,,,,,,,,,,,,,PF,3,strong,,,,,,,,2,2.31796,,,,,,,,,,,,,,,,,,,,,,,,,,,,5,strong,-72.64453125,-29.109375,1,0,0,response5disk,9,64,-7.46484375,-0.1875,1,0,0,rectangle,-7.46484375,-0.1875,1,0,0,6,1,0.000125,-7.46484375,-0.1875,1,0,0,0,63,63,61,1,0,,,,,,,,,,,,,,,,,,,,,
,,,,,,,,,,,,,,,,,,,,,,,,,,,,,,,,,,,,,,,,,,5fde2f7e43c57856e4e4a919,606a0f487d2ca0eaf2287a37,2021-04-04_21h12.14.090,Colour_Similarity_Experiment,2020.2.10,MacIntel,60,60675255c767bca6388caeee,16.7670068,16.66666841,16.7101174,16.66438585,16.66603416,16.66666841,,,,,,,,,,,,,,,,,,,,PF,3,strong,,,,,,,,4,1.66771,,,,,,,,,,,,,,,,,,,,,,,,,,,,4,strong,34.97265625,-65.82421875,1,0,0,response3disk,4,65,5.0390625,1.58203125,1,0,0,rectangle,5.0390625,1.58203125,1,0,0,6,1,0.00017,5.0390625,1.58203125,1,0,0,0,64,64,84,1,0,,,,,,,,,,,,,,,,,,,,,
,,,,,,,,,,,,,,,,,,,,,,,,,,,,,,,,,,,,,,,,,,5fde2f7e43c57856e4e4a919,606a0f487d2ca0eaf2287a37,2021-04-04_21h12.14.090,Colour_Similarity_Experiment,2020.2.10,MacIntel,60,60675255c767bca6388caeee,16.7670068,16.66666841,16.7101174,16.66438585,16.66603416,16.66666841,,,,,,,,,,,,,,,,,,,,PF,3,weak,,,,,,,,6,5.084665,,,,,,,,,,,,,,,,,,,,,,,,,,,,3,weak,74.1875,41.6875,1,0,0,response1disk,1,66,-2.49609375,-7.99609375,1,0,0,rectangle,-2.49609375,-7.99609375,1,0,0,6,0,0.00196,-2.49609375,-7.99609375,1,0,0,0,65,65,96,1,0,,,,,,,,,,,,,,,,,,,,,
,,,,,,,,,,,,,,,,,,,,,,,,,,,,,,,,,,,,,,,,,,5fde2f7e43c57856e4e4a919,606a0f487d2ca0eaf2287a37,2021-04-04_21h12.14.090,Colour_Similarity_Experiment,2020.2.10,MacIntel,60,60675255c767bca6388caeee,16.7670068,16.66666841,16.7101174,16.66438585,16.66603416,16.66666841,,,,,,,,,,,,,,,,,,,,PF,3,strong,,,,,,,,5,1.68387,,,,,,,,,,,,,,,,,,,,,,,,,,,,2,strong,57.57421875,-28.78125,1,0,0,response3disk,3,67,-0.8515625,-1.23046875,1,0,0,rectangle,-81.6796875,-31.5703125,1,0,0,6,2,2.96667,2.4140625,-6.40625,1,0,0,0,66,66,104,1,1,response5disk_3,rectangle,,,,,,,,,,,,,,,,,,,
,,,,,,,,,,,,,,,,,,,,,,,,,,,,,,,,,,,,,,,,,,5fde2f7e43c57856e4e4a919,606a0f487d2ca0eaf2287a37,2021-04-04_21h12.14.090,Colour_Similarity_Experiment,2020.2.10,MacIntel,60,60675255c767bca6388caeee,16.7670068,16.66666841,16.7101174,16.66438585,16.66603416,16.66666841,,,,,,,,,,,,,,,,,,,,PF,3,strong,,,,,,,,3,1.417165,,,,,,,,,,,,,,,,,,,,,,,,,,,,8,strong,-32.9765625,-62.953125,1,0,0,response5disk,7,68,-3.1875,2.87109375,1,0,0,rectangle,-3.1875,2.87109375,1,0,0,6,2,0.000165,-3.1875,2.87109375,1,0,0,0,67,67,86,1,0,,,,,,,,,,,,,,,,,,,,,
,,,,,,,,,,,,,,,,,,,,,,,,,,,,,,,,,,,,,,,,,,5fde2f7e43c57856e4e4a919,606a0f487d2ca0eaf2287a37,2021-04-04_21h12.14.090,Colour_Similarity_Experiment,2020.2.10,MacIntel,60,60675255c767bca6388caeee,16.7670068,16.66666841,16.7101174,16.66438585,16.66603416,16.66666841,,,,,,,,,,,,,,,,,,,,PF,3,strong,,,,,,,,2,1.483875,,,,,,,,,,,,,,,,,,,,,,,,,,,,9,strong,-83.73046875,-32.1640625,1,0,0,response5disk,9,69,7.1484375,0.2890625,1,0,0,rectangle,7.1484375,0.2890625,1,0,0,6,1,0.00137,7.1484375,0.2890625,1,0,0,0,68,68,17,1,0,,,,,,,,,,,,,,,,,,,,,
,,,,,,,,,,,,,,,,,,,,,,,,,,,,,,,,,,,,,,,,,,5fde2f7e43c57856e4e4a919,606a0f487d2ca0eaf2287a37,2021-04-04_21h12.14.090,Colour_Similarity_Experiment,2020.2.10,MacIntel,60,60675255c767bca6388caeee,16.7670068,16.66666841,16.7101174,16.66438585,16.66603416,16.66666841,,,,,,,,,,,,,,,,,,,,PF,3,strong,,,,,,,,3,4.634835,,,,,,,,,,,,,,,,,,,,,,,,,,,,9,strong,-36.01171875,-81.2578125,1,0,0,response5disk,7,70,-0.42578125,5.70703125,1,0,0,rectangle,-0.42578125,5.70703125,1,0,0,6,7,0.00146,-0.42578125,5.70703125,1,0,0,0,69,69,100,1,0,,,,,,,,,,,,,,,,,,,,,
,,,,,,,,,,,,,,,,,,,,,,,,,,,,,,,,,,,,,,,,,,5fde2f7e43c57856e4e4a919,606a0f487d2ca0eaf2287a37,2021-04-04_21h12.14.090,Colour_Similarity_Experiment,2020.2.10,MacIntel,60,60675255c767bca6388caeee,16.7670068,16.66666841,16.7101174,16.66438585,16.66603416,16.66666841,,,,,,,,,,,,,,,,,,,,PF,3,weak,,,,,,,,2,2.934085,,,,,,,,,,,,,,,,,,,,,,,,,,,,6,weak,-76.921875,-38.51171875,1,0,0,response5disk,9,71,-5.34375,4.53515625,1,0,0,rectangle,-5.34375,4.53515625,1,0,0,6,1,0.00138,-5.34375,4.53515625,1,0,0,0,70,70,45,1,0,,,,,,,,,,,,,,,,,,,,,
,,,,,,,,,,,,,,,,,,,,,,,,,,,,,,,,,,,,,,,,,,5fde2f7e43c57856e4e4a919,606a0f487d2ca0eaf2287a37,2021-04-04_21h12.14.090,Colour_Similarity_Experiment,2020.2.10,MacIntel,60,60675255c767bca6388caeee,16.7670068,16.66666841,16.7101174,16.66438585,16.66603416,16.66666841,,,,,,,,,,,,,,,,,,,,PF,3,strong,,,,,,,,4,2.250125,,,,,,,,,,,,,,,,,,,,,,,,,,,,1,strong,30.12109375,-77.921875,1,0,0,response3disk,6,72,2.23046875,8.25390625,1,0,0,rectangle,2.23046875,8.25390625,1,0,0,6,3,0.00092,2.23046875,8.25390625,1,0,0,0,71,71,58,1,0,,,,,,,,,,,,,,,,,,,,,
,,,,,,,,,,,,,,,,,,,,,,,,,,,,,,,,,,,,,,,,,,5fde2f7e43c57856e4e4a919,606a0f487d2ca0eaf2287a37,2021-04-04_21h12.14.090,Colour_Similarity_Experiment,2020.2.10,MacIntel,60,60675255c767bca6388caeee,16.7670068,16.66666841,16.7101174,16.66438585,16.66603416,16.66666841,,,,,,,,,,,,,,,,,,,,PF,3,weak,,,,,,,,6,2.35,,,,,,,,,,,,,,,,,,,,,,,,,,,,4,weak,73.828125,43.01953125,1,0,0,response1disk,9,73,-3.953125,4.47265625,1,0,0,rectangle,-3.953125,4.47265625,1,0,0,6,1,0.001375,-3.953125,4.47265625,1,0,0,0,72,72,75,1,0,,,,,,,,,,,,,,,,,,,,,
,,,,,,,,,,,,,,,,,,,,,,,,,,,,,,,,,,,,,,,,,,5fde2f7e43c57856e4e4a919,606a0f487d2ca0eaf2287a37,2021-04-04_21h12.14.090,Colour_Similarity_Experiment,2020.2.10,MacIntel,60,60675255c767bca6388caeee,16.7670068,16.66666841,16.7101174,16.66438585,16.66603416,16.66666841,,,,,,,,,,,,,,,,,,,,PF,3,strong,,,,,,,,4,1.783915,,,,,,,,,,,,,,,,,,,,,,,,,,,,5,strong,35.68359375,-62.6953125,1,0,0,response3disk,2,74,5.0390625,0.4140625,1,0,0,rectangle,75.3984375,31.72265625,1,0,0,6,6,1.783415,-15.03515625,-5.8671875,1,0,0,0,73,73,55,1,1,response1disk_3,rectangle,,,,,,,,,,,,,,,,,,,
,,,,,,,,,,,,,,,,,,,,,,,,,,,,,,,,,,,,,,,,,,5fde2f7e43c57856e4e4a919,606a0f487d2ca0eaf2287a37,2021-04-04_21h12.14.090,Colour_Similarity_Experiment,2020.2.10,MacIntel,60,60675255c767bca6388caeee,16.7670068,16.66666841,16.7101174,16.66438585,16.66603416,16.66666841,,,,,,,,,,,,,,,,,,,,PF,3,strong,,,,,,,,5,2.53404,,,,,,,,,,,,,,,,,,,,,,,,,,,,6,strong,89.203125,-43.08203125,1,0,0,response3disk,9,75,1.828125,-0.21875,1,0,0,rectangle,-40.8515625,-76.10546875,1,0,0,3,3,3.05021,-4.4375,0.21484375,1,0,0,0,74,74,160,1,1,response5disk_3,rectangle,,,,,,,,,,,,,,,,,,,
,,,,,,,,,,,,,,,,,,,,,,,,,,,,,,,,,,,,,,,,,,5fde2f7e43c57856e4e4a919,606a0f487d2ca0eaf2287a37,2021-04-04_21h12.14.090,Colour_Similarity_Experiment,2020.2.10,MacIntel,60,60675255c767bca6388caeee,16.7670068,16.66666841,16.7101174,16.66438585,16.66603416,16.66666841,,,,,,,,,,,,,,,,,,,,PF,3,weak,,,,,,,,1,1.26783,,,,,,,,,,,,,,,,,,,,,,,,,,,,4,weak,-80.58203125,44.20703125,1,0,0,response7disk,3,76,10.90234375,7.68359375,1,0,0,rectangle,10.90234375,7.68359375,1,0,0,3,4,0.00137,10.90234375,7.68359375,1,0,0,0,75,75,89,1,0,,,,,,,,,,,,,,,,,,,,,
,,,,,,,,,,,,,,,,,,,,,,,,,,,,,,,,,,,,,,,,,,5fde2f7e43c57856e4e4a919,606a0f487d2ca0eaf2287a37,2021-04-04_21h12.14.090,Colour_Similarity_Experiment,2020.2.10,MacIntel,60,60675255c767bca6388caeee,16.7670068,16.66666841,16.7101174,16.66438585,16.66603416,16.66666841,,,,,,,,,,,,,,,,,,,,PF,3,strong,,,,,,,,4,2.251125,,,,,,,,,,,,,,,,,,,,,,,,,,,,7,strong,34.96875,-86.6953125,1,0,0,response3disk,9,77,3.8046875,1.20703125,1,0,0,rectangle,3.8046875,1.20703125,1,0,0,3,1,0.00121,3.8046875,1.20703125,1,0,0,0,76,76,155,1,0,,,,,,,,,,,,,,,,,,,,,
,,,,,,,,,,,,,,,,,,,,,,,,,,,,,,,,,,,,,,,,,,5fde2f7e43c57856e4e4a919,606a0f487d2ca0eaf2287a37,2021-04-04_21h12.14.090,Colour_Similarity_Experiment,2020.2.10,MacIntel,60,60675255c767bca6388caeee,16.7670068,16.66666841,16.7101174,16.66438585,16.66603416,16.66666841,,,,,,,,,,,,,,,,,,,,PF,3,strong,,,,,,,,5,2.3665,,,,,,,,,,,,,,,,,,,,,,,,,,,,2,strong,72.484375,-17.02734375,1,0,0,response3disk,6,78,5.96875,9.17578125,1,0,0,rectangle,5.96875,9.17578125,1,0,0,3,0,0.001625,5.96875,9.17578125,1,0,0,0,77,77,40,1,0,,,,,,,,,,,,,,,,,,,,,
,,,,,,,,,,,,,,,,,,,,,,,,,,,,,,,,,,,,,,,,,,5fde2f7e43c57856e4e4a919,606a0f487d2ca0eaf2287a37,2021-04-04_21h12.14.090,Colour_Similarity_Experiment,2020.2.10,MacIntel,60,60675255c767bca6388caeee,16.7670068,16.66666841,16.7101174,16.66438585,16.66603416,16.66666841,,,,,,,,,,,,,,,,,,,,PF,3,strong,,,,,,,,4,2.2675,,,,,,,,,,,,,,,,,,,,,,,,,,,,1,strong,35.7578125,-79.12890625,1,0,0,response3disk,4,79,-1.30859375,-3.98828125,1,0,0,rectangle,-1.30859375,-3.98828125,1,0,0,3,7,0.00133,-1.30859375,-3.98828125,1,0,0,0,78,78,135,1,0,,,,,,,,,,,,,,,,,,,,,
,,,,,,,,,,,,,,,,,,,,,,,,,,,,,,,,,,,,,,,,,,5fde2f7e43c57856e4e4a919,606a0f487d2ca0eaf2287a37,2021-04-04_21h12.14.090,Colour_Similarity_Experiment,2020.2.10,MacIntel,60,60675255c767bca6388caeee,16.7670068,16.66666841,16.7101174,16.66438585,16.66603416,16.66666841,,,,,,,,,,,,,,,,,,,,PF,3,strong,,,,,,,,5,2.067,,,,,,,,,,,,,,,,,,,,,,,,,,,,9,strong,60.40234375,-35.81640625,1,0,0,response3disk,3,80,0.62109375,0.19140625,1,0,0,rectangle,0.62109375,0.19140625,1,0,0,3,7,0.000205,0.62109375,0.19140625,1,0,0,0,79,79,141,1,0,,,,,,,,,,,,,,,,,,,,,
,,,,,,,,,,,,,,,,,,,,,,,,,,,,,,,,,,,,,,,,,,5fde2f7e43c57856e4e4a919,606a0f487d2ca0eaf2287a37,2021-04-04_21h12.14.090,Colour_Similarity_Experiment,2020.2.10,MacIntel,60,60675255c767bca6388caeee,16.7670068,16.66666841,16.7101174,16.66438585,16.66603416,16.66666841,,,,,,,,,,,,,,,,,,,,PF,3,weak,,,,,,,,5,1.31783,,,,,,,,,,,,,,,,,,,,,,,,,,,,7,weak,64.890625,-39.41796875,1,0,0,response3disk,1,81,7.52734375,-5.28515625,1,0,0,rectangle,7.52734375,-5.28515625,1,0,0,3,2,0.00125,7.52734375,-5.28515625,1,0,0,0,80,80,53,1,0,,,,,,,,,,,,,,,,,,,,,
,,,,,,,,,,,,,,,,,,,,,,,,,,,,,,,,,,,,,,,,,,5fde2f7e43c57856e4e4a919,606a0f487d2ca0eaf2287a37,2021-04-04_21h12.14.090,Colour_Similarity_Experiment,2020.2.10,MacIntel,60,60675255c767bca6388caeee,16.7670068,16.66666841,16.7101174,16.66438585,16.66603416,16.66666841,,,,,,,,,,,,,,,,,,,,PF,3,strong,,,,,,,,4,2.317415,,,,,,,,,,,,,,,,,,,,,,,,,,,,2,strong,28.83203125,-70.61328125,1,0,0,response3disk,7,82,2.859375,2.94140625,1,0,0,rectangle,2.859375,2.94140625,1,0,0,3,1,0.003455,2.859375,2.94140625,1,0,0,0,81,81,63,1,0,,,,,,,,,,,,,,,,,,,,,
,,,,,,,,,,,,,,,,,,,,,,,,,,,,,,,,,,,,,,,,,,5fde2f7e43c57856e4e4a919,606a0f487d2ca0eaf2287a37,2021-04-04_21h12.14.090,Colour_Similarity_Experiment,2020.2.10,MacIntel,60,60675255c767bca6388caeee,16.7670068,16.66666841,16.7101174,16.66438585,16.66603416,16.66666841,,,,,,,,,,,,,,,,,,,,PF,3,strong,,,,,,,,5,2.09996,,,,,,,,,,,,,,,,,,,,,,,,,,,,9,strong,65.02734375,-36.8125,1,0,0,response3disk,1,83,5.8671875,-7.5234375,1,0,0,rectangle,5.8671875,-7.5234375,1,0,0,3,2,0.00121,5.8671875,-7.5234375,1,0,0,0,82,82,111,1,0,,,,,,,,,,,,,,,,,,,,,
,,,,,,,,,,,,,,,,,,,,,,,,,,,,,,,,,,,,,,,,,,5fde2f7e43c57856e4e4a919,606a0f487d2ca0eaf2287a37,2021-04-04_21h12.14.090,Colour_Similarity_Experiment,2020.2.10,MacIntel,60,60675255c767bca6388caeee,16.7670068,16.66666841,16.7101174,16.66438585,16.66603416,16.66666841,,,,,,,,,,,,,,,,,,,,PF,3,strong,,,,,,,,6,1.867205,,,,,,,,,,,,,,,,,,,,,,,,,,,,4,strong,69.66015625,38.9453125,1,0,0,response1disk,7,84,12.15234375,0.66015625,1,0,0,rectangle,12.15234375,0.66015625,1,0,0,3,1,0.0015,12.15234375,0.66015625,1,0,0,0,83,83,87,1,0,,,,,,,,,,,,,,,,,,,,,
,,,,,,,,,,,,,,,,,,,,,,,,,,,,,,,,,,,,,,,,,,5fde2f7e43c57856e4e4a919,606a0f487d2ca0eaf2287a37,2021-04-04_21h12.14.090,Colour_Similarity_Experiment,2020.2.10,MacIntel,60,60675255c767bca6388caeee,16.7670068,16.66666841,16.7101174,16.66438585,16.66603416,16.66666841,,,,,,,,,,,,,,,,,,,,PF,3,weak,,,,,,,,3,1.667085,,,,,,,,,,,,,,,,,,,,,,,,,,,,2,weak,-38.05859375,-70.10546875,1,0,0,response5disk,1,85,1.453125,4.69921875,1,0,0,rectangle,1.453125,4.69921875,1,0,0,3,3,0.0015,1.453125,4.69921875,1,0,0,0,84,84,9,1,0,,,,,,,,,,,,,,,,,,,,,
,,,,,,,,,,,,,,,,,,,,,,,,,,,,,,,,,,,,,,,,,,5fde2f7e43c57856e4e4a919,606a0f487d2ca0eaf2287a37,2021-04-04_21h12.14.090,Colour_Similarity_Experiment,2020.2.10,MacIntel,60,60675255c767bca6388caeee,16.7670068,16.66666841,16.7101174,16.66438585,16.66603416,16.66666841,,,,,,,,,,,,,,,,,,,,PF,3,strong,,,,,,,,5,1.784375,,,,,,,,,,,,,,,,,,,,,,,,,,,,3,strong,65.26953125,-31.59375,1,0,0,response3disk,6,86,6.75,-8.62109375,1,0,0,rectangle,6.75,-8.62109375,1,0,0,3,1,0.0015,6.75,-8.62109375,1,0,0,0,85,85,95,1,0,,,,,,,,,,,,,,,,,,,,,
,,,,,,,,,,,,,,,,,,,,,,,,,,,,,,,,,,,,,,,,,,5fde2f7e43c57856e4e4a919,606a0f487d2ca0eaf2287a37,2021-04-04_21h12.14.090,Colour_Similarity_Experiment,2020.2.10,MacIntel,60,60675255c767bca6388caeee,16.7670068,16.66666841,16.7101174,16.66438585,16.66603416,16.66666841,,,,,,,,,,,,,,,,,,,,PF,3,weak,,,,,,,,6,2.417125,,,,,,,,,,,,,,,,,,,,,,,,,,,,7,weak,94.34765625,52.52734375,1,0,0,response1disk,2,87,3.99609375,11.94921875,1,0,0,rectangle,3.99609375,11.94921875,1,0,0,3,0,0.002755,3.99609375,11.94921875,1,0,0,0,86,86,32,1,0,,,,,,,,,,,,,,,,,,,,,
,,,,,,,,,,,,,,,,,,,,,,,,,,,,,,,,,,,,,,,,,,5fde2f7e43c57856e4e4a919,606a0f487d2ca0eaf2287a37,2021-04-04_21h12.14.090,Colour_Similarity_Experiment,2020.2.10,MacIntel,60,60675255c767bca6388caeee,16.7670068,16.66666841,16.7101174,16.66438585,16.66603416,16.66666841,,,,,,,,,,,,,,,,,,,,PF,3,strong,,,,,,,,6,2.41775,,,,,,,,,,,,,,,,,,,,,,,,,,,,1,strong,78.48828125,42.13671875,1,0,0,response1disk,1,88,-9.140625,-2.78515625,1,0,0,rectangle,-9.140625,-2.78515625,1,0,0,3,5,0.000915,-9.140625,-2.78515625,1,0,0,0,87,87,151,1,0,,,,,,,,,,,,,,,,,,,,,
,,,,,,,,,,,,,,,,,,,,,,,,,,,,,,,,,,,,,,,,,,5fde2f7e43c57856e4e4a919,606a0f487d2ca0eaf2287a37,2021-04-04_21h12.14.090,Colour_Similarity_Experiment,2020.2.10,MacIntel,60,60675255c767bca6388caeee,16.7670068,16.66666841,16.7101174,16.66438585,16.66603416,16.66666841,,,,,,,,,,,,,,,,,,,,PF,3,weak,,,,,,,,6,7.91804,,,,,,,,,,,,,,,,,,,,,,,,,,,,1,weak,87.0859375,39.5546875,1,0,0,response1disk,8,89,0.51953125,4.3671875,1,0,0,rectangle,0.51953125,4.3671875,1,0,0,3,7,0.00133,0.51953125,4.3671875,1,0,0,0,88,88,65,1,0,,,,,,,,,,,,,,,,,,,,,
,,,,,,,,,,,,,,,,,,,,,,,,,,,,,,,,,,,,,,,,,,5fde2f7e43c57856e4e4a919,606a0f487d2ca0eaf2287a37,2021-04-04_21h12.14.090,Colour_Similarity_Experiment,2020.2.10,MacIntel,60,60675255c767bca6388caeee,16.7670068,16.66666841,16.7101174,16.66438585,16.66603416,16.66666841,,,,,,,,,,,,,,,,,,,,PF,3,weak,,,,,,,,3,1.649955,,,,,,,,,,,,,,,,,,,,,,,,,,,,2,weak,-31.3984375,-67.76171875,1,0,0,response5disk,9,90,-0.2421875,-4.015625,1,0,0,rectangle,-0.2421875,-4.015625,1,0,0,3,7,0.00029,-0.2421875,-4.015625,1,0,0,0,89,89,39,1,0,,,,,,,,,,,,,,,,,,,,,
,,,,,,,,,,,,,,,,,,,,,,,,,,,,,,,,,,,,,,,,,,5fde2f7e43c57856e4e4a919,606a0f487d2ca0eaf2287a37,2021-04-04_21h12.14.090,Colour_Similarity_Experiment,2020.2.10,MacIntel,60,60675255c767bca6388caeee,16.7670068,16.66666841,16.7101174,16.66438585,16.66603416,16.66666841,,,,,,,,,,,,,,,,,,,,PF,3,weak,,,,,,,,4,1.402165,,,,,,,,,,,,,,,,,,,,,,,,,,,,9,weak,46.9140625,-59.2421875,1,0,0,response3disk,7,91,1.984375,-6.64453125,1,0,0,rectangle,1.984375,-6.64453125,1,0,0,3,3,0.000665,1.984375,-6.64453125,1,0,0,0,90,90,121,1,0,,,,,,,,,,,,,,,,,,,,,
,,,,,,,,,,,,,,,,,,,,,,,,,,,,,,,,,,,,,,,,,,5fde2f7e43c57856e4e4a919,606a0f487d2ca0eaf2287a37,2021-04-04_21h12.14.090,Colour_Similarity_Experiment,2020.2.10,MacIntel,60,60675255c767bca6388caeee,16.7670068,16.66666841,16.7101174,16.66438585,16.66603416,16.66666841,,,,,,,,,,,,,,,,,,,,PF,3,strong,,,,,,,,1,1.33408,,,,,,,,,,,,,,,,,,,,,,,,,,,,1,strong,-79.28125,36.07421875,1,0,0,response7disk,9,92,-0.12890625,-2.46875,1,0,0,rectangle,-0.12890625,-2.46875,1,0,0,3,0,0.00133,-0.12890625,-2.46875,1,0,0,0,91,91,123,1,0,,,,,,,,,,,,,,,,,,,,,
,,,,,,,,,,,,,,,,,,,,,,,,,,,,,,,,,,,,,,,,,,5fde2f7e43c57856e4e4a919,606a0f487d2ca0eaf2287a37,2021-04-04_21h12.14.090,Colour_Similarity_Experiment,2020.2.10,MacIntel,60,60675255c767bca6388caeee,16.7670068,16.66666841,16.7101174,16.66438585,16.66603416,16.66666841,,,,,,,,,,,,,,,,,,,,PF,3,weak,,,,,,,,2,2.13337,,,,,,,,,,,,,,,,,,,,,,,,,,,,5,weak,-78.734375,-29.6328125,1,0,0,response5disk,3,93,0.93359375,3.03515625,1,0,0,rectangle,0.93359375,3.03515625,1,0,0,3,3,0.001625,0.93359375,3.03515625,1,0,0,0,92,92,109,1,0,,,,,,,,,,,,,,,,,,,,,
,,,,,,,,,,,,,,,,,,,,,,,,,,,,,,,,,,,,,,,,,,5fde2f7e43c57856e4e4a919,606a0f487d2ca0eaf2287a37,2021-04-04_21h12.14.090,Colour_Similarity_Experiment,2020.2.10,MacIntel,60,60675255c767bca6388caeee,16.7670068,16.66666841,16.7101174,16.66438585,16.66603416,16.66666841,,,,,,,,,,,,,,,,,,,,PF,3,strong,,,,,,,,6,2.350795,,,,,,,,,,,,,,,,,,,,,,,,,,,,5,strong,69.81640625,35.47265625,1,0,0,response1disk,7,94,5.76171875,-4.4609375,1,0,0,rectangle,5.76171875,-4.4609375,1,0,0,3,4,0.00129,5.76171875,-4.4609375,1,0,0,0,93,93,7,1,0,,,,,,,,,,,,,,,,,,,,,
,,,,,,,,,,,,,,,,,,,,,,,,,,,,,,,,,,,,,,,,,,5fde2f7e43c57856e4e4a919,606a0f487d2ca0eaf2287a37,2021-04-04_21h12.14.090,Colour_Similarity_Experiment,2020.2.10,MacIntel,60,60675255c767bca6388caeee,16.7670068,16.66666841,16.7101174,16.66438585,16.66603416,16.66666841,,,,,,,,,,,,,,,,,,,,PF,3,weak,,,,,,,,2,2.40008,,,,,,,,,,,,,,,,,,,,,,,,,,,,7,weak,-70.33203125,-35.3203125,1,0,0,response5disk,6,95,-10.0546875,-8.703125,1,0,0,rectangle,-10.0546875,-8.703125,1,0,0,3,7,0.00167,-10.0546875,-8.703125,1,0,0,0,94,94,29,1,0,,,,,,,,,,,,,,,,,,,,,
,,,,,,,,,,,,,,,,,,,,,,,,,,,,,,,,,,,,,,,,,,5fde2f7e43c57856e4e4a919,606a0f487d2ca0eaf2287a37,2021-04-04_21h12.14.090,Colour_Similarity_Experiment,2020.2.10,MacIntel,60,60675255c767bca6388caeee,16.7670068,16.66666841,16.7101174,16.66438585,16.66603416,16.66666841,,,,,,,,,,,,,,,,,,,,PF,3,strong,,,,,,,,4,1.73412,,,,,,,,,,,,,,,,,,,,,,,,,,,,2,strong,31.6484375,-53.73828125,1,0,0,response3disk,9,96,4.39453125,-4.046875,1,0,0,rectangle,4.39453125,-4.046875,1,0,0,3,7,0.00017,4.39453125,-4.046875,1,0,0,0,95,95,72,1,0,,,,,,,,,,,,,,,,,,,,,
,,,,,,,,,,,,,,,,,,,,,,,,,,,,,,,,,,,,,,,,,,5fde2f7e43c57856e4e4a919,606a0f487d2ca0eaf2287a37,2021-04-04_21h12.14.090,Colour_Similarity_Experiment,2020.2.10,MacIntel,60,60675255c767bca6388caeee,16.7670068,16.66666841,16.7101174,16.66438585,16.66603416,16.66666841,,,,,,,,,,,,,,,,,,,,PF,3,weak,,,,,,,,2,1.3675,,,,,,,,,,,,,,,,,,,,,,,,,,,,5,weak,-65.06640625,-43.94140625,1,0,0,response5disk,4,97,7.5546875,-0.05078125,1,0,0,rectangle,7.5546875,-0.05078125,1,0,0,3,3,0.00142,7.5546875,-0.05078125,1,0,0,0,96,96,54,1,0,,,,,,,,,,,,,,,,,,,,,
,,,,,,,,,,,,,,,,,,,,,,,,,,,,,,,,,,,,,,,,,,5fde2f7e43c57856e4e4a919,606a0f487d2ca0eaf2287a37,2021-04-04_21h12.14.090,Colour_Similarity_Experiment,2020.2.10,MacIntel,60,60675255c767bca6388caeee,16.7670068,16.66666841,16.7101174,16.66438585,16.66603416,16.66666841,,,,,,,,,,,,,,,,,,,,PF,3,weak,,,,,,,,4,1.25025,,,,,,,,,,,,,,,,,,,,,,,,,,,,3,weak,36.75390625,-89.5625,1,0,0,response3disk,7,98,-3.515625,-7.20703125,1,0,0,rectangle,-3.515625,-7.20703125,1,0,0,3,6,0.00196,-3.515625,-7.20703125,1,0,0,0,97,97,41,1,0,,,,,,,,,,,,,,,,,,,,,
,,,,,,,,,,,,,,,,,,,,,,,,,,,,,,,,,,,,,,,,,,5fde2f7e43c57856e4e4a919,606a0f487d2ca0eaf2287a37,2021-04-04_21h12.14.090,Colour_Similarity_Experiment,2020.2.10,MacIntel,60,60675255c767bca6388caeee,16.7670068,16.66666841,16.7101174,16.66438585,16.66603416,16.66666841,,,,,,,,,,,,,,,,,,,,PF,3,weak,,,,,,,,5,2.683915,,,,,,,,,,,,,,,,,,,,,,,,,,,,8,weak,63.55078125,-42.60546875,1,0,0,response3disk,4,99,3.578125,-5.50390625,1,0,0,rectangle,3.578125,-5.50390625,1,0,0,3,7,0.001205,3.578125,-5.50390625,1,0,0,0,98,98,78,1,0,,,,,,,,,,,,,,,,,,,,,
,,,,,,,,,,,,,,,,,,,,,,,,,,,,,,,,,,,,,,,,,,5fde2f7e43c57856e4e4a919,606a0f487d2ca0eaf2287a37,2021-04-04_21h12.14.090,Colour_Similarity_Experiment,2020.2.10,MacIntel,60,60675255c767bca6388caeee,16.7670068,16.66666841,16.7101174,16.66438585,16.66603416,16.66666841,,,,,,,,,,,,,,,,,,,,PF,3,strong,,,,,,,,1,1.667125,,,,,,,,,,,,,,,,,,,,,,,,,,,,4,strong,-69.94140625,29.4609375,1,0,0,response7disk,3,100,-1.28125,0.7265625,1,0,0,rectangle,-1.28125,0.7265625,1,0,0,3,0,0.00133,-1.28125,0.7265625,1,0,0,0,99,99,77,1,0,,,,,,,,,,,,,,,,,,,,,
,,,,,,,,,,,,,,,,,,,,,,,,,,,,,,,,,,,,,,,,,,5fde2f7e43c57856e4e4a919,606a0f487d2ca0eaf2287a37,2021-04-04_21h12.14.090,Colour_Similarity_Experiment,2020.2.10,MacIntel,60,60675255c767bca6388caeee,16.7670068,16.66666841,16.7101174,16.66438585,16.66603416,16.66666841,,,,,,,,,,,,,,,,,,,,PF,3,weak,,,,,,,,5,4.418085,,,,,,,,,,,,,,,,,,,,,,,,,,,,6,weak,64.375,-26.44140625,1,0,0,response3disk,2,101,-6.40234375,13.4296875,1,0,0,rectangle,-6.40234375,13.4296875,1,0,0,3,7,0.00196,-6.40234375,13.4296875,1,0,0,0,100,100,130,1,0,,,,,,,,,,,,,,,,,,,,,
,,,,,,,,,,,,,,,,,,,,,,,,,,,,,,,,,,,,,,,,,,5fde2f7e43c57856e4e4a919,606a0f487d2ca0eaf2287a37,2021-04-04_21h12.14.090,Colour_Similarity_Experiment,2020.2.10,MacIntel,60,60675255c767bca6388caeee,16.7670068,16.66666841,16.7101174,16.66438585,16.66603416,16.66666841,,,,,,,,,,,,,,,,,,,,PF,3,weak,,,,,,,,3,2.568,,,,,,,,,,,,,,,,,,,,,,,,,,,,2,weak,-34.96484375,-71.609375,1,0,0,response5disk,6,102,-2.6484375,6.2265625,1,0,0,rectangle,-2.6484375,6.2265625,1,0,0,3,4,0.002,-2.6484375,6.2265625,1,0,0,0,101,101,113,1,0,,,,,,,,,,,,,,,,,,,,,
,,,,,,,,,,,,,,,,,,,,,,,,,,,,,,,,,,,,,,,,,,5fde2f7e43c57856e4e4a919,606a0f487d2ca0eaf2287a37,2021-04-04_21h12.14.090,Colour_Similarity_Experiment,2020.2.10,MacIntel,60,60675255c767bca6388caeee,16.7670068,16.66666841,16.7101174,16.66438585,16.66603416,16.66666841,,,,,,,,,,,,,,,,,,,,PF,3,weak,,,,,,,,6,1.534915,,,,,,,,,,,,,,,,,,,,,,,,,,,,4,weak,69.72265625,34.8125,1,0,0,response1disk,6,103,7.71875,14.484375,1,0,0,rectangle,7.71875,14.484375,1,0,0,3,0,0.00146,7.71875,14.484375,1,0,0,0,102,102,120,1,0,,,,,,,,,,,,,,,,,,,,,
,,,,,,,,,,,,,,,,,,,,,,,,,,,,,,,,,,,,,,,,,,5fde2f7e43c57856e4e4a919,606a0f487d2ca0eaf2287a37,2021-04-04_21h12.14.090,Colour_Similarity_Experiment,2020.2.10,MacIntel,60,60675255c767bca6388caeee,16.7670068,16.66666841,16.7101174,16.66438585,16.66603416,16.66666841,,,,,,,,,,,,,,,,,,,,PF,3,weak,,,,,,,,5,3.14996,,,,,,,,,,,,,,,,,,,,,,,,,,,,9,weak,66.328125,-35.15625,1,0,0,response3disk,2,104,5.44140625,-3.6953125,1,0,0,rectangle,5.44140625,-3.6953125,1,0,0,3,1,0.001455,5.44140625,-3.6953125,1,0,0,0,103,103,157,1,0,,,,,,,,,,,,,,,,,,,,,
,,,,,,,,,,,,,,,,,,,,,,,,,,,,,,,,,,,,,,,,,,5fde2f7e43c57856e4e4a919,606a0f487d2ca0eaf2287a37,2021-04-04_21h12.14.090,Colour_Similarity_Experiment,2020.2.10,MacIntel,60,60675255c767bca6388caeee,16.7670068,16.66666841,16.7101174,16.66438585,16.66603416,16.66666841,,,,,,,,,,,,,,,,,,,,PF,3,strong,,,,,,,,5,1.26592,,,,,,,,,,,,,,,,,,,,,,,,,,,,6,strong,96.52734375,-59.38671875,1,0,0,response3disk,4,105,-2.80078125,-1.1953125,1,0,0,rectangle,-2.80078125,-1.1953125,1,0,0,3,0,0.000835,-2.80078125,-1.1953125,1,0,0,0,104,104,56,1,0,,,,,,,,,,,,,,,,,,,,,
,,,,,,,,,,,,,,,,,,,,,,,,,,,,,,,,,,,,,,,,,,5fde2f7e43c57856e4e4a919,606a0f487d2ca0eaf2287a37,2021-04-04_21h12.14.090,Colour_Similarity_Experiment,2020.2.10,MacIntel,60,60675255c767bca6388caeee,16.7670068,16.66666841,16.7101174,16.66438585,16.66603416,16.66666841,,,,,,,,,,,,,,,,,,,,PF,3,weak,,,,,,,,4,2.04988,,,,,,,,,,,,,,,,,,,,,,,,,,,,8,weak,54.71484375,-77.9453125,1,0,0,response3disk,1,106,8.9296875,-4.09765625,1,0,0,rectangle,8.9296875,-4.09765625,1,0,0,3,7,0.00083,8.9296875,-4.09765625,1,0,0,0,105,105,57,1,0,,,,,,,,,,,,,,,,,,,,,
,,,,,,,,,,,,,,,,,,,,,,,,,,,,,,,,,,,,,,,,,,5fde2f7e43c57856e4e4a919,606a0f487d2ca0eaf2287a37,2021-04-04_21h12.14.090,Colour_Similarity_Experiment,2020.2.10,MacIntel,60,60675255c767bca6388caeee,16.7670068,16.66666841,16.7101174,16.66438585,16.66603416,16.66666841,,,,,,,,,,,,,,,,,,,,PF,3,weak,,,,,,,,6,1.633165,,,,,,,,,,,,,,,,,,,,,,,,,,,,7,weak,63.03125,38.05078125,1,0,0,response1disk,4,107,-6.74609375,-6.21875,1,0,0,rectangle,-6.74609375,-6.21875,1,0,0,3,4,0.00279,-6.74609375,-6.21875,1,0,0,0,106,106,43,1,0,,,,,,,,,,,,,,,,,,,,,
,,,,,,,,,,,,,,,,,,,,,,,,,,,,,,,,,,,,,,,,,,5fde2f7e43c57856e4e4a919,606a0f487d2ca0eaf2287a37,2021-04-04_21h12.14.090,Colour_Similarity_Experiment,2020.2.10,MacIntel,60,60675255c767bca6388caeee,16.7670068,16.66666841,16.7101174,16.66438585,16.66603416,16.66666841,,,,,,,,,,,,,,,,,,,,PF,3,weak,,,,,,,,4,3.933,,,,,,,,,,,,,,,,,,,,,,,,,,,,1,weak,25.37109375,-61.8203125,1,0,0,response3disk,5,108,5.76953125,5.921875,1,0,0,rectangle,5.76953125,5.921875,1,0,0,3,3,0.001335,5.76953125,5.921875,1,0,0,0,107,107,28,1,0,,,,,,,,,,,,,,,,,,,,,
,,,,,,,,,,,,,,,,,,,,,,,,,,,,,,,,,,,,,,,,,,5fde2f7e43c57856e4e4a919,606a0f487d2ca0eaf2287a37,2021-04-04_21h12.14.090,Colour_Similarity_Experiment,2020.2.10,MacIntel,60,60675255c767bca6388caeee,16.7670068,16.66666841,16.7101174,16.66438585,16.66603416,16.66666841,,,,,,,,,,,,,,,,,,,,PF,3,strong,,,,,,,,5,2.318,,,,,,,,,,,,,,,,,,,,,,,,,,,,6,strong,66.234375,-28.70703125,1,0,0,response3disk,3,109,-0.0625,2.29296875,1,0,0,rectangle,-0.0625,2.29296875,1,0,0,3,4,0.002085,-0.0625,2.29296875,1,0,0,0,108,108,21,1,0,,,,,,,,,,,,,,,,,,,,,
,,,,,,,,,,,,,,,,,,,,,,,,,,,,,,,,,,,,,,,,,,5fde2f7e43c57856e4e4a919,606a0f487d2ca0eaf2287a37,2021-04-04_21h12.14.090,Colour_Similarity_Experiment,2020.2.10,MacIntel,60,60675255c767bca6388caeee,16.7670068,16.66666841,16.7101174,16.66438585,16.66603416,16.66666841,,,,,,,,,,,,,,,,,,,,PF,3,strong,,,,,,,,3,1.899835,,,,,,,,,,,,,,,,,,,,,,,,,,,,5,strong,-36.65625,-67.6953125,1,0,0,response5disk,4,110,-1.65625,-1.5078125,1,0,0,rectangle,-1.65625,-1.5078125,1,0,0,3,7,0.0015,-1.65625,-1.5078125,1,0,0,0,109,109,8,1,0,,,,,,,,,,,,,,,,,,,,,
,,,,,,,,,,,,,,,,,,,,,,,,,,,,,,,,,,,,,,,,,,5fde2f7e43c57856e4e4a919,606a0f487d2ca0eaf2287a37,2021-04-04_21h12.14.090,Colour_Similarity_Experiment,2020.2.10,MacIntel,60,60675255c767bca6388caeee,16.7670068,16.66666841,16.7101174,16.66438585,16.66603416,16.66666841,,,,,,,,,,,,,,,,,,,,PF,3,weak,,,,,,,,2,2.016585,,,,,,,,,,,,,,,,,,,,,,,,,,,,6,weak,-67.265625,-30.4296875,1,0,0,response5disk,6,111,-4.1328125,4.44140625,1,0,0,rectangle,-4.1328125,4.44140625,1,0,0,3,7,0.000125,-4.1328125,4.44140625,1,0,0,0,110,110,0,1,0,,,,,,,,,,,,,,,,,,,,,
,,,,,,,,,,,,,,,,,,,,,,,,,,,,,,,,,,,,,,,,,,5fde2f7e43c57856e4e4a919,606a0f487d2ca0eaf2287a37,2021-04-04_21h12.14.090,Colour_Similarity_Experiment,2020.2.10,MacIntel,60,60675255c767bca6388caeee,16.7670068,16.66666841,16.7101174,16.66438585,16.66603416,16.66666841,,,,,,,,,,,,,,,,,,,,PF,3,strong,,,,,,,,2,1.367085,,,,,,,,,,,,,,,,,,,,,,,,,,,,7,strong,-64.8984375,-28.8828125,1,0,0,response5disk,8,112,-2.65625,-2.68359375,1,0,0,rectangle,-40.80078125,85.3125,1,0,0,0,0,2.933835,-10.05859375,-4.609375,1,0,0,0,111,111,97,1,1,response7disk_3,rectangle,,,,,,,,,,,,,,,,,,,
,,,,,,,,,,,,,,,,,,,,,,,,,,,,,,,,,,,,,,,,,,5fde2f7e43c57856e4e4a919,606a0f487d2ca0eaf2287a37,2021-04-04_21h12.14.090,Colour_Similarity_Experiment,2020.2.10,MacIntel,60,60675255c767bca6388caeee,16.7670068,16.66666841,16.7101174,16.66438585,16.66603416,16.66666841,,,,,,,,,,,,,,,,,,,,PF,3,weak,,,,,,,,5,5.183005,,,,,,,,,,,,,,,,,,,,,,,,,,,,9,weak,67.73828125,-43.06640625,1,0,0,response3disk,6,113,7.94921875,1.68359375,1,0,0,rectangle,7.94921875,1.68359375,1,0,0,0,5,0.00046,7.94921875,1.68359375,1,0,0,0,112,112,148,1,0,,,,,,,,,,,,,,,,,,,,,
,,,,,,,,,,,,,,,,,,,,,,,,,,,,,,,,,,,,,,,,,,5fde2f7e43c57856e4e4a919,606a0f487d2ca0eaf2287a37,2021-04-04_21h12.14.090,Colour_Similarity_Experiment,2020.2.10,MacIntel,60,60675255c767bca6388caeee,16.7670068,16.66666841,16.7101174,16.66438585,16.66603416,16.66666841,,,,,,,,,,,,,,,,,,,,PF,3,weak,,,,,,,,2,1.1495,,,,,,,,,,,,,,,,,,,,,,,,,,,,2,weak,-74.51953125,-29.671875,1,0,0,response5disk,2,114,-3.1015625,2.01171875,1,0,0,rectangle,-3.1015625,2.01171875,1,0,0,0,7,0.001165,-3.1015625,2.01171875,1,0,0,0,113,113,14,1,0,,,,,,,,,,,,,,,,,,,,,
,,,,,,,,,,,,,,,,,,,,,,,,,,,,,,,,,,,,,,,,,,5fde2f7e43c57856e4e4a919,606a0f487d2ca0eaf2287a37,2021-04-04_21h12.14.090,Colour_Similarity_Experiment,2020.2.10,MacIntel,60,60675255c767bca6388caeee,16.7670068,16.66666841,16.7101174,16.66438585,16.66603416,16.66666841,,,,,,,,,,,,,,,,,,,,PF,3,weak,,,,,,,,5,1.63525,,,,,,,,,,,,,,,,,,,,,,,,,,,,5,weak,72.40234375,-35.48828125,1,0,0,response3disk,2,115,-5.9296875,5.82421875,1,0,0,rectangle,-5.9296875,5.82421875,1,0,0,0,4,0.00204,-5.9296875,5.82421875,1,0,0,0,114,114,129,1,0,,,,,,,,,,,,,,,,,,,,,
,,,,,,,,,,,,,,,,,,,,,,,,,,,,,,,,,,,,,,,,,,5fde2f7e43c57856e4e4a919,606a0f487d2ca0eaf2287a37,2021-04-04_21h12.14.090,Colour_Similarity_Experiment,2020.2.10,MacIntel,60,60675255c767bca6388caeee,16.7670068,16.66666841,16.7101174,16.66438585,16.66603416,16.66666841,,,,,,,,,,,,,,,,,,,,PF,3,strong,,,,,,,,4,1.251165,,,,,,,,,,,,,,,,,,,,,,,,,,,,7,strong,52.578125,-80.8125,1,0,0,response3disk,4,116,-0.328125,1.9140625,1,0,0,rectangle,-0.328125,1.9140625,1,0,0,0,6,0.001085,-0.328125,1.9140625,1,0,0,0,115,115,158,1,0,,,,,,,,,,,,,,,,,,,,,
,,,,,,,,,,,,,,,,,,,,,,,,,,,,,,,,,,,,,,,,,,5fde2f7e43c57856e4e4a919,606a0f487d2ca0eaf2287a37,2021-04-04_21h12.14.090,Colour_Similarity_Experiment,2020.2.10,MacIntel,60,60675255c767bca6388caeee,16.7670068,16.66666841,16.7101174,16.66438585,16.66603416,16.66666841,,,,,,,,,,,,,,,,,,,,PF,3,weak,,,,,,,,4,2.13329,,,,,,,,,,,,,,,,,,,,,,,,,,,,6,weak,26.70703125,-77.0234375,1,0,0,response3disk,3,117,-9.59765625,4.9609375,1,0,0,rectangle,-9.59765625,4.9609375,1,0,0,0,6,0.000165,-9.59765625,4.9609375,1,0,0,0,116,116,26,1,0,,,,,,,,,,,,,,,,,,,,,
,,,,,,,,,,,,,,,,,,,,,,,,,,,,,,,,,,,,,,,,,,5fde2f7e43c57856e4e4a919,606a0f487d2ca0eaf2287a37,2021-04-04_21h12.14.090,Colour_Similarity_Experiment,2020.2.10,MacIntel,60,60675255c767bca6388caeee,16.7670068,16.66666841,16.7101174,16.66438585,16.66603416,16.66666841,,,,,,,,,,,,,,,,,,,,PF,3,strong,,,,,,,,5,2.767295,,,,,,,,,,,,,,,,,,,,,,,,,,,,8,strong,71.7265625,-42.46484375,1,0,0,response3disk,1,118,8.85546875,-3.79296875,1,0,0,rectangle,8.85546875,-3.79296875,1,0,0,0,7,0.001665,8.85546875,-3.79296875,1,0,0,0,117,117,20,1,0,,,,,,,,,,,,,,,,,,,,,
,,,,,,,,,,,,,,,,,,,,,,,,,,,,,,,,,,,,,,,,,,5fde2f7e43c57856e4e4a919,606a0f487d2ca0eaf2287a37,2021-04-04_21h12.14.090,Colour_Similarity_Experiment,2020.2.10,MacIntel,60,60675255c767bca6388caeee,16.7670068,16.66666841,16.7101174,16.66438585,16.66603416,16.66666841,,,,,,,,,,,,,,,,,,,,PF,3,strong,,,,,,,,3,7.93329,,,,,,,,,,,,,,,,,,,,,,,,,,,,3,strong,-45.515625,-76.32421875,1,0,0,response5disk,7,119,0.609375,5.6328125,1,0,0,rectangle,0.609375,5.6328125,1,0,0,0,7,0.000125,0.609375,5.6328125,1,0,0,0,118,118,118,1,0,,,,,,,,,,,,,,,,,,,,,
,,,,,,,,,,,,,,,,,,,,,,,,,,,,,,,,,,,,,,,,,,5fde2f7e43c57856e4e4a919,606a0f487d2ca0eaf2287a37,2021-04-04_21h12.14.090,Colour_Similarity_Experiment,2020.2.10,MacIntel,60,60675255c767bca6388caeee,16.7670068,16.66666841,16.7101174,16.66438585,16.66603416,16.66666841,,,,,,,,,,,,,,,,,,,,PF,3,weak,,,,,,,,5,2.318625,,,,,,,,,,,,,,,,,,,,,,,,,,,,2,weak,51.5625,-36.2734375,1,0,0,response3disk,8,120,-1.70703125,-2.8359375,1,0,0,rectangle,-1.70703125,-2.8359375,1,0,0,0,0,0.00133,-1.70703125,-2.8359375,1,0,0,0,119,119,52,1,0,,,,,,,,,,,,,,,,,,,,,
,,,,,,,,,,,,,,,,,,,,,,,,,,,,,,,,,,,,,,,,,,5fde2f7e43c57856e4e4a919,606a0f487d2ca0eaf2287a37,2021-04-04_21h12.14.090,Colour_Similarity_Experiment,2020.2.10,MacIntel,60,60675255c767bca6388caeee,16.7670068,16.66666841,16.7101174,16.66438585,16.66603416,16.66666841,,,,,,,,,,,,,,,,,,,,PF,3,weak,,,,,,,,6,3.633245,,,,,,,,,,,,,,,,,,,,,,,,,,,,3,weak,71.68359375,35.80859375,1,0,0,response1disk,6,121,-13.3984375,-0.30859375,1,0,0,rectangle,-13.3984375,-0.30859375,1,0,0,0,1,0.001165,-13.3984375,-0.30859375,1,0,0,0,120,120,47,1,0,,,,,,,,,,,,,,,,,,,,,
,,,,,,,,,,,,,,,,,,,,,,,,,,,,,,,,,,,,,,,,,,5fde2f7e43c57856e4e4a919,606a0f487d2ca0eaf2287a37,2021-04-04_21h12.14.090,Colour_Similarity_Experiment,2020.2.10,MacIntel,60,60675255c767bca6388caeee,16.7670068,16.66666841,16.7101174,16.66438585,16.66603416,16.66666841,,,,,,,,,,,,,,,,,,,,PF,3,strong,,,,,,,,6,1.649705,,,,,,,,,,,,,,,,,,,,,,,,,,,,7,strong,101.3359375,43.875,1,0,0,response1disk,2,122,1.13671875,-4.9921875,1,0,0,rectangle,1.13671875,-4.9921875,1,0,0,0,6,0.00104,1.13671875,-4.9921875,1,0,0,0,121,121,138,1,0,,,,,,,,,,,,,,,,,,,,,
,,,,,,,,,,,,,,,,,,,,,,,,,,,,,,,,,,,,,,,,,,5fde2f7e43c57856e4e4a919,606a0f487d2ca0eaf2287a37,2021-04-04_21h12.14.090,Colour_Similarity_Experiment,2020.2.10,MacIntel,60,60675255c767bca6388caeee,16.7670068,16.66666841,16.7101174,16.66438585,16.66603416,16.66666841,,,,,,,,,,,,,,,,,,,,PF,3,strong,,,,,,,,4,1.284585,,,,,,,,,,,,,,,,,,,,,,,,,,,,6,strong,38.08984375,-67.10546875,1,0,0,response3disk,6,123,15.828125,0.79296875,1,0,0,rectangle,15.828125,0.79296875,1,0,0,0,0,0.00158,15.828125,0.79296875,1,0,0,0,122,122,91,1,0,,,,,,,,,,,,,,,,,,,,,
,,,,,,,,,,,,,,,,,,,,,,,,,,,,,,,,,,,,,,,,,,5fde2f7e43c57856e4e4a919,606a0f487d2ca0eaf2287a37,2021-04-04_21h12.14.090,Colour_Similarity_Experiment,2020.2.10,MacIntel,60,60675255c767bca6388caeee,16.7670068,16.66666841,16.7101174,16.66438585,16.66603416,16.66666841,,,,,,,,,,,,,,,,,,,,PF,3,strong,,,,,,,,3,1.983125,,,,,,,,,,,,,,,,,,,,,,,,,,,,8,strong,-46.92578125,-82.13671875,1,0,0,response5disk,8,124,-1.4453125,7.94140625,1,0,0,rectangle,-1.4453125,7.94140625,1,0,0,0,6,0.00129,-1.4453125,7.94140625,1,0,0,0,123,123,48,1,0,,,,,,,,,,,,,,,,,,,,,
,,,,,,,,,,,,,,,,,,,,,,,,,,,,,,,,,,,,,,,,,,5fde2f7e43c57856e4e4a919,606a0f487d2ca0eaf2287a37,2021-04-04_21h12.14.090,Colour_Similarity_Experiment,2020.2.10,MacIntel,60,60675255c767bca6388caeee,16.7670068,16.66666841,16.7101174,16.66438585,16.66603416,16.66666841,,,,,,,,,,,,,,,,,,,,PF,3,strong,,,,,,,,6,1.60054,,,,,,,,,,,,,,,,,,,,,,,,,,,,8,strong,77.11328125,38.50390625,1,0,0,response1disk,2,125,8.44921875,3.796875,1,0,0,rectangle,8.44921875,3.796875,1,0,0,0,7,0.001585,8.44921875,3.796875,1,0,0,0,124,124,22,1,0,,,,,,,,,,,,,,,,,,,,,
,,,,,,,,,,,,,,,,,,,,,,,,,,,,,,,,,,,,,,,,,,5fde2f7e43c57856e4e4a919,606a0f487d2ca0eaf2287a37,2021-04-04_21h12.14.090,Colour_Similarity_Experiment,2020.2.10,MacIntel,60,60675255c767bca6388caeee,16.7670068,16.66666841,16.7101174,16.66438585,16.66603416,16.66666841,,,,,,,,,,,,,,,,,,,,PF,3,weak,,,,,,,,5,2.11762,,,,,,,,,,,,,,,,,,,,,,,,,,,,5,weak,59.77734375,-35.44921875,1,0,0,response3disk,6,126,-4.453125,3.63671875,1,0,0,rectangle,-4.453125,3.63671875,1,0,0,0,3,0.001375,-4.453125,3.63671875,1,0,0,0,125,125,103,1,0,,,,,,,,,,,,,,,,,,,,,
,,,,,,,,,,,,,,,,,,,,,,,,,,,,,,,,,,,,,,,,,,5fde2f7e43c57856e4e4a919,606a0f487d2ca0eaf2287a37,2021-04-04_21h12.14.090,Colour_Similarity_Experiment,2020.2.10,MacIntel,60,60675255c767bca6388caeee,16.7670068,16.66666841,16.7101174,16.66438585,16.66603416,16.66666841,,,,,,,,,,,,,,,,,,,,PF,3,weak,,,,,,,,6,1.71725,,,,,,,,,,,,,,,,,,,,,,,,,,,,2,weak,82.1796875,38.34765625,1,0,0,response1disk,5,127,5.4140625,6.9140625,1,0,0,rectangle,5.4140625,6.9140625,1,0,0,0,6,0.001295,5.4140625,6.9140625,1,0,0,0,126,126,147,1,0,,,,,,,,,,,,,,,,,,,,,
,,,,,,,,,,,,,,,,,,,,,,,,,,,,,,,,,,,,,,,,,,5fde2f7e43c57856e4e4a919,606a0f487d2ca0eaf2287a37,2021-04-04_21h12.14.090,Colour_Similarity_Experiment,2020.2.10,MacIntel,60,60675255c767bca6388caeee,16.7670068,16.66666841,16.7101174,16.66438585,16.66603416,16.66666841,,,,,,,,,,,,,,,,,,,,PF,3,strong,,,,,,,,6,1.33487,,,,,,,,,,,,,,,,,,,,,,,,,,,,5,strong,77.0390625,33.09765625,1,0,0,response1disk,1,128,18.83203125,3.43359375,1,0,0,rectangle,18.83203125,3.43359375,1,0,0,0,2,0.001375,18.83203125,3.43359375,1,0,0,0,127,127,131,1,0,,,,,,,,,,,,,,,,,,,,,
,,,,,,,,,,,,,,,,,,,,,,,,,,,,,,,,,,,,,,,,,,5fde2f7e43c57856e4e4a919,606a0f487d2ca0eaf2287a37,2021-04-04_21h12.14.090,Colour_Similarity_Experiment,2020.2.10,MacIntel,60,60675255c767bca6388caeee,16.7670068,16.66666841,16.7101174,16.66438585,16.66603416,16.66666841,,,,,,,,,,,,,,,,,,,,PF,3,weak,,,,,,,,6,1.616375,,,,,,,,,,,,,,,,,,,,,,,,,,,,4,weak,84.9453125,36.9296875,1,0,0,response1disk,8,129,1.8359375,7.17578125,1,0,0,rectangle,1.8359375,7.17578125,1,0,0,0,5,0.001165,1.8359375,7.17578125,1,0,0,0,128,128,124,1,0,,,,,,,,,,,,,,,,,,,,,
,,,,,,,,,,,,,,,,,,,,,,,,,,,,,,,,,,,,,,,,,,5fde2f7e43c57856e4e4a919,606a0f487d2ca0eaf2287a37,2021-04-04_21h12.14.090,Colour_Similarity_Experiment,2020.2.10,MacIntel,60,60675255c767bca6388caeee,16.7670068,16.66666841,16.7101174,16.66438585,16.66603416,16.66666841,,,,,,,,,,,,,,,,,,,,PF,3,weak,,,,,,,,2,1.28437,,,,,,,,,,,,,,,,,,,,,,,,,,,,1,weak,-75.29296875,-44.390625,1,0,0,response5disk,1,130,-8.171875,-6.0703125,1,0,0,rectangle,-40.33984375,-75.24609375,1,0,0,3,3,2.13441,0.58984375,-8.7421875,1,0,0,0,129,129,76,1,1,response5disk_3,rectangle,,,,,,,,,,,,,,,,,,,
,,,,,,,,,,,,,,,,,,,,,,,,,,,,,,,,,,,,,,,,,,5fde2f7e43c57856e4e4a919,606a0f487d2ca0eaf2287a37,2021-04-04_21h12.14.090,Colour_Similarity_Experiment,2020.2.10,MacIntel,60,60675255c767bca6388caeee,16.7670068,16.66666841,16.7101174,16.66438585,16.66603416,16.66666841,,,,,,,,,,,,,,,,,,,,PF,3,strong,,,,,,,,3,2.417085,,,,,,,,,,,,,,,,,,,,,,,,,,,,8,strong,-34.40234375,-65.09765625,1,0,0,response5disk,9,131,-3.97265625,-2.7265625,1,0,0,rectangle,-3.97265625,-2.7265625,1,0,0,3,7,0.00096,-3.97265625,-2.7265625,1,0,0,0,130,130,105,1,0,,,,,,,,,,,,,,,,,,,,,
,,,,,,,,,,,,,,,,,,,,,,,,,,,,,,,,,,,,,,,,,,5fde2f7e43c57856e4e4a919,606a0f487d2ca0eaf2287a37,2021-04-04_21h12.14.090,Colour_Similarity_Experiment,2020.2.10,MacIntel,60,60675255c767bca6388caeee,16.7670068,16.66666841,16.7101174,16.66438585,16.66603416,16.66666841,,,,,,,,,,,,,,,,,,,,PF,3,strong,,,,,,,,4,2.44975,,,,,,,,,,,,,,,,,,,,,,,,,,,,3,strong,36.66015625,-78.6015625,1,0,0,response3disk,1,132,-5.89453125,12.96484375,1,0,0,rectangle,-5.89453125,12.96484375,1,0,0,3,4,0.00129,-5.89453125,12.96484375,1,0,0,0,131,131,125,1,0,,,,,,,,,,,,,,,,,,,,,
,,,,,,,,,,,,,,,,,,,,,,,,,,,,,,,,,,,,,,,,,,5fde2f7e43c57856e4e4a919,606a0f487d2ca0eaf2287a37,2021-04-04_21h12.14.090,Colour_Similarity_Experiment,2020.2.10,MacIntel,60,60675255c767bca6388caeee,16.7670068,16.66666841,16.7101174,16.66438585,16.66603416,16.66666841,,,,,,,,,,,,,,,,,,,,PF,3,strong,,,,,,,,5,1.41654,,,,,,,,,,,,,,,,,,,,,,,,,,,,9,strong,63.48046875,-41.3671875,1,0,0,response3disk,6,133,7.75390625,-10.421875,1,0,0,rectangle,7.75390625,-10.421875,1,0,0,3,1,0.00175,7.75390625,-10.421875,1,0,0,0,132,132,117,1,0,,,,,,,,,,,,,,,,,,,,,
,,,,,,,,,,,,,,,,,,,,,,,,,,,,,,,,,,,,,,,,,,5fde2f7e43c57856e4e4a919,606a0f487d2ca0eaf2287a37,2021-04-04_21h12.14.090,Colour_Similarity_Experiment,2020.2.10,MacIntel,60,60675255c767bca6388caeee,16.7670068,16.66666841,16.7101174,16.66438585,16.66603416,16.66666841,,,,,,,,,,,,,,,,,,,,PF,3,weak,,,,,,,,6,1.38479,,,,,,,,,,,,,,,,,,,,,,,,,,,,1,weak,67.88671875,25.421875,1,0,0,response1disk,7,134,18.95703125,12.9609375,1,0,0,rectangle,18.95703125,12.9609375,1,0,0,6,4,0.00208,18.95703125,12.9609375,1,0,0,0,133,133,150,1,0,,,,,,,,,,,,,,,,,,,,,
,,,,,,,,,,,,,,,,,,,,,,,,,,,,,,,,,,,,,,,,,,5fde2f7e43c57856e4e4a919,606a0f487d2ca0eaf2287a37,2021-04-04_21h12.14.090,Colour_Similarity_Experiment,2020.2.10,MacIntel,60,60675255c767bca6388caeee,16.7670068,16.66666841,16.7101174,16.66438585,16.66603416,16.66666841,,,,,,,,,,,,,,,,,,,,PF,3,strong,,,,,,,,2,1.40071,,,,,,,,,,,,,,,,,,,,,,,,,,,,7,strong,-78.21484375,-39.75,1,0,0,response5disk,6,135,-10.60546875,3.68359375,1,0,0,rectangle,-10.60546875,3.68359375,1,0,0,6,1,0.00112,-10.60546875,3.68359375,1,0,0,0,134,134,31,1,0,,,,,,,,,,,,,,,,,,,,,
,,,,,,,,,,,,,,,,,,,,,,,,,,,,,,,,,,,,,,,,,,5fde2f7e43c57856e4e4a919,606a0f487d2ca0eaf2287a37,2021-04-04_21h12.14.090,Colour_Similarity_Experiment,2020.2.10,MacIntel,60,60675255c767bca6388caeee,16.7670068,16.66666841,16.7101174,16.66438585,16.66603416,16.66666841,,,,,,,,,,,,,,,,,,,,PF,3,strong,,,,,,,,3,1.451045,,,,,,,,,,,,,,,,,,,,,,,,,,,,2,strong,-33.78125,-54.55078125,1,0,0,response5disk,1,136,3.3046875,15.109375,1,0,0,rectangle,3.3046875,15.109375,1,0,0,6,3,0.00071,3.3046875,15.109375,1,0,0,0,135,135,85,1,0,,,,,,,,,,,,,,,,,,,,,
,,,,,,,,,,,,,,,,,,,,,,,,,,,,,,,,,,,,,,,,,,5fde2f7e43c57856e4e4a919,606a0f487d2ca0eaf2287a37,2021-04-04_21h12.14.090,Colour_Similarity_Experiment,2020.2.10,MacIntel,60,60675255c767bca6388caeee,16.7670068,16.66666841,16.7101174,16.66438585,16.66603416,16.66666841,,,,,,,,,,,,,,,,,,,,PF,3,weak,,,,,,,,3,1.565915,,,,,,,,,,,,,,,,,,,,,,,,,,,,4,weak,-18.84765625,-65.88671875,1,0,0,response5disk,5,137,-11.09765625,-10.09765625,1,0,0,rectangle,-11.09765625,-10.09765625,1,0,0,6,0,0.00104,-11.09765625,-10.09765625,1,0,0,0,136,136,49,1,0,,,,,,,,,,,,,,,,,,,,,
,,,,,,,,,,,,,,,,,,,,,,,,,,,,,,,,,,,,,,,,,,5fde2f7e43c57856e4e4a919,606a0f487d2ca0eaf2287a37,2021-04-04_21h12.14.090,Colour_Similarity_Experiment,2020.2.10,MacIntel,60,60675255c767bca6388caeee,16.7670068,16.66666841,16.7101174,16.66438585,16.66603416,16.66666841,,,,,,,,,,,,,,,,,,,,PF,3,strong,,,,,,,,2,2.00129,,,,,,,,,,,,,,,,,,,,,,,,,,,,3,strong,-61.5,-48.234375,1,0,0,response5disk,3,138,-7.671875,-3.890625,1,0,0,rectangle,-7.671875,-3.890625,1,0,0,6,0,0.00021,-7.671875,-3.890625,1,0,0,0,137,137,68,1,0,,,,,,,,,,,,,,,,,,,,,
,,,,,,,,,,,,,,,,,,,,,,,,,,,,,,,,,,,,,,,,,,5fde2f7e43c57856e4e4a919,606a0f487d2ca0eaf2287a37,2021-04-04_21h12.14.090,Colour_Similarity_Experiment,2020.2.10,MacIntel,60,60675255c767bca6388caeee,16.7670068,16.66666841,16.7101174,16.66438585,16.66603416,16.66666841,,,,,,,,,,,,,,,,,,,,PF,3,strong,,,,,,,,6,2.05108,,,,,,,,,,,,,,,,,,,,,,,,,,,,1,strong,76.921875,32.9140625,1,0,0,response1disk,5,139,-0.68359375,3.546875,1,0,0,rectangle,-0.68359375,3.546875,1,0,0,6,7,0.00117,-0.68359375,3.546875,1,0,0,0,138,138,82,1,0,,,,,,,,,,,,,,,,,,,,,
,,,,,,,,,,,,,,,,,,,,,,,,,,,,,,,,,,,,,,,,,,5fde2f7e43c57856e4e4a919,606a0f487d2ca0eaf2287a37,2021-04-04_21h12.14.090,Colour_Similarity_Experiment,2020.2.10,MacIntel,60,60675255c767bca6388caeee,16.7670068,16.66666841,16.7101174,16.66438585,16.66603416,16.66666841,,,,,,,,,,,,,,,,,,,,PF,3,strong,,,,,,,,5,1.367835,,,,,,,,,,,,,,,,,,,,,,,,,,,,8,strong,49.42578125,-35.9453125,1,0,0,response3disk,6,140,-3.59765625,-3.5546875,1,0,0,rectangle,-3.59765625,-3.5546875,1,0,0,6,2,0.00129,-3.59765625,-3.5546875,1,0,0,0,139,139,37,1,0,,,,,,,,,,,,,,,,,,,,,
,,,,,,,,,,,,,,,,,,,,,,,,,,,,,,,,,,,,,,,,,,5fde2f7e43c57856e4e4a919,606a0f487d2ca0eaf2287a37,2021-04-04_21h12.14.090,Colour_Similarity_Experiment,2020.2.10,MacIntel,60,60675255c767bca6388caeee,16.7670068,16.66666841,16.7101174,16.66438585,16.66603416,16.66666841,,,,,,,,,,,,,,,,,,,,PF,3,strong,,,,,,,,5,3.48371,,,,,,,,,,,,,,,,,,,,,,,,,,,,3,strong,77.54296875,-32.1875,1,0,0,response3disk,5,141,3.19921875,7.71875,1,0,0,rectangle,3.19921875,7.71875,1,0,0,6,4,0.001665,3.19921875,7.71875,1,0,0,0,140,140,101,1,0,,,,,,,,,,,,,,,,,,,,,
,,,,,,,,,,,,,,,,,,,,,,,,,,,,,,,,,,,,,,,,,,5fde2f7e43c57856e4e4a919,606a0f487d2ca0eaf2287a37,2021-04-04_21h12.14.090,Colour_Similarity_Experiment,2020.2.10,MacIntel,60,60675255c767bca6388caeee,16.7670068,16.66666841,16.7101174,16.66438585,16.66603416,16.66666841,,,,,,,,,,,,,,,,,,,,PF,3,weak,,,,,,,,6,1.482335,,,,,,,,,,,,,,,,,,,,,,,,,,,,8,weak,78.6171875,30.2421875,1,0,0,response1disk,2,142,0.84375,-4.1875,1,0,0,rectangle,0.84375,-4.1875,1,0,0,6,7,0.00112,0.84375,-4.1875,1,0,0,0,141,141,83,1,0,,,,,,,,,,,,,,,,,,,,,
,,,,,,,,,,,,,,,,,,,,,,,,,,,,,,,,,,,,,,,,,,5fde2f7e43c57856e4e4a919,606a0f487d2ca0eaf2287a37,2021-04-04_21h12.14.090,Colour_Similarity_Experiment,2020.2.10,MacIntel,60,60675255c767bca6388caeee,16.7670068,16.66666841,16.7101174,16.66438585,16.66603416,16.66666841,,,,,,,,,,,,,,,,,,,,PF,3,strong,,,,,,,,7,1.735,,,,,,,,,,,,,,,,,,,,,,,,,,,,7,strong,40.02734375,83.31640625,1,0,0,response1disk,5,143,-0.3828125,-7.296875,1,0,0,rectangle,-0.3828125,-7.296875,1,0,0,6,1,0.001455,-0.3828125,-7.296875,1,0,0,0,142,142,156,1,0,,,,,,,,,,,,,,,,,,,,,
,,,,,,,,,,,,,,,,,,,,,,,,,,,,,,,,,,,,,,,,,,5fde2f7e43c57856e4e4a919,606a0f487d2ca0eaf2287a37,2021-04-04_21h12.14.090,Colour_Similarity_Experiment,2020.2.10,MacIntel,60,60675255c767bca6388caeee,16.7670068,16.66666841,16.7101174,16.66438585,16.66603416,16.66666841,,,,,,,,,,,,,,,,,,,,PF,3,weak,,,,,,,,1,1.5005,,,,,,,,,,,,,,,,,,,,,,,,,,,,9,weak,-83.1171875,34.203125,1,0,0,response7disk,9,144,-4.734375,4.0859375,1,0,0,rectangle,-4.734375,4.0859375,1,0,0,6,1,0.00013,-4.734375,4.0859375,1,0,0,0,143,143,106,1,0,,,,,,,,,,,,,,,,,,,,,
,,,,,,,,,,,,,,,,,,,,,,,,,,,,,,,,,,,,,,,,,,5fde2f7e43c57856e4e4a919,606a0f487d2ca0eaf2287a37,2021-04-04_21h12.14.090,Colour_Similarity_Experiment,2020.2.10,MacIntel,60,60675255c767bca6388caeee,16.7670068,16.66666841,16.7101174,16.66438585,16.66603416,16.66666841,,,,,,,,,,,,,,,,,,,,PF,3,weak,,,,,,,,6,1.383545,,,,,,,,,,,,,,,,,,,,,,,,,,,,2,weak,82.4609375,46.2578125,1,0,0,response1disk,7,145,9.60546875,4.89453125,1,0,0,rectangle,9.60546875,4.89453125,1,0,0,6,4,0.00117,9.60546875,4.89453125,1,0,0,0,144,144,107,1,0,,,,,,,,,,,,,,,,,,,,,
,,,,,,,,,,,,,,,,,,,,,,,,,,,,,,,,,,,,,,,,,,5fde2f7e43c57856e4e4a919,606a0f487d2ca0eaf2287a37,2021-04-04_21h12.14.090,Colour_Similarity_Experiment,2020.2.10,MacIntel,60,60675255c767bca6388caeee,16.7670068,16.66666841,16.7101174,16.66438585,16.66603416,16.66666841,,,,,,,,,,,,,,,,,,,,PF,3,strong,,,,,,,,3,1.650585,,,,,,,,,,,,,,,,,,,,,,,,,,,,4,strong,-45.08203125,-61.85546875,1,0,0,response5disk,2,146,-2.2734375,2.28125,1,0,0,rectangle,-2.2734375,2.28125,1,0,0,6,2,0.00125,-2.2734375,2.28125,1,0,0,0,145,145,13,1,0,,,,,,,,,,,,,,,,,,,,,
,,,,,,,,,,,,,,,,,,,,,,,,,,,,,,,,,,,,,,,,,,5fde2f7e43c57856e4e4a919,606a0f487d2ca0eaf2287a37,2021-04-04_21h12.14.090,Colour_Similarity_Experiment,2020.2.10,MacIntel,60,60675255c767bca6388caeee,16.7670068,16.66666841,16.7101174,16.66438585,16.66603416,16.66666841,,,,,,,,,,,,,,,,,,,,PF,3,strong,,,,,,,,6,1.299875,,,,,,,,,,,,,,,,,,,,,,,,,,,,6,strong,75.25,44.328125,1,0,0,response1disk,5,147,-5.2890625,-5.640625,1,0,0,rectangle,-5.2890625,-5.640625,1,0,0,6,4,0.001585,-5.2890625,-5.640625,1,0,0,0,146,146,126,1,0,,,,,,,,,,,,,,,,,,,,,
,,,,,,,,,,,,,,,,,,,,,,,,,,,,,,,,,,,,,,,,,,5fde2f7e43c57856e4e4a919,606a0f487d2ca0eaf2287a37,2021-04-04_21h12.14.090,Colour_Similarity_Experiment,2020.2.10,MacIntel,60,60675255c767bca6388caeee,16.7670068,16.66666841,16.7101174,16.66438585,16.66603416,16.66666841,,,,,,,,,,,,,,,,,,,,PF,3,strong,,,,,,,,4,1.35004,,,,,,,,,,,,,,,,,,,,,,,,,,,,4,strong,31.9453125,-87.67578125,1,0,0,response3disk,8,148,-2.65234375,-10.48046875,1,0,0,rectangle,-2.65234375,-10.48046875,1,0,0,6,7,0.001335,-2.65234375,-10.48046875,1,0,0,0,147,147,35,1,0,,,,,,,,,,,,,,,,,,,,,
,,,,,,,,,,,,,,,,,,,,,,,,,,,,,,,,,,,,,,,,,,5fde2f7e43c57856e4e4a919,606a0f487d2ca0eaf2287a37,2021-04-04_21h12.14.090,Colour_Similarity_Experiment,2020.2.10,MacIntel,60,60675255c767bca6388caeee,16.7670068,16.66666841,16.7101174,16.66438585,16.66603416,16.66666841,,,,,,,,,,,,,,,,,,,,PF,3,strong,,,,,,,,5,1.250375,,,,,,,,,,,,,,,,,,,,,,,,,,,,1,strong,79.390625,-49.92578125,1,0,0,response3disk,7,149,7.5390625,-5.640625,1,0,0,rectangle,7.5390625,-5.640625,1,0,0,6,3,0.00154,7.5390625,-5.640625,1,0,0,0,148,148,137,1,0,,,,,,,,,,,,,,,,,,,,,
,,,,,,,,,,,,,,,,,,,,,,,,,,,,,,,,,,,,,,,,,,5fde2f7e43c57856e4e4a919,606a0f487d2ca0eaf2287a37,2021-04-04_21h12.14.090,Colour_Similarity_Experiment,2020.2.10,MacIntel,60,60675255c767bca6388caeee,16.7670068,16.66666841,16.7101174,16.66438585,16.66603416,16.66666841,,,,,,,,,,,,,,,,,,,,PF,3,strong,,,,,,,,5,1.600375,,,,,,,,,,,,,,,,,,,,,,,,,,,,4,strong,72.69140625,-36.78515625,1,0,0,response3disk,5,150,-3.96484375,3.15234375,1,0,0,rectangle,-3.96484375,3.15234375,1,0,0,6,1,0.001085,-3.96484375,3.15234375,1,0,0,0,149,149,116,1,0,,,,,,,,,,,,,,,,,,,,,
,,,,,,,,,,,,,,,,,,,,,,,,,,,,,,,,,,,,,,,,,,5fde2f7e43c57856e4e4a919,606a0f487d2ca0eaf2287a37,2021-04-04_21h12.14.090,Colour_Similarity_Experiment,2020.2.10,MacIntel,60,60675255c767bca6388caeee,16.7670068,16.66666841,16.7101174,16.66438585,16.66603416,16.66666841,,,,,,,,,,,,,,,,,,,,PF,3,strong,,,,,,,,3,1.68413,,,,,,,,,,,,,,,,,,,,,,,,,,,,3,strong,-47.67578125,-54.47265625,1,0,0,response5disk,4,151,-14.53515625,-4.2265625,1,0,0,rectangle,-14.53515625,-4.2265625,1,0,0,6,0,0.00121,-14.53515625,-4.2265625,1,0,0,0,150,150,110,1,0,,,,,,,,,,,,,,,,,,,,,
,,,,,,,,,,,,,,,,,,,,,,,,,,,,,,,,,,,,,,,,,,5fde2f7e43c57856e4e4a919,606a0f487d2ca0eaf2287a37,2021-04-04_21h12.14.090,Colour_Similarity_Experiment,2020.2.10,MacIntel,60,60675255c767bca6388caeee,16.7670068,16.66666841,16.7101174,16.66438585,16.66603416,16.66666841,,,,,,,,,,,,,,,,,,,,PF,3,weak,,,,,,,,4,2.816585,,,,,,,,,,,,,,,,,,,,,,,,,,,,6,weak,19.15625,-57.6796875,1,0,0,response3disk,5,152,-1.390625,0.3828125,1,0,0,rectangle,-1.390625,0.3828125,1,0,0,6,2,0.00142,-1.390625,0.3828125,1,0,0,0,151,151,59,1,0,,,,,,,,,,,,,,,,,,,,,
,,,,,,,,,,,,,,,,,,,,,,,,,,,,,,,,,,,,,,,,,,5fde2f7e43c57856e4e4a919,606a0f487d2ca0eaf2287a37,2021-04-04_21h12.14.090,Colour_Similarity_Experiment,2020.2.10,MacIntel,60,60675255c767bca6388caeee,16.7670068,16.66666841,16.7101174,16.66438585,16.66603416,16.66666841,,,,,,,,,,,,,,,,,,,,PF,3,strong,,,,,,,,6,1.6665,,,,,,,,,,,,,,,,,,,,,,,,,,,,6,strong,88.18359375,39.953125,1,0,0,response1disk,2,153,4.12109375,7.8125,1,0,0,rectangle,4.12109375,7.8125,1,0,0,6,2,0.000125,4.12109375,7.8125,1,0,0,0,152,152,112,1,0,,,,,,,,,,,,,,,,,,,,,
,,,,,,,,,,,,,,,,,,,,,,,,,,,,,,,,,,,,,,,,,,5fde2f7e43c57856e4e4a919,606a0f487d2ca0eaf2287a37,2021-04-04_21h12.14.090,Colour_Similarity_Experiment,2020.2.10,MacIntel,60,60675255c767bca6388caeee,16.7670068,16.66666841,16.7101174,16.66438585,16.66603416,16.66666841,,,,,,,,,,,,,,,,,,,,PF,3,strong,,,,,,,,4,1.6505,,,,,,,,,,,,,,,,,,,,,,,,,,,,5,strong,30.0546875,-60.6875,1,0,0,response3disk,6,154,-0.0390625,3.22265625,1,0,0,rectangle,-0.0390625,3.22265625,1,0,0,6,6,0.001335,-0.0390625,3.22265625,1,0,0,0,153,153,12,1,0,,,,,,,,,,,,,,,,,,,,,
,,,,,,,,,,,,,,,,,,,,,,,,,,,,,,,,,,,,,,,,,,5fde2f7e43c57856e4e4a919,606a0f487d2ca0eaf2287a37,2021-04-04_21h12.14.090,Colour_Similarity_Experiment,2020.2.10,MacIntel,60,60675255c767bca6388caeee,16.7670068,16.66666841,16.7101174,16.66438585,16.66603416,16.66666841,,,,,,,,,,,,,,,,,,,,PF,3,strong,,,,,,,,3,1.33383,,,,,,,,,,,,,,,,,,,,,,,,,,,,7,strong,-52.3984375,-66.49609375,1,0,0,response5disk,7,155,-4.6796875,-2.8046875,1,0,0,rectangle,-4.6796875,-2.8046875,1,0,0,6,5,0.000795,-4.6796875,-2.8046875,1,0,0,0,154,154,34,1,0,,,,,,,,,,,,,,,,,,,,,
,,,,,,,,,,,,,,,,,,,,,,,,,,,,,,,,,,,,,,,,,,5fde2f7e43c57856e4e4a919,606a0f487d2ca0eaf2287a37,2021-04-04_21h12.14.090,Colour_Similarity_Experiment,2020.2.10,MacIntel,60,60675255c767bca6388caeee,16.7670068,16.66666841,16.7101174,16.66438585,16.66603416,16.66666841,,,,,,,,,,,,,,,,,,,,PF,3,strong,,,,,,,,6,1.068415,,,,,,,,,,,,,,,,,,,,,,,,,,,,8,strong,97.37109375,31.3359375,1,0,0,response1disk,4,156,-3.98046875,2.10546875,1,0,0,rectangle,-3.98046875,2.10546875,1,0,0,6,1,0.001085,-3.98046875,2.10546875,1,0,0,0,155,155,88,1,0,,,,,,,,,,,,,,,,,,,,,
,,,,,,,,,,,,,,,,,,,,,,,,,,,,,,,,,,,,,,,,,,5fde2f7e43c57856e4e4a919,606a0f487d2ca0eaf2287a37,2021-04-04_21h12.14.090,Colour_Similarity_Experiment,2020.2.10,MacIntel,60,60675255c767bca6388caeee,16.7670068,16.66666841,16.7101174,16.66438585,16.66603416,16.66666841,,,,,,,,,,,,,,,,,,,,PF,3,weak,,,,,,,,3,1.585415,,,,,,,,,,,,,,,,,,,,,,,,,,,,9,weak,-27.3046875,-76.0546875,1,0,0,response5disk,1,157,-6.26171875,4.1796875,1,0,0,rectangle,-6.26171875,4.1796875,1,0,0,6,0,0.001335,-6.26171875,4.1796875,1,0,0,0,156,156,74,1,0,,,,,,,,,,,,,,,,,,,,,
,,,,,,,,,,,,,,,,,,,,,,,,,,,,,,,,,,,,,,,,,,5fde2f7e43c57856e4e4a919,606a0f487d2ca0eaf2287a37,2021-04-04_21h12.14.090,Colour_Similarity_Experiment,2020.2.10,MacIntel,60,60675255c767bca6388caeee,16.7670068,16.66666841,16.7101174,16.66438585,16.66603416,16.66666841,,,,,,,,,,,,,,,,,,,,PF,3,weak,,,,,,,,2,1.11737,,,,,,,,,,,,,,,,,,,,,,,,,,,,8,weak,-73.3828125,-28.8984375,1,0,0,response5disk,9,158,0.26171875,4.68359375,1,0,0,rectangle,0.26171875,4.68359375,1,0,0,6,1,0.00146,0.26171875,4.68359375,1,0,0,0,157,157,42,1,0,,,,,,,,,,,,,,,,,,,,,
,,,,,,,,,,,,,,,,,,,,,,,,,,,,,,,,,,,,,,,,,,5fde2f7e43c57856e4e4a919,606a0f487d2ca0eaf2287a37,2021-04-04_21h12.14.090,Colour_Similarity_Experiment,2020.2.10,MacIntel,60,60675255c767bca6388caeee,16.7670068,16.66666841,16.7101174,16.66438585,16.66603416,16.66666841,,,,,,,,,,,,,,,,,,,,PF,3,weak,,,,,,,,6,1.43446,,,,,,,,,,,,,,,,,,,,,,,,,,,,5,weak,72.55078125,40.09375,1,0,0,response1disk,8,159,0.453125,-6.109375,1,0,0,rectangle,0.453125,-6.109375,1,0,0,6,2,0.00221,0.453125,-6.109375,1,0,0,0,158,158,149,1,0,,,,,,,,,,,,,,,,,,,,,
,,,,,,,,,,,,,,,,,,,,,,,,,,,,,,,,,,,,,,,,,,5fde2f7e43c57856e4e4a919,606a0f487d2ca0eaf2287a37,2021-04-04_21h12.14.090,Colour_Similarity_Experiment,2020.2.10,MacIntel,60,60675255c767bca6388caeee,16.7670068,16.66666841,16.7101174,16.66438585,16.66603416,16.66666841,,,,,,,,,,,,,,,,,,,,PF,3,weak,,,,,,,,6,1.35025,,,,,,,,,,,,,,,,,,,,,,,,,,,,9,weak,86.63671875,61.02734375,1,0,0,response1disk,5,160,19.3828125,5.30859375,1,0,0,rectangle,19.3828125,5.30859375,1,0,0,6,1,0.001335,19.3828125,5.30859375,1,0,0,0,159,159,134,1,0,,,,,,,,,,,,,,,,,,,,,
,,,,,,,,,,,,,,,,,,,,,,,,,,,,,,,,,,,,,,,,,,5fde2f7e43c57856e4e4a919,606a0f487d2ca0eaf2287a37,2021-04-04_21h12.14.090,Colour_Similarity_Experiment,2020.2.10,MacIntel,60,60675255c767bca6388caeee,16.7670068,16.66666841,16.7101174,16.66438585,16.66603416,16.66666841,,,,,,,,,,,,,,,,,,,,PF,3,strong,,,,,,,,5,1.466705,,,,,,,,,,,,,,,,,,,,,,,,,,,,8,strong,74.8515625,-54.921875,1,0,0,response3disk,3,161,9.25390625,-5.51171875,1,0,0,rectangle,9.25390625,-5.51171875,1,0,0,6,4,0.001335,9.25390625,-5.51171875,1,0,0,0,160,160,154,1,0,,,,,,,,,,,,,,,,,,,,,
,,,,,,,,,,,,,,,,,,,,,,,,,,,,,,,,,,,,,,,,,,5fde2f7e43c57856e4e4a919,606a0f487d2ca0eaf2287a37,2021-04-04_21h12.14.090,Colour_Similarity_Experiment,2020.2.10,MacIntel,60,60675255c767bca6388caeee,16.7670068,16.66666841,16.7101174,16.66438585,16.66603416,16.66666841,,,,,,,,,,,,,,,,,,,,PF,3,strong,,,,,,,,6,1.06825,,,,,,,,,,,,,,,,,,,,,,,,,,,,9,strong,61.44140625,26.99609375,1,0,0,response1disk,4,162,-4.359375,-5.2109375,1,0,0,rectangle,-4.359375,-5.2109375,1,0,0,6,2,0.001455,-4.359375,-5.2109375,1,0,0,0,161,161,60,1,0,,,,,,,,,,,,,,,,,,,,,
,,,,,,,,,,,,,,,,,,,,,,,,,,,,,,,,,,,,,,,,,,5fde2f7e43c57856e4e4a919,606a0f487d2ca0eaf2287a37,2021-04-04_21h12.14.090,Colour_Similarity_Experiment,2020.2.10,MacIntel,60,60675255c767bca6388caeee,16.7670068,16.66666841,16.7101174,16.66438585,16.66603416,16.66666841,,,,,,,,,,,,,,,,,,,,,,,,,,,,,,,,,,,,,,,,,,,,,,,,,,,,,,,,,,,,,,,,,,,,,,,,,,,,,,,,,,,,,,,,,,,,,,,,0,0,0,0,1,,,,,,,,,,,,,,
,,,,,,,,,,,,,,,,,,,,,,,,,,,,,,,,,,,,,,,,,,5fde2f7e43c57856e4e4a919,606a0f487d2ca0eaf2287a37,2021-04-04_21h12.14.090,Colour_Similarity_Experiment,2020.2.10,MacIntel,60,60675255c767bca6388caeee,16.7670068,16.66666841,16.7101174,16.66438585,16.66603416,16.66666841,,,,,,,,,,,,,,,,,,,,PF,3,strong,,,,,,,,6,1.118415,,,,,,,,,,,,,,,,,,,,,,,,,,,,7,strong,66.69921875,37.9296875,1,0,0,response1disk,1,163,7.60546875,-0.54296875,1,0,0,rectangle,7.60546875,-0.54296875,1,0,0,6,6,0.001375,7.60546875,-0.54296875,1,0,0,0,0,0,132,1,0,,,,,,,,,,,,,,,,,,,,,
,,,,,,,,,,,,,,,,,,,,,,,,,,,,,,,,,,,,,,,,,,5fde2f7e43c57856e4e4a919,606a0f487d2ca0eaf2287a37,2021-04-04_21h12.14.090,Colour_Similarity_Experiment,2020.2.10,MacIntel,60,60675255c767bca6388caeee,16.7670068,16.66666841,16.7101174,16.66438585,16.66603416,16.66666841,,,,,,,,,,,,,,,,,,,,PF,3,weak,,,,,,,,6,1.21646,,,,,,,,,,,,,,,,,,,,,,,,,,,,8,weak,84.22265625,26.1796875,1,0,0,response1disk,6,164,0.2578125,2.7734375,1,0,0,rectangle,75.66796875,-42.0625,1,0,0,5,5,3.101665,12.06640625,-4.51171875,1,0,0,0,1,1,161,1,1,response3disk_3,rectangle,,,,,,,,,,,,,,,,,,,
,,,,,,,,,,,,,,,,,,,,,,,,,,,,,,,,,,,,,,,,,,5fde2f7e43c57856e4e4a919,606a0f487d2ca0eaf2287a37,2021-04-04_21h12.14.090,Colour_Similarity_Experiment,2020.2.10,MacIntel,60,60675255c767bca6388caeee,16.7670068,16.66666841,16.7101174,16.66438585,16.66603416,16.66666841,,,,,,,,,,,,,,,,,,,,PF,3,strong,,,,,,,,3,1.48392,,,,,,,,,,,,,,,,,,,,,,,,,,,,5,strong,-51.90625,-71.59375,1,0,0,response5disk,8,165,-5.55078125,5.3359375,1,0,0,rectangle,-5.55078125,5.3359375,1,0,0,5,4,0.00129,-5.55078125,5.3359375,1,0,0,0,2,2,16,1,0,,,,,,,,,,,,,,,,,,,,,
,,,,,,,,,,,,,,,,,,,,,,,,,,,,,,,,,,,,,,,,,,5fde2f7e43c57856e4e4a919,606a0f487d2ca0eaf2287a37,2021-04-04_21h12.14.090,Colour_Similarity_Experiment,2020.2.10,MacIntel,60,60675255c767bca6388caeee,16.7670068,16.66666841,16.7101174,16.66438585,16.66603416,16.66666841,,,,,,,,,,,,,,,,,,,,PF,3,weak,,,,,,,,6,1.23467,,,,,,,,,,,,,,,,,,,,,,,,,,,,9,weak,48.2109375,22,1,0,0,response1disk,3,166,5.0078125,4.1953125,1,0,0,rectangle,5.0078125,4.1953125,1,0,0,5,7,0.00133,5.0078125,4.1953125,1,0,0,0,3,3,119,1,0,,,,,,,,,,,,,,,,,,,,,
,,,,,,,,,,,,,,,,,,,,,,,,,,,,,,,,,,,,,,,,,,5fde2f7e43c57856e4e4a919,606a0f487d2ca0eaf2287a37,2021-04-04_21h12.14.090,Colour_Similarity_Experiment,2020.2.10,MacIntel,60,60675255c767bca6388caeee,16.7670068,16.66666841,16.7101174,16.66438585,16.66603416,16.66666841,,,,,,,,,,,,,,,,,,,,PF,3,weak,,,,,,,,2,1.23525,,,,,,,,,,,,,,,,,,,,,,,,,,,,6,weak,-73.72265625,-36.875,1,0,0,response5disk,7,167,-3.28125,-3.5390625,1,0,0,rectangle,-3.28125,-3.5390625,1,0,0,5,0,0.000835,-3.28125,-3.5390625,1,0,0,0,4,4,50,1,0,,,,,,,,,,,,,,,,,,,,,
,,,,,,,,,,,,,,,,,,,,,,,,,,,,,,,,,,,,,,,,,,5fde2f7e43c57856e4e4a919,606a0f487d2ca0eaf2287a37,2021-04-04_21h12.14.090,Colour_Similarity_Experiment,2020.2.10,MacIntel,60,60675255c767bca6388caeee,16.7670068,16.66666841,16.7101174,16.66438585,16.66603416,16.66666841,,,,,,,,,,,,,,,,,,,,PF,3,weak,,,,,,,,5,1.084625,,,,,,,,,,,,,,,,,,,,,,,,,,,,2,weak,74.25390625,-45.625,1,0,0,response3disk,4,168,-3.17578125,-8.3203125,1,0,0,rectangle,-3.17578125,-8.3203125,1,0,0,5,3,0.00158,-3.17578125,-8.3203125,1,0,0,0,5,5,127,1,0,,,,,,,,,,,,,,,,,,,,,
,,,,,,,,,,,,,,,,,,,,,,,,,,,,,,,,,,,,,,,,,,5fde2f7e43c57856e4e4a919,606a0f487d2ca0eaf2287a37,2021-04-04_21h12.14.090,Colour_Similarity_Experiment,2020.2.10,MacIntel,60,60675255c767bca6388caeee,16.7670068,16.66666841,16.7101174,16.66438585,16.66603416,16.66666841,,,,,,,,,,,,,,,,,,,,PF,3,strong,,,,,,,,5,1.201915,,,,,,,,,,,,,,,,,,,,,,,,,,,,1,strong,70.1953125,-44.2421875,1,0,0,response3disk,2,169,20.52734375,-4.6015625,1,0,0,rectangle,20.52734375,-4.6015625,1,0,0,5,1,0.001455,20.52734375,-4.6015625,1,0,0,0,6,6,2,1,0,,,,,,,,,,,,,,,,,,,,,
,,,,,,,,,,,,,,,,,,,,,,,,,,,,,,,,,,,,,,,,,,5fde2f7e43c57856e4e4a919,606a0f487d2ca0eaf2287a37,2021-04-04_21h12.14.090,Colour_Similarity_Experiment,2020.2.10,MacIntel,60,60675255c767bca6388caeee,16.7670068,16.66666841,16.7101174,16.66438585,16.66603416,16.66666841,,,,,,,,,,,,,,,,,,,,PF,3,strong,,,,,,,,6,1.26729,,,,,,,,,,,,,,,,,,,,,,,,,,,,8,strong,91.078125,33.34765625,1,0,0,response1disk,5,170,8.26953125,10.69140625,1,0,0,rectangle,8.26953125,10.69140625,1,0,0,5,7,0.00142,8.26953125,10.69140625,1,0,0,0,7,7,152,1,0,,,,,,,,,,,,,,,,,,,,,
