key_resp.keys,key_resp.rt,key_resp_16.keys,key_resp_16.rt,key_resp_2.keys,key_resp_2.rt,X Scale,ratio_pxpermm,screen_size_x,screen_size_y,testsize,key_resp_3.keys,key_resp_4.keys,key_resp_4.rt,line_size,key_resp_5.keys,key_resp_5.rt,key_resp_6.keys,key_resp_6.rt,key_resp_8.keys,key_resp_8.rt,key_resp_7.keys,key_resp_7.rt,key_resp_12.keys,key_resp_12.rt,key_resp_11.keys,key_resp_11.rt,key_resp_18.keys,key_resp_18.rt,key_resp_21.keys,key_resp_21.rt,key_resp_13.keys,key_resp_13.rt,key_resp_19.keys,key_resp_19.rt,ballposx,viewer_distance,trials.thisRepN,trials.thisTrialN,trials.thisN,trials.thisIndex,trials.ran,participant,session,date,expName,psychopyVersion,OS,frameRate,study_id,realFrameRate1,realFrameRate2,realFrameRate3,realFrameRate4,realFrameRate5,realFrameRate,viewerdistancecm,DVA_to_distance,radius_F,radius_P,r_F,R_P,key_resp_20.keys,key_resp_20.rt,key_resp_14.keys,key_resp_14.rt,key_resp_15.keys,key_resp_15.rt,key_resp_17.keys,key_resp_17.rt,key_resp_9.keys,key_resp_9.rt,key_resp_10.keys,key_resp_10.rt,Colour_1,Ecc,mask_frames,maskCon,mouse_5.x,mouse_5.y,mouse_5.leftButton,mouse_5.midButton,mouse_5.rightButton,mouse_5.clicked_name,Colour_2,similarity,response_time,mouse_10.x,mouse_10.y,mouse_10.leftButton,mouse_10.midButton,mouse_10.rightButton,mouse_10.clicked_name,mouse_7.x,mouse_7.y,mouse_7.leftButton,mouse_7.midButton,mouse_7.rightButton,catchnumberprac,mouse_6.x,mouse_6.y,mouse_6.leftButton,mouse_6.midButton,mouse_6.rightButton,duringprac.thisRepN,duringprac.thisTrialN,duringprac.thisN,duringprac.thisIndex,duringprac.ran,mouse_7.clicked_name,catchprac,mouse_6.clicked_name,key_resp_22.keys,key_resp_22.rt,Colour1,maskCon1,mouse.x,mouse.y,mouse.leftButton,mouse.midButton,mouse.rightButton,mouse.clicked_name,Colour2,trialnumber,mouse_2.x,mouse_2.y,mouse_2.leftButton,mouse_2.midButton,mouse_2.rightButton,mouse_2.clicked_name,mouse_3.x,mouse_3.y,mouse_3.leftButton,mouse_3.midButton,mouse_3.rightButton,catchresponse,catchnumber,response_time_catch,mouse_11.x,mouse_11.y,mouse_11.leftButton,mouse_11.midButton,mouse_11.rightButton,trials_2.thisRepN,trials_2.thisTrialN,trials_2.thisN,trials_2.thisIndex,trials_2.ran,Catch,mouse_3.clicked_name,mouse_11.clicked_name,trials_3.thisRepN,trials_3.thisTrialN,trials_3.thisN,trials_3.thisIndex,trials_3.ran,answer1,rt1,answer2,rt2,answer3,rt3,answer4,rt4,answer5,rt5,answer6,rt6,answer7,rt7
space,2.599255,space,7.864965,space,10.859825,32.4,3.24,592.5925926,333.3333333,1920,,space,6.740755,64.8,space,18.242815,space,3.545895,space,8.52338,space,8.907105,space,11.683625,space,15.975705,space,11.22915,space,5.219295,space,13.527865,return,2.98996,-705.6,1894.440747,0,0,0,0,1,5fe100d9ece28c2fa6e9a5a1,606a130817d5d51493dda7de,2021-04-04_20h27.21.043,Colour_Similarity_Experiment,2020.2.10,Win32,60,60675255c767bca6388caeee,6.173654618,6.067036182,6.062795572,6.08311939,6.062575576,6.067036182,,,,,,,,,,,,,,,,,,,,,,,,,,,,,,,,,,,,,,,,,,,,,,,,,,,,,,,,,,,,,,,,,,,,,,,,,,,,,,,,,,,,,,,,,,,,,,,,,,,,,,,,,,,,,,,,,,
,,,,,,,,,,,,,,,,,,,,,,,,,,,,,,,,,return,3.54991,-970.56,2235.069832,1,0,1,0,1,5fe100d9ece28c2fa6e9a5a1,606a130817d5d51493dda7de,2021-04-04_20h27.21.043,Colour_Similarity_Experiment,2020.2.10,Win32,60,60675255c767bca6388caeee,6.173654618,6.067036182,6.062795572,6.08311939,6.062575576,6.067036182,,,,,,,,,,,,,,,,,,,,,,,,,,,,,,,,,,,,,,,,,,,,,,,,,,,,,,,,,,,,,,,,,,,,,,,,,,,,,,,,,,,,,,,,,,,,,,,,,,,,,,,,,,,,,,,,,,
,,,,,,,,,,,,,,,,,,,,,,,,,,,,,,,,,return,3.42576,-910.08,2157.317541,2,0,2,0,1,5fe100d9ece28c2fa6e9a5a1,606a130817d5d51493dda7de,2021-04-04_20h27.21.043,Colour_Similarity_Experiment,2020.2.10,Win32,60,60675255c767bca6388caeee,6.173654618,6.067036182,6.062795572,6.08311939,6.062575576,6.067036182,,,,,,,,,,,,,,,,,,,,,,,,,,,,,,,,,,,,,,,,,,,,,,,,,,,,,,,,,,,,,,,,,,,,,,,,,,,,,,,,,,,,,,,,,,,,,,,,,,,,,,,,,,,,,,,,,,
,,,,,,,,,,,,,,,,,,,,,,,,,,,,,,,,,return,3.32619,-864,2098.0777,3,0,3,0,1,5fe100d9ece28c2fa6e9a5a1,606a130817d5d51493dda7de,2021-04-04_20h27.21.043,Colour_Similarity_Experiment,2020.2.10,Win32,60,60675255c767bca6388caeee,6.173654618,6.067036182,6.062795572,6.08311939,6.062575576,6.067036182,,,,,,,,,,,,,,,,,,,,,,,,,,,,,,,,,,,,,,,,,,,,,,,,,,,,,,,,,,,,,,,,,,,,,,,,,,,,,,,,,,,,,,,,,,,,,,,,,,,,,,,,,,,,,,,,,,
,,,,,,,,,,,,,,,,,,,,,,,,,,,,,,,,,return,2.85979,-642.24,1812.985965,4,0,4,0,1,5fe100d9ece28c2fa6e9a5a1,606a130817d5d51493dda7de,2021-04-04_20h27.21.043,Colour_Similarity_Experiment,2020.2.10,Win32,60,60675255c767bca6388caeee,6.173654618,6.067036182,6.062795572,6.08311939,6.062575576,6.067036182,,,,,,,,,,,,,,,,,,,,,,,,,,,,,,,,,,,,,,,,,,,,,,,,,,,,,,,,,,,,,,,,,,,,,,,,,,,,,,,,,,,,,,,,,,,,,,,,,,,,,,,,,,,,,,,,,,
,,,,,,,,,,,,,,,,,,,,,,,,,,,,,,,,,,,,,,,,,,5fe100d9ece28c2fa6e9a5a1,606a130817d5d51493dda7de,2021-04-04_20h27.21.043,Colour_Similarity_Experiment,2020.2.10,Win32,60,60675255c767bca6388caeee,6.173654618,6.067036182,6.062795572,6.08311939,6.062575576,6.067036182,210,36.65562324,178.1463289,1187.642193,118.7642193,534.4389868,space,12.95562,space,12.63802,space,26.344695,space,9.98819,space,3.95825,space,5.513915,7,PF,8,weak,56,-135,1,0,0,response3disk_5,9,4,7.29077,-4,-12,1,0,0,rectangle_8,-4,-12,1,0,0,1,-4,-12,1,0,0,0,0,0,4,1,,,,,,,,,,,,,,,,,,,,,,,,,,,,,,,,,,,,,,,,,,,,,,,,,,,,,,,,,,,,,
,,,,,,,,,,,,,,,,,,,,,,,,,,,,,,,,,,,,,,,,,,5fe100d9ece28c2fa6e9a5a1,606a130817d5d51493dda7de,2021-04-04_20h27.21.043,Colour_Similarity_Experiment,2020.2.10,Win32,60,60675255c767bca6388caeee,6.173654618,6.067036182,6.062795572,6.08311939,6.062575576,6.067036182,,,,,,,,,,,,,,,,,,,6,PF,8,weak,-29,-97,1,0,0,response5disk_5,9,3,3.53933,24,-2,1,0,0,rectangle_8,24,-2,1,0,0,1,24,-2,1,0,0,0,1,1,1,1,,,,,,,,,,,,,,,,,,,,,,,,,,,,,,,,,,,,,,,,,,,,,,,,,,,,,,,,,,,,,
,,,,,,,,,,,,,,,,,,,,,,,,,,,,,,,,,,,,,,,,,,5fe100d9ece28c2fa6e9a5a1,606a130817d5d51493dda7de,2021-04-04_20h27.21.043,Colour_Similarity_Experiment,2020.2.10,Win32,60,60675255c767bca6388caeee,6.173654618,6.067036182,6.062795572,6.08311939,6.062575576,6.067036182,,,,,,,,,,,,,,,,,,,6,PF,8,strong,76,-113,1,0,0,response3disk_5,6,4,1.979705,-7,0,1,0,0,rectangle_8,-80,43,1,0,0,1,19,-17,1,0,0,0,2,2,2,1,response7disk_7,1,rectangle_4,,,,,,,,,,,,,,,,,,,,,,,,,,,,,,,,,,,,,,,,,,,,,,,,,,,,,,,,,,
,,,,,,,,,,,,,,,,,,,,,,,,,,,,,,,,,,,,,,,,,,5fe100d9ece28c2fa6e9a5a1,606a130817d5d51493dda7de,2021-04-04_20h27.21.043,Colour_Similarity_Experiment,2020.2.10,Win32,60,60675255c767bca6388caeee,6.173654618,6.067036182,6.062795572,6.08311939,6.062575576,6.067036182,,,,,,,,,,,,,,,,,,,6,PF,8,strong,107,-89,1,0,0,response3disk_5,6,5,4.87873,7,-10,1,0,0,rectangle_8,7,-10,1,0,0,1,7,-10,1,0,0,0,3,3,3,1,,,,,,,,,,,,,,,,,,,,,,,,,,,,,,,,,,,,,,,,,,,,,,,,,,,,,,,,,,,,,
,,,,,,,,,,,,,,,,,,,,,,,,,,,,,,,,,,,,,,,,,,5fe100d9ece28c2fa6e9a5a1,606a130817d5d51493dda7de,2021-04-04_20h27.21.043,Colour_Similarity_Experiment,2020.2.10,Win32,60,60675255c767bca6388caeee,6.173654618,6.067036182,6.062795572,6.08311939,6.062575576,6.067036182,,,,,,,,,,,,,,,,,,,2,PF,8,weak,124,26,1,0,0,response1disk_5,9,6,3.559765,23,-14,1,0,0,rectangle_8,23,-14,1,0,0,1,23,-14,1,0,0,0,4,4,5,1,,,,,,,,,,,,,,,,,,,,,,,,,,,,,,,,,,,,,,,,,,,,,,,,,,,,,,,,,,,,,
,,,,,,,,,,,,,,,,,,,,,,,,,,,,,,,,,,,,,,,,,,5fe100d9ece28c2fa6e9a5a1,606a130817d5d51493dda7de,2021-04-04_20h27.21.043,Colour_Similarity_Experiment,2020.2.10,Win32,60,60675255c767bca6388caeee,6.173654618,6.067036182,6.062795572,6.08311939,6.062575576,6.067036182,,,,,,,,,,,,,,,,,,,5,PF,8,strong,-28,-62,1,0,0,response5disk_5,3,3,2.349435,-4,0,1,0,0,rectangle_8,-75,45,1,0,0,1,4,4,1,0,0,0,5,5,0,1,response7disk_7,1,rectangle_4,,,,,,,,,,,,,,,,,,,,,,,,,,,,,,,,,,,,,,,,,,,,,,,,,,,,,,,,,,
,,,,,,,,,,,,,,,,,,,,,,,,,,,,,,,,,,,,,,,,,,5fe100d9ece28c2fa6e9a5a1,606a130817d5d51493dda7de,2021-04-04_20h27.21.043,Colour_Similarity_Experiment,2020.2.10,Win32,60,60675255c767bca6388caeee,6.173654618,6.067036182,6.062795572,6.08311939,6.062575576,6.067036182,,,,,,,,,,,,,,,,,,,4,PF,8,weak,-70,-46,1,0,0,response5disk_5,9,2,2.563655,10,-17,1,0,0,rectangle_8,10,-17,1,0,0,1,10,-17,1,0,0,0,6,6,6,1,,,,,,,,,,,,,,,,,,,,,,,,,,,,,,,,,,,,,,,,,,,,,,,,,,,,,,,,,,,,,
,,,,,,,,,,,,,,,,,,,,,,,,,,,,,,,,,,,,,,,,,,5fe100d9ece28c2fa6e9a5a1,606a130817d5d51493dda7de,2021-04-04_20h27.21.043,Colour_Similarity_Experiment,2020.2.10,Win32,60,60675255c767bca6388caeee,6.173654618,6.067036182,6.062795572,6.08311939,6.062575576,6.067036182,,,,,,,,,,,,,,,,,,,,PF,8,strong,,,,,,,,5,1.852265,,,,,,,,,,,,,,,,,,,,,,,,,,space,4.18445,3,strong,90,-53,1,0,0,response3disk,7,1,12,-15,1,0,0,rectangle,12,-15,1,0,0,,5,0.001205,12,-15,1,0,0,0,0,0,118,1,0,,,,,,,,,,,,,,,,,,,,,
,,,,,,,,,,,,,,,,,,,,,,,,,,,,,,,,,,,,,,,,,,5fe100d9ece28c2fa6e9a5a1,606a130817d5d51493dda7de,2021-04-04_20h27.21.043,Colour_Similarity_Experiment,2020.2.10,Win32,60,60675255c767bca6388caeee,6.173654618,6.067036182,6.062795572,6.08311939,6.062575576,6.067036182,,,,,,,,,,,,,,,,,,,,PF,8,weak,,,,,,,,4,6.428455,,,,,,,,,,,,,,,,,,,,,,,,,,,,6,weak,59,-131,1,0,0,response3disk,1,2,6,-11,1,0,0,rectangle,6,-11,1,0,0,,6,0.000715,6,-11,1,0,0,0,1,1,46,1,0,,,,,,,,,,,,,,,,,,,,,
,,,,,,,,,,,,,,,,,,,,,,,,,,,,,,,,,,,,,,,,,,5fe100d9ece28c2fa6e9a5a1,606a130817d5d51493dda7de,2021-04-04_20h27.21.043,Colour_Similarity_Experiment,2020.2.10,Win32,60,60675255c767bca6388caeee,6.173654618,6.067036182,6.062795572,6.08311939,6.062575576,6.067036182,,,,,,,,,,,,,,,,,,,,PF,8,strong,,,,,,,,3,3.93333,,,,,,,,,,,,,,,,,,,,,,,,,,,,3,strong,-56,-79,1,0,0,response5disk,3,3,16,7,1,0,0,rectangle,16,7,1,0,0,,0,0.000605,16,7,1,0,0,0,2,2,68,1,0,,,,,,,,,,,,,,,,,,,,,
,,,,,,,,,,,,,,,,,,,,,,,,,,,,,,,,,,,,,,,,,,5fe100d9ece28c2fa6e9a5a1,606a130817d5d51493dda7de,2021-04-04_20h27.21.043,Colour_Similarity_Experiment,2020.2.10,Win32,60,60675255c767bca6388caeee,6.173654618,6.067036182,6.062795572,6.08311939,6.062575576,6.067036182,,,,,,,,,,,,,,,,,,,,PF,8,weak,,,,,,,,2,1.40023,,,,,,,,,,,,,,,,,,,,,,,,,,,,9,weak,-97,-64,1,0,0,response5disk,3,4,-4,-17,1,0,0,rectangle,-4,-17,1,0,0,,5,0.00065,-4,-17,1,0,0,0,3,3,119,1,0,,,,,,,,,,,,,,,,,,,,,
,,,,,,,,,,,,,,,,,,,,,,,,,,,,,,,,,,,,,,,,,,5fe100d9ece28c2fa6e9a5a1,606a130817d5d51493dda7de,2021-04-04_20h27.21.043,Colour_Similarity_Experiment,2020.2.10,Win32,60,60675255c767bca6388caeee,6.173654618,6.067036182,6.062795572,6.08311939,6.062575576,6.067036182,,,,,,,,,,,,,,,,,,,,PF,8,weak,,,,,,,,3,1.866385,,,,,,,,,,,,,,,,,,,,,,,,,,,,3,weak,-35,-63,1,0,0,response5disk,4,5,-35,-10,1,0,0,rectangle,-35,-10,1,0,0,,2,0.0006,-35,-10,1,0,0,0,4,4,30,1,0,,,,,,,,,,,,,,,,,,,,,
,,,,,,,,,,,,,,,,,,,,,,,,,,,,,,,,,,,,,,,,,,5fe100d9ece28c2fa6e9a5a1,606a130817d5d51493dda7de,2021-04-04_20h27.21.043,Colour_Similarity_Experiment,2020.2.10,Win32,60,60675255c767bca6388caeee,6.173654618,6.067036182,6.062795572,6.08311939,6.062575576,6.067036182,,,,,,,,,,,,,,,,,,,,PF,8,weak,,,,,,,,3,2.678775,,,,,,,,,,,,,,,,,,,,,,,,,,,,3,weak,-38,-117,1,0,0,response5disk,9,6,9,-4,1,0,0,rectangle,9,-4,1,0,0,,4,0.000735,9,-4,1,0,0,0,5,5,79,1,0,,,,,,,,,,,,,,,,,,,,,
,,,,,,,,,,,,,,,,,,,,,,,,,,,,,,,,,,,,,,,,,,5fe100d9ece28c2fa6e9a5a1,606a130817d5d51493dda7de,2021-04-04_20h27.21.043,Colour_Similarity_Experiment,2020.2.10,Win32,60,60675255c767bca6388caeee,6.173654618,6.067036182,6.062795572,6.08311939,6.062575576,6.067036182,,,,,,,,,,,,,,,,,,,,PF,8,strong,,,,,,,,2,1.737315,,,,,,,,,,,,,,,,,,,,,,,,,,,,3,strong,-66,-58,1,0,0,response5disk,4,7,-5,-14,1,0,0,rectangle,-5,-14,1,0,0,,1,0.000685,-5,-14,1,0,0,0,6,6,110,1,0,,,,,,,,,,,,,,,,,,,,,
,,,,,,,,,,,,,,,,,,,,,,,,,,,,,,,,,,,,,,,,,,5fe100d9ece28c2fa6e9a5a1,606a130817d5d51493dda7de,2021-04-04_20h27.21.043,Colour_Similarity_Experiment,2020.2.10,Win32,60,60675255c767bca6388caeee,6.173654618,6.067036182,6.062795572,6.08311939,6.062575576,6.067036182,,,,,,,,,,,,,,,,,,,,PF,8,weak,,,,,,,,2,1.569405,,,,,,,,,,,,,,,,,,,,,,,,,,,,2,weak,-80,-40,1,0,0,response5disk,8,8,9,1,1,0,0,rectangle,9,1,1,0,0,,1,8.51E-05,9,1,1,0,0,0,7,7,52,1,0,,,,,,,,,,,,,,,,,,,,,
,,,,,,,,,,,,,,,,,,,,,,,,,,,,,,,,,,,,,,,,,,5fe100d9ece28c2fa6e9a5a1,606a130817d5d51493dda7de,2021-04-04_20h27.21.043,Colour_Similarity_Experiment,2020.2.10,Win32,60,60675255c767bca6388caeee,6.173654618,6.067036182,6.062795572,6.08311939,6.062575576,6.067036182,,,,,,,,,,,,,,,,,,,,PF,8,strong,,,,,,,,4,1.339045,,,,,,,,,,,,,,,,,,,,,,,,,,,,8,strong,69,-94,1,0,0,response3disk,3,9,24,-6,1,0,0,rectangle,24,-6,1,0,0,,5,0.0007,24,-6,1,0,0,0,8,8,154,1,0,,,,,,,,,,,,,,,,,,,,,
,,,,,,,,,,,,,,,,,,,,,,,,,,,,,,,,,,,,,,,,,,5fe100d9ece28c2fa6e9a5a1,606a130817d5d51493dda7de,2021-04-04_20h27.21.043,Colour_Similarity_Experiment,2020.2.10,Win32,60,60675255c767bca6388caeee,6.173654618,6.067036182,6.062795572,6.08311939,6.062575576,6.067036182,,,,,,,,,,,,,,,,,,,,PF,8,strong,,,,,,,,5,2.240255,,,,,,,,,,,,,,,,,,,,,,,,,,,,8,strong,93,-46,1,0,0,response3disk,1,10,1,-3,1,0,0,rectangle,1,-3,1,0,0,,4,0.000865,1,-3,1,0,0,0,9,9,20,1,0,,,,,,,,,,,,,,,,,,,,,
,,,,,,,,,,,,,,,,,,,,,,,,,,,,,,,,,,,,,,,,,,5fe100d9ece28c2fa6e9a5a1,606a130817d5d51493dda7de,2021-04-04_20h27.21.043,Colour_Similarity_Experiment,2020.2.10,Win32,60,60675255c767bca6388caeee,6.173654618,6.067036182,6.062795572,6.08311939,6.062575576,6.067036182,,,,,,,,,,,,,,,,,,,,PF,8,strong,,,,,,,,5,2.769845,,,,,,,,,,,,,,,,,,,,,,,,,,,,6,strong,117,-51,1,0,0,response3disk,6,11,14,-3,1,0,0,rectangle,14,-3,1,0,0,,6,0.00065,14,-3,1,0,0,0,10,10,91,1,0,,,,,,,,,,,,,,,,,,,,,
,,,,,,,,,,,,,,,,,,,,,,,,,,,,,,,,,,,,,,,,,,5fe100d9ece28c2fa6e9a5a1,606a130817d5d51493dda7de,2021-04-04_20h27.21.043,Colour_Similarity_Experiment,2020.2.10,Win32,60,60675255c767bca6388caeee,6.173654618,6.067036182,6.062795572,6.08311939,6.062575576,6.067036182,,,,,,,,,,,,,,,,,,,,PF,8,strong,,,,,,,,3,1.515305,,,,,,,,,,,,,,,,,,,,,,,,,,,,8,strong,-34,-91,1,0,0,response5disk,9,12,13,-7,1,0,0,rectangle,13,-7,1,0,0,,1,0.00062,13,-7,1,0,0,0,11,11,105,1,0,,,,,,,,,,,,,,,,,,,,,
,,,,,,,,,,,,,,,,,,,,,,,,,,,,,,,,,,,,,,,,,,5fe100d9ece28c2fa6e9a5a1,606a130817d5d51493dda7de,2021-04-04_20h27.21.043,Colour_Similarity_Experiment,2020.2.10,Win32,60,60675255c767bca6388caeee,6.173654618,6.067036182,6.062795572,6.08311939,6.062575576,6.067036182,,,,,,,,,,,,,,,,,,,,PF,8,strong,,,,,,,,3,1.626005,,,,,,,,,,,,,,,,,,,,,,,,,,,,2,strong,-36,-87,1,0,0,response5disk,8,13,12,-10,1,0,0,rectangle,12,-10,1,0,0,,0,0.00082,12,-10,1,0,0,0,12,12,62,1,0,,,,,,,,,,,,,,,,,,,,,
,,,,,,,,,,,,,,,,,,,,,,,,,,,,,,,,,,,,,,,,,,5fe100d9ece28c2fa6e9a5a1,606a130817d5d51493dda7de,2021-04-04_20h27.21.043,Colour_Similarity_Experiment,2020.2.10,Win32,60,60675255c767bca6388caeee,6.173654618,6.067036182,6.062795572,6.08311939,6.062575576,6.067036182,,,,,,,,,,,,,,,,,,,,PF,8,weak,,,,,,,,5,2.573525,,,,,,,,,,,,,,,,,,,,,,,,,,,,2,weak,106,-54,1,0,0,response3disk,1,14,20,-1,1,0,0,rectangle,20,-1,1,0,0,,2,0.00066,20,-1,1,0,0,0,13,13,9,1,0,,,,,,,,,,,,,,,,,,,,,
,,,,,,,,,,,,,,,,,,,,,,,,,,,,,,,,,,,,,,,,,,5fe100d9ece28c2fa6e9a5a1,606a130817d5d51493dda7de,2021-04-04_20h27.21.043,Colour_Similarity_Experiment,2020.2.10,Win32,60,60675255c767bca6388caeee,6.173654618,6.067036182,6.062795572,6.08311939,6.062575576,6.067036182,,,,,,,,,,,,,,,,,,,,PF,8,weak,,,,,,,,3,1.072755,,,,,,,,,,,,,,,,,,,,,,,,,,,,9,weak,-33,-116,1,0,0,response5disk,4,15,6,-12,1,0,0,rectangle,6,-12,1,0,0,,2,6.5E-05,6,-12,1,0,0,0,14,14,114,1,0,,,,,,,,,,,,,,,,,,,,,
,,,,,,,,,,,,,,,,,,,,,,,,,,,,,,,,,,,,,,,,,,5fe100d9ece28c2fa6e9a5a1,606a130817d5d51493dda7de,2021-04-04_20h27.21.043,Colour_Similarity_Experiment,2020.2.10,Win32,60,60675255c767bca6388caeee,6.173654618,6.067036182,6.062795572,6.08311939,6.062575576,6.067036182,,,,,,,,,,,,,,,,,,,,PF,8,weak,,,,,,,,3,2.036205,,,,,,,,,,,,,,,,,,,,,,,,,,,,3,weak,-42,-89,1,0,0,response5disk,8,16,13,-17,1,0,0,rectangle,13,-17,1,0,0,,0,0.000595,13,-17,1,0,0,0,15,15,3,1,0,,,,,,,,,,,,,,,,,,,,,
,,,,,,,,,,,,,,,,,,,,,,,,,,,,,,,,,,,,,,,,,,5fe100d9ece28c2fa6e9a5a1,606a130817d5d51493dda7de,2021-04-04_20h27.21.043,Colour_Similarity_Experiment,2020.2.10,Win32,60,60675255c767bca6388caeee,6.173654618,6.067036182,6.062795572,6.08311939,6.062575576,6.067036182,,,,,,,,,,,,,,,,,,,,PF,8,weak,,,,,,,,2,1.642465,,,,,,,,,,,,,,,,,,,,,,,,,,,,7,weak,-77,-49,1,0,0,response5disk,7,17,8,10,1,0,0,rectangle,8,10,1,0,0,,2,0.00085,8,10,1,0,0,0,16,16,51,1,0,,,,,,,,,,,,,,,,,,,,,
,,,,,,,,,,,,,,,,,,,,,,,,,,,,,,,,,,,,,,,,,,5fe100d9ece28c2fa6e9a5a1,606a130817d5d51493dda7de,2021-04-04_20h27.21.043,Colour_Similarity_Experiment,2020.2.10,Win32,60,60675255c767bca6388caeee,6.173654618,6.067036182,6.062795572,6.08311939,6.062575576,6.067036182,,,,,,,,,,,,,,,,,,,,PF,8,weak,,,,,,,,5,1.90097,,,,,,,,,,,,,,,,,,,,,,,,,,,,3,weak,103,-50,1,0,0,response3disk,6,18,5,-5,1,0,0,rectangle,5,-5,1,0,0,,7,0.00067,5,-5,1,0,0,0,17,17,47,1,0,,,,,,,,,,,,,,,,,,,,,
,,,,,,,,,,,,,,,,,,,,,,,,,,,,,,,,,,,,,,,,,,5fe100d9ece28c2fa6e9a5a1,606a130817d5d51493dda7de,2021-04-04_20h27.21.043,Colour_Similarity_Experiment,2020.2.10,Win32,60,60675255c767bca6388caeee,6.173654618,6.067036182,6.062795572,6.08311939,6.062575576,6.067036182,,,,,,,,,,,,,,,,,,,,PF,8,strong,,,,,,,,5,3.403675,,,,,,,,,,,,,,,,,,,,,,,,,,,,6,strong,99,-80,1,0,0,response3disk,2,19,-7,-15,1,0,0,rectangle,-7,-15,1,0,0,,2,0.000565,-7,-15,1,0,0,0,18,18,112,1,0,,,,,,,,,,,,,,,,,,,,,
,,,,,,,,,,,,,,,,,,,,,,,,,,,,,,,,,,,,,,,,,,5fe100d9ece28c2fa6e9a5a1,606a130817d5d51493dda7de,2021-04-04_20h27.21.043,Colour_Similarity_Experiment,2020.2.10,Win32,60,60675255c767bca6388caeee,6.173654618,6.067036182,6.062795572,6.08311939,6.062575576,6.067036182,,,,,,,,,,,,,,,,,,,,PF,8,weak,,,,,,,,2,1.678535,,,,,,,,,,,,,,,,,,,,,,,,,,,,5,weak,-117,-70,1,0,0,response5disk,7,20,7,-16,1,0,0,rectangle,7,-16,1,0,0,,7,0.00084,7,-16,1,0,0,0,19,19,146,1,0,,,,,,,,,,,,,,,,,,,,,
,,,,,,,,,,,,,,,,,,,,,,,,,,,,,,,,,,,,,,,,,,5fe100d9ece28c2fa6e9a5a1,606a130817d5d51493dda7de,2021-04-04_20h27.21.043,Colour_Similarity_Experiment,2020.2.10,Win32,60,60675255c767bca6388caeee,6.173654618,6.067036182,6.062795572,6.08311939,6.062575576,6.067036182,,,,,,,,,,,,,,,,,,,,PF,8,weak,,,,,,,,4,1.867345,,,,,,,,,,,,,,,,,,,,,,,,,,,,7,weak,48,-100,1,0,0,response3disk,4,21,16,-19,1,0,0,rectangle,16,-19,1,0,0,,7,7.5E-05,16,-19,1,0,0,0,20,20,43,1,0,,,,,,,,,,,,,,,,,,,,,
,,,,,,,,,,,,,,,,,,,,,,,,,,,,,,,,,,,,,,,,,,5fe100d9ece28c2fa6e9a5a1,606a130817d5d51493dda7de,2021-04-04_20h27.21.043,Colour_Similarity_Experiment,2020.2.10,Win32,60,60675255c767bca6388caeee,6.173654618,6.067036182,6.062795572,6.08311939,6.062575576,6.067036182,,,,,,,,,,,,,,,,,,,,PF,8,weak,,,,,,,,2,1.210025,,,,,,,,,,,,,,,,,,,,,,,,,,,,5,weak,-65,-61,1,0,0,response5disk,2,22,7,-12,1,0,0,rectangle,7,-12,1,0,0,,4,0.000765,7,-12,1,0,0,0,21,21,129,1,0,,,,,,,,,,,,,,,,,,,,,
,,,,,,,,,,,,,,,,,,,,,,,,,,,,,,,,,,,,,,,,,,5fe100d9ece28c2fa6e9a5a1,606a130817d5d51493dda7de,2021-04-04_20h27.21.043,Colour_Similarity_Experiment,2020.2.10,Win32,60,60675255c767bca6388caeee,6.173654618,6.067036182,6.062795572,6.08311939,6.062575576,6.067036182,,,,,,,,,,,,,,,,,,,,PF,8,weak,,,,,,,,5,1.591665,,,,,,,,,,,,,,,,,,,,,,,,,,,,8,weak,102,-56,1,0,0,response3disk,6,23,0,-1,1,0,0,rectangle,-78,-49,1,0,0,,2,1.50949,-5,-1,1,0,0,0,22,22,161,1,1,response5disk_3,rectangle,,,,,,,,,,,,,,,,,,,
,,,,,,,,,,,,,,,,,,,,,,,,,,,,,,,,,,,,,,,,,,5fe100d9ece28c2fa6e9a5a1,606a130817d5d51493dda7de,2021-04-04_20h27.21.043,Colour_Similarity_Experiment,2020.2.10,Win32,60,60675255c767bca6388caeee,6.173654618,6.067036182,6.062795572,6.08311939,6.062575576,6.067036182,,,,,,,,,,,,,,,,,,,,PF,8,strong,,,,,,,,2,1.07272,,,,,,,,,,,,,,,,,,,,,,,,,,,,7,strong,-67,-50,1,0,0,response5disk,7,24,15,1,1,0,0,rectangle,15,1,1,0,0,,6,0.00065,15,1,1,0,0,0,23,23,34,1,0,,,,,,,,,,,,,,,,,,,,,
,,,,,,,,,,,,,,,,,,,,,,,,,,,,,,,,,,,,,,,,,,5fe100d9ece28c2fa6e9a5a1,606a130817d5d51493dda7de,2021-04-04_20h27.21.043,Colour_Similarity_Experiment,2020.2.10,Win32,60,60675255c767bca6388caeee,6.173654618,6.067036182,6.062795572,6.08311939,6.062575576,6.067036182,,,,,,,,,,,,,,,,,,,,PF,8,weak,,,,,,,,5,2.83444,,,,,,,,,,,,,,,,,,,,,,,,,,,,7,weak,87,-57,1,0,0,response3disk,2,25,-7,-16,1,0,0,rectangle,-7,-16,1,0,0,,2,0.00058,-7,-16,1,0,0,0,24,24,32,1,0,,,,,,,,,,,,,,,,,,,,,
,,,,,,,,,,,,,,,,,,,,,,,,,,,,,,,,,,,,,,,,,,5fe100d9ece28c2fa6e9a5a1,606a130817d5d51493dda7de,2021-04-04_20h27.21.043,Colour_Similarity_Experiment,2020.2.10,Win32,60,60675255c767bca6388caeee,6.173654618,6.067036182,6.062795572,6.08311939,6.062575576,6.067036182,,,,,,,,,,,,,,,,,,,,PF,8,weak,,,,,,,,2,0.99823,,,,,,,,,,,,,,,,,,,,,,,,,,,,5,weak,-89,-55,1,0,0,response5disk,9,26,31,-18,1,0,0,rectangle,-86,-43,1,0,0,,2,1.181675,-1,-8,1,0,0,0,25,25,136,1,1,response5disk_3,rectangle,,,,,,,,,,,,,,,,,,,
,,,,,,,,,,,,,,,,,,,,,,,,,,,,,,,,,,,,,,,,,,5fe100d9ece28c2fa6e9a5a1,606a130817d5d51493dda7de,2021-04-04_20h27.21.043,Colour_Similarity_Experiment,2020.2.10,Win32,60,60675255c767bca6388caeee,6.173654618,6.067036182,6.062795572,6.08311939,6.062575576,6.067036182,,,,,,,,,,,,,,,,,,,,PF,8,weak,,,,,,,,2,3.51911,,,,,,,,,,,,,,,,,,,,,,,,,,,,4,weak,-62,-38,1,0,0,response5disk,4,27,17,-14,1,0,0,rectangle,17,-14,1,0,0,,7,0.000795,17,-14,1,0,0,0,26,26,70,1,0,,,,,,,,,,,,,,,,,,,,,
,,,,,,,,,,,,,,,,,,,,,,,,,,,,,,,,,,,,,,,,,,5fe100d9ece28c2fa6e9a5a1,606a130817d5d51493dda7de,2021-04-04_20h27.21.043,Colour_Similarity_Experiment,2020.2.10,Win32,60,60675255c767bca6388caeee,6.173654618,6.067036182,6.062795572,6.08311939,6.062575576,6.067036182,,,,,,,,,,,,,,,,,,,,PF,8,weak,,,,,,,,2,1.010045,,,,,,,,,,,,,,,,,,,,,,,,,,,,2,weak,-88,-55,1,0,0,response5disk,6,28,13,-10,1,0,0,rectangle,13,-10,1,0,0,,6,0.00073,13,-10,1,0,0,0,27,27,113,1,0,,,,,,,,,,,,,,,,,,,,,
,,,,,,,,,,,,,,,,,,,,,,,,,,,,,,,,,,,,,,,,,,5fe100d9ece28c2fa6e9a5a1,606a130817d5d51493dda7de,2021-04-04_20h27.21.043,Colour_Similarity_Experiment,2020.2.10,Win32,60,60675255c767bca6388caeee,6.173654618,6.067036182,6.062795572,6.08311939,6.062575576,6.067036182,,,,,,,,,,,,,,,,,,,,PF,8,weak,,,,,,,,4,1.45362,,,,,,,,,,,,,,,,,,,,,,,,,,,,5,weak,71,-104,1,0,0,response3disk,3,29,3,-11,1,0,0,rectangle,3,-11,1,0,0,,0,0.000755,3,-11,1,0,0,0,28,28,109,1,0,,,,,,,,,,,,,,,,,,,,,
,,,,,,,,,,,,,,,,,,,,,,,,,,,,,,,,,,,,,,,,,,5fe100d9ece28c2fa6e9a5a1,606a130817d5d51493dda7de,2021-04-04_20h27.21.043,Colour_Similarity_Experiment,2020.2.10,Win32,60,60675255c767bca6388caeee,6.173654618,6.067036182,6.062795572,6.08311939,6.062575576,6.067036182,,,,,,,,,,,,,,,,,,,,PF,8,strong,,,,,,,,4,2.00003,,,,,,,,,,,,,,,,,,,,,,,,,,,,4,strong,58,-88,1,0,0,response3disk,8,30,14,-17,1,0,0,rectangle,14,-17,1,0,0,,7,0.000815,14,-17,1,0,0,0,29,29,35,1,0,,,,,,,,,,,,,,,,,,,,,
,,,,,,,,,,,,,,,,,,,,,,,,,,,,,,,,,,,,,,,,,,5fe100d9ece28c2fa6e9a5a1,606a130817d5d51493dda7de,2021-04-04_20h27.21.043,Colour_Similarity_Experiment,2020.2.10,Win32,60,60675255c767bca6388caeee,6.173654618,6.067036182,6.062795572,6.08311939,6.062575576,6.067036182,,,,,,,,,,,,,,,,,,,,PF,8,weak,,,,,,,,5,1.329295,,,,,,,,,,,,,,,,,,,,,,,,,,,,8,weak,81,-48,1,0,0,response3disk,1,31,-3,4,1,0,0,rectangle,-3,4,1,0,0,,0,0.001025,-3,4,1,0,0,0,30,30,57,1,0,,,,,,,,,,,,,,,,,,,,,
,,,,,,,,,,,,,,,,,,,,,,,,,,,,,,,,,,,,,,,,,,5fe100d9ece28c2fa6e9a5a1,606a130817d5d51493dda7de,2021-04-04_20h27.21.043,Colour_Similarity_Experiment,2020.2.10,Win32,60,60675255c767bca6388caeee,6.173654618,6.067036182,6.062795572,6.08311939,6.062575576,6.067036182,,,,,,,,,,,,,,,,,,,,PF,8,weak,,,,,,,,3,1.08268,,,,,,,,,,,,,,,,,,,,,,,,,,,,3,weak,-72,-99,1,0,0,response5disk,3,32,-6,-12,1,0,0,rectangle,-6,-12,1,0,0,,7,0.00061,-6,-12,1,0,0,0,31,31,4,1,0,,,,,,,,,,,,,,,,,,,,,
,,,,,,,,,,,,,,,,,,,,,,,,,,,,,,,,,,,,,,,,,,5fe100d9ece28c2fa6e9a5a1,606a130817d5d51493dda7de,2021-04-04_20h27.21.043,Colour_Similarity_Experiment,2020.2.10,Win32,60,60675255c767bca6388caeee,6.173654618,6.067036182,6.062795572,6.08311939,6.062575576,6.067036182,,,,,,,,,,,,,,,,,,,,PF,8,weak,,,,,,,,3,1.276735,,,,,,,,,,,,,,,,,,,,,,,,,,,,6,weak,-52,-108,1,0,0,response5disk,3,33,-8,13,1,0,0,rectangle,-8,13,1,0,0,,6,0.0006,-8,13,1,0,0,0,32,32,26,1,0,,,,,,,,,,,,,,,,,,,,,
,,,,,,,,,,,,,,,,,,,,,,,,,,,,,,,,,,,,,,,,,,5fe100d9ece28c2fa6e9a5a1,606a130817d5d51493dda7de,2021-04-04_20h27.21.043,Colour_Similarity_Experiment,2020.2.10,Win32,60,60675255c767bca6388caeee,6.173654618,6.067036182,6.062795572,6.08311939,6.062575576,6.067036182,,,,,,,,,,,,,,,,,,,,PF,8,weak,,,,,,,,5,2.131335,,,,,,,,,,,,,,,,,,,,,,,,,,,,6,weak,118,-79,1,0,0,response3disk,5,34,-5,-8,1,0,0,rectangle,-5,-8,1,0,0,,5,0.000665,-5,-8,1,0,0,0,33,33,59,1,0,,,,,,,,,,,,,,,,,,,,,
,,,,,,,,,,,,,,,,,,,,,,,,,,,,,,,,,,,,,,,,,,5fe100d9ece28c2fa6e9a5a1,606a130817d5d51493dda7de,2021-04-04_20h27.21.043,Colour_Similarity_Experiment,2020.2.10,Win32,60,60675255c767bca6388caeee,6.173654618,6.067036182,6.062795572,6.08311939,6.062575576,6.067036182,,,,,,,,,,,,,,,,,,,,PF,8,strong,,,,,,,,2,1.34506,,,,,,,,,,,,,,,,,,,,,,,,,,,,1,strong,-90,-71,1,0,0,response5disk,6,35,6,-3,1,0,0,rectangle,6,-3,1,0,0,,5,7.5E-05,6,-3,1,0,0,0,34,34,58,1,0,,,,,,,,,,,,,,,,,,,,,
,,,,,,,,,,,,,,,,,,,,,,,,,,,,,,,,,,,,,,,,,,5fe100d9ece28c2fa6e9a5a1,606a130817d5d51493dda7de,2021-04-04_20h27.21.043,Colour_Similarity_Experiment,2020.2.10,Win32,60,60675255c767bca6388caeee,6.173654618,6.067036182,6.062795572,6.08311939,6.062575576,6.067036182,,,,,,,,,,,,,,,,,,,,PF,8,weak,,,,,,,,3,1.77378,,,,,,,,,,,,,,,,,,,,,,,,,,,,5,weak,-48,-128,1,0,0,response5disk,4,36,-4,-11,1,0,0,rectangle,-4,-11,1,0,0,,3,0.000525,-4,-11,1,0,0,0,35,35,54,1,0,,,,,,,,,,,,,,,,,,,,,
,,,,,,,,,,,,,,,,,,,,,,,,,,,,,,,,,,,,,,,,,,5fe100d9ece28c2fa6e9a5a1,606a130817d5d51493dda7de,2021-04-04_20h27.21.043,Colour_Similarity_Experiment,2020.2.10,Win32,60,60675255c767bca6388caeee,6.173654618,6.067036182,6.062795572,6.08311939,6.062575576,6.067036182,,,,,,,,,,,,,,,,,,,,PF,8,strong,,,,,,,,3,1.640925,,,,,,,,,,,,,,,,,,,,,,,,,,,,2,strong,-60,-89,1,0,0,response5disk,3,37,1,-12,1,0,0,rectangle,-105,52,1,0,0,1,1,1.091535,10,-2,1,0,0,0,36,36,104,1,1,response7disk_3,rectangle,,,,,,,,,,,,,,,,,,,
,,,,,,,,,,,,,,,,,,,,,,,,,,,,,,,,,,,,,,,,,,5fe100d9ece28c2fa6e9a5a1,606a130817d5d51493dda7de,2021-04-04_20h27.21.043,Colour_Similarity_Experiment,2020.2.10,Win32,60,60675255c767bca6388caeee,6.173654618,6.067036182,6.062795572,6.08311939,6.062575576,6.067036182,,,,,,,,,,,,,,,,,,,,PF,8,strong,,,,,,,,3,2.43436,,,,,,,,,,,,,,,,,,,,,,,,,,,,1,strong,-71,-85,1,0,0,response5disk,9,38,6,-14,1,0,0,rectangle,6,-14,1,0,0,1,6,0.000645,6,-14,1,0,0,0,37,37,123,1,0,,,,,,,,,,,,,,,,,,,,,
,,,,,,,,,,,,,,,,,,,,,,,,,,,,,,,,,,,,,,,,,,5fe100d9ece28c2fa6e9a5a1,606a130817d5d51493dda7de,2021-04-04_20h27.21.043,Colour_Similarity_Experiment,2020.2.10,Win32,60,60675255c767bca6388caeee,6.173654618,6.067036182,6.062795572,6.08311939,6.062575576,6.067036182,,,,,,,,,,,,,,,,,,,,PF,8,strong,,,,,,,,3,1.3614,,,,,,,,,,,,,,,,,,,,,,,,,,,,7,strong,-46,-99,1,0,0,response5disk,1,39,16,-13,1,0,0,rectangle,16,-13,1,0,0,1,3,0.00075,16,-13,1,0,0,0,38,38,132,1,0,,,,,,,,,,,,,,,,,,,,,
,,,,,,,,,,,,,,,,,,,,,,,,,,,,,,,,,,,,,,,,,,5fe100d9ece28c2fa6e9a5a1,606a130817d5d51493dda7de,2021-04-04_20h27.21.043,Colour_Similarity_Experiment,2020.2.10,Win32,60,60675255c767bca6388caeee,6.173654618,6.067036182,6.062795572,6.08311939,6.062575576,6.067036182,,,,,,,,,,,,,,,,,,,,PF,8,strong,,,,,,,,4,1.290945,,,,,,,,,,,,,,,,,,,,,,,,,,,,8,strong,56,-91,1,0,0,response3disk,6,40,1,-19,1,0,0,rectangle,1,-19,1,0,0,1,0,0.000885,1,-19,1,0,0,0,39,39,37,1,0,,,,,,,,,,,,,,,,,,,,,
,,,,,,,,,,,,,,,,,,,,,,,,,,,,,,,,,,,,,,,,,,5fe100d9ece28c2fa6e9a5a1,606a130817d5d51493dda7de,2021-04-04_20h27.21.043,Colour_Similarity_Experiment,2020.2.10,Win32,60,60675255c767bca6388caeee,6.173654618,6.067036182,6.062795572,6.08311939,6.062575576,6.067036182,,,,,,,,,,,,,,,,,,,,PF,8,weak,,,,,,,,2,1.385735,,,,,,,,,,,,,,,,,,,,,,,,,,,,1,weak,-112,-72,1,0,0,response5disk,8,41,-6,-10,1,0,0,rectangle,-6,-10,1,0,0,1,2,0.000765,-6,-10,1,0,0,0,40,40,65,1,0,,,,,,,,,,,,,,,,,,,,,
,,,,,,,,,,,,,,,,,,,,,,,,,,,,,,,,,,,,,,,,,,5fe100d9ece28c2fa6e9a5a1,606a130817d5d51493dda7de,2021-04-04_20h27.21.043,Colour_Similarity_Experiment,2020.2.10,Win32,60,60675255c767bca6388caeee,6.173654618,6.067036182,6.062795572,6.08311939,6.062575576,6.067036182,,,,,,,,,,,,,,,,,,,,PF,8,strong,,,,,,,,2,0.93144,,,,,,,,,,,,,,,,,,,,,,,,,,,,3,strong,-106,-64,1,0,0,response5disk,9,42,-19,-5,1,0,0,rectangle,-19,-5,1,0,0,1,6,0.00072,-19,-5,1,0,0,0,41,41,143,1,0,,,,,,,,,,,,,,,,,,,,,
,,,,,,,,,,,,,,,,,,,,,,,,,,,,,,,,,,,,,,,,,,5fe100d9ece28c2fa6e9a5a1,606a130817d5d51493dda7de,2021-04-04_20h27.21.043,Colour_Similarity_Experiment,2020.2.10,Win32,60,60675255c767bca6388caeee,6.173654618,6.067036182,6.062795572,6.08311939,6.062575576,6.067036182,,,,,,,,,,,,,,,,,,,,PF,8,weak,,,,,,,,3,2.010285,,,,,,,,,,,,,,,,,,,,,,,,,,,,6,weak,-40,-103,1,0,0,response5disk,2,43,6,-15,1,0,0,rectangle,6,-15,1,0,0,1,2,0.00057,6,-15,1,0,0,0,42,42,130,1,0,,,,,,,,,,,,,,,,,,,,,
,,,,,,,,,,,,,,,,,,,,,,,,,,,,,,,,,,,,,,,,,,5fe100d9ece28c2fa6e9a5a1,606a130817d5d51493dda7de,2021-04-04_20h27.21.043,Colour_Similarity_Experiment,2020.2.10,Win32,60,60675255c767bca6388caeee,6.173654618,6.067036182,6.062795572,6.08311939,6.062575576,6.067036182,,,,,,,,,,,,,,,,,,,,PF,8,strong,,,,,,,,5,1.33122,,,,,,,,,,,,,,,,,,,,,,,,,,,,1,strong,91,-53,1,0,0,response3disk,1,44,-20,1,1,0,0,rectangle,-20,1,1,0,0,1,4,0.000705,-20,1,1,0,0,0,43,43,151,1,0,,,,,,,,,,,,,,,,,,,,,
,,,,,,,,,,,,,,,,,,,,,,,,,,,,,,,,,,,,,,,,,,5fe100d9ece28c2fa6e9a5a1,606a130817d5d51493dda7de,2021-04-04_20h27.21.043,Colour_Similarity_Experiment,2020.2.10,Win32,60,60675255c767bca6388caeee,6.173654618,6.067036182,6.062795572,6.08311939,6.062575576,6.067036182,,,,,,,,,,,,,,,,,,,,PF,8,weak,,,,,,,,3,1.53949,,,,,,,,,,,,,,,,,,,,,,,,,,,,8,weak,-41,-91,1,0,0,response5disk,8,45,-3,-3,1,0,0,rectangle,-3,-3,1,0,0,1,3,0.00059,-3,-3,1,0,0,0,44,44,153,1,0,,,,,,,,,,,,,,,,,,,,,
,,,,,,,,,,,,,,,,,,,,,,,,,,,,,,,,,,,,,,,,,,5fe100d9ece28c2fa6e9a5a1,606a130817d5d51493dda7de,2021-04-04_20h27.21.043,Colour_Similarity_Experiment,2020.2.10,Win32,60,60675255c767bca6388caeee,6.173654618,6.067036182,6.062795572,6.08311939,6.062575576,6.067036182,,,,,,,,,,,,,,,,,,,,PF,8,weak,,,,,,,,3,1.436485,,,,,,,,,,,,,,,,,,,,,,,,,,,,3,weak,-51,-87,1,0,0,response5disk,1,46,3,-5,1,0,0,rectangle,3,-5,1,0,0,1,6,0.000805,3,-5,1,0,0,0,45,45,96,1,0,,,,,,,,,,,,,,,,,,,,,
,,,,,,,,,,,,,,,,,,,,,,,,,,,,,,,,,,,,,,,,,,5fe100d9ece28c2fa6e9a5a1,606a130817d5d51493dda7de,2021-04-04_20h27.21.043,Colour_Similarity_Experiment,2020.2.10,Win32,60,60675255c767bca6388caeee,6.173654618,6.067036182,6.062795572,6.08311939,6.062575576,6.067036182,,,,,,,,,,,,,,,,,,,,PF,8,weak,,,,,,,,6,1.37986,,,,,,,,,,,,,,,,,,,,,,,,,,,,3,weak,138,22,1,0,0,response1disk,5,47,15,-15,1,0,0,rectangle,15,-15,1,0,0,1,2,0.000535,15,-15,1,0,0,0,46,46,66,1,0,,,,,,,,,,,,,,,,,,,,,
,,,,,,,,,,,,,,,,,,,,,,,,,,,,,,,,,,,,,,,,,,5fe100d9ece28c2fa6e9a5a1,606a130817d5d51493dda7de,2021-04-04_20h27.21.043,Colour_Similarity_Experiment,2020.2.10,Win32,60,60675255c767bca6388caeee,6.173654618,6.067036182,6.062795572,6.08311939,6.062575576,6.067036182,,,,,,,,,,,,,,,,,,,,PF,8,strong,,,,,,,,3,1.009805,,,,,,,,,,,,,,,,,,,,,,,,,,,,1,strong,-43,-90,1,0,0,response5disk,8,48,7,-13,1,0,0,rectangle,7,-13,1,0,0,1,7,0.000595,7,-13,1,0,0,0,47,47,27,1,0,,,,,,,,,,,,,,,,,,,,,
,,,,,,,,,,,,,,,,,,,,,,,,,,,,,,,,,,,,,,,,,,5fe100d9ece28c2fa6e9a5a1,606a130817d5d51493dda7de,2021-04-04_20h27.21.043,Colour_Similarity_Experiment,2020.2.10,Win32,60,60675255c767bca6388caeee,6.173654618,6.067036182,6.062795572,6.08311939,6.062575576,6.067036182,,,,,,,,,,,,,,,,,,,,PF,8,strong,,,,,,,,6,1.01604,,,,,,,,,,,,,,,,,,,,,,,,,,,,5,strong,104,41,1,0,0,response1disk,7,49,13,-13,1,0,0,rectangle,13,-13,1,0,0,1,5,0.00054,13,-13,1,0,0,0,48,48,7,1,0,,,,,,,,,,,,,,,,,,,,,
,,,,,,,,,,,,,,,,,,,,,,,,,,,,,,,,,,,,,,,,,,5fe100d9ece28c2fa6e9a5a1,606a130817d5d51493dda7de,2021-04-04_20h27.21.043,Colour_Similarity_Experiment,2020.2.10,Win32,60,60675255c767bca6388caeee,6.173654618,6.067036182,6.062795572,6.08311939,6.062575576,6.067036182,,,,,,,,,,,,,,,,,,,,PF,8,weak,,,,,,,,3,2.331025,,,,,,,,,,,,,,,,,,,,,,,,,,,,7,weak,-49,-87,1,0,0,response5disk,5,50,9,6,1,0,0,rectangle,9,6,1,0,0,1,2,0.00072,9,6,1,0,0,0,49,49,92,1,0,,,,,,,,,,,,,,,,,,,,,
,,,,,,,,,,,,,,,,,,,,,,,,,,,,,,,,,,,,,,,,,,5fe100d9ece28c2fa6e9a5a1,606a130817d5d51493dda7de,2021-04-04_20h27.21.043,Colour_Similarity_Experiment,2020.2.10,Win32,60,60675255c767bca6388caeee,6.173654618,6.067036182,6.062795572,6.08311939,6.062575576,6.067036182,,,,,,,,,,,,,,,,,,,,PF,8,strong,,,,,,,,2,1.775375,,,,,,,,,,,,,,,,,,,,,,,,,,,,7,strong,-88,-67,1,0,0,response5disk,5,51,11,-14,1,0,0,rectangle,11,-14,1,0,0,1,2,6E-05,11,-14,1,0,0,0,50,50,156,1,0,,,,,,,,,,,,,,,,,,,,,
,,,,,,,,,,,,,,,,,,,,,,,,,,,,,,,,,,,,,,,,,,5fe100d9ece28c2fa6e9a5a1,606a130817d5d51493dda7de,2021-04-04_20h27.21.043,Colour_Similarity_Experiment,2020.2.10,Win32,60,60675255c767bca6388caeee,6.173654618,6.067036182,6.062795572,6.08311939,6.062575576,6.067036182,,,,,,,,,,,,,,,,,,,,PF,8,strong,,,,,,,,5,2.78753,,,,,,,,,,,,,,,,,,,,,,,,,,,,3,strong,84,-72,1,0,0,response3disk,5,52,18,-1,1,0,0,rectangle,18,-1,1,0,0,1,3,0.00075,18,-1,1,0,0,0,51,51,101,1,0,,,,,,,,,,,,,,,,,,,,,
,,,,,,,,,,,,,,,,,,,,,,,,,,,,,,,,,,,,,,,,,,5fe100d9ece28c2fa6e9a5a1,606a130817d5d51493dda7de,2021-04-04_20h27.21.043,Colour_Similarity_Experiment,2020.2.10,Win32,60,60675255c767bca6388caeee,6.173654618,6.067036182,6.062795572,6.08311939,6.062575576,6.067036182,,,,,,,,,,,,,,,,,,,,PF,8,weak,,,,,,,,2,1.063925,,,,,,,,,,,,,,,,,,,,,,,,,,,,7,weak,-79,-61,1,0,0,response5disk,6,53,12,-3,1,0,0,rectangle,12,-3,1,0,0,1,2,0.00088,12,-3,1,0,0,0,52,52,29,1,0,,,,,,,,,,,,,,,,,,,,,
,,,,,,,,,,,,,,,,,,,,,,,,,,,,,,,,,,,,,,,,,,5fe100d9ece28c2fa6e9a5a1,606a130817d5d51493dda7de,2021-04-04_20h27.21.043,Colour_Similarity_Experiment,2020.2.10,Win32,60,60675255c767bca6388caeee,6.173654618,6.067036182,6.062795572,6.08311939,6.062575576,6.067036182,,,,,,,,,,,,,,,,,,,,PF,8,weak,,,,,,,,3,1.6767,,,,,,,,,,,,,,,,,,,,,,,,,,,,1,weak,-41,-83,1,0,0,response5disk,5,54,-1,0,1,0,0,rectangle,-1,0,1,0,0,1,2,6E-05,-1,0,1,0,0,0,53,53,28,1,0,,,,,,,,,,,,,,,,,,,,,
,,,,,,,,,,,,,,,,,,,,,,,,,,,,,,,,,,,,,,,,,,5fe100d9ece28c2fa6e9a5a1,606a130817d5d51493dda7de,2021-04-04_20h27.21.043,Colour_Similarity_Experiment,2020.2.10,Win32,60,60675255c767bca6388caeee,6.173654618,6.067036182,6.062795572,6.08311939,6.062575576,6.067036182,,,,,,,,,,,,,,,,,,,,PF,8,strong,,,,,,,,3,1.143055,,,,,,,,,,,,,,,,,,,,,,,,,,,,4,strong,-35,-82,1,0,0,response5disk,5,55,18,-19,1,0,0,rectangle,18,-19,1,0,0,1,4,0.000465,18,-19,1,0,0,0,54,54,116,1,0,,,,,,,,,,,,,,,,,,,,,
,,,,,,,,,,,,,,,,,,,,,,,,,,,,,,,,,,,,,,,,,,5fe100d9ece28c2fa6e9a5a1,606a130817d5d51493dda7de,2021-04-04_20h27.21.043,Colour_Similarity_Experiment,2020.2.10,Win32,60,60675255c767bca6388caeee,6.173654618,6.067036182,6.062795572,6.08311939,6.062575576,6.067036182,,,,,,,,,,,,,,,,,,,,PF,8,weak,,,,,,,,5,2.448275,,,,,,,,,,,,,,,,,,,,,,,,,,,,1,weak,85,-78,1,0,0,response3disk,4,56,1,-13,1,0,0,rectangle,1,-13,1,0,0,1,4,9.99999E-05,1,-13,1,0,0,0,55,55,139,1,0,,,,,,,,,,,,,,,,,,,,,
,,,,,,,,,,,,,,,,,,,,,,,,,,,,,,,,,,,,,,,,,,5fe100d9ece28c2fa6e9a5a1,606a130817d5d51493dda7de,2021-04-04_20h27.21.043,Colour_Similarity_Experiment,2020.2.10,Win32,60,60675255c767bca6388caeee,6.173654618,6.067036182,6.062795572,6.08311939,6.062575576,6.067036182,,,,,,,,,,,,,,,,,,,,PF,8,weak,,,,,,,,2,1.76777,,,,,,,,,,,,,,,,,,,,,,,,,,,,8,weak,-67,-35,1,0,0,response5disk,7,57,-20,-4,1,0,0,rectangle,-20,-4,1,0,0,1,6,0.00057,-20,-4,1,0,0,0,56,56,23,1,0,,,,,,,,,,,,,,,,,,,,,
,,,,,,,,,,,,,,,,,,,,,,,,,,,,,,,,,,,,,,,,,,5fe100d9ece28c2fa6e9a5a1,606a130817d5d51493dda7de,2021-04-04_20h27.21.043,Colour_Similarity_Experiment,2020.2.10,Win32,60,60675255c767bca6388caeee,6.173654618,6.067036182,6.062795572,6.08311939,6.062575576,6.067036182,,,,,,,,,,,,,,,,,,,,PF,8,weak,,,,,,,,2,3.78002,,,,,,,,,,,,,,,,,,,,,,,,,,,,9,weak,-80,-49,1,0,0,response5disk,9,58,8,-4,1,0,0,rectangle,8,-4,1,0,0,1,5,0.000615,8,-4,1,0,0,0,57,57,106,1,0,,,,,,,,,,,,,,,,,,,,,
,,,,,,,,,,,,,,,,,,,,,,,,,,,,,,,,,,,,,,,,,,5fe100d9ece28c2fa6e9a5a1,606a130817d5d51493dda7de,2021-04-04_20h27.21.043,Colour_Similarity_Experiment,2020.2.10,Win32,60,60675255c767bca6388caeee,6.173654618,6.067036182,6.062795572,6.08311939,6.062575576,6.067036182,,,,,,,,,,,,,,,,,,,,PF,8,weak,,,,,,,,2,1.349395,,,,,,,,,,,,,,,,,,,,,,,,,,,,2,weak,-82,-50,1,0,0,response5disk,2,59,18,4,1,0,0,rectangle,18,4,1,0,0,1,7,0.00064,18,4,1,0,0,0,58,58,14,1,0,,,,,,,,,,,,,,,,,,,,,
,,,,,,,,,,,,,,,,,,,,,,,,,,,,,,,,,,,,,,,,,,5fe100d9ece28c2fa6e9a5a1,606a130817d5d51493dda7de,2021-04-04_20h27.21.043,Colour_Similarity_Experiment,2020.2.10,Win32,60,60675255c767bca6388caeee,6.173654618,6.067036182,6.062795572,6.08311939,6.062575576,6.067036182,,,,,,,,,,,,,,,,,,,,PF,8,strong,,,,,,,,5,1.630095,,,,,,,,,,,,,,,,,,,,,,,,,,,,2,strong,103,-66,1,0,0,response3disk,2,60,17,-16,1,0,0,rectangle,17,-16,1,0,0,1,5,0.000615,17,-16,1,0,0,0,59,59,142,1,0,,,,,,,,,,,,,,,,,,,,,
,,,,,,,,,,,,,,,,,,,,,,,,,,,,,,,,,,,,,,,,,,5fe100d9ece28c2fa6e9a5a1,606a130817d5d51493dda7de,2021-04-04_20h27.21.043,Colour_Similarity_Experiment,2020.2.10,Win32,60,60675255c767bca6388caeee,6.173654618,6.067036182,6.062795572,6.08311939,6.062575576,6.067036182,,,,,,,,,,,,,,,,,,,,PF,8,strong,,,,,,,,2,1.06638,,,,,,,,,,,,,,,,,,,,,,,,,,,,1,strong,-61,-46,1,0,0,response5disk,2,61,-10,-11,1,0,0,rectangle,-10,-11,1,0,0,1,6,0.000525,-10,-11,1,0,0,0,60,60,2,1,0,,,,,,,,,,,,,,,,,,,,,
,,,,,,,,,,,,,,,,,,,,,,,,,,,,,,,,,,,,,,,,,,5fe100d9ece28c2fa6e9a5a1,606a130817d5d51493dda7de,2021-04-04_20h27.21.043,Colour_Similarity_Experiment,2020.2.10,Win32,60,60675255c767bca6388caeee,6.173654618,6.067036182,6.062795572,6.08311939,6.062575576,6.067036182,,,,,,,,,,,,,,,,,,,,PF,8,strong,,,,,,,,3,1.21239,,,,,,,,,,,,,,,,,,,,,,,,,,,,6,strong,-36,-86,1,0,0,response5disk,5,62,7,-5,1,0,0,rectangle,7,-5,1,0,0,1,6,0.00013,7,-5,1,0,0,0,61,61,126,1,0,,,,,,,,,,,,,,,,,,,,,
,,,,,,,,,,,,,,,,,,,,,,,,,,,,,,,,,,,,,,,,,,5fe100d9ece28c2fa6e9a5a1,606a130817d5d51493dda7de,2021-04-04_20h27.21.043,Colour_Similarity_Experiment,2020.2.10,Win32,60,60675255c767bca6388caeee,6.173654618,6.067036182,6.062795572,6.08311939,6.062575576,6.067036182,,,,,,,,,,,,,,,,,,,,PF,8,strong,,,,,,,,4,1.0178,,,,,,,,,,,,,,,,,,,,,,,,,,,,7,strong,45,-83,1,0,0,response3disk,4,63,17,-13,1,0,0,rectangle,17,-13,1,0,0,1,1,0.000635,17,-13,1,0,0,0,62,62,158,1,0,,,,,,,,,,,,,,,,,,,,,
,,,,,,,,,,,,,,,,,,,,,,,,,,,,,,,,,,,,,,,,,,5fe100d9ece28c2fa6e9a5a1,606a130817d5d51493dda7de,2021-04-04_20h27.21.043,Colour_Similarity_Experiment,2020.2.10,Win32,60,60675255c767bca6388caeee,6.173654618,6.067036182,6.062795572,6.08311939,6.062575576,6.067036182,,,,,,,,,,,,,,,,,,,,PF,8,strong,,,,,,,,2,0.872585,,,,,,,,,,,,,,,,,,,,,,,,,,,,5,strong,-61,-49,1,0,0,response5disk,1,64,8,-4,1,0,0,rectangle,8,-4,1,0,0,1,5,0.000665,8,-4,1,0,0,0,63,63,131,1,0,,,,,,,,,,,,,,,,,,,,,
,,,,,,,,,,,,,,,,,,,,,,,,,,,,,,,,,,,,,,,,,,5fe100d9ece28c2fa6e9a5a1,606a130817d5d51493dda7de,2021-04-04_20h27.21.043,Colour_Similarity_Experiment,2020.2.10,Win32,60,60675255c767bca6388caeee,6.173654618,6.067036182,6.062795572,6.08311939,6.062575576,6.067036182,,,,,,,,,,,,,,,,,,,,PF,8,strong,,,,,,,,3,1.260595,,,,,,,,,,,,,,,,,,,,,,,,,,,,3,strong,-34,-70,1,0,0,response5disk,2,65,3,-9,1,0,0,rectangle,3,-9,1,0,0,1,2,0.000775,3,-9,1,0,0,0,64,64,93,1,0,,,,,,,,,,,,,,,,,,,,,
,,,,,,,,,,,,,,,,,,,,,,,,,,,,,,,,,,,,,,,,,,5fe100d9ece28c2fa6e9a5a1,606a130817d5d51493dda7de,2021-04-04_20h27.21.043,Colour_Similarity_Experiment,2020.2.10,Win32,60,60675255c767bca6388caeee,6.173654618,6.067036182,6.062795572,6.08311939,6.062575576,6.067036182,,,,,,,,,,,,,,,,,,,,PF,8,strong,,,,,,,,4,1.652065,,,,,,,,,,,,,,,,,,,,,,,,,,,,4,strong,50,-93,1,0,0,response3disk,3,66,9,-10,1,0,0,rectangle,9,-10,1,0,0,1,1,0.000565,9,-10,1,0,0,0,65,65,77,1,0,,,,,,,,,,,,,,,,,,,,,
,,,,,,,,,,,,,,,,,,,,,,,,,,,,,,,,,,,,,,,,,,5fe100d9ece28c2fa6e9a5a1,606a130817d5d51493dda7de,2021-04-04_20h27.21.043,Colour_Similarity_Experiment,2020.2.10,Win32,60,60675255c767bca6388caeee,6.173654618,6.067036182,6.062795572,6.08311939,6.062575576,6.067036182,,,,,,,,,,,,,,,,,,,,PF,8,strong,,,,,,,,3,1.05234,,,,,,,,,,,,,,,,,,,,,,,,,,,,6,strong,-48,-64,1,0,0,response5disk,8,67,-16,-10,1,0,0,rectangle,-16,-10,1,0,0,1,1,6E-05,-16,-10,1,0,0,0,66,66,133,1,0,,,,,,,,,,,,,,,,,,,,,
,,,,,,,,,,,,,,,,,,,,,,,,,,,,,,,,,,,,,,,,,,5fe100d9ece28c2fa6e9a5a1,606a130817d5d51493dda7de,2021-04-04_20h27.21.043,Colour_Similarity_Experiment,2020.2.10,Win32,60,60675255c767bca6388caeee,6.173654618,6.067036182,6.062795572,6.08311939,6.062575576,6.067036182,,,,,,,,,,,,,,,,,,,,PF,8,strong,,,,,,,,2,1.139505,,,,,,,,,,,,,,,,,,,,,,,,,,,,4,strong,-55,-45,1,0,0,response5disk,9,68,-6,-13,1,0,0,rectangle,-6,-13,1,0,0,1,1,9E-05,-6,-13,1,0,0,0,67,67,90,1,0,,,,,,,,,,,,,,,,,,,,,
,,,,,,,,,,,,,,,,,,,,,,,,,,,,,,,,,,,,,,,,,,5fe100d9ece28c2fa6e9a5a1,606a130817d5d51493dda7de,2021-04-04_20h27.21.043,Colour_Similarity_Experiment,2020.2.10,Win32,60,60675255c767bca6388caeee,6.173654618,6.067036182,6.062795572,6.08311939,6.062575576,6.067036182,,,,,,,,,,,,,,,,,,,,PF,8,weak,,,,,,,,2,2.7313,,,,,,,,,,,,,,,,,,,,,,,,,,,,1,weak,-98,-60,1,0,0,response5disk,1,69,-2,-12,1,0,0,rectangle,50,95,1,0,0,7,7,1.62505,27,-8,1,0,0,0,68,68,76,1,1,response1disk_3,rectangle,,,,,,,,,,,,,,,,,,,
,,,,,,,,,,,,,,,,,,,,,,,,,,,,,,,,,,,,,,,,,,5fe100d9ece28c2fa6e9a5a1,606a130817d5d51493dda7de,2021-04-04_20h27.21.043,Colour_Similarity_Experiment,2020.2.10,Win32,60,60675255c767bca6388caeee,6.173654618,6.067036182,6.062795572,6.08311939,6.062575576,6.067036182,,,,,,,,,,,,,,,,,,,,PF,8,weak,,,,,,,,5,1.543375,,,,,,,,,,,,,,,,,,,,,,,,,,,,9,weak,88,-48,1,0,0,response3disk,5,70,-3,13,1,0,0,rectangle,-3,13,1,0,0,7,3,0.000825,-3,13,1,0,0,0,69,69,134,1,0,,,,,,,,,,,,,,,,,,,,,
,,,,,,,,,,,,,,,,,,,,,,,,,,,,,,,,,,,,,,,,,,5fe100d9ece28c2fa6e9a5a1,606a130817d5d51493dda7de,2021-04-04_20h27.21.043,Colour_Similarity_Experiment,2020.2.10,Win32,60,60675255c767bca6388caeee,6.173654618,6.067036182,6.062795572,6.08311939,6.062575576,6.067036182,,,,,,,,,,,,,,,,,,,,PF,8,strong,,,,,,,,5,1.258605,,,,,,,,,,,,,,,,,,,,,,,,,,,,9,strong,115,-56,1,0,0,response3disk,5,71,-5,2,1,0,0,rectangle,-5,2,1,0,0,7,0,0.00063,-5,2,1,0,0,0,70,70,128,1,0,,,,,,,,,,,,,,,,,,,,,
,,,,,,,,,,,,,,,,,,,,,,,,,,,,,,,,,,,,,,,,,,5fe100d9ece28c2fa6e9a5a1,606a130817d5d51493dda7de,2021-04-04_20h27.21.043,Colour_Similarity_Experiment,2020.2.10,Win32,60,60675255c767bca6388caeee,6.173654618,6.067036182,6.062795572,6.08311939,6.062575576,6.067036182,,,,,,,,,,,,,,,,,,,,PF,8,strong,,,,,,,,4,0.94362,,,,,,,,,,,,,,,,,,,,,,,,,,,,9,strong,54,-88,1,0,0,response3disk,7,72,8,-11,1,0,0,rectangle,8,-11,1,0,0,7,0,0.00014,8,-11,1,0,0,0,71,71,100,1,0,,,,,,,,,,,,,,,,,,,,,
,,,,,,,,,,,,,,,,,,,,,,,,,,,,,,,,,,,,,,,,,,5fe100d9ece28c2fa6e9a5a1,606a130817d5d51493dda7de,2021-04-04_20h27.21.043,Colour_Similarity_Experiment,2020.2.10,Win32,60,60675255c767bca6388caeee,6.173654618,6.067036182,6.062795572,6.08311939,6.062575576,6.067036182,,,,,,,,,,,,,,,,,,,,PF,8,strong,,,,,,,,3,0.78591,,,,,,,,,,,,,,,,,,,,,,,,,,,,2,strong,-43,-104,1,0,0,response5disk,4,73,-5,-12,1,0,0,rectangle,-5,-12,1,0,0,7,1,0.000605,-5,-12,1,0,0,0,72,72,145,1,0,,,,,,,,,,,,,,,,,,,,,
,,,,,,,,,,,,,,,,,,,,,,,,,,,,,,,,,,,,,,,,,,5fe100d9ece28c2fa6e9a5a1,606a130817d5d51493dda7de,2021-04-04_20h27.21.043,Colour_Similarity_Experiment,2020.2.10,Win32,60,60675255c767bca6388caeee,6.173654618,6.067036182,6.062795572,6.08311939,6.062575576,6.067036182,,,,,,,,,,,,,,,,,,,,PF,8,weak,,,,,,,,2,1.09503,,,,,,,,,,,,,,,,,,,,,,,,,,,,1,weak,-65,-55,1,0,0,response5disk,9,74,-9,-14,1,0,0,rectangle,-9,-14,1,0,0,7,5,0.000745,-9,-14,1,0,0,0,73,73,15,1,0,,,,,,,,,,,,,,,,,,,,,
,,,,,,,,,,,,,,,,,,,,,,,,,,,,,,,,,,,,,,,,,,5fe100d9ece28c2fa6e9a5a1,606a130817d5d51493dda7de,2021-04-04_20h27.21.043,Colour_Similarity_Experiment,2020.2.10,Win32,60,60675255c767bca6388caeee,6.173654618,6.067036182,6.062795572,6.08311939,6.062575576,6.067036182,,,,,,,,,,,,,,,,,,,,PF,8,strong,,,,,,,,6,0.96347,,,,,,,,,,,,,,,,,,,,,,,,,,,,4,strong,127,69,1,0,0,response1disk,7,75,19,0,1,0,0,rectangle,19,0,1,0,0,7,7,0.000445,19,0,1,0,0,0,74,74,87,1,0,,,,,,,,,,,,,,,,,,,,,
,,,,,,,,,,,,,,,,,,,,,,,,,,,,,,,,,,,,,,,,,,5fe100d9ece28c2fa6e9a5a1,606a130817d5d51493dda7de,2021-04-04_20h27.21.043,Colour_Similarity_Experiment,2020.2.10,Win32,60,60675255c767bca6388caeee,6.173654618,6.067036182,6.062795572,6.08311939,6.062575576,6.067036182,,,,,,,,,,,,,,,,,,,,PF,8,weak,,,,,,,,3,0.86442,,,,,,,,,,,,,,,,,,,,,,,,,,,,1,weak,-49,-103,1,0,0,response5disk,2,76,-4,-2,1,0,0,rectangle,-4,-2,1,0,0,7,1,0.00074,-4,-2,1,0,0,0,75,75,24,1,0,,,,,,,,,,,,,,,,,,,,,
,,,,,,,,,,,,,,,,,,,,,,,,,,,,,,,,,,,,,,,,,,5fe100d9ece28c2fa6e9a5a1,606a130817d5d51493dda7de,2021-04-04_20h27.21.043,Colour_Similarity_Experiment,2020.2.10,Win32,60,60675255c767bca6388caeee,6.173654618,6.067036182,6.062795572,6.08311939,6.062575576,6.067036182,,,,,,,,,,,,,,,,,,,,PF,8,strong,,,,,,,,4,0.76165,,,,,,,,,,,,,,,,,,,,,,,,,,,,3,strong,37,-83,1,0,0,response3disk,8,77,-4,-5,1,0,0,rectangle,-4,-5,1,0,0,7,4,0.00067,-4,-5,1,0,0,0,76,76,44,1,0,,,,,,,,,,,,,,,,,,,,,
,,,,,,,,,,,,,,,,,,,,,,,,,,,,,,,,,,,,,,,,,,5fe100d9ece28c2fa6e9a5a1,606a130817d5d51493dda7de,2021-04-04_20h27.21.043,Colour_Similarity_Experiment,2020.2.10,Win32,60,60675255c767bca6388caeee,6.173654618,6.067036182,6.062795572,6.08311939,6.062575576,6.067036182,,,,,,,,,,,,,,,,,,,,PF,8,weak,,,,,,,,3,0.642365,,,,,,,,,,,,,,,,,,,,,,,,,,,,8,weak,-43,-81,1,0,0,response5disk,5,78,-1,-13,1,0,0,rectangle,-1,-13,1,0,0,7,7,0.0006,-1,-13,1,0,0,0,77,77,98,1,0,,,,,,,,,,,,,,,,,,,,,
,,,,,,,,,,,,,,,,,,,,,,,,,,,,,,,,,,,,,,,,,,5fe100d9ece28c2fa6e9a5a1,606a130817d5d51493dda7de,2021-04-04_20h27.21.043,Colour_Similarity_Experiment,2020.2.10,Win32,60,60675255c767bca6388caeee,6.173654618,6.067036182,6.062795572,6.08311939,6.062575576,6.067036182,,,,,,,,,,,,,,,,,,,,PF,8,weak,,,,,,,,4,0.277125,,,,,,,,,,,,,,,,,,,,,,,,,,,,1,weak,68,-98,1,0,0,response3disk,3,79,11,-3,1,0,0,rectangle,11,-3,1,0,0,7,0,0.000615,11,-3,1,0,0,0,78,78,1,1,0,,,,,,,,,,,,,,,,,,,,,
,,,,,,,,,,,,,,,,,,,,,,,,,,,,,,,,,,,,,,,,,,5fe100d9ece28c2fa6e9a5a1,606a130817d5d51493dda7de,2021-04-04_20h27.21.043,Colour_Similarity_Experiment,2020.2.10,Win32,60,60675255c767bca6388caeee,6.173654618,6.067036182,6.062795572,6.08311939,6.062575576,6.067036182,,,,,,,,,,,,,,,,,,,,PF,8,strong,,,,,,,,3,1.00515,,,,,,,,,,,,,,,,,,,,,,,,,,,,4,strong,-62,-95,1,0,0,response5disk,1,80,-30,-16,1,0,0,rectangle,-30,-16,1,0,0,7,4,0.000465,-30,-16,1,0,0,0,79,79,102,1,0,,,,,,,,,,,,,,,,,,,,,
,,,,,,,,,,,,,,,,,,,,,,,,,,,,,,,,,,,,,,,,,,5fe100d9ece28c2fa6e9a5a1,606a130817d5d51493dda7de,2021-04-04_20h27.21.043,Colour_Similarity_Experiment,2020.2.10,Win32,60,60675255c767bca6388caeee,6.173654618,6.067036182,6.062795572,6.08311939,6.062575576,6.067036182,,,,,,,,,,,,,,,,,,,,PF,8,weak,,,,,,,,3,1.258655,,,,,,,,,,,,,,,,,,,,,,,,,,,,2,weak,-50,-79,1,0,0,response5disk,4,81,-26,-1,1,0,0,rectangle,-26,-1,1,0,0,7,0,0.00072,-26,-1,1,0,0,0,80,80,127,1,0,,,,,,,,,,,,,,,,,,,,,
,,,,,,,,,,,,,,,,,,,,,,,,,,,,,,,,,,,,,,,,,,5fe100d9ece28c2fa6e9a5a1,606a130817d5d51493dda7de,2021-04-04_20h27.21.043,Colour_Similarity_Experiment,2020.2.10,Win32,60,60675255c767bca6388caeee,6.173654618,6.067036182,6.062795572,6.08311939,6.062575576,6.067036182,,,,,,,,,,,,,,,,,,,,PF,8,strong,,,,,,,,3,1.30297,,,,,,,,,,,,,,,,,,,,,,,,,,,,8,strong,-86,-105,1,0,0,response5disk,5,82,-18,-2,1,0,0,rectangle,-18,-2,1,0,0,7,6,0.000655,-18,-2,1,0,0,0,81,81,152,1,0,,,,,,,,,,,,,,,,,,,,,
,,,,,,,,,,,,,,,,,,,,,,,,,,,,,,,,,,,,,,,,,,5fe100d9ece28c2fa6e9a5a1,606a130817d5d51493dda7de,2021-04-04_20h27.21.043,Colour_Similarity_Experiment,2020.2.10,Win32,60,60675255c767bca6388caeee,6.173654618,6.067036182,6.062795572,6.08311939,6.062575576,6.067036182,,,,,,,,,,,,,,,,,,,,PF,8,strong,,,,,,,,4,1.31523,,,,,,,,,,,,,,,,,,,,,,,,,,,,4,strong,47,-115,1,0,0,response3disk,6,83,-7,-2,1,0,0,rectangle,-7,-2,1,0,0,7,1,0.000665,-7,-2,1,0,0,0,82,82,122,1,0,,,,,,,,,,,,,,,,,,,,,
,,,,,,,,,,,,,,,,,,,,,,,,,,,,,,,,,,,,,,,,,,5fe100d9ece28c2fa6e9a5a1,606a130817d5d51493dda7de,2021-04-04_20h27.21.043,Colour_Similarity_Experiment,2020.2.10,Win32,60,60675255c767bca6388caeee,6.173654618,6.067036182,6.062795572,6.08311939,6.062575576,6.067036182,,,,,,,,,,,,,,,,,,,,PF,8,weak,,,,,,,,2,1.791905,,,,,,,,,,,,,,,,,,,,,,,,,,,,2,weak,-79,-58,1,0,0,response5disk,9,84,13,-11,1,0,0,rectangle,13,-11,1,0,0,7,6,0.000635,13,-11,1,0,0,0,83,83,39,1,0,,,,,,,,,,,,,,,,,,,,,
,,,,,,,,,,,,,,,,,,,,,,,,,,,,,,,,,,,,,,,,,,5fe100d9ece28c2fa6e9a5a1,606a130817d5d51493dda7de,2021-04-04_20h27.21.043,Colour_Similarity_Experiment,2020.2.10,Win32,60,60675255c767bca6388caeee,6.173654618,6.067036182,6.062795572,6.08311939,6.062575576,6.067036182,,,,,,,,,,,,,,,,,,,,PF,8,strong,,,,,,,,3,0.83434,,,,,,,,,,,,,,,,,,,,,,,,,,,,5,strong,-29,-107,1,0,0,response5disk,3,85,-18,-3,1,0,0,rectangle,-18,-3,1,0,0,7,4,0.00063,-18,-3,1,0,0,0,84,84,25,1,0,,,,,,,,,,,,,,,,,,,,,
,,,,,,,,,,,,,,,,,,,,,,,,,,,,,,,,,,,,,,,,,,5fe100d9ece28c2fa6e9a5a1,606a130817d5d51493dda7de,2021-04-04_20h27.21.043,Colour_Similarity_Experiment,2020.2.10,Win32,60,60675255c767bca6388caeee,6.173654618,6.067036182,6.062795572,6.08311939,6.062575576,6.067036182,,,,,,,,,,,,,,,,,,,,PF,8,strong,,,,,,,,3,1.046345,,,,,,,,,,,,,,,,,,,,,,,,,,,,6,strong,-35,-112,1,0,0,response5disk,7,86,0,-20,1,0,0,rectangle,0,-20,1,0,0,7,2,0.00054,0,-20,1,0,0,0,85,85,18,1,0,,,,,,,,,,,,,,,,,,,,,
,,,,,,,,,,,,,,,,,,,,,,,,,,,,,,,,,,,,,,,,,,5fe100d9ece28c2fa6e9a5a1,606a130817d5d51493dda7de,2021-04-04_20h27.21.043,Colour_Similarity_Experiment,2020.2.10,Win32,60,60675255c767bca6388caeee,6.173654618,6.067036182,6.062795572,6.08311939,6.062575576,6.067036182,,,,,,,,,,,,,,,,,,,,PF,8,weak,,,,,,,,3,1.35135,,,,,,,,,,,,,,,,,,,,,,,,,,,,9,weak,-34,-91,1,0,0,response5disk,1,87,18,-14,1,0,0,rectangle,18,-14,1,0,0,7,2,8E-05,18,-14,1,0,0,0,86,86,74,1,0,,,,,,,,,,,,,,,,,,,,,
,,,,,,,,,,,,,,,,,,,,,,,,,,,,,,,,,,,,,,,,,,5fe100d9ece28c2fa6e9a5a1,606a130817d5d51493dda7de,2021-04-04_20h27.21.043,Colour_Similarity_Experiment,2020.2.10,Win32,60,60675255c767bca6388caeee,6.173654618,6.067036182,6.062795572,6.08311939,6.062575576,6.067036182,,,,,,,,,,,,,,,,,,,,PF,8,weak,,,,,,,,2,1.840255,,,,,,,,,,,,,,,,,,,,,,,,,,,,2,weak,-80,-66,1,0,0,response5disk,7,88,-36,0,1,0,0,rectangle,-36,0,1,0,0,7,5,0.0007,-36,0,1,0,0,0,87,87,107,1,0,,,,,,,,,,,,,,,,,,,,,
,,,,,,,,,,,,,,,,,,,,,,,,,,,,,,,,,,,,,,,,,,5fe100d9ece28c2fa6e9a5a1,606a130817d5d51493dda7de,2021-04-04_20h27.21.043,Colour_Similarity_Experiment,2020.2.10,Win32,60,60675255c767bca6388caeee,6.173654618,6.067036182,6.062795572,6.08311939,6.062575576,6.067036182,,,,,,,,,,,,,,,,,,,,PF,8,weak,,,,,,,,4,1.222145,,,,,,,,,,,,,,,,,,,,,,,,,,,,2,weak,51,-119,1,0,0,response3disk,5,89,14,-16,1,0,0,rectangle,14,-16,1,0,0,7,2,0.000635,14,-16,1,0,0,0,88,88,147,1,0,,,,,,,,,,,,,,,,,,,,,
,,,,,,,,,,,,,,,,,,,,,,,,,,,,,,,,,,,,,,,,,,5fe100d9ece28c2fa6e9a5a1,606a130817d5d51493dda7de,2021-04-04_20h27.21.043,Colour_Similarity_Experiment,2020.2.10,Win32,60,60675255c767bca6388caeee,6.173654618,6.067036182,6.062795572,6.08311939,6.062575576,6.067036182,,,,,,,,,,,,,,,,,,,,PF,8,weak,,,,,,,,4,1.04831,,,,,,,,,,,,,,,,,,,,,,,,,,,,8,weak,52,-116,1,0,0,response3disk,4,90,-13,-5,1,0,0,rectangle,-13,-5,1,0,0,7,4,0.000575,-13,-5,1,0,0,0,89,89,78,1,0,,,,,,,,,,,,,,,,,,,,,
,,,,,,,,,,,,,,,,,,,,,,,,,,,,,,,,,,,,,,,,,,5fe100d9ece28c2fa6e9a5a1,606a130817d5d51493dda7de,2021-04-04_20h27.21.043,Colour_Similarity_Experiment,2020.2.10,Win32,60,60675255c767bca6388caeee,6.173654618,6.067036182,6.062795572,6.08311939,6.062575576,6.067036182,,,,,,,,,,,,,,,,,,,,PF,8,strong,,,,,,,,3,0.79784,,,,,,,,,,,,,,,,,,,,,,,,,,,,5,strong,-43,-98,1,0,0,response5disk,4,91,9,-11,1,0,0,rectangle,9,-11,1,0,0,7,5,0.00076,9,-11,1,0,0,0,90,90,8,1,0,,,,,,,,,,,,,,,,,,,,,
,,,,,,,,,,,,,,,,,,,,,,,,,,,,,,,,,,,,,,,,,,5fe100d9ece28c2fa6e9a5a1,606a130817d5d51493dda7de,2021-04-04_20h27.21.043,Colour_Similarity_Experiment,2020.2.10,Win32,60,60675255c767bca6388caeee,6.173654618,6.067036182,6.062795572,6.08311939,6.062575576,6.067036182,,,,,,,,,,,,,,,,,,,,PF,8,strong,,,,,,,,4,2.38079,,,,,,,,,,,,,,,,,,,,,,,,,,,,7,strong,64,-112,1,0,0,response3disk,6,92,16,-9,1,0,0,rectangle,16,-9,1,0,0,7,4,0.0006,16,-9,1,0,0,0,91,91,31,1,0,,,,,,,,,,,,,,,,,,,,,
,,,,,,,,,,,,,,,,,,,,,,,,,,,,,,,,,,,,,,,,,,5fe100d9ece28c2fa6e9a5a1,606a130817d5d51493dda7de,2021-04-04_20h27.21.043,Colour_Similarity_Experiment,2020.2.10,Win32,60,60675255c767bca6388caeee,6.173654618,6.067036182,6.062795572,6.08311939,6.062575576,6.067036182,,,,,,,,,,,,,,,,,,,,PF,8,weak,,,,,,,,3,1.959635,,,,,,,,,,,,,,,,,,,,,,,,,,,,8,weak,-63,-96,1,0,0,response5disk,3,93,-11,-9,1,0,0,rectangle,-11,-9,1,0,0,7,7,0.000845,-11,-9,1,0,0,0,92,92,71,1,0,,,,,,,,,,,,,,,,,,,,,
,,,,,,,,,,,,,,,,,,,,,,,,,,,,,,,,,,,,,,,,,,5fe100d9ece28c2fa6e9a5a1,606a130817d5d51493dda7de,2021-04-04_20h27.21.043,Colour_Similarity_Experiment,2020.2.10,Win32,60,60675255c767bca6388caeee,6.173654618,6.067036182,6.062795572,6.08311939,6.062575576,6.067036182,,,,,,,,,,,,,,,,,,,,PF,8,weak,,,,,,,,5,1.35561,,,,,,,,,,,,,,,,,,,,,,,,,,,,7,weak,96,-73,1,0,0,response3disk,8,94,-39,1,1,0,0,rectangle,-39,1,1,0,0,7,1,0.000765,-39,1,1,0,0,0,93,93,140,1,0,,,,,,,,,,,,,,,,,,,,,
,,,,,,,,,,,,,,,,,,,,,,,,,,,,,,,,,,,,,,,,,,5fe100d9ece28c2fa6e9a5a1,606a130817d5d51493dda7de,2021-04-04_20h27.21.043,Colour_Similarity_Experiment,2020.2.10,Win32,60,60675255c767bca6388caeee,6.173654618,6.067036182,6.062795572,6.08311939,6.062575576,6.067036182,,,,,,,,,,,,,,,,,,,,PF,8,strong,,,,,,,,2,1.26051,,,,,,,,,,,,,,,,,,,,,,,,,,,,4,strong,-81,-62,1,0,0,response5disk,4,95,2,-17,1,0,0,rectangle,2,-17,1,0,0,7,5,0.000635,2,-17,1,0,0,0,94,94,84,1,0,,,,,,,,,,,,,,,,,,,,,
,,,,,,,,,,,,,,,,,,,,,,,,,,,,,,,,,,,,,,,,,,5fe100d9ece28c2fa6e9a5a1,606a130817d5d51493dda7de,2021-04-04_20h27.21.043,Colour_Similarity_Experiment,2020.2.10,Win32,60,60675255c767bca6388caeee,6.173654618,6.067036182,6.062795572,6.08311939,6.062575576,6.067036182,,,,,,,,,,,,,,,,,,,,PF,8,weak,,,,,,,,6,1.81591,,,,,,,,,,,,,,,,,,,,,,,,,,,,3,weak,116,33,1,0,0,response1disk,2,96,8,0,1,0,0,rectangle,39,-115,1,0,0,4,4,1.23051,-8,-6,1,0,0,0,95,95,36,1,1,response3disk_3,rectangle,,,,,,,,,,,,,,,,,,,
,,,,,,,,,,,,,,,,,,,,,,,,,,,,,,,,,,,,,,,,,,5fe100d9ece28c2fa6e9a5a1,606a130817d5d51493dda7de,2021-04-04_20h27.21.043,Colour_Similarity_Experiment,2020.2.10,Win32,60,60675255c767bca6388caeee,6.173654618,6.067036182,6.062795572,6.08311939,6.062575576,6.067036182,,,,,,,,,,,,,,,,,,,,PF,8,weak,,,,,,,,3,0.64022,,,,,,,,,,,,,,,,,,,,,,,,,,,,4,weak,-44,-81,1,0,0,response5disk,1,97,-7,-16,1,0,0,rectangle,-7,-16,1,0,0,4,2,0.000615,-7,-16,1,0,0,0,96,96,115,1,0,,,,,,,,,,,,,,,,,,,,,
,,,,,,,,,,,,,,,,,,,,,,,,,,,,,,,,,,,,,,,,,,5fe100d9ece28c2fa6e9a5a1,606a130817d5d51493dda7de,2021-04-04_20h27.21.043,Colour_Similarity_Experiment,2020.2.10,Win32,60,60675255c767bca6388caeee,6.173654618,6.067036182,6.062795572,6.08311939,6.062575576,6.067036182,,,,,,,,,,,,,,,,,,,,PF,8,strong,,,,,,,,3,1.00377,,,,,,,,,,,,,,,,,,,,,,,,,,,,6,strong,-48,-107,1,0,0,response5disk,4,98,2,12,1,0,0,rectangle,2,12,1,0,0,4,1,0.000745,2,12,1,0,0,0,97,97,56,1,0,,,,,,,,,,,,,,,,,,,,,
,,,,,,,,,,,,,,,,,,,,,,,,,,,,,,,,,,,,,,,,,,5fe100d9ece28c2fa6e9a5a1,606a130817d5d51493dda7de,2021-04-04_20h27.21.043,Colour_Similarity_Experiment,2020.2.10,Win32,60,60675255c767bca6388caeee,6.173654618,6.067036182,6.062795572,6.08311939,6.062575576,6.067036182,,,,,,,,,,,,,,,,,,,,PF,8,weak,,,,,,,,3,2.939355,,,,,,,,,,,,,,,,,,,,,,,,,,,,4,weak,-33,-127,1,0,0,response5disk,9,99,-7,-1,1,0,0,rectangle,-7,-1,1,0,0,4,6,0.00137,-7,-1,1,0,0,0,98,98,75,1,0,,,,,,,,,,,,,,,,,,,,,
,,,,,,,,,,,,,,,,,,,,,,,,,,,,,,,,,,,,,,,,,,5fe100d9ece28c2fa6e9a5a1,606a130817d5d51493dda7de,2021-04-04_20h27.21.043,Colour_Similarity_Experiment,2020.2.10,Win32,60,60675255c767bca6388caeee,6.173654618,6.067036182,6.062795572,6.08311939,6.062575576,6.067036182,,,,,,,,,,,,,,,,,,,,PF,8,strong,,,,,,,,3,1.66666,,,,,,,,,,,,,,,,,,,,,,,,,,,,2,strong,-26,-129,1,0,0,response5disk,9,100,2,-7,1,0,0,rectangle,2,-7,1,0,0,4,2,0.00061,2,-7,1,0,0,0,99,99,72,1,0,,,,,,,,,,,,,,,,,,,,,
,,,,,,,,,,,,,,,,,,,,,,,,,,,,,,,,,,,,,,,,,,5fe100d9ece28c2fa6e9a5a1,606a130817d5d51493dda7de,2021-04-04_20h27.21.043,Colour_Similarity_Experiment,2020.2.10,Win32,60,60675255c767bca6388caeee,6.173654618,6.067036182,6.062795572,6.08311939,6.062575576,6.067036182,,,,,,,,,,,,,,,,,,,,PF,8,strong,,,,,,,,5,4.713245,,,,,,,,,,,,,,,,,,,,,,,,,,,,3,strong,124,-79,1,0,0,response3disk,6,101,2,-8,1,0,0,rectangle,2,-8,1,0,0,4,1,0.000805,2,-8,1,0,0,0,100,100,95,1,0,,,,,,,,,,,,,,,,,,,,,
,,,,,,,,,,,,,,,,,,,,,,,,,,,,,,,,,,,,,,,,,,5fe100d9ece28c2fa6e9a5a1,606a130817d5d51493dda7de,2021-04-04_20h27.21.043,Colour_Similarity_Experiment,2020.2.10,Win32,60,60675255c767bca6388caeee,6.173654618,6.067036182,6.062795572,6.08311939,6.062575576,6.067036182,,,,,,,,,,,,,,,,,,,,PF,8,strong,,,,,,,,4,1.121245,,,,,,,,,,,,,,,,,,,,,,,,,,,,9,strong,40,-122,1,0,0,response3disk,4,102,-6,-9,1,0,0,rectangle,-6,-9,1,0,0,4,0,0.000775,-6,-9,1,0,0,0,101,101,60,1,0,,,,,,,,,,,,,,,,,,,,,
,,,,,,,,,,,,,,,,,,,,,,,,,,,,,,,,,,,,,,,,,,5fe100d9ece28c2fa6e9a5a1,606a130817d5d51493dda7de,2021-04-04_20h27.21.043,Colour_Similarity_Experiment,2020.2.10,Win32,60,60675255c767bca6388caeee,6.173654618,6.067036182,6.062795572,6.08311939,6.062575576,6.067036182,,,,,,,,,,,,,,,,,,,,PF,8,strong,,,,,,,,2,1.25242,,,,,,,,,,,,,,,,,,,,,,,,,,,,9,strong,-83,-63,1,0,0,response5disk,8,103,-17,-8,1,0,0,rectangle,-17,-8,1,0,0,4,6,0.000745,-17,-8,1,0,0,0,102,102,6,1,0,,,,,,,,,,,,,,,,,,,,,
,,,,,,,,,,,,,,,,,,,,,,,,,,,,,,,,,,,,,,,,,,5fe100d9ece28c2fa6e9a5a1,606a130817d5d51493dda7de,2021-04-04_20h27.21.043,Colour_Similarity_Experiment,2020.2.10,Win32,60,60675255c767bca6388caeee,6.173654618,6.067036182,6.062795572,6.08311939,6.062575576,6.067036182,,,,,,,,,,,,,,,,,,,,PF,8,strong,,,,,,,,5,1.01202,,,,,,,,,,,,,,,,,,,,,,,,,,,,7,strong,85,-63,1,0,0,response3disk,2,104,-11,0,1,0,0,rectangle,-11,0,1,0,0,4,3,0.0007,-11,0,1,0,0,0,103,103,138,1,0,,,,,,,,,,,,,,,,,,,,,
,,,,,,,,,,,,,,,,,,,,,,,,,,,,,,,,,,,,,,,,,,5fe100d9ece28c2fa6e9a5a1,606a130817d5d51493dda7de,2021-04-04_20h27.21.043,Colour_Similarity_Experiment,2020.2.10,Win32,60,60675255c767bca6388caeee,6.173654618,6.067036182,6.062795572,6.08311939,6.062575576,6.067036182,,,,,,,,,,,,,,,,,,,,PF,8,weak,,,,,,,,5,1.42229,,,,,,,,,,,,,,,,,,,,,,,,,,,,1,weak,100,-69,1,0,0,response3disk,6,105,-6,-10,1,0,0,rectangle,-6,-10,1,0,0,4,1,0.000685,-6,-10,1,0,0,0,104,104,144,1,0,,,,,,,,,,,,,,,,,,,,,
,,,,,,,,,,,,,,,,,,,,,,,,,,,,,,,,,,,,,,,,,,5fe100d9ece28c2fa6e9a5a1,606a130817d5d51493dda7de,2021-04-04_20h27.21.043,Colour_Similarity_Experiment,2020.2.10,Win32,60,60675255c767bca6388caeee,6.173654618,6.067036182,6.062795572,6.08311939,6.062575576,6.067036182,,,,,,,,,,,,,,,,,,,,PF,8,weak,,,,,,,,3,1.042155,,,,,,,,,,,,,,,,,,,,,,,,,,,,8,weak,-45,-96,1,0,0,response5disk,9,106,-3,-11,1,0,0,rectangle,-3,-11,1,0,0,4,3,0.000615,-3,-11,1,0,0,0,105,105,42,1,0,,,,,,,,,,,,,,,,,,,,,
,,,,,,,,,,,,,,,,,,,,,,,,,,,,,,,,,,,,,,,,,,5fe100d9ece28c2fa6e9a5a1,606a130817d5d51493dda7de,2021-04-04_20h27.21.043,Colour_Similarity_Experiment,2020.2.10,Win32,60,60675255c767bca6388caeee,6.173654618,6.067036182,6.062795572,6.08311939,6.062575576,6.067036182,,,,,,,,,,,,,,,,,,,,PF,8,weak,,,,,,,,4,1.30079,,,,,,,,,,,,,,,,,,,,,,,,,,,,8,weak,42,-93,1,0,0,response3disk,2,107,15,-13,1,0,0,rectangle,15,-13,1,0,0,4,1,0.000845,15,-13,1,0,0,0,106,106,83,1,0,,,,,,,,,,,,,,,,,,,,,
,,,,,,,,,,,,,,,,,,,,,,,,,,,,,,,,,,,,,,,,,,5fe100d9ece28c2fa6e9a5a1,606a130817d5d51493dda7de,2021-04-04_20h27.21.043,Colour_Similarity_Experiment,2020.2.10,Win32,60,60675255c767bca6388caeee,6.173654618,6.067036182,6.062795572,6.08311939,6.062575576,6.067036182,,,,,,,,,,,,,,,,,,,,PF,8,weak,,,,,,,,2,0.919065,,,,,,,,,,,,,,,,,,,,,,,,,,,,5,weak,-81,-63,1,0,0,response5disk,6,108,-23,-16,1,0,0,rectangle,-23,-16,1,0,0,4,3,0.000565,-23,-16,1,0,0,0,107,107,103,1,0,,,,,,,,,,,,,,,,,,,,,
,,,,,,,,,,,,,,,,,,,,,,,,,,,,,,,,,,,,,,,,,,5fe100d9ece28c2fa6e9a5a1,606a130817d5d51493dda7de,2021-04-04_20h27.21.043,Colour_Similarity_Experiment,2020.2.10,Win32,60,60675255c767bca6388caeee,6.173654618,6.067036182,6.062795572,6.08311939,6.062575576,6.067036182,,,,,,,,,,,,,,,,,,,,PF,8,weak,,,,,,,,4,1.022025,,,,,,,,,,,,,,,,,,,,,,,,,,,,6,weak,46,-79,1,0,0,response3disk,4,109,18,-15,1,0,0,rectangle,18,-15,1,0,0,4,3,7.5E-05,18,-15,1,0,0,0,108,108,33,1,0,,,,,,,,,,,,,,,,,,,,,
,,,,,,,,,,,,,,,,,,,,,,,,,,,,,,,,,,,,,,,,,,5fe100d9ece28c2fa6e9a5a1,606a130817d5d51493dda7de,2021-04-04_20h27.21.043,Colour_Similarity_Experiment,2020.2.10,Win32,60,60675255c767bca6388caeee,6.173654618,6.067036182,6.062795572,6.08311939,6.062575576,6.067036182,,,,,,,,,,,,,,,,,,,,PF,8,weak,,,,,,,,3,1.17374,,,,,,,,,,,,,,,,,,,,,,,,,,,,4,weak,-39,-77,1,0,0,response5disk,5,110,-7,-8,1,0,0,rectangle,-7,-8,1,0,0,4,1,0.00062,-7,-8,1,0,0,0,109,109,49,1,0,,,,,,,,,,,,,,,,,,,,,
,,,,,,,,,,,,,,,,,,,,,,,,,,,,,,,,,,,,,,,,,,5fe100d9ece28c2fa6e9a5a1,606a130817d5d51493dda7de,2021-04-04_20h27.21.043,Colour_Similarity_Experiment,2020.2.10,Win32,60,60675255c767bca6388caeee,6.173654618,6.067036182,6.062795572,6.08311939,6.062575576,6.067036182,,,,,,,,,,,,,,,,,,,,PF,8,weak,,,,,,,,2,1.119055,,,,,,,,,,,,,,,,,,,,,,,,,,,,4,weak,-52,-43,1,0,0,response5disk,3,111,7,1,1,0,0,rectangle,7,1,1,0,0,4,1,6.49999E-05,7,1,1,0,0,0,110,110,89,1,0,,,,,,,,,,,,,,,,,,,,,
,,,,,,,,,,,,,,,,,,,,,,,,,,,,,,,,,,,,,,,,,,5fe100d9ece28c2fa6e9a5a1,606a130817d5d51493dda7de,2021-04-04_20h27.21.043,Colour_Similarity_Experiment,2020.2.10,Win32,60,60675255c767bca6388caeee,6.173654618,6.067036182,6.062795572,6.08311939,6.062575576,6.067036182,,,,,,,,,,,,,,,,,,,,PF,8,strong,,,,,,,,4,1.02186,,,,,,,,,,,,,,,,,,,,,,,,,,,,9,strong,38,-103,1,0,0,response3disk,3,112,-1,-12,1,0,0,rectangle,-1,-12,1,0,0,4,7,0.00074,-1,-12,1,0,0,0,111,111,141,1,0,,,,,,,,,,,,,,,,,,,,,
,,,,,,,,,,,,,,,,,,,,,,,,,,,,,,,,,,,,,,,,,,5fe100d9ece28c2fa6e9a5a1,606a130817d5d51493dda7de,2021-04-04_20h27.21.043,Colour_Similarity_Experiment,2020.2.10,Win32,60,60675255c767bca6388caeee,6.173654618,6.067036182,6.062795572,6.08311939,6.062575576,6.067036182,,,,,,,,,,,,,,,,,,,,PF,8,strong,,,,,,,,2,1.08915,,,,,,,,,,,,,,,,,,,,,,,,,,,,6,strong,-54,-42,1,0,0,response5disk,9,113,-7,-8,1,0,0,rectangle,-56,96,1,0,0,0,0,1.31386,-20,-11,1,0,0,0,112,112,160,1,1,response7disk_3,rectangle,,,,,,,,,,,,,,,,,,,
,,,,,,,,,,,,,,,,,,,,,,,,,,,,,,,,,,,,,,,,,,5fe100d9ece28c2fa6e9a5a1,606a130817d5d51493dda7de,2021-04-04_20h27.21.043,Colour_Similarity_Experiment,2020.2.10,Win32,60,60675255c767bca6388caeee,6.173654618,6.067036182,6.062795572,6.08311939,6.062575576,6.067036182,,,,,,,,,,,,,,,,,,,,PF,8,strong,,,,,,,,4,0.721185,,,,,,,,,,,,,,,,,,,,,,,,,,,,6,strong,27,-67,1,0,0,response3disk,3,114,9,-2,1,0,0,rectangle,9,-2,1,0,0,0,0,7.5E-05,9,-2,1,0,0,0,113,113,21,1,0,,,,,,,,,,,,,,,,,,,,,
,,,,,,,,,,,,,,,,,,,,,,,,,,,,,,,,,,,,,,,,,,5fe100d9ece28c2fa6e9a5a1,606a130817d5d51493dda7de,2021-04-04_20h27.21.043,Colour_Similarity_Experiment,2020.2.10,Win32,60,60675255c767bca6388caeee,6.173654618,6.067036182,6.062795572,6.08311939,6.062575576,6.067036182,,,,,,,,,,,,,,,,,,,,PF,8,weak,,,,,,,,3,0.991705,,,,,,,,,,,,,,,,,,,,,,,,,,,,6,weak,-40,-82,1,0,0,response5disk,7,115,4,-8,1,0,0,rectangle,4,-8,1,0,0,0,5,0.00076,4,-8,1,0,0,0,114,114,50,1,0,,,,,,,,,,,,,,,,,,,,,
,,,,,,,,,,,,,,,,,,,,,,,,,,,,,,,,,,,,,,,,,,5fe100d9ece28c2fa6e9a5a1,606a130817d5d51493dda7de,2021-04-04_20h27.21.043,Colour_Similarity_Experiment,2020.2.10,Win32,60,60675255c767bca6388caeee,6.173654618,6.067036182,6.062795572,6.08311939,6.062575576,6.067036182,,,,,,,,,,,,,,,,,,,,PF,8,weak,,,,,,,,4,0.75701,,,,,,,,,,,,,,,,,,,,,,,,,,,,5,weak,48,-91,1,0,0,response3disk,5,116,6,-9,1,0,0,rectangle,6,-9,1,0,0,0,7,0.00062,6,-9,1,0,0,0,115,115,94,1,0,,,,,,,,,,,,,,,,,,,,,
,,,,,,,,,,,,,,,,,,,,,,,,,,,,,,,,,,,,,,,,,,5fe100d9ece28c2fa6e9a5a1,606a130817d5d51493dda7de,2021-04-04_20h27.21.043,Colour_Similarity_Experiment,2020.2.10,Win32,60,60675255c767bca6388caeee,6.173654618,6.067036182,6.062795572,6.08311939,6.062575576,6.067036182,,,,,,,,,,,,,,,,,,,,PF,8,strong,,,,,,,,3,0.8338,,,,,,,,,,,,,,,,,,,,,,,,,,,,7,strong,-36,-62,1,0,0,response5disk,3,117,5,4,1,0,0,rectangle,5,4,1,0,0,0,0,0.000775,5,4,1,0,0,0,116,116,73,1,0,,,,,,,,,,,,,,,,,,,,,
,,,,,,,,,,,,,,,,,,,,,,,,,,,,,,,,,,,,,,,,,,5fe100d9ece28c2fa6e9a5a1,606a130817d5d51493dda7de,2021-04-04_20h27.21.043,Colour_Similarity_Experiment,2020.2.10,Win32,60,60675255c767bca6388caeee,6.173654618,6.067036182,6.062795572,6.08311939,6.062575576,6.067036182,,,,,,,,,,,,,,,,,,,,PF,8,weak,,,,,,,,5,1.054505,,,,,,,,,,,,,,,,,,,,,,,,,,,,1,weak,90,-49,1,0,0,response3disk,7,118,12,7,1,0,0,rectangle,12,7,1,0,0,0,2,0.000895,12,7,1,0,0,0,117,117,150,1,0,,,,,,,,,,,,,,,,,,,,,
,,,,,,,,,,,,,,,,,,,,,,,,,,,,,,,,,,,,,,,,,,5fe100d9ece28c2fa6e9a5a1,606a130817d5d51493dda7de,2021-04-04_20h27.21.043,Colour_Similarity_Experiment,2020.2.10,Win32,60,60675255c767bca6388caeee,6.173654618,6.067036182,6.062795572,6.08311939,6.062575576,6.067036182,,,,,,,,,,,,,,,,,,,,PF,8,strong,,,,,,,,4,0.85992,,,,,,,,,,,,,,,,,,,,,,,,,,,,1,strong,38,-66,1,0,0,response3disk,7,119,-8,-2,1,0,0,rectangle,-8,-2,1,0,0,0,2,5.5E-05,-8,-2,1,0,0,0,118,118,137,1,0,,,,,,,,,,,,,,,,,,,,,
,,,,,,,,,,,,,,,,,,,,,,,,,,,,,,,,,,,,,,,,,,5fe100d9ece28c2fa6e9a5a1,606a130817d5d51493dda7de,2021-04-04_20h27.21.043,Colour_Similarity_Experiment,2020.2.10,Win32,60,60675255c767bca6388caeee,6.173654618,6.067036182,6.062795572,6.08311939,6.062575576,6.067036182,,,,,,,,,,,,,,,,,,,,PF,8,strong,,,,,,,,3,0.979805,,,,,,,,,,,,,,,,,,,,,,,,,,,,8,strong,-53,-81,1,0,0,response5disk,7,120,13,1,1,0,0,rectangle,13,1,1,0,0,0,6,0.000805,13,1,1,0,0,0,119,119,86,1,0,,,,,,,,,,,,,,,,,,,,,
,,,,,,,,,,,,,,,,,,,,,,,,,,,,,,,,,,,,,,,,,,5fe100d9ece28c2fa6e9a5a1,606a130817d5d51493dda7de,2021-04-04_20h27.21.043,Colour_Similarity_Experiment,2020.2.10,Win32,60,60675255c767bca6388caeee,6.173654618,6.067036182,6.062795572,6.08311939,6.062575576,6.067036182,,,,,,,,,,,,,,,,,,,,PF,8,strong,,,,,,,,2,1.414335,,,,,,,,,,,,,,,,,,,,,,,,,,,,1,strong,-62,-43,1,0,0,response5disk,4,121,-8,-14,1,0,0,rectangle,-8,-14,1,0,0,0,3,0.00069,-8,-14,1,0,0,0,120,120,135,1,0,,,,,,,,,,,,,,,,,,,,,
,,,,,,,,,,,,,,,,,,,,,,,,,,,,,,,,,,,,,,,,,,5fe100d9ece28c2fa6e9a5a1,606a130817d5d51493dda7de,2021-04-04_20h27.21.043,Colour_Similarity_Experiment,2020.2.10,Win32,60,60675255c767bca6388caeee,6.173654618,6.067036182,6.062795572,6.08311939,6.062575576,6.067036182,,,,,,,,,,,,,,,,,,,,PF,8,weak,,,,,,,,3,0.951215,,,,,,,,,,,,,,,,,,,,,,,,,,,,6,weak,-45,-87,1,0,0,response5disk,6,122,-22,-7,1,0,0,rectangle,-22,-7,1,0,0,0,7,0.00071,-22,-7,1,0,0,0,121,121,0,1,0,,,,,,,,,,,,,,,,,,,,,
,,,,,,,,,,,,,,,,,,,,,,,,,,,,,,,,,,,,,,,,,,5fe100d9ece28c2fa6e9a5a1,606a130817d5d51493dda7de,2021-04-04_20h27.21.043,Colour_Similarity_Experiment,2020.2.10,Win32,60,60675255c767bca6388caeee,6.173654618,6.067036182,6.062795572,6.08311939,6.062575576,6.067036182,,,,,,,,,,,,,,,,,,,,PF,8,strong,,,,,,,,5,1.506945,,,,,,,,,,,,,,,,,,,,,,,,,,,,6,strong,75,-53,1,0,0,response3disk,1,123,11,-14,1,0,0,rectangle,11,-14,1,0,0,0,2,0.00072,11,-14,1,0,0,0,122,122,5,1,0,,,,,,,,,,,,,,,,,,,,,
,,,,,,,,,,,,,,,,,,,,,,,,,,,,,,,,,,,,,,,,,,5fe100d9ece28c2fa6e9a5a1,606a130817d5d51493dda7de,2021-04-04_20h27.21.043,Colour_Similarity_Experiment,2020.2.10,Win32,60,60675255c767bca6388caeee,6.173654618,6.067036182,6.062795572,6.08311939,6.062575576,6.067036182,,,,,,,,,,,,,,,,,,,,PF,8,strong,,,,,,,,3,0.812045,,,,,,,,,,,,,,,,,,,,,,,,,,,,8,strong,-44,-66,1,0,0,response5disk,4,124,-2,-7,1,0,0,rectangle,-2,-7,1,0,0,0,0,0.000625,-2,-7,1,0,0,0,123,123,88,1,0,,,,,,,,,,,,,,,,,,,,,
,,,,,,,,,,,,,,,,,,,,,,,,,,,,,,,,,,,,,,,,,,5fe100d9ece28c2fa6e9a5a1,606a130817d5d51493dda7de,2021-04-04_20h27.21.043,Colour_Similarity_Experiment,2020.2.10,Win32,60,60675255c767bca6388caeee,6.173654618,6.067036182,6.062795572,6.08311939,6.062575576,6.067036182,,,,,,,,,,,,,,,,,,,,PF,8,strong,,,,,,,,5,0.94932,,,,,,,,,,,,,,,,,,,,,,,,,,,,7,strong,127,-83,1,0,0,response3disk,8,125,-7,-15,1,0,0,rectangle,-101,52,1,0,0,1,1,1.18226,6,-13,1,0,0,0,124,124,97,1,1,response7disk_3,rectangle,,,,,,,,,,,,,,,,,,,
,,,,,,,,,,,,,,,,,,,,,,,,,,,,,,,,,,,,,,,,,,5fe100d9ece28c2fa6e9a5a1,606a130817d5d51493dda7de,2021-04-04_20h27.21.043,Colour_Similarity_Experiment,2020.2.10,Win32,60,60675255c767bca6388caeee,6.173654618,6.067036182,6.062795572,6.08311939,6.062575576,6.067036182,,,,,,,,,,,,,,,,,,,,PF,8,strong,,,,,,,,3,0.82855,,,,,,,,,,,,,,,,,,,,,,,,,,,,7,strong,-38,-88,1,0,0,response5disk,9,126,2,-6,1,0,0,rectangle,2,-6,1,0,0,1,6,0.0006,2,-6,1,0,0,0,125,125,155,1,0,,,,,,,,,,,,,,,,,,,,,
,,,,,,,,,,,,,,,,,,,,,,,,,,,,,,,,,,,,,,,,,,5fe100d9ece28c2fa6e9a5a1,606a130817d5d51493dda7de,2021-04-04_20h27.21.043,Colour_Similarity_Experiment,2020.2.10,Win32,60,60675255c767bca6388caeee,6.173654618,6.067036182,6.062795572,6.08311939,6.062575576,6.067036182,,,,,,,,,,,,,,,,,,,,PF,8,strong,,,,,,,,4,0.604305,,,,,,,,,,,,,,,,,,,,,,,,,,,,2,strong,42,-58,1,0,0,response3disk,5,127,9,7,1,0,0,rectangle,9,7,1,0,0,1,0,0.00071,9,7,1,0,0,0,126,126,80,1,0,,,,,,,,,,,,,,,,,,,,,
,,,,,,,,,,,,,,,,,,,,,,,,,,,,,,,,,,,,,,,,,,5fe100d9ece28c2fa6e9a5a1,606a130817d5d51493dda7de,2021-04-04_20h27.21.043,Colour_Similarity_Experiment,2020.2.10,Win32,60,60675255c767bca6388caeee,6.173654618,6.067036182,6.062795572,6.08311939,6.062575576,6.067036182,,,,,,,,,,,,,,,,,,,,PF,8,weak,,,,,,,,2,1.727275,,,,,,,,,,,,,,,,,,,,,,,,,,,,6,weak,-103,-49,1,0,0,response5disk,9,128,11,6,1,0,0,rectangle,11,6,1,0,0,1,5,0.00094,11,6,1,0,0,0,127,127,45,1,0,,,,,,,,,,,,,,,,,,,,,
,,,,,,,,,,,,,,,,,,,,,,,,,,,,,,,,,,,,,,,,,,5fe100d9ece28c2fa6e9a5a1,606a130817d5d51493dda7de,2021-04-04_20h27.21.043,Colour_Similarity_Experiment,2020.2.10,Win32,60,60675255c767bca6388caeee,6.173654618,6.067036182,6.062795572,6.08311939,6.062575576,6.067036182,,,,,,,,,,,,,,,,,,,,PF,8,strong,,,,,,,,5,2.42158,,,,,,,,,,,,,,,,,,,,,,,,,,,,8,strong,63,-44,1,0,0,response3disk,2,129,-20,-5,1,0,0,rectangle,-20,-5,1,0,0,1,4,0.000755,-20,-5,1,0,0,0,128,128,22,1,0,,,,,,,,,,,,,,,,,,,,,
,,,,,,,,,,,,,,,,,,,,,,,,,,,,,,,,,,,,,,,,,,5fe100d9ece28c2fa6e9a5a1,606a130817d5d51493dda7de,2021-04-04_20h27.21.043,Colour_Similarity_Experiment,2020.2.10,Win32,60,60675255c767bca6388caeee,6.173654618,6.067036182,6.062795572,6.08311939,6.062575576,6.067036182,,,,,,,,,,,,,,,,,,,,PF,8,weak,,,,,,,,3,0.937515,,,,,,,,,,,,,,,,,,,,,,,,,,,,4,weak,-28,-91,1,0,0,response5disk,2,130,1,-1,1,0,0,rectangle,1,-1,1,0,0,1,7,0.000725,1,-1,1,0,0,0,129,129,108,1,0,,,,,,,,,,,,,,,,,,,,,
,,,,,,,,,,,,,,,,,,,,,,,,,,,,,,,,,,,,,,,,,,5fe100d9ece28c2fa6e9a5a1,606a130817d5d51493dda7de,2021-04-04_20h27.21.043,Colour_Similarity_Experiment,2020.2.10,Win32,60,60675255c767bca6388caeee,6.173654618,6.067036182,6.062795572,6.08311939,6.062575576,6.067036182,,,,,,,,,,,,,,,,,,,,PF,8,strong,,,,,,,,4,1.26667,,,,,,,,,,,,,,,,,,,,,,,,,,,,4,strong,45,-90,1,0,0,response3disk,2,131,-11,-3,1,0,0,rectangle,-11,-3,1,0,0,1,7,0.00149,-11,-3,1,0,0,0,130,130,13,1,0,,,,,,,,,,,,,,,,,,,,,
,,,,,,,,,,,,,,,,,,,,,,,,,,,,,,,,,,,,,,,,,,5fe100d9ece28c2fa6e9a5a1,606a130817d5d51493dda7de,2021-04-04_20h27.21.043,Colour_Similarity_Experiment,2020.2.10,Win32,60,60675255c767bca6388caeee,6.173654618,6.067036182,6.062795572,6.08311939,6.062575576,6.067036182,,,,,,,,,,,,,,,,,,,,PF,8,weak,,,,,,,,2,1.15529,,,,,,,,,,,,,,,,,,,,,,,,,,,,7,weak,-97,-55,1,0,0,response5disk,3,132,-11,-19,1,0,0,rectangle,-11,-19,1,0,0,1,5,0.00045,-11,-19,1,0,0,0,131,131,81,1,0,,,,,,,,,,,,,,,,,,,,,
,,,,,,,,,,,,,,,,,,,,,,,,,,,,,,,,,,,,,,,,,,5fe100d9ece28c2fa6e9a5a1,606a130817d5d51493dda7de,2021-04-04_20h27.21.043,Colour_Similarity_Experiment,2020.2.10,Win32,60,60675255c767bca6388caeee,6.173654618,6.067036182,6.062795572,6.08311939,6.062575576,6.067036182,,,,,,,,,,,,,,,,,,,,PF,8,strong,,,,,,,,5,0.91287,,,,,,,,,,,,,,,,,,,,,,,,,,,,2,strong,120,-42,1,0,0,response3disk,6,133,15,-3,1,0,0,rectangle,15,-3,1,0,0,1,1,0.00084,15,-3,1,0,0,0,132,132,40,1,0,,,,,,,,,,,,,,,,,,,,,
,,,,,,,,,,,,,,,,,,,,,,,,,,,,,,,,,,,,,,,,,,5fe100d9ece28c2fa6e9a5a1,606a130817d5d51493dda7de,2021-04-04_20h27.21.043,Colour_Similarity_Experiment,2020.2.10,Win32,60,60675255c767bca6388caeee,6.173654618,6.067036182,6.062795572,6.08311939,6.062575576,6.067036182,,,,,,,,,,,,,,,,,,,,PF,8,strong,,,,,,,,4,1.501065,,,,,,,,,,,,,,,,,,,,,,,,,,,,2,strong,50,-135,1,0,0,response3disk,1,134,-9,-8,1,0,0,rectangle,-9,-8,1,0,0,1,0,0.000615,-9,-8,1,0,0,0,133,133,85,1,0,,,,,,,,,,,,,,,,,,,,,
,,,,,,,,,,,,,,,,,,,,,,,,,,,,,,,,,,,,,,,,,,5fe100d9ece28c2fa6e9a5a1,606a130817d5d51493dda7de,2021-04-04_20h27.21.043,Colour_Similarity_Experiment,2020.2.10,Win32,60,60675255c767bca6388caeee,6.173654618,6.067036182,6.062795572,6.08311939,6.062575576,6.067036182,,,,,,,,,,,,,,,,,,,,PF,8,strong,,,,,,,,4,1.68887,,,,,,,,,,,,,,,,,,,,,,,,,,,,5,strong,66,-72,1,0,0,response3disk,2,135,-26,6,1,0,0,rectangle,105,-87,1,0,0,5,5,1.78783,15,-2,1,0,0,0,134,134,55,1,1,response3disk_3,rectangle,,,,,,,,,,,,,,,,,,,
,,,,,,,,,,,,,,,,,,,,,,,,,,,,,,,,,,,,,,,,,,5fe100d9ece28c2fa6e9a5a1,606a130817d5d51493dda7de,2021-04-04_20h27.21.043,Colour_Similarity_Experiment,2020.2.10,Win32,60,60675255c767bca6388caeee,6.173654618,6.067036182,6.062795572,6.08311939,6.062575576,6.067036182,,,,,,,,,,,,,,,,,,,,PF,8,weak,,,,,,,,4,0.74931,,,,,,,,,,,,,,,,,,,,,,,,,,,,4,weak,46,-96,1,0,0,response3disk,8,136,11,-12,1,0,0,rectangle,11,-12,1,0,0,5,4,0.000815,11,-12,1,0,0,0,135,135,124,1,0,,,,,,,,,,,,,,,,,,,,,
,,,,,,,,,,,,,,,,,,,,,,,,,,,,,,,,,,,,,,,,,,5fe100d9ece28c2fa6e9a5a1,606a130817d5d51493dda7de,2021-04-04_20h27.21.043,Colour_Similarity_Experiment,2020.2.10,Win32,60,60675255c767bca6388caeee,6.173654618,6.067036182,6.062795572,6.08311939,6.062575576,6.067036182,,,,,,,,,,,,,,,,,,,,PF,8,strong,,,,,,,,3,1.015955,,,,,,,,,,,,,,,,,,,,,,,,,,,,5,strong,-57,-93,1,0,0,response5disk,6,137,2,-6,1,0,0,rectangle,2,-6,1,0,0,5,5,0.000675,2,-6,1,0,0,0,136,136,12,1,0,,,,,,,,,,,,,,,,,,,,,
,,,,,,,,,,,,,,,,,,,,,,,,,,,,,,,,,,,,,,,,,,5fe100d9ece28c2fa6e9a5a1,606a130817d5d51493dda7de,2021-04-04_20h27.21.043,Colour_Similarity_Experiment,2020.2.10,Win32,60,60675255c767bca6388caeee,6.173654618,6.067036182,6.062795572,6.08311939,6.062575576,6.067036182,,,,,,,,,,,,,,,,,,,,PF,8,weak,,,,,,,,3,2.25797,,,,,,,,,,,,,,,,,,,,,,,,,,,,2,weak,-45,-86,1,0,0,response5disk,3,138,26,-16,1,0,0,rectangle,26,-16,1,0,0,5,1,0.00146,26,-16,1,0,0,0,137,137,69,1,0,,,,,,,,,,,,,,,,,,,,,
,,,,,,,,,,,,,,,,,,,,,,,,,,,,,,,,,,,,,,,,,,5fe100d9ece28c2fa6e9a5a1,606a130817d5d51493dda7de,2021-04-04_20h27.21.043,Colour_Similarity_Experiment,2020.2.10,Win32,60,60675255c767bca6388caeee,6.173654618,6.067036182,6.062795572,6.08311939,6.062575576,6.067036182,,,,,,,,,,,,,,,,,,,,PF,8,weak,,,,,,,,5,1.64637,,,,,,,,,,,,,,,,,,,,,,,,,,,,7,weak,70,-41,1,0,0,response3disk,1,139,-5,-2,1,0,0,rectangle,-5,-2,1,0,0,5,7,0.002365,-5,-2,1,0,0,0,138,138,53,1,0,,,,,,,,,,,,,,,,,,,,,
,,,,,,,,,,,,,,,,,,,,,,,,,,,,,,,,,,,,,,,,,,5fe100d9ece28c2fa6e9a5a1,606a130817d5d51493dda7de,2021-04-04_20h27.21.043,Colour_Similarity_Experiment,2020.2.10,Win32,60,60675255c767bca6388caeee,6.173654618,6.067036182,6.062795572,6.08311939,6.062575576,6.067036182,,,,,,,,,,,,,,,,,,,,PF,8,weak,,,,,,,,3,5.63626,,,,,,,,,,,,,,,,,,,,,,,,,,,,3,weak,-42,-79,1,0,0,response5disk,7,140,18,-5,1,0,0,rectangle,18,-5,1,0,0,5,3,0.000625,18,-5,1,0,0,0,139,139,41,1,0,,,,,,,,,,,,,,,,,,,,,
,,,,,,,,,,,,,,,,,,,,,,,,,,,,,,,,,,,,,,,,,,5fe100d9ece28c2fa6e9a5a1,606a130817d5d51493dda7de,2021-04-04_20h27.21.043,Colour_Similarity_Experiment,2020.2.10,Win32,60,60675255c767bca6388caeee,6.173654618,6.067036182,6.062795572,6.08311939,6.062575576,6.067036182,,,,,,,,,,,,,,,,,,,,PF,8,strong,,,,,,,,5,2.155425,,,,,,,,,,,,,,,,,,,,,,,,,,,,9,strong,68,-50,1,0,0,response3disk,1,141,-27,1,1,0,0,rectangle,-27,1,1,0,0,5,2,0.000875,-27,1,1,0,0,0,140,140,111,1,0,,,,,,,,,,,,,,,,,,,,,
,,,,,,,,,,,,,,,,,,,,,,,,,,,,,,,,,,,,,,,,,,5fe100d9ece28c2fa6e9a5a1,606a130817d5d51493dda7de,2021-04-04_20h27.21.043,Colour_Similarity_Experiment,2020.2.10,Win32,60,60675255c767bca6388caeee,6.173654618,6.067036182,6.062795572,6.08311939,6.062575576,6.067036182,,,,,,,,,,,,,,,,,,,,PF,8,strong,,,,,,,,3,2.46659,,,,,,,,,,,,,,,,,,,,,,,,,,,,8,strong,-40,-94,1,0,0,response5disk,8,142,-12,-9,1,0,0,rectangle,-12,-9,1,0,0,5,3,0.00065,-12,-9,1,0,0,0,141,141,48,1,0,,,,,,,,,,,,,,,,,,,,,
,,,,,,,,,,,,,,,,,,,,,,,,,,,,,,,,,,,,,,,,,,5fe100d9ece28c2fa6e9a5a1,606a130817d5d51493dda7de,2021-04-04_20h27.21.043,Colour_Similarity_Experiment,2020.2.10,Win32,60,60675255c767bca6388caeee,6.173654618,6.067036182,6.062795572,6.08311939,6.062575576,6.067036182,,,,,,,,,,,,,,,,,,,,PF,8,weak,,,,,,,,3,4.13337,,,,,,,,,,,,,,,,,,,,,,,,,,,,5,weak,-24,-68,1,0,0,response5disk,8,143,1,-21,1,0,0,rectangle,1,-21,1,0,0,5,6,0.000715,1,-21,1,0,0,0,142,142,149,1,0,,,,,,,,,,,,,,,,,,,,,
,,,,,,,,,,,,,,,,,,,,,,,,,,,,,,,,,,,,,,,,,,5fe100d9ece28c2fa6e9a5a1,606a130817d5d51493dda7de,2021-04-04_20h27.21.043,Colour_Similarity_Experiment,2020.2.10,Win32,60,60675255c767bca6388caeee,6.173654618,6.067036182,6.062795572,6.08311939,6.062575576,6.067036182,,,,,,,,,,,,,,,,,,,,PF,8,strong,,,,,,,,3,4.640375,,,,,,,,,,,,,,,,,,,,,,,,,,,,3,strong,-31,-56,1,0,0,response5disk,1,144,8,-7,1,0,0,rectangle,8,-7,1,0,0,5,1,0.000555,8,-7,1,0,0,0,143,143,125,1,0,,,,,,,,,,,,,,,,,,,,,
,,,,,,,,,,,,,,,,,,,,,,,,,,,,,,,,,,,,,,,,,,5fe100d9ece28c2fa6e9a5a1,606a130817d5d51493dda7de,2021-04-04_20h27.21.043,Colour_Similarity_Experiment,2020.2.10,Win32,60,60675255c767bca6388caeee,6.173654618,6.067036182,6.062795572,6.08311939,6.062575576,6.067036182,,,,,,,,,,,,,,,,,,,,PF,8,strong,,,,,,,,5,2.179725,,,,,,,,,,,,,,,,,,,,,,,,,,,,1,strong,86,-55,1,0,0,response3disk,3,145,0,-7,1,0,0,rectangle,0,-7,1,0,0,5,5,0.00084,0,-7,1,0,0,0,144,144,99,1,0,,,,,,,,,,,,,,,,,,,,,
,,,,,,,,,,,,,,,,,,,,,,,,,,,,,,,,,,,,,,,,,,5fe100d9ece28c2fa6e9a5a1,606a130817d5d51493dda7de,2021-04-04_20h27.21.043,Colour_Similarity_Experiment,2020.2.10,Win32,60,60675255c767bca6388caeee,6.173654618,6.067036182,6.062795572,6.08311939,6.062575576,6.067036182,,,,,,,,,,,,,,,,,,,,PF,8,weak,,,,,,,,4,12.896885,,,,,,,,,,,,,,,,,,,,,,,,,,,,4,weak,43,-78,1,0,0,response3disk,7,146,-3,-12,1,0,0,rectangle,-3,-12,1,0,0,5,1,0.001015,-3,-12,1,0,0,0,145,145,38,1,0,,,,,,,,,,,,,,,,,,,,,
,,,,,,,,,,,,,,,,,,,,,,,,,,,,,,,,,,,,,,,,,,5fe100d9ece28c2fa6e9a5a1,606a130817d5d51493dda7de,2021-04-04_20h27.21.043,Colour_Similarity_Experiment,2020.2.10,Win32,60,60675255c767bca6388caeee,6.173654618,6.067036182,6.062795572,6.08311939,6.062575576,6.067036182,,,,,,,,,,,,,,,,,,,,PF,8,strong,,,,,,,,5,4.694925,,,,,,,,,,,,,,,,,,,,,,,,,,,,9,strong,81,-45,1,0,0,response3disk,9,147,23,1,1,0,0,rectangle,23,1,1,0,0,5,0,0.000585,23,1,1,0,0,0,146,146,17,1,0,,,,,,,,,,,,,,,,,,,,,
,,,,,,,,,,,,,,,,,,,,,,,,,,,,,,,,,,,,,,,,,,5fe100d9ece28c2fa6e9a5a1,606a130817d5d51493dda7de,2021-04-04_20h27.21.043,Colour_Similarity_Experiment,2020.2.10,Win32,60,60675255c767bca6388caeee,6.173654618,6.067036182,6.062795572,6.08311939,6.062575576,6.067036182,,,,,,,,,,,,,,,,,,,,PF,8,weak,,,,,,,,2,3.118855,,,,,,,,,,,,,,,,,,,,,,,,,,,,5,weak,-90,-48,1,0,0,response5disk,1,148,2,-3,1,0,0,rectangle,-40,90,1,0,0,0,0,1.049045,9,3,1,0,0,0,147,147,159,1,1,response7disk_3,rectangle,,,,,,,,,,,,,,,,,,,
,,,,,,,,,,,,,,,,,,,,,,,,,,,,,,,,,,,,,,,,,,5fe100d9ece28c2fa6e9a5a1,606a130817d5d51493dda7de,2021-04-04_20h27.21.043,Colour_Similarity_Experiment,2020.2.10,Win32,60,60675255c767bca6388caeee,6.173654618,6.067036182,6.062795572,6.08311939,6.062575576,6.067036182,,,,,,,,,,,,,,,,,,,,PF,8,strong,,,,,,,,5,1.585925,,,,,,,,,,,,,,,,,,,,,,,,,,,,9,strong,110,-67,1,0,0,response3disk,6,149,-4,-8,1,0,0,rectangle,-4,-8,1,0,0,0,1,0.00059,-4,-8,1,0,0,0,148,148,117,1,0,,,,,,,,,,,,,,,,,,,,,
,,,,,,,,,,,,,,,,,,,,,,,,,,,,,,,,,,,,,,,,,,5fe100d9ece28c2fa6e9a5a1,606a130817d5d51493dda7de,2021-04-04_20h27.21.043,Colour_Similarity_Experiment,2020.2.10,Win32,60,60675255c767bca6388caeee,6.173654618,6.067036182,6.062795572,6.08311939,6.062575576,6.067036182,,,,,,,,,,,,,,,,,,,,PF,8,strong,,,,,,,,2,1.03039,,,,,,,,,,,,,,,,,,,,,,,,,,,,9,strong,-59,-37,1,0,0,response5disk,2,150,-20,-10,1,0,0,rectangle,68,-109,1,0,0,4,4,1.73327,-4,9,1,0,0,0,149,149,11,1,1,response3disk_3,rectangle,,,,,,,,,,,,,,,,,,,
,,,,,,,,,,,,,,,,,,,,,,,,,,,,,,,,,,,,,,,,,,5fe100d9ece28c2fa6e9a5a1,606a130817d5d51493dda7de,2021-04-04_20h27.21.043,Colour_Similarity_Experiment,2020.2.10,Win32,60,60675255c767bca6388caeee,6.173654618,6.067036182,6.062795572,6.08311939,6.062575576,6.067036182,,,,,,,,,,,,,,,,,,,,PF,8,weak,,,,,,,,3,2.351295,,,,,,,,,,,,,,,,,,,,,,,,,,,,7,weak,-48,-96,1,0,0,response5disk,9,151,9,-11,1,0,0,rectangle,9,-11,1,0,0,4,1,0.00078,9,-11,1,0,0,0,150,150,10,1,0,,,,,,,,,,,,,,,,,,,,,
,,,,,,,,,,,,,,,,,,,,,,,,,,,,,,,,,,,,,,,,,,5fe100d9ece28c2fa6e9a5a1,606a130817d5d51493dda7de,2021-04-04_20h27.21.043,Colour_Similarity_Experiment,2020.2.10,Win32,60,60675255c767bca6388caeee,6.173654618,6.067036182,6.062795572,6.08311939,6.062575576,6.067036182,,,,,,,,,,,,,,,,,,,,PF,8,weak,,,,,,,,3,1.8826,,,,,,,,,,,,,,,,,,,,,,,,,,,,6,weak,-32,-112,1,0,0,response5disk,8,152,0,-7,1,0,0,rectangle,0,-7,1,0,0,4,3,0.00077,0,-7,1,0,0,0,151,151,64,1,0,,,,,,,,,,,,,,,,,,,,,
,,,,,,,,,,,,,,,,,,,,,,,,,,,,,,,,,,,,,,,,,,5fe100d9ece28c2fa6e9a5a1,606a130817d5d51493dda7de,2021-04-04_20h27.21.043,Colour_Similarity_Experiment,2020.2.10,Win32,60,60675255c767bca6388caeee,6.173654618,6.067036182,6.062795572,6.08311939,6.062575576,6.067036182,,,,,,,,,,,,,,,,,,,,PF,8,weak,,,,,,,,5,0.99865,,,,,,,,,,,,,,,,,,,,,,,,,,,,9,weak,100,-58,1,0,0,response3disk,2,153,-4,-3,1,0,0,rectangle,-4,-3,1,0,0,4,5,0.000725,-4,-3,1,0,0,0,152,152,157,1,0,,,,,,,,,,,,,,,,,,,,,
,,,,,,,,,,,,,,,,,,,,,,,,,,,,,,,,,,,,,,,,,,5fe100d9ece28c2fa6e9a5a1,606a130817d5d51493dda7de,2021-04-04_20h27.21.043,Colour_Similarity_Experiment,2020.2.10,Win32,60,60675255c767bca6388caeee,6.173654618,6.067036182,6.062795572,6.08311939,6.062575576,6.067036182,,,,,,,,,,,,,,,,,,,,PF,8,strong,,,,,,,,5,1.009925,,,,,,,,,,,,,,,,,,,,,,,,,,,,5,strong,88,-54,1,0,0,response3disk,5,154,22,15,1,0,0,rectangle,22,15,1,0,0,4,5,9.49999E-05,22,15,1,0,0,0,153,153,19,1,0,,,,,,,,,,,,,,,,,,,,,
,,,,,,,,,,,,,,,,,,,,,,,,,,,,,,,,,,,,,,,,,,5fe100d9ece28c2fa6e9a5a1,606a130817d5d51493dda7de,2021-04-04_20h27.21.043,Colour_Similarity_Experiment,2020.2.10,Win32,60,60675255c767bca6388caeee,6.173654618,6.067036182,6.062795572,6.08311939,6.062575576,6.067036182,,,,,,,,,,,,,,,,,,,,PF,8,strong,,,,,,,,3,1.07659,,,,,,,,,,,,,,,,,,,,,,,,,,,,5,strong,-55,-94,1,0,0,response5disk,8,155,3,-12,1,0,0,rectangle,3,-12,1,0,0,4,5,8.49999E-05,3,-12,1,0,0,0,154,154,16,1,0,,,,,,,,,,,,,,,,,,,,,
,,,,,,,,,,,,,,,,,,,,,,,,,,,,,,,,,,,,,,,,,,5fe100d9ece28c2fa6e9a5a1,606a130817d5d51493dda7de,2021-04-04_20h27.21.043,Colour_Similarity_Experiment,2020.2.10,Win32,60,60675255c767bca6388caeee,6.173654618,6.067036182,6.062795572,6.08311939,6.062575576,6.067036182,,,,,,,,,,,,,,,,,,,,PF,8,strong,,,,,,,,4,1.47658,,,,,,,,,,,,,,,,,,,,,,,,,,,,2,strong,70,-83,1,0,0,response3disk,7,156,29,-3,1,0,0,rectangle,29,-3,1,0,0,4,2,0.000555,29,-3,1,0,0,0,155,155,63,1,0,,,,,,,,,,,,,,,,,,,,,
,,,,,,,,,,,,,,,,,,,,,,,,,,,,,,,,,,,,,,,,,,5fe100d9ece28c2fa6e9a5a1,606a130817d5d51493dda7de,2021-04-04_20h27.21.043,Colour_Similarity_Experiment,2020.2.10,Win32,60,60675255c767bca6388caeee,6.173654618,6.067036182,6.062795572,6.08311939,6.062575576,6.067036182,,,,,,,,,,,,,,,,,,,,PF,8,weak,,,,,,,,2,0.91922,,,,,,,,,,,,,,,,,,,,,,,,,,,,9,weak,-110,-61,1,0,0,response5disk,8,157,19,-11,1,0,0,rectangle,19,-11,1,0,0,4,1,0.00088,19,-11,1,0,0,0,156,156,67,1,0,,,,,,,,,,,,,,,,,,,,,
,,,,,,,,,,,,,,,,,,,,,,,,,,,,,,,,,,,,,,,,,,5fe100d9ece28c2fa6e9a5a1,606a130817d5d51493dda7de,2021-04-04_20h27.21.043,Colour_Similarity_Experiment,2020.2.10,Win32,60,60675255c767bca6388caeee,6.173654618,6.067036182,6.062795572,6.08311939,6.062575576,6.067036182,,,,,,,,,,,,,,,,,,,,PF,8,weak,,,,,,,,5,1.088665,,,,,,,,,,,,,,,,,,,,,,,,,,,,4,weak,89,-44,1,0,0,response3disk,6,158,2,-17,1,0,0,rectangle,2,-17,1,0,0,4,7,0.000835,2,-17,1,0,0,0,157,157,120,1,0,,,,,,,,,,,,,,,,,,,,,
,,,,,,,,,,,,,,,,,,,,,,,,,,,,,,,,,,,,,,,,,,5fe100d9ece28c2fa6e9a5a1,606a130817d5d51493dda7de,2021-04-04_20h27.21.043,Colour_Similarity_Experiment,2020.2.10,Win32,60,60675255c767bca6388caeee,6.173654618,6.067036182,6.062795572,6.08311939,6.062575576,6.067036182,,,,,,,,,,,,,,,,,,,,PF,8,weak,,,,,,,,4,1.68892,,,,,,,,,,,,,,,,,,,,,,,,,,,,9,weak,68,-127,1,0,0,response3disk,7,159,-23,-19,1,0,0,rectangle,-23,-19,1,0,0,4,4,0.00082,-23,-19,1,0,0,0,158,158,121,1,0,,,,,,,,,,,,,,,,,,,,,
,,,,,,,,,,,,,,,,,,,,,,,,,,,,,,,,,,,,,,,,,,5fe100d9ece28c2fa6e9a5a1,606a130817d5d51493dda7de,2021-04-04_20h27.21.043,Colour_Similarity_Experiment,2020.2.10,Win32,60,60675255c767bca6388caeee,6.173654618,6.067036182,6.062795572,6.08311939,6.062575576,6.067036182,,,,,,,,,,,,,,,,,,,,PF,8,strong,,,,,,,,3,1.73936,,,,,,,,,,,,,,,,,,,,,,,,,,,,1,strong,-50,-69,1,0,0,response5disk,5,160,-23,-19,1,0,0,rectangle,-23,-19,1,0,0,4,3,0.000595,-23,-19,1,0,0,0,159,159,82,1,0,,,,,,,,,,,,,,,,,,,,,
,,,,,,,,,,,,,,,,,,,,,,,,,,,,,,,,,,,,,,,,,,5fe100d9ece28c2fa6e9a5a1,606a130817d5d51493dda7de,2021-04-04_20h27.21.043,Colour_Similarity_Experiment,2020.2.10,Win32,60,60675255c767bca6388caeee,6.173654618,6.067036182,6.062795572,6.08311939,6.062575576,6.067036182,,,,,,,,,,,,,,,,,,,,PF,8,strong,,,,,,,,5,2.749455,,,,,,,,,,,,,,,,,,,,,,,,,,,,5,strong,110,-77,1,0,0,response3disk,9,161,5,-16,1,0,0,rectangle,5,-16,1,0,0,4,2,0.000785,5,-16,1,0,0,0,160,160,61,1,0,,,,,,,,,,,,,,,,,,,,,
,,,,,,,,,,,,,,,,,,,,,,,,,,,,,,,,,,,,,,,,,,5fe100d9ece28c2fa6e9a5a1,606a130817d5d51493dda7de,2021-04-04_20h27.21.043,Colour_Similarity_Experiment,2020.2.10,Win32,60,60675255c767bca6388caeee,6.173654618,6.067036182,6.062795572,6.08311939,6.062575576,6.067036182,,,,,,,,,,,,,,,,,,,,PF,8,weak,,,,,,,,5,1.20567,,,,,,,,,,,,,,,,,,,,,,,,,,,,9,weak,95,-57,1,0,0,response3disk,6,162,-7,-8,1,0,0,rectangle,-7,-8,1,0,0,4,4,0.00056,-7,-8,1,0,0,0,161,161,148,1,0,,,,,,,,,,,,,,,,,,,,,
,,,,,,,,,,,,,,,,,,,,,,,,,,,,,,,,,,,,,,,,,,5fe100d9ece28c2fa6e9a5a1,606a130817d5d51493dda7de,2021-04-04_20h27.21.043,Colour_Similarity_Experiment,2020.2.10,Win32,60,60675255c767bca6388caeee,6.173654618,6.067036182,6.062795572,6.08311939,6.062575576,6.067036182,,,,,,,,,,,,,,,,,,,,,,,,,,,,,,,,,,,,,,,,,,,,,,,,,,,,,,,,,,,,,,,,,,,,,,,,,,,,,,,,,,,,,,,,,,,,,,,,0,0,0,0,1,,,,,,,,,,,,,,
,,,,,,,,,,,,,,,,,,,,,,,,,,,,,,,,,,,,,,,,,,5fe100d9ece28c2fa6e9a5a1,606a130817d5d51493dda7de,2021-04-04_20h27.21.043,Colour_Similarity_Experiment,2020.2.10,Win32,60,60675255c767bca6388caeee,6.173654618,6.067036182,6.062795572,6.08311939,6.062575576,6.067036182,,,,,,,,,,,,,,,,,,,,PF,8,strong,,,,,,,,6,1.179755,,,,,,,,,,,,,,,,,,,,,,,,,,,,3,strong,122,46,1,0,0,response1disk,7,163,25,16,1,0,0,rectangle,25,16,1,0,0,4,5,0.00077,25,16,1,0,0,0,0,0,118,1,0,,,,,,,,,,,,,,,,,,,,,
,,,,,,,,,,,,,,,,,,,,,,,,,,,,,,,,,,,,,,,,,,5fe100d9ece28c2fa6e9a5a1,606a130817d5d51493dda7de,2021-04-04_20h27.21.043,Colour_Similarity_Experiment,2020.2.10,Win32,60,60675255c767bca6388caeee,6.173654618,6.067036182,6.062795572,6.08311939,6.062575576,6.067036182,,,,,,,,,,,,,,,,,,,,PF,8,weak,,,,,,,,5,1.858565,,,,,,,,,,,,,,,,,,,,,,,,,,,,6,weak,96,-81,1,0,0,response3disk,1,164,-3,2,1,0,0,rectangle,-3,2,1,0,0,4,6,0.000735,-3,2,1,0,0,0,1,1,46,1,0,,,,,,,,,,,,,,,,,,,,,
,,,,,,,,,,,,,,,,,,,,,,,,,,,,,,,,,,,,,,,,,,5fe100d9ece28c2fa6e9a5a1,606a130817d5d51493dda7de,2021-04-04_20h27.21.043,Colour_Similarity_Experiment,2020.2.10,Win32,60,60675255c767bca6388caeee,6.173654618,6.067036182,6.062795572,6.08311939,6.062575576,6.067036182,,,,,,,,,,,,,,,,,,,,PF,8,strong,,,,,,,,2,1.276795,,,,,,,,,,,,,,,,,,,,,,,,,,,,3,strong,-84,-57,1,0,0,response5disk,3,165,27,5,1,0,0,rectangle,27,5,1,0,0,4,0,0.00081,27,5,1,0,0,0,2,2,68,1,0,,,,,,,,,,,,,,,,,,,,,
,,,,,,,,,,,,,,,,,,,,,,,,,,,,,,,,,,,,,,,,,,5fe100d9ece28c2fa6e9a5a1,606a130817d5d51493dda7de,2021-04-04_20h27.21.043,Colour_Similarity_Experiment,2020.2.10,Win32,60,60675255c767bca6388caeee,6.173654618,6.067036182,6.062795572,6.08311939,6.062575576,6.067036182,,,,,,,,,,,,,,,,,,,,PF,8,weak,,,,,,,,5,1.139345,,,,,,,,,,,,,,,,,,,,,,,,,,,,9,weak,86,-59,1,0,0,response3disk,3,166,16,-9,1,0,0,rectangle,16,-9,1,0,0,4,5,0.00058,16,-9,1,0,0,0,3,3,119,1,0,,,,,,,,,,,,,,,,,,,,,
,,,,,,,,,,,,,,,,,,,,,,,,,,,,,,,,,,,,,,,,,,5fe100d9ece28c2fa6e9a5a1,606a130817d5d51493dda7de,2021-04-04_20h27.21.043,Colour_Similarity_Experiment,2020.2.10,Win32,60,60675255c767bca6388caeee,6.173654618,6.067036182,6.062795572,6.08311939,6.062575576,6.067036182,,,,,,,,,,,,,,,,,,,,PF,8,weak,,,,,,,,4,1.05272,,,,,,,,,,,,,,,,,,,,,,,,,,,,3,weak,42,-70,1,0,0,response3disk,4,167,6,-5,1,0,0,rectangle,6,-5,1,0,0,4,2,0.000575,6,-5,1,0,0,0,4,4,30,1,0,,,,,,,,,,,,,,,,,,,,,
,,,,,,,,,,,,,,,,,,,,,,,,,,,,,,,,,,,,,,,,,,5fe100d9ece28c2fa6e9a5a1,606a130817d5d51493dda7de,2021-04-04_20h27.21.043,Colour_Similarity_Experiment,2020.2.10,Win32,60,60675255c767bca6388caeee,6.173654618,6.067036182,6.062795572,6.08311939,6.062575576,6.067036182,,,,,,,,,,,,,,,,,,,,PF,8,weak,,,,,,,,3,1.04032,,,,,,,,,,,,,,,,,,,,,,,,,,,,3,weak,-34,-65,1,0,0,response5disk,9,168,4,13,1,0,0,rectangle,4,13,1,0,0,4,4,0.000565,4,13,1,0,0,0,5,5,79,1,0,,,,,,,,,,,,,,,,,,,,,
,,,,,,,,,,,,,,,,,,,,,,,,,,,,,,,,,,,,,,,,,,5fe100d9ece28c2fa6e9a5a1,606a130817d5d51493dda7de,2021-04-04_20h27.21.043,Colour_Similarity_Experiment,2020.2.10,Win32,60,60675255c767bca6388caeee,6.173654618,6.067036182,6.062795572,6.08311939,6.062575576,6.067036182,,,,,,,,,,,,,,,,,,,,PF,8,strong,,,,,,,,5,1.34544,,,,,,,,,,,,,,,,,,,,,,,,,,,,3,strong,71,-61,1,0,0,response3disk,4,169,0,-3,1,0,0,rectangle,0,-3,1,0,0,4,1,0.000885,0,-3,1,0,0,0,6,6,110,1,0,,,,,,,,,,,,,,,,,,,,,
,,,,,,,,,,,,,,,,,,,,,,,,,,,,,,,,,,,,,,,,,,5fe100d9ece28c2fa6e9a5a1,606a130817d5d51493dda7de,2021-04-04_20h27.21.043,Colour_Similarity_Experiment,2020.2.10,Win32,60,60675255c767bca6388caeee,6.173654618,6.067036182,6.062795572,6.08311939,6.062575576,6.067036182,,,,,,,,,,,,,,,,,,,,PF,8,weak,,,,,,,,3,1.015995,,,,,,,,,,,,,,,,,,,,,,,,,,,,2,weak,-58,-70,1,0,0,response5disk,8,170,-3,-2,1,0,0,rectangle,-3,-2,1,0,0,4,1,8.51E-05,-3,-2,1,0,0,0,7,7,52,1,0,,,,,,,,,,,,,,,,,,,,,
,,,,,,,,,,,,,,,,,,,,,,,,,,,,,,,,,,,,,,,,,,5fe100d9ece28c2fa6e9a5a1,606a130817d5d51493dda7de,2021-04-04_20h27.21.043,Colour_Similarity_Experiment,2020.2.10,Win32,60,60675255c767bca6388caeee,6.173654618,6.067036182,6.062795572,6.08311939,6.062575576,6.067036182,,,,,,,,,,,,,,,,,,,,PF,8,strong,,,,,,,,3,1.17991,,,,,,,,,,,,,,,,,,,,,,,,,,,,8,strong,-36,-70,1,0,0,response5disk,3,171,-1,-14,1,0,0,rectangle,-1,-14,1,0,0,4,5,0.00063,-1,-14,1,0,0,0,8,8,154,1,0,,,,,,,,,,,,,,,,,,,,,
,,,,,,,,,,,,,,,,,,,,,,,,,,,,,,,,,,,,,,,,,,5fe100d9ece28c2fa6e9a5a1,606a130817d5d51493dda7de,2021-04-04_20h27.21.043,Colour_Similarity_Experiment,2020.2.10,Win32,60,60675255c767bca6388caeee,6.173654618,6.067036182,6.062795572,6.08311939,6.062575576,6.067036182,,,,,,,,,,,,,,,,,,,,PF,8,strong,,,,,,,,5,0.94545,,,,,,,,,,,,,,,,,,,,,,,,,,,,8,strong,73,-50,1,0,0,response3disk,1,172,-4,-10,1,0,0,rectangle,-4,-10,1,0,0,4,4,0.00064,-4,-10,1,0,0,0,9,9,20,1,0,,,,,,,,,,,,,,,,,,,,,
,,,,,,,,,,,,,,,,,,,,,,,,,,,,,,,,,,,,,,,,,,5fe100d9ece28c2fa6e9a5a1,606a130817d5d51493dda7de,2021-04-04_20h27.21.043,Colour_Similarity_Experiment,2020.2.10,Win32,60,60675255c767bca6388caeee,6.173654618,6.067036182,6.062795572,6.08311939,6.062575576,6.067036182,,,,,,,,,,,,,,,,,,,,PF,8,strong,,,,,,,,4,1.74314,,,,,,,,,,,,,,,,,,,,,,,,,,,,6,strong,63,-106,1,0,0,response3disk,6,173,2,0,1,0,0,rectangle,2,0,1,0,0,4,6,0.00064,2,0,1,0,0,0,10,10,91,1,0,,,,,,,,,,,,,,,,,,,,,
,,,,,,,,,,,,,,,,,,,,,,,,,,,,,,,,,,,,,,,,,,5fe100d9ece28c2fa6e9a5a1,606a130817d5d51493dda7de,2021-04-04_20h27.21.043,Colour_Similarity_Experiment,2020.2.10,Win32,60,60675255c767bca6388caeee,6.173654618,6.067036182,6.062795572,6.08311939,6.062575576,6.067036182,,,,,,,,,,,,,,,,,,,,PF,8,strong,,,,,,,,2,1.47261,,,,,,,,,,,,,,,,,,,,,,,,,,,,8,strong,-107,-60,1,0,0,response5disk,9,174,-6,-12,1,0,0,rectangle,-6,-12,1,0,0,4,1,0.00057,-6,-12,1,0,0,0,11,11,105,1,0,,,,,,,,,,,,,,,,,,,,,
,,,,,,,,,,,,,,,,,,,,,,,,,,,,,,,,,,,,,,,,,,5fe100d9ece28c2fa6e9a5a1,606a130817d5d51493dda7de,2021-04-04_20h27.21.043,Colour_Similarity_Experiment,2020.2.10,Win32,60,60675255c767bca6388caeee,6.173654618,6.067036182,6.062795572,6.08311939,6.062575576,6.067036182,,,,,,,,,,,,,,,,,,,,PF,8,strong,,,,,,,,5,1.228415,,,,,,,,,,,,,,,,,,,,,,,,,,,,2,strong,58,-49,1,0,0,response3disk,8,175,-38,-14,1,0,0,rectangle,-38,-14,1,0,0,4,0,0.00065,-38,-14,1,0,0,0,12,12,62,1,0,,,,,,,,,,,,,,,,,,,,,
,,,,,,,,,,,,,,,,,,,,,,,,,,,,,,,,,,,,,,,,,,5fe100d9ece28c2fa6e9a5a1,606a130817d5d51493dda7de,2021-04-04_20h27.21.043,Colour_Similarity_Experiment,2020.2.10,Win32,60,60675255c767bca6388caeee,6.173654618,6.067036182,6.062795572,6.08311939,6.062575576,6.067036182,,,,,,,,,,,,,,,,,,,,PF,8,weak,,,,,,,,4,1.00585,,,,,,,,,,,,,,,,,,,,,,,,,,,,2,weak,80,-95,1,0,0,response3disk,1,176,21,-16,1,0,0,rectangle,21,-16,1,0,0,4,2,0.000675,21,-16,1,0,0,0,13,13,9,1,0,,,,,,,,,,,,,,,,,,,,,
,,,,,,,,,,,,,,,,,,,,,,,,,,,,,,,,,,,,,,,,,,5fe100d9ece28c2fa6e9a5a1,606a130817d5d51493dda7de,2021-04-04_20h27.21.043,Colour_Similarity_Experiment,2020.2.10,Win32,60,60675255c767bca6388caeee,6.173654618,6.067036182,6.062795572,6.08311939,6.062575576,6.067036182,,,,,,,,,,,,,,,,,,,,PF,8,weak,,,,,,,,4,0.84849,,,,,,,,,,,,,,,,,,,,,,,,,,,,9,weak,44,-99,1,0,0,response3disk,4,177,1,-11,1,0,0,rectangle,1,-11,1,0,0,4,2,9E-05,1,-11,1,0,0,0,14,14,114,1,0,,,,,,,,,,,,,,,,,,,,,
,,,,,,,,,,,,,,,,,,,,,,,,,,,,,,,,,,,,,,,,,,5fe100d9ece28c2fa6e9a5a1,606a130817d5d51493dda7de,2021-04-04_20h27.21.043,Colour_Similarity_Experiment,2020.2.10,Win32,60,60675255c767bca6388caeee,6.173654618,6.067036182,6.062795572,6.08311939,6.062575576,6.067036182,,,,,,,,,,,,,,,,,,,,PF,8,weak,,,,,,,,4,1.084455,,,,,,,,,,,,,,,,,,,,,,,,,,,,3,weak,68,-107,1,0,0,response3disk,8,178,15,-4,1,0,0,rectangle,15,-4,1,0,0,4,0,0.00083,15,-4,1,0,0,0,15,15,3,1,0,,,,,,,,,,,,,,,,,,,,,
,,,,,,,,,,,,,,,,,,,,,,,,,,,,,,,,,,,,,,,,,,5fe100d9ece28c2fa6e9a5a1,606a130817d5d51493dda7de,2021-04-04_20h27.21.043,Colour_Similarity_Experiment,2020.2.10,Win32,60,60675255c767bca6388caeee,6.173654618,6.067036182,6.062795572,6.08311939,6.062575576,6.067036182,,,,,,,,,,,,,,,,,,,,PF,8,weak,,,,,,,,3,0.888555,,,,,,,,,,,,,,,,,,,,,,,,,,,,7,weak,-38,-97,1,0,0,response5disk,7,179,7,-8,1,0,0,rectangle,7,-8,1,0,0,4,2,0.000565,7,-8,1,0,0,0,16,16,51,1,0,,,,,,,,,,,,,,,,,,,,,
,,,,,,,,,,,,,,,,,,,,,,,,,,,,,,,,,,,,,,,,,,5fe100d9ece28c2fa6e9a5a1,606a130817d5d51493dda7de,2021-04-04_20h27.21.043,Colour_Similarity_Experiment,2020.2.10,Win32,60,60675255c767bca6388caeee,6.173654618,6.067036182,6.062795572,6.08311939,6.062575576,6.067036182,,,,,,,,,,,,,,,,,,,,PF,8,weak,,,,,,,,4,0.682685,,,,,,,,,,,,,,,,,,,,,,,,,,,,3,weak,66,-105,1,0,0,response3disk,6,180,16,-12,1,0,0,rectangle,16,-12,1,0,0,4,7,0.00055,16,-12,1,0,0,0,17,17,47,1,0,,,,,,,,,,,,,,,,,,,,,
,,,,,,,,,,,,,,,,,,,,,,,,,,,,,,,,,,,,,,,,,,5fe100d9ece28c2fa6e9a5a1,606a130817d5d51493dda7de,2021-04-04_20h27.21.043,Colour_Similarity_Experiment,2020.2.10,Win32,60,60675255c767bca6388caeee,6.173654618,6.067036182,6.062795572,6.08311939,6.062575576,6.067036182,,,,,,,,,,,,,,,,,,,,PF,8,strong,,,,,,,,4,0.666525,,,,,,,,,,,,,,,,,,,,,,,,,,,,6,strong,35,-71,1,0,0,response3disk,2,181,-12,4,1,0,0,rectangle,-12,4,1,0,0,4,2,0.000705,-12,4,1,0,0,0,18,18,112,1,0,,,,,,,,,,,,,,,,,,,,,
,,,,,,,,,,,,,,,,,,,,,,,,,,,,,,,,,,,,,,,,,,5fe100d9ece28c2fa6e9a5a1,606a130817d5d51493dda7de,2021-04-04_20h27.21.043,Colour_Similarity_Experiment,2020.2.10,Win32,60,60675255c767bca6388caeee,6.173654618,6.067036182,6.062795572,6.08311939,6.062575576,6.067036182,,,,,,,,,,,,,,,,,,,,PF,8,weak,,,,,,,,4,1.919105,,,,,,,,,,,,,,,,,,,,,,,,,,,,5,weak,32,-44,1,0,0,response3disk,7,182,3,3,1,0,0,rectangle,3,3,1,0,0,4,7,0.000545,3,3,1,0,0,0,19,19,146,1,0,,,,,,,,,,,,,,,,,,,,,
,,,,,,,,,,,,,,,,,,,,,,,,,,,,,,,,,,,,,,,,,,5fe100d9ece28c2fa6e9a5a1,606a130817d5d51493dda7de,2021-04-04_20h27.21.043,Colour_Similarity_Experiment,2020.2.10,Win32,60,60675255c767bca6388caeee,6.173654618,6.067036182,6.062795572,6.08311939,6.062575576,6.067036182,,,,,,,,,,,,,,,,,,,,PF,8,weak,,,,,,,,3,0.76752,,,,,,,,,,,,,,,,,,,,,,,,,,,,7,weak,-29,-68,1,0,0,response5disk,4,183,-5,-1,1,0,0,rectangle,-5,-1,1,0,0,4,7,8.51E-05,-5,-1,1,0,0,0,20,20,43,1,0,,,,,,,,,,,,,,,,,,,,,
,,,,,,,,,,,,,,,,,,,,,,,,,,,,,,,,,,,,,,,,,,5fe100d9ece28c2fa6e9a5a1,606a130817d5d51493dda7de,2021-04-04_20h27.21.043,Colour_Similarity_Experiment,2020.2.10,Win32,60,60675255c767bca6388caeee,6.173654618,6.067036182,6.062795572,6.08311939,6.062575576,6.067036182,,,,,,,,,,,,,,,,,,,,PF,8,weak,,,,,,,,4,0.97555,,,,,,,,,,,,,,,,,,,,,,,,,,,,5,weak,27,-32,1,0,0,response3disk,2,184,3,3,1,0,0,rectangle,3,3,1,0,0,4,4,0.000905,3,3,1,0,0,0,21,21,129,1,0,,,,,,,,,,,,,,,,,,,,,
,,,,,,,,,,,,,,,,,,,,,,,,,,,,,,,,,,,,,,,,,,5fe100d9ece28c2fa6e9a5a1,606a130817d5d51493dda7de,2021-04-04_20h27.21.043,Colour_Similarity_Experiment,2020.2.10,Win32,60,60675255c767bca6388caeee,6.173654618,6.067036182,6.062795572,6.08311939,6.062575576,6.067036182,,,,,,,,,,,,,,,,,,,,PF,8,weak,,,,,,,,3,0.82426,,,,,,,,,,,,,,,,,,,,,,,,,,,,8,weak,-38,-50,1,0,0,response5disk,6,185,-13,-6,1,0,0,rectangle,-94,-40,1,0,0,4,2,1.248995,-21,6,1,0,0,0,22,22,161,1,1,response5disk_3,rectangle,,,,,,,,,,,,,,,,,,,
,,,,,,,,,,,,,,,,,,,,,,,,,,,,,,,,,,,,,,,,,,5fe100d9ece28c2fa6e9a5a1,606a130817d5d51493dda7de,2021-04-04_20h27.21.043,Colour_Similarity_Experiment,2020.2.10,Win32,60,60675255c767bca6388caeee,6.173654618,6.067036182,6.062795572,6.08311939,6.062575576,6.067036182,,,,,,,,,,,,,,,,,,,,PF,8,strong,,,,,,,,4,0.83306,,,,,,,,,,,,,,,,,,,,,,,,,,,,7,strong,32,-61,1,0,0,response3disk,7,186,7,-21,1,0,0,rectangle,7,-21,1,0,0,4,6,0.000795,7,-21,1,0,0,0,23,23,34,1,0,,,,,,,,,,,,,,,,,,,,,
,,,,,,,,,,,,,,,,,,,,,,,,,,,,,,,,,,,,,,,,,,5fe100d9ece28c2fa6e9a5a1,606a130817d5d51493dda7de,2021-04-04_20h27.21.043,Colour_Similarity_Experiment,2020.2.10,Win32,60,60675255c767bca6388caeee,6.173654618,6.067036182,6.062795572,6.08311939,6.062575576,6.067036182,,,,,,,,,,,,,,,,,,,,PF,8,weak,,,,,,,,3,0.755515,,,,,,,,,,,,,,,,,,,,,,,,,,,,7,weak,-37,-57,1,0,0,response5disk,2,187,-18,4,1,0,0,rectangle,-18,4,1,0,0,4,2,0.00072,-18,4,1,0,0,0,24,24,32,1,0,,,,,,,,,,,,,,,,,,,,,
,,,,,,,,,,,,,,,,,,,,,,,,,,,,,,,,,,,,,,,,,,5fe100d9ece28c2fa6e9a5a1,606a130817d5d51493dda7de,2021-04-04_20h27.21.043,Colour_Similarity_Experiment,2020.2.10,Win32,60,60675255c767bca6388caeee,6.173654618,6.067036182,6.062795572,6.08311939,6.062575576,6.067036182,,,,,,,,,,,,,,,,,,,,PF,8,weak,,,,,,,,4,1.012045,,,,,,,,,,,,,,,,,,,,,,,,,,,,5,weak,31,-48,1,0,0,response3disk,9,188,-3,3,1,0,0,rectangle,-125,-43,1,0,0,4,2,1.036385,31,16,1,0,0,0,25,25,136,1,1,response5disk_3,rectangle,,,,,,,,,,,,,,,,,,,
,,,,,,,,,,,,,,,,,,,,,,,,,,,,,,,,,,,,,,,,,,5fe100d9ece28c2fa6e9a5a1,606a130817d5d51493dda7de,2021-04-04_20h27.21.043,Colour_Similarity_Experiment,2020.2.10,Win32,60,60675255c767bca6388caeee,6.173654618,6.067036182,6.062795572,6.08311939,6.062575576,6.067036182,,,,,,,,,,,,,,,,,,,,PF,8,weak,,,,,,,,4,1.875815,,,,,,,,,,,,,,,,,,,,,,,,,,,,4,weak,30,-49,1,0,0,response3disk,4,189,22,-9,1,0,0,rectangle,22,-9,1,0,0,4,7,0.000815,22,-9,1,0,0,0,26,26,70,1,0,,,,,,,,,,,,,,,,,,,,,
,,,,,,,,,,,,,,,,,,,,,,,,,,,,,,,,,,,,,,,,,,5fe100d9ece28c2fa6e9a5a1,606a130817d5d51493dda7de,2021-04-04_20h27.21.043,Colour_Similarity_Experiment,2020.2.10,Win32,60,60675255c767bca6388caeee,6.173654618,6.067036182,6.062795572,6.08311939,6.062575576,6.067036182,,,,,,,,,,,,,,,,,,,,PF,8,weak,,,,,,,,3,0.93718,,,,,,,,,,,,,,,,,,,,,,,,,,,,2,weak,-27,-63,1,0,0,response5disk,6,190,-3,-16,1,0,0,rectangle,-3,-16,1,0,0,4,6,0.00066,-3,-16,1,0,0,0,27,27,113,1,0,,,,,,,,,,,,,,,,,,,,,
,,,,,,,,,,,,,,,,,,,,,,,,,,,,,,,,,,,,,,,,,,5fe100d9ece28c2fa6e9a5a1,606a130817d5d51493dda7de,2021-04-04_20h27.21.043,Colour_Similarity_Experiment,2020.2.10,Win32,60,60675255c767bca6388caeee,6.173654618,6.067036182,6.062795572,6.08311939,6.062575576,6.067036182,,,,,,,,,,,,,,,,,,,,PF,8,weak,,,,,,,,4,1.441235,,,,,,,,,,,,,,,,,,,,,,,,,,,,5,weak,34,-41,1,0,0,response3disk,3,191,20,-4,1,0,0,rectangle,20,-4,1,0,0,4,0,0.00055,20,-4,1,0,0,0,28,28,109,1,0,,,,,,,,,,,,,,,,,,,,,
,,,,,,,,,,,,,,,,,,,,,,,,,,,,,,,,,,,,,,,,,,5fe100d9ece28c2fa6e9a5a1,606a130817d5d51493dda7de,2021-04-04_20h27.21.043,Colour_Similarity_Experiment,2020.2.10,Win32,60,60675255c767bca6388caeee,6.173654618,6.067036182,6.062795572,6.08311939,6.062575576,6.067036182,,,,,,,,,,,,,,,,,,,,PF,8,strong,,,,,,,,3,1.27075,,,,,,,,,,,,,,,,,,,,,,,,,,,,4,strong,-32,-46,1,0,0,response5disk,8,192,-12,-12,1,0,0,rectangle,-12,-12,1,0,0,4,7,0.00063,-12,-12,1,0,0,0,29,29,35,1,0,,,,,,,,,,,,,,,,,,,,,
,,,,,,,,,,,,,,,,,,,,,,,,,,,,,,,,,,,,,,,,,,5fe100d9ece28c2fa6e9a5a1,606a130817d5d51493dda7de,2021-04-04_20h27.21.043,Colour_Similarity_Experiment,2020.2.10,Win32,60,60675255c767bca6388caeee,6.173654618,6.067036182,6.062795572,6.08311939,6.062575576,6.067036182,,,,,,,,,,,,,,,,,,,,PF,8,weak,,,,,,,,5,1.131165,,,,,,,,,,,,,,,,,,,,,,,,,,,,8,weak,90,-43,1,0,0,response3disk,1,193,15,-8,1,0,0,rectangle,15,-8,1,0,0,4,0,0.0007,15,-8,1,0,0,0,30,30,57,1,0,,,,,,,,,,,,,,,,,,,,,
