key_resp.keys,key_resp.rt,key_resp_16.keys,key_resp_16.rt,key_resp_2.keys,key_resp_2.rt,X Scale,ratio_pxpermm,screen_size_x,screen_size_y,testsize,key_resp_3.keys,key_resp_4.keys,key_resp_4.rt,line_size,key_resp_5.keys,key_resp_5.rt,key_resp_6.keys,key_resp_6.rt,key_resp_8.keys,key_resp_8.rt,key_resp_7.keys,key_resp_7.rt,key_resp_12.keys,key_resp_12.rt,key_resp_11.keys,key_resp_11.rt,key_resp_18.keys,key_resp_18.rt,key_resp_21.keys,key_resp_21.rt,key_resp_13.keys,key_resp_13.rt,key_resp_19.keys,key_resp_19.rt,ballposx,viewer_distance,trials.thisRepN,trials.thisTrialN,trials.thisN,trials.thisIndex,trials.ran,participant,session,date,expName,psychopyVersion,OS,frameRate,study_id,realFrameRate1,realFrameRate2,realFrameRate3,realFrameRate4,realFrameRate5,realFrameRate,viewerdistancecm,DVA_to_distance,radius_F,radius_P,r_F,R_P,key_resp_20.keys,key_resp_20.rt,key_resp_14.keys,key_resp_14.rt,key_resp_15.keys,key_resp_15.rt,key_resp_17.keys,key_resp_17.rt,key_resp_9.keys,key_resp_9.rt,key_resp_10.keys,key_resp_10.rt,Colour_1,Ecc,mask_frames,maskCon,mouse_5.x,mouse_5.y,mouse_5.leftButton,mouse_5.midButton,mouse_5.rightButton,mouse_5.clicked_name,Colour_2,similarity,response_time,mouse_10.x,mouse_10.y,mouse_10.leftButton,mouse_10.midButton,mouse_10.rightButton,mouse_10.clicked_name,mouse_7.x,mouse_7.y,mouse_7.leftButton,mouse_7.midButton,mouse_7.rightButton,mouse_7.clicked_name,catchprac,catchnumberprac,mouse_6.x,mouse_6.y,mouse_6.leftButton,mouse_6.midButton,mouse_6.rightButton,mouse_6.clicked_name,duringprac.thisRepN,duringprac.thisTrialN,duringprac.thisN,duringprac.thisIndex,duringprac.ran,key_resp_22.keys,key_resp_22.rt,Colour1,maskCon1,mouse.x,mouse.y,mouse.leftButton,mouse.midButton,mouse.rightButton,mouse.clicked_name,Colour2,trialnumber,mouse_2.x,mouse_2.y,mouse_2.leftButton,mouse_2.midButton,mouse_2.rightButton,mouse_2.clicked_name,mouse_3.x,mouse_3.y,mouse_3.leftButton,mouse_3.midButton,mouse_3.rightButton,catchresponse,catchnumber,response_time_catch,mouse_11.x,mouse_11.y,mouse_11.leftButton,mouse_11.midButton,mouse_11.rightButton,trials_2.thisRepN,trials_2.thisTrialN,trials_2.thisN,trials_2.thisIndex,trials_2.ran,Catch,mouse_3.clicked_name,mouse_11.clicked_name,trials_3.thisRepN,trials_3.thisTrialN,trials_3.thisN,trials_3.thisIndex,trials_3.ran,answer1,rt1,answer2,rt2,answer3,rt3,answer4,rt4,answer5,rt5,answer6,rt6,answer7,rt7
space,8.756,space,19.406,space,6.854,42.4,4.24,301.8867925,169.8113208,1280,,space,11.851,84.8,space,17.882,space,4.584,space,1.579,space,5.847,space,26.078,space,24.097,space,32.27,space,21.012,space,15.157,return,5.65,-172.8,672.7354578,0,0,0,0,1,5ff040139cc6b3ee87f4af58,606a0fd3c8e677356aece9be,2021-04-04_21h13.50.880,Colour_Similarity_Experiment,2020.2.10,Win32,60,60675255c767bca6388caeee,17.08399366,16.81001727,16.74576271,16.76868829,16.73613445,16.76868829,,,,,,,,,,,,,,,,,,,,,,,,,,,,,,,,,,,,,,,,,,,,,,,,,,,,,,,,,,,,,,,,,,,,,,,,,,,,,,,,,,,,,,,,,,,,,,,,,,,,,,,,,,,,,,,,,,
,,,,,,,,,,,,,,,,,,,,,,,,,,,,,,,,,return,5.259,-128.64,629.3534517,1,0,1,0,1,5ff040139cc6b3ee87f4af58,606a0fd3c8e677356aece9be,2021-04-04_21h13.50.880,Colour_Similarity_Experiment,2020.2.10,Win32,60,60675255c767bca6388caeee,17.08399366,16.81001727,16.74576271,16.76868829,16.73613445,16.76868829,,,,,,,,,,,,,,,,,,,,,,,,,,,,,,,,,,,,,,,,,,,,,,,,,,,,,,,,,,,,,,,,,,,,,,,,,,,,,,,,,,,,,,,,,,,,,,,,,,,,,,,,,,,,,,,,,,
,,,,,,,,,,,,,,,,,,,,,,,,,,,,,,,,,return,5.289,-132.48,633.1258,2,0,2,0,1,5ff040139cc6b3ee87f4af58,606a0fd3c8e677356aece9be,2021-04-04_21h13.50.880,Colour_Similarity_Experiment,2020.2.10,Win32,60,60675255c767bca6388caeee,17.08399366,16.81001727,16.74576271,16.76868829,16.73613445,16.76868829,,,,,,,,,,,,,,,,,,,,,,,,,,,,,,,,,,,,,,,,,,,,,,,,,,,,,,,,,,,,,,,,,,,,,,,,,,,,,,,,,,,,,,,,,,,,,,,,,,,,,,,,,,,,,,,,,,
,,,,,,,,,,,,,,,,,,,,,,,,,,,,,,,,,return,5.406,-145.92,646.3290193,3,0,3,0,1,5ff040139cc6b3ee87f4af58,606a0fd3c8e677356aece9be,2021-04-04_21h13.50.880,Colour_Similarity_Experiment,2020.2.10,Win32,60,60675255c767bca6388caeee,17.08399366,16.81001727,16.74576271,16.76868829,16.73613445,16.76868829,,,,,,,,,,,,,,,,,,,,,,,,,,,,,,,,,,,,,,,,,,,,,,,,,,,,,,,,,,,,,,,,,,,,,,,,,,,,,,,,,,,,,,,,,,,,,,,,,,,,,,,,,,,,,,,,,,
,,,,,,,,,,,,,,,,,,,,,,,,,,,,,,,,,return,5.407,-144,644.4428451,4,0,4,0,1,5ff040139cc6b3ee87f4af58,606a0fd3c8e677356aece9be,2021-04-04_21h13.50.880,Colour_Similarity_Experiment,2020.2.10,Win32,60,60675255c767bca6388caeee,17.08399366,16.81001727,16.74576271,16.76868829,16.73613445,16.76868829,,,,,,,,,,,,,,,,,,,,,,,,,,,,,,,,,,,,,,,,,,,,,,,,,,,,,,,,,,,,,,,,,,,,,,,,,,,,,,,,,,,,,,,,,,,,,,,,,,,,,,,,,,,,,,,,,,
,,,,,,,,,,,,,,,,,,,,,,,,,,,,,,,,,,,,,,,,,,5ff040139cc6b3ee87f4af58,606a0fd3c8e677356aece9be,2021-04-04_21h13.50.880,Colour_Similarity_Experiment,2020.2.10,Win32,60,60675255c767bca6388caeee,17.08399366,16.81001727,16.74576271,16.76868829,16.73613445,16.76868829,64,11.17123756,71.04907087,473.6604725,47.36604725,213.1472126,space,7.958,space,16.745,space,34.888,space,16.029,space,3.646,space,5.108,6,PF,3,strong,-29,95,1,0,0,response7disk_5,6,0,12.991,-5,5,1,0,0,rectangle_8,-42,-82,1,0,0,response5disk_7,3,3,2,-3,1,0,0,rectangle_4,0,0,0,0,1,,,,,,,,,,,,,,,,,,,,,,,,,,,,,,,,,,,,,,,,,,,,,,,,,,,,,,,,,,
,,,,,,,,,,,,,,,,,,,,,,,,,,,,,,,,,,,,,,,,,,5ff040139cc6b3ee87f4af58,606a0fd3c8e677356aece9be,2021-04-04_21h13.50.880,Colour_Similarity_Experiment,2020.2.10,Win32,60,60675255c767bca6388caeee,17.08399366,16.81001727,16.74576271,16.76868829,16.73613445,16.76868829,,,,,,,,,,,,,,,,,,,7,PF,3,weak,41,85,1,0,0,response1disk_5,4,7,10.741,-9,1,1,0,0,rectangle_8,-37,-63,1,0,0,response5disk_7,3,3,-7,5,1,0,0,rectangle_4,0,1,1,5,1,,,,,,,,,,,,,,,,,,,,,,,,,,,,,,,,,,,,,,,,,,,,,,,,,,,,,,,,,,
,,,,,,,,,,,,,,,,,,,,,,,,,,,,,,,,,,,,,,,,,,5ff040139cc6b3ee87f4af58,606a0fd3c8e677356aece9be,2021-04-04_21h13.50.880,Colour_Similarity_Experiment,2020.2.10,Win32,60,60675255c767bca6388caeee,17.08399366,16.81001727,16.74576271,16.76868829,16.73613445,16.76868829,,,,,,,,,,,,,,,,,,,6,PF,3,strong,25,-79,1,0,0,response3disk_5,5,4,7.078,-7,1,1,0,0,rectangle_8,-7,1,1,0,0,,,3,-7,1,1,0,0,,0,2,2,3,1,,,,,,,,,,,,,,,,,,,,,,,,,,,,,,,,,,,,,,,,,,,,,,,,,,,,,,,,,,
,,,,,,,,,,,,,,,,,,,,,,,,,,,,,,,,,,,,,,,,,,5ff040139cc6b3ee87f4af58,606a0fd3c8e677356aece9be,2021-04-04_21h13.50.880,Colour_Similarity_Experiment,2020.2.10,Win32,60,60675255c767bca6388caeee,17.08399366,16.81001727,16.74576271,16.76868829,16.73613445,16.76868829,,,,,,,,,,,,,,,,,,,7,PF,3,weak,-30,81,1,0,0,response7disk_5,2,0,3.181,-11,5,1,0,0,rectangle_8,-11,5,1,0,0,,,3,-11,5,1,0,0,,0,3,3,6,1,,,,,,,,,,,,,,,,,,,,,,,,,,,,,,,,,,,,,,,,,,,,,,,,,,,,,,,,,,
,,,,,,,,,,,,,,,,,,,,,,,,,,,,,,,,,,,,,,,,,,5ff040139cc6b3ee87f4af58,606a0fd3c8e677356aece9be,2021-04-04_21h13.50.880,Colour_Similarity_Experiment,2020.2.10,Win32,60,60675255c767bca6388caeee,17.08399366,16.81001727,16.74576271,16.76868829,16.73613445,16.76868829,,,,,,,,,,,,,,,,,,,2,PF,3,strong,38,97,1,0,0,response1disk_5,3,7,4.047,-1,1,1,0,0,rectangle_8,-1,1,1,0,0,,,3,-1,1,1,0,0,,0,4,4,2,1,,,,,,,,,,,,,,,,,,,,,,,,,,,,,,,,,,,,,,,,,,,,,,,,,,,,,,,,,,
,,,,,,,,,,,,,,,,,,,,,,,,,,,,,,,,,,,,,,,,,,5ff040139cc6b3ee87f4af58,606a0fd3c8e677356aece9be,2021-04-04_21h13.50.880,Colour_Similarity_Experiment,2020.2.10,Win32,60,60675255c767bca6388caeee,17.08399366,16.81001727,16.74576271,16.76868829,16.73613445,16.76868829,,,,,,,,,,,,,,,,,,,7,PF,3,weak,40,88,1,0,0,response1disk_5,7,7,3.279,-3,-2,1,0,0,rectangle_8,-3,-2,1,0,0,,,3,-3,-2,1,0,0,,0,5,5,4,1,,,,,,,,,,,,,,,,,,,,,,,,,,,,,,,,,,,,,,,,,,,,,,,,,,,,,,,,,,
,,,,,,,,,,,,,,,,,,,,,,,,,,,,,,,,,,,,,,,,,,5ff040139cc6b3ee87f4af58,606a0fd3c8e677356aece9be,2021-04-04_21h13.50.880,Colour_Similarity_Experiment,2020.2.10,Win32,60,60675255c767bca6388caeee,17.08399366,16.81001727,16.74576271,16.76868829,16.73613445,16.76868829,,,,,,,,,,,,,,,,,,,5,PF,3,weak,37,81,1,0,0,response1disk_5,3,7,2.897,2,3,1,0,0,rectangle_8,2,3,1,0,0,,,3,2,3,1,0,0,,0,6,6,1,1,,,,,,,,,,,,,,,,,,,,,,,,,,,,,,,,,,,,,,,,,,,,,,,,,,,,,,,,,,
,,,,,,,,,,,,,,,,,,,,,,,,,,,,,,,,,,,,,,,,,,5ff040139cc6b3ee87f4af58,606a0fd3c8e677356aece9be,2021-04-04_21h13.50.880,Colour_Similarity_Experiment,2020.2.10,Win32,60,60675255c767bca6388caeee,17.08399366,16.81001727,16.74576271,16.76868829,16.73613445,16.76868829,,,,,,,,,,,,,,,,,,,,PF,3,strong,,,,,,,,4,10.62,,,,,,,,,,,,,,,,,,,,,,,,,,space,4.793,4,strong,39,-67,1,0,0,response3disk,1,1,-4,3,1,0,0,rectangle,-4,3,1,0,0,,5,0.003,-4,3,1,0,0,0,0,0,102,1,0,,,,,,,,,,,,,,,,,,,,,
,,,,,,,,,,,,,,,,,,,,,,,,,,,,,,,,,,,,,,,,,,5ff040139cc6b3ee87f4af58,606a0fd3c8e677356aece9be,2021-04-04_21h13.50.880,Colour_Similarity_Experiment,2020.2.10,Win32,60,60675255c767bca6388caeee,17.08399366,16.81001727,16.74576271,16.76868829,16.73613445,16.76868829,,,,,,,,,,,,,,,,,,,,PF,3,weak,,,,,,,,7,4.363,,,,,,,,,,,,,,,,,,,,,,,,,,,,7,weak,33,99,1,0,0,response1disk,8,2,1,-5,1,0,0,rectangle,1,-5,1,0,0,,6,0.003,1,-5,1,0,0,0,1,1,140,1,0,,,,,,,,,,,,,,,,,,,,,
,,,,,,,,,,,,,,,,,,,,,,,,,,,,,,,,,,,,,,,,,,5ff040139cc6b3ee87f4af58,606a0fd3c8e677356aece9be,2021-04-04_21h13.50.880,Colour_Similarity_Experiment,2020.2.10,Win32,60,60675255c767bca6388caeee,17.08399366,16.81001727,16.74576271,16.76868829,16.73613445,16.76868829,,,,,,,,,,,,,,,,,,,,PF,3,strong,,,,,,,,7,1.732,,,,,,,,,,,,,,,,,,,,,,,,,,,,9,strong,32,89,1,0,0,response1disk,2,3,-3,3,1,0,0,rectangle,-37,-84,1,0,0,3,3,2.964,3,6,1,0,0,0,2,2,11,1,1,response5disk_3,rectangle,,,,,,,,,,,,,,,,,,,
,,,,,,,,,,,,,,,,,,,,,,,,,,,,,,,,,,,,,,,,,,5ff040139cc6b3ee87f4af58,606a0fd3c8e677356aece9be,2021-04-04_21h13.50.880,Colour_Similarity_Experiment,2020.2.10,Win32,60,60675255c767bca6388caeee,17.08399366,16.81001727,16.74576271,16.76868829,16.73613445,16.76868829,,,,,,,,,,,,,,,,,,,,PF,3,weak,,,,,,,,7,4.329,,,,,,,,,,,,,,,,,,,,,,,,,,,,8,weak,37,94,1,0,0,response1disk,5,4,1,-5,1,0,0,rectangle,1,-5,1,0,0,3,7,0.003,1,-5,1,0,0,0,3,3,98,1,0,,,,,,,,,,,,,,,,,,,,,
,,,,,,,,,,,,,,,,,,,,,,,,,,,,,,,,,,,,,,,,,,5ff040139cc6b3ee87f4af58,606a0fd3c8e677356aece9be,2021-04-04_21h13.50.880,Colour_Similarity_Experiment,2020.2.10,Win32,60,60675255c767bca6388caeee,17.08399366,16.81001727,16.74576271,16.76868829,16.73613445,16.76868829,,,,,,,,,,,,,,,,,,,,PF,3,weak,,,,,,,,7,2.316,,,,,,,,,,,,,,,,,,,,,,,,,,,,8,weak,33,96,1,0,0,response1disk,9,5,3,-4,1,0,0,rectangle,3,-4,1,0,0,3,3,0.002,3,-4,1,0,0,0,4,4,42,1,0,,,,,,,,,,,,,,,,,,,,,
,,,,,,,,,,,,,,,,,,,,,,,,,,,,,,,,,,,,,,,,,,5ff040139cc6b3ee87f4af58,606a0fd3c8e677356aece9be,2021-04-04_21h13.50.880,Colour_Similarity_Experiment,2020.2.10,Win32,60,60675255c767bca6388caeee,17.08399366,16.81001727,16.74576271,16.76868829,16.73613445,16.76868829,,,,,,,,,,,,,,,,,,,,PF,3,weak,,,,,,,,4,2.865,,,,,,,,,,,,,,,,,,,,,,,,,,,,3,weak,28,-54,1,0,0,response3disk,1,6,2,-2,1,0,0,rectangle,2,-2,1,0,0,3,0,0.002,2,-2,1,0,0,0,5,5,96,1,0,,,,,,,,,,,,,,,,,,,,,
,,,,,,,,,,,,,,,,,,,,,,,,,,,,,,,,,,,,,,,,,,5ff040139cc6b3ee87f4af58,606a0fd3c8e677356aece9be,2021-04-04_21h13.50.880,Colour_Similarity_Experiment,2020.2.10,Win32,60,60675255c767bca6388caeee,17.08399366,16.81001727,16.74576271,16.76868829,16.73613445,16.76868829,,,,,,,,,,,,,,,,,,,,PF,3,strong,,,,,,,,7,2.098,,,,,,,,,,,,,,,,,,,,,,,,,,,,8,strong,34,97,1,0,0,response1disk,4,7,5,-2,1,0,0,rectangle,5,-2,1,0,0,3,5,0.003,5,-2,1,0,0,0,6,6,88,1,0,,,,,,,,,,,,,,,,,,,,,
,,,,,,,,,,,,,,,,,,,,,,,,,,,,,,,,,,,,,,,,,,5ff040139cc6b3ee87f4af58,606a0fd3c8e677356aece9be,2021-04-04_21h13.50.880,Colour_Similarity_Experiment,2020.2.10,Win32,60,60675255c767bca6388caeee,17.08399366,16.81001727,16.74576271,16.76868829,16.73613445,16.76868829,,,,,,,,,,,,,,,,,,,,PF,3,strong,,,,,,,,5,3.163,,,,,,,,,,,,,,,,,,,,,,,,,,,,1,strong,54,-31,1,0,0,response3disk,2,8,4,4,1,0,0,rectangle,4,4,1,0,0,3,5,0,4,4,1,0,0,0,7,7,2,1,0,,,,,,,,,,,,,,,,,,,,,
,,,,,,,,,,,,,,,,,,,,,,,,,,,,,,,,,,,,,,,,,,5ff040139cc6b3ee87f4af58,606a0fd3c8e677356aece9be,2021-04-04_21h13.50.880,Colour_Similarity_Experiment,2020.2.10,Win32,60,60675255c767bca6388caeee,17.08399366,16.81001727,16.74576271,16.76868829,16.73613445,16.76868829,,,,,,,,,,,,,,,,,,,,PF,3,weak,,,,,,,,0,4.98,,,,,,,,,,,,,,,,,,,,,,,,,,,,2,weak,-37,89,1,0,0,response7disk,2,9,-2,-3,1,0,0,rectangle,-2,-3,1,0,0,3,3,0.002,-2,-3,1,0,0,0,8,8,14,1,0,,,,,,,,,,,,,,,,,,,,,
,,,,,,,,,,,,,,,,,,,,,,,,,,,,,,,,,,,,,,,,,,5ff040139cc6b3ee87f4af58,606a0fd3c8e677356aece9be,2021-04-04_21h13.50.880,Colour_Similarity_Experiment,2020.2.10,Win32,60,60675255c767bca6388caeee,17.08399366,16.81001727,16.74576271,16.76868829,16.73613445,16.76868829,,,,,,,,,,,,,,,,,,,,PF,3,weak,,,,,,,,0,2.13,,,,,,,,,,,,,,,,,,,,,,,,,,,,9,weak,-37,88,1,0,0,response7disk,2,10,0,-3,1,0,0,rectangle,0,-3,1,0,0,3,7,0.002,0,-3,1,0,0,0,9,9,157,1,0,,,,,,,,,,,,,,,,,,,,,
,,,,,,,,,,,,,,,,,,,,,,,,,,,,,,,,,,,,,,,,,,5ff040139cc6b3ee87f4af58,606a0fd3c8e677356aece9be,2021-04-04_21h13.50.880,Colour_Similarity_Experiment,2020.2.10,Win32,60,60675255c767bca6388caeee,17.08399366,16.81001727,16.74576271,16.76868829,16.73613445,16.76868829,,,,,,,,,,,,,,,,,,,,PF,3,strong,,,,,,,,7,2.082,,,,,,,,,,,,,,,,,,,,,,,,,,,,5,strong,38,99,1,0,0,response1disk,7,11,11,-2,1,0,0,rectangle,11,-2,1,0,0,3,6,0.002,11,-2,1,0,0,0,10,10,7,1,0,,,,,,,,,,,,,,,,,,,,,
,,,,,,,,,,,,,,,,,,,,,,,,,,,,,,,,,,,,,,,,,,5ff040139cc6b3ee87f4af58,606a0fd3c8e677356aece9be,2021-04-04_21h13.50.880,Colour_Similarity_Experiment,2020.2.10,Win32,60,60675255c767bca6388caeee,17.08399366,16.81001727,16.74576271,16.76868829,16.73613445,16.76868829,,,,,,,,,,,,,,,,,,,,PF,3,strong,,,,,,,,2,4.314,,,,,,,,,,,,,,,,,,,,,,,,,,,,7,strong,-62,-37,1,0,0,response5disk,6,12,3,0,1,0,0,rectangle,3,0,1,0,0,3,2,0.004,3,0,1,0,0,0,11,11,31,1,0,,,,,,,,,,,,,,,,,,,,,
,,,,,,,,,,,,,,,,,,,,,,,,,,,,,,,,,,,,,,,,,,5ff040139cc6b3ee87f4af58,606a0fd3c8e677356aece9be,2021-04-04_21h13.50.880,Colour_Similarity_Experiment,2020.2.10,Win32,60,60675255c767bca6388caeee,17.08399366,16.81001727,16.74576271,16.76868829,16.73613445,16.76868829,,,,,,,,,,,,,,,,,,,,PF,3,weak,,,,,,,,4,2.132,,,,,,,,,,,,,,,,,,,,,,,,,,,,4,weak,29,-75,1,0,0,response3disk,5,13,1,9,1,0,0,rectangle,1,9,1,0,0,3,5,0.002,1,9,1,0,0,0,12,12,49,1,0,,,,,,,,,,,,,,,,,,,,,
,,,,,,,,,,,,,,,,,,,,,,,,,,,,,,,,,,,,,,,,,,5ff040139cc6b3ee87f4af58,606a0fd3c8e677356aece9be,2021-04-04_21h13.50.880,Colour_Similarity_Experiment,2020.2.10,Win32,60,60675255c767bca6388caeee,17.08399366,16.81001727,16.74576271,16.76868829,16.73613445,16.76868829,,,,,,,,,,,,,,,,,,,,PF,3,weak,,,,,,,,4,2.581,,,,,,,,,,,,,,,,,,,,,,,,,,,,7,weak,26,-72,1,0,0,response3disk,6,14,10,3,1,0,0,rectangle,10,3,1,0,0,3,6,0.003,10,3,1,0,0,0,13,13,29,1,0,,,,,,,,,,,,,,,,,,,,,
,,,,,,,,,,,,,,,,,,,,,,,,,,,,,,,,,,,,,,,,,,5ff040139cc6b3ee87f4af58,606a0fd3c8e677356aece9be,2021-04-04_21h13.50.880,Colour_Similarity_Experiment,2020.2.10,Win32,60,60675255c767bca6388caeee,17.08399366,16.81001727,16.74576271,16.76868829,16.73613445,16.76868829,,,,,,,,,,,,,,,,,,,,PF,3,strong,,,,,,,,7,2.494,,,,,,,,,,,,,,,,,,,,,,,,,,,,5,strong,31,91,1,0,0,response1disk,9,15,8,1,1,0,0,rectangle,8,1,1,0,0,3,2,0.001,8,1,1,0,0,0,14,14,61,1,0,,,,,,,,,,,,,,,,,,,,,
,,,,,,,,,,,,,,,,,,,,,,,,,,,,,,,,,,,,,,,,,,5ff040139cc6b3ee87f4af58,606a0fd3c8e677356aece9be,2021-04-04_21h13.50.880,Colour_Similarity_Experiment,2020.2.10,Win32,60,60675255c767bca6388caeee,17.08399366,16.81001727,16.74576271,16.76868829,16.73613445,16.76868829,,,,,,,,,,,,,,,,,,,,PF,3,strong,,,,,,,,7,1.566,,,,,,,,,,,,,,,,,,,,,,,,,,,,6,strong,31,90,1,0,0,response1disk,2,16,9,7,1,0,0,rectangle,9,7,1,0,0,3,4,0.003,9,7,1,0,0,0,15,15,112,1,0,,,,,,,,,,,,,,,,,,,,,
,,,,,,,,,,,,,,,,,,,,,,,,,,,,,,,,,,,,,,,,,,5ff040139cc6b3ee87f4af58,606a0fd3c8e677356aece9be,2021-04-04_21h13.50.880,Colour_Similarity_Experiment,2020.2.10,Win32,60,60675255c767bca6388caeee,17.08399366,16.81001727,16.74576271,16.76868829,16.73613445,16.76868829,,,,,,,,,,,,,,,,,,,,PF,3,weak,,,,,,,,7,1.182,,,,,,,,,,,,,,,,,,,,,,,,,,,,2,weak,33,79,1,0,0,response1disk,8,17,11,3,1,0,0,rectangle,11,3,1,0,0,3,6,0.003,11,3,1,0,0,0,16,16,52,1,0,,,,,,,,,,,,,,,,,,,,,
,,,,,,,,,,,,,,,,,,,,,,,,,,,,,,,,,,,,,,,,,,5ff040139cc6b3ee87f4af58,606a0fd3c8e677356aece9be,2021-04-04_21h13.50.880,Colour_Similarity_Experiment,2020.2.10,Win32,60,60675255c767bca6388caeee,17.08399366,16.81001727,16.74576271,16.76868829,16.73613445,16.76868829,,,,,,,,,,,,,,,,,,,,PF,3,weak,,,,,,,,6,1.883,,,,,,,,,,,,,,,,,,,,,,,,,,,,1,weak,85,38,1,0,0,response1disk,1,18,5,-1,1,0,0,rectangle,91,36,1,0,0,6,6,2.748,-3,1,1,0,0,0,17,17,76,1,1,response1disk_3,rectangle,,,,,,,,,,,,,,,,,,,
,,,,,,,,,,,,,,,,,,,,,,,,,,,,,,,,,,,,,,,,,,5ff040139cc6b3ee87f4af58,606a0fd3c8e677356aece9be,2021-04-04_21h13.50.880,Colour_Similarity_Experiment,2020.2.10,Win32,60,60675255c767bca6388caeee,17.08399366,16.81001727,16.74576271,16.76868829,16.73613445,16.76868829,,,,,,,,,,,,,,,,,,,,PF,3,strong,,,,,,,,7,2.631,,,,,,,,,,,,,,,,,,,,,,,,,,,,9,strong,37,98,1,0,0,response1disk,3,19,9,10,1,0,0,rectangle,9,10,1,0,0,6,7,0.001,9,10,1,0,0,0,18,18,141,1,0,,,,,,,,,,,,,,,,,,,,,
,,,,,,,,,,,,,,,,,,,,,,,,,,,,,,,,,,,,,,,,,,5ff040139cc6b3ee87f4af58,606a0fd3c8e677356aece9be,2021-04-04_21h13.50.880,Colour_Similarity_Experiment,2020.2.10,Win32,60,60675255c767bca6388caeee,17.08399366,16.81001727,16.74576271,16.76868829,16.73613445,16.76868829,,,,,,,,,,,,,,,,,,,,PF,3,strong,,,,,,,,7,1.299,,,,,,,,,,,,,,,,,,,,,,,,,,,,1,strong,39,93,1,0,0,response1disk,6,20,-6,-2,1,0,0,rectangle,-6,-2,1,0,0,6,6,0.003,-6,-2,1,0,0,0,19,19,58,1,0,,,,,,,,,,,,,,,,,,,,,
,,,,,,,,,,,,,,,,,,,,,,,,,,,,,,,,,,,,,,,,,,5ff040139cc6b3ee87f4af58,606a0fd3c8e677356aece9be,2021-04-04_21h13.50.880,Colour_Similarity_Experiment,2020.2.10,Win32,60,60675255c767bca6388caeee,17.08399366,16.81001727,16.74576271,16.76868829,16.73613445,16.76868829,,,,,,,,,,,,,,,,,,,,PF,3,strong,,,,,,,,7,2.581,,,,,,,,,,,,,,,,,,,,,,,,,,,,7,strong,28,85,1,0,0,response1disk,1,21,-5,3,1,0,0,rectangle,-5,3,1,0,0,6,1,0.004,-5,3,1,0,0,0,20,20,132,1,0,,,,,,,,,,,,,,,,,,,,,
,,,,,,,,,,,,,,,,,,,,,,,,,,,,,,,,,,,,,,,,,,5ff040139cc6b3ee87f4af58,606a0fd3c8e677356aece9be,2021-04-04_21h13.50.880,Colour_Similarity_Experiment,2020.2.10,Win32,60,60675255c767bca6388caeee,17.08399366,16.81001727,16.74576271,16.76868829,16.73613445,16.76868829,,,,,,,,,,,,,,,,,,,,PF,3,strong,,,,,,,,7,1.098,,,,,,,,,,,,,,,,,,,,,,,,,,,,6,strong,25,87,1,0,0,response1disk,5,22,1,-1,1,0,0,rectangle,1,-1,1,0,0,6,0,0.002,1,-1,1,0,0,0,21,21,126,1,0,,,,,,,,,,,,,,,,,,,,,
,,,,,,,,,,,,,,,,,,,,,,,,,,,,,,,,,,,,,,,,,,5ff040139cc6b3ee87f4af58,606a0fd3c8e677356aece9be,2021-04-04_21h13.50.880,Colour_Similarity_Experiment,2020.2.10,Win32,60,60675255c767bca6388caeee,17.08399366,16.81001727,16.74576271,16.76868829,16.73613445,16.76868829,,,,,,,,,,,,,,,,,,,,PF,3,weak,,,,,,,,0,1.148,,,,,,,,,,,,,,,,,,,,,,,,,,,,1,weak,-27,86,1,0,0,response7disk,5,23,1,1,1,0,0,rectangle,1,1,1,0,0,6,1,0.003,1,1,1,0,0,0,22,22,28,1,0,,,,,,,,,,,,,,,,,,,,,
,,,,,,,,,,,,,,,,,,,,,,,,,,,,,,,,,,,,,,,,,,5ff040139cc6b3ee87f4af58,606a0fd3c8e677356aece9be,2021-04-04_21h13.50.880,Colour_Similarity_Experiment,2020.2.10,Win32,60,60675255c767bca6388caeee,17.08399366,16.81001727,16.74576271,16.76868829,16.73613445,16.76868829,,,,,,,,,,,,,,,,,,,,PF,3,strong,,,,,,,,7,1.082,,,,,,,,,,,,,,,,,,,,,,,,,,,,9,strong,31,85,1,0,0,response1disk,1,24,6,-3,1,0,0,rectangle,6,-3,1,0,0,6,3,0.002,6,-3,1,0,0,0,23,23,111,1,0,,,,,,,,,,,,,,,,,,,,,
,,,,,,,,,,,,,,,,,,,,,,,,,,,,,,,,,,,,,,,,,,5ff040139cc6b3ee87f4af58,606a0fd3c8e677356aece9be,2021-04-04_21h13.50.880,Colour_Similarity_Experiment,2020.2.10,Win32,60,60675255c767bca6388caeee,17.08399366,16.81001727,16.74576271,16.76868829,16.73613445,16.76868829,,,,,,,,,,,,,,,,,,,,PF,3,strong,,,,,,,,7,1.366,,,,,,,,,,,,,,,,,,,,,,,,,,,,3,strong,33,86,1,0,0,response1disk,8,25,5,-3,1,0,0,rectangle,5,-3,1,0,0,6,7,0.003,5,-3,1,0,0,0,24,24,44,1,0,,,,,,,,,,,,,,,,,,,,,
,,,,,,,,,,,,,,,,,,,,,,,,,,,,,,,,,,,,,,,,,,5ff040139cc6b3ee87f4af58,606a0fd3c8e677356aece9be,2021-04-04_21h13.50.880,Colour_Similarity_Experiment,2020.2.10,Win32,60,60675255c767bca6388caeee,17.08399366,16.81001727,16.74576271,16.76868829,16.73613445,16.76868829,,,,,,,,,,,,,,,,,,,,PF,3,strong,,,,,,,,7,1.432,,,,,,,,,,,,,,,,,,,,,,,,,,,,2,strong,31,91,1,0,0,response1disk,7,26,4,6,1,0,0,rectangle,4,6,1,0,0,6,5,0.001,4,6,1,0,0,0,25,25,63,1,0,,,,,,,,,,,,,,,,,,,,,
,,,,,,,,,,,,,,,,,,,,,,,,,,,,,,,,,,,,,,,,,,5ff040139cc6b3ee87f4af58,606a0fd3c8e677356aece9be,2021-04-04_21h13.50.880,Colour_Similarity_Experiment,2020.2.10,Win32,60,60675255c767bca6388caeee,17.08399366,16.81001727,16.74576271,16.76868829,16.73613445,16.76868829,,,,,,,,,,,,,,,,,,,,PF,3,weak,,,,,,,,7,1.388,,,,,,,,,,,,,,,,,,,,,,,,,,,,8,weak,39,109,1,0,0,response1disk,2,27,-10,3,1,0,0,rectangle,-10,3,1,0,0,6,2,0.001,-10,3,1,0,0,0,26,26,83,1,0,,,,,,,,,,,,,,,,,,,,,
,,,,,,,,,,,,,,,,,,,,,,,,,,,,,,,,,,,,,,,,,,5ff040139cc6b3ee87f4af58,606a0fd3c8e677356aece9be,2021-04-04_21h13.50.880,Colour_Similarity_Experiment,2020.2.10,Win32,60,60675255c767bca6388caeee,17.08399366,16.81001727,16.74576271,16.76868829,16.73613445,16.76868829,,,,,,,,,,,,,,,,,,,,PF,3,strong,,,,,,,,7,1.05,,,,,,,,,,,,,,,,,,,,,,,,,,,,6,strong,43,101,1,0,0,response1disk,8,28,4,-3,1,0,0,rectangle,4,-3,1,0,0,6,1,0.003,4,-3,1,0,0,0,27,27,133,1,0,,,,,,,,,,,,,,,,,,,,,
,,,,,,,,,,,,,,,,,,,,,,,,,,,,,,,,,,,,,,,,,,5ff040139cc6b3ee87f4af58,606a0fd3c8e677356aece9be,2021-04-04_21h13.50.880,Colour_Similarity_Experiment,2020.2.10,Win32,60,60675255c767bca6388caeee,17.08399366,16.81001727,16.74576271,16.76868829,16.73613445,16.76868829,,,,,,,,,,,,,,,,,,,,PF,3,weak,,,,,,,,4,3.248,,,,,,,,,,,,,,,,,,,,,,,,,,,,2,weak,39,-83,1,0,0,response3disk,1,29,17,2,1,0,0,rectangle,17,2,1,0,0,6,2,0.003,17,2,1,0,0,0,28,28,9,1,0,,,,,,,,,,,,,,,,,,,,,
,,,,,,,,,,,,,,,,,,,,,,,,,,,,,,,,,,,,,,,,,,5ff040139cc6b3ee87f4af58,606a0fd3c8e677356aece9be,2021-04-04_21h13.50.880,Colour_Similarity_Experiment,2020.2.10,Win32,60,60675255c767bca6388caeee,17.08399366,16.81001727,16.74576271,16.76868829,16.73613445,16.76868829,,,,,,,,,,,,,,,,,,,,PF,3,strong,,,,,,,,7,1.232,,,,,,,,,,,,,,,,,,,,,,,,,,,,1,strong,29,94,1,0,0,response1disk,3,30,1,0,1,0,0,rectangle,1,0,1,0,0,6,6,0.002,1,0,1,0,0,0,29,29,99,1,0,,,,,,,,,,,,,,,,,,,,,
,,,,,,,,,,,,,,,,,,,,,,,,,,,,,,,,,,,,,,,,,,5ff040139cc6b3ee87f4af58,606a0fd3c8e677356aece9be,2021-04-04_21h13.50.880,Colour_Similarity_Experiment,2020.2.10,Win32,60,60675255c767bca6388caeee,17.08399366,16.81001727,16.74576271,16.76868829,16.73613445,16.76868829,,,,,,,,,,,,,,,,,,,,PF,3,weak,,,,,,,,0,1.131,,,,,,,,,,,,,,,,,,,,,,,,,,,,6,weak,-31,90,1,0,0,response7disk,3,31,-7,12,1,0,0,rectangle,-7,12,1,0,0,6,6,0,-7,12,1,0,0,0,30,30,26,1,0,,,,,,,,,,,,,,,,,,,,,
,,,,,,,,,,,,,,,,,,,,,,,,,,,,,,,,,,,,,,,,,,5ff040139cc6b3ee87f4af58,606a0fd3c8e677356aece9be,2021-04-04_21h13.50.880,Colour_Similarity_Experiment,2020.2.10,Win32,60,60675255c767bca6388caeee,17.08399366,16.81001727,16.74576271,16.76868829,16.73613445,16.76868829,,,,,,,,,,,,,,,,,,,,PF,3,strong,,,,,,,,7,1.032,,,,,,,,,,,,,,,,,,,,,,,,,,,,8,strong,59,99,1,0,0,response1disk,8,32,18,0,1,0,0,rectangle,18,0,1,0,0,6,2,0.002,18,0,1,0,0,0,31,31,48,1,0,,,,,,,,,,,,,,,,,,,,,
,,,,,,,,,,,,,,,,,,,,,,,,,,,,,,,,,,,,,,,,,,5ff040139cc6b3ee87f4af58,606a0fd3c8e677356aece9be,2021-04-04_21h13.50.880,Colour_Similarity_Experiment,2020.2.10,Win32,60,60675255c767bca6388caeee,17.08399366,16.81001727,16.74576271,16.76868829,16.73613445,16.76868829,,,,,,,,,,,,,,,,,,,,PF,3,strong,,,,,,,,7,1.315,,,,,,,,,,,,,,,,,,,,,,,,,,,,3,strong,28,96,1,0,0,response1disk,4,33,-4,4,1,0,0,rectangle,-4,4,1,0,0,6,4,0.002,-4,4,1,0,0,0,32,32,110,1,0,,,,,,,,,,,,,,,,,,,,,
,,,,,,,,,,,,,,,,,,,,,,,,,,,,,,,,,,,,,,,,,,5ff040139cc6b3ee87f4af58,606a0fd3c8e677356aece9be,2021-04-04_21h13.50.880,Colour_Similarity_Experiment,2020.2.10,Win32,60,60675255c767bca6388caeee,17.08399366,16.81001727,16.74576271,16.76868829,16.73613445,16.76868829,,,,,,,,,,,,,,,,,,,,PF,3,weak,,,,,,,,7,1.166,,,,,,,,,,,,,,,,,,,,,,,,,,,,8,weak,33,93,1,0,0,response1disk,6,34,2,-3,1,0,0,rectangle,-77,-29,1,0,0,6,2,1.932,4,0,1,0,0,0,33,33,161,1,1,response5disk_3,rectangle,,,,,,,,,,,,,,,,,,,
,,,,,,,,,,,,,,,,,,,,,,,,,,,,,,,,,,,,,,,,,,5ff040139cc6b3ee87f4af58,606a0fd3c8e677356aece9be,2021-04-04_21h13.50.880,Colour_Similarity_Experiment,2020.2.10,Win32,60,60675255c767bca6388caeee,17.08399366,16.81001727,16.74576271,16.76868829,16.73613445,16.76868829,,,,,,,,,,,,,,,,,,,,PF,3,strong,,,,,,,,7,4.163,,,,,,,,,,,,,,,,,,,,,,,,,,,,2,strong,36,99,1,0,0,response1disk,1,35,1,-3,1,0,0,rectangle,1,-3,1,0,0,6,1,0.002,1,-3,1,0,0,0,34,34,85,1,0,,,,,,,,,,,,,,,,,,,,,
,,,,,,,,,,,,,,,,,,,,,,,,,,,,,,,,,,,,,,,,,,5ff040139cc6b3ee87f4af58,606a0fd3c8e677356aece9be,2021-04-04_21h13.50.880,Colour_Similarity_Experiment,2020.2.10,Win32,60,60675255c767bca6388caeee,17.08399366,16.81001727,16.74576271,16.76868829,16.73613445,16.76868829,,,,,,,,,,,,,,,,,,,,PF,3,weak,,,,,,,,7,1.466,,,,,,,,,,,,,,,,,,,,,,,,,,,,7,weak,48,103,1,0,0,response1disk,3,36,2,7,1,0,0,rectangle,2,7,1,0,0,6,5,0.002,2,7,1,0,0,0,35,35,81,1,0,,,,,,,,,,,,,,,,,,,,,
,,,,,,,,,,,,,,,,,,,,,,,,,,,,,,,,,,,,,,,,,,5ff040139cc6b3ee87f4af58,606a0fd3c8e677356aece9be,2021-04-04_21h13.50.880,Colour_Similarity_Experiment,2020.2.10,Win32,60,60675255c767bca6388caeee,17.08399366,16.81001727,16.74576271,16.76868829,16.73613445,16.76868829,,,,,,,,,,,,,,,,,,,,PF,3,strong,,,,,,,,2,3.93,,,,,,,,,,,,,,,,,,,,,,,,,,,,3,strong,-81,-31,1,0,0,response5disk,5,37,3,-1,1,0,0,rectangle,3,-1,1,0,0,6,0,0.003,3,-1,1,0,0,0,36,36,101,1,0,,,,,,,,,,,,,,,,,,,,,
,,,,,,,,,,,,,,,,,,,,,,,,,,,,,,,,,,,,,,,,,,5ff040139cc6b3ee87f4af58,606a0fd3c8e677356aece9be,2021-04-04_21h13.50.880,Colour_Similarity_Experiment,2020.2.10,Win32,60,60675255c767bca6388caeee,17.08399366,16.81001727,16.74576271,16.76868829,16.73613445,16.76868829,,,,,,,,,,,,,,,,,,,,PF,3,weak,,,,,,,,7,2.047,,,,,,,,,,,,,,,,,,,,,,,,,,,,9,weak,30,88,1,0,0,response1disk,9,38,-11,-3,1,0,0,rectangle,-11,-3,1,0,0,6,0,0,-11,-3,1,0,0,0,37,37,106,1,0,,,,,,,,,,,,,,,,,,,,,
,,,,,,,,,,,,,,,,,,,,,,,,,,,,,,,,,,,,,,,,,,5ff040139cc6b3ee87f4af58,606a0fd3c8e677356aece9be,2021-04-04_21h13.50.880,Colour_Similarity_Experiment,2020.2.10,Win32,60,60675255c767bca6388caeee,17.08399366,16.81001727,16.74576271,16.76868829,16.73613445,16.76868829,,,,,,,,,,,,,,,,,,,,PF,3,strong,,,,,,,,0,2.149,,,,,,,,,,,,,,,,,,,,,,,,,,,,6,strong,-42,87,1,0,0,response7disk,9,39,-21,-1,1,0,0,rectangle,75,-29,1,0,0,5,5,1.931,-11,2,1,0,0,0,38,38,160,1,1,response3disk_3,rectangle,,,,,,,,,,,,,,,,,,,
,,,,,,,,,,,,,,,,,,,,,,,,,,,,,,,,,,,,,,,,,,5ff040139cc6b3ee87f4af58,606a0fd3c8e677356aece9be,2021-04-04_21h13.50.880,Colour_Similarity_Experiment,2020.2.10,Win32,60,60675255c767bca6388caeee,17.08399366,16.81001727,16.74576271,16.76868829,16.73613445,16.76868829,,,,,,,,,,,,,,,,,,,,PF,3,strong,,,,,,,,7,1,,,,,,,,,,,,,,,,,,,,,,,,,,,,4,strong,26,91,1,0,0,response1disk,4,40,5,-3,1,0,0,rectangle,5,-3,1,0,0,5,0,0.002,5,-3,1,0,0,0,39,39,84,1,0,,,,,,,,,,,,,,,,,,,,,
,,,,,,,,,,,,,,,,,,,,,,,,,,,,,,,,,,,,,,,,,,5ff040139cc6b3ee87f4af58,606a0fd3c8e677356aece9be,2021-04-04_21h13.50.880,Colour_Similarity_Experiment,2020.2.10,Win32,60,60675255c767bca6388caeee,17.08399366,16.81001727,16.74576271,16.76868829,16.73613445,16.76868829,,,,,,,,,,,,,,,,,,,,PF,3,strong,,,,,,,,7,1.016,,,,,,,,,,,,,,,,,,,,,,,,,,,,4,strong,26,90,1,0,0,response1disk,9,41,-9,-5,1,0,0,rectangle,-9,-5,1,0,0,5,0,0,-9,-5,1,0,0,0,40,40,90,1,0,,,,,,,,,,,,,,,,,,,,,
,,,,,,,,,,,,,,,,,,,,,,,,,,,,,,,,,,,,,,,,,,5ff040139cc6b3ee87f4af58,606a0fd3c8e677356aece9be,2021-04-04_21h13.50.880,Colour_Similarity_Experiment,2020.2.10,Win32,60,60675255c767bca6388caeee,17.08399366,16.81001727,16.74576271,16.76868829,16.73613445,16.76868829,,,,,,,,,,,,,,,,,,,,PF,3,strong,,,,,,,,7,1.55,,,,,,,,,,,,,,,,,,,,,,,,,,,,5,strong,40,83,1,0,0,response1disk,5,42,14,1,1,0,0,rectangle,14,1,1,0,0,5,1,0.002,14,1,1,0,0,0,41,41,19,1,0,,,,,,,,,,,,,,,,,,,,,
,,,,,,,,,,,,,,,,,,,,,,,,,,,,,,,,,,,,,,,,,,5ff040139cc6b3ee87f4af58,606a0fd3c8e677356aece9be,2021-04-04_21h13.50.880,Colour_Similarity_Experiment,2020.2.10,Win32,60,60675255c767bca6388caeee,17.08399366,16.81001727,16.74576271,16.76868829,16.73613445,16.76868829,,,,,,,,,,,,,,,,,,,,PF,3,weak,,,,,,,,0,1.549,,,,,,,,,,,,,,,,,,,,,,,,,,,,3,weak,-19,86,1,0,0,response7disk,5,43,-10,4,1,0,0,rectangle,-10,4,1,0,0,5,1,0,-10,4,1,0,0,0,42,42,66,1,0,,,,,,,,,,,,,,,,,,,,,
,,,,,,,,,,,,,,,,,,,,,,,,,,,,,,,,,,,,,,,,,,5ff040139cc6b3ee87f4af58,606a0fd3c8e677356aece9be,2021-04-04_21h13.50.880,Colour_Similarity_Experiment,2020.2.10,Win32,60,60675255c767bca6388caeee,17.08399366,16.81001727,16.74576271,16.76868829,16.73613445,16.76868829,,,,,,,,,,,,,,,,,,,,PF,3,strong,,,,,,,,7,1.398,,,,,,,,,,,,,,,,,,,,,,,,,,,,8,strong,36,91,1,0,0,response1disk,1,44,12,11,1,0,0,rectangle,12,11,1,0,0,5,0,0.002,12,11,1,0,0,0,43,43,20,1,0,,,,,,,,,,,,,,,,,,,,,
,,,,,,,,,,,,,,,,,,,,,,,,,,,,,,,,,,,,,,,,,,5ff040139cc6b3ee87f4af58,606a0fd3c8e677356aece9be,2021-04-04_21h13.50.880,Colour_Similarity_Experiment,2020.2.10,Win32,60,60675255c767bca6388caeee,17.08399366,16.81001727,16.74576271,16.76868829,16.73613445,16.76868829,,,,,,,,,,,,,,,,,,,,PF,3,weak,,,,,,,,4,2.165,,,,,,,,,,,,,,,,,,,,,,,,,,,,5,weak,38,-65,1,0,0,response3disk,2,45,-1,4,1,0,0,rectangle,-1,4,1,0,0,5,2,0.002,-1,4,1,0,0,0,44,44,129,1,0,,,,,,,,,,,,,,,,,,,,,
,,,,,,,,,,,,,,,,,,,,,,,,,,,,,,,,,,,,,,,,,,5ff040139cc6b3ee87f4af58,606a0fd3c8e677356aece9be,2021-04-04_21h13.50.880,Colour_Similarity_Experiment,2020.2.10,Win32,60,60675255c767bca6388caeee,17.08399366,16.81001727,16.74576271,16.76868829,16.73613445,16.76868829,,,,,,,,,,,,,,,,,,,,PF,3,weak,,,,,,,,7,1.2,,,,,,,,,,,,,,,,,,,,,,,,,,,,6,weak,45,88,1,0,0,response1disk,9,46,-3,6,1,0,0,rectangle,-3,6,1,0,0,5,6,0.001,-3,6,1,0,0,0,45,45,45,1,0,,,,,,,,,,,,,,,,,,,,,
,,,,,,,,,,,,,,,,,,,,,,,,,,,,,,,,,,,,,,,,,,5ff040139cc6b3ee87f4af58,606a0fd3c8e677356aece9be,2021-04-04_21h13.50.880,Colour_Similarity_Experiment,2020.2.10,Win32,60,60675255c767bca6388caeee,17.08399366,16.81001727,16.74576271,16.76868829,16.73613445,16.76868829,,,,,,,,,,,,,,,,,,,,PF,3,strong,,,,,,,,7,1.315,,,,,,,,,,,,,,,,,,,,,,,,,,,,2,strong,27,83,1,0,0,response1disk,3,47,-3,5,1,0,0,rectangle,-37,93,1,0,0,0,0,1.915,-1,8,1,0,0,0,46,46,104,1,1,response7disk_3,rectangle,,,,,,,,,,,,,,,,,,,
,,,,,,,,,,,,,,,,,,,,,,,,,,,,,,,,,,,,,,,,,,5ff040139cc6b3ee87f4af58,606a0fd3c8e677356aece9be,2021-04-04_21h13.50.880,Colour_Similarity_Experiment,2020.2.10,Win32,60,60675255c767bca6388caeee,17.08399366,16.81001727,16.74576271,16.76868829,16.73613445,16.76868829,,,,,,,,,,,,,,,,,,,,PF,3,strong,,,,,,,,7,1.283,,,,,,,,,,,,,,,,,,,,,,,,,,,,2,strong,48,110,1,0,0,response1disk,8,48,-15,9,1,0,0,rectangle,-15,9,1,0,0,0,1,0.001,-15,9,1,0,0,0,47,47,62,1,0,,,,,,,,,,,,,,,,,,,,,
,,,,,,,,,,,,,,,,,,,,,,,,,,,,,,,,,,,,,,,,,,5ff040139cc6b3ee87f4af58,606a0fd3c8e677356aece9be,2021-04-04_21h13.50.880,Colour_Similarity_Experiment,2020.2.10,Win32,60,60675255c767bca6388caeee,17.08399366,16.81001727,16.74576271,16.76868829,16.73613445,16.76868829,,,,,,,,,,,,,,,,,,,,PF,3,strong,,,,,,,,7,1.083,,,,,,,,,,,,,,,,,,,,,,,,,,,,2,strong,39,93,1,0,0,response1disk,2,49,-5,8,1,0,0,rectangle,-5,8,1,0,0,0,3,0.002,-5,8,1,0,0,0,48,48,142,1,0,,,,,,,,,,,,,,,,,,,,,
,,,,,,,,,,,,,,,,,,,,,,,,,,,,,,,,,,,,,,,,,,5ff040139cc6b3ee87f4af58,606a0fd3c8e677356aece9be,2021-04-04_21h13.50.880,Colour_Similarity_Experiment,2020.2.10,Win32,60,60675255c767bca6388caeee,17.08399366,16.81001727,16.74576271,16.76868829,16.73613445,16.76868829,,,,,,,,,,,,,,,,,,,,PF,3,weak,,,,,,,,7,1.065,,,,,,,,,,,,,,,,,,,,,,,,,,,,6,weak,43,99,1,0,0,response1disk,5,50,2,3,1,0,0,rectangle,2,3,1,0,0,0,0,0.003,2,3,1,0,0,0,49,49,59,1,0,,,,,,,,,,,,,,,,,,,,,
,,,,,,,,,,,,,,,,,,,,,,,,,,,,,,,,,,,,,,,,,,5ff040139cc6b3ee87f4af58,606a0fd3c8e677356aece9be,2021-04-04_21h13.50.880,Colour_Similarity_Experiment,2020.2.10,Win32,60,60675255c767bca6388caeee,17.08399366,16.81001727,16.74576271,16.76868829,16.73613445,16.76868829,,,,,,,,,,,,,,,,,,,,PF,3,weak,,,,,,,,0,0.916,,,,,,,,,,,,,,,,,,,,,,,,,,,,9,weak,-39,88,1,0,0,response7disk,5,51,1,5,1,0,0,rectangle,1,5,1,0,0,0,3,0.002,1,5,1,0,0,0,50,50,134,1,0,,,,,,,,,,,,,,,,,,,,,
,,,,,,,,,,,,,,,,,,,,,,,,,,,,,,,,,,,,,,,,,,5ff040139cc6b3ee87f4af58,606a0fd3c8e677356aece9be,2021-04-04_21h13.50.880,Colour_Similarity_Experiment,2020.2.10,Win32,60,60675255c767bca6388caeee,17.08399366,16.81001727,16.74576271,16.76868829,16.73613445,16.76868829,,,,,,,,,,,,,,,,,,,,PF,3,weak,,,,,,,,7,0.916,,,,,,,,,,,,,,,,,,,,,,,,,,,,4,weak,33,83,1,0,0,response1disk,2,52,5,9,1,0,0,rectangle,5,9,1,0,0,0,0,0.003,5,9,1,0,0,0,51,51,108,1,0,,,,,,,,,,,,,,,,,,,,,
,,,,,,,,,,,,,,,,,,,,,,,,,,,,,,,,,,,,,,,,,,5ff040139cc6b3ee87f4af58,606a0fd3c8e677356aece9be,2021-04-04_21h13.50.880,Colour_Similarity_Experiment,2020.2.10,Win32,60,60675255c767bca6388caeee,17.08399366,16.81001727,16.74576271,16.76868829,16.73613445,16.76868829,,,,,,,,,,,,,,,,,,,,PF,3,strong,,,,,,,,7,1.015,,,,,,,,,,,,,,,,,,,,,,,,,,,,9,strong,29,91,1,0,0,response1disk,5,53,-3,5,1,0,0,rectangle,-3,5,1,0,0,0,0,0,-3,5,1,0,0,0,52,52,128,1,0,,,,,,,,,,,,,,,,,,,,,
,,,,,,,,,,,,,,,,,,,,,,,,,,,,,,,,,,,,,,,,,,5ff040139cc6b3ee87f4af58,606a0fd3c8e677356aece9be,2021-04-04_21h13.50.880,Colour_Similarity_Experiment,2020.2.10,Win32,60,60675255c767bca6388caeee,17.08399366,16.81001727,16.74576271,16.76868829,16.73613445,16.76868829,,,,,,,,,,,,,,,,,,,,PF,3,weak,,,,,,,,7,1.385,,,,,,,,,,,,,,,,,,,,,,,,,,,,1,weak,33,86,1,0,0,response1disk,8,54,-6,6,1,0,0,rectangle,-6,6,1,0,0,0,3,0.002,-6,6,1,0,0,0,53,53,65,1,0,,,,,,,,,,,,,,,,,,,,,
,,,,,,,,,,,,,,,,,,,,,,,,,,,,,,,,,,,,,,,,,,5ff040139cc6b3ee87f4af58,606a0fd3c8e677356aece9be,2021-04-04_21h13.50.880,Colour_Similarity_Experiment,2020.2.10,Win32,60,60675255c767bca6388caeee,17.08399366,16.81001727,16.74576271,16.76868829,16.73613445,16.76868829,,,,,,,,,,,,,,,,,,,,PF,3,weak,,,,,,,,7,1.716,,,,,,,,,,,,,,,,,,,,,,,,,,,,3,weak,56,96,1,0,0,response1disk,2,55,-7,3,1,0,0,rectangle,21,-66,1,0,0,4,4,1.865,7,7,1,0,0,0,54,54,36,1,1,response3disk_3,rectangle,,,,,,,,,,,,,,,,,,,
,,,,,,,,,,,,,,,,,,,,,,,,,,,,,,,,,,,,,,,,,,5ff040139cc6b3ee87f4af58,606a0fd3c8e677356aece9be,2021-04-04_21h13.50.880,Colour_Similarity_Experiment,2020.2.10,Win32,60,60675255c767bca6388caeee,17.08399366,16.81001727,16.74576271,16.76868829,16.73613445,16.76868829,,,,,,,,,,,,,,,,,,,,PF,3,strong,,,,,,,,0,2.365,,,,,,,,,,,,,,,,,,,,,,,,,,,,8,strong,-34,91,1,0,0,response7disk,2,56,-5,12,1,0,0,rectangle,-5,12,1,0,0,4,0,0.003,-5,12,1,0,0,0,55,55,22,1,0,,,,,,,,,,,,,,,,,,,,,
,,,,,,,,,,,,,,,,,,,,,,,,,,,,,,,,,,,,,,,,,,5ff040139cc6b3ee87f4af58,606a0fd3c8e677356aece9be,2021-04-04_21h13.50.880,Colour_Similarity_Experiment,2020.2.10,Win32,60,60675255c767bca6388caeee,17.08399366,16.81001727,16.74576271,16.76868829,16.73613445,16.76868829,,,,,,,,,,,,,,,,,,,,PF,3,weak,,,,,,,,7,0.883,,,,,,,,,,,,,,,,,,,,,,,,,,,,4,weak,31,86,1,0,0,response1disk,3,57,1,1,1,0,0,rectangle,1,1,1,0,0,4,3,0.003,1,1,1,0,0,0,56,56,89,1,0,,,,,,,,,,,,,,,,,,,,,
,,,,,,,,,,,,,,,,,,,,,,,,,,,,,,,,,,,,,,,,,,5ff040139cc6b3ee87f4af58,606a0fd3c8e677356aece9be,2021-04-04_21h13.50.880,Colour_Similarity_Experiment,2020.2.10,Win32,60,60675255c767bca6388caeee,17.08399366,16.81001727,16.74576271,16.76868829,16.73613445,16.76868829,,,,,,,,,,,,,,,,,,,,PF,3,strong,,,,,,,,7,0.917,,,,,,,,,,,,,,,,,,,,,,,,,,,,1,strong,28,83,1,0,0,response1disk,1,58,7,-6,1,0,0,rectangle,7,-6,1,0,0,4,0,0.003,7,-6,1,0,0,0,57,57,151,1,0,,,,,,,,,,,,,,,,,,,,,
,,,,,,,,,,,,,,,,,,,,,,,,,,,,,,,,,,,,,,,,,,5ff040139cc6b3ee87f4af58,606a0fd3c8e677356aece9be,2021-04-04_21h13.50.880,Colour_Similarity_Experiment,2020.2.10,Win32,60,60675255c767bca6388caeee,17.08399366,16.81001727,16.74576271,16.76868829,16.73613445,16.76868829,,,,,,,,,,,,,,,,,,,,PF,3,strong,,,,,,,,4,1.582,,,,,,,,,,,,,,,,,,,,,,,,,,,,9,strong,43,-71,1,0,0,response3disk,9,59,11,-3,1,0,0,rectangle,11,-3,1,0,0,4,5,0.003,11,-3,1,0,0,0,58,58,17,1,0,,,,,,,,,,,,,,,,,,,,,
,,,,,,,,,,,,,,,,,,,,,,,,,,,,,,,,,,,,,,,,,,5ff040139cc6b3ee87f4af58,606a0fd3c8e677356aece9be,2021-04-04_21h13.50.880,Colour_Similarity_Experiment,2020.2.10,Win32,60,60675255c767bca6388caeee,17.08399366,16.81001727,16.74576271,16.76868829,16.73613445,16.76868829,,,,,,,,,,,,,,,,,,,,PF,3,strong,,,,,,,,4,2.349,,,,,,,,,,,,,,,,,,,,,,,,,,,,3,strong,31,-78,1,0,0,response3disk,1,60,-2,-1,1,0,0,rectangle,-2,-1,1,0,0,4,2,0.002,-2,-1,1,0,0,0,59,59,125,1,0,,,,,,,,,,,,,,,,,,,,,
,,,,,,,,,,,,,,,,,,,,,,,,,,,,,,,,,,,,,,,,,,5ff040139cc6b3ee87f4af58,606a0fd3c8e677356aece9be,2021-04-04_21h13.50.880,Colour_Similarity_Experiment,2020.2.10,Win32,60,60675255c767bca6388caeee,17.08399366,16.81001727,16.74576271,16.76868829,16.73613445,16.76868829,,,,,,,,,,,,,,,,,,,,PF,3,strong,,,,,,,,7,1.448,,,,,,,,,,,,,,,,,,,,,,,,,,,,6,strong,46,85,1,0,0,response1disk,4,61,-4,1,1,0,0,rectangle,-4,1,1,0,0,4,3,0.001,-4,1,1,0,0,0,60,60,56,1,0,,,,,,,,,,,,,,,,,,,,,
,,,,,,,,,,,,,,,,,,,,,,,,,,,,,,,,,,,,,,,,,,5ff040139cc6b3ee87f4af58,606a0fd3c8e677356aece9be,2021-04-04_21h13.50.880,Colour_Similarity_Experiment,2020.2.10,Win32,60,60675255c767bca6388caeee,17.08399366,16.81001727,16.74576271,16.76868829,16.73613445,16.76868829,,,,,,,,,,,,,,,,,,,,PF,3,weak,,,,,,,,7,1.115,,,,,,,,,,,,,,,,,,,,,,,,,,,,8,weak,51,97,1,0,0,response1disk,7,62,1,3,1,0,0,rectangle,1,3,1,0,0,4,0,0.003,1,3,1,0,0,0,61,61,23,1,0,,,,,,,,,,,,,,,,,,,,,
,,,,,,,,,,,,,,,,,,,,,,,,,,,,,,,,,,,,,,,,,,5ff040139cc6b3ee87f4af58,606a0fd3c8e677356aece9be,2021-04-04_21h13.50.880,Colour_Similarity_Experiment,2020.2.10,Win32,60,60675255c767bca6388caeee,17.08399366,16.81001727,16.74576271,16.76868829,16.73613445,16.76868829,,,,,,,,,,,,,,,,,,,,PF,3,weak,,,,,,,,0,1.682,,,,,,,,,,,,,,,,,,,,,,,,,,,,7,weak,-30,91,1,0,0,response7disk,7,63,-6,8,1,0,0,rectangle,-6,8,1,0,0,4,1,0.003,-6,8,1,0,0,0,62,62,51,1,0,,,,,,,,,,,,,,,,,,,,,
,,,,,,,,,,,,,,,,,,,,,,,,,,,,,,,,,,,,,,,,,,5ff040139cc6b3ee87f4af58,606a0fd3c8e677356aece9be,2021-04-04_21h13.50.880,Colour_Similarity_Experiment,2020.2.10,Win32,60,60675255c767bca6388caeee,17.08399366,16.81001727,16.74576271,16.76868829,16.73613445,16.76868829,,,,,,,,,,,,,,,,,,,,PF,3,weak,,,,,,,,3,1.665,,,,,,,,,,,,,,,,,,,,,,,,,,,,3,weak,-38,-68,1,0,0,response5disk,6,64,9,-1,1,0,0,rectangle,9,-1,1,0,0,4,3,0.002,9,-1,1,0,0,0,63,63,47,1,0,,,,,,,,,,,,,,,,,,,,,
,,,,,,,,,,,,,,,,,,,,,,,,,,,,,,,,,,,,,,,,,,5ff040139cc6b3ee87f4af58,606a0fd3c8e677356aece9be,2021-04-04_21h13.50.880,Colour_Similarity_Experiment,2020.2.10,Win32,60,60675255c767bca6388caeee,17.08399366,16.81001727,16.74576271,16.76868829,16.73613445,16.76868829,,,,,,,,,,,,,,,,,,,,PF,3,weak,,,,,,,,3,1.365,,,,,,,,,,,,,,,,,,,,,,,,,,,,2,weak,-51,-68,1,0,0,response5disk,7,65,2,1,1,0,0,rectangle,2,1,1,0,0,4,2,0.004,2,1,1,0,0,0,64,64,107,1,0,,,,,,,,,,,,,,,,,,,,,
,,,,,,,,,,,,,,,,,,,,,,,,,,,,,,,,,,,,,,,,,,5ff040139cc6b3ee87f4af58,606a0fd3c8e677356aece9be,2021-04-04_21h13.50.880,Colour_Similarity_Experiment,2020.2.10,Win32,60,60675255c767bca6388caeee,17.08399366,16.81001727,16.74576271,16.76868829,16.73613445,16.76868829,,,,,,,,,,,,,,,,,,,,PF,3,weak,,,,,,,,7,1.532,,,,,,,,,,,,,,,,,,,,,,,,,,,,6,weak,29,93,1,0,0,response1disk,1,66,-3,3,1,0,0,rectangle,-3,3,1,0,0,4,3,0.002,-3,3,1,0,0,0,65,65,46,1,0,,,,,,,,,,,,,,,,,,,,,
,,,,,,,,,,,,,,,,,,,,,,,,,,,,,,,,,,,,,,,,,,5ff040139cc6b3ee87f4af58,606a0fd3c8e677356aece9be,2021-04-04_21h13.50.880,Colour_Similarity_Experiment,2020.2.10,Win32,60,60675255c767bca6388caeee,17.08399366,16.81001727,16.74576271,16.76868829,16.73613445,16.76868829,,,,,,,,,,,,,,,,,,,,PF,3,strong,,,,,,,,7,1.316,,,,,,,,,,,,,,,,,,,,,,,,,,,,6,strong,38,77,1,0,0,response1disk,3,67,-2,10,1,0,0,rectangle,-2,10,1,0,0,4,2,0.003,-2,10,1,0,0,0,66,66,21,1,0,,,,,,,,,,,,,,,,,,,,,
,,,,,,,,,,,,,,,,,,,,,,,,,,,,,,,,,,,,,,,,,,5ff040139cc6b3ee87f4af58,606a0fd3c8e677356aece9be,2021-04-04_21h13.50.880,Colour_Similarity_Experiment,2020.2.10,Win32,60,60675255c767bca6388caeee,17.08399366,16.81001727,16.74576271,16.76868829,16.73613445,16.76868829,,,,,,,,,,,,,,,,,,,,PF,3,strong,,,,,,,,0,0.799,,,,,,,,,,,,,,,,,,,,,,,,,,,,3,strong,-29,83,1,0,0,response7disk,3,68,-10,1,1,0,0,rectangle,-10,1,1,0,0,4,2,0.001,-10,1,1,0,0,0,67,67,68,1,0,,,,,,,,,,,,,,,,,,,,,
,,,,,,,,,,,,,,,,,,,,,,,,,,,,,,,,,,,,,,,,,,5ff040139cc6b3ee87f4af58,606a0fd3c8e677356aece9be,2021-04-04_21h13.50.880,Colour_Similarity_Experiment,2020.2.10,Win32,60,60675255c767bca6388caeee,17.08399366,16.81001727,16.74576271,16.76868829,16.73613445,16.76868829,,,,,,,,,,,,,,,,,,,,PF,3,weak,,,,,,,,7,3.165,,,,,,,,,,,,,,,,,,,,,,,,,,,,6,weak,45,85,1,0,0,response1disk,6,69,5,5,1,0,0,rectangle,5,5,1,0,0,4,7,0.003,5,5,1,0,0,0,68,68,0,1,0,,,,,,,,,,,,,,,,,,,,,
,,,,,,,,,,,,,,,,,,,,,,,,,,,,,,,,,,,,,,,,,,5ff040139cc6b3ee87f4af58,606a0fd3c8e677356aece9be,2021-04-04_21h13.50.880,Colour_Similarity_Experiment,2020.2.10,Win32,60,60675255c767bca6388caeee,17.08399366,16.81001727,16.74576271,16.76868829,16.73613445,16.76868829,,,,,,,,,,,,,,,,,,,,PF,3,strong,,,,,,,,4,1.882,,,,,,,,,,,,,,,,,,,,,,,,,,,,2,strong,26,-61,1,0,0,response3disk,5,70,17,3,1,0,0,rectangle,17,3,1,0,0,4,3,0.003,17,3,1,0,0,0,69,69,80,1,0,,,,,,,,,,,,,,,,,,,,,
,,,,,,,,,,,,,,,,,,,,,,,,,,,,,,,,,,,,,,,,,,5ff040139cc6b3ee87f4af58,606a0fd3c8e677356aece9be,2021-04-04_21h13.50.880,Colour_Similarity_Experiment,2020.2.10,Win32,60,60675255c767bca6388caeee,17.08399366,16.81001727,16.74576271,16.76868829,16.73613445,16.76868829,,,,,,,,,,,,,,,,,,,,PF,3,weak,,,,,,,,4,1.249,,,,,,,,,,,,,,,,,,,,,,,,,,,,5,weak,28,-79,1,0,0,response3disk,7,71,10,2,1,0,0,rectangle,10,2,1,0,0,4,3,0,10,2,1,0,0,0,70,70,146,1,0,,,,,,,,,,,,,,,,,,,,,
,,,,,,,,,,,,,,,,,,,,,,,,,,,,,,,,,,,,,,,,,,5ff040139cc6b3ee87f4af58,606a0fd3c8e677356aece9be,2021-04-04_21h13.50.880,Colour_Similarity_Experiment,2020.2.10,Win32,60,60675255c767bca6388caeee,17.08399366,16.81001727,16.74576271,16.76868829,16.73613445,16.76868829,,,,,,,,,,,,,,,,,,,,PF,3,weak,,,,,,,,0,1.265,,,,,,,,,,,,,,,,,,,,,,,,,,,,9,weak,-33,79,1,0,0,response7disk,7,72,-4,-3,1,0,0,rectangle,-4,-3,1,0,0,4,3,0,-4,-3,1,0,0,0,71,71,121,1,0,,,,,,,,,,,,,,,,,,,,,
,,,,,,,,,,,,,,,,,,,,,,,,,,,,,,,,,,,,,,,,,,5ff040139cc6b3ee87f4af58,606a0fd3c8e677356aece9be,2021-04-04_21h13.50.880,Colour_Similarity_Experiment,2020.2.10,Win32,60,60675255c767bca6388caeee,17.08399366,16.81001727,16.74576271,16.76868829,16.73613445,16.76868829,,,,,,,,,,,,,,,,,,,,PF,3,strong,,,,,,,,3,1.714,,,,,,,,,,,,,,,,,,,,,,,,,,,,9,strong,-31,-80,1,0,0,response5disk,6,73,9,-7,1,0,0,rectangle,9,-7,1,0,0,4,7,0.004,9,-7,1,0,0,0,72,72,117,1,0,,,,,,,,,,,,,,,,,,,,,
,,,,,,,,,,,,,,,,,,,,,,,,,,,,,,,,,,,,,,,,,,5ff040139cc6b3ee87f4af58,606a0fd3c8e677356aece9be,2021-04-04_21h13.50.880,Colour_Similarity_Experiment,2020.2.10,Win32,60,60675255c767bca6388caeee,17.08399366,16.81001727,16.74576271,16.76868829,16.73613445,16.76868829,,,,,,,,,,,,,,,,,,,,PF,3,weak,,,,,,,,3,1.232,,,,,,,,,,,,,,,,,,,,,,,,,,,,3,weak,-37,-63,1,0,0,response5disk,7,74,10,9,1,0,0,rectangle,10,9,1,0,0,4,3,0.002,10,9,1,0,0,0,73,73,41,1,0,,,,,,,,,,,,,,,,,,,,,
,,,,,,,,,,,,,,,,,,,,,,,,,,,,,,,,,,,,,,,,,,5ff040139cc6b3ee87f4af58,606a0fd3c8e677356aece9be,2021-04-04_21h13.50.880,Colour_Similarity_Experiment,2020.2.10,Win32,60,60675255c767bca6388caeee,17.08399366,16.81001727,16.74576271,16.76868829,16.73613445,16.76868829,,,,,,,,,,,,,,,,,,,,PF,3,weak,,,,,,,,7,1.549,,,,,,,,,,,,,,,,,,,,,,,,,,,,8,weak,33,88,1,0,0,response1disk,4,75,-5,9,1,0,0,rectangle,-5,9,1,0,0,4,4,0.001,-5,9,1,0,0,0,74,74,78,1,0,,,,,,,,,,,,,,,,,,,,,
,,,,,,,,,,,,,,,,,,,,,,,,,,,,,,,,,,,,,,,,,,5ff040139cc6b3ee87f4af58,606a0fd3c8e677356aece9be,2021-04-04_21h13.50.880,Colour_Similarity_Experiment,2020.2.10,Win32,60,60675255c767bca6388caeee,17.08399366,16.81001727,16.74576271,16.76868829,16.73613445,16.76868829,,,,,,,,,,,,,,,,,,,,PF,3,weak,,,,,,,,2,1.865,,,,,,,,,,,,,,,,,,,,,,,,,,,,5,weak,-64,-45,1,0,0,response5disk,5,76,12,3,1,0,0,rectangle,12,3,1,0,0,4,2,0.003,12,3,1,0,0,0,75,75,94,1,0,,,,,,,,,,,,,,,,,,,,,
,,,,,,,,,,,,,,,,,,,,,,,,,,,,,,,,,,,,,,,,,,5ff040139cc6b3ee87f4af58,606a0fd3c8e677356aece9be,2021-04-04_21h13.50.880,Colour_Similarity_Experiment,2020.2.10,Win32,60,60675255c767bca6388caeee,17.08399366,16.81001727,16.74576271,16.76868829,16.73613445,16.76868829,,,,,,,,,,,,,,,,,,,,PF,3,weak,,,,,,,,6,4.579,,,,,,,,,,,,,,,,,,,,,,,,,,,,1,weak,87,34,1,0,0,response1disk,7,77,-2,7,1,0,0,rectangle,-2,7,1,0,0,4,6,0.001,-2,7,1,0,0,0,76,76,150,1,0,,,,,,,,,,,,,,,,,,,,,
,,,,,,,,,,,,,,,,,,,,,,,,,,,,,,,,,,,,,,,,,,5ff040139cc6b3ee87f4af58,606a0fd3c8e677356aece9be,2021-04-04_21h13.50.880,Colour_Similarity_Experiment,2020.2.10,Win32,60,60675255c767bca6388caeee,17.08399366,16.81001727,16.74576271,16.76868829,16.73613445,16.76868829,,,,,,,,,,,,,,,,,,,,PF,3,strong,,,,,,,,7,1.148,,,,,,,,,,,,,,,,,,,,,,,,,,,,5,strong,39,99,1,0,0,response1disk,1,78,-5,-2,1,0,0,rectangle,-5,-2,1,0,0,4,1,0.001,-5,-2,1,0,0,0,77,77,131,1,0,,,,,,,,,,,,,,,,,,,,,
,,,,,,,,,,,,,,,,,,,,,,,,,,,,,,,,,,,,,,,,,,5ff040139cc6b3ee87f4af58,606a0fd3c8e677356aece9be,2021-04-04_21h13.50.880,Colour_Similarity_Experiment,2020.2.10,Win32,60,60675255c767bca6388caeee,17.08399366,16.81001727,16.74576271,16.76868829,16.73613445,16.76868829,,,,,,,,,,,,,,,,,,,,PF,3,weak,,,,,,,,7,0.966,,,,,,,,,,,,,,,,,,,,,,,,,,,,7,weak,60,100,1,0,0,response1disk,5,79,-5,-1,1,0,0,rectangle,-5,-1,1,0,0,4,2,0.002,-5,-1,1,0,0,0,78,78,92,1,0,,,,,,,,,,,,,,,,,,,,,
,,,,,,,,,,,,,,,,,,,,,,,,,,,,,,,,,,,,,,,,,,5ff040139cc6b3ee87f4af58,606a0fd3c8e677356aece9be,2021-04-04_21h13.50.880,Colour_Similarity_Experiment,2020.2.10,Win32,60,60675255c767bca6388caeee,17.08399366,16.81001727,16.74576271,16.76868829,16.73613445,16.76868829,,,,,,,,,,,,,,,,,,,,PF,3,weak,,,,,,,,7,0.999,,,,,,,,,,,,,,,,,,,,,,,,,,,,3,weak,47,107,1,0,0,response1disk,8,80,8,2,1,0,0,rectangle,8,2,1,0,0,4,0,0.003,8,2,1,0,0,0,79,79,3,1,0,,,,,,,,,,,,,,,,,,,,,
,,,,,,,,,,,,,,,,,,,,,,,,,,,,,,,,,,,,,,,,,,5ff040139cc6b3ee87f4af58,606a0fd3c8e677356aece9be,2021-04-04_21h13.50.880,Colour_Similarity_Experiment,2020.2.10,Win32,60,60675255c767bca6388caeee,17.08399366,16.81001727,16.74576271,16.76868829,16.73613445,16.76868829,,,,,,,,,,,,,,,,,,,,PF,3,strong,,,,,,,,7,1.366,,,,,,,,,,,,,,,,,,,,,,,,,,,,6,strong,51,95,1,0,0,response1disk,6,81,-9,-2,1,0,0,rectangle,-9,-2,1,0,0,4,3,0.002,-9,-2,1,0,0,0,80,80,91,1,0,,,,,,,,,,,,,,,,,,,,,
,,,,,,,,,,,,,,,,,,,,,,,,,,,,,,,,,,,,,,,,,,5ff040139cc6b3ee87f4af58,606a0fd3c8e677356aece9be,2021-04-04_21h13.50.880,Colour_Similarity_Experiment,2020.2.10,Win32,60,60675255c767bca6388caeee,17.08399366,16.81001727,16.74576271,16.76868829,16.73613445,16.76868829,,,,,,,,,,,,,,,,,,,,PF,3,strong,,,,,,,,7,1.066,,,,,,,,,,,,,,,,,,,,,,,,,,,,3,strong,35,91,1,0,0,response1disk,9,82,1,0,1,0,0,rectangle,1,0,1,0,0,4,6,0.003,1,0,1,0,0,0,81,81,143,1,0,,,,,,,,,,,,,,,,,,,,,
,,,,,,,,,,,,,,,,,,,,,,,,,,,,,,,,,,,,,,,,,,5ff040139cc6b3ee87f4af58,606a0fd3c8e677356aece9be,2021-04-04_21h13.50.880,Colour_Similarity_Experiment,2020.2.10,Win32,60,60675255c767bca6388caeee,17.08399366,16.81001727,16.74576271,16.76868829,16.73613445,16.76868829,,,,,,,,,,,,,,,,,,,,PF,3,strong,,,,,,,,0,1.099,,,,,,,,,,,,,,,,,,,,,,,,,,,,1,strong,-31,91,1,0,0,response7disk,9,83,-1,3,1,0,0,rectangle,-1,3,1,0,0,4,5,0.003,-1,3,1,0,0,0,82,82,123,1,0,,,,,,,,,,,,,,,,,,,,,
,,,,,,,,,,,,,,,,,,,,,,,,,,,,,,,,,,,,,,,,,,5ff040139cc6b3ee87f4af58,606a0fd3c8e677356aece9be,2021-04-04_21h13.50.880,Colour_Similarity_Experiment,2020.2.10,Win32,60,60675255c767bca6388caeee,17.08399366,16.81001727,16.74576271,16.76868829,16.73613445,16.76868829,,,,,,,,,,,,,,,,,,,,PF,3,weak,,,,,,,,3,2.515,,,,,,,,,,,,,,,,,,,,,,,,,,,,5,weak,-39,-75,1,0,0,response5disk,1,84,-3,-5,1,0,0,rectangle,78,38,1,0,0,6,6,1.965,2,-3,1,0,0,0,83,83,159,1,1,response1disk_3,rectangle,,,,,,,,,,,,,,,,,,,
,,,,,,,,,,,,,,,,,,,,,,,,,,,,,,,,,,,,,,,,,,5ff040139cc6b3ee87f4af58,606a0fd3c8e677356aece9be,2021-04-04_21h13.50.880,Colour_Similarity_Experiment,2020.2.10,Win32,60,60675255c767bca6388caeee,17.08399366,16.81001727,16.74576271,16.76868829,16.73613445,16.76868829,,,,,,,,,,,,,,,,,,,,PF,3,strong,,,,,,,,7,1.931,,,,,,,,,,,,,,,,,,,,,,,,,,,,8,strong,51,81,1,0,0,response1disk,3,85,1,-5,1,0,0,rectangle,1,-5,1,0,0,6,1,0.002,1,-5,1,0,0,0,84,84,154,1,0,,,,,,,,,,,,,,,,,,,,,
,,,,,,,,,,,,,,,,,,,,,,,,,,,,,,,,,,,,,,,,,,5ff040139cc6b3ee87f4af58,606a0fd3c8e677356aece9be,2021-04-04_21h13.50.880,Colour_Similarity_Experiment,2020.2.10,Win32,60,60675255c767bca6388caeee,17.08399366,16.81001727,16.74576271,16.76868829,16.73613445,16.76868829,,,,,,,,,,,,,,,,,,,,PF,3,weak,,,,,,,,7,1.246,,,,,,,,,,,,,,,,,,,,,,,,,,,,4,weak,38,93,1,0,0,response1disk,7,86,4,1,1,0,0,rectangle,4,1,1,0,0,6,7,0.002,4,1,1,0,0,0,85,85,38,1,0,,,,,,,,,,,,,,,,,,,,,
,,,,,,,,,,,,,,,,,,,,,,,,,,,,,,,,,,,,,,,,,,5ff040139cc6b3ee87f4af58,606a0fd3c8e677356aece9be,2021-04-04_21h13.50.880,Colour_Similarity_Experiment,2020.2.10,Win32,60,60675255c767bca6388caeee,17.08399366,16.81001727,16.74576271,16.76868829,16.73613445,16.76868829,,,,,,,,,,,,,,,,,,,,PF,3,weak,,,,,,,,7,0.965,,,,,,,,,,,,,,,,,,,,,,,,,,,,1,weak,47,89,1,0,0,response1disk,2,87,-3,7,1,0,0,rectangle,-3,7,1,0,0,6,4,0.002,-3,7,1,0,0,0,86,86,24,1,0,,,,,,,,,,,,,,,,,,,,,
,,,,,,,,,,,,,,,,,,,,,,,,,,,,,,,,,,,,,,,,,,5ff040139cc6b3ee87f4af58,606a0fd3c8e677356aece9be,2021-04-04_21h13.50.880,Colour_Similarity_Experiment,2020.2.10,Win32,60,60675255c767bca6388caeee,17.08399366,16.81001727,16.74576271,16.76868829,16.73613445,16.76868829,,,,,,,,,,,,,,,,,,,,PF,3,strong,,,,,,,,7,0.982,,,,,,,,,,,,,,,,,,,,,,,,,,,,7,strong,39,81,1,0,0,response1disk,3,88,-4,1,1,0,0,rectangle,-4,1,1,0,0,6,6,0.003,-4,1,1,0,0,0,87,87,73,1,0,,,,,,,,,,,,,,,,,,,,,
,,,,,,,,,,,,,,,,,,,,,,,,,,,,,,,,,,,,,,,,,,5ff040139cc6b3ee87f4af58,606a0fd3c8e677356aece9be,2021-04-04_21h13.50.880,Colour_Similarity_Experiment,2020.2.10,Win32,60,60675255c767bca6388caeee,17.08399366,16.81001727,16.74576271,16.76868829,16.73613445,16.76868829,,,,,,,,,,,,,,,,,,,,PF,3,weak,,,,,,,,7,2.249,,,,,,,,,,,,,,,,,,,,,,,,,,,,1,weak,30,75,1,0,0,response1disk,6,89,-7,-3,1,0,0,rectangle,-7,-3,1,0,0,6,0,0.002,-7,-3,1,0,0,0,88,88,144,1,0,,,,,,,,,,,,,,,,,,,,,
,,,,,,,,,,,,,,,,,,,,,,,,,,,,,,,,,,,,,,,,,,5ff040139cc6b3ee87f4af58,606a0fd3c8e677356aece9be,2021-04-04_21h13.50.880,Colour_Similarity_Experiment,2020.2.10,Win32,60,60675255c767bca6388caeee,17.08399366,16.81001727,16.74576271,16.76868829,16.73613445,16.76868829,,,,,,,,,,,,,,,,,,,,PF,3,weak,,,,,,,,0,1.25,,,,,,,,,,,,,,,,,,,,,,,,,,,,4,weak,-19,85,1,0,0,response7disk,6,90,3,-6,1,0,0,rectangle,3,-6,1,0,0,6,2,0.002,3,-6,1,0,0,0,89,89,120,1,0,,,,,,,,,,,,,,,,,,,,,
,,,,,,,,,,,,,,,,,,,,,,,,,,,,,,,,,,,,,,,,,,5ff040139cc6b3ee87f4af58,606a0fd3c8e677356aece9be,2021-04-04_21h13.50.880,Colour_Similarity_Experiment,2020.2.10,Win32,60,60675255c767bca6388caeee,17.08399366,16.81001727,16.74576271,16.76868829,16.73613445,16.76868829,,,,,,,,,,,,,,,,,,,,PF,3,weak,,,,,,,,7,0.849,,,,,,,,,,,,,,,,,,,,,,,,,,,,4,weak,35,92,1,0,0,response1disk,1,91,1,-1,1,0,0,rectangle,1,-1,1,0,0,6,6,0.002,1,-1,1,0,0,0,90,90,115,1,0,,,,,,,,,,,,,,,,,,,,,
,,,,,,,,,,,,,,,,,,,,,,,,,,,,,,,,,,,,,,,,,,5ff040139cc6b3ee87f4af58,606a0fd3c8e677356aece9be,2021-04-04_21h13.50.880,Colour_Similarity_Experiment,2020.2.10,Win32,60,60675255c767bca6388caeee,17.08399366,16.81001727,16.74576271,16.76868829,16.73613445,16.76868829,,,,,,,,,,,,,,,,,,,,PF,3,weak,,,,,,,,3,1.199,,,,,,,,,,,,,,,,,,,,,,,,,,,,4,weak,-34,-69,1,0,0,response5disk,9,92,1,-7,1,0,0,rectangle,1,-7,1,0,0,6,4,0.004,1,-7,1,0,0,0,91,91,75,1,0,,,,,,,,,,,,,,,,,,,,,
,,,,,,,,,,,,,,,,,,,,,,,,,,,,,,,,,,,,,,,,,,5ff040139cc6b3ee87f4af58,606a0fd3c8e677356aece9be,2021-04-04_21h13.50.880,Colour_Similarity_Experiment,2020.2.10,Win32,60,60675255c767bca6388caeee,17.08399366,16.81001727,16.74576271,16.76868829,16.73613445,16.76868829,,,,,,,,,,,,,,,,,,,,PF,3,weak,,,,,,,,3,2.381,,,,,,,,,,,,,,,,,,,,,,,,,,,,6,weak,-31,-75,1,0,0,response5disk,8,93,2,1,1,0,0,rectangle,2,1,1,0,0,6,2,0.001,2,1,1,0,0,0,92,92,64,1,0,,,,,,,,,,,,,,,,,,,,,
,,,,,,,,,,,,,,,,,,,,,,,,,,,,,,,,,,,,,,,,,,5ff040139cc6b3ee87f4af58,606a0fd3c8e677356aece9be,2021-04-04_21h13.50.880,Colour_Similarity_Experiment,2020.2.10,Win32,60,60675255c767bca6388caeee,17.08399366,16.81001727,16.74576271,16.76868829,16.73613445,16.76868829,,,,,,,,,,,,,,,,,,,,PF,3,weak,,,,,,,,7,0.932,,,,,,,,,,,,,,,,,,,,,,,,,,,,5,weak,52,103,1,0,0,response1disk,4,94,-3,-5,1,0,0,rectangle,-3,-5,1,0,0,6,4,0.003,-3,-5,1,0,0,0,93,93,54,1,0,,,,,,,,,,,,,,,,,,,,,
,,,,,,,,,,,,,,,,,,,,,,,,,,,,,,,,,,,,,,,,,,5ff040139cc6b3ee87f4af58,606a0fd3c8e677356aece9be,2021-04-04_21h13.50.880,Colour_Similarity_Experiment,2020.2.10,Win32,60,60675255c767bca6388caeee,17.08399366,16.81001727,16.74576271,16.76868829,16.73613445,16.76868829,,,,,,,,,,,,,,,,,,,,PF,3,weak,,,,,,,,1,2.515,,,,,,,,,,,,,,,,,,,,,,,,,,,,8,weak,-67,26,1,0,0,response7disk,3,95,-25,-1,1,0,0,rectangle,-25,-1,1,0,0,6,5,0.003,-25,-1,1,0,0,0,94,94,71,1,0,,,,,,,,,,,,,,,,,,,,,
,,,,,,,,,,,,,,,,,,,,,,,,,,,,,,,,,,,,,,,,,,5ff040139cc6b3ee87f4af58,606a0fd3c8e677356aece9be,2021-04-04_21h13.50.880,Colour_Similarity_Experiment,2020.2.10,Win32,60,60675255c767bca6388caeee,17.08399366,16.81001727,16.74576271,16.76868829,16.73613445,16.76868829,,,,,,,,,,,,,,,,,,,,PF,3,weak,,,,,,,,1,0.849,,,,,,,,,,,,,,,,,,,,,,,,,,,,1,weak,-69,31,1,0,0,response7disk,3,96,-16,-2,1,0,0,rectangle,-16,-2,1,0,0,6,2,0.003,-16,-2,1,0,0,0,95,95,1,1,0,,,,,,,,,,,,,,,,,,,,,
,,,,,,,,,,,,,,,,,,,,,,,,,,,,,,,,,,,,,,,,,,5ff040139cc6b3ee87f4af58,606a0fd3c8e677356aece9be,2021-04-04_21h13.50.880,Colour_Similarity_Experiment,2020.2.10,Win32,60,60675255c767bca6388caeee,17.08399366,16.81001727,16.74576271,16.76868829,16.73613445,16.76868829,,,,,,,,,,,,,,,,,,,,PF,3,strong,,,,,,,,0,1.298,,,,,,,,,,,,,,,,,,,,,,,,,,,,5,strong,-51,79,1,0,0,response7disk,3,97,-6,-3,1,0,0,rectangle,-6,-3,1,0,0,6,6,0.002,-6,-3,1,0,0,0,96,96,25,1,0,,,,,,,,,,,,,,,,,,,,,
,,,,,,,,,,,,,,,,,,,,,,,,,,,,,,,,,,,,,,,,,,5ff040139cc6b3ee87f4af58,606a0fd3c8e677356aece9be,2021-04-04_21h13.50.880,Colour_Similarity_Experiment,2020.2.10,Win32,60,60675255c767bca6388caeee,17.08399366,16.81001727,16.74576271,16.76868829,16.73613445,16.76868829,,,,,,,,,,,,,,,,,,,,PF,3,weak,,,,,,,,1,1.365,,,,,,,,,,,,,,,,,,,,,,,,,,,,3,weak,-65,33,1,0,0,response7disk,4,98,-21,-1,1,0,0,rectangle,-21,-1,1,0,0,6,6,0,-21,-1,1,0,0,0,97,97,30,1,0,,,,,,,,,,,,,,,,,,,,,
,,,,,,,,,,,,,,,,,,,,,,,,,,,,,,,,,,,,,,,,,,5ff040139cc6b3ee87f4af58,606a0fd3c8e677356aece9be,2021-04-04_21h13.50.880,Colour_Similarity_Experiment,2020.2.10,Win32,60,60675255c767bca6388caeee,17.08399366,16.81001727,16.74576271,16.76868829,16.73613445,16.76868829,,,,,,,,,,,,,,,,,,,,PF,3,strong,,,,,,,,0,1.216,,,,,,,,,,,,,,,,,,,,,,,,,,,,7,strong,-35,83,1,0,0,response7disk,4,99,-9,3,1,0,0,rectangle,-9,3,1,0,0,6,6,0,-9,3,1,0,0,0,98,98,158,1,0,,,,,,,,,,,,,,,,,,,,,
,,,,,,,,,,,,,,,,,,,,,,,,,,,,,,,,,,,,,,,,,,5ff040139cc6b3ee87f4af58,606a0fd3c8e677356aece9be,2021-04-04_21h13.50.880,Colour_Similarity_Experiment,2020.2.10,Win32,60,60675255c767bca6388caeee,17.08399366,16.81001727,16.74576271,16.76868829,16.73613445,16.76868829,,,,,,,,,,,,,,,,,,,,PF,3,strong,,,,,,,,7,0.932,,,,,,,,,,,,,,,,,,,,,,,,,,,,3,strong,40,80,1,0,0,response1disk,2,100,3,3,1,0,0,rectangle,3,3,1,0,0,6,4,0.002,3,3,1,0,0,0,99,99,93,1,0,,,,,,,,,,,,,,,,,,,,,
,,,,,,,,,,,,,,,,,,,,,,,,,,,,,,,,,,,,,,,,,,5ff040139cc6b3ee87f4af58,606a0fd3c8e677356aece9be,2021-04-04_21h13.50.880,Colour_Similarity_Experiment,2020.2.10,Win32,60,60675255c767bca6388caeee,17.08399366,16.81001727,16.74576271,16.76868829,16.73613445,16.76868829,,,,,,,,,,,,,,,,,,,,PF,3,strong,,,,,,,,7,1.082,,,,,,,,,,,,,,,,,,,,,,,,,,,,4,strong,31,93,1,0,0,response1disk,5,101,1,3,1,0,0,rectangle,1,3,1,0,0,6,3,0.001,1,3,1,0,0,0,100,100,116,1,0,,,,,,,,,,,,,,,,,,,,,
,,,,,,,,,,,,,,,,,,,,,,,,,,,,,,,,,,,,,,,,,,5ff040139cc6b3ee87f4af58,606a0fd3c8e677356aece9be,2021-04-04_21h13.50.880,Colour_Similarity_Experiment,2020.2.10,Win32,60,60675255c767bca6388caeee,17.08399366,16.81001727,16.74576271,16.76868829,16.73613445,16.76868829,,,,,,,,,,,,,,,,,,,,PF,3,strong,,,,,,,,1,1.365,,,,,,,,,,,,,,,,,,,,,,,,,,,,5,strong,-75,29,1,0,0,response7disk,4,102,-17,-1,1,0,0,rectangle,-17,-1,1,0,0,6,5,0.002,-17,-1,1,0,0,0,101,101,8,1,0,,,,,,,,,,,,,,,,,,,,,
,,,,,,,,,,,,,,,,,,,,,,,,,,,,,,,,,,,,,,,,,,5ff040139cc6b3ee87f4af58,606a0fd3c8e677356aece9be,2021-04-04_21h13.50.880,Colour_Similarity_Experiment,2020.2.10,Win32,60,60675255c767bca6388caeee,17.08399366,16.81001727,16.74576271,16.76868829,16.73613445,16.76868829,,,,,,,,,,,,,,,,,,,,PF,3,strong,,,,,,,,7,0.882,,,,,,,,,,,,,,,,,,,,,,,,,,,,7,strong,36,76,1,0,0,response1disk,7,103,-1,-1,1,0,0,rectangle,-1,-1,1,0,0,6,5,0,-1,-1,1,0,0,0,102,102,34,1,0,,,,,,,,,,,,,,,,,,,,,
,,,,,,,,,,,,,,,,,,,,,,,,,,,,,,,,,,,,,,,,,,5ff040139cc6b3ee87f4af58,606a0fd3c8e677356aece9be,2021-04-04_21h13.50.880,Colour_Similarity_Experiment,2020.2.10,Win32,60,60675255c767bca6388caeee,17.08399366,16.81001727,16.74576271,16.76868829,16.73613445,16.76868829,,,,,,,,,,,,,,,,,,,,PF,3,strong,,,,,,,,5,2.015,,,,,,,,,,,,,,,,,,,,,,,,,,,,7,strong,72,-33,1,0,0,response3disk,8,104,-2,1,1,0,0,rectangle,-84,-33,1,0,0,6,2,1.981,-11,7,1,0,0,0,103,103,97,1,1,response5disk_3,rectangle,,,,,,,,,,,,,,,,,,,
,,,,,,,,,,,,,,,,,,,,,,,,,,,,,,,,,,,,,,,,,,5ff040139cc6b3ee87f4af58,606a0fd3c8e677356aece9be,2021-04-04_21h13.50.880,Colour_Similarity_Experiment,2020.2.10,Win32,60,60675255c767bca6388caeee,17.08399366,16.81001727,16.74576271,16.76868829,16.73613445,16.76868829,,,,,,,,,,,,,,,,,,,,PF,3,strong,,,,,,,,7,1.381,,,,,,,,,,,,,,,,,,,,,,,,,,,,4,strong,38,89,1,0,0,response1disk,7,105,-4,4,1,0,0,rectangle,-4,4,1,0,0,6,0,0.002,-4,4,1,0,0,0,104,104,87,1,0,,,,,,,,,,,,,,,,,,,,,
,,,,,,,,,,,,,,,,,,,,,,,,,,,,,,,,,,,,,,,,,,5ff040139cc6b3ee87f4af58,606a0fd3c8e677356aece9be,2021-04-04_21h13.50.880,Colour_Similarity_Experiment,2020.2.10,Win32,60,60675255c767bca6388caeee,17.08399366,16.81001727,16.74576271,16.76868829,16.73613445,16.76868829,,,,,,,,,,,,,,,,,,,,PF,3,weak,,,,,,,,7,1.098,,,,,,,,,,,,,,,,,,,,,,,,,,,,3,weak,37,88,1,0,0,response1disk,3,106,1,11,1,0,0,rectangle,1,11,1,0,0,6,0,0,1,11,1,0,0,0,105,105,4,1,0,,,,,,,,,,,,,,,,,,,,,
,,,,,,,,,,,,,,,,,,,,,,,,,,,,,,,,,,,,,,,,,,5ff040139cc6b3ee87f4af58,606a0fd3c8e677356aece9be,2021-04-04_21h13.50.880,Colour_Similarity_Experiment,2020.2.10,Win32,60,60675255c767bca6388caeee,17.08399366,16.81001727,16.74576271,16.76868829,16.73613445,16.76868829,,,,,,,,,,,,,,,,,,,,PF,3,weak,,,,,,,,7,0.816,,,,,,,,,,,,,,,,,,,,,,,,,,,,7,weak,25,71,1,0,0,response1disk,2,107,-13,-10,1,0,0,rectangle,-13,-10,1,0,0,6,6,0.001,-13,-10,1,0,0,0,106,106,32,1,0,,,,,,,,,,,,,,,,,,,,,
,,,,,,,,,,,,,,,,,,,,,,,,,,,,,,,,,,,,,,,,,,5ff040139cc6b3ee87f4af58,606a0fd3c8e677356aece9be,2021-04-04_21h13.50.880,Colour_Similarity_Experiment,2020.2.10,Win32,60,60675255c767bca6388caeee,17.08399366,16.81001727,16.74576271,16.76868829,16.73613445,16.76868829,,,,,,,,,,,,,,,,,,,,PF,3,weak,,,,,,,,7,0.966,,,,,,,,,,,,,,,,,,,,,,,,,,,,9,weak,45,87,1,0,0,response1disk,8,108,3,8,1,0,0,rectangle,3,8,1,0,0,6,1,0.002,3,8,1,0,0,0,107,107,67,1,0,,,,,,,,,,,,,,,,,,,,,
,,,,,,,,,,,,,,,,,,,,,,,,,,,,,,,,,,,,,,,,,,5ff040139cc6b3ee87f4af58,606a0fd3c8e677356aece9be,2021-04-04_21h13.50.880,Colour_Similarity_Experiment,2020.2.10,Win32,60,60675255c767bca6388caeee,17.08399366,16.81001727,16.74576271,16.76868829,16.73613445,16.76868829,,,,,,,,,,,,,,,,,,,,PF,3,strong,,,,,,,,4,2.398,,,,,,,,,,,,,,,,,,,,,,,,,,,,6,strong,28,-82,1,0,0,response3disk,1,109,9,-9,1,0,0,rectangle,9,-9,1,0,0,6,4,0.002,9,-9,1,0,0,0,108,108,5,1,0,,,,,,,,,,,,,,,,,,,,,
,,,,,,,,,,,,,,,,,,,,,,,,,,,,,,,,,,,,,,,,,,5ff040139cc6b3ee87f4af58,606a0fd3c8e677356aece9be,2021-04-04_21h13.50.880,Colour_Similarity_Experiment,2020.2.10,Win32,60,60675255c767bca6388caeee,17.08399366,16.81001727,16.74576271,16.76868829,16.73613445,16.76868829,,,,,,,,,,,,,,,,,,,,PF,3,weak,,,,,,,,4,2.215,,,,,,,,,,,,,,,,,,,,,,,,,,,,4,weak,21,-51,1,0,0,response3disk,8,110,-10,-2,1,0,0,rectangle,-10,-2,1,0,0,6,7,0.002,-10,-2,1,0,0,0,109,109,124,1,0,,,,,,,,,,,,,,,,,,,,,
,,,,,,,,,,,,,,,,,,,,,,,,,,,,,,,,,,,,,,,,,,5ff040139cc6b3ee87f4af58,606a0fd3c8e677356aece9be,2021-04-04_21h13.50.880,Colour_Similarity_Experiment,2020.2.10,Win32,60,60675255c767bca6388caeee,17.08399366,16.81001727,16.74576271,16.76868829,16.73613445,16.76868829,,,,,,,,,,,,,,,,,,,,PF,3,weak,,,,,,,,7,0.816,,,,,,,,,,,,,,,,,,,,,,,,,,,,2,weak,61,92,1,0,0,response1disk,4,111,1,7,1,0,0,rectangle,1,7,1,0,0,6,3,0.003,1,7,1,0,0,0,110,110,127,1,0,,,,,,,,,,,,,,,,,,,,,
,,,,,,,,,,,,,,,,,,,,,,,,,,,,,,,,,,,,,,,,,,5ff040139cc6b3ee87f4af58,606a0fd3c8e677356aece9be,2021-04-04_21h13.50.880,Colour_Similarity_Experiment,2020.2.10,Win32,60,60675255c767bca6388caeee,17.08399366,16.81001727,16.74576271,16.76868829,16.73613445,16.76868829,,,,,,,,,,,,,,,,,,,,PF,3,strong,,,,,,,,7,1.023,,,,,,,,,,,,,,,,,,,,,,,,,,,,2,strong,31,71,1,0,0,response1disk,6,112,7,13,1,0,0,rectangle,7,13,1,0,0,6,6,0.001,7,13,1,0,0,0,111,111,40,1,0,,,,,,,,,,,,,,,,,,,,,
,,,,,,,,,,,,,,,,,,,,,,,,,,,,,,,,,,,,,,,,,,5ff040139cc6b3ee87f4af58,606a0fd3c8e677356aece9be,2021-04-04_21h13.50.880,Colour_Similarity_Experiment,2020.2.10,Win32,60,60675255c767bca6388caeee,17.08399366,16.81001727,16.74576271,16.76868829,16.73613445,16.76868829,,,,,,,,,,,,,,,,,,,,PF,3,strong,,,,,,,,0,0.965,,,,,,,,,,,,,,,,,,,,,,,,,,,,8,strong,-17,77,1,0,0,response7disk,6,113,-1,5,1,0,0,rectangle,-1,5,1,0,0,6,0,0.002,-1,5,1,0,0,0,112,112,37,1,0,,,,,,,,,,,,,,,,,,,,,
,,,,,,,,,,,,,,,,,,,,,,,,,,,,,,,,,,,,,,,,,,5ff040139cc6b3ee87f4af58,606a0fd3c8e677356aece9be,2021-04-04_21h13.50.880,Colour_Similarity_Experiment,2020.2.10,Win32,60,60675255c767bca6388caeee,17.08399366,16.81001727,16.74576271,16.76868829,16.73613445,16.76868829,,,,,,,,,,,,,,,,,,,,PF,3,weak,,,,,,,,2,1.698,,,,,,,,,,,,,,,,,,,,,,,,,,,,2,weak,-77,-45,1,0,0,response5disk,5,114,-9,0,1,0,0,rectangle,-9,0,1,0,0,6,4,0.004,-9,0,1,0,0,0,113,113,147,1,0,,,,,,,,,,,,,,,,,,,,,
,,,,,,,,,,,,,,,,,,,,,,,,,,,,,,,,,,,,,,,,,,5ff040139cc6b3ee87f4af58,606a0fd3c8e677356aece9be,2021-04-04_21h13.50.880,Colour_Similarity_Experiment,2020.2.10,Win32,60,60675255c767bca6388caeee,17.08399366,16.81001727,16.74576271,16.76868829,16.73613445,16.76868829,,,,,,,,,,,,,,,,,,,,PF,3,strong,,,,,,,,7,0.9,,,,,,,,,,,,,,,,,,,,,,,,,,,,4,strong,31,68,1,0,0,response1disk,2,115,5,7,1,0,0,rectangle,5,7,1,0,0,6,7,0.002,5,7,1,0,0,0,114,114,13,1,0,,,,,,,,,,,,,,,,,,,,,
,,,,,,,,,,,,,,,,,,,,,,,,,,,,,,,,,,,,,,,,,,5ff040139cc6b3ee87f4af58,606a0fd3c8e677356aece9be,2021-04-04_21h13.50.880,Colour_Similarity_Experiment,2020.2.10,Win32,60,60675255c767bca6388caeee,17.08399366,16.81001727,16.74576271,16.76868829,16.73613445,16.76868829,,,,,,,,,,,,,,,,,,,,PF,3,strong,,,,,,,,7,1.049,,,,,,,,,,,,,,,,,,,,,,,,,,,,9,strong,34,79,1,0,0,response1disk,8,116,-3,1,1,0,0,rectangle,-3,1,1,0,0,6,0,0.003,-3,1,1,0,0,0,115,115,6,1,0,,,,,,,,,,,,,,,,,,,,,
,,,,,,,,,,,,,,,,,,,,,,,,,,,,,,,,,,,,,,,,,,5ff040139cc6b3ee87f4af58,606a0fd3c8e677356aece9be,2021-04-04_21h13.50.880,Colour_Similarity_Experiment,2020.2.10,Win32,60,60675255c767bca6388caeee,17.08399366,16.81001727,16.74576271,16.76868829,16.73613445,16.76868829,,,,,,,,,,,,,,,,,,,,PF,3,strong,,,,,,,,2,1.382,,,,,,,,,,,,,,,,,,,,,,,,,,,,7,strong,-62,-27,1,0,0,response5disk,9,117,-9,-1,1,0,0,rectangle,-9,-1,1,0,0,6,4,0.002,-9,-1,1,0,0,0,116,116,155,1,0,,,,,,,,,,,,,,,,,,,,,
,,,,,,,,,,,,,,,,,,,,,,,,,,,,,,,,,,,,,,,,,,5ff040139cc6b3ee87f4af58,606a0fd3c8e677356aece9be,2021-04-04_21h13.50.880,Colour_Similarity_Experiment,2020.2.10,Win32,60,60675255c767bca6388caeee,17.08399366,16.81001727,16.74576271,16.76868829,16.73613445,16.76868829,,,,,,,,,,,,,,,,,,,,PF,3,weak,,,,,,,,0,1.183,,,,,,,,,,,,,,,,,,,,,,,,,,,,3,weak,-30,77,1,0,0,response7disk,9,118,-11,8,1,0,0,rectangle,-11,8,1,0,0,6,1,0.002,-11,8,1,0,0,0,117,117,79,1,0,,,,,,,,,,,,,,,,,,,,,
,,,,,,,,,,,,,,,,,,,,,,,,,,,,,,,,,,,,,,,,,,5ff040139cc6b3ee87f4af58,606a0fd3c8e677356aece9be,2021-04-04_21h13.50.880,Colour_Similarity_Experiment,2020.2.10,Win32,60,60675255c767bca6388caeee,17.08399366,16.81001727,16.74576271,16.76868829,16.73613445,16.76868829,,,,,,,,,,,,,,,,,,,,PF,3,weak,,,,,,,,5,2.315,,,,,,,,,,,,,,,,,,,,,,,,,,,,2,weak,65,-33,1,0,0,response3disk,6,119,-1,4,1,0,0,rectangle,-1,4,1,0,0,6,1,0,-1,4,1,0,0,0,118,118,113,1,0,,,,,,,,,,,,,,,,,,,,,
,,,,,,,,,,,,,,,,,,,,,,,,,,,,,,,,,,,,,,,,,,5ff040139cc6b3ee87f4af58,606a0fd3c8e677356aece9be,2021-04-04_21h13.50.880,Colour_Similarity_Experiment,2020.2.10,Win32,60,60675255c767bca6388caeee,17.08399366,16.81001727,16.74576271,16.76868829,16.73613445,16.76868829,,,,,,,,,,,,,,,,,,,,PF,3,strong,,,,,,,,2,1.782,,,,,,,,,,,,,,,,,,,,,,,,,,,,1,strong,-69,-34,1,0,0,response5disk,7,120,-2,3,1,0,0,rectangle,-2,3,1,0,0,6,2,0.003,-2,3,1,0,0,0,119,119,137,1,0,,,,,,,,,,,,,,,,,,,,,
,,,,,,,,,,,,,,,,,,,,,,,,,,,,,,,,,,,,,,,,,,5ff040139cc6b3ee87f4af58,606a0fd3c8e677356aece9be,2021-04-04_21h13.50.880,Colour_Similarity_Experiment,2020.2.10,Win32,60,60675255c767bca6388caeee,17.08399366,16.81001727,16.74576271,16.76868829,16.73613445,16.76868829,,,,,,,,,,,,,,,,,,,,PF,3,weak,,,,,,,,2,1.649,,,,,,,,,,,,,,,,,,,,,,,,,,,,9,weak,-61,-25,1,0,0,response5disk,6,121,-13,-3,1,0,0,rectangle,-13,-3,1,0,0,6,7,0.002,-13,-3,1,0,0,0,120,120,148,1,0,,,,,,,,,,,,,,,,,,,,,
,,,,,,,,,,,,,,,,,,,,,,,,,,,,,,,,,,,,,,,,,,5ff040139cc6b3ee87f4af58,606a0fd3c8e677356aece9be,2021-04-04_21h13.50.880,Colour_Similarity_Experiment,2020.2.10,Win32,60,60675255c767bca6388caeee,17.08399366,16.81001727,16.74576271,16.76868829,16.73613445,16.76868829,,,,,,,,,,,,,,,,,,,,PF,3,strong,,,,,,,,7,1.049,,,,,,,,,,,,,,,,,,,,,,,,,,,,7,strong,39,79,1,0,0,response1disk,2,122,-7,-1,1,0,0,rectangle,-7,-1,1,0,0,6,6,0.001,-7,-1,1,0,0,0,121,121,138,1,0,,,,,,,,,,,,,,,,,,,,,
,,,,,,,,,,,,,,,,,,,,,,,,,,,,,,,,,,,,,,,,,,5ff040139cc6b3ee87f4af58,606a0fd3c8e677356aece9be,2021-04-04_21h13.50.880,Colour_Similarity_Experiment,2020.2.10,Win32,60,60675255c767bca6388caeee,17.08399366,16.81001727,16.74576271,16.76868829,16.73613445,16.76868829,,,,,,,,,,,,,,,,,,,,PF,3,weak,,,,,,,,7,1.066,,,,,,,,,,,,,,,,,,,,,,,,,,,,6,weak,31,79,1,0,0,response1disk,7,123,3,8,1,0,0,rectangle,3,8,1,0,0,6,0,0.004,3,8,1,0,0,0,122,122,50,1,0,,,,,,,,,,,,,,,,,,,,,
,,,,,,,,,,,,,,,,,,,,,,,,,,,,,,,,,,,,,,,,,,5ff040139cc6b3ee87f4af58,606a0fd3c8e677356aece9be,2021-04-04_21h13.50.880,Colour_Similarity_Experiment,2020.2.10,Win32,60,60675255c767bca6388caeee,17.08399366,16.81001727,16.74576271,16.76868829,16.73613445,16.76868829,,,,,,,,,,,,,,,,,,,,PF,3,strong,,,,,,,,7,1.683,,,,,,,,,,,,,,,,,,,,,,,,,,,,5,strong,50,86,1,0,0,response1disk,8,124,5,1,1,0,0,rectangle,5,1,1,0,0,6,0,0,5,1,1,0,0,0,123,123,16,1,0,,,,,,,,,,,,,,,,,,,,,
,,,,,,,,,,,,,,,,,,,,,,,,,,,,,,,,,,,,,,,,,,5ff040139cc6b3ee87f4af58,606a0fd3c8e677356aece9be,2021-04-04_21h13.50.880,Colour_Similarity_Experiment,2020.2.10,Win32,60,60675255c767bca6388caeee,17.08399366,16.81001727,16.74576271,16.76868829,16.73613445,16.76868829,,,,,,,,,,,,,,,,,,,,PF,3,strong,,,,,,,,7,1.749,,,,,,,,,,,,,,,,,,,,,,,,,,,,8,strong,38,86,1,0,0,response1disk,5,125,4,13,1,0,0,rectangle,4,13,1,0,0,6,1,0.004,4,13,1,0,0,0,124,124,152,1,0,,,,,,,,,,,,,,,,,,,,,
,,,,,,,,,,,,,,,,,,,,,,,,,,,,,,,,,,,,,,,,,,5ff040139cc6b3ee87f4af58,606a0fd3c8e677356aece9be,2021-04-04_21h13.50.880,Colour_Similarity_Experiment,2020.2.10,Win32,60,60675255c767bca6388caeee,17.08399366,16.81001727,16.74576271,16.76868829,16.73613445,16.76868829,,,,,,,,,,,,,,,,,,,,PF,3,strong,,,,,,,,0,0.966,,,,,,,,,,,,,,,,,,,,,,,,,,,,1,strong,-45,87,1,0,0,response7disk,5,126,-11,12,1,0,0,rectangle,-11,12,1,0,0,6,0,0.001,-11,12,1,0,0,0,125,125,82,1,0,,,,,,,,,,,,,,,,,,,,,
,,,,,,,,,,,,,,,,,,,,,,,,,,,,,,,,,,,,,,,,,,5ff040139cc6b3ee87f4af58,606a0fd3c8e677356aece9be,2021-04-04_21h13.50.880,Colour_Similarity_Experiment,2020.2.10,Win32,60,60675255c767bca6388caeee,17.08399366,16.81001727,16.74576271,16.76868829,16.73613445,16.76868829,,,,,,,,,,,,,,,,,,,,PF,3,weak,,,,,,,,7,0.9,,,,,,,,,,,,,,,,,,,,,,,,,,,,7,weak,46,89,1,0,0,response1disk,1,127,6,8,1,0,0,rectangle,6,8,1,0,0,6,6,0.004,6,8,1,0,0,0,126,126,53,1,0,,,,,,,,,,,,,,,,,,,,,
,,,,,,,,,,,,,,,,,,,,,,,,,,,,,,,,,,,,,,,,,,5ff040139cc6b3ee87f4af58,606a0fd3c8e677356aece9be,2021-04-04_21h13.50.880,Colour_Similarity_Experiment,2020.2.10,Win32,60,60675255c767bca6388caeee,17.08399366,16.81001727,16.74576271,16.76868829,16.73613445,16.76868829,,,,,,,,,,,,,,,,,,,,PF,3,weak,,,,,,,,7,2.565,,,,,,,,,,,,,,,,,,,,,,,,,,,,6,weak,37,78,1,0,0,response1disk,2,128,7,2,1,0,0,rectangle,7,2,1,0,0,6,6,0,7,2,1,0,0,0,127,127,130,1,0,,,,,,,,,,,,,,,,,,,,,
,,,,,,,,,,,,,,,,,,,,,,,,,,,,,,,,,,,,,,,,,,5ff040139cc6b3ee87f4af58,606a0fd3c8e677356aece9be,2021-04-04_21h13.50.880,Colour_Similarity_Experiment,2020.2.10,Win32,60,60675255c767bca6388caeee,17.08399366,16.81001727,16.74576271,16.76868829,16.73613445,16.76868829,,,,,,,,,,,,,,,,,,,,PF,3,weak,,,,,,,,7,0.883,,,,,,,,,,,,,,,,,,,,,,,,,,,,5,weak,27,100,1,0,0,response1disk,3,129,3,7,1,0,0,rectangle,3,7,1,0,0,6,0,0.002,3,7,1,0,0,0,128,128,109,1,0,,,,,,,,,,,,,,,,,,,,,
,,,,,,,,,,,,,,,,,,,,,,,,,,,,,,,,,,,,,,,,,,5ff040139cc6b3ee87f4af58,606a0fd3c8e677356aece9be,2021-04-04_21h13.50.880,Colour_Similarity_Experiment,2020.2.10,Win32,60,60675255c767bca6388caeee,17.08399366,16.81001727,16.74576271,16.76868829,16.73613445,16.76868829,,,,,,,,,,,,,,,,,,,,PF,3,strong,,,,,,,,2,1.632,,,,,,,,,,,,,,,,,,,,,,,,,,,,9,strong,-56,-21,1,0,0,response5disk,4,130,1,13,1,0,0,rectangle,1,13,1,0,0,6,4,0.002,1,13,1,0,0,0,129,129,60,1,0,,,,,,,,,,,,,,,,,,,,,
,,,,,,,,,,,,,,,,,,,,,,,,,,,,,,,,,,,,,,,,,,5ff040139cc6b3ee87f4af58,606a0fd3c8e677356aece9be,2021-04-04_21h13.50.880,Colour_Similarity_Experiment,2020.2.10,Win32,60,60675255c767bca6388caeee,17.08399366,16.81001727,16.74576271,16.76868829,16.73613445,16.76868829,,,,,,,,,,,,,,,,,,,,PF,3,strong,,,,,,,,6,2.348,,,,,,,,,,,,,,,,,,,,,,,,,,,,4,strong,87,34,1,0,0,response1disk,6,131,12,0,1,0,0,rectangle,12,0,1,0,0,6,5,0.002,12,0,1,0,0,0,130,130,122,1,0,,,,,,,,,,,,,,,,,,,,,
,,,,,,,,,,,,,,,,,,,,,,,,,,,,,,,,,,,,,,,,,,5ff040139cc6b3ee87f4af58,606a0fd3c8e677356aece9be,2021-04-04_21h13.50.880,Colour_Similarity_Experiment,2020.2.10,Win32,60,60675255c767bca6388caeee,17.08399366,16.81001727,16.74576271,16.76868829,16.73613445,16.76868829,,,,,,,,,,,,,,,,,,,,PF,3,strong,,,,,,,,7,0.799,,,,,,,,,,,,,,,,,,,,,,,,,,,,4,strong,31,96,1,0,0,response1disk,3,132,-3,7,1,0,0,rectangle,-3,7,1,0,0,6,4,0.001,-3,7,1,0,0,0,131,131,77,1,0,,,,,,,,,,,,,,,,,,,,,
,,,,,,,,,,,,,,,,,,,,,,,,,,,,,,,,,,,,,,,,,,5ff040139cc6b3ee87f4af58,606a0fd3c8e677356aece9be,2021-04-04_21h13.50.880,Colour_Similarity_Experiment,2020.2.10,Win32,60,60675255c767bca6388caeee,17.08399366,16.81001727,16.74576271,16.76868829,16.73613445,16.76868829,,,,,,,,,,,,,,,,,,,,PF,3,weak,,,,,,,,7,1.016,,,,,,,,,,,,,,,,,,,,,,,,,,,,1,weak,29,80,1,0,0,response1disk,9,133,9,9,1,0,0,rectangle,9,9,1,0,0,6,5,0.003,9,9,1,0,0,0,132,132,15,1,0,,,,,,,,,,,,,,,,,,,,,
,,,,,,,,,,,,,,,,,,,,,,,,,,,,,,,,,,,,,,,,,,5ff040139cc6b3ee87f4af58,606a0fd3c8e677356aece9be,2021-04-04_21h13.50.880,Colour_Similarity_Experiment,2020.2.10,Win32,60,60675255c767bca6388caeee,17.08399366,16.81001727,16.74576271,16.76868829,16.73613445,16.76868829,,,,,,,,,,,,,,,,,,,,PF,3,weak,,,,,,,,7,0.766,,,,,,,,,,,,,,,,,,,,,,,,,,,,4,weak,40,75,1,0,0,response1disk,4,134,-2,-6,1,0,0,rectangle,-2,-6,1,0,0,6,5,0,-2,-6,1,0,0,0,133,133,70,1,0,,,,,,,,,,,,,,,,,,,,,
,,,,,,,,,,,,,,,,,,,,,,,,,,,,,,,,,,,,,,,,,,5ff040139cc6b3ee87f4af58,606a0fd3c8e677356aece9be,2021-04-04_21h13.50.880,Colour_Similarity_Experiment,2020.2.10,Win32,60,60675255c767bca6388caeee,17.08399366,16.81001727,16.74576271,16.76868829,16.73613445,16.76868829,,,,,,,,,,,,,,,,,,,,PF,3,weak,,,,,,,,7,0.783,,,,,,,,,,,,,,,,,,,,,,,,,,,,8,weak,33,73,1,0,0,response1disk,1,135,13,12,1,0,0,rectangle,13,12,1,0,0,6,7,0.002,13,12,1,0,0,0,134,134,57,1,0,,,,,,,,,,,,,,,,,,,,,
,,,,,,,,,,,,,,,,,,,,,,,,,,,,,,,,,,,,,,,,,,5ff040139cc6b3ee87f4af58,606a0fd3c8e677356aece9be,2021-04-04_21h13.50.880,Colour_Similarity_Experiment,2020.2.10,Win32,60,60675255c767bca6388caeee,17.08399366,16.81001727,16.74576271,16.76868829,16.73613445,16.76868829,,,,,,,,,,,,,,,,,,,,PF,3,strong,,,,,,,,7,0.766,,,,,,,,,,,,,,,,,,,,,,,,,,,,7,strong,33,69,1,0,0,response1disk,5,136,-9,10,1,0,0,rectangle,-9,10,1,0,0,6,0,0.001,-9,10,1,0,0,0,135,135,156,1,0,,,,,,,,,,,,,,,,,,,,,
,,,,,,,,,,,,,,,,,,,,,,,,,,,,,,,,,,,,,,,,,,5ff040139cc6b3ee87f4af58,606a0fd3c8e677356aece9be,2021-04-04_21h13.50.880,Colour_Similarity_Experiment,2020.2.10,Win32,60,60675255c767bca6388caeee,17.08399366,16.81001727,16.74576271,16.76868829,16.73613445,16.76868829,,,,,,,,,,,,,,,,,,,,PF,3,weak,,,,,,,,3,1.398,,,,,,,,,,,,,,,,,,,,,,,,,,,,9,weak,-41,-67,1,0,0,response5disk,3,137,13,-7,1,0,0,rectangle,13,-7,1,0,0,6,4,0.001,13,-7,1,0,0,0,136,136,119,1,0,,,,,,,,,,,,,,,,,,,,,
,,,,,,,,,,,,,,,,,,,,,,,,,,,,,,,,,,,,,,,,,,5ff040139cc6b3ee87f4af58,606a0fd3c8e677356aece9be,2021-04-04_21h13.50.880,Colour_Similarity_Experiment,2020.2.10,Win32,60,60675255c767bca6388caeee,17.08399366,16.81001727,16.74576271,16.76868829,16.73613445,16.76868829,,,,,,,,,,,,,,,,,,,,PF,3,weak,,,,,,,,0,1,,,,,,,,,,,,,,,,,,,,,,,,,,,,2,weak,-37,73,1,0,0,response7disk,3,138,-11,-1,1,0,0,rectangle,-11,-1,1,0,0,6,4,0.001,-11,-1,1,0,0,0,137,137,69,1,0,,,,,,,,,,,,,,,,,,,,,
,,,,,,,,,,,,,,,,,,,,,,,,,,,,,,,,,,,,,,,,,,5ff040139cc6b3ee87f4af58,606a0fd3c8e677356aece9be,2021-04-04_21h13.50.880,Colour_Similarity_Experiment,2020.2.10,Win32,60,60675255c767bca6388caeee,17.08399366,16.81001727,16.74576271,16.76868829,16.73613445,16.76868829,,,,,,,,,,,,,,,,,,,,PF,3,strong,,,,,,,,1,1.598,,,,,,,,,,,,,,,,,,,,,,,,,,,,1,strong,-65,25,1,0,0,response7disk,4,139,-25,-5,1,0,0,rectangle,-25,-5,1,0,0,6,7,0.002,-25,-5,1,0,0,0,138,138,135,1,0,,,,,,,,,,,,,,,,,,,,,
,,,,,,,,,,,,,,,,,,,,,,,,,,,,,,,,,,,,,,,,,,5ff040139cc6b3ee87f4af58,606a0fd3c8e677356aece9be,2021-04-04_21h13.50.880,Colour_Similarity_Experiment,2020.2.10,Win32,60,60675255c767bca6388caeee,17.08399366,16.81001727,16.74576271,16.76868829,16.73613445,16.76868829,,,,,,,,,,,,,,,,,,,,PF,3,weak,,,,,,,,7,1.366,,,,,,,,,,,,,,,,,,,,,,,,,,,,7,weak,31,72,1,0,0,response1disk,9,140,2,4,1,0,0,rectangle,2,4,1,0,0,6,6,0.002,2,4,1,0,0,0,139,139,10,1,0,,,,,,,,,,,,,,,,,,,,,
,,,,,,,,,,,,,,,,,,,,,,,,,,,,,,,,,,,,,,,,,,5ff040139cc6b3ee87f4af58,606a0fd3c8e677356aece9be,2021-04-04_21h13.50.880,Colour_Similarity_Experiment,2020.2.10,Win32,60,60675255c767bca6388caeee,17.08399366,16.81001727,16.74576271,16.76868829,16.73613445,16.76868829,,,,,,,,,,,,,,,,,,,,PF,3,strong,,,,,,,,5,1.631,,,,,,,,,,,,,,,,,,,,,,,,,,,,1,strong,68,-23,1,0,0,response3disk,8,141,7,-3,1,0,0,rectangle,7,-3,1,0,0,6,7,0.003,7,-3,1,0,0,0,140,140,27,1,0,,,,,,,,,,,,,,,,,,,,,
,,,,,,,,,,,,,,,,,,,,,,,,,,,,,,,,,,,,,,,,,,5ff040139cc6b3ee87f4af58,606a0fd3c8e677356aece9be,2021-04-04_21h13.50.880,Colour_Similarity_Experiment,2020.2.10,Win32,60,60675255c767bca6388caeee,17.08399366,16.81001727,16.74576271,16.76868829,16.73613445,16.76868829,,,,,,,,,,,,,,,,,,,,PF,3,weak,,,,,,,,7,1.165,,,,,,,,,,,,,,,,,,,,,,,,,,,,5,weak,43,77,1,0,0,response1disk,6,142,15,7,1,0,0,rectangle,15,7,1,0,0,6,4,0.002,15,7,1,0,0,0,141,141,103,1,0,,,,,,,,,,,,,,,,,,,,,
,,,,,,,,,,,,,,,,,,,,,,,,,,,,,,,,,,,,,,,,,,5ff040139cc6b3ee87f4af58,606a0fd3c8e677356aece9be,2021-04-04_21h13.50.880,Colour_Similarity_Experiment,2020.2.10,Win32,60,60675255c767bca6388caeee,17.08399366,16.81001727,16.74576271,16.76868829,16.73613445,16.76868829,,,,,,,,,,,,,,,,,,,,PF,3,strong,,,,,,,,7,0.749,,,,,,,,,,,,,,,,,,,,,,,,,,,,2,strong,38,80,1,0,0,response1disk,9,143,-3,-8,1,0,0,rectangle,-3,-8,1,0,0,6,5,0.003,-3,-8,1,0,0,0,142,142,72,1,0,,,,,,,,,,,,,,,,,,,,,
,,,,,,,,,,,,,,,,,,,,,,,,,,,,,,,,,,,,,,,,,,5ff040139cc6b3ee87f4af58,606a0fd3c8e677356aece9be,2021-04-04_21h13.50.880,Colour_Similarity_Experiment,2020.2.10,Win32,60,60675255c767bca6388caeee,17.08399366,16.81001727,16.74576271,16.76868829,16.73613445,16.76868829,,,,,,,,,,,,,,,,,,,,PF,3,weak,,,,,,,,2,1.183,,,,,,,,,,,,,,,,,,,,,,,,,,,,5,weak,-65,-23,1,0,0,response5disk,8,144,2,8,1,0,0,rectangle,2,8,1,0,0,6,2,0.002,2,8,1,0,0,0,143,143,149,1,0,,,,,,,,,,,,,,,,,,,,,
,,,,,,,,,,,,,,,,,,,,,,,,,,,,,,,,,,,,,,,,,,5ff040139cc6b3ee87f4af58,606a0fd3c8e677356aece9be,2021-04-04_21h13.50.880,Colour_Similarity_Experiment,2020.2.10,Win32,60,60675255c767bca6388caeee,17.08399366,16.81001727,16.74576271,16.76868829,16.73613445,16.76868829,,,,,,,,,,,,,,,,,,,,PF,3,weak,,,,,,,,4,1.816,,,,,,,,,,,,,,,,,,,,,,,,,,,,9,weak,20,-72,1,0,0,response3disk,1,145,9,-9,1,0,0,rectangle,9,-9,1,0,0,6,1,0.003,9,-9,1,0,0,0,144,144,74,1,0,,,,,,,,,,,,,,,,,,,,,
,,,,,,,,,,,,,,,,,,,,,,,,,,,,,,,,,,,,,,,,,,5ff040139cc6b3ee87f4af58,606a0fd3c8e677356aece9be,2021-04-04_21h13.50.880,Colour_Similarity_Experiment,2020.2.10,Win32,60,60675255c767bca6388caeee,17.08399366,16.81001727,16.74576271,16.76868829,16.73613445,16.76868829,,,,,,,,,,,,,,,,,,,,PF,3,strong,,,,,,,,7,1.182,,,,,,,,,,,,,,,,,,,,,,,,,,,,3,strong,42,77,1,0,0,response1disk,7,146,-1,5,1,0,0,rectangle,-1,5,1,0,0,6,4,0.003,-1,5,1,0,0,0,145,145,118,1,0,,,,,,,,,,,,,,,,,,,,,
,,,,,,,,,,,,,,,,,,,,,,,,,,,,,,,,,,,,,,,,,,5ff040139cc6b3ee87f4af58,606a0fd3c8e677356aece9be,2021-04-04_21h13.50.880,Colour_Similarity_Experiment,2020.2.10,Win32,60,60675255c767bca6388caeee,17.08399366,16.81001727,16.74576271,16.76868829,16.73613445,16.76868829,,,,,,,,,,,,,,,,,,,,PF,3,weak,,,,,,,,7,0.749,,,,,,,,,,,,,,,,,,,,,,,,,,,,7,weak,47,88,1,0,0,response1disk,4,147,-1,3,1,0,0,rectangle,-1,3,1,0,0,6,7,0.002,-1,3,1,0,0,0,146,146,43,1,0,,,,,,,,,,,,,,,,,,,,,
,,,,,,,,,,,,,,,,,,,,,,,,,,,,,,,,,,,,,,,,,,5ff040139cc6b3ee87f4af58,606a0fd3c8e677356aece9be,2021-04-04_21h13.50.880,Colour_Similarity_Experiment,2020.2.10,Win32,60,60675255c767bca6388caeee,17.08399366,16.81001727,16.74576271,16.76868829,16.73613445,16.76868829,,,,,,,,,,,,,,,,,,,,PF,3,strong,,,,,,,,7,0.732,,,,,,,,,,,,,,,,,,,,,,,,,,,,9,strong,39,77,1,0,0,response1disk,7,148,0,-1,1,0,0,rectangle,0,-1,1,0,0,6,0,0.002,0,-1,1,0,0,0,147,147,100,1,0,,,,,,,,,,,,,,,,,,,,,
,,,,,,,,,,,,,,,,,,,,,,,,,,,,,,,,,,,,,,,,,,5ff040139cc6b3ee87f4af58,606a0fd3c8e677356aece9be,2021-04-04_21h13.50.880,Colour_Similarity_Experiment,2020.2.10,Win32,60,60675255c767bca6388caeee,17.08399366,16.81001727,16.74576271,16.76868829,16.73613445,16.76868829,,,,,,,,,,,,,,,,,,,,PF,3,strong,,,,,,,,0,1.049,,,,,,,,,,,,,,,,,,,,,,,,,,,,6,strong,-21,79,1,0,0,response7disk,7,149,-17,2,1,0,0,rectangle,-17,2,1,0,0,6,0,0,-17,2,1,0,0,0,148,148,18,1,0,,,,,,,,,,,,,,,,,,,,,
,,,,,,,,,,,,,,,,,,,,,,,,,,,,,,,,,,,,,,,,,,5ff040139cc6b3ee87f4af58,606a0fd3c8e677356aece9be,2021-04-04_21h13.50.880,Colour_Similarity_Experiment,2020.2.10,Win32,60,60675255c767bca6388caeee,17.08399366,16.81001727,16.74576271,16.76868829,16.73613445,16.76868829,,,,,,,,,,,,,,,,,,,,PF,3,weak,,,,,,,,7,1.416,,,,,,,,,,,,,,,,,,,,,,,,,,,,2,weak,35,69,1,0,0,response1disk,9,150,10,11,1,0,0,rectangle,10,11,1,0,0,6,5,0.002,10,11,1,0,0,0,149,149,39,1,0,,,,,,,,,,,,,,,,,,,,,
,,,,,,,,,,,,,,,,,,,,,,,,,,,,,,,,,,,,,,,,,,5ff040139cc6b3ee87f4af58,606a0fd3c8e677356aece9be,2021-04-04_21h13.50.880,Colour_Similarity_Experiment,2020.2.10,Win32,60,60675255c767bca6388caeee,17.08399366,16.81001727,16.74576271,16.76868829,16.73613445,16.76868829,,,,,,,,,,,,,,,,,,,,PF,3,strong,,,,,,,,0,1.532,,,,,,,,,,,,,,,,,,,,,,,,,,,,8,strong,-43,98,1,0,0,response7disk,9,151,-15,3,1,0,0,rectangle,-15,3,1,0,0,6,2,0.003,-15,3,1,0,0,0,150,150,105,1,0,,,,,,,,,,,,,,,,,,,,,
,,,,,,,,,,,,,,,,,,,,,,,,,,,,,,,,,,,,,,,,,,5ff040139cc6b3ee87f4af58,606a0fd3c8e677356aece9be,2021-04-04_21h13.50.880,Colour_Similarity_Experiment,2020.2.10,Win32,60,60675255c767bca6388caeee,17.08399366,16.81001727,16.74576271,16.76868829,16.73613445,16.76868829,,,,,,,,,,,,,,,,,,,,PF,3,weak,,,,,,,,2,1.548,,,,,,,,,,,,,,,,,,,,,,,,,,,,8,weak,-62,-42,1,0,0,response5disk,8,152,-11,-5,1,0,0,rectangle,-11,-5,1,0,0,6,3,0.001,-11,-5,1,0,0,0,151,151,153,1,0,,,,,,,,,,,,,,,,,,,,,
,,,,,,,,,,,,,,,,,,,,,,,,,,,,,,,,,,,,,,,,,,5ff040139cc6b3ee87f4af58,606a0fd3c8e677356aece9be,2021-04-04_21h13.50.880,Colour_Similarity_Experiment,2020.2.10,Win32,60,60675255c767bca6388caeee,17.08399366,16.81001727,16.74576271,16.76868829,16.73613445,16.76868829,,,,,,,,,,,,,,,,,,,,PF,3,strong,,,,,,,,5,1.365,,,,,,,,,,,,,,,,,,,,,,,,,,,,8,strong,72,-37,1,0,0,response3disk,7,153,-1,7,1,0,0,rectangle,-1,7,1,0,0,6,0,0.004,-1,7,1,0,0,0,152,152,86,1,0,,,,,,,,,,,,,,,,,,,,,
,,,,,,,,,,,,,,,,,,,,,,,,,,,,,,,,,,,,,,,,,,5ff040139cc6b3ee87f4af58,606a0fd3c8e677356aece9be,2021-04-04_21h13.50.880,Colour_Similarity_Experiment,2020.2.10,Win32,60,60675255c767bca6388caeee,17.08399366,16.81001727,16.74576271,16.76868829,16.73613445,16.76868829,,,,,,,,,,,,,,,,,,,,PF,3,strong,,,,,,,,3,1.848,,,,,,,,,,,,,,,,,,,,,,,,,,,,5,strong,-35,-75,1,0,0,response5disk,6,154,14,3,1,0,0,rectangle,14,3,1,0,0,6,0,0,14,3,1,0,0,0,153,153,12,1,0,,,,,,,,,,,,,,,,,,,,,
,,,,,,,,,,,,,,,,,,,,,,,,,,,,,,,,,,,,,,,,,,5ff040139cc6b3ee87f4af58,606a0fd3c8e677356aece9be,2021-04-04_21h13.50.880,Colour_Similarity_Experiment,2020.2.10,Win32,60,60675255c767bca6388caeee,17.08399366,16.81001727,16.74576271,16.76868829,16.73613445,16.76868829,,,,,,,,,,,,,,,,,,,,PF,3,strong,,,,,,,,7,0.716,,,,,,,,,,,,,,,,,,,,,,,,,,,,5,strong,33,83,1,0,0,response1disk,2,155,-7,1,1,0,0,rectangle,-33,93,1,0,0,0,0,1.8,2,1,1,0,0,0,154,154,55,1,1,response7disk_3,rectangle,,,,,,,,,,,,,,,,,,,
,,,,,,,,,,,,,,,,,,,,,,,,,,,,,,,,,,,,,,,,,,5ff040139cc6b3ee87f4af58,606a0fd3c8e677356aece9be,2021-04-04_21h13.50.880,Colour_Similarity_Experiment,2020.2.10,Win32,60,60675255c767bca6388caeee,17.08399366,16.81001727,16.74576271,16.76868829,16.73613445,16.76868829,,,,,,,,,,,,,,,,,,,,PF,3,weak,,,,,,,,7,1.149,,,,,,,,,,,,,,,,,,,,,,,,,,,,9,weak,23,90,1,0,0,response1disk,4,156,6,-7,1,0,0,rectangle,6,-7,1,0,0,0,3,0.003,6,-7,1,0,0,0,155,155,114,1,0,,,,,,,,,,,,,,,,,,,,,
,,,,,,,,,,,,,,,,,,,,,,,,,,,,,,,,,,,,,,,,,,5ff040139cc6b3ee87f4af58,606a0fd3c8e677356aece9be,2021-04-04_21h13.50.880,Colour_Similarity_Experiment,2020.2.10,Win32,60,60675255c767bca6388caeee,17.08399366,16.81001727,16.74576271,16.76868829,16.73613445,16.76868829,,,,,,,,,,,,,,,,,,,,PF,3,weak,,,,,,,,7,0.832,,,,,,,,,,,,,,,,,,,,,,,,,,,,5,weak,41,88,1,0,0,response1disk,9,157,-1,6,1,0,0,rectangle,-84,-43,1,0,0,0,2,2.149,-7,1,1,0,0,0,156,156,136,1,1,response5disk_3,rectangle,,,,,,,,,,,,,,,,,,,
,,,,,,,,,,,,,,,,,,,,,,,,,,,,,,,,,,,,,,,,,,5ff040139cc6b3ee87f4af58,606a0fd3c8e677356aece9be,2021-04-04_21h13.50.880,Colour_Similarity_Experiment,2020.2.10,Win32,60,60675255c767bca6388caeee,17.08399366,16.81001727,16.74576271,16.76868829,16.73613445,16.76868829,,,,,,,,,,,,,,,,,,,,PF,3,strong,,,,,,,,7,1.565,,,,,,,,,,,,,,,,,,,,,,,,,,,,2,strong,32,86,1,0,0,response1disk,4,158,5,8,1,0,0,rectangle,5,8,1,0,0,0,6,0.002,5,8,1,0,0,0,157,157,145,1,0,,,,,,,,,,,,,,,,,,,,,
,,,,,,,,,,,,,,,,,,,,,,,,,,,,,,,,,,,,,,,,,,5ff040139cc6b3ee87f4af58,606a0fd3c8e677356aece9be,2021-04-04_21h13.50.880,Colour_Similarity_Experiment,2020.2.10,Win32,60,60675255c767bca6388caeee,17.08399366,16.81001727,16.74576271,16.76868829,16.73613445,16.76868829,,,,,,,,,,,,,,,,,,,,PF,3,strong,,,,,,,,7,1.166,,,,,,,,,,,,,,,,,,,,,,,,,,,,3,strong,47,79,1,0,0,response1disk,6,159,8,-6,1,0,0,rectangle,8,-6,1,0,0,0,0,0.003,8,-6,1,0,0,0,158,158,95,1,0,,,,,,,,,,,,,,,,,,,,,
,,,,,,,,,,,,,,,,,,,,,,,,,,,,,,,,,,,,,,,,,,5ff040139cc6b3ee87f4af58,606a0fd3c8e677356aece9be,2021-04-04_21h13.50.880,Colour_Similarity_Experiment,2020.2.10,Win32,60,60675255c767bca6388caeee,17.08399366,16.81001727,16.74576271,16.76868829,16.73613445,16.76868829,,,,,,,,,,,,,,,,,,,,PF,3,weak,,,,,,,,7,0.799,,,,,,,,,,,,,,,,,,,,,,,,,,,,1,weak,45,73,1,0,0,response1disk,4,160,-9,-6,1,0,0,rectangle,-9,-6,1,0,0,0,7,0.003,-9,-6,1,0,0,0,159,159,139,1,0,,,,,,,,,,,,,,,,,,,,,
,,,,,,,,,,,,,,,,,,,,,,,,,,,,,,,,,,,,,,,,,,5ff040139cc6b3ee87f4af58,606a0fd3c8e677356aece9be,2021-04-04_21h13.50.880,Colour_Similarity_Experiment,2020.2.10,Win32,60,60675255c767bca6388caeee,17.08399366,16.81001727,16.74576271,16.76868829,16.73613445,16.76868829,,,,,,,,,,,,,,,,,,,,PF,3,weak,,,,,,,,0,0.833,,,,,,,,,,,,,,,,,,,,,,,,,,,,6,weak,-37,83,1,0,0,response7disk,4,161,-10,8,1,0,0,rectangle,-10,8,1,0,0,0,6,0.001,-10,8,1,0,0,0,160,160,33,1,0,,,,,,,,,,,,,,,,,,,,,
,,,,,,,,,,,,,,,,,,,,,,,,,,,,,,,,,,,,,,,,,,5ff040139cc6b3ee87f4af58,606a0fd3c8e677356aece9be,2021-04-04_21h13.50.880,Colour_Similarity_Experiment,2020.2.10,Win32,60,60675255c767bca6388caeee,17.08399366,16.81001727,16.74576271,16.76868829,16.73613445,16.76868829,,,,,,,,,,,,,,,,,,,,PF,3,strong,,,,,,,,7,0.949,,,,,,,,,,,,,,,,,,,,,,,,,,,,4,strong,45,77,1,0,0,response1disk,8,162,3,-7,1,0,0,rectangle,3,-7,1,0,0,0,0,0.003,3,-7,1,0,0,0,161,161,35,1,0,,,,,,,,,,,,,,,,,,,,,
,,,,,,,,,,,,,,,,,,,,,,,,,,,,,,,,,,,,,,,,,,5ff040139cc6b3ee87f4af58,606a0fd3c8e677356aece9be,2021-04-04_21h13.50.880,Colour_Similarity_Experiment,2020.2.10,Win32,60,60675255c767bca6388caeee,17.08399366,16.81001727,16.74576271,16.76868829,16.73613445,16.76868829,,,,,,,,,,,,,,,,,,,,,,,,,,,,,,,,,,,,,,,,,,,,,,,,,,,,,,,,,,,,,,,,,,,,,,,,,,,,,,,,,,,,,,,,,,,,,,,,0,0,0,0,1,,,,,,,,,,,,,,
,,,,,,,,,,,,,,,,,,,,,,,,,,,,,,,,,,,,,,,,,,5ff040139cc6b3ee87f4af58,606a0fd3c8e677356aece9be,2021-04-04_21h13.50.880,Colour_Similarity_Experiment,2020.2.10,Win32,60,60675255c767bca6388caeee,17.08399366,16.81001727,16.74576271,16.76868829,16.73613445,16.76868829,,,,,,,,,,,,,,,,,,,,PF,3,strong,,,,,,,,4,1.532,,,,,,,,,,,,,,,,,,,,,,,,,,,,4,strong,28,-65,1,0,0,response3disk,1,163,7,-1,1,0,0,rectangle,7,-1,1,0,0,0,5,0.002,7,-1,1,0,0,0,0,0,102,1,0,,,,,,,,,,,,,,,,,,,,,
,,,,,,,,,,,,,,,,,,,,,,,,,,,,,,,,,,,,,,,,,,5ff040139cc6b3ee87f4af58,606a0fd3c8e677356aece9be,2021-04-04_21h13.50.880,Colour_Similarity_Experiment,2020.2.10,Win32,60,60675255c767bca6388caeee,17.08399366,16.81001727,16.74576271,16.76868829,16.73613445,16.76868829,,,,,,,,,,,,,,,,,,,,PF,3,weak,,,,,,,,4,1.216,,,,,,,,,,,,,,,,,,,,,,,,,,,,7,weak,28,-61,1,0,0,response3disk,8,164,-18,8,1,0,0,rectangle,-18,8,1,0,0,0,6,0.001,-18,8,1,0,0,0,1,1,140,1,0,,,,,,,,,,,,,,,,,,,,,
,,,,,,,,,,,,,,,,,,,,,,,,,,,,,,,,,,,,,,,,,,5ff040139cc6b3ee87f4af58,606a0fd3c8e677356aece9be,2021-04-04_21h13.50.880,Colour_Similarity_Experiment,2020.2.10,Win32,60,60675255c767bca6388caeee,17.08399366,16.81001727,16.74576271,16.76868829,16.73613445,16.76868829,,,,,,,,,,,,,,,,,,,,PF,3,strong,,,,,,,,7,0.849,,,,,,,,,,,,,,,,,,,,,,,,,,,,9,strong,43,80,1,0,0,response1disk,2,165,1,-5,1,0,0,rectangle,-33,-82,1,0,0,3,3,1.931,-3,-6,1,0,0,0,2,2,11,1,1,response5disk_3,rectangle,,,,,,,,,,,,,,,,,,,
,,,,,,,,,,,,,,,,,,,,,,,,,,,,,,,,,,,,,,,,,,5ff040139cc6b3ee87f4af58,606a0fd3c8e677356aece9be,2021-04-04_21h13.50.880,Colour_Similarity_Experiment,2020.2.10,Win32,60,60675255c767bca6388caeee,17.08399366,16.81001727,16.74576271,16.76868829,16.73613445,16.76868829,,,,,,,,,,,,,,,,,,,,PF,3,weak,,,,,,,,7,1.15,,,,,,,,,,,,,,,,,,,,,,,,,,,,8,weak,51,85,1,0,0,response1disk,5,166,9,5,1,0,0,rectangle,9,5,1,0,0,3,7,0.003,9,5,1,0,0,0,3,3,98,1,0,,,,,,,,,,,,,,,,,,,,,
,,,,,,,,,,,,,,,,,,,,,,,,,,,,,,,,,,,,,,,,,,5ff040139cc6b3ee87f4af58,606a0fd3c8e677356aece9be,2021-04-04_21h13.50.880,Colour_Similarity_Experiment,2020.2.10,Win32,60,60675255c767bca6388caeee,17.08399366,16.81001727,16.74576271,16.76868829,16.73613445,16.76868829,,,,,,,,,,,,,,,,,,,,PF,3,weak,,,,,,,,7,0.817,,,,,,,,,,,,,,,,,,,,,,,,,,,,8,weak,36,84,1,0,0,response1disk,9,167,10,9,1,0,0,rectangle,10,9,1,0,0,3,3,0.003,10,9,1,0,0,0,4,4,42,1,0,,,,,,,,,,,,,,,,,,,,,
,,,,,,,,,,,,,,,,,,,,,,,,,,,,,,,,,,,,,,,,,,5ff040139cc6b3ee87f4af58,606a0fd3c8e677356aece9be,2021-04-04_21h13.50.880,Colour_Similarity_Experiment,2020.2.10,Win32,60,60675255c767bca6388caeee,17.08399366,16.81001727,16.74576271,16.76868829,16.73613445,16.76868829,,,,,,,,,,,,,,,,,,,,PF,3,weak,,,,,,,,3,1.815,,,,,,,,,,,,,,,,,,,,,,,,,,,,3,weak,-36,-65,1,0,0,response5disk,1,168,3,8,1,0,0,rectangle,3,8,1,0,0,3,0,0.003,3,8,1,0,0,0,5,5,96,1,0,,,,,,,,,,,,,,,,,,,,,
,,,,,,,,,,,,,,,,,,,,,,,,,,,,,,,,,,,,,,,,,,5ff040139cc6b3ee87f4af58,606a0fd3c8e677356aece9be,2021-04-04_21h13.50.880,Colour_Similarity_Experiment,2020.2.10,Win32,60,60675255c767bca6388caeee,17.08399366,16.81001727,16.74576271,16.76868829,16.73613445,16.76868829,,,,,,,,,,,,,,,,,,,,PF,3,strong,,,,,,,,7,0.732,,,,,,,,,,,,,,,,,,,,,,,,,,,,8,strong,37,66,1,0,0,response1disk,4,169,12,-1,1,0,0,rectangle,12,-1,1,0,0,3,5,0.002,12,-1,1,0,0,0,6,6,88,1,0,,,,,,,,,,,,,,,,,,,,,
,,,,,,,,,,,,,,,,,,,,,,,,,,,,,,,,,,,,,,,,,,5ff040139cc6b3ee87f4af58,606a0fd3c8e677356aece9be,2021-04-04_21h13.50.880,Colour_Similarity_Experiment,2020.2.10,Win32,60,60675255c767bca6388caeee,17.08399366,16.81001727,16.74576271,16.76868829,16.73613445,16.76868829,,,,,,,,,,,,,,,,,,,,PF,3,strong,,,,,,,,7,0.716,,,,,,,,,,,,,,,,,,,,,,,,,,,,1,strong,28,63,1,0,0,response1disk,2,170,2,-8,1,0,0,rectangle,2,-8,1,0,0,3,5,0.001,2,-8,1,0,0,0,7,7,2,1,0,,,,,,,,,,,,,,,,,,,,,
,,,,,,,,,,,,,,,,,,,,,,,,,,,,,,,,,,,,,,,,,,5ff040139cc6b3ee87f4af58,606a0fd3c8e677356aece9be,2021-04-04_21h13.50.880,Colour_Similarity_Experiment,2020.2.10,Win32,60,60675255c767bca6388caeee,17.08399366,16.81001727,16.74576271,16.76868829,16.73613445,16.76868829,,,,,,,,,,,,,,,,,,,,PF,3,weak,,,,,,,,0,0.932,,,,,,,,,,,,,,,,,,,,,,,,,,,,2,weak,-21,73,1,0,0,response7disk,2,171,-8,3,1,0,0,rectangle,-8,3,1,0,0,3,3,0.003,-8,3,1,0,0,0,8,8,14,1,0,,,,,,,,,,,,,,,,,,,,,
,,,,,,,,,,,,,,,,,,,,,,,,,,,,,,,,,,,,,,,,,,5ff040139cc6b3ee87f4af58,606a0fd3c8e677356aece9be,2021-04-04_21h13.50.880,Colour_Similarity_Experiment,2020.2.10,Win32,60,60675255c767bca6388caeee,17.08399366,16.81001727,16.74576271,16.76868829,16.73613445,16.76868829,,,,,,,,,,,,,,,,,,,,PF,3,weak,,,,,,,,0,0.932,,,,,,,,,,,,,,,,,,,,,,,,,,,,9,weak,-25,75,1,0,0,response7disk,2,172,7,7,1,0,0,rectangle,7,7,1,0,0,3,7,0.003,7,7,1,0,0,0,9,9,157,1,0,,,,,,,,,,,,,,,,,,,,,
,,,,,,,,,,,,,,,,,,,,,,,,,,,,,,,,,,,,,,,,,,5ff040139cc6b3ee87f4af58,606a0fd3c8e677356aece9be,2021-04-04_21h13.50.880,Colour_Similarity_Experiment,2020.2.10,Win32,60,60675255c767bca6388caeee,17.08399366,16.81001727,16.74576271,16.76868829,16.73613445,16.76868829,,,,,,,,,,,,,,,,,,,,PF,3,strong,,,,,,,,7,0.783,,,,,,,,,,,,,,,,,,,,,,,,,,,,5,strong,34,80,1,0,0,response1disk,7,173,11,-3,1,0,0,rectangle,11,-3,1,0,0,3,6,0.002,11,-3,1,0,0,0,10,10,7,1,0,,,,,,,,,,,,,,,,,,,,,
,,,,,,,,,,,,,,,,,,,,,,,,,,,,,,,,,,,,,,,,,,5ff040139cc6b3ee87f4af58,606a0fd3c8e677356aece9be,2021-04-04_21h13.50.880,Colour_Similarity_Experiment,2020.2.10,Win32,60,60675255c767bca6388caeee,17.08399366,16.81001727,16.74576271,16.76868829,16.73613445,16.76868829,,,,,,,,,,,,,,,,,,,,PF,3,strong,,,,,,,,3,1.316,,,,,,,,,,,,,,,,,,,,,,,,,,,,7,strong,-24,-72,1,0,0,response5disk,6,174,4,3,1,0,0,rectangle,4,3,1,0,0,3,2,0.003,4,3,1,0,0,0,11,11,31,1,0,,,,,,,,,,,,,,,,,,,,,
,,,,,,,,,,,,,,,,,,,,,,,,,,,,,,,,,,,,,,,,,,5ff040139cc6b3ee87f4af58,606a0fd3c8e677356aece9be,2021-04-04_21h13.50.880,Colour_Similarity_Experiment,2020.2.10,Win32,60,60675255c767bca6388caeee,17.08399366,16.81001727,16.74576271,16.76868829,16.73613445,16.76868829,,,,,,,,,,,,,,,,,,,,PF,3,weak,,,,,,,,3,1.115,,,,,,,,,,,,,,,,,,,,,,,,,,,,4,weak,-34,-75,1,0,0,response5disk,5,175,-10,-7,1,0,0,rectangle,-10,-7,1,0,0,3,5,0.003,-10,-7,1,0,0,0,12,12,49,1,0,,,,,,,,,,,,,,,,,,,,,
,,,,,,,,,,,,,,,,,,,,,,,,,,,,,,,,,,,,,,,,,,5ff040139cc6b3ee87f4af58,606a0fd3c8e677356aece9be,2021-04-04_21h13.50.880,Colour_Similarity_Experiment,2020.2.10,Win32,60,60675255c767bca6388caeee,17.08399366,16.81001727,16.74576271,16.76868829,16.73613445,16.76868829,,,,,,,,,,,,,,,,,,,,PF,3,weak,,,,,,,,3,1.077,,,,,,,,,,,,,,,,,,,,,,,,,,,,7,weak,-27,-74,1,0,0,response5disk,6,176,15,-3,1,0,0,rectangle,15,-3,1,0,0,3,6,0.002,15,-3,1,0,0,0,13,13,29,1,0,,,,,,,,,,,,,,,,,,,,,
,,,,,,,,,,,,,,,,,,,,,,,,,,,,,,,,,,,,,,,,,,5ff040139cc6b3ee87f4af58,606a0fd3c8e677356aece9be,2021-04-04_21h13.50.880,Colour_Similarity_Experiment,2020.2.10,Win32,60,60675255c767bca6388caeee,17.08399366,16.81001727,16.74576271,16.76868829,16.73613445,16.76868829,,,,,,,,,,,,,,,,,,,,PF,3,strong,,,,,,,,7,0.848,,,,,,,,,,,,,,,,,,,,,,,,,,,,5,strong,49,72,1,0,0,response1disk,9,177,12,6,1,0,0,rectangle,12,6,1,0,0,3,2,0.002,12,6,1,0,0,0,14,14,61,1,0,,,,,,,,,,,,,,,,,,,,,
,,,,,,,,,,,,,,,,,,,,,,,,,,,,,,,,,,,,,,,,,,5ff040139cc6b3ee87f4af58,606a0fd3c8e677356aece9be,2021-04-04_21h13.50.880,Colour_Similarity_Experiment,2020.2.10,Win32,60,60675255c767bca6388caeee,17.08399366,16.81001727,16.74576271,16.76868829,16.73613445,16.76868829,,,,,,,,,,,,,,,,,,,,PF,3,strong,,,,,,,,7,0.8,,,,,,,,,,,,,,,,,,,,,,,,,,,,6,strong,24,67,1,0,0,response1disk,2,178,9,-5,1,0,0,rectangle,9,-5,1,0,0,3,4,0.002,9,-5,1,0,0,0,15,15,112,1,0,,,,,,,,,,,,,,,,,,,,,
,,,,,,,,,,,,,,,,,,,,,,,,,,,,,,,,,,,,,,,,,,5ff040139cc6b3ee87f4af58,606a0fd3c8e677356aece9be,2021-04-04_21h13.50.880,Colour_Similarity_Experiment,2020.2.10,Win32,60,60675255c767bca6388caeee,17.08399366,16.81001727,16.74576271,16.76868829,16.73613445,16.76868829,,,,,,,,,,,,,,,,,,,,PF,3,weak,,,,,,,,7,0.716,,,,,,,,,,,,,,,,,,,,,,,,,,,,2,weak,33,77,1,0,0,response1disk,8,179,7,5,1,0,0,rectangle,7,5,1,0,0,3,6,0.001,7,5,1,0,0,0,16,16,52,1,0,,,,,,,,,,,,,,,,,,,,,
,,,,,,,,,,,,,,,,,,,,,,,,,,,,,,,,,,,,,,,,,,5ff040139cc6b3ee87f4af58,606a0fd3c8e677356aece9be,2021-04-04_21h13.50.880,Colour_Similarity_Experiment,2020.2.10,Win32,60,60675255c767bca6388caeee,17.08399366,16.81001727,16.74576271,16.76868829,16.73613445,16.76868829,,,,,,,,,,,,,,,,,,,,PF,3,weak,,,,,,,,6,1.549,,,,,,,,,,,,,,,,,,,,,,,,,,,,1,weak,89,34,1,0,0,response1disk,1,180,0,-5,1,0,0,rectangle,79,38,1,0,0,6,6,1.598,-7,-6,1,0,0,0,17,17,76,1,1,response1disk_3,rectangle,,,,,,,,,,,,,,,,,,,
,,,,,,,,,,,,,,,,,,,,,,,,,,,,,,,,,,,,,,,,,,5ff040139cc6b3ee87f4af58,606a0fd3c8e677356aece9be,2021-04-04_21h13.50.880,Colour_Similarity_Experiment,2020.2.10,Win32,60,60675255c767bca6388caeee,17.08399366,16.81001727,16.74576271,16.76868829,16.73613445,16.76868829,,,,,,,,,,,,,,,,,,,,PF,3,strong,,,,,,,,7,0.833,,,,,,,,,,,,,,,,,,,,,,,,,,,,9,strong,53,79,1,0,0,response1disk,3,181,17,13,1,0,0,rectangle,17,13,1,0,0,6,7,0.002,17,13,1,0,0,0,18,18,141,1,0,,,,,,,,,,,,,,,,,,,,,
,,,,,,,,,,,,,,,,,,,,,,,,,,,,,,,,,,,,,,,,,,5ff040139cc6b3ee87f4af58,606a0fd3c8e677356aece9be,2021-04-04_21h13.50.880,Colour_Similarity_Experiment,2020.2.10,Win32,60,60675255c767bca6388caeee,17.08399366,16.81001727,16.74576271,16.76868829,16.73613445,16.76868829,,,,,,,,,,,,,,,,,,,,PF,3,strong,,,,,,,,7,0.683,,,,,,,,,,,,,,,,,,,,,,,,,,,,1,strong,35,78,1,0,0,response1disk,6,182,3,3,1,0,0,rectangle,3,3,1,0,0,6,6,0.003,3,3,1,0,0,0,19,19,58,1,0,,,,,,,,,,,,,,,,,,,,,
,,,,,,,,,,,,,,,,,,,,,,,,,,,,,,,,,,,,,,,,,,5ff040139cc6b3ee87f4af58,606a0fd3c8e677356aece9be,2021-04-04_21h13.50.880,Colour_Similarity_Experiment,2020.2.10,Win32,60,60675255c767bca6388caeee,17.08399366,16.81001727,16.74576271,16.76868829,16.73613445,16.76868829,,,,,,,,,,,,,,,,,,,,PF,3,strong,,,,,,,,7,1.032,,,,,,,,,,,,,,,,,,,,,,,,,,,,7,strong,29,75,1,0,0,response1disk,1,183,2,5,1,0,0,rectangle,2,5,1,0,0,6,1,0.002,2,5,1,0,0,0,20,20,132,1,0,,,,,,,,,,,,,,,,,,,,,
,,,,,,,,,,,,,,,,,,,,,,,,,,,,,,,,,,,,,,,,,,5ff040139cc6b3ee87f4af58,606a0fd3c8e677356aece9be,2021-04-04_21h13.50.880,Colour_Similarity_Experiment,2020.2.10,Win32,60,60675255c767bca6388caeee,17.08399366,16.81001727,16.74576271,16.76868829,16.73613445,16.76868829,,,,,,,,,,,,,,,,,,,,PF,3,strong,,,,,,,,7,1.432,,,,,,,,,,,,,,,,,,,,,,,,,,,,6,strong,37,81,1,0,0,response1disk,5,184,-10,5,1,0,0,rectangle,-10,5,1,0,0,6,0,0.002,-10,5,1,0,0,0,21,21,126,1,0,,,,,,,,,,,,,,,,,,,,,
,,,,,,,,,,,,,,,,,,,,,,,,,,,,,,,,,,,,,,,,,,5ff040139cc6b3ee87f4af58,606a0fd3c8e677356aece9be,2021-04-04_21h13.50.880,Colour_Similarity_Experiment,2020.2.10,Win32,60,60675255c767bca6388caeee,17.08399366,16.81001727,16.74576271,16.76868829,16.73613445,16.76868829,,,,,,,,,,,,,,,,,,,,PF,3,weak,,,,,,,,0,0.849,,,,,,,,,,,,,,,,,,,,,,,,,,,,1,weak,-35,61,1,0,0,response7disk,5,185,-15,1,1,0,0,rectangle,-15,1,1,0,0,6,1,0.002,-15,1,1,0,0,0,22,22,28,1,0,,,,,,,,,,,,,,,,,,,,,
,,,,,,,,,,,,,,,,,,,,,,,,,,,,,,,,,,,,,,,,,,5ff040139cc6b3ee87f4af58,606a0fd3c8e677356aece9be,2021-04-04_21h13.50.880,Colour_Similarity_Experiment,2020.2.10,Win32,60,60675255c767bca6388caeee,17.08399366,16.81001727,16.74576271,16.76868829,16.73613445,16.76868829,,,,,,,,,,,,,,,,,,,,PF,3,strong,,,,,,,,7,0.833,,,,,,,,,,,,,,,,,,,,,,,,,,,,9,strong,31,75,1,0,0,response1disk,1,186,6,7,1,0,0,rectangle,6,7,1,0,0,6,3,0.003,6,7,1,0,0,0,23,23,111,1,0,,,,,,,,,,,,,,,,,,,,,
,,,,,,,,,,,,,,,,,,,,,,,,,,,,,,,,,,,,,,,,,,5ff040139cc6b3ee87f4af58,606a0fd3c8e677356aece9be,2021-04-04_21h13.50.880,Colour_Similarity_Experiment,2020.2.10,Win32,60,60675255c767bca6388caeee,17.08399366,16.81001727,16.74576271,16.76868829,16.73613445,16.76868829,,,,,,,,,,,,,,,,,,,,PF,3,strong,,,,,,,,6,1.082,,,,,,,,,,,,,,,,,,,,,,,,,,,,3,strong,72,39,1,0,0,response1disk,8,187,-19,-7,1,0,0,rectangle,-19,-7,1,0,0,6,7,0.002,-19,-7,1,0,0,0,24,24,44,1,0,,,,,,,,,,,,,,,,,,,,,
,,,,,,,,,,,,,,,,,,,,,,,,,,,,,,,,,,,,,,,,,,5ff040139cc6b3ee87f4af58,606a0fd3c8e677356aece9be,2021-04-04_21h13.50.880,Colour_Similarity_Experiment,2020.2.10,Win32,60,60675255c767bca6388caeee,17.08399366,16.81001727,16.74576271,16.76868829,16.73613445,16.76868829,,,,,,,,,,,,,,,,,,,,PF,3,strong,,,,,,,,6,1.649,,,,,,,,,,,,,,,,,,,,,,,,,,,,2,strong,53,35,1,0,0,response1disk,7,188,-10,-10,1,0,0,rectangle,-10,-10,1,0,0,6,5,0.002,-10,-10,1,0,0,0,25,25,63,1,0,,,,,,,,,,,,,,,,,,,,,
,,,,,,,,,,,,,,,,,,,,,,,,,,,,,,,,,,,,,,,,,,5ff040139cc6b3ee87f4af58,606a0fd3c8e677356aece9be,2021-04-04_21h13.50.880,Colour_Similarity_Experiment,2020.2.10,Win32,60,60675255c767bca6388caeee,17.08399366,16.81001727,16.74576271,16.76868829,16.73613445,16.76868829,,,,,,,,,,,,,,,,,,,,PF,3,weak,,,,,,,,7,0.733,,,,,,,,,,,,,,,,,,,,,,,,,,,,8,weak,23,65,1,0,0,response1disk,2,189,7,11,1,0,0,rectangle,7,11,1,0,0,6,2,0.002,7,11,1,0,0,0,26,26,83,1,0,,,,,,,,,,,,,,,,,,,,,
,,,,,,,,,,,,,,,,,,,,,,,,,,,,,,,,,,,,,,,,,,5ff040139cc6b3ee87f4af58,606a0fd3c8e677356aece9be,2021-04-04_21h13.50.880,Colour_Similarity_Experiment,2020.2.10,Win32,60,60675255c767bca6388caeee,17.08399366,16.81001727,16.74576271,16.76868829,16.73613445,16.76868829,,,,,,,,,,,,,,,,,,,,PF,3,strong,,,,,,,,7,0.815,,,,,,,,,,,,,,,,,,,,,,,,,,,,6,strong,31,90,1,0,0,response1disk,8,190,-6,1,1,0,0,rectangle,-6,1,1,0,0,6,1,0.002,-6,1,1,0,0,0,27,27,133,1,0,,,,,,,,,,,,,,,,,,,,,
,,,,,,,,,,,,,,,,,,,,,,,,,,,,,,,,,,,,,,,,,,5ff040139cc6b3ee87f4af58,606a0fd3c8e677356aece9be,2021-04-04_21h13.50.880,Colour_Similarity_Experiment,2020.2.10,Win32,60,60675255c767bca6388caeee,17.08399366,16.81001727,16.74576271,16.76868829,16.73613445,16.76868829,,,,,,,,,,,,,,,,,,,,PF,3,weak,,,,,,,,5,2.416,,,,,,,,,,,,,,,,,,,,,,,,,,,,2,weak,75,-34,1,0,0,response3disk,1,191,-11,1,1,0,0,rectangle,-11,1,1,0,0,6,2,0.002,-11,1,1,0,0,0,28,28,9,1,0,,,,,,,,,,,,,,,,,,,,,
,,,,,,,,,,,,,,,,,,,,,,,,,,,,,,,,,,,,,,,,,,5ff040139cc6b3ee87f4af58,606a0fd3c8e677356aece9be,2021-04-04_21h13.50.880,Colour_Similarity_Experiment,2020.2.10,Win32,60,60675255c767bca6388caeee,17.08399366,16.81001727,16.74576271,16.76868829,16.73613445,16.76868829,,,,,,,,,,,,,,,,,,,,PF,3,strong,,,,,,,,7,0.749,,,,,,,,,,,,,,,,,,,,,,,,,,,,1,strong,47,91,1,0,0,response1disk,3,192,6,8,1,0,0,rectangle,6,8,1,0,0,6,6,0.001,6,8,1,0,0,0,29,29,99,1,0,,,,,,,,,,,,,,,,,,,,,
,,,,,,,,,,,,,,,,,,,,,,,,,,,,,,,,,,,,,,,,,,5ff040139cc6b3ee87f4af58,606a0fd3c8e677356aece9be,2021-04-04_21h13.50.880,Colour_Similarity_Experiment,2020.2.10,Win32,60,60675255c767bca6388caeee,17.08399366,16.81001727,16.74576271,16.76868829,16.73613445,16.76868829,,,,,,,,,,,,,,,,,,,,PF,3,weak,,,,,,,,0,1.017,,,,,,,,,,,,,,,,,,,,,,,,,,,,6,weak,-27,81,1,0,0,response7disk,3,193,-10,3,1,0,0,rectangle,-10,3,1,0,0,6,6,0,-10,3,1,0,0,0,30,30,26,1,0,,,,,,,,,,,,,,,,,,,,,
,,,,,,,,,,,,,,,,,,,,,,,,,,,,,,,,,,,,,,,,,,5ff040139cc6b3ee87f4af58,606a0fd3c8e677356aece9be,2021-04-04_21h13.50.880,Colour_Similarity_Experiment,2020.2.10,Win32,60,60675255c767bca6388caeee,17.08399366,16.81001727,16.74576271,16.76868829,16.73613445,16.76868829,,,,,,,,,,,,,,,,,,,,PF,3,strong,,,,,,,,7,1.198,,,,,,,,,,,,,,,,,,,,,,,,,,,,8,strong,22,80,1,0,0,response1disk,8,194,8,7,1,0,0,rectangle,8,7,1,0,0,6,2,0.001,8,7,1,0,0,0,31,31,48,1,0,,,,,,,,,,,,,,,,,,,,,
,,,,,,,,,,,,,,,,,,,,,,,,,,,,,,,,,,,,,,,,,,5ff040139cc6b3ee87f4af58,606a0fd3c8e677356aece9be,2021-04-04_21h13.50.880,Colour_Similarity_Experiment,2020.2.10,Win32,60,60675255c767bca6388caeee,17.08399366,16.81001727,16.74576271,16.76868829,16.73613445,16.76868829,,,,,,,,,,,,,,,,,,,,PF,3,strong,,,,,,,,7,0.817,,,,,,,,,,,,,,,,,,,,,,,,,,,,3,strong,29,78,1,0,0,response1disk,4,195,-7,-2,1,0,0,rectangle,-7,-2,1,0,0,6,4,0.003,-7,-2,1,0,0,0,32,32,110,1,0,,,,,,,,,,,,,,,,,,,,,
,,,,,,,,,,,,,,,,,,,,,,,,,,,,,,,,,,,,,,,,,,5ff040139cc6b3ee87f4af58,606a0fd3c8e677356aece9be,2021-04-04_21h13.50.880,Colour_Similarity_Experiment,2020.2.10,Win32,60,60675255c767bca6388caeee,17.08399366,16.81001727,16.74576271,16.76868829,16.73613445,16.76868829,,,,,,,,,,,,,,,,,,,,PF,3,weak,,,,,,,,7,0.682,,,,,,,,,,,,,,,,,,,,,,,,,,,,8,weak,21,71,1,0,0,response1disk,6,196,12,-11,1,0,0,rectangle,-77,-36,1,0,0,6,2,1.614,-11,1,1,0,0,0,33,33,161,1,1,response5disk_3,rectangle,,,,,,,,,,,,,,,,,,,
,,,,,,,,,,,,,,,,,,,,,,,,,,,,,,,,,,,,,,,,,,5ff040139cc6b3ee87f4af58,606a0fd3c8e677356aece9be,2021-04-04_21h13.50.880,Colour_Similarity_Experiment,2020.2.10,Win32,60,60675255c767bca6388caeee,17.08399366,16.81001727,16.74576271,16.76868829,16.73613445,16.76868829,,,,,,,,,,,,,,,,,,,,PF,3,strong,,,,,,,,0,1.348,,,,,,,,,,,,,,,,,,,,,,,,,,,,2,strong,-25,85,1,0,0,response7disk,1,197,9,-1,1,0,0,rectangle,9,-1,1,0,0,6,1,0.003,9,-1,1,0,0,0,34,34,85,1,0,,,,,,,,,,,,,,,,,,,,,
