key_resp.keys,key_resp.rt,key_resp_16.keys,key_resp_16.rt,key_resp_2.keys,key_resp_2.rt,X Scale,ratio_pxpermm,screen_size_x,screen_size_y,testsize,key_resp_3.keys,key_resp_4.keys,key_resp_4.rt,line_size,key_resp_5.keys,key_resp_5.rt,key_resp_6.keys,key_resp_6.rt,key_resp_8.keys,key_resp_8.rt,key_resp_7.keys,key_resp_7.rt,key_resp_12.keys,key_resp_12.rt,key_resp_11.keys,key_resp_11.rt,key_resp_18.keys,key_resp_18.rt,key_resp_21.keys,key_resp_21.rt,key_resp_13.keys,key_resp_13.rt,key_resp_19.keys,key_resp_19.rt,ballposx,viewer_distance,trials.thisRepN,trials.thisTrialN,trials.thisN,trials.thisIndex,trials.ran,participant,session,date,expName,psychopyVersion,OS,frameRate,study_id,realFrameRate1,realFrameRate2,realFrameRate3,realFrameRate4,realFrameRate5,realFrameRate,viewerdistancecm,DVA_to_distance,radius_F,radius_P,r_F,R_P,key_resp_20.keys,key_resp_20.rt,key_resp_14.keys,key_resp_14.rt,key_resp_15.keys,key_resp_15.rt,key_resp_17.keys,key_resp_17.rt,key_resp_9.keys,key_resp_9.rt,key_resp_10.keys,key_resp_10.rt,Colour_1,Ecc,mask_frames,maskCon,mouse_5.x,mouse_5.y,mouse_5.leftButton,mouse_5.midButton,mouse_5.rightButton,mouse_5.clicked_name,Colour_2,similarity,response_time,mouse_10.x,mouse_10.y,mouse_10.leftButton,mouse_10.midButton,mouse_10.rightButton,mouse_10.clicked_name,mouse_7.x,mouse_7.y,mouse_7.leftButton,mouse_7.midButton,mouse_7.rightButton,catchnumberprac,mouse_6.x,mouse_6.y,mouse_6.leftButton,mouse_6.midButton,mouse_6.rightButton,duringprac.thisRepN,duringprac.thisTrialN,duringprac.thisN,duringprac.thisIndex,duringprac.ran,mouse_7.clicked_name,catchprac,mouse_6.clicked_name,key_resp_22.keys,key_resp_22.rt,Colour1,maskCon1,mouse.x,mouse.y,mouse.leftButton,mouse.midButton,mouse.rightButton,mouse.clicked_name,Colour2,trialnumber,mouse_2.x,mouse_2.y,mouse_2.leftButton,mouse_2.midButton,mouse_2.rightButton,mouse_2.clicked_name,mouse_3.x,mouse_3.y,mouse_3.leftButton,mouse_3.midButton,mouse_3.rightButton,catchresponse,catchnumber,response_time_catch,mouse_11.x,mouse_11.y,mouse_11.leftButton,mouse_11.midButton,mouse_11.rightButton,trials_2.thisRepN,trials_2.thisTrialN,trials_2.thisN,trials_2.thisIndex,trials_2.ran,Catch,mouse_3.clicked_name,mouse_11.clicked_name,trials_3.thisRepN,trials_3.thisTrialN,trials_3.thisN,trials_3.thisIndex,trials_3.ran,answer1,rt1,answer2,rt2,answer3,rt3,answer4,rt4,answer5,rt5,answer6,rt6,answer7,rt7
space,4.475855,space,8.031575,space,11.146495,44.8,4.48,342.8571429,192.8571429,1536,,space,11.121885,89.6,space,12.888685,space,11.47306,space,3.135885,space,4.962205,space,9.291935,space,11.27163,space,13.029645,space,14.820955,space,19.963715,return,5.00467,-119.808,682.6333814,0,0,0,0,1,601829114a6f8201fbc23287,606a0f86b14a33ab73a48e9e,2021-04-04_21h12.25.841,Colour_Similarity_Experiment,2020.2.10,Win32,60,60675255c767bca6388caeee,17.12623684,17.11348517,16.64678887,16.64467164,16.65294643,16.65294643,,,,,,,,,,,,,,,,,,,,,,,,,,,,,,,,,,,,,,,,,,,,,,,,,,,,,,,,,,,,,,,,,,,,,,,,,,,,,,,,,,,,,,,,,,,,,,,,,,,,,,,,,,,,,,,,,,
,,,,,,,,,,,,,,,,,,,,,,,,,,,,,,,,,return,5.089365,-131.328,693.3441562,1,0,1,0,1,601829114a6f8201fbc23287,606a0f86b14a33ab73a48e9e,2021-04-04_21h12.25.841,Colour_Similarity_Experiment,2020.2.10,Win32,60,60675255c767bca6388caeee,17.12623684,17.11348517,16.64678887,16.64467164,16.65294643,16.65294643,,,,,,,,,,,,,,,,,,,,,,,,,,,,,,,,,,,,,,,,,,,,,,,,,,,,,,,,,,,,,,,,,,,,,,,,,,,,,,,,,,,,,,,,,,,,,,,,,,,,,,,,,,,,,,,,,,
,,,,,,,,,,,,,,,,,,,,,,,,,,,,,,,,,return,4.93162,-108.288,671.9226066,2,0,2,0,1,601829114a6f8201fbc23287,606a0f86b14a33ab73a48e9e,2021-04-04_21h12.25.841,Colour_Similarity_Experiment,2020.2.10,Win32,60,60675255c767bca6388caeee,17.12623684,17.11348517,16.64678887,16.64467164,16.65294643,16.65294643,,,,,,,,,,,,,,,,,,,,,,,,,,,,,,,,,,,,,,,,,,,,,,,,,,,,,,,,,,,,,,,,,,,,,,,,,,,,,,,,,,,,,,,,,,,,,,,,,,,,,,,,,,,,,,,,,,
,,,,,,,,,,,,,,,,,,,,,,,,,,,,,,,,,return,4.69835,-76.032,641.9324371,3,0,3,0,1,601829114a6f8201fbc23287,606a0f86b14a33ab73a48e9e,2021-04-04_21h12.25.841,Colour_Similarity_Experiment,2020.2.10,Win32,60,60675255c767bca6388caeee,17.12623684,17.11348517,16.64678887,16.64467164,16.65294643,16.65294643,,,,,,,,,,,,,,,,,,,,,,,,,,,,,,,,,,,,,,,,,,,,,,,,,,,,,,,,,,,,,,,,,,,,,,,,,,,,,,,,,,,,,,,,,,,,,,,,,,,,,,,,,,,,,,,,,,
,,,,,,,,,,,,,,,,,,,,,,,,,,,,,,,,,return,4.77925,-87.552,652.6432119,4,0,4,0,1,601829114a6f8201fbc23287,606a0f86b14a33ab73a48e9e,2021-04-04_21h12.25.841,Colour_Similarity_Experiment,2020.2.10,Win32,60,60675255c767bca6388caeee,17.12623684,17.11348517,16.64678887,16.64467164,16.65294643,16.65294643,,,,,,,,,,,,,,,,,,,,,,,,,,,,,,,,,,,,,,,,,,,,,,,,,,,,,,,,,,,,,,,,,,,,,,,,,,,,,,,,,,,,,,,,,,,,,,,,,,,,,,,,,,,,,,,,,,
,,,,,,,,,,,,,,,,,,,,,,,,,,,,,,,,,,,,,,,,,,601829114a6f8201fbc23287,606a0f86b14a33ab73a48e9e,2021-04-04_21h12.25.841,Colour_Similarity_Experiment,2020.2.10,Win32,60,60675255c767bca6388caeee,17.12623684,17.11348517,16.64678887,16.64467164,16.65294643,16.65294643,67,11.69488932,78.58965623,523.9310415,52.39310415,235.7689687,space,6.82044,space,23.14235,space,39.70443,space,8.36335,space,3.97823,space,8.01341,2,PF,3,weak,44.80001211,96.79999501,1,0,0,response1disk_5,8,7,13.487745,8.800011575,1.599993587,1,0,0,rectangle_8,8.800011575,1.599993587,1,0,0,3,8.800011575,1.599993587,1,0,0,0,0,0,4,1,,,,,,,,,,,,,,,,,,,,,,,,,,,,,,,,,,,,,,,,,,,,,,,,,,,,,,,,,,,,,
,,,,,,,,,,,,,,,,,,,,,,,,,,,,,,,,,,,,,,,,,,601829114a6f8201fbc23287,606a0f86b14a33ab73a48e9e,2021-04-04_21h12.25.841,Colour_Similarity_Experiment,2020.2.10,Win32,60,60675255c767bca6388caeee,17.12623684,17.11348517,16.64678887,16.64467164,16.65294643,16.65294643,,,,,,,,,,,,,,,,,,,8,PF,3,weak,114.4000131,63.19997009,1,0,0,response1disk_5,5,6,11.53948,-8.799988687,-5.600006521,1,0,0,rectangle_8,-8.799988687,-5.600006521,1,0,0,3,-8.799988687,-5.600006521,1,0,0,0,1,1,5,1,,,,,,,,,,,,,,,,,,,,,,,,,,,,,,,,,,,,,,,,,,,,,,,,,,,,,,,,,,,,,
,,,,,,,,,,,,,,,,,,,,,,,,,,,,,,,,,,,,,,,,,,601829114a6f8201fbc23287,606a0f86b14a33ab73a48e9e,2021-04-04_21h12.25.841,Colour_Similarity_Experiment,2020.2.10,Win32,60,60675255c767bca6388caeee,17.12623684,17.11348517,16.64678887,16.64467164,16.65294643,16.65294643,,,,,,,,,,,,,,,,,,,6,PF,3,strong,-76.7999897,-33.60000694,1,0,0,response5disk_5,5,2,3.61353,-2.399939764,1.599993587,1,0,0,rectangle_8,-47.19998926,-76.00000757,1,0,0,3,-2.399939764,3.999993622,1,0,0,0,2,2,3,1,response5disk_7,3,rectangle_4,,,,,,,,,,,,,,,,,,,,,,,,,,,,,,,,,,,,,,,,,,,,,,,,,,,,,,,,,,
,,,,,,,,,,,,,,,,,,,,,,,,,,,,,,,,,,,,,,,,,,601829114a6f8201fbc23287,606a0f86b14a33ab73a48e9e,2021-04-04_21h12.25.841,Colour_Similarity_Experiment,2020.2.10,Win32,60,60675255c767bca6388caeee,17.12623684,17.11348517,16.64678887,16.64467164,16.65294643,16.65294643,,,,,,,,,,,,,,,,,,,7,PF,3,strong,63.20001239,55.9999944,1,0,0,response1disk_5,8,6,7.20969,-8.799988687,-4.800006509,1,0,0,rectangle_8,-47.19998926,-82.40000767,1,0,0,3,16.00001168,4.799993634,1,0,0,0,3,3,0,1,response5disk_7,3,rectangle_4,,,,,,,,,,,,,,,,,,,,,,,,,,,,,,,,,,,,,,,,,,,,,,,,,,,,,,,,,,
,,,,,,,,,,,,,,,,,,,,,,,,,,,,,,,,,,,,,,,,,,601829114a6f8201fbc23287,606a0f86b14a33ab73a48e9e,2021-04-04_21h12.25.841,Colour_Similarity_Experiment,2020.2.10,Win32,60,60675255c767bca6388caeee,17.12623684,17.11348517,16.64678887,16.64467164,16.65294643,16.65294643,,,,,,,,,,,,,,,,,,,5,PF,3,strong,-38.3999403,-109.6000569,1,0,0,response5disk_5,9,3,4.51263,1.14441E-05,0.799993575,1,0,0,rectangle_8,1.14441E-05,0.799993575,1,0,0,3,1.14441E-05,0.799993575,1,0,0,0,4,4,2,1,,,,,,,,,,,,,,,,,,,,,,,,,,,,,,,,,,,,,,,,,,,,,,,,,,,,,,,,,,,,,
,,,,,,,,,,,,,,,,,,,,,,,,,,,,,,,,,,,,,,,,,,601829114a6f8201fbc23287,606a0f86b14a33ab73a48e9e,2021-04-04_21h12.25.841,Colour_Similarity_Experiment,2020.2.10,Win32,60,60675255c767bca6388caeee,17.12623684,17.11348517,16.64678887,16.64467164,16.65294643,16.65294643,,,,,,,,,,,,,,,,,,,5,PF,3,weak,-89.59998989,45.59999424,1,0,0,response7disk_5,3,1,4.41301,-4.799988627,-0.800006449,1,0,0,rectangle_8,-4.799988627,-0.800006449,1,0,0,3,-4.799988627,-0.800006449,1,0,0,0,5,5,1,1,,,,,,,,,,,,,,,,,,,,,,,,,,,,,,,,,,,,,,,,,,,,,,,,,,,,,,,,,,,,,
,,,,,,,,,,,,,,,,,,,,,,,,,,,,,,,,,,,,,,,,,,601829114a6f8201fbc23287,606a0f86b14a33ab73a48e9e,2021-04-04_21h12.25.841,Colour_Similarity_Experiment,2020.2.10,Win32,60,60675255c767bca6388caeee,17.12623684,17.11348517,16.64678887,16.64467164,16.65294643,16.65294643,,,,,,,,,,,,,,,,,,,4,PF,3,weak,-99.99999005,-39.20000702,1,0,0,response5disk_5,6,2,6.0481,4.800011516,-8.000006557,1,0,0,rectangle_8,4.800011516,-8.000006557,1,0,0,3,4.800011516,-8.000006557,1,0,0,0,6,6,6,1,,,,,,,,,,,,,,,,,,,,,,,,,,,,,,,,,,,,,,,,,,,,,,,,,,,,,,,,,,,,,
,,,,,,,,,,,,,,,,,,,,,,,,,,,,,,,,,,,,,,,,,,601829114a6f8201fbc23287,606a0f86b14a33ab73a48e9e,2021-04-04_21h12.25.841,Colour_Similarity_Experiment,2020.2.10,Win32,60,60675255c767bca6388caeee,17.12623684,17.11348517,16.64678887,16.64467164,16.65294643,16.65294643,,,,,,,,,,,,,,,,,,,,PF,3,weak,,,,,,,,2,5.827205,,,,,,,,,,,,,,,,,,,,,,,,,,space,4.43377,4,weak,-103.1999901,-46.40000713,1,0,0,response5disk,8,1,-5.599988639,2.399993598,1,0,0,rectangle,-5.599988639,2.399993598,1,0,0,,2,0.002835,-5.599988639,2.399993598,1,0,0,0,0,0,124,1,0,,,,,,,,,,,,,,,,,,,,,
,,,,,,,,,,,,,,,,,,,,,,,,,,,,,,,,,,,,,,,,,,601829114a6f8201fbc23287,606a0f86b14a33ab73a48e9e,2021-04-04_21h12.25.841,Colour_Similarity_Experiment,2020.2.10,Win32,60,60675255c767bca6388caeee,17.12623684,17.11348517,16.64678887,16.64467164,16.65294643,16.65294643,,,,,,,,,,,,,,,,,,,,PF,3,strong,,,,,,,,1,4.945075,,,,,,,,,,,,,,,,,,,,,,,,,,,,1,strong,-91.99998993,47.19996985,1,0,0,response7disk,3,2,-2.399939764,-1.600006461,1,0,0,rectangle,-2.399939764,-1.600006461,1,0,0,,4,0.00332,-2.399939764,-1.600006461,1,0,0,0,1,1,99,1,0,,,,,,,,,,,,,,,,,,,,,
,,,,,,,,,,,,,,,,,,,,,,,,,,,,,,,,,,,,,,,,,,601829114a6f8201fbc23287,606a0f86b14a33ab73a48e9e,2021-04-04_21h12.25.841,Colour_Similarity_Experiment,2020.2.10,Win32,60,60675255c767bca6388caeee,17.12623684,17.11348517,16.64678887,16.64467164,16.65294643,16.65294643,,,,,,,,,,,,,,,,,,,,PF,3,strong,,,,,,,,3,2.663845,,,,,,,,,,,,,,,,,,,,,,,,,,,,2,strong,-44.79998922,-112.0000081,1,0,0,response5disk,2,3,-4.799988627,3.19999361,1,0,0,rectangle,-4.799988627,3.19999361,1,0,0,,0,0.00241,-4.799988627,3.19999361,1,0,0,0,2,2,142,1,0,,,,,,,,,,,,,,,,,,,,,
,,,,,,,,,,,,,,,,,,,,,,,,,,,,,,,,,,,,,,,,,,601829114a6f8201fbc23287,606a0f86b14a33ab73a48e9e,2021-04-04_21h12.25.841,Colour_Similarity_Experiment,2020.2.10,Win32,60,60675255c767bca6388caeee,17.12623684,17.11348517,16.64678887,16.64467164,16.65294643,16.65294643,,,,,,,,,,,,,,,,,,,,PF,3,strong,,,,,,,,3,1.232605,,,,,,,,,,,,,,,,,,,,,,,,,,,,7,strong,-54.39994054,-110.4000081,1,0,0,response5disk,3,4,-6.399939823,1.599993587,1,0,0,rectangle,-6.399939823,1.599993587,1,0,0,,5,0.002365,-6.399939823,1.599993587,1,0,0,0,3,3,73,1,0,,,,,,,,,,,,,,,,,,,,,
,,,,,,,,,,,,,,,,,,,,,,,,,,,,,,,,,,,,,,,,,,601829114a6f8201fbc23287,606a0f86b14a33ab73a48e9e,2021-04-04_21h12.25.841,Colour_Similarity_Experiment,2020.2.10,Win32,60,60675255c767bca6388caeee,17.12623684,17.11348517,16.64678887,16.64467164,16.65294643,16.65294643,,,,,,,,,,,,,,,,,,,,PF,3,weak,,,,,,,,4,2.930395,,,,,,,,,,,,,,,,,,,,,,,,,,,,8,weak,30.4000119,-85.60005654,1,0,0,response3disk,6,5,-6.399939823,-2.400006473,1,0,0,rectangle,44.80001211,95.19997057,1,0,0,7,7,3.094565,13.60006047,1.599993587,1,0,0,0,4,4,161,1,1,response1disk_3,rectangle,,,,,,,,,,,,,,,,,,,
,,,,,,,,,,,,,,,,,,,,,,,,,,,,,,,,,,,,,,,,,,601829114a6f8201fbc23287,606a0f86b14a33ab73a48e9e,2021-04-04_21h12.25.841,Colour_Similarity_Experiment,2020.2.10,Win32,60,60675255c767bca6388caeee,17.12623684,17.11348517,16.64678887,16.64467164,16.65294643,16.65294643,,,,,,,,,,,,,,,,,,,,PF,3,weak,,,,,,,,5,3.880175,,,,,,,,,,,,,,,,,,,,,,,,,,,,5,weak,94.40001285,-36.00000697,1,0,0,response3disk,1,6,0.800011456,-2.400006473,1,0,0,rectangle,79.20001262,-28.00000685,1,0,0,5,5,2.214865,9.600060415,4.799993634,1,0,0,0,5,5,159,1,1,response3disk_3,rectangle,,,,,,,,,,,,,,,,,,,
,,,,,,,,,,,,,,,,,,,,,,,,,,,,,,,,,,,,,,,,,,601829114a6f8201fbc23287,606a0f86b14a33ab73a48e9e,2021-04-04_21h12.25.841,Colour_Similarity_Experiment,2020.2.10,Win32,60,60675255c767bca6388caeee,17.12623684,17.11348517,16.64678887,16.64467164,16.65294643,16.65294643,,,,,,,,,,,,,,,,,,,,PF,3,weak,,,,,,,,6,5.228775,,,,,,,,,,,,,,,,,,,,,,,,,,,,4,weak,104.800013,46.39999425,1,0,0,response1disk,9,7,-4.799988627,3.999993622,1,0,0,rectangle,-4.799988627,3.999993622,1,0,0,5,4,0.002535,-4.799988627,3.999993622,1,0,0,0,6,6,75,1,0,,,,,,,,,,,,,,,,,,,,,
,,,,,,,,,,,,,,,,,,,,,,,,,,,,,,,,,,,,,,,,,,601829114a6f8201fbc23287,606a0f86b14a33ab73a48e9e,2021-04-04_21h12.25.841,Colour_Similarity_Experiment,2020.2.10,Win32,60,60675255c767bca6388caeee,17.12623684,17.11348517,16.64678887,16.64467164,16.65294643,16.65294643,,,,,,,,,,,,,,,,,,,,PF,3,strong,,,,,,,,3,2.380915,,,,,,,,,,,,,,,,,,,,,,,,,,,,3,strong,-54.39994054,-87.20000774,1,0,0,response5disk,5,8,-7.999988675,-1.600006461,1,0,0,rectangle,-7.999988675,-1.600006461,1,0,0,5,5,0.002435,-7.999988675,-1.600006461,1,0,0,0,7,7,101,1,0,,,,,,,,,,,,,,,,,,,,,
,,,,,,,,,,,,,,,,,,,,,,,,,,,,,,,,,,,,,,,,,,601829114a6f8201fbc23287,606a0f86b14a33ab73a48e9e,2021-04-04_21h12.25.841,Colour_Similarity_Experiment,2020.2.10,Win32,60,60675255c767bca6388caeee,17.12623684,17.11348517,16.64678887,16.64467164,16.65294643,16.65294643,,,,,,,,,,,,,,,,,,,,PF,3,weak,,,,,,,,4,3.330015,,,,,,,,,,,,,,,,,,,,,,,,,,,,6,weak,28.80001187,-57.6000073,1,0,0,response3disk,8,9,10.4000116,-11.2000066,1,0,0,rectangle,10.4000116,-11.2000066,1,0,0,5,2,0.002575,10.4000116,-11.2000066,1,0,0,0,8,8,64,1,0,,,,,,,,,,,,,,,,,,,,,
,,,,,,,,,,,,,,,,,,,,,,,,,,,,,,,,,,,,,,,,,,601829114a6f8201fbc23287,606a0f86b14a33ab73a48e9e,2021-04-04_21h12.25.841,Colour_Similarity_Experiment,2020.2.10,Win32,60,60675255c767bca6388caeee,17.12623684,17.11348517,16.64678887,16.64467164,16.65294643,16.65294643,,,,,,,,,,,,,,,,,,,,PF,3,strong,,,,,,,,7,2.031445,,,,,,,,,,,,,,,,,,,,,,,,,,,,6,strong,46.40001214,87.19997045,1,0,0,response1disk,5,10,1.600060296,-7.200006545,1,0,0,rectangle,1.600060296,-7.200006545,1,0,0,5,1,0.002545,1.600060296,-7.200006545,1,0,0,0,9,9,126,1,0,,,,,,,,,,,,,,,,,,,,,
,,,,,,,,,,,,,,,,,,,,,,,,,,,,,,,,,,,,,,,,,,601829114a6f8201fbc23287,606a0f86b14a33ab73a48e9e,2021-04-04_21h12.25.841,Colour_Similarity_Experiment,2020.2.10,Win32,60,60675255c767bca6388caeee,17.12623684,17.11348517,16.64678887,16.64467164,16.65294643,16.65294643,,,,,,,,,,,,,,,,,,,,PF,3,weak,,,,,,,,2,3.347185,,,,,,,,,,,,,,,,,,,,,,,,,,,,8,weak,-83.1999898,-28.00000685,1,0,0,response5disk,7,11,-7.999988675,5.599993646,1,0,0,rectangle,-7.999988675,5.599993646,1,0,0,5,5,0.00243,-7.999988675,5.599993646,1,0,0,0,10,10,23,1,0,,,,,,,,,,,,,,,,,,,,,
,,,,,,,,,,,,,,,,,,,,,,,,,,,,,,,,,,,,,,,,,,601829114a6f8201fbc23287,606a0f86b14a33ab73a48e9e,2021-04-04_21h12.25.841,Colour_Similarity_Experiment,2020.2.10,Win32,60,60675255c767bca6388caeee,17.12623684,17.11348517,16.64678887,16.64467164,16.65294643,16.65294643,,,,,,,,,,,,,,,,,,,,PF,3,weak,,,,,,,,7,2.114955,,,,,,,,,,,,,,,,,,,,,,,,,,,,5,weak,46.40001214,100.7999951,1,0,0,response1disk,3,12,-6.399939823,2.399993598,1,0,0,rectangle,-6.399939823,2.399993598,1,0,0,5,2,0.002495,-6.399939823,2.399993598,1,0,0,0,11,11,109,1,0,,,,,,,,,,,,,,,,,,,,,
,,,,,,,,,,,,,,,,,,,,,,,,,,,,,,,,,,,,,,,,,,601829114a6f8201fbc23287,606a0f86b14a33ab73a48e9e,2021-04-04_21h12.25.841,Colour_Similarity_Experiment,2020.2.10,Win32,60,60675255c767bca6388caeee,17.12623684,17.11348517,16.64678887,16.64467164,16.65294643,16.65294643,,,,,,,,,,,,,,,,,,,,PF,3,strong,,,,,,,,3,2.74757,,,,,,,,,,,,,,,,,,,,,,,,,,,,9,strong,-43.1999892,-89.6000566,1,0,0,response5disk,8,13,9.600060415,-8.000006557,1,0,0,rectangle,9.600060415,-8.000006557,1,0,0,5,6,0.0025,9.600060415,-8.000006557,1,0,0,0,12,12,6,1,0,,,,,,,,,,,,,,,,,,,,,
,,,,,,,,,,,,,,,,,,,,,,,,,,,,,,,,,,,,,,,,,,601829114a6f8201fbc23287,606a0f86b14a33ab73a48e9e,2021-04-04_21h12.25.841,Colour_Similarity_Experiment,2020.2.10,Win32,60,60675255c767bca6388caeee,17.12623684,17.11348517,16.64678887,16.64467164,16.65294643,16.65294643,,,,,,,,,,,,,,,,,,,,PF,3,weak,,,,,,,,6,4.279235,,,,,,,,,,,,,,,,,,,,,,,,,,,,4,weak,78.40001261,45.59999424,1,0,0,response1disk,7,14,-3.999988616,-7.200006545,1,0,0,rectangle,-3.999988616,-7.200006545,1,0,0,5,4,0.00252,-3.999988616,-7.200006545,1,0,0,0,13,13,38,1,0,,,,,,,,,,,,,,,,,,,,,
,,,,,,,,,,,,,,,,,,,,,,,,,,,,,,,,,,,,,,,,,,601829114a6f8201fbc23287,606a0f86b14a33ab73a48e9e,2021-04-04_21h12.25.841,Colour_Similarity_Experiment,2020.2.10,Win32,60,60675255c767bca6388caeee,17.12623684,17.11348517,16.64678887,16.64467164,16.65294643,16.65294643,,,,,,,,,,,,,,,,,,,,PF,3,strong,,,,,,,,7,1.76472,,,,,,,,,,,,,,,,,,,,,,,,,,,,7,strong,51.20001221,52.79999435,1,0,0,response1disk,4,15,-4.799988627,-4.000006497,1,0,0,rectangle,-4.799988627,-4.000006497,1,0,0,5,4,0.00021,-4.799988627,-4.000006497,1,0,0,0,14,14,158,1,0,,,,,,,,,,,,,,,,,,,,,
,,,,,,,,,,,,,,,,,,,,,,,,,,,,,,,,,,,,,,,,,,601829114a6f8201fbc23287,606a0f86b14a33ab73a48e9e,2021-04-04_21h12.25.841,Colour_Similarity_Experiment,2020.2.10,Win32,60,60675255c767bca6388caeee,17.12623684,17.11348517,16.64678887,16.64467164,16.65294643,16.65294643,,,,,,,,,,,,,,,,,,,,PF,3,weak,,,,,,,,6,3.879675,,,,,,,,,,,,,,,,,,,,,,,,,,,,1,weak,75.20001256,47.19996985,1,0,0,response1disk,6,16,-6.399939823,-1.600006461,1,0,0,rectangle,-6.399939823,-1.600006461,1,0,0,5,5,0.00355,-6.399939823,-1.600006461,1,0,0,0,15,15,144,1,0,,,,,,,,,,,,,,,,,,,,,
,,,,,,,,,,,,,,,,,,,,,,,,,,,,,,,,,,,,,,,,,,601829114a6f8201fbc23287,606a0f86b14a33ab73a48e9e,2021-04-04_21h12.25.841,Colour_Similarity_Experiment,2020.2.10,Win32,60,60675255c767bca6388caeee,17.12623684,17.11348517,16.64678887,16.64467164,16.65294643,16.65294643,,,,,,,,,,,,,,,,,,,,PF,3,strong,,,,,,,,7,1.715175,,,,,,,,,,,,,,,,,,,,,,,,,,,,2,strong,37.60006083,68.79999459,1,0,0,response1disk,3,17,9.600060415,-6.4373E-06,1,0,0,rectangle,-33.59998906,-60.00000733,1,0,0,3,3,2.064405,-3.199988604,-8.000006557,1,0,0,0,16,16,104,1,1,response5disk_3,rectangle,,,,,,,,,,,,,,,,,,,
,,,,,,,,,,,,,,,,,,,,,,,,,,,,,,,,,,,,,,,,,,601829114a6f8201fbc23287,606a0f86b14a33ab73a48e9e,2021-04-04_21h12.25.841,Colour_Similarity_Experiment,2020.2.10,Win32,60,60675255c767bca6388caeee,17.12623684,17.11348517,16.64678887,16.64467164,16.65294643,16.65294643,,,,,,,,,,,,,,,,,,,,PF,3,weak,,,,,,,,7,1.748335,,,,,,,,,,,,,,,,,,,,,,,,,,,,3,weak,31.20001191,75.19997027,1,0,0,response1disk,3,18,0.800011456,-5.600006521,1,0,0,rectangle,0.800011456,-5.600006521,1,0,0,3,1,0.00269,0.800011456,-5.600006521,1,0,0,0,17,17,4,1,0,,,,,,,,,,,,,,,,,,,,,
,,,,,,,,,,,,,,,,,,,,,,,,,,,,,,,,,,,,,,,,,,601829114a6f8201fbc23287,606a0f86b14a33ab73a48e9e,2021-04-04_21h12.25.841,Colour_Similarity_Experiment,2020.2.10,Win32,60,60675255c767bca6388caeee,17.12623684,17.11348517,16.64678887,16.64467164,16.65294643,16.65294643,,,,,,,,,,,,,,,,,,,,PF,3,strong,,,,,,,,6,9.25836,,,,,,,,,,,,,,,,,,,,,,,,,,,,1,strong,108.8000131,54.39999437,1,0,0,response1disk,9,19,-1.59998858,6.399993658,1,0,0,rectangle,-1.59998858,6.399993658,1,0,0,3,1,0.000195,-1.59998858,6.399993658,1,0,0,0,18,18,123,1,0,,,,,,,,,,,,,,,,,,,,,
,,,,,,,,,,,,,,,,,,,,,,,,,,,,,,,,,,,,,,,,,,601829114a6f8201fbc23287,606a0f86b14a33ab73a48e9e,2021-04-04_21h12.25.841,Colour_Similarity_Experiment,2020.2.10,Win32,60,60675255c767bca6388caeee,17.12623684,17.11348517,16.64678887,16.64467164,16.65294643,16.65294643,,,,,,,,,,,,,,,,,,,,PF,3,weak,,,,,,,,6,1.38205,,,,,,,,,,,,,,,,,,,,,,,,,,,,9,weak,74.40001255,39.19996973,1,0,0,response1disk,6,20,12.80001163,3.19999361,1,0,0,rectangle,12.80001163,3.19999361,1,0,0,3,6,0.00257,12.80001163,3.19999361,1,0,0,0,19,19,148,1,0,,,,,,,,,,,,,,,,,,,,,
,,,,,,,,,,,,,,,,,,,,,,,,,,,,,,,,,,,,,,,,,,601829114a6f8201fbc23287,606a0f86b14a33ab73a48e9e,2021-04-04_21h12.25.841,Colour_Similarity_Experiment,2020.2.10,Win32,60,60675255c767bca6388caeee,17.12623684,17.11348517,16.64678887,16.64467164,16.65294643,16.65294643,,,,,,,,,,,,,,,,,,,,PF,3,strong,,,,,,,,6,1.113325,,,,,,,,,,,,,,,,,,,,,,,,,,,,9,strong,80.80001265,30.39999402,1,0,0,response1disk,6,21,23.20001179,6.399993658,1,0,0,rectangle,23.20001179,6.399993658,1,0,0,3,0,0.002595,23.20001179,6.399993658,1,0,0,0,20,20,117,1,0,,,,,,,,,,,,,,,,,,,,,
,,,,,,,,,,,,,,,,,,,,,,,,,,,,,,,,,,,,,,,,,,601829114a6f8201fbc23287,606a0f86b14a33ab73a48e9e,2021-04-04_21h12.25.841,Colour_Similarity_Experiment,2020.2.10,Win32,60,60675255c767bca6388caeee,17.12623684,17.11348517,16.64678887,16.64467164,16.65294643,16.65294643,,,,,,,,,,,,,,,,,,,,PF,3,weak,,,,,,,,0,1.781455,,,,,,,,,,,,,,,,,,,,,,,,,,,,3,weak,-35.19998908,96.79999501,1,0,0,response7disk,4,22,12.00001162,1.599993587,1,0,0,rectangle,12.00001162,1.599993587,1,0,0,3,6,0.002695,12.00001162,1.599993587,1,0,0,0,21,21,30,1,0,,,,,,,,,,,,,,,,,,,,,
,,,,,,,,,,,,,,,,,,,,,,,,,,,,,,,,,,,,,,,,,,601829114a6f8201fbc23287,606a0f86b14a33ab73a48e9e,2021-04-04_21h12.25.841,Colour_Similarity_Experiment,2020.2.10,Win32,60,60675255c767bca6388caeee,17.12623684,17.11348517,16.64678887,16.64467164,16.65294643,16.65294643,,,,,,,,,,,,,,,,,,,,PF,3,weak,,,,,,,,1,1.58203,,,,,,,,,,,,,,,,,,,,,,,,,,,,4,weak,-95.99998999,27.19996955,1,0,0,response7disk,5,23,20.80001175,10.39999372,1,0,0,rectangle,20.80001175,10.39999372,1,0,0,3,5,0.002635,20.80001175,10.39999372,1,0,0,0,22,22,49,1,0,,,,,,,,,,,,,,,,,,,,,
,,,,,,,,,,,,,,,,,,,,,,,,,,,,,,,,,,,,,,,,,,601829114a6f8201fbc23287,606a0f86b14a33ab73a48e9e,2021-04-04_21h12.25.841,Colour_Similarity_Experiment,2020.2.10,Win32,60,60675255c767bca6388caeee,17.12623684,17.11348517,16.64678887,16.64467164,16.65294643,16.65294643,,,,,,,,,,,,,,,,,,,,PF,3,weak,,,,,,,,5,2.5306,,,,,,,,,,,,,,,,,,,,,,,,,,,,5,weak,85.60001272,-32.80000693,1,0,0,response3disk,2,24,16.80001169,-4.000006497,1,0,0,rectangle,16.80001169,-4.000006497,1,0,0,3,0,0.00252,16.80001169,-4.000006497,1,0,0,0,23,23,129,1,0,,,,,,,,,,,,,,,,,,,,,
,,,,,,,,,,,,,,,,,,,,,,,,,,,,,,,,,,,,,,,,,,601829114a6f8201fbc23287,606a0f86b14a33ab73a48e9e,2021-04-04_21h12.25.841,Colour_Similarity_Experiment,2020.2.10,Win32,60,60675255c767bca6388caeee,17.12623684,17.11348517,16.64678887,16.64467164,16.65294643,16.65294643,,,,,,,,,,,,,,,,,,,,PF,3,strong,,,,,,,,3,2.115045,,,,,,,,,,,,,,,,,,,,,,,,,,,,7,strong,-31.99998903,-68.00000745,1,0,0,response5disk,9,25,12.80001163,3.999993622,1,0,0,rectangle,12.80001163,3.999993622,1,0,0,3,4,0.00251,12.80001163,3.999993622,1,0,0,0,24,24,155,1,0,,,,,,,,,,,,,,,,,,,,,
,,,,,,,,,,,,,,,,,,,,,,,,,,,,,,,,,,,,,,,,,,601829114a6f8201fbc23287,606a0f86b14a33ab73a48e9e,2021-04-04_21h12.25.841,Colour_Similarity_Experiment,2020.2.10,Win32,60,60675255c767bca6388caeee,17.12623684,17.11348517,16.64678887,16.64467164,16.65294643,16.65294643,,,,,,,,,,,,,,,,,,,,PF,3,strong,,,,,,,,3,1.448805,,,,,,,,,,,,,,,,,,,,,,,,,,,,6,strong,-63.99998951,-104.800008,1,0,0,response5disk,2,26,-11.19998872,-5.600006521,1,0,0,rectangle,-11.19998872,-5.600006521,1,0,0,3,2,0.00245,-11.19998872,-5.600006521,1,0,0,0,25,25,112,1,0,,,,,,,,,,,,,,,,,,,,,
,,,,,,,,,,,,,,,,,,,,,,,,,,,,,,,,,,,,,,,,,,601829114a6f8201fbc23287,606a0f86b14a33ab73a48e9e,2021-04-04_21h12.25.841,Colour_Similarity_Experiment,2020.2.10,Win32,60,60675255c767bca6388caeee,17.12623684,17.11348517,16.64678887,16.64467164,16.65294643,16.65294643,,,,,,,,,,,,,,,,,,,,PF,3,weak,,,,,,,,3,1.198935,,,,,,,,,,,,,,,,,,,,,,,,,,,,8,weak,-35.99998909,-69.60000747,1,0,0,response5disk,2,27,3.200011492,-6.400006533,1,0,0,rectangle,3.200011492,-6.400006533,1,0,0,3,2,0.00019,3.200011492,-6.400006533,1,0,0,0,26,26,83,1,0,,,,,,,,,,,,,,,,,,,,,
,,,,,,,,,,,,,,,,,,,,,,,,,,,,,,,,,,,,,,,,,,601829114a6f8201fbc23287,606a0f86b14a33ab73a48e9e,2021-04-04_21h12.25.841,Colour_Similarity_Experiment,2020.2.10,Win32,60,60675255c767bca6388caeee,17.12623684,17.11348517,16.64678887,16.64467164,16.65294643,16.65294643,,,,,,,,,,,,,,,,,,,,PF,3,strong,,,,,,,,3,1.398635,,,,,,,,,,,,,,,,,,,,,,,,,,,,7,strong,-23.99998891,-69.60000747,1,0,0,response5disk,2,28,1.14441E-05,2.399993598,1,0,0,rectangle,1.14441E-05,2.399993598,1,0,0,3,7,0.00263,1.14441E-05,2.399993598,1,0,0,0,27,27,138,1,0,,,,,,,,,,,,,,,,,,,,,
,,,,,,,,,,,,,,,,,,,,,,,,,,,,,,,,,,,,,,,,,,601829114a6f8201fbc23287,606a0f86b14a33ab73a48e9e,2021-04-04_21h12.25.841,Colour_Similarity_Experiment,2020.2.10,Win32,60,60675255c767bca6388caeee,17.12623684,17.11348517,16.64678887,16.64467164,16.65294643,16.65294643,,,,,,,,,,,,,,,,,,,,PF,3,weak,,,,,,,,4,3.39714,,,,,,,,,,,,,,,,,,,,,,,,,,,,7,weak,31.20001191,-67.20000744,1,0,0,response3disk,9,29,-1.59998858,-3.200006485,1,0,0,rectangle,-1.59998858,-3.200006485,1,0,0,3,3,0.002395,-1.59998858,-3.200006485,1,0,0,0,28,28,10,1,0,,,,,,,,,,,,,,,,,,,,,
,,,,,,,,,,,,,,,,,,,,,,,,,,,,,,,,,,,,,,,,,,601829114a6f8201fbc23287,606a0f86b14a33ab73a48e9e,2021-04-04_21h12.25.841,Colour_Similarity_Experiment,2020.2.10,Win32,60,60675255c767bca6388caeee,17.12623684,17.11348517,16.64678887,16.64467164,16.65294643,16.65294643,,,,,,,,,,,,,,,,,,,,PF,3,strong,,,,,,,,5,2.62671,,,,,,,,,,,,,,,,,,,,,,,,,,,,8,strong,96.80001289,-29.60000688,1,0,0,response3disk,5,30,10.4000116,-2.400006473,1,0,0,rectangle,10.4000116,-2.400006473,1,0,0,3,4,0.001075,10.4000116,-2.400006473,1,0,0,0,29,29,152,1,0,,,,,,,,,,,,,,,,,,,,,
,,,,,,,,,,,,,,,,,,,,,,,,,,,,,,,,,,,,,,,,,,601829114a6f8201fbc23287,606a0f86b14a33ab73a48e9e,2021-04-04_21h12.25.841,Colour_Similarity_Experiment,2020.2.10,Win32,60,60675255c767bca6388caeee,17.12623684,17.11348517,16.64678887,16.64467164,16.65294643,16.65294643,,,,,,,,,,,,,,,,,,,,PF,3,strong,,,,,,,,7,1.28249,,,,,,,,,,,,,,,,,,,,,,,,,,,,4,strong,59.20001233,99.19997063,1,0,0,response1disk,3,31,-6.399939823,7.999993682,1,0,0,rectangle,-6.399939823,7.999993682,1,0,0,3,4,0.00023,-6.399939823,7.999993682,1,0,0,0,30,30,77,1,0,,,,,,,,,,,,,,,,,,,,,
,,,,,,,,,,,,,,,,,,,,,,,,,,,,,,,,,,,,,,,,,,601829114a6f8201fbc23287,606a0f86b14a33ab73a48e9e,2021-04-04_21h12.25.841,Colour_Similarity_Experiment,2020.2.10,Win32,60,60675255c767bca6388caeee,17.12623684,17.11348517,16.64678887,16.64467164,16.65294643,16.65294643,,,,,,,,,,,,,,,,,,,,PF,3,strong,,,,,,,,2,2.714805,,,,,,,,,,,,,,,,,,,,,,,,,,,,6,strong,-72.79998964,-35.20000696,1,0,0,response5disk,1,32,12.00001162,-4.000006497,1,0,0,rectangle,12.00001162,-4.000006497,1,0,0,3,5,0.002825,12.00001162,-4.000006497,1,0,0,0,31,31,5,1,0,,,,,,,,,,,,,,,,,,,,,
,,,,,,,,,,,,,,,,,,,,,,,,,,,,,,,,,,,,,,,,,,601829114a6f8201fbc23287,606a0f86b14a33ab73a48e9e,2021-04-04_21h12.25.841,Colour_Similarity_Experiment,2020.2.10,Win32,60,60675255c767bca6388caeee,17.12623684,17.11348517,16.64678887,16.64467164,16.65294643,16.65294643,,,,,,,,,,,,,,,,,,,,PF,3,strong,,,,,,,,6,3.096995,,,,,,,,,,,,,,,,,,,,,,,,,,,,5,strong,80.00001264,34.39999408,1,0,0,response1disk,9,33,23.20001179,-4.800006509,1,0,0,rectangle,23.20001179,-4.800006509,1,0,0,3,4,0.00284,23.20001179,-4.800006509,1,0,0,0,32,32,61,1,0,,,,,,,,,,,,,,,,,,,,,
,,,,,,,,,,,,,,,,,,,,,,,,,,,,,,,,,,,,,,,,,,601829114a6f8201fbc23287,606a0f86b14a33ab73a48e9e,2021-04-04_21h12.25.841,Colour_Similarity_Experiment,2020.2.10,Win32,60,60675255c767bca6388caeee,17.12623684,17.11348517,16.64678887,16.64467164,16.65294643,16.65294643,,,,,,,,,,,,,,,,,,,,PF,3,weak,,,,,,,,3,2.08161,,,,,,,,,,,,,,,,,,,,,,,,,,,,8,weak,-64.79998952,-81.60005648,1,0,0,response5disk,1,34,-13.59998876,-5.600006521,1,0,0,rectangle,-13.59998876,-5.600006521,1,0,0,3,3,0.002505,-13.59998876,-5.600006521,1,0,0,0,33,33,57,1,0,,,,,,,,,,,,,,,,,,,,,
,,,,,,,,,,,,,,,,,,,,,,,,,,,,,,,,,,,,,,,,,,601829114a6f8201fbc23287,606a0f86b14a33ab73a48e9e,2021-04-04_21h12.25.841,Colour_Similarity_Experiment,2020.2.10,Win32,60,60675255c767bca6388caeee,17.12623684,17.11348517,16.64678887,16.64467164,16.65294643,16.65294643,,,,,,,,,,,,,,,,,,,,PF,3,weak,,,,,,,,1,1.531685,,,,,,,,,,,,,,,,,,,,,,,,,,,,6,weak,-69.59998959,46.39999425,1,0,0,response7disk,5,35,8.800011575,4.799993634,1,0,0,rectangle,8.800011575,4.799993634,1,0,0,3,4,0.00231,8.800011575,4.799993634,1,0,0,0,34,34,59,1,0,,,,,,,,,,,,,,,,,,,,,
,,,,,,,,,,,,,,,,,,,,,,,,,,,,,,,,,,,,,,,,,,601829114a6f8201fbc23287,606a0f86b14a33ab73a48e9e,2021-04-04_21h12.25.841,Colour_Similarity_Experiment,2020.2.10,Win32,60,60675255c767bca6388caeee,17.12623684,17.11348517,16.64678887,16.64467164,16.65294643,16.65294643,,,,,,,,,,,,,,,,,,,,PF,3,weak,,,,,,,,6,1.415595,,,,,,,,,,,,,,,,,,,,,,,,,,,,7,weak,80.80001265,28.79999399,1,0,0,response1disk,2,36,22.40001178,-4.800006509,1,0,0,rectangle,22.40001178,-4.800006509,1,0,0,3,0,0.00099,22.40001178,-4.800006509,1,0,0,0,35,35,32,1,0,,,,,,,,,,,,,,,,,,,,,
,,,,,,,,,,,,,,,,,,,,,,,,,,,,,,,,,,,,,,,,,,601829114a6f8201fbc23287,606a0f86b14a33ab73a48e9e,2021-04-04_21h12.25.841,Colour_Similarity_Experiment,2020.2.10,Win32,60,60675255c767bca6388caeee,17.12623684,17.11348517,16.64678887,16.64467164,16.65294643,16.65294643,,,,,,,,,,,,,,,,,,,,PF,3,weak,,,,,,,,6,1.082515,,,,,,,,,,,,,,,,,,,,,,,,,,,,4,weak,85.60001272,31.19996961,1,0,0,response1disk,6,37,18.40001172,0.799993575,1,0,0,rectangle,18.40001172,0.799993575,1,0,0,3,0,0.00022,18.40001172,0.799993575,1,0,0,0,36,36,120,1,0,,,,,,,,,,,,,,,,,,,,,
,,,,,,,,,,,,,,,,,,,,,,,,,,,,,,,,,,,,,,,,,,601829114a6f8201fbc23287,606a0f86b14a33ab73a48e9e,2021-04-04_21h12.25.841,Colour_Similarity_Experiment,2020.2.10,Win32,60,60675255c767bca6388caeee,17.12623684,17.11348517,16.64678887,16.64467164,16.65294643,16.65294643,,,,,,,,,,,,,,,,,,,,PF,3,weak,,,,,,,,0,1.5323,,,,,,,,,,,,,,,,,,,,,,,,,,,,4,weak,-59.19998944,93.59999496,1,0,0,response7disk,4,38,6.400011539,6.399993658,1,0,0,rectangle,6.400011539,6.399993658,1,0,0,3,3,0.00239,6.400011539,6.399993658,1,0,0,0,37,37,70,1,0,,,,,,,,,,,,,,,,,,,,,
,,,,,,,,,,,,,,,,,,,,,,,,,,,,,,,,,,,,,,,,,,601829114a6f8201fbc23287,606a0f86b14a33ab73a48e9e,2021-04-04_21h12.25.841,Colour_Similarity_Experiment,2020.2.10,Win32,60,60675255c767bca6388caeee,17.12623684,17.11348517,16.64678887,16.64467164,16.65294643,16.65294643,,,,,,,,,,,,,,,,,,,,PF,3,strong,,,,,,,,6,1.682005,,,,,,,,,,,,,,,,,,,,,,,,,,,,1,strong,75.20001256,32.79999405,1,0,0,response1disk,2,39,18.40001172,7.19999367,1,0,0,rectangle,18.40001172,7.19999367,1,0,0,3,0,0.00296,18.40001172,7.19999367,1,0,0,0,38,38,2,1,0,,,,,,,,,,,,,,,,,,,,,
,,,,,,,,,,,,,,,,,,,,,,,,,,,,,,,,,,,,,,,,,,601829114a6f8201fbc23287,606a0f86b14a33ab73a48e9e,2021-04-04_21h12.25.841,Colour_Similarity_Experiment,2020.2.10,Win32,60,60675255c767bca6388caeee,17.12623684,17.11348517,16.64678887,16.64467164,16.65294643,16.65294643,,,,,,,,,,,,,,,,,,,,PF,3,weak,,,,,,,,4,1.81494,,,,,,,,,,,,,,,,,,,,,,,,,,,,2,weak,25.60006065,-79.20000762,1,0,0,response3disk,1,40,16.00001168,-1.600006461,1,0,0,rectangle,16.00001168,-1.600006461,1,0,0,3,0,0.00022,16.00001168,-1.600006461,1,0,0,0,39,39,9,1,0,,,,,,,,,,,,,,,,,,,,,
,,,,,,,,,,,,,,,,,,,,,,,,,,,,,,,,,,,,,,,,,,601829114a6f8201fbc23287,606a0f86b14a33ab73a48e9e,2021-04-04_21h12.25.841,Colour_Similarity_Experiment,2020.2.10,Win32,60,60675255c767bca6388caeee,17.12623684,17.11348517,16.64678887,16.64467164,16.65294643,16.65294643,,,,,,,,,,,,,,,,,,,,PF,3,weak,,,,,,,,4,0.98247,,,,,,,,,,,,,,,,,,,,,,,,,,,,5,weak,57.6000123,-77.60000759,1,0,0,response3disk,6,41,18.40001172,3.999993622,1,0,0,rectangle,18.40001172,3.999993622,1,0,0,3,6,0.00251,18.40001172,3.999993622,1,0,0,0,40,40,103,1,0,,,,,,,,,,,,,,,,,,,,,
,,,,,,,,,,,,,,,,,,,,,,,,,,,,,,,,,,,,,,,,,,601829114a6f8201fbc23287,606a0f86b14a33ab73a48e9e,2021-04-04_21h12.25.841,Colour_Similarity_Experiment,2020.2.10,Win32,60,60675255c767bca6388caeee,17.12623684,17.11348517,16.64678887,16.64467164,16.65294643,16.65294643,,,,,,,,,,,,,,,,,,,,PF,3,weak,,,,,,,,4,0.949385,,,,,,,,,,,,,,,,,,,,,,,,,,,,3,weak,40.80001205,-76.80000758,1,0,0,response3disk,9,42,12.80001163,-1.600006461,1,0,0,rectangle,12.80001163,-1.600006461,1,0,0,3,4,0.004305,12.80001163,-1.600006461,1,0,0,0,41,41,79,1,0,,,,,,,,,,,,,,,,,,,,,
,,,,,,,,,,,,,,,,,,,,,,,,,,,,,,,,,,,,,,,,,,601829114a6f8201fbc23287,606a0f86b14a33ab73a48e9e,2021-04-04_21h12.25.841,Colour_Similarity_Experiment,2020.2.10,Win32,60,60675255c767bca6388caeee,17.12623684,17.11348517,16.64678887,16.64467164,16.65294643,16.65294643,,,,,,,,,,,,,,,,,,,,PF,3,weak,,,,,,,,0,0.849435,,,,,,,,,,,,,,,,,,,,,,,,,,,,8,weak,-26.39994012,82.39999479,1,0,0,response7disk,3,43,11.20001161,2.399993598,1,0,0,rectangle,11.20001161,2.399993598,1,0,0,3,6,0.00099,11.20001161,2.399993598,1,0,0,0,42,42,71,1,0,,,,,,,,,,,,,,,,,,,,,
,,,,,,,,,,,,,,,,,,,,,,,,,,,,,,,,,,,,,,,,,,601829114a6f8201fbc23287,606a0f86b14a33ab73a48e9e,2021-04-04_21h12.25.841,Colour_Similarity_Experiment,2020.2.10,Win32,60,60675255c767bca6388caeee,17.12623684,17.11348517,16.64678887,16.64467164,16.65294643,16.65294643,,,,,,,,,,,,,,,,,,,,PF,3,strong,,,,,,,,4,0.96614,,,,,,,,,,,,,,,,,,,,,,,,,,,,4,strong,40.00001204,-83.20000768,1,0,0,response3disk,2,44,17.60006053,7.999993682,1,0,0,rectangle,17.60006053,7.999993682,1,0,0,3,7,0.002705,17.60006053,7.999993682,1,0,0,0,43,43,13,1,0,,,,,,,,,,,,,,,,,,,,,
,,,,,,,,,,,,,,,,,,,,,,,,,,,,,,,,,,,,,,,,,,601829114a6f8201fbc23287,606a0f86b14a33ab73a48e9e,2021-04-04_21h12.25.841,Colour_Similarity_Experiment,2020.2.10,Win32,60,60675255c767bca6388caeee,17.12623684,17.11348517,16.64678887,16.64467164,16.65294643,16.65294643,,,,,,,,,,,,,,,,,,,,PF,3,strong,,,,,,,,1,1.099285,,,,,,,,,,,,,,,,,,,,,,,,,,,,4,strong,-88.79998988,36.79999411,1,0,0,response7disk,4,45,-2.399939764,7.19999367,1,0,0,rectangle,-2.399939764,7.19999367,1,0,0,3,5,0.002605,-2.399939764,7.19999367,1,0,0,0,44,44,84,1,0,,,,,,,,,,,,,,,,,,,,,
,,,,,,,,,,,,,,,,,,,,,,,,,,,,,,,,,,,,,,,,,,601829114a6f8201fbc23287,606a0f86b14a33ab73a48e9e,2021-04-04_21h12.25.841,Colour_Similarity_Experiment,2020.2.10,Win32,60,60675255c767bca6388caeee,17.12623684,17.11348517,16.64678887,16.64467164,16.65294643,16.65294643,,,,,,,,,,,,,,,,,,,,PF,3,strong,,,,,,,,2,2.16479,,,,,,,,,,,,,,,,,,,,,,,,,,,,1,strong,-82.39994096,-22.40000677,1,0,0,response5disk,5,46,-7.199988663,0.799993575,1,0,0,rectangle,-7.199988663,0.799993575,1,0,0,3,1,0.002865,-7.199988663,0.799993575,1,0,0,0,45,45,82,1,0,,,,,,,,,,,,,,,,,,,,,
,,,,,,,,,,,,,,,,,,,,,,,,,,,,,,,,,,,,,,,,,,601829114a6f8201fbc23287,606a0f86b14a33ab73a48e9e,2021-04-04_21h12.25.841,Colour_Similarity_Experiment,2020.2.10,Win32,60,60675255c767bca6388caeee,17.12623684,17.11348517,16.64678887,16.64467164,16.65294643,16.65294643,,,,,,,,,,,,,,,,,,,,PF,3,weak,,,,,,,,2,2.048105,,,,,,,,,,,,,,,,,,,,,,,,,,,,3,weak,-59.99998945,-31.2000069,1,0,0,response5disk,5,47,-6.399939823,-8.800006568,1,0,0,rectangle,-6.399939823,-8.800006568,1,0,0,3,0,0.002455,-6.399939823,-8.800006568,1,0,0,0,46,46,66,1,0,,,,,,,,,,,,,,,,,,,,,
,,,,,,,,,,,,,,,,,,,,,,,,,,,,,,,,,,,,,,,,,,601829114a6f8201fbc23287,606a0f86b14a33ab73a48e9e,2021-04-04_21h12.25.841,Colour_Similarity_Experiment,2020.2.10,Win32,60,60675255c767bca6388caeee,17.12623684,17.11348517,16.64678887,16.64467164,16.65294643,16.65294643,,,,,,,,,,,,,,,,,,,,PF,3,weak,,,,,,,,1,1.51538,,,,,,,,,,,,,,,,,,,,,,,,,,,,6,weak,-79.19998974,58.39999443,1,0,0,response7disk,4,48,12.80001163,2.399993598,1,0,0,rectangle,12.80001163,2.399993598,1,0,0,3,4,0.00245,12.80001163,2.399993598,1,0,0,0,47,47,33,1,0,,,,,,,,,,,,,,,,,,,,,
,,,,,,,,,,,,,,,,,,,,,,,,,,,,,,,,,,,,,,,,,,601829114a6f8201fbc23287,606a0f86b14a33ab73a48e9e,2021-04-04_21h12.25.841,Colour_Similarity_Experiment,2020.2.10,Win32,60,60675255c767bca6388caeee,17.12623684,17.11348517,16.64678887,16.64467164,16.65294643,16.65294643,,,,,,,,,,,,,,,,,,,,PF,3,strong,,,,,,,,4,1.282285,,,,,,,,,,,,,,,,,,,,,,,,,,,,6,strong,63.20001239,-84.8000077,1,0,0,response3disk,9,49,22.40001178,-6.4373E-06,1,0,0,rectangle,-99.99999005,43.99999422,1,0,0,1,1,1.76502,12.00001162,0.799993575,1,0,0,0,48,48,160,1,1,response7disk_3,rectangle,,,,,,,,,,,,,,,,,,,
,,,,,,,,,,,,,,,,,,,,,,,,,,,,,,,,,,,,,,,,,,601829114a6f8201fbc23287,606a0f86b14a33ab73a48e9e,2021-04-04_21h12.25.841,Colour_Similarity_Experiment,2020.2.10,Win32,60,60675255c767bca6388caeee,17.12623684,17.11348517,16.64678887,16.64467164,16.65294643,16.65294643,,,,,,,,,,,,,,,,,,,,PF,3,weak,,,,,,,,6,3.47985,,,,,,,,,,,,,,,,,,,,,,,,,,,,2,weak,85.60001272,25.59999394,1,0,0,response1disk,2,50,17.60006053,-1.600006461,1,0,0,rectangle,17.60006053,-1.600006461,1,0,0,1,3,0.0024,17.60006053,-1.600006461,1,0,0,0,49,49,14,1,0,,,,,,,,,,,,,,,,,,,,,
,,,,,,,,,,,,,,,,,,,,,,,,,,,,,,,,,,,,,,,,,,601829114a6f8201fbc23287,606a0f86b14a33ab73a48e9e,2021-04-04_21h12.25.841,Colour_Similarity_Experiment,2020.2.10,Win32,60,60675255c767bca6388caeee,17.12623684,17.11348517,16.64678887,16.64467164,16.65294643,16.65294643,,,,,,,,,,,,,,,,,,,,PF,3,weak,,,,,,,,5,1.7653,,,,,,,,,,,,,,,,,,,,,,,,,,,,7,weak,75.20001256,-36.00000697,1,0,0,response3disk,1,51,8.800011575,1.599993587,1,0,0,rectangle,8.800011575,1.599993587,1,0,0,1,7,0.002595,8.800011575,1.599993587,1,0,0,0,50,50,53,1,0,,,,,,,,,,,,,,,,,,,,,
,,,,,,,,,,,,,,,,,,,,,,,,,,,,,,,,,,,,,,,,,,601829114a6f8201fbc23287,606a0f86b14a33ab73a48e9e,2021-04-04_21h12.25.841,Colour_Similarity_Experiment,2020.2.10,Win32,60,60675255c767bca6388caeee,17.12623684,17.11348517,16.64678887,16.64467164,16.65294643,16.65294643,,,,,,,,,,,,,,,,,,,,PF,3,weak,,,,,,,,1,1.631725,,,,,,,,,,,,,,,,,,,,,,,,,,,,6,weak,-90.39994107,67.99999458,1,0,0,response7disk,7,52,1.14441E-05,8.799993694,1,0,0,rectangle,1.14441E-05,8.799993694,1,0,0,1,5,0.00253,1.14441E-05,8.799993694,1,0,0,0,51,51,50,1,0,,,,,,,,,,,,,,,,,,,,,
,,,,,,,,,,,,,,,,,,,,,,,,,,,,,,,,,,,,,,,,,,601829114a6f8201fbc23287,606a0f86b14a33ab73a48e9e,2021-04-04_21h12.25.841,Colour_Similarity_Experiment,2020.2.10,Win32,60,60675255c767bca6388caeee,17.12623684,17.11348517,16.64678887,16.64467164,16.65294643,16.65294643,,,,,,,,,,,,,,,,,,,,PF,3,weak,,,,,,,,0,1.465145,,,,,,,,,,,,,,,,,,,,,,,,,,,,7,weak,-61.59998947,86.39999485,1,0,0,response7disk,4,53,1.14441E-05,6.399993658,1,0,0,rectangle,1.14441E-05,6.399993658,1,0,0,1,6,0.002585,1.14441E-05,6.399993658,1,0,0,0,52,52,43,1,0,,,,,,,,,,,,,,,,,,,,,
,,,,,,,,,,,,,,,,,,,,,,,,,,,,,,,,,,,,,,,,,,601829114a6f8201fbc23287,606a0f86b14a33ab73a48e9e,2021-04-04_21h12.25.841,Colour_Similarity_Experiment,2020.2.10,Win32,60,60675255c767bca6388caeee,17.12623684,17.11348517,16.64678887,16.64467164,16.65294643,16.65294643,,,,,,,,,,,,,,,,,,,,PF,3,weak,,,,,,,,0,0.882445,,,,,,,,,,,,,,,,,,,,,,,,,,,,6,weak,-50.39994048,70.39999461,1,0,0,response7disk,3,54,1.600060296,-8.000006557,1,0,0,rectangle,1.600060296,-8.000006557,1,0,0,1,5,0.002635,1.600060296,-8.000006557,1,0,0,0,53,53,26,1,0,,,,,,,,,,,,,,,,,,,,,
,,,,,,,,,,,,,,,,,,,,,,,,,,,,,,,,,,,,,,,,,,601829114a6f8201fbc23287,606a0f86b14a33ab73a48e9e,2021-04-04_21h12.25.841,Colour_Similarity_Experiment,2020.2.10,Win32,60,60675255c767bca6388caeee,17.12623684,17.11348517,16.64678887,16.64467164,16.65294643,16.65294643,,,,,,,,,,,,,,,,,,,,PF,3,weak,,,,,,,,2,1.44828,,,,,,,,,,,,,,,,,,,,,,,,,,,,3,weak,-71.19998962,-29.60000688,1,0,0,response5disk,1,55,-0.799988568,3.19999361,1,0,0,rectangle,-0.799988568,3.19999361,1,0,0,1,0,0.002595,-0.799988568,3.19999361,1,0,0,0,54,54,96,1,0,,,,,,,,,,,,,,,,,,,,,
,,,,,,,,,,,,,,,,,,,,,,,,,,,,,,,,,,,,,,,,,,601829114a6f8201fbc23287,606a0f86b14a33ab73a48e9e,2021-04-04_21h12.25.841,Colour_Similarity_Experiment,2020.2.10,Win32,60,60675255c767bca6388caeee,17.12623684,17.11348517,16.64678887,16.64467164,16.65294643,16.65294643,,,,,,,,,,,,,,,,,,,,PF,3,strong,,,,,,,,4,1.29837,,,,,,,,,,,,,,,,,,,,,,,,,,,,8,strong,68.00001246,-84.00000769,1,0,0,response3disk,9,56,19.20001173,-3.200006485,1,0,0,rectangle,19.20001173,-3.200006485,1,0,0,1,7,0.00257,19.20001173,-3.200006485,1,0,0,0,55,55,105,1,0,,,,,,,,,,,,,,,,,,,,,
,,,,,,,,,,,,,,,,,,,,,,,,,,,,,,,,,,,,,,,,,,601829114a6f8201fbc23287,606a0f86b14a33ab73a48e9e,2021-04-04_21h12.25.841,Colour_Similarity_Experiment,2020.2.10,Win32,60,60675255c767bca6388caeee,17.12623684,17.11348517,16.64678887,16.64467164,16.65294643,16.65294643,,,,,,,,,,,,,,,,,,,,PF,3,weak,,,,,,,,5,0.96542,,,,,,,,,,,,,,,,,,,,,,,,,,,,9,weak,92.80001283,-52.00000721,1,0,0,response3disk,2,57,19.20001173,-11.2000066,1,0,0,rectangle,19.20001173,-11.2000066,1,0,0,1,7,0.000235,19.20001173,-11.2000066,1,0,0,0,56,56,157,1,0,,,,,,,,,,,,,,,,,,,,,
,,,,,,,,,,,,,,,,,,,,,,,,,,,,,,,,,,,,,,,,,,601829114a6f8201fbc23287,606a0f86b14a33ab73a48e9e,2021-04-04_21h12.25.841,Colour_Similarity_Experiment,2020.2.10,Win32,60,60675255c767bca6388caeee,17.12623684,17.11348517,16.64678887,16.64467164,16.65294643,16.65294643,,,,,,,,,,,,,,,,,,,,PF,3,weak,,,,,,,,0,1.282155,,,,,,,,,,,,,,,,,,,,,,,,,,,,1,weak,-35.99998909,115.9999953,1,0,0,response7disk,5,58,20.80001175,-4.000006497,1,0,0,rectangle,20.80001175,-4.000006497,1,0,0,1,1,0.002405,20.80001175,-4.000006497,1,0,0,0,57,57,28,1,0,,,,,,,,,,,,,,,,,,,,,
,,,,,,,,,,,,,,,,,,,,,,,,,,,,,,,,,,,,,,,,,,601829114a6f8201fbc23287,606a0f86b14a33ab73a48e9e,2021-04-04_21h12.25.841,Colour_Similarity_Experiment,2020.2.10,Win32,60,60675255c767bca6388caeee,17.12623684,17.11348517,16.64678887,16.64467164,16.65294643,16.65294643,,,,,,,,,,,,,,,,,,,,PF,3,strong,,,,,,,,1,1.299215,,,,,,,,,,,,,,,,,,,,,,,,,,,,5,strong,-67.99998957,59.19997003,1,0,0,response7disk,5,59,-7.199988663,11.19999373,1,0,0,rectangle,-7.199988663,11.19999373,1,0,0,1,5,0.003455,-7.199988663,11.19999373,1,0,0,0,58,58,19,1,0,,,,,,,,,,,,,,,,,,,,,
,,,,,,,,,,,,,,,,,,,,,,,,,,,,,,,,,,,,,,,,,,601829114a6f8201fbc23287,606a0f86b14a33ab73a48e9e,2021-04-04_21h12.25.841,Colour_Similarity_Experiment,2020.2.10,Win32,60,60675255c767bca6388caeee,17.12623684,17.11348517,16.64678887,16.64467164,16.65294643,16.65294643,,,,,,,,,,,,,,,,,,,,PF,3,strong,,,,,,,,6,1.26478,,,,,,,,,,,,,,,,,,,,,,,,,,,,5,strong,102.400013,24.79999393,1,0,0,response1disk,2,60,4.800011516,2.399993598,1,0,0,rectangle,56.80001229,102.3999951,1,0,0,7,7,2.08135,-15.99998879,1.599993587,1,0,0,0,59,59,55,1,1,response1disk_3,rectangle,,,,,,,,,,,,,,,,,,,
,,,,,,,,,,,,,,,,,,,,,,,,,,,,,,,,,,,,,,,,,,601829114a6f8201fbc23287,606a0f86b14a33ab73a48e9e,2021-04-04_21h12.25.841,Colour_Similarity_Experiment,2020.2.10,Win32,60,60675255c767bca6388caeee,17.12623684,17.11348517,16.64678887,16.64467164,16.65294643,16.65294643,,,,,,,,,,,,,,,,,,,,PF,3,strong,,,,,,,,4,1.449455,,,,,,,,,,,,,,,,,,,,,,,,,,,,5,strong,60.00001234,-78.40000761,1,0,0,response3disk,6,61,1.14441E-05,6.399993658,1,0,0,rectangle,1.14441E-05,6.399993658,1,0,0,7,6,0.002645,1.14441E-05,6.399993658,1,0,0,0,60,60,12,1,0,,,,,,,,,,,,,,,,,,,,,
,,,,,,,,,,,,,,,,,,,,,,,,,,,,,,,,,,,,,,,,,,601829114a6f8201fbc23287,606a0f86b14a33ab73a48e9e,2021-04-04_21h12.25.841,Colour_Similarity_Experiment,2020.2.10,Win32,60,60675255c767bca6388caeee,17.12623684,17.11348517,16.64678887,16.64467164,16.65294643,16.65294643,,,,,,,,,,,,,,,,,,,,PF,3,weak,,,,,,,,7,2.04857,,,,,,,,,,,,,,,,,,,,,,,,,,,,1,weak,60.00001234,96.79999501,1,0,0,response1disk,8,62,19.20001173,5.599993646,1,0,0,rectangle,19.20001173,5.599993646,1,0,0,7,4,0.00259,19.20001173,5.599993646,1,0,0,0,61,61,65,1,0,,,,,,,,,,,,,,,,,,,,,
,,,,,,,,,,,,,,,,,,,,,,,,,,,,,,,,,,,,,,,,,,601829114a6f8201fbc23287,606a0f86b14a33ab73a48e9e,2021-04-04_21h12.25.841,Colour_Similarity_Experiment,2020.2.10,Win32,60,60675255c767bca6388caeee,17.12623684,17.11348517,16.64678887,16.64467164,16.65294643,16.65294643,,,,,,,,,,,,,,,,,,,,PF,3,strong,,,,,,,,7,0.866055,,,,,,,,,,,,,,,,,,,,,,,,,,,,4,strong,36.80001199,94.39999497,1,0,0,response1disk,6,63,8.800011575,-0.800006449,1,0,0,rectangle,8.800011575,-0.800006449,1,0,0,7,4,0.00022,8.800011575,-0.800006449,1,0,0,0,62,62,122,1,0,,,,,,,,,,,,,,,,,,,,,
,,,,,,,,,,,,,,,,,,,,,,,,,,,,,,,,,,,,,,,,,,601829114a6f8201fbc23287,606a0f86b14a33ab73a48e9e,2021-04-04_21h12.25.841,Colour_Similarity_Experiment,2020.2.10,Win32,60,60675255c767bca6388caeee,17.12623684,17.11348517,16.64678887,16.64467164,16.65294643,16.65294643,,,,,,,,,,,,,,,,,,,,PF,3,strong,,,,,,,,3,2.19807,,,,,,,,,,,,,,,,,,,,,,,,,,,,1,strong,-39.99998915,-79.20000762,1,0,0,response5disk,7,64,-11.19998872,-5.600006521,1,0,0,rectangle,-11.19998872,-5.600006521,1,0,0,7,0,0.0026,-11.19998872,-5.600006521,1,0,0,0,63,63,137,1,0,,,,,,,,,,,,,,,,,,,,,
,,,,,,,,,,,,,,,,,,,,,,,,,,,,,,,,,,,,,,,,,,601829114a6f8201fbc23287,606a0f86b14a33ab73a48e9e,2021-04-04_21h12.25.841,Colour_Similarity_Experiment,2020.2.10,Win32,60,60675255c767bca6388caeee,17.12623684,17.11348517,16.64678887,16.64467164,16.65294643,16.65294643,,,,,,,,,,,,,,,,,,,,PF,3,strong,,,,,,,,2,2.198045,,,,,,,,,,,,,,,,,,,,,,,,,,,,9,strong,-55.99998939,-36.80000699,1,0,0,response5disk,2,65,-0.799988568,-8.000006557,1,0,0,rectangle,-39.19998914,119.1999709,1,0,0,0,0,2.1317,-1.59998858,4.799993634,1,0,0,0,64,64,11,1,1,response7disk_3,rectangle,,,,,,,,,,,,,,,,,,,
,,,,,,,,,,,,,,,,,,,,,,,,,,,,,,,,,,,,,,,,,,601829114a6f8201fbc23287,606a0f86b14a33ab73a48e9e,2021-04-04_21h12.25.841,Colour_Similarity_Experiment,2020.2.10,Win32,60,60675255c767bca6388caeee,17.12623684,17.11348517,16.64678887,16.64467164,16.65294643,16.65294643,,,,,,,,,,,,,,,,,,,,PF,3,strong,,,,,,,,0,1.165695,,,,,,,,,,,,,,,,,,,,,,,,,,,,3,strong,-35.99998909,81.59999478,1,0,0,response7disk,3,66,3.200011492,3.19999361,1,0,0,rectangle,3.200011492,3.19999361,1,0,0,0,4,0.002955,3.200011492,3.19999361,1,0,0,0,65,65,68,1,0,,,,,,,,,,,,,,,,,,,,,
,,,,,,,,,,,,,,,,,,,,,,,,,,,,,,,,,,,,,,,,,,601829114a6f8201fbc23287,606a0f86b14a33ab73a48e9e,2021-04-04_21h12.25.841,Colour_Similarity_Experiment,2020.2.10,Win32,60,60675255c767bca6388caeee,17.12623684,17.11348517,16.64678887,16.64467164,16.65294643,16.65294643,,,,,,,,,,,,,,,,,,,,PF,3,weak,,,,,,,,7,1.04928,,,,,,,,,,,,,,,,,,,,,,,,,,,,5,weak,40.80001205,74.39999467,1,0,0,response1disk,8,67,17.60006053,-1.600006461,1,0,0,rectangle,17.60006053,-1.600006461,1,0,0,0,0,0.00255,17.60006053,-1.600006461,1,0,0,0,66,66,149,1,0,,,,,,,,,,,,,,,,,,,,,
,,,,,,,,,,,,,,,,,,,,,,,,,,,,,,,,,,,,,,,,,,601829114a6f8201fbc23287,606a0f86b14a33ab73a48e9e,2021-04-04_21h12.25.841,Colour_Similarity_Experiment,2020.2.10,Win32,60,60675255c767bca6388caeee,17.12623684,17.11348517,16.64678887,16.64467164,16.65294643,16.65294643,,,,,,,,,,,,,,,,,,,,PF,3,weak,,,,,,,,7,0.91574,,,,,,,,,,,,,,,,,,,,,,,,,,,,4,weak,23.20001179,66.39999455,1,0,0,response1disk,2,68,14.40001166,3.999993622,1,0,0,rectangle,14.40001166,3.999993622,1,0,0,0,1,0.00267,14.40001166,3.999993622,1,0,0,0,67,67,108,1,0,,,,,,,,,,,,,,,,,,,,,
,,,,,,,,,,,,,,,,,,,,,,,,,,,,,,,,,,,,,,,,,,601829114a6f8201fbc23287,606a0f86b14a33ab73a48e9e,2021-04-04_21h12.25.841,Colour_Similarity_Experiment,2020.2.10,Win32,60,60675255c767bca6388caeee,17.12623684,17.11348517,16.64678887,16.64467164,16.65294643,16.65294643,,,,,,,,,,,,,,,,,,,,PF,3,weak,,,,,,,,0,1.66256,,,,,,,,,,,,,,,,,,,,,,,,,,,,2,weak,-43.99998921,107.1999707,1,0,0,response7disk,3,69,12.80001163,-0.800006449,1,0,0,rectangle,12.80001163,-0.800006449,1,0,0,0,7,0.002535,12.80001163,-0.800006449,1,0,0,0,68,68,69,1,0,,,,,,,,,,,,,,,,,,,,,
,,,,,,,,,,,,,,,,,,,,,,,,,,,,,,,,,,,,,,,,,,601829114a6f8201fbc23287,606a0f86b14a33ab73a48e9e,2021-04-04_21h12.25.841,Colour_Similarity_Experiment,2020.2.10,Win32,60,60675255c767bca6388caeee,17.12623684,17.11348517,16.64678887,16.64467164,16.65294643,16.65294643,,,,,,,,,,,,,,,,,,,,PF,3,weak,,,,,,,,5,1.065525,,,,,,,,,,,,,,,,,,,,,,,,,,,,9,weak,75.20001256,-37.600007,1,0,0,response3disk,9,70,-8.799988687,-6.4373E-06,1,0,0,rectangle,-8.799988687,-6.4373E-06,1,0,0,0,4,0.00238,-8.799988687,-6.4373E-06,1,0,0,0,69,69,106,1,0,,,,,,,,,,,,,,,,,,,,,
,,,,,,,,,,,,,,,,,,,,,,,,,,,,,,,,,,,,,,,,,,601829114a6f8201fbc23287,606a0f86b14a33ab73a48e9e,2021-04-04_21h12.25.841,Colour_Similarity_Experiment,2020.2.10,Win32,60,60675255c767bca6388caeee,17.12623684,17.11348517,16.64678887,16.64467164,16.65294643,16.65294643,,,,,,,,,,,,,,,,,,,,PF,3,weak,,,,,,,,5,0.9163,,,,,,,,,,,,,,,,,,,,,,,,,,,,1,weak,92.80001283,-49.60000718,1,0,0,response3disk,2,71,-1.59998858,7.19999367,1,0,0,rectangle,-1.59998858,7.19999367,1,0,0,0,7,0.00246,-1.59998858,7.19999367,1,0,0,0,70,70,24,1,0,,,,,,,,,,,,,,,,,,,,,
,,,,,,,,,,,,,,,,,,,,,,,,,,,,,,,,,,,,,,,,,,601829114a6f8201fbc23287,606a0f86b14a33ab73a48e9e,2021-04-04_21h12.25.841,Colour_Similarity_Experiment,2020.2.10,Win32,60,60675255c767bca6388caeee,17.12623684,17.11348517,16.64678887,16.64467164,16.65294643,16.65294643,,,,,,,,,,,,,,,,,,,,PF,3,weak,,,,,,,,2,1.698715,,,,,,,,,,,,,,,,,,,,,,,,,,,,6,weak,-59.19998944,-29.60000688,1,0,0,response5disk,1,72,-23.99998891,-4.800006509,1,0,0,rectangle,-23.99998891,-4.800006509,1,0,0,0,4,0.002715,-23.99998891,-4.800006509,1,0,0,0,71,71,46,1,0,,,,,,,,,,,,,,,,,,,,,
,,,,,,,,,,,,,,,,,,,,,,,,,,,,,,,,,,,,,,,,,,601829114a6f8201fbc23287,606a0f86b14a33ab73a48e9e,2021-04-04_21h12.25.841,Colour_Similarity_Experiment,2020.2.10,Win32,60,60675255c767bca6388caeee,17.12623684,17.11348517,16.64678887,16.64467164,16.65294643,16.65294643,,,,,,,,,,,,,,,,,,,,PF,3,weak,,,,,,,,0,0.982805,,,,,,,,,,,,,,,,,,,,,,,,,,,,4,weak,-74.39994084,123.199971,1,0,0,response7disk,3,73,21.60006059,-4.000006497,1,0,0,rectangle,21.60006059,-4.000006497,1,0,0,0,7,0.002445,21.60006059,-4.000006497,1,0,0,0,72,72,89,1,0,,,,,,,,,,,,,,,,,,,,,
,,,,,,,,,,,,,,,,,,,,,,,,,,,,,,,,,,,,,,,,,,601829114a6f8201fbc23287,606a0f86b14a33ab73a48e9e,2021-04-04_21h12.25.841,Colour_Similarity_Experiment,2020.2.10,Win32,60,60675255c767bca6388caeee,17.12623684,17.11348517,16.64678887,16.64467164,16.65294643,16.65294643,,,,,,,,,,,,,,,,,,,,PF,3,strong,,,,,,,,1,1.981125,,,,,,,,,,,,,,,,,,,,,,,,,,,,1,strong,-79.19998974,33.59999406,1,0,0,response7disk,4,74,3.200011492,-0.800006449,1,0,0,rectangle,3.200011492,-0.800006449,1,0,0,0,3,0.003685,3.200011492,-0.800006449,1,0,0,0,73,73,135,1,0,,,,,,,,,,,,,,,,,,,,,
,,,,,,,,,,,,,,,,,,,,,,,,,,,,,,,,,,,,,,,,,,601829114a6f8201fbc23287,606a0f86b14a33ab73a48e9e,2021-04-04_21h12.25.841,Colour_Similarity_Experiment,2020.2.10,Win32,60,60675255c767bca6388caeee,17.12623684,17.11348517,16.64678887,16.64467164,16.65294643,16.65294643,,,,,,,,,,,,,,,,,,,,PF,3,strong,,,,,,,,7,1.76462,,,,,,,,,,,,,,,,,,,,,,,,,,,,4,strong,47.20001215,89.5999949,1,0,0,response1disk,9,75,20.80001175,8.799993694,1,0,0,rectangle,20.80001175,8.799993694,1,0,0,0,0,0.00247,20.80001175,8.799993694,1,0,0,0,74,74,90,1,0,,,,,,,,,,,,,,,,,,,,,
,,,,,,,,,,,,,,,,,,,,,,,,,,,,,,,,,,,,,,,,,,601829114a6f8201fbc23287,606a0f86b14a33ab73a48e9e,2021-04-04_21h12.25.841,Colour_Similarity_Experiment,2020.2.10,Win32,60,60675255c767bca6388caeee,17.12623684,17.11348517,16.64678887,16.64467164,16.65294643,16.65294643,,,,,,,,,,,,,,,,,,,,PF,3,strong,,,,,,,,0,0.916025,,,,,,,,,,,,,,,,,,,,,,,,,,,,5,strong,-53.59998935,94.39999497,1,0,0,response7disk,3,76,1.14441E-05,10.39999372,1,0,0,rectangle,1.14441E-05,10.39999372,1,0,0,0,2,0.002385,1.14441E-05,10.39999372,1,0,0,0,75,75,25,1,0,,,,,,,,,,,,,,,,,,,,,
,,,,,,,,,,,,,,,,,,,,,,,,,,,,,,,,,,,,,,,,,,601829114a6f8201fbc23287,606a0f86b14a33ab73a48e9e,2021-04-04_21h12.25.841,Colour_Similarity_Experiment,2020.2.10,Win32,60,60675255c767bca6388caeee,17.12623684,17.11348517,16.64678887,16.64467164,16.65294643,16.65294643,,,,,,,,,,,,,,,,,,,,PF,3,strong,,,,,,,,2,1.548495,,,,,,,,,,,,,,,,,,,,,,,,,,,,5,strong,-55.19998938,-32.80000693,1,0,0,response5disk,1,77,-16.79998881,-8.000006557,1,0,0,rectangle,-16.79998881,-8.000006557,1,0,0,0,6,0.002715,-16.79998881,-8.000006557,1,0,0,0,76,76,131,1,0,,,,,,,,,,,,,,,,,,,,,
,,,,,,,,,,,,,,,,,,,,,,,,,,,,,,,,,,,,,,,,,,601829114a6f8201fbc23287,606a0f86b14a33ab73a48e9e,2021-04-04_21h12.25.841,Colour_Similarity_Experiment,2020.2.10,Win32,60,60675255c767bca6388caeee,17.12623684,17.11348517,16.64678887,16.64467164,16.65294643,16.65294643,,,,,,,,,,,,,,,,,,,,PF,3,strong,,,,,,,,0,1.329945,,,,,,,,,,,,,,,,,,,,,,,,,,,,9,strong,-47.19998926,88.79999489,1,0,0,response7disk,9,78,-9.599988699,5.599993646,1,0,0,rectangle,-9.599988699,5.599993646,1,0,0,0,4,0.000835,-9.599988699,5.599993646,1,0,0,0,77,77,17,1,0,,,,,,,,,,,,,,,,,,,,,
,,,,,,,,,,,,,,,,,,,,,,,,,,,,,,,,,,,,,,,,,,601829114a6f8201fbc23287,606a0f86b14a33ab73a48e9e,2021-04-04_21h12.25.841,Colour_Similarity_Experiment,2020.2.10,Win32,60,60675255c767bca6388caeee,17.12623684,17.11348517,16.64678887,16.64467164,16.65294643,16.65294643,,,,,,,,,,,,,,,,,,,,PF,3,strong,,,,,,,,3,1.581805,,,,,,,,,,,,,,,,,,,,,,,,,,,,6,strong,-35.19998908,-49.60000718,1,0,0,response5disk,4,79,-14.39993994,8.799993694,1,0,0,rectangle,-14.39993994,8.799993694,1,0,0,0,5,0.002595,-14.39993994,8.799993694,1,0,0,0,78,78,56,1,0,,,,,,,,,,,,,,,,,,,,,
,,,,,,,,,,,,,,,,,,,,,,,,,,,,,,,,,,,,,,,,,,601829114a6f8201fbc23287,606a0f86b14a33ab73a48e9e,2021-04-04_21h12.25.841,Colour_Similarity_Experiment,2020.2.10,Win32,60,60675255c767bca6388caeee,17.12623684,17.11348517,16.64678887,16.64467164,16.65294643,16.65294643,,,,,,,,,,,,,,,,,,,,PF,3,weak,,,,,,,,1,1.81514,,,,,,,,,,,,,,,,,,,,,,,,,,,,8,weak,-78.3999409,33.59999406,1,0,0,response7disk,4,80,-3.199988604,14.39999378,1,0,0,rectangle,-3.199988604,14.39999378,1,0,0,0,0,0.002415,-3.199988604,14.39999378,1,0,0,0,79,79,78,1,0,,,,,,,,,,,,,,,,,,,,,
,,,,,,,,,,,,,,,,,,,,,,,,,,,,,,,,,,,,,,,,,,601829114a6f8201fbc23287,606a0f86b14a33ab73a48e9e,2021-04-04_21h12.25.841,Colour_Similarity_Experiment,2020.2.10,Win32,60,60675255c767bca6388caeee,17.12623684,17.11348517,16.64678887,16.64467164,16.65294643,16.65294643,,,,,,,,,,,,,,,,,,,,PF,3,strong,,,,,,,,4,2.181235,,,,,,,,,,,,,,,,,,,,,,,,,,,,7,strong,39.20001203,-52.00000721,1,0,0,response3disk,8,81,-19.99998885,-7.200006545,1,0,0,rectangle,40.00001204,86.39999485,1,0,0,7,7,2.031475,-10.39993988,-12.00000662,1,0,0,0,80,80,97,1,1,response1disk_3,rectangle,,,,,,,,,,,,,,,,,,,
,,,,,,,,,,,,,,,,,,,,,,,,,,,,,,,,,,,,,,,,,,601829114a6f8201fbc23287,606a0f86b14a33ab73a48e9e,2021-04-04_21h12.25.841,Colour_Similarity_Experiment,2020.2.10,Win32,60,60675255c767bca6388caeee,17.12623684,17.11348517,16.64678887,16.64467164,16.65294643,16.65294643,,,,,,,,,,,,,,,,,,,,PF,3,strong,,,,,,,,0,0.932635,,,,,,,,,,,,,,,,,,,,,,,,,,,,2,strong,-46.39994042,101.5999951,1,0,0,response7disk,4,82,7.200011551,-2.400006473,1,0,0,rectangle,7.200011551,-2.400006473,1,0,0,7,6,0.002875,7.200011551,-2.400006473,1,0,0,0,81,81,145,1,0,,,,,,,,,,,,,,,,,,,,,
,,,,,,,,,,,,,,,,,,,,,,,,,,,,,,,,,,,,,,,,,,601829114a6f8201fbc23287,606a0f86b14a33ab73a48e9e,2021-04-04_21h12.25.841,Colour_Similarity_Experiment,2020.2.10,Win32,60,60675255c767bca6388caeee,17.12623684,17.11348517,16.64678887,16.64467164,16.65294643,16.65294643,,,,,,,,,,,,,,,,,,,,PF,3,strong,,,,,,,,6,1.182585,,,,,,,,,,,,,,,,,,,,,,,,,,,,5,strong,74.40001255,32.79999405,1,0,0,response1disk,7,83,26.40001184,13.59999377,1,0,0,rectangle,26.40001184,13.59999377,1,0,0,7,0,0.002465,26.40001184,13.59999377,1,0,0,0,82,82,7,1,0,,,,,,,,,,,,,,,,,,,,,
,,,,,,,,,,,,,,,,,,,,,,,,,,,,,,,,,,,,,,,,,,601829114a6f8201fbc23287,606a0f86b14a33ab73a48e9e,2021-04-04_21h12.25.841,Colour_Similarity_Experiment,2020.2.10,Win32,60,60675255c767bca6388caeee,17.12623684,17.11348517,16.64678887,16.64467164,16.65294643,16.65294643,,,,,,,,,,,,,,,,,,,,PF,3,strong,,,,,,,,6,0.991495,,,,,,,,,,,,,,,,,,,,,,,,,,,,3,strong,76.00001258,46.39999425,1,0,0,response1disk,6,84,30.4000119,1.599993587,1,0,0,rectangle,30.4000119,1.599993587,1,0,0,7,4,0.002465,30.4000119,1.599993587,1,0,0,0,83,83,95,1,0,,,,,,,,,,,,,,,,,,,,,
,,,,,,,,,,,,,,,,,,,,,,,,,,,,,,,,,,,,,,,,,,601829114a6f8201fbc23287,606a0f86b14a33ab73a48e9e,2021-04-04_21h12.25.841,Colour_Similarity_Experiment,2020.2.10,Win32,60,60675255c767bca6388caeee,17.12623684,17.11348517,16.64678887,16.64467164,16.65294643,16.65294643,,,,,,,,,,,,,,,,,,,,PF,3,weak,,,,,,,,0,0.89939,,,,,,,,,,,,,,,,,,,,,,,,,,,,7,weak,-58.3999406,99.99999505,1,0,0,response7disk,3,85,10.4000116,15.19999379,1,0,0,rectangle,10.4000116,15.19999379,1,0,0,7,6,0.002445,10.4000116,15.19999379,1,0,0,0,84,84,81,1,0,,,,,,,,,,,,,,,,,,,,,
,,,,,,,,,,,,,,,,,,,,,,,,,,,,,,,,,,,,,,,,,,601829114a6f8201fbc23287,606a0f86b14a33ab73a48e9e,2021-04-04_21h12.25.841,Colour_Similarity_Experiment,2020.2.10,Win32,60,60675255c767bca6388caeee,17.12623684,17.11348517,16.64678887,16.64467164,16.65294643,16.65294643,,,,,,,,,,,,,,,,,,,,PF,3,weak,,,,,,,,5,1.015295,,,,,,,,,,,,,,,,,,,,,,,,,,,,9,weak,69.60001248,-50.40000719,1,0,0,response3disk,8,86,7.200011551,10.39999372,1,0,0,rectangle,7.200011551,10.39999372,1,0,0,7,4,0.00256,7.200011551,10.39999372,1,0,0,0,85,85,67,1,0,,,,,,,,,,,,,,,,,,,,,
,,,,,,,,,,,,,,,,,,,,,,,,,,,,,,,,,,,,,,,,,,601829114a6f8201fbc23287,606a0f86b14a33ab73a48e9e,2021-04-04_21h12.25.841,Colour_Similarity_Experiment,2020.2.10,Win32,60,60675255c767bca6388caeee,17.12623684,17.11348517,16.64678887,16.64467164,16.65294643,16.65294643,,,,,,,,,,,,,,,,,,,,PF,3,weak,,,,,,,,5,0.849645,,,,,,,,,,,,,,,,,,,,,,,,,,,,3,weak,74.40001255,-41.60000706,1,0,0,response3disk,7,87,12.00001162,15.9999938,1,0,0,rectangle,12.00001162,15.9999938,1,0,0,7,7,0.002635,12.00001162,15.9999938,1,0,0,0,86,86,41,1,0,,,,,,,,,,,,,,,,,,,,,
,,,,,,,,,,,,,,,,,,,,,,,,,,,,,,,,,,,,,,,,,,601829114a6f8201fbc23287,606a0f86b14a33ab73a48e9e,2021-04-04_21h12.25.841,Colour_Similarity_Experiment,2020.2.10,Win32,60,60675255c767bca6388caeee,17.12623684,17.11348517,16.64678887,16.64467164,16.65294643,16.65294643,,,,,,,,,,,,,,,,,,,,PF,3,strong,,,,,,,,5,0.849425,,,,,,,,,,,,,,,,,,,,,,,,,,,,1,strong,76.00001258,-41.60000706,1,0,0,response3disk,8,88,13.60006047,4.799993634,1,0,0,rectangle,13.60006047,4.799993634,1,0,0,7,4,0.00238,13.60006047,4.799993634,1,0,0,0,87,87,27,1,0,,,,,,,,,,,,,,,,,,,,,
,,,,,,,,,,,,,,,,,,,,,,,,,,,,,,,,,,,,,,,,,,601829114a6f8201fbc23287,606a0f86b14a33ab73a48e9e,2021-04-04_21h12.25.841,Colour_Similarity_Experiment,2020.2.10,Win32,60,60675255c767bca6388caeee,17.12623684,17.11348517,16.64678887,16.64467164,16.65294643,16.65294643,,,,,,,,,,,,,,,,,,,,PF,3,weak,,,,,,,,3,1.482125,,,,,,,,,,,,,,,,,,,,,,,,,,,,8,weak,-39.19998914,-73.60000753,1,0,0,response5disk,5,89,-7.999988675,3.999993622,1,0,0,rectangle,-7.999988675,3.999993622,1,0,0,7,0,0.003185,-7.999988675,3.999993622,1,0,0,0,88,88,98,1,0,,,,,,,,,,,,,,,,,,,,,
,,,,,,,,,,,,,,,,,,,,,,,,,,,,,,,,,,,,,,,,,,601829114a6f8201fbc23287,606a0f86b14a33ab73a48e9e,2021-04-04_21h12.25.841,Colour_Similarity_Experiment,2020.2.10,Win32,60,60675255c767bca6388caeee,17.12623684,17.11348517,16.64678887,16.64467164,16.65294643,16.65294643,,,,,,,,,,,,,,,,,,,,PF,3,strong,,,,,,,,3,1.11598,,,,,,,,,,,,,,,,,,,,,,,,,,,,9,strong,-32.79998904,-64.00000739,1,0,0,response5disk,5,90,-14.39993994,2.399993598,1,0,0,rectangle,-14.39993994,2.399993598,1,0,0,7,3,0.00264,-14.39993994,2.399993598,1,0,0,0,89,89,128,1,0,,,,,,,,,,,,,,,,,,,,,
,,,,,,,,,,,,,,,,,,,,,,,,,,,,,,,,,,,,,,,,,,601829114a6f8201fbc23287,606a0f86b14a33ab73a48e9e,2021-04-04_21h12.25.841,Colour_Similarity_Experiment,2020.2.10,Win32,60,60675255c767bca6388caeee,17.12623684,17.11348517,16.64678887,16.64467164,16.65294643,16.65294643,,,,,,,,,,,,,,,,,,,,PF,3,strong,,,,,,,,3,0.98255,,,,,,,,,,,,,,,,,,,,,,,,,,,,9,strong,-27.19998896,-66.40000743,1,0,0,response5disk,1,91,11.20001161,7.999993682,1,0,0,rectangle,11.20001161,7.999993682,1,0,0,7,1,0.002785,11.20001161,7.999993682,1,0,0,0,90,90,111,1,0,,,,,,,,,,,,,,,,,,,,,
,,,,,,,,,,,,,,,,,,,,,,,,,,,,,,,,,,,,,,,,,,601829114a6f8201fbc23287,606a0f86b14a33ab73a48e9e,2021-04-04_21h12.25.841,Colour_Similarity_Experiment,2020.2.10,Win32,60,60675255c767bca6388caeee,17.12623684,17.11348517,16.64678887,16.64467164,16.65294643,16.65294643,,,,,,,,,,,,,,,,,,,,PF,3,weak,,,,,,,,4,0.88246,,,,,,,,,,,,,,,,,,,,,,,,,,,,3,weak,51.20001221,-64.8000074,1,0,0,response3disk,6,92,7.200011551,3.999993622,1,0,0,rectangle,7.200011551,3.999993622,1,0,0,7,4,0.00352,7.200011551,3.999993622,1,0,0,0,91,91,47,1,0,,,,,,,,,,,,,,,,,,,,,
,,,,,,,,,,,,,,,,,,,,,,,,,,,,,,,,,,,,,,,,,,601829114a6f8201fbc23287,606a0f86b14a33ab73a48e9e,2021-04-04_21h12.25.841,Colour_Similarity_Experiment,2020.2.10,Win32,60,60675255c767bca6388caeee,17.12623684,17.11348517,16.64678887,16.64467164,16.65294643,16.65294643,,,,,,,,,,,,,,,,,,,,PF,3,strong,,,,,,,,4,0.832665,,,,,,,,,,,,,,,,,,,,,,,,,,,,7,strong,40.80001205,-53.60000724,1,0,0,response3disk,6,93,1.600060296,13.59999377,1,0,0,rectangle,1.600060296,13.59999377,1,0,0,7,7,0.00274,1.600060296,13.59999377,1,0,0,0,92,92,31,1,0,,,,,,,,,,,,,,,,,,,,,
,,,,,,,,,,,,,,,,,,,,,,,,,,,,,,,,,,,,,,,,,,601829114a6f8201fbc23287,606a0f86b14a33ab73a48e9e,2021-04-04_21h12.25.841,Colour_Similarity_Experiment,2020.2.10,Win32,60,60675255c767bca6388caeee,17.12623684,17.11348517,16.64678887,16.64467164,16.65294643,16.65294643,,,,,,,,,,,,,,,,,,,,PF,3,weak,,,,,,,,4,0.78261,,,,,,,,,,,,,,,,,,,,,,,,,,,,2,weak,38.40001202,-59.20000732,1,0,0,response3disk,9,94,8.800011575,3.19999361,1,0,0,rectangle,8.800011575,3.19999361,1,0,0,7,4,0.003095,8.800011575,3.19999361,1,0,0,0,93,93,39,1,0,,,,,,,,,,,,,,,,,,,,,
,,,,,,,,,,,,,,,,,,,,,,,,,,,,,,,,,,,,,,,,,,601829114a6f8201fbc23287,606a0f86b14a33ab73a48e9e,2021-04-04_21h12.25.841,Colour_Similarity_Experiment,2020.2.10,Win32,60,60675255c767bca6388caeee,17.12623684,17.11348517,16.64678887,16.64467164,16.65294643,16.65294643,,,,,,,,,,,,,,,,,,,,PF,3,strong,,,,,,,,2,1.365315,,,,,,,,,,,,,,,,,,,,,,,,,,,,9,strong,-63.99998951,-36.80000699,1,0,0,response5disk,4,95,-14.39993994,-11.2000066,1,0,0,rectangle,-14.39993994,-11.2000066,1,0,0,7,6,0.002715,-14.39993994,-11.2000066,1,0,0,0,94,94,60,1,0,,,,,,,,,,,,,,,,,,,,,
,,,,,,,,,,,,,,,,,,,,,,,,,,,,,,,,,,,,,,,,,,601829114a6f8201fbc23287,606a0f86b14a33ab73a48e9e,2021-04-04_21h12.25.841,Colour_Similarity_Experiment,2020.2.10,Win32,60,60675255c767bca6388caeee,17.12623684,17.11348517,16.64678887,16.64467164,16.65294643,16.65294643,,,,,,,,,,,,,,,,,,,,PF,3,strong,,,,,,,,5,1.415605,,,,,,,,,,,,,,,,,,,,,,,,,,,,3,strong,86.40001273,-36.00000697,1,0,0,response3disk,8,96,-2.399939764,1.599993587,1,0,0,rectangle,-2.399939764,1.599993587,1,0,0,7,7,0.002365,-2.399939764,1.599993587,1,0,0,0,95,95,44,1,0,,,,,,,,,,,,,,,,,,,,,
,,,,,,,,,,,,,,,,,,,,,,,,,,,,,,,,,,,,,,,,,,601829114a6f8201fbc23287,606a0f86b14a33ab73a48e9e,2021-04-04_21h12.25.841,Colour_Similarity_Experiment,2020.2.10,Win32,60,60675255c767bca6388caeee,17.12623684,17.11348517,16.64678887,16.64467164,16.65294643,16.65294643,,,,,,,,,,,,,,,,,,,,PF,3,strong,,,,,,,,5,1.132395,,,,,,,,,,,,,,,,,,,,,,,,,,,,4,strong,41.60006089,-25.60000682,1,0,0,response3disk,1,97,-13.59998876,3.19999361,1,0,0,rectangle,-13.59998876,3.19999361,1,0,0,7,2,0.00233,-13.59998876,3.19999361,1,0,0,0,96,96,102,1,0,,,,,,,,,,,,,,,,,,,,,
,,,,,,,,,,,,,,,,,,,,,,,,,,,,,,,,,,,,,,,,,,601829114a6f8201fbc23287,606a0f86b14a33ab73a48e9e,2021-04-04_21h12.25.841,Colour_Similarity_Experiment,2020.2.10,Win32,60,60675255c767bca6388caeee,17.12623684,17.11348517,16.64678887,16.64467164,16.65294643,16.65294643,,,,,,,,,,,,,,,,,,,,PF,3,weak,,,,,,,,0,0.949295,,,,,,,,,,,,,,,,,,,,,,,,,,,,1,weak,-45.59998924,78.39999473,1,0,0,response7disk,4,98,16.80001169,-10.40000659,1,0,0,rectangle,16.80001169,-10.40000659,1,0,0,7,5,0.00194,16.80001169,-10.40000659,1,0,0,0,97,97,139,1,0,,,,,,,,,,,,,,,,,,,,,
,,,,,,,,,,,,,,,,,,,,,,,,,,,,,,,,,,,,,,,,,,601829114a6f8201fbc23287,606a0f86b14a33ab73a48e9e,2021-04-04_21h12.25.841,Colour_Similarity_Experiment,2020.2.10,Win32,60,60675255c767bca6388caeee,17.12623684,17.11348517,16.64678887,16.64467164,16.65294643,16.65294643,,,,,,,,,,,,,,,,,,,,PF,3,strong,,,,,,,,4,3.929605,,,,,,,,,,,,,,,,,,,,,,,,,,,,6,strong,28.00001186,-71.2000075,1,0,0,response3disk,7,99,-13.59998876,5.599993646,1,0,0,rectangle,-13.59998876,5.599993646,1,0,0,7,7,0.002365,-13.59998876,5.599993646,1,0,0,0,98,98,18,1,0,,,,,,,,,,,,,,,,,,,,,
,,,,,,,,,,,,,,,,,,,,,,,,,,,,,,,,,,,,,,,,,,601829114a6f8201fbc23287,606a0f86b14a33ab73a48e9e,2021-04-04_21h12.25.841,Colour_Similarity_Experiment,2020.2.10,Win32,60,60675255c767bca6388caeee,17.12623684,17.11348517,16.64678887,16.64467164,16.65294643,16.65294643,,,,,,,,,,,,,,,,,,,,PF,3,strong,,,,,,,,4,4.56265,,,,,,,,,,,,,,,,,,,,,,,,,,,,3,strong,49.60006101,-73.60000753,1,0,0,response3disk,2,100,-8.799988687,15.19999379,1,0,0,rectangle,-8.799988687,15.19999379,1,0,0,7,4,0.002695,-8.799988687,15.19999379,1,0,0,0,99,99,93,1,0,,,,,,,,,,,,,,,,,,,,,
,,,,,,,,,,,,,,,,,,,,,,,,,,,,,,,,,,,,,,,,,,601829114a6f8201fbc23287,606a0f86b14a33ab73a48e9e,2021-04-04_21h12.25.841,Colour_Similarity_Experiment,2020.2.10,Win32,60,60675255c767bca6388caeee,17.12623684,17.11348517,16.64678887,16.64467164,16.65294643,16.65294643,,,,,,,,,,,,,,,,,,,,PF,3,weak,,,,,,,,7,1.84839,,,,,,,,,,,,,,,,,,,,,,,,,,,,7,weak,59.20001233,90.39999491,1,0,0,response1disk,8,101,21.60006059,6.399993658,1,0,0,rectangle,21.60006059,6.399993658,1,0,0,7,3,0.00245,21.60006059,6.399993658,1,0,0,0,100,100,140,1,0,,,,,,,,,,,,,,,,,,,,,
,,,,,,,,,,,,,,,,,,,,,,,,,,,,,,,,,,,,,,,,,,601829114a6f8201fbc23287,606a0f86b14a33ab73a48e9e,2021-04-04_21h12.25.841,Colour_Similarity_Experiment,2020.2.10,Win32,60,60675255c767bca6388caeee,17.12623684,17.11348517,16.64678887,16.64467164,16.65294643,16.65294643,,,,,,,,,,,,,,,,,,,,PF,3,strong,,,,,,,,7,0.86581,,,,,,,,,,,,,,,,,,,,,,,,,,,,3,strong,20.00001174,78.39999473,1,0,0,response1disk,1,102,25.60006065,15.9999938,1,0,0,rectangle,25.60006065,15.9999938,1,0,0,7,2,0.002575,25.60006065,15.9999938,1,0,0,0,101,101,125,1,0,,,,,,,,,,,,,,,,,,,,,
,,,,,,,,,,,,,,,,,,,,,,,,,,,,,,,,,,,,,,,,,,601829114a6f8201fbc23287,606a0f86b14a33ab73a48e9e,2021-04-04_21h12.25.841,Colour_Similarity_Experiment,2020.2.10,Win32,60,60675255c767bca6388caeee,17.12623684,17.11348517,16.64678887,16.64467164,16.65294643,16.65294643,,,,,,,,,,,,,,,,,,,,PF,3,weak,,,,,,,,3,1.681605,,,,,,,,,,,,,,,,,,,,,,,,,,,,8,weak,-39.19998914,-48.00000715,1,0,0,response5disk,9,103,-10.39993988,-0.800006449,1,0,0,rectangle,-10.39993988,-0.800006449,1,0,0,7,0,0.00385,-10.39993988,-0.800006449,1,0,0,0,102,102,42,1,0,,,,,,,,,,,,,,,,,,,,,
,,,,,,,,,,,,,,,,,,,,,,,,,,,,,,,,,,,,,,,,,,601829114a6f8201fbc23287,606a0f86b14a33ab73a48e9e,2021-04-04_21h12.25.841,Colour_Similarity_Experiment,2020.2.10,Win32,60,60675255c767bca6388caeee,17.12623684,17.11348517,16.64678887,16.64467164,16.65294643,16.65294643,,,,,,,,,,,,,,,,,,,,PF,3,strong,,,,,,,,3,1.04941,,,,,,,,,,,,,,,,,,,,,,,,,,,,4,strong,-27.19998896,-60.80000734,1,0,0,response5disk,5,104,8.000011563,-6.4373E-06,1,0,0,rectangle,8.000011563,-6.4373E-06,1,0,0,7,2,0.00286,8.000011563,-6.4373E-06,1,0,0,0,103,103,116,1,0,,,,,,,,,,,,,,,,,,,,,
,,,,,,,,,,,,,,,,,,,,,,,,,,,,,,,,,,,,,,,,,,601829114a6f8201fbc23287,606a0f86b14a33ab73a48e9e,2021-04-04_21h12.25.841,Colour_Similarity_Experiment,2020.2.10,Win32,60,60675255c767bca6388caeee,17.12623684,17.11348517,16.64678887,16.64467164,16.65294643,16.65294643,,,,,,,,,,,,,,,,,,,,PF,3,weak,,,,,,,,1,1.382085,,,,,,,,,,,,,,,,,,,,,,,,,,,,3,weak,-91.99998993,39.99999416,1,0,0,response7disk,2,105,1.14441E-05,8.799993694,1,0,0,rectangle,-43.99998921,-112.0000081,1,0,0,3,3,2.14984,-9.599988699,-4.800006509,1,0,0,0,104,104,36,1,1,response5disk_3,rectangle,,,,,,,,,,,,,,,,,,,
,,,,,,,,,,,,,,,,,,,,,,,,,,,,,,,,,,,,,,,,,,601829114a6f8201fbc23287,606a0f86b14a33ab73a48e9e,2021-04-04_21h12.25.841,Colour_Similarity_Experiment,2020.2.10,Win32,60,60675255c767bca6388caeee,17.12623684,17.11348517,16.64678887,16.64467164,16.65294643,16.65294643,,,,,,,,,,,,,,,,,,,,PF,3,weak,,,,,,,,0,1.032565,,,,,,,,,,,,,,,,,,,,,,,,,,,,2,weak,-61.59998947,95.99999499,1,0,0,response7disk,4,106,-4.799988627,2.399993598,1,0,0,rectangle,-4.799988627,2.399993598,1,0,0,3,4,0.002435,-4.799988627,2.399993598,1,0,0,0,105,105,127,1,0,,,,,,,,,,,,,,,,,,,,,
,,,,,,,,,,,,,,,,,,,,,,,,,,,,,,,,,,,,,,,,,,601829114a6f8201fbc23287,606a0f86b14a33ab73a48e9e,2021-04-04_21h12.25.841,Colour_Similarity_Experiment,2020.2.10,Win32,60,60675255c767bca6388caeee,17.12623684,17.11348517,16.64678887,16.64467164,16.65294643,16.65294643,,,,,,,,,,,,,,,,,,,,PF,3,weak,,,,,,,,1,1.316155,,,,,,,,,,,,,,,,,,,,,,,,,,,,1,weak,-88.79998988,39.19996973,1,0,0,response7disk,7,107,-3.999988616,-6.4373E-06,1,0,0,rectangle,-3.999988616,-6.4373E-06,1,0,0,3,6,0.002435,-3.999988616,-6.4373E-06,1,0,0,0,106,106,150,1,0,,,,,,,,,,,,,,,,,,,,,
,,,,,,,,,,,,,,,,,,,,,,,,,,,,,,,,,,,,,,,,,,601829114a6f8201fbc23287,606a0f86b14a33ab73a48e9e,2021-04-04_21h12.25.841,Colour_Similarity_Experiment,2020.2.10,Win32,60,60675255c767bca6388caeee,17.12623684,17.11348517,16.64678887,16.64467164,16.65294643,16.65294643,,,,,,,,,,,,,,,,,,,,PF,3,strong,,,,,,,,0,0.89946,,,,,,,,,,,,,,,,,,,,,,,,,,,,1,strong,-56.7999894,100.7999951,1,0,0,response7disk,1,108,-19.19998884,14.39999378,1,0,0,rectangle,-19.19998884,14.39999378,1,0,0,3,2,0.002535,-19.19998884,14.39999378,1,0,0,0,107,107,151,1,0,,,,,,,,,,,,,,,,,,,,,
,,,,,,,,,,,,,,,,,,,,,,,,,,,,,,,,,,,,,,,,,,601829114a6f8201fbc23287,606a0f86b14a33ab73a48e9e,2021-04-04_21h12.25.841,Colour_Similarity_Experiment,2020.2.10,Win32,60,60675255c767bca6388caeee,17.12623684,17.11348517,16.64678887,16.64467164,16.65294643,16.65294643,,,,,,,,,,,,,,,,,,,,PF,3,strong,,,,,,,,0,1.199075,,,,,,,,,,,,,,,,,,,,,,,,,,,,8,strong,-36.7999891,87.19997045,1,0,0,response7disk,4,109,6.400011539,13.59999377,1,0,0,rectangle,6.400011539,13.59999377,1,0,0,3,3,0.00263,6.400011539,13.59999377,1,0,0,0,108,108,88,1,0,,,,,,,,,,,,,,,,,,,,,
,,,,,,,,,,,,,,,,,,,,,,,,,,,,,,,,,,,,,,,,,,601829114a6f8201fbc23287,606a0f86b14a33ab73a48e9e,2021-04-04_21h12.25.841,Colour_Similarity_Experiment,2020.2.10,Win32,60,60675255c767bca6388caeee,17.12623684,17.11348517,16.64678887,16.64467164,16.65294643,16.65294643,,,,,,,,,,,,,,,,,,,,PF,3,weak,,,,,,,,5,0.97662,,,,,,,,,,,,,,,,,,,,,,,,,,,,7,weak,62.40001237,-49.60000718,1,0,0,response3disk,5,110,-2.399939764,7.999993682,1,0,0,rectangle,-2.399939764,7.999993682,1,0,0,3,2,0.00236,-2.399939764,7.999993682,1,0,0,0,109,109,92,1,0,,,,,,,,,,,,,,,,,,,,,
,,,,,,,,,,,,,,,,,,,,,,,,,,,,,,,,,,,,,,,,,,601829114a6f8201fbc23287,606a0f86b14a33ab73a48e9e,2021-04-04_21h12.25.841,Colour_Similarity_Experiment,2020.2.10,Win32,60,60675255c767bca6388caeee,17.12623684,17.11348517,16.64678887,16.64467164,16.65294643,16.65294643,,,,,,,,,,,,,,,,,,,,PF,3,weak,,,,,,,,0,1.015795,,,,,,,,,,,,,,,,,,,,,,,,,,,,1,weak,-39.19998914,92.79999495,1,0,0,response7disk,3,111,4.000011504,9.599993706,1,0,0,rectangle,4.000011504,9.599993706,1,0,0,3,0,0.00244,4.000011504,9.599993706,1,0,0,0,110,110,1,1,0,,,,,,,,,,,,,,,,,,,,,
,,,,,,,,,,,,,,,,,,,,,,,,,,,,,,,,,,,,,,,,,,601829114a6f8201fbc23287,606a0f86b14a33ab73a48e9e,2021-04-04_21h12.25.841,Colour_Similarity_Experiment,2020.2.10,Win32,60,60675255c767bca6388caeee,17.12623684,17.11348517,16.64678887,16.64467164,16.65294643,16.65294643,,,,,,,,,,,,,,,,,,,,PF,3,strong,,,,,,,,2,1.26555,,,,,,,,,,,,,,,,,,,,,,,,,,,,7,strong,-55.19998938,-36.80000699,1,0,0,response5disk,7,112,-9.599988699,7.19999367,1,0,0,rectangle,-9.599988699,7.19999367,1,0,0,3,4,0.002795,-9.599988699,7.19999367,1,0,0,0,111,111,34,1,0,,,,,,,,,,,,,,,,,,,,,
,,,,,,,,,,,,,,,,,,,,,,,,,,,,,,,,,,,,,,,,,,601829114a6f8201fbc23287,606a0f86b14a33ab73a48e9e,2021-04-04_21h12.25.841,Colour_Similarity_Experiment,2020.2.10,Win32,60,60675255c767bca6388caeee,17.12623684,17.11348517,16.64678887,16.64467164,16.65294643,16.65294643,,,,,,,,,,,,,,,,,,,,PF,3,strong,,,,,,,,0,0.68292,,,,,,,,,,,,,,,,,,,,,,,,,,,,3,strong,-56.7999894,87.99999487,1,0,0,response7disk,4,113,-10.39993988,-0.800006449,1,0,0,rectangle,-10.39993988,-0.800006449,1,0,0,3,4,0.000405,-10.39993988,-0.800006449,1,0,0,0,112,112,110,1,0,,,,,,,,,,,,,,,,,,,,,
,,,,,,,,,,,,,,,,,,,,,,,,,,,,,,,,,,,,,,,,,,601829114a6f8201fbc23287,606a0f86b14a33ab73a48e9e,2021-04-04_21h12.25.841,Colour_Similarity_Experiment,2020.2.10,Win32,60,60675255c767bca6388caeee,17.12623684,17.11348517,16.64678887,16.64467164,16.65294643,16.65294643,,,,,,,,,,,,,,,,,,,,PF,3,weak,,,,,,,,7,1.16598,,,,,,,,,,,,,,,,,,,,,,,,,,,,9,weak,64.80001241,101.5999951,1,0,0,response1disk,7,114,14.40001166,10.39999372,1,0,0,rectangle,14.40001166,10.39999372,1,0,0,3,3,0.00249,14.40001166,10.39999372,1,0,0,0,113,113,121,1,0,,,,,,,,,,,,,,,,,,,,,
,,,,,,,,,,,,,,,,,,,,,,,,,,,,,,,,,,,,,,,,,,601829114a6f8201fbc23287,606a0f86b14a33ab73a48e9e,2021-04-04_21h12.25.841,Colour_Similarity_Experiment,2020.2.10,Win32,60,60675255c767bca6388caeee,17.12623684,17.11348517,16.64678887,16.64467164,16.65294643,16.65294643,,,,,,,,,,,,,,,,,,,,PF,3,weak,,,,,,,,0,0.882605,,,,,,,,,,,,,,,,,,,,,,,,,,,,9,weak,-44.79998922,92.79999495,1,0,0,response7disk,3,115,15.20001167,9.599993706,1,0,0,rectangle,15.20001167,9.599993706,1,0,0,3,6,0.00238,15.20001167,9.599993706,1,0,0,0,114,114,119,1,0,,,,,,,,,,,,,,,,,,,,,
,,,,,,,,,,,,,,,,,,,,,,,,,,,,,,,,,,,,,,,,,,601829114a6f8201fbc23287,606a0f86b14a33ab73a48e9e,2021-04-04_21h12.25.841,Colour_Similarity_Experiment,2020.2.10,Win32,60,60675255c767bca6388caeee,17.12623684,17.11348517,16.64678887,16.64467164,16.65294643,16.65294643,,,,,,,,,,,,,,,,,,,,PF,3,strong,,,,,,,,7,1.09913,,,,,,,,,,,,,,,,,,,,,,,,,,,,3,strong,45.60006095,105.5999951,1,0,0,response1disk,7,116,2.40001148,-5.600006521,1,0,0,rectangle,2.40001148,-5.600006521,1,0,0,3,5,0.002635,2.40001148,-5.600006521,1,0,0,0,115,115,118,1,0,,,,,,,,,,,,,,,,,,,,,
,,,,,,,,,,,,,,,,,,,,,,,,,,,,,,,,,,,,,,,,,,601829114a6f8201fbc23287,606a0f86b14a33ab73a48e9e,2021-04-04_21h12.25.841,Colour_Similarity_Experiment,2020.2.10,Win32,60,60675255c767bca6388caeee,17.12623684,17.11348517,16.64678887,16.64467164,16.65294643,16.65294643,,,,,,,,,,,,,,,,,,,,PF,3,weak,,,,,,,,5,1.04916,,,,,,,,,,,,,,,,,,,,,,,,,,,,6,weak,49.60006101,-36.80000699,1,0,0,response3disk,2,117,-6.399939823,6.399993658,1,0,0,rectangle,-6.399939823,6.399993658,1,0,0,3,7,0.00277,-6.399939823,6.399993658,1,0,0,0,116,116,130,1,0,,,,,,,,,,,,,,,,,,,,,
,,,,,,,,,,,,,,,,,,,,,,,,,,,,,,,,,,,,,,,,,,601829114a6f8201fbc23287,606a0f86b14a33ab73a48e9e,2021-04-04_21h12.25.841,Colour_Similarity_Experiment,2020.2.10,Win32,60,60675255c767bca6388caeee,17.12623684,17.11348517,16.64678887,16.64467164,16.65294643,16.65294643,,,,,,,,,,,,,,,,,,,,PF,3,strong,,,,,,,,5,1.17054,,,,,,,,,,,,,,,,,,,,,,,,,,,,2,strong,62.40001237,-28.80000687,1,0,0,response3disk,1,118,15.20001167,-6.4373E-06,1,0,0,rectangle,15.20001167,-6.4373E-06,1,0,0,3,3,0.001095,15.20001167,-6.4373E-06,1,0,0,0,117,117,85,1,0,,,,,,,,,,,,,,,,,,,,,
,,,,,,,,,,,,,,,,,,,,,,,,,,,,,,,,,,,,,,,,,,601829114a6f8201fbc23287,606a0f86b14a33ab73a48e9e,2021-04-04_21h12.25.841,Colour_Similarity_Experiment,2020.2.10,Win32,60,60675255c767bca6388caeee,17.12623684,17.11348517,16.64678887,16.64467164,16.65294643,16.65294643,,,,,,,,,,,,,,,,,,,,PF,3,weak,,,,,,,,7,1.379065,,,,,,,,,,,,,,,,,,,,,,,,,,,,9,weak,58.40001231,81.59999478,1,0,0,response1disk,5,119,-1.59998858,4.799993634,1,0,0,rectangle,-1.59998858,4.799993634,1,0,0,3,4,0.001035,-1.59998858,4.799993634,1,0,0,0,118,118,134,1,0,,,,,,,,,,,,,,,,,,,,,
,,,,,,,,,,,,,,,,,,,,,,,,,,,,,,,,,,,,,,,,,,601829114a6f8201fbc23287,606a0f86b14a33ab73a48e9e,2021-04-04_21h12.25.841,Colour_Similarity_Experiment,2020.2.10,Win32,60,60675255c767bca6388caeee,17.12623684,17.11348517,16.64678887,16.64467164,16.65294643,16.65294643,,,,,,,,,,,,,,,,,,,,PF,3,strong,,,,,,,,7,0.99921,,,,,,,,,,,,,,,,,,,,,,,,,,,,2,strong,44.0000121,81.59999478,1,0,0,response1disk,9,120,22.40001178,10.39999372,1,0,0,rectangle,22.40001178,10.39999372,1,0,0,3,4,0.000265,22.40001178,10.39999372,1,0,0,0,119,119,72,1,0,,,,,,,,,,,,,,,,,,,,,
,,,,,,,,,,,,,,,,,,,,,,,,,,,,,,,,,,,,,,,,,,601829114a6f8201fbc23287,606a0f86b14a33ab73a48e9e,2021-04-04_21h12.25.841,Colour_Similarity_Experiment,2020.2.10,Win32,60,60675255c767bca6388caeee,17.12623684,17.11348517,16.64678887,16.64467164,16.65294643,16.65294643,,,,,,,,,,,,,,,,,,,,PF,3,weak,,,,,,,,7,0.766215,,,,,,,,,,,,,,,,,,,,,,,,,,,,2,weak,24.0000118,64.79999453,1,0,0,response1disk,7,121,6.400011539,7.19999367,1,0,0,rectangle,6.400011539,7.19999367,1,0,0,3,4,0.00025,6.400011539,7.19999367,1,0,0,0,120,120,107,1,0,,,,,,,,,,,,,,,,,,,,,
,,,,,,,,,,,,,,,,,,,,,,,,,,,,,,,,,,,,,,,,,,601829114a6f8201fbc23287,606a0f86b14a33ab73a48e9e,2021-04-04_21h12.25.841,Colour_Similarity_Experiment,2020.2.10,Win32,60,60675255c767bca6388caeee,17.12623684,17.11348517,16.64678887,16.64467164,16.65294643,16.65294643,,,,,,,,,,,,,,,,,,,,PF,3,weak,,,,,,,,7,0.88282,,,,,,,,,,,,,,,,,,,,,,,,,,,,4,weak,24.80001181,59.99999446,1,0,0,response1disk,1,122,8.000011563,-1.600006461,1,0,0,rectangle,8.000011563,-1.600006461,1,0,0,3,5,0.003765,8.000011563,-1.600006461,1,0,0,0,121,121,115,1,0,,,,,,,,,,,,,,,,,,,,,
,,,,,,,,,,,,,,,,,,,,,,,,,,,,,,,,,,,,,,,,,,601829114a6f8201fbc23287,606a0f86b14a33ab73a48e9e,2021-04-04_21h12.25.841,Colour_Similarity_Experiment,2020.2.10,Win32,60,60675255c767bca6388caeee,17.12623684,17.11348517,16.64678887,16.64467164,16.65294643,16.65294643,,,,,,,,,,,,,,,,,,,,PF,3,strong,,,,,,,,0,0.960765,,,,,,,,,,,,,,,,,,,,,,,,,,,,9,strong,-59.99998945,99.19997063,1,0,0,response7disk,3,123,-9.599988699,7.19999367,1,0,0,rectangle,-9.599988699,7.19999367,1,0,0,3,4,0.00102,-9.599988699,7.19999367,1,0,0,0,122,122,141,1,0,,,,,,,,,,,,,,,,,,,,,
,,,,,,,,,,,,,,,,,,,,,,,,,,,,,,,,,,,,,,,,,,601829114a6f8201fbc23287,606a0f86b14a33ab73a48e9e,2021-04-04_21h12.25.841,Colour_Similarity_Experiment,2020.2.10,Win32,60,60675255c767bca6388caeee,17.12623684,17.11348517,16.64678887,16.64467164,16.65294643,16.65294643,,,,,,,,,,,,,,,,,,,,PF,3,strong,,,,,,,,7,0.83255,,,,,,,,,,,,,,,,,,,,,,,,,,,,6,strong,25.60006065,83.99999481,1,0,0,response1disk,8,124,1.600060296,0.799993575,1,0,0,rectangle,1.600060296,0.799993575,1,0,0,3,5,0.002375,1.600060296,0.799993575,1,0,0,0,123,123,133,1,0,,,,,,,,,,,,,,,,,,,,,
,,,,,,,,,,,,,,,,,,,,,,,,,,,,,,,,,,,,,,,,,,601829114a6f8201fbc23287,606a0f86b14a33ab73a48e9e,2021-04-04_21h12.25.841,Colour_Similarity_Experiment,2020.2.10,Win32,60,60675255c767bca6388caeee,17.12623684,17.11348517,16.64678887,16.64467164,16.65294643,16.65294643,,,,,,,,,,,,,,,,,,,,PF,3,strong,,,,,,,,7,0.79929,,,,,,,,,,,,,,,,,,,,,,,,,,,,3,strong,34.40001196,75.9999947,1,0,0,response1disk,9,125,9.600060415,4.799993634,1,0,0,rectangle,9.600060415,4.799993634,1,0,0,3,7,0.00251,9.600060415,4.799993634,1,0,0,0,124,124,143,1,0,,,,,,,,,,,,,,,,,,,,,
,,,,,,,,,,,,,,,,,,,,,,,,,,,,,,,,,,,,,,,,,,601829114a6f8201fbc23287,606a0f86b14a33ab73a48e9e,2021-04-04_21h12.25.841,Colour_Similarity_Experiment,2020.2.10,Win32,60,60675255c767bca6388caeee,17.12623684,17.11348517,16.64678887,16.64467164,16.65294643,16.65294643,,,,,,,,,,,,,,,,,,,,PF,3,weak,,,,,,,,7,0.749715,,,,,,,,,,,,,,,,,,,,,,,,,,,,7,weak,33.60006077,81.59999478,1,0,0,response1disk,6,126,12.80001163,15.9999938,1,0,0,rectangle,12.80001163,15.9999938,1,0,0,3,1,0.003285,12.80001163,15.9999938,1,0,0,0,125,125,29,1,0,,,,,,,,,,,,,,,,,,,,,
,,,,,,,,,,,,,,,,,,,,,,,,,,,,,,,,,,,,,,,,,,601829114a6f8201fbc23287,606a0f86b14a33ab73a48e9e,2021-04-04_21h12.25.841,Colour_Similarity_Experiment,2020.2.10,Win32,60,60675255c767bca6388caeee,17.12623684,17.11348517,16.64678887,16.64467164,16.65294643,16.65294643,,,,,,,,,,,,,,,,,,,,PF,3,weak,,,,,,,,2,1.416015,,,,,,,,,,,,,,,,,,,,,,,,,,,,7,weak,-71.99998963,-34.40000695,1,0,0,response5disk,7,127,-3.199988604,-1.600006461,1,0,0,rectangle,-3.199988604,-1.600006461,1,0,0,3,3,0.002475,-3.199988604,-1.600006461,1,0,0,0,126,126,51,1,0,,,,,,,,,,,,,,,,,,,,,
,,,,,,,,,,,,,,,,,,,,,,,,,,,,,,,,,,,,,,,,,,601829114a6f8201fbc23287,606a0f86b14a33ab73a48e9e,2021-04-04_21h12.25.841,Colour_Similarity_Experiment,2020.2.10,Win32,60,60675255c767bca6388caeee,17.12623684,17.11348517,16.64678887,16.64467164,16.65294643,16.65294643,,,,,,,,,,,,,,,,,,,,PF,3,strong,,,,,,,,4,1.815105,,,,,,,,,,,,,,,,,,,,,,,,,,,,8,strong,20.80001175,-80.00000763,1,0,0,response3disk,1,128,-14.39993994,-2.400006473,1,0,0,rectangle,-14.39993994,-2.400006473,1,0,0,3,0,0.002385,-14.39993994,-2.400006473,1,0,0,0,127,127,20,1,0,,,,,,,,,,,,,,,,,,,,,
,,,,,,,,,,,,,,,,,,,,,,,,,,,,,,,,,,,,,,,,,,601829114a6f8201fbc23287,606a0f86b14a33ab73a48e9e,2021-04-04_21h12.25.841,Colour_Similarity_Experiment,2020.2.10,Win32,60,60675255c767bca6388caeee,17.12623684,17.11348517,16.64678887,16.64467164,16.65294643,16.65294643,,,,,,,,,,,,,,,,,,,,PF,3,strong,,,,,,,,7,0.832725,,,,,,,,,,,,,,,,,,,,,,,,,,,,9,strong,44.0000121,71.19997021,1,0,0,response1disk,7,129,16.00001168,-11.2000066,1,0,0,rectangle,16.00001168,-11.2000066,1,0,0,3,0,0.000215,16.00001168,-11.2000066,1,0,0,0,128,128,100,1,0,,,,,,,,,,,,,,,,,,,,,
,,,,,,,,,,,,,,,,,,,,,,,,,,,,,,,,,,,,,,,,,,601829114a6f8201fbc23287,606a0f86b14a33ab73a48e9e,2021-04-04_21h12.25.841,Colour_Similarity_Experiment,2020.2.10,Win32,60,60675255c767bca6388caeee,17.12623684,17.11348517,16.64678887,16.64467164,16.65294643,16.65294643,,,,,,,,,,,,,,,,,,,,PF,3,weak,,,,,,,,7,0.981925,,,,,,,,,,,,,,,,,,,,,,,,,,,,2,weak,42.40001208,67.19997015,1,0,0,response1disk,8,130,20.00001174,4.799993634,1,0,0,rectangle,20.00001174,4.799993634,1,0,0,3,2,0.00252,20.00001174,4.799993634,1,0,0,0,129,129,52,1,0,,,,,,,,,,,,,,,,,,,,,
,,,,,,,,,,,,,,,,,,,,,,,,,,,,,,,,,,,,,,,,,,601829114a6f8201fbc23287,606a0f86b14a33ab73a48e9e,2021-04-04_21h12.25.841,Colour_Similarity_Experiment,2020.2.10,Win32,60,60675255c767bca6388caeee,17.12623684,17.11348517,16.64678887,16.64467164,16.65294643,16.65294643,,,,,,,,,,,,,,,,,,,,PF,3,weak,,,,,,,,6,1.44912,,,,,,,,,,,,,,,,,,,,,,,,,,,,5,weak,100.8000129,32.79999405,1,0,0,response1disk,9,131,4.000011504,-8.800006568,1,0,0,rectangle,-73.59998965,-34.40000695,1,0,0,3,2,2.36458,-14.39993994,3.19999361,1,0,0,0,130,130,136,1,1,response5disk_3,rectangle,,,,,,,,,,,,,,,,,,,
,,,,,,,,,,,,,,,,,,,,,,,,,,,,,,,,,,,,,,,,,,601829114a6f8201fbc23287,606a0f86b14a33ab73a48e9e,2021-04-04_21h12.25.841,Colour_Similarity_Experiment,2020.2.10,Win32,60,60675255c767bca6388caeee,17.12623684,17.11348517,16.64678887,16.64467164,16.65294643,16.65294643,,,,,,,,,,,,,,,,,,,,PF,3,weak,,,,,,,,0,0.966115,,,,,,,,,,,,,,,,,,,,,,,,,,,,5,weak,-47.99998927,95.19997057,1,0,0,response7disk,5,132,-15.99998879,3.999993622,1,0,0,rectangle,-15.99998879,3.999993622,1,0,0,3,6,0.002685,-15.99998879,3.999993622,1,0,0,0,131,131,94,1,0,,,,,,,,,,,,,,,,,,,,,
,,,,,,,,,,,,,,,,,,,,,,,,,,,,,,,,,,,,,,,,,,601829114a6f8201fbc23287,606a0f86b14a33ab73a48e9e,2021-04-04_21h12.25.841,Colour_Similarity_Experiment,2020.2.10,Win32,60,60675255c767bca6388caeee,17.12623684,17.11348517,16.64678887,16.64467164,16.65294643,16.65294643,,,,,,,,,,,,,,,,,,,,PF,3,strong,,,,,,,,5,1.14882,,,,,,,,,,,,,,,,,,,,,,,,,,,,2,strong,58.40001231,-45.60000712,1,0,0,response3disk,6,133,-32.79998904,4.799993634,1,0,0,rectangle,-32.79998904,4.799993634,1,0,0,3,6,0.000185,-32.79998904,4.799993634,1,0,0,0,132,132,40,1,0,,,,,,,,,,,,,,,,,,,,,
,,,,,,,,,,,,,,,,,,,,,,,,,,,,,,,,,,,,,,,,,,601829114a6f8201fbc23287,606a0f86b14a33ab73a48e9e,2021-04-04_21h12.25.841,Colour_Similarity_Experiment,2020.2.10,Win32,60,60675255c767bca6388caeee,17.12623684,17.11348517,16.64678887,16.64467164,16.65294643,16.65294643,,,,,,,,,,,,,,,,,,,,PF,3,strong,,,,,,,,5,1.066495,,,,,,,,,,,,,,,,,,,,,,,,,,,,1,strong,109.6000131,-44.8000071,1,0,0,response3disk,6,134,21.60006059,8.799993694,1,0,0,rectangle,21.60006059,8.799993694,1,0,0,3,3,0.002515,21.60006059,8.799993694,1,0,0,0,133,133,58,1,0,,,,,,,,,,,,,,,,,,,,,
,,,,,,,,,,,,,,,,,,,,,,,,,,,,,,,,,,,,,,,,,,601829114a6f8201fbc23287,606a0f86b14a33ab73a48e9e,2021-04-04_21h12.25.841,Colour_Similarity_Experiment,2020.2.10,Win32,60,60675255c767bca6388caeee,17.12623684,17.11348517,16.64678887,16.64467164,16.65294643,16.65294643,,,,,,,,,,,,,,,,,,,,PF,3,strong,,,,,,,,5,0.716235,,,,,,,,,,,,,,,,,,,,,,,,,,,,2,strong,73.60001254,-32.80000693,1,0,0,response3disk,5,135,22.40001178,-10.40000659,1,0,0,rectangle,22.40001178,-10.40000659,1,0,0,3,2,0.002605,22.40001178,-10.40000659,1,0,0,0,134,134,80,1,0,,,,,,,,,,,,,,,,,,,,,
,,,,,,,,,,,,,,,,,,,,,,,,,,,,,,,,,,,,,,,,,,601829114a6f8201fbc23287,606a0f86b14a33ab73a48e9e,2021-04-04_21h12.25.841,Colour_Similarity_Experiment,2020.2.10,Win32,60,60675255c767bca6388caeee,17.12623684,17.11348517,16.64678887,16.64467164,16.65294643,16.65294643,,,,,,,,,,,,,,,,,,,,PF,3,strong,,,,,,,,5,0.7497,,,,,,,,,,,,,,,,,,,,,,,,,,,,5,strong,62.40001237,-30.40000689,1,0,0,response3disk,8,136,31.20001191,9.599993706,1,0,0,rectangle,31.20001191,9.599993706,1,0,0,3,3,0.00299,31.20001191,9.599993706,1,0,0,0,135,135,16,1,0,,,,,,,,,,,,,,,,,,,,,
,,,,,,,,,,,,,,,,,,,,,,,,,,,,,,,,,,,,,,,,,,601829114a6f8201fbc23287,606a0f86b14a33ab73a48e9e,2021-04-04_21h12.25.841,Colour_Similarity_Experiment,2020.2.10,Win32,60,60675255c767bca6388caeee,17.12623684,17.11348517,16.64678887,16.64467164,16.65294643,16.65294643,,,,,,,,,,,,,,,,,,,,PF,3,weak,,,,,,,,7,0.76625,,,,,,,,,,,,,,,,,,,,,,,,,,,,3,weak,57.6000123,87.19997045,1,0,0,response1disk,8,137,28.00001186,7.999993682,1,0,0,rectangle,28.00001186,7.999993682,1,0,0,3,0,0.002445,28.00001186,7.999993682,1,0,0,0,136,136,3,1,0,,,,,,,,,,,,,,,,,,,,,
,,,,,,,,,,,,,,,,,,,,,,,,,,,,,,,,,,,,,,,,,,601829114a6f8201fbc23287,606a0f86b14a33ab73a48e9e,2021-04-04_21h12.25.841,Colour_Similarity_Experiment,2020.2.10,Win32,60,60675255c767bca6388caeee,17.12623684,17.11348517,16.64678887,16.64467164,16.65294643,16.65294643,,,,,,,,,,,,,,,,,,,,PF,3,weak,,,,,,,,7,1.01598,,,,,,,,,,,,,,,,,,,,,,,,,,,,5,weak,45.60006095,83.99999481,1,0,0,response1disk,4,138,12.80001163,11.19999373,1,0,0,rectangle,12.80001163,11.19999373,1,0,0,3,5,0.002765,12.80001163,11.19999373,1,0,0,0,137,137,54,1,0,,,,,,,,,,,,,,,,,,,,,
,,,,,,,,,,,,,,,,,,,,,,,,,,,,,,,,,,,,,,,,,,601829114a6f8201fbc23287,606a0f86b14a33ab73a48e9e,2021-04-04_21h12.25.841,Colour_Similarity_Experiment,2020.2.10,Win32,60,60675255c767bca6388caeee,17.12623684,17.11348517,16.64678887,16.64467164,16.65294643,16.65294643,,,,,,,,,,,,,,,,,,,,PF,3,strong,,,,,,,,2,2.015255,,,,,,,,,,,,,,,,,,,,,,,,,,,,6,strong,-91.99998993,-32.00000691,1,0,0,response5disk,3,139,4.000011504,-1.600006461,1,0,0,rectangle,4.000011504,-1.600006461,1,0,0,3,5,0.000195,4.000011504,-1.600006461,1,0,0,0,138,138,21,1,0,,,,,,,,,,,,,,,,,,,,,
,,,,,,,,,,,,,,,,,,,,,,,,,,,,,,,,,,,,,,,,,,601829114a6f8201fbc23287,606a0f86b14a33ab73a48e9e,2021-04-04_21h12.25.841,Colour_Similarity_Experiment,2020.2.10,Win32,60,60675255c767bca6388caeee,17.12623684,17.11348517,16.64678887,16.64467164,16.65294643,16.65294643,,,,,,,,,,,,,,,,,,,,PF,3,strong,,,,,,,,6,2.11504,,,,,,,,,,,,,,,,,,,,,,,,,,,,4,strong,75.20001256,35.19996967,1,0,0,response1disk,8,140,17.60006053,7.999993682,1,0,0,rectangle,17.60006053,7.999993682,1,0,0,3,7,0.002935,17.60006053,7.999993682,1,0,0,0,139,139,35,1,0,,,,,,,,,,,,,,,,,,,,,
,,,,,,,,,,,,,,,,,,,,,,,,,,,,,,,,,,,,,,,,,,601829114a6f8201fbc23287,606a0f86b14a33ab73a48e9e,2021-04-04_21h12.25.841,Colour_Similarity_Experiment,2020.2.10,Win32,60,60675255c767bca6388caeee,17.12623684,17.11348517,16.64678887,16.64467164,16.65294643,16.65294643,,,,,,,,,,,,,,,,,,,,PF,3,strong,,,,,,,,6,0.965635,,,,,,,,,,,,,,,,,,,,,,,,,,,,2,strong,67.20001245,45.59999424,1,0,0,response1disk,7,141,29.60006071,8.799993694,1,0,0,rectangle,29.60006071,8.799993694,1,0,0,3,4,0.002685,29.60006071,8.799993694,1,0,0,0,140,140,63,1,0,,,,,,,,,,,,,,,,,,,,,
,,,,,,,,,,,,,,,,,,,,,,,,,,,,,,,,,,,,,,,,,,601829114a6f8201fbc23287,606a0f86b14a33ab73a48e9e,2021-04-04_21h12.25.841,Colour_Similarity_Experiment,2020.2.10,Win32,60,60675255c767bca6388caeee,17.12623684,17.11348517,16.64678887,16.64467164,16.65294643,16.65294643,,,,,,,,,,,,,,,,,,,,PF,3,weak,,,,,,,,6,0.715655,,,,,,,,,,,,,,,,,,,,,,,,,,,,2,weak,65.60001242,23.19996949,1,0,0,response1disk,6,142,23.20001179,4.799993634,1,0,0,rectangle,23.20001179,4.799993634,1,0,0,3,2,0.002625,23.20001179,4.799993634,1,0,0,0,141,141,113,1,0,,,,,,,,,,,,,,,,,,,,,
,,,,,,,,,,,,,,,,,,,,,,,,,,,,,,,,,,,,,,,,,,601829114a6f8201fbc23287,606a0f86b14a33ab73a48e9e,2021-04-04_21h12.25.841,Colour_Similarity_Experiment,2020.2.10,Win32,60,60675255c767bca6388caeee,17.12623684,17.11348517,16.64678887,16.64467164,16.65294643,16.65294643,,,,,,,,,,,,,,,,,,,,PF,3,strong,,,,,,,,6,0.732575,,,,,,,,,,,,,,,,,,,,,,,,,,,,8,strong,59.20001233,26.39999396,1,0,0,response1disk,6,143,27.20001185,0.799993575,1,0,0,rectangle,27.20001185,0.799993575,1,0,0,3,6,0.00271,27.20001185,0.799993575,1,0,0,0,142,142,37,1,0,,,,,,,,,,,,,,,,,,,,,
,,,,,,,,,,,,,,,,,,,,,,,,,,,,,,,,,,,,,,,,,,601829114a6f8201fbc23287,606a0f86b14a33ab73a48e9e,2021-04-04_21h12.25.841,Colour_Similarity_Experiment,2020.2.10,Win32,60,60675255c767bca6388caeee,17.12623684,17.11348517,16.64678887,16.64467164,16.65294643,16.65294643,,,,,,,,,,,,,,,,,,,,PF,3,weak,,,,,,,,1,1.048865,,,,,,,,,,,,,,,,,,,,,,,,,,,,9,weak,-87.19998986,49.5999943,1,0,0,response7disk,4,144,13.60006047,10.39999372,1,0,0,rectangle,13.60006047,10.39999372,1,0,0,3,0,0.002405,13.60006047,10.39999372,1,0,0,0,143,143,114,1,0,,,,,,,,,,,,,,,,,,,,,
,,,,,,,,,,,,,,,,,,,,,,,,,,,,,,,,,,,,,,,,,,601829114a6f8201fbc23287,606a0f86b14a33ab73a48e9e,2021-04-04_21h12.25.841,Colour_Similarity_Experiment,2020.2.10,Win32,60,60675255c767bca6388caeee,17.12623684,17.11348517,16.64678887,16.64467164,16.65294643,16.65294643,,,,,,,,,,,,,,,,,,,,PF,3,strong,,,,,,,,6,1.44878,,,,,,,,,,,,,,,,,,,,,,,,,,,,7,strong,43.20001209,23.19996949,1,0,0,response1disk,1,145,-10.39993988,6.399993658,1,0,0,rectangle,-10.39993988,6.399993658,1,0,0,3,1,0.002935,-10.39993988,6.399993658,1,0,0,0,144,144,132,1,0,,,,,,,,,,,,,,,,,,,,,
,,,,,,,,,,,,,,,,,,,,,,,,,,,,,,,,,,,,,,,,,,601829114a6f8201fbc23287,606a0f86b14a33ab73a48e9e,2021-04-04_21h12.25.841,Colour_Similarity_Experiment,2020.2.10,Win32,60,60675255c767bca6388caeee,17.12623684,17.11348517,16.64678887,16.64467164,16.65294643,16.65294643,,,,,,,,,,,,,,,,,,,,PF,3,strong,,,,,,,,6,0.78265,,,,,,,,,,,,,,,,,,,,,,,,,,,,8,strong,61.60001236,18.39999384,1,0,0,response1disk,8,146,29.60006071,11.99999374,1,0,0,rectangle,29.60006071,11.99999374,1,0,0,3,6,0.002525,29.60006071,11.99999374,1,0,0,0,145,145,48,1,0,,,,,,,,,,,,,,,,,,,,,
,,,,,,,,,,,,,,,,,,,,,,,,,,,,,,,,,,,,,,,,,,601829114a6f8201fbc23287,606a0f86b14a33ab73a48e9e,2021-04-04_21h12.25.841,Colour_Similarity_Experiment,2020.2.10,Win32,60,60675255c767bca6388caeee,17.12623684,17.11348517,16.64678887,16.64467164,16.65294643,16.65294643,,,,,,,,,,,,,,,,,,,,PF,3,weak,,,,,,,,6,0.74966,,,,,,,,,,,,,,,,,,,,,,,,,,,,8,weak,71.20001251,40.79999417,1,0,0,response1disk,8,147,31.20001191,3.999993622,1,0,0,rectangle,31.20001191,3.999993622,1,0,0,3,2,0.0025,31.20001191,3.999993622,1,0,0,0,146,146,153,1,0,,,,,,,,,,,,,,,,,,,,,
,,,,,,,,,,,,,,,,,,,,,,,,,,,,,,,,,,,,,,,,,,601829114a6f8201fbc23287,606a0f86b14a33ab73a48e9e,2021-04-04_21h12.25.841,Colour_Similarity_Experiment,2020.2.10,Win32,60,60675255c767bca6388caeee,17.12623684,17.11348517,16.64678887,16.64467164,16.65294643,16.65294643,,,,,,,,,,,,,,,,,,,,PF,3,strong,,,,,,,,2,1.19891,,,,,,,,,,,,,,,,,,,,,,,,,,,,8,strong,-103.1999901,-25.60000682,1,0,0,response5disk,7,148,20.80001175,14.39999378,1,0,0,rectangle,20.80001175,14.39999378,1,0,0,3,1,0.0024,20.80001175,14.39999378,1,0,0,0,147,147,86,1,0,,,,,,,,,,,,,,,,,,,,,
,,,,,,,,,,,,,,,,,,,,,,,,,,,,,,,,,,,,,,,,,,601829114a6f8201fbc23287,606a0f86b14a33ab73a48e9e,2021-04-04_21h12.25.841,Colour_Similarity_Experiment,2020.2.10,Win32,60,60675255c767bca6388caeee,17.12623684,17.11348517,16.64678887,16.64467164,16.65294643,16.65294643,,,,,,,,,,,,,,,,,,,,PF,3,strong,,,,,,,,6,1.11591,,,,,,,,,,,,,,,,,,,,,,,,,,,,6,strong,76.80001259,35.19996967,1,0,0,response1disk,6,149,-3.999988616,-4.800006509,1,0,0,rectangle,-3.999988616,-4.800006509,1,0,0,3,2,0.002815,-3.999988616,-4.800006509,1,0,0,0,148,148,91,1,0,,,,,,,,,,,,,,,,,,,,,
,,,,,,,,,,,,,,,,,,,,,,,,,,,,,,,,,,,,,,,,,,601829114a6f8201fbc23287,606a0f86b14a33ab73a48e9e,2021-04-04_21h12.25.841,Colour_Similarity_Experiment,2020.2.10,Win32,60,60675255c767bca6388caeee,17.12623684,17.11348517,16.64678887,16.64467164,16.65294643,16.65294643,,,,,,,,,,,,,,,,,,,,PF,3,weak,,,,,,,,3,1.715175,,,,,,,,,,,,,,,,,,,,,,,,,,,,9,weak,-39.99998915,-87.20000774,1,0,0,response5disk,1,150,-7.199988663,11.19999373,1,0,0,rectangle,-7.199988663,11.19999373,1,0,0,3,2,0.00022,-7.199988663,11.19999373,1,0,0,0,149,149,74,1,0,,,,,,,,,,,,,,,,,,,,,
,,,,,,,,,,,,,,,,,,,,,,,,,,,,,,,,,,,,,,,,,,601829114a6f8201fbc23287,606a0f86b14a33ab73a48e9e,2021-04-04_21h12.25.841,Colour_Similarity_Experiment,2020.2.10,Win32,60,60675255c767bca6388caeee,17.12623684,17.11348517,16.64678887,16.64467164,16.65294643,16.65294643,,,,,,,,,,,,,,,,,,,,PF,3,weak,,,,,,,,7,1.065505,,,,,,,,,,,,,,,,,,,,,,,,,,,,1,weak,53.60001224,88.79999489,1,0,0,response1disk,9,151,-3.999988616,6.399993658,1,0,0,rectangle,-3.999988616,6.399993658,1,0,0,3,7,0.002435,-3.999988616,6.399993658,1,0,0,0,150,150,15,1,0,,,,,,,,,,,,,,,,,,,,,
,,,,,,,,,,,,,,,,,,,,,,,,,,,,,,,,,,,,,,,,,,601829114a6f8201fbc23287,606a0f86b14a33ab73a48e9e,2021-04-04_21h12.25.841,Colour_Similarity_Experiment,2020.2.10,Win32,60,60675255c767bca6388caeee,17.12623684,17.11348517,16.64678887,16.64467164,16.65294643,16.65294643,,,,,,,,,,,,,,,,,,,,PF,3,strong,,,,,,,,6,1.13227,,,,,,,,,,,,,,,,,,,,,,,,,,,,4,strong,64.0000124,41.59999418,1,0,0,response1disk,7,152,28.80001187,-4.800006509,1,0,0,rectangle,28.80001187,-4.800006509,1,0,0,3,2,0.00248,28.80001187,-4.800006509,1,0,0,0,151,151,87,1,0,,,,,,,,,,,,,,,,,,,,,
,,,,,,,,,,,,,,,,,,,,,,,,,,,,,,,,,,,,,,,,,,601829114a6f8201fbc23287,606a0f86b14a33ab73a48e9e,2021-04-04_21h12.25.841,Colour_Similarity_Experiment,2020.2.10,Win32,60,60675255c767bca6388caeee,17.12623684,17.11348517,16.64678887,16.64467164,16.65294643,16.65294643,,,,,,,,,,,,,,,,,,,,PF,3,strong,,,,,,,,6,0.8824,,,,,,,,,,,,,,,,,,,,,,,,,,,,2,strong,49.60006101,43.99999422,1,0,0,response1disk,8,153,29.60006071,7.999993682,1,0,0,rectangle,29.60006071,7.999993682,1,0,0,3,6,0.00241,29.60006071,7.999993682,1,0,0,0,152,152,62,1,0,,,,,,,,,,,,,,,,,,,,,
,,,,,,,,,,,,,,,,,,,,,,,,,,,,,,,,,,,,,,,,,,601829114a6f8201fbc23287,606a0f86b14a33ab73a48e9e,2021-04-04_21h12.25.841,Colour_Similarity_Experiment,2020.2.10,Win32,60,60675255c767bca6388caeee,17.12623684,17.11348517,16.64678887,16.64467164,16.65294643,16.65294643,,,,,,,,,,,,,,,,,,,,PF,3,strong,,,,,,,,2,1.332115,,,,,,,,,,,,,,,,,,,,,,,,,,,,5,strong,-51.99998933,-17.6000067,1,0,0,response5disk,4,154,-9.599988699,-6.400006533,1,0,0,rectangle,-9.599988699,-6.400006533,1,0,0,3,5,0.00248,-9.599988699,-6.400006533,1,0,0,0,153,153,8,1,0,,,,,,,,,,,,,,,,,,,,,
,,,,,,,,,,,,,,,,,,,,,,,,,,,,,,,,,,,,,,,,,,601829114a6f8201fbc23287,606a0f86b14a33ab73a48e9e,2021-04-04_21h12.25.841,Colour_Similarity_Experiment,2020.2.10,Win32,60,60675255c767bca6388caeee,17.12623684,17.11348517,16.64678887,16.64467164,16.65294643,16.65294643,,,,,,,,,,,,,,,,,,,,PF,3,weak,,,,,,,,3,1.31567,,,,,,,,,,,,,,,,,,,,,,,,,,,,5,weak,-29.599989,-66.40000743,1,0,0,response5disk,7,155,-15.99998879,2.399993598,1,0,0,rectangle,-15.99998879,2.399993598,1,0,0,3,5,0.00287,-15.99998879,2.399993598,1,0,0,0,154,154,146,1,0,,,,,,,,,,,,,,,,,,,,,
,,,,,,,,,,,,,,,,,,,,,,,,,,,,,,,,,,,,,,,,,,601829114a6f8201fbc23287,606a0f86b14a33ab73a48e9e,2021-04-04_21h12.25.841,Colour_Similarity_Experiment,2020.2.10,Win32,60,60675255c767bca6388caeee,17.12623684,17.11348517,16.64678887,16.64467164,16.65294643,16.65294643,,,,,,,,,,,,,,,,,,,,PF,3,strong,,,,,,,,7,1.73196,,,,,,,,,,,,,,,,,,,,,,,,,,,,8,strong,32.00001192,64.79999453,1,0,0,response1disk,2,156,-4.799988627,-4.800006509,1,0,0,rectangle,-4.799988627,-4.800006509,1,0,0,3,1,0.00243,-4.799988627,-4.800006509,1,0,0,0,155,155,22,1,0,,,,,,,,,,,,,,,,,,,,,
,,,,,,,,,,,,,,,,,,,,,,,,,,,,,,,,,,,,,,,,,,601829114a6f8201fbc23287,606a0f86b14a33ab73a48e9e,2021-04-04_21h12.25.841,Colour_Similarity_Experiment,2020.2.10,Win32,60,60675255c767bca6388caeee,17.12623684,17.11348517,16.64678887,16.64467164,16.65294643,16.65294643,,,,,,,,,,,,,,,,,,,,PF,3,weak,,,,,,,,7,0.78287,,,,,,,,,,,,,,,,,,,,,,,,,,,,6,weak,40.00001204,92.79999495,1,0,0,response1disk,9,157,18.40001172,11.99999374,1,0,0,rectangle,18.40001172,11.99999374,1,0,0,3,4,0.00249,18.40001172,11.99999374,1,0,0,0,156,156,45,1,0,,,,,,,,,,,,,,,,,,,,,
,,,,,,,,,,,,,,,,,,,,,,,,,,,,,,,,,,,,,,,,,,601829114a6f8201fbc23287,606a0f86b14a33ab73a48e9e,2021-04-04_21h12.25.841,Colour_Similarity_Experiment,2020.2.10,Win32,60,60675255c767bca6388caeee,17.12623684,17.11348517,16.64678887,16.64467164,16.65294643,16.65294643,,,,,,,,,,,,,,,,,,,,PF,3,weak,,,,,,,,2,1.265605,,,,,,,,,,,,,,,,,,,,,,,,,,,,1,weak,-54.39994054,-19.20000672,1,0,0,response5disk,1,158,-8.799988687,-0.800006449,1,0,0,rectangle,40.00001204,85.59999484,1,0,0,7,7,1.71508,10.4000116,7.19999367,1,0,0,0,157,157,76,1,1,response1disk_3,rectangle,,,,,,,,,,,,,,,,,,,
,,,,,,,,,,,,,,,,,,,,,,,,,,,,,,,,,,,,,,,,,,601829114a6f8201fbc23287,606a0f86b14a33ab73a48e9e,2021-04-04_21h12.25.841,Colour_Similarity_Experiment,2020.2.10,Win32,60,60675255c767bca6388caeee,17.12623684,17.11348517,16.64678887,16.64467164,16.65294643,16.65294643,,,,,,,,,,,,,,,,,,,,PF,3,strong,,,,,,,,1,1.199275,,,,,,,,,,,,,,,,,,,,,,,,,,,,8,strong,-71.19998962,31.99999404,1,0,0,response7disk,3,159,-4.799988627,16.79999381,1,0,0,rectangle,-4.799988627,16.79999381,1,0,0,7,3,0.002545,-4.799988627,16.79999381,1,0,0,0,158,158,154,1,0,,,,,,,,,,,,,,,,,,,,,
,,,,,,,,,,,,,,,,,,,,,,,,,,,,,,,,,,,,,,,,,,601829114a6f8201fbc23287,606a0f86b14a33ab73a48e9e,2021-04-04_21h12.25.841,Colour_Similarity_Experiment,2020.2.10,Win32,60,60675255c767bca6388caeee,17.12623684,17.11348517,16.64678887,16.64467164,16.65294643,16.65294643,,,,,,,,,,,,,,,,,,,,PF,3,strong,,,,,,,,7,1.065875,,,,,,,,,,,,,,,,,,,,,,,,,,,,7,strong,40.80001205,95.19997057,1,0,0,response1disk,5,160,3.200011492,-3.200006485,1,0,0,rectangle,3.200011492,-3.200006485,1,0,0,7,4,0.002585,3.200011492,-3.200006485,1,0,0,0,159,159,156,1,0,,,,,,,,,,,,,,,,,,,,,
,,,,,,,,,,,,,,,,,,,,,,,,,,,,,,,,,,,,,,,,,,601829114a6f8201fbc23287,606a0f86b14a33ab73a48e9e,2021-04-04_21h12.25.841,Colour_Similarity_Experiment,2020.2.10,Win32,60,60675255c767bca6388caeee,17.12623684,17.11348517,16.64678887,16.64467164,16.65294643,16.65294643,,,,,,,,,,,,,,,,,,,,PF,3,weak,,,,,,,,1,1.381645,,,,,,,,,,,,,,,,,,,,,,,,,,,,2,weak,-111.1999902,39.99999416,1,0,0,response7disk,5,161,-12.79998875,3.19999361,1,0,0,rectangle,-12.79998875,3.19999361,1,0,0,7,0,0.002875,-12.79998875,3.19999361,1,0,0,0,160,160,147,1,0,,,,,,,,,,,,,,,,,,,,,
,,,,,,,,,,,,,,,,,,,,,,,,,,,,,,,,,,,,,,,,,,601829114a6f8201fbc23287,606a0f86b14a33ab73a48e9e,2021-04-04_21h12.25.841,Colour_Similarity_Experiment,2020.2.10,Win32,60,60675255c767bca6388caeee,17.12623684,17.11348517,16.64678887,16.64467164,16.65294643,16.65294643,,,,,,,,,,,,,,,,,,,,PF,3,weak,,,,,,,,7,1.015805,,,,,,,,,,,,,,,,,,,,,,,,,,,,6,weak,20.00001174,91.99999493,1,0,0,response1disk,6,162,-11.99998873,0.799993575,1,0,0,rectangle,-11.99998873,0.799993575,1,0,0,7,1,0.0025,-11.99998873,0.799993575,1,0,0,0,161,161,0,1,0,,,,,,,,,,,,,,,,,,,,,
,,,,,,,,,,,,,,,,,,,,,,,,,,,,,,,,,,,,,,,,,,601829114a6f8201fbc23287,606a0f86b14a33ab73a48e9e,2021-04-04_21h12.25.841,Colour_Similarity_Experiment,2020.2.10,Win32,60,60675255c767bca6388caeee,17.12623684,17.11348517,16.64678887,16.64467164,16.65294643,16.65294643,,,,,,,,,,,,,,,,,,,,,,,,,,,,,,,,,,,,,,,,,,,,,,,,,,,,,,,,,,,,,,,,,,,,,,,,,,,,,,,,,,,,,,,,,,,,,,,,0,0,0,0,1,,,,,,,,,,,,,,
,,,,,,,,,,,,,,,,,,,,,,,,,,,,,,,,,,,,,,,,,,601829114a6f8201fbc23287,606a0f86b14a33ab73a48e9e,2021-04-04_21h12.25.841,Colour_Similarity_Experiment,2020.2.10,Win32,60,60675255c767bca6388caeee,17.12623684,17.11348517,16.64678887,16.64467164,16.65294643,16.65294643,,,,,,,,,,,,,,,,,,,,PF,3,weak,,,,,,,,7,0.882265,,,,,,,,,,,,,,,,,,,,,,,,,,,,4,weak,58.40001231,83.99999481,1,0,0,response1disk,8,163,-0.799988568,11.19999373,1,0,0,rectangle,-0.799988568,11.19999373,1,0,0,7,2,0.002725,-0.799988568,11.19999373,1,0,0,0,0,0,124,1,0,,,,,,,,,,,,,,,,,,,,,
,,,,,,,,,,,,,,,,,,,,,,,,,,,,,,,,,,,,,,,,,,601829114a6f8201fbc23287,606a0f86b14a33ab73a48e9e,2021-04-04_21h12.25.841,Colour_Similarity_Experiment,2020.2.10,Win32,60,60675255c767bca6388caeee,17.12623684,17.11348517,16.64678887,16.64467164,16.65294643,16.65294643,,,,,,,,,,,,,,,,,,,,PF,3,strong,,,,,,,,2,1.56077,,,,,,,,,,,,,,,,,,,,,,,,,,,,1,strong,-87.99998987,-28.80000687,1,0,0,response5disk,3,164,1.14441E-05,-0.800006449,1,0,0,rectangle,1.14441E-05,-0.800006449,1,0,0,7,4,0.002315,1.14441E-05,-0.800006449,1,0,0,0,1,1,99,1,0,,,,,,,,,,,,,,,,,,,,,
,,,,,,,,,,,,,,,,,,,,,,,,,,,,,,,,,,,,,,,,,,601829114a6f8201fbc23287,606a0f86b14a33ab73a48e9e,2021-04-04_21h12.25.841,Colour_Similarity_Experiment,2020.2.10,Win32,60,60675255c767bca6388caeee,17.12623684,17.11348517,16.64678887,16.64467164,16.65294643,16.65294643,,,,,,,,,,,,,,,,,,,,PF,3,strong,,,,,,,,3,1.582055,,,,,,,,,,,,,,,,,,,,,,,,,,,,2,strong,-27.19998896,-86.40000772,1,0,0,response5disk,2,165,-10.39993988,-5.600006521,1,0,0,rectangle,-10.39993988,-5.600006521,1,0,0,7,0,0.00245,-10.39993988,-5.600006521,1,0,0,0,2,2,142,1,0,,,,,,,,,,,,,,,,,,,,,
,,,,,,,,,,,,,,,,,,,,,,,,,,,,,,,,,,,,,,,,,,601829114a6f8201fbc23287,606a0f86b14a33ab73a48e9e,2021-04-04_21h12.25.841,Colour_Similarity_Experiment,2020.2.10,Win32,60,60675255c767bca6388caeee,17.12623684,17.11348517,16.64678887,16.64467164,16.65294643,16.65294643,,,,,,,,,,,,,,,,,,,,PF,3,strong,,,,,,,,1,0.98217,,,,,,,,,,,,,,,,,,,,,,,,,,,,7,strong,-100.7999901,51.99999434,1,0,0,response7disk,3,166,-18.39994,6.399993658,1,0,0,rectangle,-18.39994,6.399993658,1,0,0,7,5,0.002385,-18.39994,6.399993658,1,0,0,0,3,3,73,1,0,,,,,,,,,,,,,,,,,,,,,
