key_resp.keys,key_resp.rt,key_resp_16.keys,key_resp_16.rt,key_resp_2.keys,key_resp_2.rt,X Scale,ratio_pxpermm,screen_size_x,screen_size_y,testsize,key_resp_3.keys,key_resp_4.keys,key_resp_4.rt,line_size,key_resp_5.keys,key_resp_5.rt,key_resp_6.keys,key_resp_6.rt,key_resp_8.keys,key_resp_8.rt,key_resp_7.keys,key_resp_7.rt,key_resp_12.keys,key_resp_12.rt,key_resp_11.keys,key_resp_11.rt,key_resp_18.keys,key_resp_18.rt,key_resp_21.keys,key_resp_21.rt,key_resp_13.keys,key_resp_13.rt,key_resp_19.keys,key_resp_19.rt,ballposx,viewer_distance,trials.thisRepN,trials.thisTrialN,trials.thisN,trials.thisIndex,trials.ran,participant,session,date,expName,psychopyVersion,OS,frameRate,study_id,realFrameRate1,realFrameRate2,realFrameRate3,realFrameRate4,realFrameRate5,realFrameRate,viewerdistancecm,DVA_to_distance,radius_F,radius_P,r_F,R_P,key_resp_20.keys,key_resp_20.rt,key_resp_14.keys,key_resp_14.rt,key_resp_15.keys,key_resp_15.rt,key_resp_17.keys,key_resp_17.rt,key_resp_9.keys,key_resp_9.rt,key_resp_10.keys,key_resp_10.rt,Colour_1,Ecc,mask_frames,maskCon,mouse_5.x,mouse_5.y,mouse_5.leftButton,mouse_5.midButton,mouse_5.rightButton,mouse_5.clicked_name,Colour_2,similarity,response_time,mouse_10.x,mouse_10.y,mouse_10.leftButton,mouse_10.midButton,mouse_10.rightButton,mouse_10.clicked_name,mouse_7.x,mouse_7.y,mouse_7.leftButton,mouse_7.midButton,mouse_7.rightButton,mouse_7.clicked_name,catchprac,catchnumberprac,mouse_6.x,mouse_6.y,mouse_6.leftButton,mouse_6.midButton,mouse_6.rightButton,mouse_6.clicked_name,duringprac.thisRepN,duringprac.thisTrialN,duringprac.thisN,duringprac.thisIndex,duringprac.ran,key_resp_22.keys,key_resp_22.rt,Colour1,maskCon1,mouse.x,mouse.y,mouse.leftButton,mouse.midButton,mouse.rightButton,mouse.clicked_name,Colour2,trialnumber,mouse_2.x,mouse_2.y,mouse_2.leftButton,mouse_2.midButton,mouse_2.rightButton,mouse_2.clicked_name,mouse_3.x,mouse_3.y,mouse_3.leftButton,mouse_3.midButton,mouse_3.rightButton,catchresponse,catchnumber,response_time_catch,mouse_11.x,mouse_11.y,mouse_11.leftButton,mouse_11.midButton,mouse_11.rightButton,trials_2.thisRepN,trials_2.thisTrialN,trials_2.thisN,trials_2.thisIndex,trials_2.ran,Catch,mouse_3.clicked_name,mouse_11.clicked_name,trials_3.thisRepN,trials_3.thisTrialN,trials_3.thisN,trials_3.thisIndex,trials_3.ran,answer1,rt1,answer2,rt2,answer3,rt3,answer4,rt4,answer5,rt5,answer6,rt6,answer7,rt7
space,5.400815,space,80.64897,space,10.305815,39.9,3.99,342.3558897,192.481203,1366,,space,31.259215,79.8,space,20.332615,space,8.38792,space,2.0457,space,8.73743,space,9.5696,space,17.45578,space,18.024715,space,23.97093,space,23.974965,return,4.414945,-34.833,606.7695689,0,0,0,0,1,602b7ef25103a629e2004d70,606a0f057f6602c70cdb596d,2021-04-04_21h10.33.685,Colour_Similarity_Experiment,2020.2.10,Win32,60,60675255c767bca6388caeee,17.24610209,16.6795092,16.67305405,16.69029568,16.67004471,16.6795092,,,,,,,,,,,,,,,,,,,,,,,,,,,,,,,,,,,,,,,,,,,,,,,,,,,,,,,,,,,,,,,,,,,,,,,,,,,,,,,,,,,,,,,,,,,,,,,,,,,,,,,,,,,,,,,,,,
,,,,,,,,,,,,,,,,,,,,,,,,,,,,,,,,,return,4.40909,-30.735,602.4915226,1,0,1,0,1,602b7ef25103a629e2004d70,606a0f057f6602c70cdb596d,2021-04-04_21h10.33.685,Colour_Similarity_Experiment,2020.2.10,Win32,60,60675255c767bca6388caeee,17.24610209,16.6795092,16.67305405,16.69029568,16.67004471,16.6795092,,,,,,,,,,,,,,,,,,,,,,,,,,,,,,,,,,,,,,,,,,,,,,,,,,,,,,,,,,,,,,,,,,,,,,,,,,,,,,,,,,,,,,,,,,,,,,,,,,,,,,,,,,,,,,,,,,
,,,,,,,,,,,,,,,,,,,,,,,,,,,,,,,,,return,4.35438,-24.588,596.0744531,2,0,2,0,1,602b7ef25103a629e2004d70,606a0f057f6602c70cdb596d,2021-04-04_21h10.33.685,Colour_Similarity_Experiment,2020.2.10,Win32,60,60675255c767bca6388caeee,17.24610209,16.6795092,16.67305405,16.69029568,16.67004471,16.6795092,,,,,,,,,,,,,,,,,,,,,,,,,,,,,,,,,,,,,,,,,,,,,,,,,,,,,,,,,,,,,,,,,,,,,,,,,,,,,,,,,,,,,,,,,,,,,,,,,,,,,,,,,,,,,,,,,,
,,,,,,,,,,,,,,,,,,,,,,,,,,,,,,,,,return,4.11885,4.098,566.1281289,3,0,3,0,1,602b7ef25103a629e2004d70,606a0f057f6602c70cdb596d,2021-04-04_21h10.33.685,Colour_Similarity_Experiment,2020.2.10,Win32,60,60675255c767bca6388caeee,17.24610209,16.6795092,16.67305405,16.69029568,16.67004471,16.6795092,,,,,,,,,,,,,,,,,,,,,,,,,,,,,,,,,,,,,,,,,,,,,,,,,,,,,,,,,,,,,,,,,,,,,,,,,,,,,,,,,,,,,,,,,,,,,,,,,,,,,,,,,,,,,,,,,,
,,,,,,,,,,,,,,,,,,,,,,,,,,,,,,,,,return,3.96972,22.539,546.8769205,4,0,4,0,1,602b7ef25103a629e2004d70,606a0f057f6602c70cdb596d,2021-04-04_21h10.33.685,Colour_Similarity_Experiment,2020.2.10,Win32,60,60675255c767bca6388caeee,17.24610209,16.6795092,16.67305405,16.69029568,16.67004471,16.6795092,,,,,,,,,,,,,,,,,,,,,,,,,,,,,,,,,,,,,,,,,,,,,,,,,,,,,,,,,,,,,,,,,,,,,,,,,,,,,,,,,,,,,,,,,,,,,,,,,,,,,,,,,,,,,,,,,,
,,,,,,,,,,,,,,,,,,,,,,,,,,,,,,,,,,,,,,,,,,602b7ef25103a629e2004d70,606a0f057f6602c70cdb596d,2021-04-04_21h10.33.685,Colour_Similarity_Experiment,2020.2.10,Win32,60,60675255c767bca6388caeee,17.24610209,16.6795092,16.67305405,16.69029568,16.67004471,16.6795092,60,10.47303521,62.68111574,417.8741049,41.78741049,188.0433472,space,5.35636,space,25.452795,space,59.44704,space,16.38061,space,2.890085,space,11.49232,1,PF,3,weak,87,-40,1,0,0,response3disk_5,9,5,28.437035,7,1,1,0,0,rectangle_8,54,-91,1,0,0,response3disk_7,4,4,-6,5,1,0,0,rectangle_4,0,0,0,6,1,,,,,,,,,,,,,,,,,,,,,,,,,,,,,,,,,,,,,,,,,,,,,,,,,,,,,,,,,,
,,,,,,,,,,,,,,,,,,,,,,,,,,,,,,,,,,,,,,,,,,602b7ef25103a629e2004d70,606a0f057f6602c70cdb596d,2021-04-04_21h10.33.685,Colour_Similarity_Experiment,2020.2.10,Win32,60,60675255c767bca6388caeee,17.24610209,16.6795092,16.67305405,16.69029568,16.67004471,16.6795092,,,,,,,,,,,,,,,,,,,7,PF,3,strong,37,83,1,0,0,response1disk_5,2,7,12.7242,-3,0,1,0,0,rectangle_8,-3,0,1,0,0,,,4,-3,0,1,0,0,,0,1,1,3,1,,,,,,,,,,,,,,,,,,,,,,,,,,,,,,,,,,,,,,,,,,,,,,,,,,,,,,,,,,
,,,,,,,,,,,,,,,,,,,,,,,,,,,,,,,,,,,,,,,,,,602b7ef25103a629e2004d70,606a0f057f6602c70cdb596d,2021-04-04_21h10.33.685,Colour_Similarity_Experiment,2020.2.10,Win32,60,60675255c767bca6388caeee,17.24610209,16.6795092,16.67305405,16.69029568,16.67004471,16.6795092,,,,,,,,,,,,,,,,,,,2,PF,3,weak,64,75,1,0,0,response1disk_5,5,7,7.705225,7,-1,1,0,0,rectangle_8,7,-1,1,0,0,,,4,7,-1,1,0,0,,0,2,2,5,1,,,,,,,,,,,,,,,,,,,,,,,,,,,,,,,,,,,,,,,,,,,,,,,,,,,,,,,,,,
,,,,,,,,,,,,,,,,,,,,,,,,,,,,,,,,,,,,,,,,,,602b7ef25103a629e2004d70,606a0f057f6602c70cdb596d,2021-04-04_21h10.33.685,Colour_Similarity_Experiment,2020.2.10,Win32,60,60675255c767bca6388caeee,17.24610209,16.6795092,16.67305405,16.69029568,16.67004471,16.6795092,,,,,,,,,,,,,,,,,,,2,PF,3,weak,90,-23,1,0,0,response3disk_5,4,5,4.903155,10,0,1,0,0,rectangle_8,10,0,1,0,0,,,4,10,0,1,0,0,,0,3,3,4,1,,,,,,,,,,,,,,,,,,,,,,,,,,,,,,,,,,,,,,,,,,,,,,,,,,,,,,,,,,
,,,,,,,,,,,,,,,,,,,,,,,,,,,,,,,,,,,,,,,,,,602b7ef25103a629e2004d70,606a0f057f6602c70cdb596d,2021-04-04_21h10.33.685,Colour_Similarity_Experiment,2020.2.10,Win32,60,60675255c767bca6388caeee,17.24610209,16.6795092,16.67305405,16.69029568,16.67004471,16.6795092,,,,,,,,,,,,,,,,,,,2,PF,3,strong,79,50,1,0,0,response1disk_5,9,6,2.769245,0,-1,1,0,0,rectangle_8,51,-75,1,0,0,response3disk_7,4,4,7,2,1,0,0,rectangle_4,0,4,4,2,1,,,,,,,,,,,,,,,,,,,,,,,,,,,,,,,,,,,,,,,,,,,,,,,,,,,,,,,,,,
,,,,,,,,,,,,,,,,,,,,,,,,,,,,,,,,,,,,,,,,,,602b7ef25103a629e2004d70,606a0f057f6602c70cdb596d,2021-04-04_21h10.33.685,Colour_Similarity_Experiment,2020.2.10,Win32,60,60675255c767bca6388caeee,17.24610209,16.6795092,16.67305405,16.69029568,16.67004471,16.6795092,,,,,,,,,,,,,,,,,,,3,PF,3,weak,65,36,1,0,0,response1disk_5,3,6,3.2655,10,3,1,0,0,rectangle_8,10,3,1,0,0,,,4,10,3,1,0,0,,0,5,5,1,1,,,,,,,,,,,,,,,,,,,,,,,,,,,,,,,,,,,,,,,,,,,,,,,,,,,,,,,,,,
,,,,,,,,,,,,,,,,,,,,,,,,,,,,,,,,,,,,,,,,,,602b7ef25103a629e2004d70,606a0f057f6602c70cdb596d,2021-04-04_21h10.33.685,Colour_Similarity_Experiment,2020.2.10,Win32,60,60675255c767bca6388caeee,17.24610209,16.6795092,16.67305405,16.69029568,16.67004471,16.6795092,,,,,,,,,,,,,,,,,,,4,PF,3,strong,36,-92,1,0,0,response3disk_5,1,4,4.23216,7,6,1,0,0,rectangle_8,7,6,1,0,0,,,4,7,6,1,0,0,,0,6,6,0,1,,,,,,,,,,,,,,,,,,,,,,,,,,,,,,,,,,,,,,,,,,,,,,,,,,,,,,,,,,
,,,,,,,,,,,,,,,,,,,,,,,,,,,,,,,,,,,,,,,,,,602b7ef25103a629e2004d70,606a0f057f6602c70cdb596d,2021-04-04_21h10.33.685,Colour_Similarity_Experiment,2020.2.10,Win32,60,60675255c767bca6388caeee,17.24610209,16.6795092,16.67305405,16.69029568,16.67004471,16.6795092,,,,,,,,,,,,,,,,,,,,PF,3,weak,,,,,,,,6,5.472825,,,,,,,,,,,,,,,,,,,,,,,,,,space,4.30126,6,weak,113,58,1,0,0,response1disk,9,1,-1,2,1,0,0,rectangle,-1,2,1,0,0,,0,0.005305,-1,2,1,0,0,0,0,0,45,1,0,,,,,,,,,,,,,,,,,,,,,
,,,,,,,,,,,,,,,,,,,,,,,,,,,,,,,,,,,,,,,,,,602b7ef25103a629e2004d70,606a0f057f6602c70cdb596d,2021-04-04_21h10.33.685,Colour_Similarity_Experiment,2020.2.10,Win32,60,60675255c767bca6388caeee,17.24610209,16.6795092,16.67305405,16.69029568,16.67004471,16.6795092,,,,,,,,,,,,,,,,,,,,PF,3,weak,,,,,,,,6,2.151835,,,,,,,,,,,,,,,,,,,,,,,,,,,,5,weak,74,20,1,0,0,response1disk,4,2,-5,-8,1,0,0,rectangle,-5,-8,1,0,0,,7,0.00338,-5,-8,1,0,0,0,1,1,54,1,0,,,,,,,,,,,,,,,,,,,,,
,,,,,,,,,,,,,,,,,,,,,,,,,,,,,,,,,,,,,,,,,,602b7ef25103a629e2004d70,606a0f057f6602c70cdb596d,2021-04-04_21h10.33.685,Colour_Similarity_Experiment,2020.2.10,Win32,60,60675255c767bca6388caeee,17.24610209,16.6795092,16.67305405,16.69029568,16.67004471,16.6795092,,,,,,,,,,,,,,,,,,,,PF,3,strong,,,,,,,,3,2.029775,,,,,,,,,,,,,,,,,,,,,,,,,,,,6,strong,-49,-69,1,0,0,response5disk,3,3,1,-2,1,0,0,rectangle,1,-2,1,0,0,,7,0.00089,1,-2,1,0,0,0,2,2,21,1,0,,,,,,,,,,,,,,,,,,,,,
,,,,,,,,,,,,,,,,,,,,,,,,,,,,,,,,,,,,,,,,,,602b7ef25103a629e2004d70,606a0f057f6602c70cdb596d,2021-04-04_21h10.33.685,Colour_Similarity_Experiment,2020.2.10,Win32,60,60675255c767bca6388caeee,17.24610209,16.6795092,16.67305405,16.69029568,16.67004471,16.6795092,,,,,,,,,,,,,,,,,,,,PF,3,strong,,,,,,,,6,2.1681,,,,,,,,,,,,,,,,,,,,,,,,,,,,8,strong,63,48,1,0,0,response1disk,5,4,3,-7,1,0,0,rectangle,3,-7,1,0,0,,3,0.003685,3,-7,1,0,0,0,3,3,152,1,0,,,,,,,,,,,,,,,,,,,,,
,,,,,,,,,,,,,,,,,,,,,,,,,,,,,,,,,,,,,,,,,,602b7ef25103a629e2004d70,606a0f057f6602c70cdb596d,2021-04-04_21h10.33.685,Colour_Similarity_Experiment,2020.2.10,Win32,60,60675255c767bca6388caeee,17.24610209,16.6795092,16.67305405,16.69029568,16.67004471,16.6795092,,,,,,,,,,,,,,,,,,,,PF,3,strong,,,,,,,,5,1.30091,,,,,,,,,,,,,,,,,,,,,,,,,,,,1,strong,46,-37,1,0,0,response3disk,4,5,-11,0,1,0,0,rectangle,-11,0,1,0,0,,2,0.003195,-11,0,1,0,0,0,4,4,135,1,0,,,,,,,,,,,,,,,,,,,,,
,,,,,,,,,,,,,,,,,,,,,,,,,,,,,,,,,,,,,,,,,,602b7ef25103a629e2004d70,606a0f057f6602c70cdb596d,2021-04-04_21h10.33.685,Colour_Similarity_Experiment,2020.2.10,Win32,60,60675255c767bca6388caeee,17.24610209,16.6795092,16.67305405,16.69029568,16.67004471,16.6795092,,,,,,,,,,,,,,,,,,,,PF,3,strong,,,,,,,,5,1.5189,,,,,,,,,,,,,,,,,,,,,,,,,,,,7,strong,48,-30,1,0,0,response3disk,5,6,5,-2,1,0,0,rectangle,5,-2,1,0,0,,3,0.003525,5,-2,1,0,0,0,5,5,156,1,0,,,,,,,,,,,,,,,,,,,,,
,,,,,,,,,,,,,,,,,,,,,,,,,,,,,,,,,,,,,,,,,,602b7ef25103a629e2004d70,606a0f057f6602c70cdb596d,2021-04-04_21h10.33.685,Colour_Similarity_Experiment,2020.2.10,Win32,60,60675255c767bca6388caeee,17.24610209,16.6795092,16.67305405,16.69029568,16.67004471,16.6795092,,,,,,,,,,,,,,,,,,,,PF,3,strong,,,,,,,,5,1.900955,,,,,,,,,,,,,,,,,,,,,,,,,,,,8,strong,59,-28,1,0,0,response3disk,8,7,-10,-4,1,0,0,rectangle,-10,-4,1,0,0,,3,0.000345,-10,-4,1,0,0,0,6,6,48,1,0,,,,,,,,,,,,,,,,,,,,,
,,,,,,,,,,,,,,,,,,,,,,,,,,,,,,,,,,,,,,,,,,602b7ef25103a629e2004d70,606a0f057f6602c70cdb596d,2021-04-04_21h10.33.685,Colour_Similarity_Experiment,2020.2.10,Win32,60,60675255c767bca6388caeee,17.24610209,16.6795092,16.67305405,16.69029568,16.67004471,16.6795092,,,,,,,,,,,,,,,,,,,,PF,3,weak,,,,,,,,7,4.569505,,,,,,,,,,,,,,,,,,,,,,,,,,,,5,weak,47,73,1,0,0,response1disk,3,8,12,3,1,0,0,rectangle,12,3,1,0,0,,3,0.00052,12,3,1,0,0,0,7,7,109,1,0,,,,,,,,,,,,,,,,,,,,,
,,,,,,,,,,,,,,,,,,,,,,,,,,,,,,,,,,,,,,,,,,602b7ef25103a629e2004d70,606a0f057f6602c70cdb596d,2021-04-04_21h10.33.685,Colour_Similarity_Experiment,2020.2.10,Win32,60,60675255c767bca6388caeee,17.24610209,16.6795092,16.67305405,16.69029568,16.67004471,16.6795092,,,,,,,,,,,,,,,,,,,,PF,3,strong,,,,,,,,5,1.150215,,,,,,,,,,,,,,,,,,,,,,,,,,,,2,strong,69,-26,1,0,0,response3disk,2,9,13,-8,1,0,0,rectangle,13,-8,1,0,0,,5,0.00386,13,-8,1,0,0,0,8,8,142,1,0,,,,,,,,,,,,,,,,,,,,,
,,,,,,,,,,,,,,,,,,,,,,,,,,,,,,,,,,,,,,,,,,602b7ef25103a629e2004d70,606a0f057f6602c70cdb596d,2021-04-04_21h10.33.685,Colour_Similarity_Experiment,2020.2.10,Win32,60,60675255c767bca6388caeee,17.24610209,16.6795092,16.67305405,16.69029568,16.67004471,16.6795092,,,,,,,,,,,,,,,,,,,,PF,3,weak,,,,,,,,7,2.984985,,,,,,,,,,,,,,,,,,,,,,,,,,,,7,weak,48,60,1,0,0,response1disk,8,10,17,2,1,0,0,rectangle,17,2,1,0,0,,6,0.00382,17,2,1,0,0,0,9,9,140,1,0,,,,,,,,,,,,,,,,,,,,,
,,,,,,,,,,,,,,,,,,,,,,,,,,,,,,,,,,,,,,,,,,602b7ef25103a629e2004d70,606a0f057f6602c70cdb596d,2021-04-04_21h10.33.685,Colour_Similarity_Experiment,2020.2.10,Win32,60,60675255c767bca6388caeee,17.24610209,16.6795092,16.67305405,16.69029568,16.67004471,16.6795092,,,,,,,,,,,,,,,,,,,,PF,3,strong,,,,,,,,5,2.29856,,,,,,,,,,,,,,,,,,,,,,,,,,,,9,strong,77,-23,1,0,0,response3disk,1,11,19,-4,1,0,0,rectangle,19,-4,1,0,0,,1,0.002195,19,-4,1,0,0,0,10,10,111,1,0,,,,,,,,,,,,,,,,,,,,,
,,,,,,,,,,,,,,,,,,,,,,,,,,,,,,,,,,,,,,,,,,602b7ef25103a629e2004d70,606a0f057f6602c70cdb596d,2021-04-04_21h10.33.685,Colour_Similarity_Experiment,2020.2.10,Win32,60,60675255c767bca6388caeee,17.24610209,16.6795092,16.67305405,16.69029568,16.67004471,16.6795092,,,,,,,,,,,,,,,,,,,,PF,3,strong,,,,,,,,7,3.852605,,,,,,,,,,,,,,,,,,,,,,,,,,,,3,strong,55,67,1,0,0,response1disk,4,12,1,-2,1,0,0,rectangle,1,-2,1,0,0,,1,0.000775,1,-2,1,0,0,0,11,11,110,1,0,,,,,,,,,,,,,,,,,,,,,
,,,,,,,,,,,,,,,,,,,,,,,,,,,,,,,,,,,,,,,,,,602b7ef25103a629e2004d70,606a0f057f6602c70cdb596d,2021-04-04_21h10.33.685,Colour_Similarity_Experiment,2020.2.10,Win32,60,60675255c767bca6388caeee,17.24610209,16.6795092,16.67305405,16.69029568,16.67004471,16.6795092,,,,,,,,,,,,,,,,,,,,PF,3,strong,,,,,,,,7,2.752605,,,,,,,,,,,,,,,,,,,,,,,,,,,,6,strong,57,83,1,0,0,response1disk,1,13,7,5,1,0,0,rectangle,7,5,1,0,0,,0,0.003775,7,5,1,0,0,0,12,12,5,1,0,,,,,,,,,,,,,,,,,,,,,
,,,,,,,,,,,,,,,,,,,,,,,,,,,,,,,,,,,,,,,,,,602b7ef25103a629e2004d70,606a0f057f6602c70cdb596d,2021-04-04_21h10.33.685,Colour_Similarity_Experiment,2020.2.10,Win32,60,60675255c767bca6388caeee,17.24610209,16.6795092,16.67305405,16.69029568,16.67004471,16.6795092,,,,,,,,,,,,,,,,,,,,PF,3,weak,,,,,,,,0,1.250805,,,,,,,,,,,,,,,,,,,,,,,,,,,,7,weak,-42,77,1,0,0,response7disk,1,14,-11,1,1,0,0,rectangle,-11,1,1,0,0,,3,0.00418,-11,1,1,0,0,0,13,13,53,1,0,,,,,,,,,,,,,,,,,,,,,
,,,,,,,,,,,,,,,,,,,,,,,,,,,,,,,,,,,,,,,,,,602b7ef25103a629e2004d70,606a0f057f6602c70cdb596d,2021-04-04_21h10.33.685,Colour_Similarity_Experiment,2020.2.10,Win32,60,60675255c767bca6388caeee,17.24610209,16.6795092,16.67305405,16.69029568,16.67004471,16.6795092,,,,,,,,,,,,,,,,,,,,PF,3,weak,,,,,,,,5,1.453775,,,,,,,,,,,,,,,,,,,,,,,,,,,,9,weak,63,-44,1,0,0,response3disk,9,15,9,1,1,0,0,rectangle,9,1,1,0,0,,1,0.002475,9,1,1,0,0,0,14,14,106,1,0,,,,,,,,,,,,,,,,,,,,,
,,,,,,,,,,,,,,,,,,,,,,,,,,,,,,,,,,,,,,,,,,602b7ef25103a629e2004d70,606a0f057f6602c70cdb596d,2021-04-04_21h10.33.685,Colour_Similarity_Experiment,2020.2.10,Win32,60,60675255c767bca6388caeee,17.24610209,16.6795092,16.67305405,16.69029568,16.67004471,16.6795092,,,,,,,,,,,,,,,,,,,,PF,3,strong,,,,,,,,6,1.802025,,,,,,,,,,,,,,,,,,,,,,,,,,,,7,strong,55,36,1,0,0,response1disk,4,16,12,-7,1,0,0,rectangle,12,-7,1,0,0,,7,0.001495,12,-7,1,0,0,0,15,15,158,1,0,,,,,,,,,,,,,,,,,,,,,
,,,,,,,,,,,,,,,,,,,,,,,,,,,,,,,,,,,,,,,,,,602b7ef25103a629e2004d70,606a0f057f6602c70cdb596d,2021-04-04_21h10.33.685,Colour_Similarity_Experiment,2020.2.10,Win32,60,60675255c767bca6388caeee,17.24610209,16.6795092,16.67305405,16.69029568,16.67004471,16.6795092,,,,,,,,,,,,,,,,,,,,PF,3,strong,,,,,,,,0,1.1181,,,,,,,,,,,,,,,,,,,,,,,,,,,,2,strong,-34,71,1,0,0,response7disk,4,17,2,-5,1,0,0,rectangle,2,-5,1,0,0,,4,0.00398,2,-5,1,0,0,0,16,16,145,1,0,,,,,,,,,,,,,,,,,,,,,
,,,,,,,,,,,,,,,,,,,,,,,,,,,,,,,,,,,,,,,,,,602b7ef25103a629e2004d70,606a0f057f6602c70cdb596d,2021-04-04_21h10.33.685,Colour_Similarity_Experiment,2020.2.10,Win32,60,60675255c767bca6388caeee,17.24610209,16.6795092,16.67305405,16.69029568,16.67004471,16.6795092,,,,,,,,,,,,,,,,,,,,PF,3,strong,,,,,,,,0,0.984385,,,,,,,,,,,,,,,,,,,,,,,,,,,,6,strong,-25,69,1,0,0,response7disk,4,18,-11,3,1,0,0,rectangle,-11,3,1,0,0,,2,0.00358,-11,3,1,0,0,0,17,17,56,1,0,,,,,,,,,,,,,,,,,,,,,
,,,,,,,,,,,,,,,,,,,,,,,,,,,,,,,,,,,,,,,,,,602b7ef25103a629e2004d70,606a0f057f6602c70cdb596d,2021-04-04_21h10.33.685,Colour_Similarity_Experiment,2020.2.10,Win32,60,60675255c767bca6388caeee,17.24610209,16.6795092,16.67305405,16.69029568,16.67004471,16.6795092,,,,,,,,,,,,,,,,,,,,PF,3,strong,,,,,,,,7,0.92747,,,,,,,,,,,,,,,,,,,,,,,,,,,,3,strong,22,56,1,0,0,response1disk,1,19,5,3,1,0,0,rectangle,5,3,1,0,0,,1,0.00225,5,3,1,0,0,0,18,18,125,1,0,,,,,,,,,,,,,,,,,,,,,
,,,,,,,,,,,,,,,,,,,,,,,,,,,,,,,,,,,,,,,,,,602b7ef25103a629e2004d70,606a0f057f6602c70cdb596d,2021-04-04_21h10.33.685,Colour_Similarity_Experiment,2020.2.10,Win32,60,60675255c767bca6388caeee,17.24610209,16.6795092,16.67305405,16.69029568,16.67004471,16.6795092,,,,,,,,,,,,,,,,,,,,PF,3,strong,,,,,,,,7,2.06545,,,,,,,,,,,,,,,,,,,,,,,,,,,,1,strong,30,60,1,0,0,response1disk,5,20,5,-4,1,0,0,rectangle,5,-4,1,0,0,,2,0.002715,5,-4,1,0,0,0,19,19,82,1,0,,,,,,,,,,,,,,,,,,,,,
,,,,,,,,,,,,,,,,,,,,,,,,,,,,,,,,,,,,,,,,,,602b7ef25103a629e2004d70,606a0f057f6602c70cdb596d,2021-04-04_21h10.33.685,Colour_Similarity_Experiment,2020.2.10,Win32,60,60675255c767bca6388caeee,17.24610209,16.6795092,16.67305405,16.69029568,16.67004471,16.6795092,,,,,,,,,,,,,,,,,,,,PF,3,weak,,,,,,,,5,2.103355,,,,,,,,,,,,,,,,,,,,,,,,,,,,4,weak,55,-21,1,0,0,response3disk,4,21,9,4,1,0,0,rectangle,9,4,1,0,0,,5,0.002615,9,4,1,0,0,0,20,20,70,1,0,,,,,,,,,,,,,,,,,,,,,
,,,,,,,,,,,,,,,,,,,,,,,,,,,,,,,,,,,,,,,,,,602b7ef25103a629e2004d70,606a0f057f6602c70cdb596d,2021-04-04_21h10.33.685,Colour_Similarity_Experiment,2020.2.10,Win32,60,60675255c767bca6388caeee,17.24610209,16.6795092,16.67305405,16.69029568,16.67004471,16.6795092,,,,,,,,,,,,,,,,,,,,PF,3,weak,,,,,,,,3,3.71698,,,,,,,,,,,,,,,,,,,,,,,,,,,,8,weak,-24,-75,1,0,0,response5disk,3,22,1,-8,1,0,0,rectangle,1,-8,1,0,0,,1,0.00373,1,-8,1,0,0,0,21,21,71,1,0,,,,,,,,,,,,,,,,,,,,,
,,,,,,,,,,,,,,,,,,,,,,,,,,,,,,,,,,,,,,,,,,602b7ef25103a629e2004d70,606a0f057f6602c70cdb596d,2021-04-04_21h10.33.685,Colour_Similarity_Experiment,2020.2.10,Win32,60,60675255c767bca6388caeee,17.24610209,16.6795092,16.67305405,16.69029568,16.67004471,16.6795092,,,,,,,,,,,,,,,,,,,,PF,3,weak,,,,,,,,6,1.96817,,,,,,,,,,,,,,,,,,,,,,,,,,,,5,weak,51,26,1,0,0,response1disk,6,23,12,-5,1,0,0,rectangle,12,-5,1,0,0,,5,0.00208,12,-5,1,0,0,0,22,22,103,1,0,,,,,,,,,,,,,,,,,,,,,
,,,,,,,,,,,,,,,,,,,,,,,,,,,,,,,,,,,,,,,,,,602b7ef25103a629e2004d70,606a0f057f6602c70cdb596d,2021-04-04_21h10.33.685,Colour_Similarity_Experiment,2020.2.10,Win32,60,60675255c767bca6388caeee,17.24610209,16.6795092,16.67305405,16.69029568,16.67004471,16.6795092,,,,,,,,,,,,,,,,,,,,PF,3,strong,,,,,,,,5,1.33863,,,,,,,,,,,,,,,,,,,,,,,,,,,,4,strong,57,-30,1,0,0,response3disk,8,24,10,0,1,0,0,rectangle,10,0,1,0,0,,4,0.002725,10,0,1,0,0,0,23,23,35,1,0,,,,,,,,,,,,,,,,,,,,,
,,,,,,,,,,,,,,,,,,,,,,,,,,,,,,,,,,,,,,,,,,602b7ef25103a629e2004d70,606a0f057f6602c70cdb596d,2021-04-04_21h10.33.685,Colour_Similarity_Experiment,2020.2.10,Win32,60,60675255c767bca6388caeee,17.24610209,16.6795092,16.67305405,16.69029568,16.67004471,16.6795092,,,,,,,,,,,,,,,,,,,,PF,3,strong,,,,,,,,0,1.348845,,,,,,,,,,,,,,,,,,,,,,,,,,,,6,strong,-27,49,1,0,0,response7disk,9,25,-13,9,1,0,0,rectangle,-22,-63,1,0,0,3,3,2.95497,-2,11,1,0,0,0,24,24,160,1,1,response5disk_3,rectangle,,,,,,,,,,,,,,,,,,,
,,,,,,,,,,,,,,,,,,,,,,,,,,,,,,,,,,,,,,,,,,602b7ef25103a629e2004d70,606a0f057f6602c70cdb596d,2021-04-04_21h10.33.685,Colour_Similarity_Experiment,2020.2.10,Win32,60,60675255c767bca6388caeee,17.24610209,16.6795092,16.67305405,16.69029568,16.67004471,16.6795092,,,,,,,,,,,,,,,,,,,,PF,3,weak,,,,,,,,5,2.05143,,,,,,,,,,,,,,,,,,,,,,,,,,,,3,weak,57,-30,1,0,0,response3disk,2,26,-3,-3,1,0,0,rectangle,-38,58,1,0,0,0,0,2.615805,-4,-10,1,0,0,0,25,25,36,1,1,response7disk_3,rectangle,,,,,,,,,,,,,,,,,,,
,,,,,,,,,,,,,,,,,,,,,,,,,,,,,,,,,,,,,,,,,,602b7ef25103a629e2004d70,606a0f057f6602c70cdb596d,2021-04-04_21h10.33.685,Colour_Similarity_Experiment,2020.2.10,Win32,60,60675255c767bca6388caeee,17.24610209,16.6795092,16.67305405,16.69029568,16.67004471,16.6795092,,,,,,,,,,,,,,,,,,,,PF,3,strong,,,,,,,,5,2.84796,,,,,,,,,,,,,,,,,,,,,,,,,,,,5,strong,30,-22,1,0,0,response3disk,5,27,9,5,1,0,0,rectangle,9,5,1,0,0,0,4,0.00249,9,5,1,0,0,0,26,26,19,1,0,,,,,,,,,,,,,,,,,,,,,
,,,,,,,,,,,,,,,,,,,,,,,,,,,,,,,,,,,,,,,,,,602b7ef25103a629e2004d70,606a0f057f6602c70cdb596d,2021-04-04_21h10.33.685,Colour_Similarity_Experiment,2020.2.10,Win32,60,60675255c767bca6388caeee,17.24610209,16.6795092,16.67305405,16.69029568,16.67004471,16.6795092,,,,,,,,,,,,,,,,,,,,PF,3,weak,,,,,,,,7,1.28422,,,,,,,,,,,,,,,,,,,,,,,,,,,,9,weak,32,69,1,0,0,response1disk,1,28,10,-1,1,0,0,rectangle,10,-1,1,0,0,0,2,0.003735,10,-1,1,0,0,0,27,27,74,1,0,,,,,,,,,,,,,,,,,,,,,
,,,,,,,,,,,,,,,,,,,,,,,,,,,,,,,,,,,,,,,,,,602b7ef25103a629e2004d70,606a0f057f6602c70cdb596d,2021-04-04_21h10.33.685,Colour_Similarity_Experiment,2020.2.10,Win32,60,60675255c767bca6388caeee,17.24610209,16.6795092,16.67305405,16.69029568,16.67004471,16.6795092,,,,,,,,,,,,,,,,,,,,PF,3,strong,,,,,,,,6,2.135115,,,,,,,,,,,,,,,,,,,,,,,,,,,,1,strong,76,28,1,0,0,response1disk,6,29,4,-6,1,0,0,rectangle,4,-6,1,0,0,0,1,0.0034,4,-6,1,0,0,0,28,28,58,1,0,,,,,,,,,,,,,,,,,,,,,
,,,,,,,,,,,,,,,,,,,,,,,,,,,,,,,,,,,,,,,,,,602b7ef25103a629e2004d70,606a0f057f6602c70cdb596d,2021-04-04_21h10.33.685,Colour_Similarity_Experiment,2020.2.10,Win32,60,60675255c767bca6388caeee,17.24610209,16.6795092,16.67305405,16.69029568,16.67004471,16.6795092,,,,,,,,,,,,,,,,,,,,PF,3,weak,,,,,,,,7,1.16781,,,,,,,,,,,,,,,,,,,,,,,,,,,,8,weak,41,56,1,0,0,response1disk,1,30,11,3,1,0,0,rectangle,11,3,1,0,0,0,1,0.00049,11,3,1,0,0,0,29,29,57,1,0,,,,,,,,,,,,,,,,,,,,,
,,,,,,,,,,,,,,,,,,,,,,,,,,,,,,,,,,,,,,,,,,602b7ef25103a629e2004d70,606a0f057f6602c70cdb596d,2021-04-04_21h10.33.685,Colour_Similarity_Experiment,2020.2.10,Win32,60,60675255c767bca6388caeee,17.24610209,16.6795092,16.67305405,16.69029568,16.67004471,16.6795092,,,,,,,,,,,,,,,,,,,,PF,3,strong,,,,,,,,7,1.669625,,,,,,,,,,,,,,,,,,,,,,,,,,,,8,strong,31,39,1,0,0,response1disk,4,31,9,5,1,0,0,rectangle,9,5,1,0,0,0,3,0.002885,9,5,1,0,0,0,30,30,88,1,0,,,,,,,,,,,,,,,,,,,,,
,,,,,,,,,,,,,,,,,,,,,,,,,,,,,,,,,,,,,,,,,,602b7ef25103a629e2004d70,606a0f057f6602c70cdb596d,2021-04-04_21h10.33.685,Colour_Similarity_Experiment,2020.2.10,Win32,60,60675255c767bca6388caeee,17.24610209,16.6795092,16.67305405,16.69029568,16.67004471,16.6795092,,,,,,,,,,,,,,,,,,,,PF,3,weak,,,,,,,,3,1.867445,,,,,,,,,,,,,,,,,,,,,,,,,,,,7,weak,-42,-76,1,0,0,response5disk,3,32,11,-2,1,0,0,rectangle,11,-2,1,0,0,0,1,0.00325,11,-2,1,0,0,0,31,31,81,1,0,,,,,,,,,,,,,,,,,,,,,
,,,,,,,,,,,,,,,,,,,,,,,,,,,,,,,,,,,,,,,,,,602b7ef25103a629e2004d70,606a0f057f6602c70cdb596d,2021-04-04_21h10.33.685,Colour_Similarity_Experiment,2020.2.10,Win32,60,60675255c767bca6388caeee,17.24610209,16.6795092,16.67305405,16.69029568,16.67004471,16.6795092,,,,,,,,,,,,,,,,,,,,PF,3,strong,,,,,,,,7,1.567735,,,,,,,,,,,,,,,,,,,,,,,,,,,,4,strong,54,68,1,0,0,response1disk,1,33,7,8,1,0,0,rectangle,7,8,1,0,0,0,3,0.003435,7,8,1,0,0,0,32,32,102,1,0,,,,,,,,,,,,,,,,,,,,,
,,,,,,,,,,,,,,,,,,,,,,,,,,,,,,,,,,,,,,,,,,602b7ef25103a629e2004d70,606a0f057f6602c70cdb596d,2021-04-04_21h10.33.685,Colour_Similarity_Experiment,2020.2.10,Win32,60,60675255c767bca6388caeee,17.24610209,16.6795092,16.67305405,16.69029568,16.67004471,16.6795092,,,,,,,,,,,,,,,,,,,,PF,3,strong,,,,,,,,7,2.384245,,,,,,,,,,,,,,,,,,,,,,,,,,,,8,strong,30,47,1,0,0,response1disk,6,34,9,-6,1,0,0,rectangle,9,-6,1,0,0,0,5,0.00342,9,-6,1,0,0,0,33,33,37,1,0,,,,,,,,,,,,,,,,,,,,,
,,,,,,,,,,,,,,,,,,,,,,,,,,,,,,,,,,,,,,,,,,602b7ef25103a629e2004d70,606a0f057f6602c70cdb596d,2021-04-04_21h10.33.685,Colour_Similarity_Experiment,2020.2.10,Win32,60,60675255c767bca6388caeee,17.24610209,16.6795092,16.67305405,16.69029568,16.67004471,16.6795092,,,,,,,,,,,,,,,,,,,,PF,3,strong,,,,,,,,7,1.28415,,,,,,,,,,,,,,,,,,,,,,,,,,,,5,strong,17,47,1,0,0,response1disk,1,35,4,-1,1,0,0,rectangle,4,-1,1,0,0,0,0,0.00384,4,-1,1,0,0,0,34,34,131,1,0,,,,,,,,,,,,,,,,,,,,,
,,,,,,,,,,,,,,,,,,,,,,,,,,,,,,,,,,,,,,,,,,602b7ef25103a629e2004d70,606a0f057f6602c70cdb596d,2021-04-04_21h10.33.685,Colour_Similarity_Experiment,2020.2.10,Win32,60,60675255c767bca6388caeee,17.24610209,16.6795092,16.67305405,16.69029568,16.67004471,16.6795092,,,,,,,,,,,,,,,,,,,,PF,3,weak,,,,,,,,6,2.100665,,,,,,,,,,,,,,,,,,,,,,,,,,,,9,weak,58,43,1,0,0,response1disk,3,36,8,1,1,0,0,rectangle,8,1,1,0,0,0,6,0.00339,8,1,1,0,0,0,35,35,119,1,0,,,,,,,,,,,,,,,,,,,,,
,,,,,,,,,,,,,,,,,,,,,,,,,,,,,,,,,,,,,,,,,,602b7ef25103a629e2004d70,606a0f057f6602c70cdb596d,2021-04-04_21h10.33.685,Colour_Similarity_Experiment,2020.2.10,Win32,60,60675255c767bca6388caeee,17.24610209,16.6795092,16.67305405,16.69029568,16.67004471,16.6795092,,,,,,,,,,,,,,,,,,,,PF,3,strong,,,,,,,,2,1.58508,,,,,,,,,,,,,,,,,,,,,,,,,,,,1,strong,-64,-42,1,0,0,response5disk,2,37,-9,6,1,0,0,rectangle,-9,6,1,0,0,0,7,0.004125,-9,6,1,0,0,0,36,36,2,1,0,,,,,,,,,,,,,,,,,,,,,
,,,,,,,,,,,,,,,,,,,,,,,,,,,,,,,,,,,,,,,,,,602b7ef25103a629e2004d70,606a0f057f6602c70cdb596d,2021-04-04_21h10.33.685,Colour_Similarity_Experiment,2020.2.10,Win32,60,60675255c767bca6388caeee,17.24610209,16.6795092,16.67305405,16.69029568,16.67004471,16.6795092,,,,,,,,,,,,,,,,,,,,PF,3,weak,,,,,,,,4,2.059825,,,,,,,,,,,,,,,,,,,,,,,,,,,,5,weak,35,-48,1,0,0,response3disk,1,38,8,-1,1,0,0,rectangle,45,74,1,0,0,7,7,2.068195,25,-8,1,0,0,0,37,37,159,1,1,response1disk_3,rectangle,,,,,,,,,,,,,,,,,,,
,,,,,,,,,,,,,,,,,,,,,,,,,,,,,,,,,,,,,,,,,,602b7ef25103a629e2004d70,606a0f057f6602c70cdb596d,2021-04-04_21h10.33.685,Colour_Similarity_Experiment,2020.2.10,Win32,60,60675255c767bca6388caeee,17.24610209,16.6795092,16.67305405,16.69029568,16.67004471,16.6795092,,,,,,,,,,,,,,,,,,,,PF,3,weak,,,,,,,,5,1.95131,,,,,,,,,,,,,,,,,,,,,,,,,,,,3,weak,47,-25,1,0,0,response3disk,9,39,-12,-8,1,0,0,rectangle,-12,-8,1,0,0,7,5,0.00385,-12,-8,1,0,0,0,38,38,79,1,0,,,,,,,,,,,,,,,,,,,,,
,,,,,,,,,,,,,,,,,,,,,,,,,,,,,,,,,,,,,,,,,,602b7ef25103a629e2004d70,606a0f057f6602c70cdb596d,2021-04-04_21h10.33.685,Colour_Similarity_Experiment,2020.2.10,Win32,60,60675255c767bca6388caeee,17.24610209,16.6795092,16.67305405,16.69029568,16.67004471,16.6795092,,,,,,,,,,,,,,,,,,,,PF,3,strong,,,,,,,,4,1.60066,,,,,,,,,,,,,,,,,,,,,,,,,,,,9,strong,30,-48,1,0,0,response3disk,6,40,1,7,1,0,0,rectangle,1,7,1,0,0,7,4,0.00422,1,7,1,0,0,0,39,39,117,1,0,,,,,,,,,,,,,,,,,,,,,
,,,,,,,,,,,,,,,,,,,,,,,,,,,,,,,,,,,,,,,,,,602b7ef25103a629e2004d70,606a0f057f6602c70cdb596d,2021-04-04_21h10.33.685,Colour_Similarity_Experiment,2020.2.10,Win32,60,60675255c767bca6388caeee,17.24610209,16.6795092,16.67305405,16.69029568,16.67004471,16.6795092,,,,,,,,,,,,,,,,,,,,PF,3,weak,,,,,,,,7,1.50195,,,,,,,,,,,,,,,,,,,,,,,,,,,,3,weak,26,77,1,0,0,response1disk,1,41,-6,0,1,0,0,rectangle,-6,0,1,0,0,7,5,0.00208,-6,0,1,0,0,0,40,40,96,1,0,,,,,,,,,,,,,,,,,,,,,
,,,,,,,,,,,,,,,,,,,,,,,,,,,,,,,,,,,,,,,,,,602b7ef25103a629e2004d70,606a0f057f6602c70cdb596d,2021-04-04_21h10.33.685,Colour_Similarity_Experiment,2020.2.10,Win32,60,60675255c767bca6388caeee,17.24610209,16.6795092,16.67305405,16.69029568,16.67004471,16.6795092,,,,,,,,,,,,,,,,,,,,PF,3,weak,,,,,,,,7,1.476195,,,,,,,,,,,,,,,,,,,,,,,,,,,,9,weak,49,62,1,0,0,response1disk,4,42,15,5,1,0,0,rectangle,15,5,1,0,0,7,1,0.003725,15,5,1,0,0,0,41,41,114,1,0,,,,,,,,,,,,,,,,,,,,,
,,,,,,,,,,,,,,,,,,,,,,,,,,,,,,,,,,,,,,,,,,602b7ef25103a629e2004d70,606a0f057f6602c70cdb596d,2021-04-04_21h10.33.685,Colour_Similarity_Experiment,2020.2.10,Win32,60,60675255c767bca6388caeee,17.24610209,16.6795092,16.67305405,16.69029568,16.67004471,16.6795092,,,,,,,,,,,,,,,,,,,,PF,3,weak,,,,,,,,4,2.23467,,,,,,,,,,,,,,,,,,,,,,,,,,,,7,weak,29,-49,1,0,0,response3disk,9,43,17,8,1,0,0,rectangle,17,8,1,0,0,7,4,0.002625,17,8,1,0,0,0,42,42,10,1,0,,,,,,,,,,,,,,,,,,,,,
,,,,,,,,,,,,,,,,,,,,,,,,,,,,,,,,,,,,,,,,,,602b7ef25103a629e2004d70,606a0f057f6602c70cdb596d,2021-04-04_21h10.33.685,Colour_Similarity_Experiment,2020.2.10,Win32,60,60675255c767bca6388caeee,17.24610209,16.6795092,16.67305405,16.69029568,16.67004471,16.6795092,,,,,,,,,,,,,,,,,,,,PF,3,weak,,,,,,,,4,1.235095,,,,,,,,,,,,,,,,,,,,,,,,,,,,2,weak,34,-46,1,0,0,response3disk,6,44,13,-4,1,0,0,rectangle,13,-4,1,0,0,7,6,0.00371,13,-4,1,0,0,0,43,43,113,1,0,,,,,,,,,,,,,,,,,,,,,
,,,,,,,,,,,,,,,,,,,,,,,,,,,,,,,,,,,,,,,,,,602b7ef25103a629e2004d70,606a0f057f6602c70cdb596d,2021-04-04_21h10.33.685,Colour_Similarity_Experiment,2020.2.10,Win32,60,60675255c767bca6388caeee,17.24610209,16.6795092,16.67305405,16.69029568,16.67004471,16.6795092,,,,,,,,,,,,,,,,,,,,PF,3,strong,,,,,,,,5,4.09502,,,,,,,,,,,,,,,,,,,,,,,,,,,,9,strong,46,-26,1,0,0,response3disk,3,45,19,-8,1,0,0,rectangle,19,-8,1,0,0,7,6,0.00072,19,-8,1,0,0,0,44,44,141,1,0,,,,,,,,,,,,,,,,,,,,,
,,,,,,,,,,,,,,,,,,,,,,,,,,,,,,,,,,,,,,,,,,602b7ef25103a629e2004d70,606a0f057f6602c70cdb596d,2021-04-04_21h10.33.685,Colour_Similarity_Experiment,2020.2.10,Win32,60,60675255c767bca6388caeee,17.24610209,16.6795092,16.67305405,16.69029568,16.67004471,16.6795092,,,,,,,,,,,,,,,,,,,,PF,3,weak,,,,,,,,0,1.14555,,,,,,,,,,,,,,,,,,,,,,,,,,,,6,weak,-54,103,1,0,0,response7disk,3,46,-4,-3,1,0,0,rectangle,-4,-3,1,0,0,7,6,0.000325,-4,-3,1,0,0,0,45,45,26,1,0,,,,,,,,,,,,,,,,,,,,,
,,,,,,,,,,,,,,,,,,,,,,,,,,,,,,,,,,,,,,,,,,602b7ef25103a629e2004d70,606a0f057f6602c70cdb596d,2021-04-04_21h10.33.685,Colour_Similarity_Experiment,2020.2.10,Win32,60,60675255c767bca6388caeee,17.24610209,16.6795092,16.67305405,16.69029568,16.67004471,16.6795092,,,,,,,,,,,,,,,,,,,,PF,3,strong,,,,,,,,7,1.8689,,,,,,,,,,,,,,,,,,,,,,,,,,,,4,strong,24,79,1,0,0,response1disk,7,47,0,6,1,0,0,rectangle,0,6,1,0,0,7,2,0.003165,0,6,1,0,0,0,46,46,87,1,0,,,,,,,,,,,,,,,,,,,,,
,,,,,,,,,,,,,,,,,,,,,,,,,,,,,,,,,,,,,,,,,,602b7ef25103a629e2004d70,606a0f057f6602c70cdb596d,2021-04-04_21h10.33.685,Colour_Similarity_Experiment,2020.2.10,Win32,60,60675255c767bca6388caeee,17.24610209,16.6795092,16.67305405,16.69029568,16.67004471,16.6795092,,,,,,,,,,,,,,,,,,,,PF,3,weak,,,,,,,,0,1.084195,,,,,,,,,,,,,,,,,,,,,,,,,,,,9,weak,-19,74,1,0,0,response7disk,7,48,-6,-2,1,0,0,rectangle,-6,-2,1,0,0,7,2,0.00072,-6,-2,1,0,0,0,47,47,121,1,0,,,,,,,,,,,,,,,,,,,,,
,,,,,,,,,,,,,,,,,,,,,,,,,,,,,,,,,,,,,,,,,,602b7ef25103a629e2004d70,606a0f057f6602c70cdb596d,2021-04-04_21h10.33.685,Colour_Similarity_Experiment,2020.2.10,Win32,60,60675255c767bca6388caeee,17.24610209,16.6795092,16.67305405,16.69029568,16.67004471,16.6795092,,,,,,,,,,,,,,,,,,,,PF,3,strong,,,,,,,,2,1.697585,,,,,,,,,,,,,,,,,,,,,,,,,,,,9,strong,-56,-21,1,0,0,response5disk,5,49,-19,10,1,0,0,rectangle,-19,10,1,0,0,7,5,0.003675,-19,10,1,0,0,0,48,48,128,1,0,,,,,,,,,,,,,,,,,,,,,
,,,,,,,,,,,,,,,,,,,,,,,,,,,,,,,,,,,,,,,,,,602b7ef25103a629e2004d70,606a0f057f6602c70cdb596d,2021-04-04_21h10.33.685,Colour_Similarity_Experiment,2020.2.10,Win32,60,60675255c767bca6388caeee,17.24610209,16.6795092,16.67305405,16.69029568,16.67004471,16.6795092,,,,,,,,,,,,,,,,,,,,PF,3,weak,,,,,,,,1,1.98494,,,,,,,,,,,,,,,,,,,,,,,,,,,,1,weak,-54,44,1,0,0,response7disk,6,50,1,0,1,0,0,rectangle,1,0,1,0,0,7,1,0.006545,1,0,1,0,0,0,49,49,144,1,0,,,,,,,,,,,,,,,,,,,,,
,,,,,,,,,,,,,,,,,,,,,,,,,,,,,,,,,,,,,,,,,,602b7ef25103a629e2004d70,606a0f057f6602c70cdb596d,2021-04-04_21h10.33.685,Colour_Similarity_Experiment,2020.2.10,Win32,60,60675255c767bca6388caeee,17.24610209,16.6795092,16.67305405,16.69029568,16.67004471,16.6795092,,,,,,,,,,,,,,,,,,,,PF,3,strong,,,,,,,,5,1.4686,,,,,,,,,,,,,,,,,,,,,,,,,,,,2,strong,37,-30,1,0,0,response3disk,3,51,10,-6,1,0,0,rectangle,-72,-40,1,0,0,7,2,2.467305,-23,-4,1,0,0,0,50,50,104,1,1,response5disk_3,rectangle,,,,,,,,,,,,,,,,,,,
,,,,,,,,,,,,,,,,,,,,,,,,,,,,,,,,,,,,,,,,,,602b7ef25103a629e2004d70,606a0f057f6602c70cdb596d,2021-04-04_21h10.33.685,Colour_Similarity_Experiment,2020.2.10,Win32,60,60675255c767bca6388caeee,17.24610209,16.6795092,16.67305405,16.69029568,16.67004471,16.6795092,,,,,,,,,,,,,,,,,,,,PF,3,weak,,,,,,,,4,2.113815,,,,,,,,,,,,,,,,,,,,,,,,,,,,6,weak,25,-54,1,0,0,response3disk,2,52,3,-1,1,0,0,rectangle,3,-1,1,0,0,7,5,0.003525,3,-1,1,0,0,0,51,51,130,1,0,,,,,,,,,,,,,,,,,,,,,
,,,,,,,,,,,,,,,,,,,,,,,,,,,,,,,,,,,,,,,,,,602b7ef25103a629e2004d70,606a0f057f6602c70cdb596d,2021-04-04_21h10.33.685,Colour_Similarity_Experiment,2020.2.10,Win32,60,60675255c767bca6388caeee,17.24610209,16.6795092,16.67305405,16.69029568,16.67004471,16.6795092,,,,,,,,,,,,,,,,,,,,PF,3,weak,,,,,,,,0,0.934425,,,,,,,,,,,,,,,,,,,,,,,,,,,,1,weak,-38,68,1,0,0,response7disk,2,53,-13,-1,1,0,0,rectangle,-13,-1,1,0,0,7,2,0.003325,-13,-1,1,0,0,0,52,52,24,1,0,,,,,,,,,,,,,,,,,,,,,
,,,,,,,,,,,,,,,,,,,,,,,,,,,,,,,,,,,,,,,,,,602b7ef25103a629e2004d70,606a0f057f6602c70cdb596d,2021-04-04_21h10.33.685,Colour_Similarity_Experiment,2020.2.10,Win32,60,60675255c767bca6388caeee,17.24610209,16.6795092,16.67305405,16.69029568,16.67004471,16.6795092,,,,,,,,,,,,,,,,,,,,PF,3,strong,,,,,,,,5,1.28316,,,,,,,,,,,,,,,,,,,,,,,,,,,,2,strong,50,-28,1,0,0,response3disk,5,54,8,0,1,0,0,rectangle,8,0,1,0,0,7,2,0.00033,8,0,1,0,0,0,53,53,80,1,0,,,,,,,,,,,,,,,,,,,,,
,,,,,,,,,,,,,,,,,,,,,,,,,,,,,,,,,,,,,,,,,,602b7ef25103a629e2004d70,606a0f057f6602c70cdb596d,2021-04-04_21h10.33.685,Colour_Similarity_Experiment,2020.2.10,Win32,60,60675255c767bca6388caeee,17.24610209,16.6795092,16.67305405,16.69029568,16.67004471,16.6795092,,,,,,,,,,,,,,,,,,,,PF,3,strong,,,,,,,,4,1.934795,,,,,,,,,,,,,,,,,,,,,,,,,,,,7,strong,28,-43,1,0,0,response3disk,2,55,14,-13,1,0,0,rectangle,14,-13,1,0,0,7,0,0.00658,14,-13,1,0,0,0,54,54,138,1,0,,,,,,,,,,,,,,,,,,,,,
,,,,,,,,,,,,,,,,,,,,,,,,,,,,,,,,,,,,,,,,,,602b7ef25103a629e2004d70,606a0f057f6602c70cdb596d,2021-04-04_21h10.33.685,Colour_Similarity_Experiment,2020.2.10,Win32,60,60675255c767bca6388caeee,17.24610209,16.6795092,16.67305405,16.69029568,16.67004471,16.6795092,,,,,,,,,,,,,,,,,,,,PF,3,weak,,,,,,,,7,3.101725,,,,,,,,,,,,,,,,,,,,,,,,,,,,3,weak,28,63,1,0,0,response1disk,8,56,-1,1,1,0,0,rectangle,-1,1,1,0,0,7,5,0.003085,-1,1,1,0,0,0,55,55,3,1,0,,,,,,,,,,,,,,,,,,,,,
,,,,,,,,,,,,,,,,,,,,,,,,,,,,,,,,,,,,,,,,,,602b7ef25103a629e2004d70,606a0f057f6602c70cdb596d,2021-04-04_21h10.33.685,Colour_Similarity_Experiment,2020.2.10,Win32,60,60675255c767bca6388caeee,17.24610209,16.6795092,16.67305405,16.69029568,16.67004471,16.6795092,,,,,,,,,,,,,,,,,,,,PF,3,strong,,,,,,,,4,1.430805,,,,,,,,,,,,,,,,,,,,,,,,,,,,2,strong,28,-52,1,0,0,response3disk,6,57,-10,12,1,0,0,rectangle,-10,12,1,0,0,7,6,0.002555,-10,12,1,0,0,0,56,56,40,1,0,,,,,,,,,,,,,,,,,,,,,
,,,,,,,,,,,,,,,,,,,,,,,,,,,,,,,,,,,,,,,,,,602b7ef25103a629e2004d70,606a0f057f6602c70cdb596d,2021-04-04_21h10.33.685,Colour_Similarity_Experiment,2020.2.10,Win32,60,60675255c767bca6388caeee,17.24610209,16.6795092,16.67305405,16.69029568,16.67004471,16.6795092,,,,,,,,,,,,,,,,,,,,PF,3,weak,,,,,,,,0,1.54195,,,,,,,,,,,,,,,,,,,,,,,,,,,,7,weak,-51,72,1,0,0,response7disk,6,58,5,4,1,0,0,rectangle,5,4,1,0,0,7,1,0.002375,5,4,1,0,0,0,57,57,29,1,0,,,,,,,,,,,,,,,,,,,,,
,,,,,,,,,,,,,,,,,,,,,,,,,,,,,,,,,,,,,,,,,,602b7ef25103a629e2004d70,606a0f057f6602c70cdb596d,2021-04-04_21h10.33.685,Colour_Similarity_Experiment,2020.2.10,Win32,60,60675255c767bca6388caeee,17.24610209,16.6795092,16.67305405,16.69029568,16.67004471,16.6795092,,,,,,,,,,,,,,,,,,,,PF,3,weak,,,,,,,,3,1.249445,,,,,,,,,,,,,,,,,,,,,,,,,,,,7,weak,-28,-61,1,0,0,response5disk,7,59,0,-5,1,0,0,rectangle,0,-5,1,0,0,7,0,0.00356,0,-5,1,0,0,0,58,58,51,1,0,,,,,,,,,,,,,,,,,,,,,
,,,,,,,,,,,,,,,,,,,,,,,,,,,,,,,,,,,,,,,,,,602b7ef25103a629e2004d70,606a0f057f6602c70cdb596d,2021-04-04_21h10.33.685,Colour_Similarity_Experiment,2020.2.10,Win32,60,60675255c767bca6388caeee,17.24610209,16.6795092,16.67305405,16.69029568,16.67004471,16.6795092,,,,,,,,,,,,,,,,,,,,PF,3,weak,,,,,,,,6,1.433845,,,,,,,,,,,,,,,,,,,,,,,,,,,,4,weak,49,30,1,0,0,response1disk,2,60,22,-2,1,0,0,rectangle,22,-2,1,0,0,7,6,0.004235,22,-2,1,0,0,0,59,59,108,1,0,,,,,,,,,,,,,,,,,,,,,
,,,,,,,,,,,,,,,,,,,,,,,,,,,,,,,,,,,,,,,,,,602b7ef25103a629e2004d70,606a0f057f6602c70cdb596d,2021-04-04_21h10.33.685,Colour_Similarity_Experiment,2020.2.10,Win32,60,60675255c767bca6388caeee,17.24610209,16.6795092,16.67305405,16.69029568,16.67004471,16.6795092,,,,,,,,,,,,,,,,,,,,PF,3,strong,,,,,,,,7,2.05153,,,,,,,,,,,,,,,,,,,,,,,,,,,,9,strong,28,39,1,0,0,response1disk,4,61,17,1,1,0,0,rectangle,17,1,1,0,0,7,6,0.00103,17,1,1,0,0,0,60,60,60,1,0,,,,,,,,,,,,,,,,,,,,,
,,,,,,,,,,,,,,,,,,,,,,,,,,,,,,,,,,,,,,,,,,602b7ef25103a629e2004d70,606a0f057f6602c70cdb596d,2021-04-04_21h10.33.685,Colour_Similarity_Experiment,2020.2.10,Win32,60,60675255c767bca6388caeee,17.24610209,16.6795092,16.67305405,16.69029568,16.67004471,16.6795092,,,,,,,,,,,,,,,,,,,,PF,3,strong,,,,,,,,7,1.201105,,,,,,,,,,,,,,,,,,,,,,,,,,,,4,strong,32,54,1,0,0,response1disk,9,62,17,-2,1,0,0,rectangle,17,-2,1,0,0,7,6,0.00049,17,-2,1,0,0,0,61,61,90,1,0,,,,,,,,,,,,,,,,,,,,,
,,,,,,,,,,,,,,,,,,,,,,,,,,,,,,,,,,,,,,,,,,602b7ef25103a629e2004d70,606a0f057f6602c70cdb596d,2021-04-04_21h10.33.685,Colour_Similarity_Experiment,2020.2.10,Win32,60,60675255c767bca6388caeee,17.24610209,16.6795092,16.67305405,16.69029568,16.67004471,16.6795092,,,,,,,,,,,,,,,,,,,,PF,3,strong,,,,,,,,4,1.31857,,,,,,,,,,,,,,,,,,,,,,,,,,,,9,strong,26,-48,1,0,0,response3disk,7,63,13,-11,1,0,0,rectangle,13,-11,1,0,0,7,7,0.00384,13,-11,1,0,0,0,62,62,100,1,0,,,,,,,,,,,,,,,,,,,,,
,,,,,,,,,,,,,,,,,,,,,,,,,,,,,,,,,,,,,,,,,,602b7ef25103a629e2004d70,606a0f057f6602c70cdb596d,2021-04-04_21h10.33.685,Colour_Similarity_Experiment,2020.2.10,Win32,60,60675255c767bca6388caeee,17.24610209,16.6795092,16.67305405,16.69029568,16.67004471,16.6795092,,,,,,,,,,,,,,,,,,,,PF,3,strong,,,,,,,,4,1.133965,,,,,,,,,,,,,,,,,,,,,,,,,,,,2,strong,21,-32,1,0,0,response3disk,9,64,14,-7,1,0,0,rectangle,14,-7,1,0,0,7,5,0.00272,14,-7,1,0,0,0,63,63,72,1,0,,,,,,,,,,,,,,,,,,,,,
,,,,,,,,,,,,,,,,,,,,,,,,,,,,,,,,,,,,,,,,,,602b7ef25103a629e2004d70,606a0f057f6602c70cdb596d,2021-04-04_21h10.33.685,Colour_Similarity_Experiment,2020.2.10,Win32,60,60675255c767bca6388caeee,17.24610209,16.6795092,16.67305405,16.69029568,16.67004471,16.6795092,,,,,,,,,,,,,,,,,,,,PF,3,strong,,,,,,,,7,3.151825,,,,,,,,,,,,,,,,,,,,,,,,,,,,7,strong,32,37,1,0,0,response1disk,3,65,17,-2,1,0,0,rectangle,17,-2,1,0,0,7,3,0.0036,17,-2,1,0,0,0,64,64,73,1,0,,,,,,,,,,,,,,,,,,,,,
,,,,,,,,,,,,,,,,,,,,,,,,,,,,,,,,,,,,,,,,,,602b7ef25103a629e2004d70,606a0f057f6602c70cdb596d,2021-04-04_21h10.33.685,Colour_Similarity_Experiment,2020.2.10,Win32,60,60675255c767bca6388caeee,17.24610209,16.6795092,16.67305405,16.69029568,16.67004471,16.6795092,,,,,,,,,,,,,,,,,,,,PF,3,strong,,,,,,,,7,1.534895,,,,,,,,,,,,,,,,,,,,,,,,,,,,1,strong,18,55,1,0,0,response1disk,9,66,5,-8,1,0,0,rectangle,5,-8,1,0,0,7,1,0.00334,5,-8,1,0,0,0,65,65,123,1,0,,,,,,,,,,,,,,,,,,,,,
,,,,,,,,,,,,,,,,,,,,,,,,,,,,,,,,,,,,,,,,,,602b7ef25103a629e2004d70,606a0f057f6602c70cdb596d,2021-04-04_21h10.33.685,Colour_Similarity_Experiment,2020.2.10,Win32,60,60675255c767bca6388caeee,17.24610209,16.6795092,16.67305405,16.69029568,16.67004471,16.6795092,,,,,,,,,,,,,,,,,,,,PF,3,strong,,,,,,,,3,1.852405,,,,,,,,,,,,,,,,,,,,,,,,,,,,9,strong,-47,-72,1,0,0,response5disk,8,67,7,-10,1,0,0,rectangle,7,-10,1,0,0,7,1,0.00057,7,-10,1,0,0,0,66,66,6,1,0,,,,,,,,,,,,,,,,,,,,,
,,,,,,,,,,,,,,,,,,,,,,,,,,,,,,,,,,,,,,,,,,602b7ef25103a629e2004d70,606a0f057f6602c70cdb596d,2021-04-04_21h10.33.685,Colour_Similarity_Experiment,2020.2.10,Win32,60,60675255c767bca6388caeee,17.24610209,16.6795092,16.67305405,16.69029568,16.67004471,16.6795092,,,,,,,,,,,,,,,,,,,,PF,3,weak,,,,,,,,0,1.43266,,,,,,,,,,,,,,,,,,,,,,,,,,,,4,weak,-23,49,1,0,0,response7disk,8,68,-2,-3,1,0,0,rectangle,-2,-3,1,0,0,7,6,0.00256,-2,-3,1,0,0,0,67,67,124,1,0,,,,,,,,,,,,,,,,,,,,,
,,,,,,,,,,,,,,,,,,,,,,,,,,,,,,,,,,,,,,,,,,602b7ef25103a629e2004d70,606a0f057f6602c70cdb596d,2021-04-04_21h10.33.685,Colour_Similarity_Experiment,2020.2.10,Win32,60,60675255c767bca6388caeee,17.24610209,16.6795092,16.67305405,16.69029568,16.67004471,16.6795092,,,,,,,,,,,,,,,,,,,,PF,3,weak,,,,,,,,7,1.37339,,,,,,,,,,,,,,,,,,,,,,,,,,,,8,weak,24,56,1,0,0,response1disk,4,69,8,1,1,0,0,rectangle,8,1,1,0,0,7,1,0.00251,8,1,1,0,0,0,68,68,78,1,0,,,,,,,,,,,,,,,,,,,,,
,,,,,,,,,,,,,,,,,,,,,,,,,,,,,,,,,,,,,,,,,,602b7ef25103a629e2004d70,606a0f057f6602c70cdb596d,2021-04-04_21h10.33.685,Colour_Similarity_Experiment,2020.2.10,Win32,60,60675255c767bca6388caeee,17.24610209,16.6795092,16.67305405,16.69029568,16.67004471,16.6795092,,,,,,,,,,,,,,,,,,,,PF,3,weak,,,,,,,,4,3.41437,,,,,,,,,,,,,,,,,,,,,,,,,,,,6,weak,32,-43,1,0,0,response3disk,6,70,16,-10,1,0,0,rectangle,16,-10,1,0,0,7,7,0.003435,16,-10,1,0,0,0,69,69,0,1,0,,,,,,,,,,,,,,,,,,,,,
,,,,,,,,,,,,,,,,,,,,,,,,,,,,,,,,,,,,,,,,,,602b7ef25103a629e2004d70,606a0f057f6602c70cdb596d,2021-04-04_21h10.33.685,Colour_Similarity_Experiment,2020.2.10,Win32,60,60675255c767bca6388caeee,17.24610209,16.6795092,16.67305405,16.69029568,16.67004471,16.6795092,,,,,,,,,,,,,,,,,,,,PF,3,weak,,,,,,,,2,1.550835,,,,,,,,,,,,,,,,,,,,,,,,,,,,6,weak,-36,-28,1,0,0,response5disk,7,71,4,-6,1,0,0,rectangle,4,-6,1,0,0,7,3,0.003685,4,-6,1,0,0,0,70,70,50,1,0,,,,,,,,,,,,,,,,,,,,,
,,,,,,,,,,,,,,,,,,,,,,,,,,,,,,,,,,,,,,,,,,602b7ef25103a629e2004d70,606a0f057f6602c70cdb596d,2021-04-04_21h10.33.685,Colour_Similarity_Experiment,2020.2.10,Win32,60,60675255c767bca6388caeee,17.24610209,16.6795092,16.67305405,16.69029568,16.67004471,16.6795092,,,,,,,,,,,,,,,,,,,,PF,3,strong,,,,,,,,2,1.21831,,,,,,,,,,,,,,,,,,,,,,,,,,,,6,strong,-47,-37,1,0,0,response5disk,5,72,-3,-7,1,0,0,rectangle,-3,-7,1,0,0,7,3,0.000705,-3,-7,1,0,0,0,71,71,126,1,0,,,,,,,,,,,,,,,,,,,,,
,,,,,,,,,,,,,,,,,,,,,,,,,,,,,,,,,,,,,,,,,,602b7ef25103a629e2004d70,606a0f057f6602c70cdb596d,2021-04-04_21h10.33.685,Colour_Similarity_Experiment,2020.2.10,Win32,60,60675255c767bca6388caeee,17.24610209,16.6795092,16.67305405,16.69029568,16.67004471,16.6795092,,,,,,,,,,,,,,,,,,,,PF,3,weak,,,,,,,,3,1.6484,,,,,,,,,,,,,,,,,,,,,,,,,,,,3,weak,-18,-47,1,0,0,response5disk,7,73,11,-5,1,0,0,rectangle,11,-5,1,0,0,7,2,0.002535,11,-5,1,0,0,0,72,72,41,1,0,,,,,,,,,,,,,,,,,,,,,
,,,,,,,,,,,,,,,,,,,,,,,,,,,,,,,,,,,,,,,,,,602b7ef25103a629e2004d70,606a0f057f6602c70cdb596d,2021-04-04_21h10.33.685,Colour_Similarity_Experiment,2020.2.10,Win32,60,60675255c767bca6388caeee,17.24610209,16.6795092,16.67305405,16.69029568,16.67004471,16.6795092,,,,,,,,,,,,,,,,,,,,PF,3,strong,,,,,,,,5,1.399175,,,,,,,,,,,,,,,,,,,,,,,,,,,,2,strong,38,-34,1,0,0,response3disk,8,74,8,-7,1,0,0,rectangle,8,-7,1,0,0,7,1,0.00375,8,-7,1,0,0,0,73,73,62,1,0,,,,,,,,,,,,,,,,,,,,,
,,,,,,,,,,,,,,,,,,,,,,,,,,,,,,,,,,,,,,,,,,602b7ef25103a629e2004d70,606a0f057f6602c70cdb596d,2021-04-04_21h10.33.685,Colour_Similarity_Experiment,2020.2.10,Win32,60,60675255c767bca6388caeee,17.24610209,16.6795092,16.67305405,16.69029568,16.67004471,16.6795092,,,,,,,,,,,,,,,,,,,,PF,3,strong,,,,,,,,4,2.05607,,,,,,,,,,,,,,,,,,,,,,,,,,,,8,strong,30,-48,1,0,0,response3disk,7,75,10,4,1,0,0,rectangle,10,4,1,0,0,7,7,0.00334,10,4,1,0,0,0,74,74,86,1,0,,,,,,,,,,,,,,,,,,,,,
,,,,,,,,,,,,,,,,,,,,,,,,,,,,,,,,,,,,,,,,,,602b7ef25103a629e2004d70,606a0f057f6602c70cdb596d,2021-04-04_21h10.33.685,Colour_Similarity_Experiment,2020.2.10,Win32,60,60675255c767bca6388caeee,17.24610209,16.6795092,16.67305405,16.69029568,16.67004471,16.6795092,,,,,,,,,,,,,,,,,,,,PF,3,weak,,,,,,,,4,1.117455,,,,,,,,,,,,,,,,,,,,,,,,,,,,6,weak,28,-43,1,0,0,response3disk,8,76,6,4,1,0,0,rectangle,6,4,1,0,0,7,1,0.002565,6,4,1,0,0,0,75,75,64,1,0,,,,,,,,,,,,,,,,,,,,,
,,,,,,,,,,,,,,,,,,,,,,,,,,,,,,,,,,,,,,,,,,602b7ef25103a629e2004d70,606a0f057f6602c70cdb596d,2021-04-04_21h10.33.685,Colour_Similarity_Experiment,2020.2.10,Win32,60,60675255c767bca6388caeee,17.24610209,16.6795092,16.67305405,16.69029568,16.67004471,16.6795092,,,,,,,,,,,,,,,,,,,,PF,3,weak,,,,,,,,2,2.15185,,,,,,,,,,,,,,,,,,,,,,,,,,,,5,weak,-38,-32,1,0,0,response5disk,9,77,-11,-3,1,0,0,rectangle,36,-51,1,0,0,4,4,2.587565,19,-2,1,0,0,0,76,76,136,1,1,response3disk_3,rectangle,,,,,,,,,,,,,,,,,,,
,,,,,,,,,,,,,,,,,,,,,,,,,,,,,,,,,,,,,,,,,,602b7ef25103a629e2004d70,606a0f057f6602c70cdb596d,2021-04-04_21h10.33.685,Colour_Similarity_Experiment,2020.2.10,Win32,60,60675255c767bca6388caeee,17.24610209,16.6795092,16.67305405,16.69029568,16.67004471,16.6795092,,,,,,,,,,,,,,,,,,,,PF,3,weak,,,,,,,,4,1.218925,,,,,,,,,,,,,,,,,,,,,,,,,,,,8,weak,22,-27,1,0,0,response3disk,7,78,12,0,1,0,0,rectangle,12,0,1,0,0,4,3,0.002885,12,0,1,0,0,0,77,77,23,1,0,,,,,,,,,,,,,,,,,,,,,
,,,,,,,,,,,,,,,,,,,,,,,,,,,,,,,,,,,,,,,,,,602b7ef25103a629e2004d70,606a0f057f6602c70cdb596d,2021-04-04_21h10.33.685,Colour_Similarity_Experiment,2020.2.10,Win32,60,60675255c767bca6388caeee,17.24610209,16.6795092,16.67305405,16.69029568,16.67004471,16.6795092,,,,,,,,,,,,,,,,,,,,PF,3,weak,,,,,,,,7,1.234305,,,,,,,,,,,,,,,,,,,,,,,,,,,,8,weak,15,50,1,0,0,response1disk,2,79,13,10,1,0,0,rectangle,13,10,1,0,0,4,7,0.003615,13,10,1,0,0,0,78,78,83,1,0,,,,,,,,,,,,,,,,,,,,,
,,,,,,,,,,,,,,,,,,,,,,,,,,,,,,,,,,,,,,,,,,602b7ef25103a629e2004d70,606a0f057f6602c70cdb596d,2021-04-04_21h10.33.685,Colour_Similarity_Experiment,2020.2.10,Win32,60,60675255c767bca6388caeee,17.24610209,16.6795092,16.67305405,16.69029568,16.67004471,16.6795092,,,,,,,,,,,,,,,,,,,,PF,3,strong,,,,,,,,7,1.184685,,,,,,,,,,,,,,,,,,,,,,,,,,,,1,strong,20,43,1,0,0,response1disk,7,80,7,-2,1,0,0,rectangle,7,-2,1,0,0,4,1,0.00387,7,-2,1,0,0,0,79,79,137,1,0,,,,,,,,,,,,,,,,,,,,,
,,,,,,,,,,,,,,,,,,,,,,,,,,,,,,,,,,,,,,,,,,602b7ef25103a629e2004d70,606a0f057f6602c70cdb596d,2021-04-04_21h10.33.685,Colour_Similarity_Experiment,2020.2.10,Win32,60,60675255c767bca6388caeee,17.24610209,16.6795092,16.67305405,16.69029568,16.67004471,16.6795092,,,,,,,,,,,,,,,,,,,,PF,3,weak,,,,,,,,7,0.915975,,,,,,,,,,,,,,,,,,,,,,,,,,,,5,weak,35,59,1,0,0,response1disk,2,81,-10,-3,1,0,0,rectangle,-10,-3,1,0,0,4,6,0.00346,-10,-3,1,0,0,0,80,80,129,1,0,,,,,,,,,,,,,,,,,,,,,
,,,,,,,,,,,,,,,,,,,,,,,,,,,,,,,,,,,,,,,,,,602b7ef25103a629e2004d70,606a0f057f6602c70cdb596d,2021-04-04_21h10.33.685,Colour_Similarity_Experiment,2020.2.10,Win32,60,60675255c767bca6388caeee,17.24610209,16.6795092,16.67305405,16.69029568,16.67004471,16.6795092,,,,,,,,,,,,,,,,,,,,PF,3,strong,,,,,,,,2,1.38455,,,,,,,,,,,,,,,,,,,,,,,,,,,,1,strong,-55,-33,1,0,0,response5disk,3,82,-15,6,1,0,0,rectangle,-15,6,1,0,0,4,2,0.00347,-15,6,1,0,0,0,81,81,99,1,0,,,,,,,,,,,,,,,,,,,,,
,,,,,,,,,,,,,,,,,,,,,,,,,,,,,,,,,,,,,,,,,,602b7ef25103a629e2004d70,606a0f057f6602c70cdb596d,2021-04-04_21h10.33.685,Colour_Similarity_Experiment,2020.2.10,Win32,60,60675255c767bca6388caeee,17.24610209,16.6795092,16.67305405,16.69029568,16.67004471,16.6795092,,,,,,,,,,,,,,,,,,,,PF,3,strong,,,,,,,,7,0.95076,,,,,,,,,,,,,,,,,,,,,,,,,,,,5,strong,28,57,1,0,0,response1disk,6,83,18,10,1,0,0,rectangle,18,10,1,0,0,4,0,0.00291,18,10,1,0,0,0,82,82,12,1,0,,,,,,,,,,,,,,,,,,,,,
,,,,,,,,,,,,,,,,,,,,,,,,,,,,,,,,,,,,,,,,,,602b7ef25103a629e2004d70,606a0f057f6602c70cdb596d,2021-04-04_21h10.33.685,Colour_Similarity_Experiment,2020.2.10,Win32,60,60675255c767bca6388caeee,17.24610209,16.6795092,16.67305405,16.69029568,16.67004471,16.6795092,,,,,,,,,,,,,,,,,,,,PF,3,weak,,,,,,,,2,1.40091,,,,,,,,,,,,,,,,,,,,,,,,,,,,5,weak,-72,-33,1,0,0,response5disk,5,84,-23,4,1,0,0,rectangle,-23,4,1,0,0,4,5,0.003485,-23,4,1,0,0,0,83,83,94,1,0,,,,,,,,,,,,,,,,,,,,,
,,,,,,,,,,,,,,,,,,,,,,,,,,,,,,,,,,,,,,,,,,602b7ef25103a629e2004d70,606a0f057f6602c70cdb596d,2021-04-04_21h10.33.685,Colour_Similarity_Experiment,2020.2.10,Win32,60,60675255c767bca6388caeee,17.24610209,16.6795092,16.67305405,16.69029568,16.67004471,16.6795092,,,,,,,,,,,,,,,,,,,,PF,3,weak,,,,,,,,7,0.98493,,,,,,,,,,,,,,,,,,,,,,,,,,,,2,weak,25,37,1,0,0,response1disk,2,85,11,2,1,0,0,rectangle,11,2,1,0,0,4,5,0.000545,11,2,1,0,0,0,84,84,14,1,0,,,,,,,,,,,,,,,,,,,,,
,,,,,,,,,,,,,,,,,,,,,,,,,,,,,,,,,,,,,,,,,,602b7ef25103a629e2004d70,606a0f057f6602c70cdb596d,2021-04-04_21h10.33.685,Colour_Similarity_Experiment,2020.2.10,Win32,60,60675255c767bca6388caeee,17.24610209,16.6795092,16.67305405,16.69029568,16.67004471,16.6795092,,,,,,,,,,,,,,,,,,,,PF,3,strong,,,,,,,,0,0.901625,,,,,,,,,,,,,,,,,,,,,,,,,,,,8,strong,-24,48,1,0,0,response7disk,2,86,-8,11,1,0,0,rectangle,-8,11,1,0,0,4,7,0.003305,-8,11,1,0,0,0,85,85,22,1,0,,,,,,,,,,,,,,,,,,,,,
,,,,,,,,,,,,,,,,,,,,,,,,,,,,,,,,,,,,,,,,,,602b7ef25103a629e2004d70,606a0f057f6602c70cdb596d,2021-04-04_21h10.33.685,Colour_Similarity_Experiment,2020.2.10,Win32,60,60675255c767bca6388caeee,17.24610209,16.6795092,16.67305405,16.69029568,16.67004471,16.6795092,,,,,,,,,,,,,,,,,,,,PF,3,strong,,,,,,,,7,0.81856,,,,,,,,,,,,,,,,,,,,,,,,,,,,2,strong,17,51,1,0,0,response1disk,7,87,13,11,1,0,0,rectangle,13,11,1,0,0,4,2,0.003445,13,11,1,0,0,0,86,86,63,1,0,,,,,,,,,,,,,,,,,,,,,
,,,,,,,,,,,,,,,,,,,,,,,,,,,,,,,,,,,,,,,,,,602b7ef25103a629e2004d70,606a0f057f6602c70cdb596d,2021-04-04_21h10.33.685,Colour_Similarity_Experiment,2020.2.10,Win32,60,60675255c767bca6388caeee,17.24610209,16.6795092,16.67305405,16.69029568,16.67004471,16.6795092,,,,,,,,,,,,,,,,,,,,PF,3,strong,,,,,,,,7,2.317515,,,,,,,,,,,,,,,,,,,,,,,,,,,,8,strong,30,53,1,0,0,response1disk,9,88,15,8,1,0,0,rectangle,15,8,1,0,0,4,2,0.00051,15,8,1,0,0,0,87,87,105,1,0,,,,,,,,,,,,,,,,,,,,,
,,,,,,,,,,,,,,,,,,,,,,,,,,,,,,,,,,,,,,,,,,602b7ef25103a629e2004d70,606a0f057f6602c70cdb596d,2021-04-04_21h10.33.685,Colour_Similarity_Experiment,2020.2.10,Win32,60,60675255c767bca6388caeee,17.24610209,16.6795092,16.67305405,16.69029568,16.67004471,16.6795092,,,,,,,,,,,,,,,,,,,,PF,3,strong,,,,,,,,7,1.13351,,,,,,,,,,,,,,,,,,,,,,,,,,,,5,strong,24,44,1,0,0,response1disk,3,89,11,5,1,0,0,rectangle,11,5,1,0,0,4,0,0.00341,11,5,1,0,0,0,88,88,25,1,0,,,,,,,,,,,,,,,,,,,,,
,,,,,,,,,,,,,,,,,,,,,,,,,,,,,,,,,,,,,,,,,,602b7ef25103a629e2004d70,606a0f057f6602c70cdb596d,2021-04-04_21h10.33.685,Colour_Similarity_Experiment,2020.2.10,Win32,60,60675255c767bca6388caeee,17.24610209,16.6795092,16.67305405,16.69029568,16.67004471,16.6795092,,,,,,,,,,,,,,,,,,,,PF,3,weak,,,,,,,,0,0.979275,,,,,,,,,,,,,,,,,,,,,,,,,,,,1,weak,-27,62,1,0,0,response7disk,3,90,-4,11,1,0,0,rectangle,-4,11,1,0,0,4,4,0.00254,-4,11,1,0,0,0,89,89,1,1,0,,,,,,,,,,,,,,,,,,,,,
,,,,,,,,,,,,,,,,,,,,,,,,,,,,,,,,,,,,,,,,,,602b7ef25103a629e2004d70,606a0f057f6602c70cdb596d,2021-04-04_21h10.33.685,Colour_Similarity_Experiment,2020.2.10,Win32,60,60675255c767bca6388caeee,17.24610209,16.6795092,16.67305405,16.69029568,16.67004471,16.6795092,,,,,,,,,,,,,,,,,,,,PF,3,strong,,,,,,,,7,3.168815,,,,,,,,,,,,,,,,,,,,,,,,,,,,1,strong,20,52,1,0,0,response1disk,1,91,3,8,1,0,0,rectangle,3,8,1,0,0,4,7,0.00336,3,8,1,0,0,0,90,90,151,1,0,,,,,,,,,,,,,,,,,,,,,
,,,,,,,,,,,,,,,,,,,,,,,,,,,,,,,,,,,,,,,,,,602b7ef25103a629e2004d70,606a0f057f6602c70cdb596d,2021-04-04_21h10.33.685,Colour_Similarity_Experiment,2020.2.10,Win32,60,60675255c767bca6388caeee,17.24610209,16.6795092,16.67305405,16.69029568,16.67004471,16.6795092,,,,,,,,,,,,,,,,,,,,PF,3,strong,,,,,,,,4,2.36908,,,,,,,,,,,,,,,,,,,,,,,,,,,,3,strong,41,-64,1,0,0,response3disk,2,92,20,-4,1,0,0,rectangle,20,-4,1,0,0,4,4,0.003715,20,-4,1,0,0,0,91,91,93,1,0,,,,,,,,,,,,,,,,,,,,,
,,,,,,,,,,,,,,,,,,,,,,,,,,,,,,,,,,,,,,,,,,602b7ef25103a629e2004d70,606a0f057f6602c70cdb596d,2021-04-04_21h10.33.685,Colour_Similarity_Experiment,2020.2.10,Win32,60,60675255c767bca6388caeee,17.24610209,16.6795092,16.67305405,16.69029568,16.67004471,16.6795092,,,,,,,,,,,,,,,,,,,,PF,3,strong,,,,,,,,7,0.93462,,,,,,,,,,,,,,,,,,,,,,,,,,,,9,strong,28,46,1,0,0,response1disk,9,93,18,-6,1,0,0,rectangle,18,-6,1,0,0,4,3,0.00392,18,-6,1,0,0,0,92,92,17,1,0,,,,,,,,,,,,,,,,,,,,,
,,,,,,,,,,,,,,,,,,,,,,,,,,,,,,,,,,,,,,,,,,602b7ef25103a629e2004d70,606a0f057f6602c70cdb596d,2021-04-04_21h10.33.685,Colour_Similarity_Experiment,2020.2.10,Win32,60,60675255c767bca6388caeee,17.24610209,16.6795092,16.67305405,16.69029568,16.67004471,16.6795092,,,,,,,,,,,,,,,,,,,,PF,3,weak,,,,,,,,7,1.097465,,,,,,,,,,,,,,,,,,,,,,,,,,,,1,weak,26,47,1,0,0,response1disk,1,94,10,6,1,0,0,rectangle,22,-56,1,0,0,4,4,1.800305,7,1,1,0,0,0,93,93,76,1,1,response3disk_3,rectangle,,,,,,,,,,,,,,,,,,,
,,,,,,,,,,,,,,,,,,,,,,,,,,,,,,,,,,,,,,,,,,602b7ef25103a629e2004d70,606a0f057f6602c70cdb596d,2021-04-04_21h10.33.685,Colour_Similarity_Experiment,2020.2.10,Win32,60,60675255c767bca6388caeee,17.24610209,16.6795092,16.67305405,16.69029568,16.67004471,16.6795092,,,,,,,,,,,,,,,,,,,,PF,3,strong,,,,,,,,7,0.83514,,,,,,,,,,,,,,,,,,,,,,,,,,,,6,strong,23,54,1,0,0,response1disk,6,95,10,-7,1,0,0,rectangle,10,-7,1,0,0,4,4,0.003085,10,-7,1,0,0,0,94,94,91,1,0,,,,,,,,,,,,,,,,,,,,,
,,,,,,,,,,,,,,,,,,,,,,,,,,,,,,,,,,,,,,,,,,602b7ef25103a629e2004d70,606a0f057f6602c70cdb596d,2021-04-04_21h10.33.685,Colour_Similarity_Experiment,2020.2.10,Win32,60,60675255c767bca6388caeee,17.24610209,16.6795092,16.67305405,16.69029568,16.67004471,16.6795092,,,,,,,,,,,,,,,,,,,,PF,3,weak,,,,,,,,1,1.410985,,,,,,,,,,,,,,,,,,,,,,,,,,,,9,weak,-72,33,1,0,0,response7disk,5,96,-23,4,1,0,0,rectangle,-23,4,1,0,0,4,7,0.002435,-23,4,1,0,0,0,95,95,134,1,0,,,,,,,,,,,,,,,,,,,,,
,,,,,,,,,,,,,,,,,,,,,,,,,,,,,,,,,,,,,,,,,,602b7ef25103a629e2004d70,606a0f057f6602c70cdb596d,2021-04-04_21h10.33.685,Colour_Similarity_Experiment,2020.2.10,Win32,60,60675255c767bca6388caeee,17.24610209,16.6795092,16.67305405,16.69029568,16.67004471,16.6795092,,,,,,,,,,,,,,,,,,,,PF,3,strong,,,,,,,,5,1.84773,,,,,,,,,,,,,,,,,,,,,,,,,,,,4,strong,53,-26,1,0,0,response3disk,3,97,21,5,1,0,0,rectangle,21,5,1,0,0,4,0,0.00301,21,5,1,0,0,0,96,96,77,1,0,,,,,,,,,,,,,,,,,,,,,
,,,,,,,,,,,,,,,,,,,,,,,,,,,,,,,,,,,,,,,,,,602b7ef25103a629e2004d70,606a0f057f6602c70cdb596d,2021-04-04_21h10.33.685,Colour_Similarity_Experiment,2020.2.10,Win32,60,60675255c767bca6388caeee,17.24610209,16.6795092,16.67305405,16.69029568,16.67004471,16.6795092,,,,,,,,,,,,,,,,,,,,PF,3,weak,,,,,,,,0,0.86764,,,,,,,,,,,,,,,,,,,,,,,,,,,,4,weak,-42,61,1,0,0,response7disk,3,98,-21,9,1,0,0,rectangle,-21,9,1,0,0,4,7,0.003365,-21,9,1,0,0,0,97,97,89,1,0,,,,,,,,,,,,,,,,,,,,,
,,,,,,,,,,,,,,,,,,,,,,,,,,,,,,,,,,,,,,,,,,602b7ef25103a629e2004d70,606a0f057f6602c70cdb596d,2021-04-04_21h10.33.685,Colour_Similarity_Experiment,2020.2.10,Win32,60,60675255c767bca6388caeee,17.24610209,16.6795092,16.67305405,16.69029568,16.67004471,16.6795092,,,,,,,,,,,,,,,,,,,,PF,3,strong,,,,,,,,3,2.46818,,,,,,,,,,,,,,,,,,,,,,,,,,,,4,strong,-25,-37,1,0,0,response5disk,2,99,-10,-10,1,0,0,rectangle,-10,-10,1,0,0,4,7,0.000565,-10,-10,1,0,0,0,98,98,13,1,0,,,,,,,,,,,,,,,,,,,,,
,,,,,,,,,,,,,,,,,,,,,,,,,,,,,,,,,,,,,,,,,,602b7ef25103a629e2004d70,606a0f057f6602c70cdb596d,2021-04-04_21h10.33.685,Colour_Similarity_Experiment,2020.2.10,Win32,60,60675255c767bca6388caeee,17.24610209,16.6795092,16.67305405,16.69029568,16.67004471,16.6795092,,,,,,,,,,,,,,,,,,,,PF,3,weak,,,,,,,,7,1.584595,,,,,,,,,,,,,,,,,,,,,,,,,,,,1,weak,23,60,1,0,0,response1disk,4,100,8,0,1,0,0,rectangle,8,0,1,0,0,4,7,0.00046,8,0,1,0,0,0,99,99,139,1,0,,,,,,,,,,,,,,,,,,,,,
,,,,,,,,,,,,,,,,,,,,,,,,,,,,,,,,,,,,,,,,,,602b7ef25103a629e2004d70,606a0f057f6602c70cdb596d,2021-04-04_21h10.33.685,Colour_Similarity_Experiment,2020.2.10,Win32,60,60675255c767bca6388caeee,17.24610209,16.6795092,16.67305405,16.69029568,16.67004471,16.6795092,,,,,,,,,,,,,,,,,,,,PF,3,weak,,,,,,,,5,1.835095,,,,,,,,,,,,,,,,,,,,,,,,,,,,4,weak,27,-17,1,0,0,response3disk,5,101,24,-4,1,0,0,rectangle,24,-4,1,0,0,4,3,0.003375,24,-4,1,0,0,0,100,100,49,1,0,,,,,,,,,,,,,,,,,,,,,
,,,,,,,,,,,,,,,,,,,,,,,,,,,,,,,,,,,,,,,,,,602b7ef25103a629e2004d70,606a0f057f6602c70cdb596d,2021-04-04_21h10.33.685,Colour_Similarity_Experiment,2020.2.10,Win32,60,60675255c767bca6388caeee,17.24610209,16.6795092,16.67305405,16.69029568,16.67004471,16.6795092,,,,,,,,,,,,,,,,,,,,PF,3,weak,,,,,,,,4,2.43401,,,,,,,,,,,,,,,,,,,,,,,,,,,,8,weak,17,-49,1,0,0,response3disk,9,102,18,-7,1,0,0,rectangle,18,-7,1,0,0,4,6,0.003385,18,-7,1,0,0,0,101,101,42,1,0,,,,,,,,,,,,,,,,,,,,,
,,,,,,,,,,,,,,,,,,,,,,,,,,,,,,,,,,,,,,,,,,602b7ef25103a629e2004d70,606a0f057f6602c70cdb596d,2021-04-04_21h10.33.685,Colour_Similarity_Experiment,2020.2.10,Win32,60,60675255c767bca6388caeee,17.24610209,16.6795092,16.67305405,16.69029568,16.67004471,16.6795092,,,,,,,,,,,,,,,,,,,,PF,3,weak,,,,,,,,6,3.06863,,,,,,,,,,,,,,,,,,,,,,,,,,,,1,weak,34,22,1,0,0,response1disk,7,103,22,2,1,0,0,rectangle,22,2,1,0,0,4,2,0.00358,22,2,1,0,0,0,102,102,150,1,0,,,,,,,,,,,,,,,,,,,,,
,,,,,,,,,,,,,,,,,,,,,,,,,,,,,,,,,,,,,,,,,,602b7ef25103a629e2004d70,606a0f057f6602c70cdb596d,2021-04-04_21h10.33.685,Colour_Similarity_Experiment,2020.2.10,Win32,60,60675255c767bca6388caeee,17.24610209,16.6795092,16.67305405,16.69029568,16.67004471,16.6795092,,,,,,,,,,,,,,,,,,,,PF,3,weak,,,,,,,,4,6.01971,,,,,,,,,,,,,,,,,,,,,,,,,,,,3,weak,21,-34,1,0,0,response3disk,4,104,15,-5,1,0,0,rectangle,15,-5,1,0,0,4,3,0.003365,15,-5,1,0,0,0,103,103,30,1,0,,,,,,,,,,,,,,,,,,,,,
,,,,,,,,,,,,,,,,,,,,,,,,,,,,,,,,,,,,,,,,,,602b7ef25103a629e2004d70,606a0f057f6602c70cdb596d,2021-04-04_21h10.33.685,Colour_Similarity_Experiment,2020.2.10,Win32,60,60675255c767bca6388caeee,17.24610209,16.6795092,16.67305405,16.69029568,16.67004471,16.6795092,,,,,,,,,,,,,,,,,,,,PF,3,weak,,,,,,,,4,2.835,,,,,,,,,,,,,,,,,,,,,,,,,,,,3,weak,25,-41,1,0,0,response3disk,6,105,18,-9,1,0,0,rectangle,18,-9,1,0,0,4,4,0.0032,18,-9,1,0,0,0,104,104,47,1,0,,,,,,,,,,,,,,,,,,,,,
,,,,,,,,,,,,,,,,,,,,,,,,,,,,,,,,,,,,,,,,,,602b7ef25103a629e2004d70,606a0f057f6602c70cdb596d,2021-04-04_21h10.33.685,Colour_Similarity_Experiment,2020.2.10,Win32,60,60675255c767bca6388caeee,17.24610209,16.6795092,16.67305405,16.69029568,16.67004471,16.6795092,,,,,,,,,,,,,,,,,,,,PF,3,weak,,,,,,,,7,2.735825,,,,,,,,,,,,,,,,,,,,,,,,,,,,9,weak,21,60,1,0,0,response1disk,8,106,6,-2,1,0,0,rectangle,6,-2,1,0,0,4,1,0.00268,6,-2,1,0,0,0,105,105,67,1,0,,,,,,,,,,,,,,,,,,,,,
,,,,,,,,,,,,,,,,,,,,,,,,,,,,,,,,,,,,,,,,,,602b7ef25103a629e2004d70,606a0f057f6602c70cdb596d,2021-04-04_21h10.33.685,Colour_Similarity_Experiment,2020.2.10,Win32,60,60675255c767bca6388caeee,17.24610209,16.6795092,16.67305405,16.69029568,16.67004471,16.6795092,,,,,,,,,,,,,,,,,,,,PF,3,strong,,,,,,,,5,1.317215,,,,,,,,,,,,,,,,,,,,,,,,,,,,6,strong,36,-26,1,0,0,response3disk,7,107,11,-9,1,0,0,rectangle,11,-9,1,0,0,4,3,0.004005,11,-9,1,0,0,0,106,106,18,1,0,,,,,,,,,,,,,,,,,,,,,
,,,,,,,,,,,,,,,,,,,,,,,,,,,,,,,,,,,,,,,,,,602b7ef25103a629e2004d70,606a0f057f6602c70cdb596d,2021-04-04_21h10.33.685,Colour_Similarity_Experiment,2020.2.10,Win32,60,60675255c767bca6388caeee,17.24610209,16.6795092,16.67305405,16.69029568,16.67004471,16.6795092,,,,,,,,,,,,,,,,,,,,PF,3,strong,,,,,,,,6,1.77698,,,,,,,,,,,,,,,,,,,,,,,,,,,,5,strong,35,27,1,0,0,response1disk,7,108,21,6,1,0,0,rectangle,21,6,1,0,0,4,7,0.002075,21,6,1,0,0,0,107,107,7,1,0,,,,,,,,,,,,,,,,,,,,,
,,,,,,,,,,,,,,,,,,,,,,,,,,,,,,,,,,,,,,,,,,602b7ef25103a629e2004d70,606a0f057f6602c70cdb596d,2021-04-04_21h10.33.685,Colour_Similarity_Experiment,2020.2.10,Win32,60,60675255c767bca6388caeee,17.24610209,16.6795092,16.67305405,16.69029568,16.67004471,16.6795092,,,,,,,,,,,,,,,,,,,,PF,3,weak,,,,,,,,3,2.28485,,,,,,,,,,,,,,,,,,,,,,,,,,,,7,weak,-36,-48,1,0,0,response5disk,5,109,19,-12,1,0,0,rectangle,19,-12,1,0,0,4,1,0.003415,19,-12,1,0,0,0,108,108,92,1,0,,,,,,,,,,,,,,,,,,,,,
,,,,,,,,,,,,,,,,,,,,,,,,,,,,,,,,,,,,,,,,,,602b7ef25103a629e2004d70,606a0f057f6602c70cdb596d,2021-04-04_21h10.33.685,Colour_Similarity_Experiment,2020.2.10,Win32,60,60675255c767bca6388caeee,17.24610209,16.6795092,16.67305405,16.69029568,16.67004471,16.6795092,,,,,,,,,,,,,,,,,,,,PF,3,weak,,,,,,,,2,2.085205,,,,,,,,,,,,,,,,,,,,,,,,,,,,8,weak,-54,-32,1,0,0,response5disk,6,110,4,5,1,0,0,rectangle,49,-31,1,0,0,5,5,2.184065,19,-2,1,0,0,0,109,109,161,1,1,response3disk_3,rectangle,,,,,,,,,,,,,,,,,,,
,,,,,,,,,,,,,,,,,,,,,,,,,,,,,,,,,,,,,,,,,,602b7ef25103a629e2004d70,606a0f057f6602c70cdb596d,2021-04-04_21h10.33.685,Colour_Similarity_Experiment,2020.2.10,Win32,60,60675255c767bca6388caeee,17.24610209,16.6795092,16.67305405,16.69029568,16.67004471,16.6795092,,,,,,,,,,,,,,,,,,,,PF,3,weak,,,,,,,,5,2.117145,,,,,,,,,,,,,,,,,,,,,,,,,,,,2,weak,74,-31,1,0,0,response3disk,9,111,6,2,1,0,0,rectangle,6,2,1,0,0,5,5,0.000625,6,2,1,0,0,0,110,110,39,1,0,,,,,,,,,,,,,,,,,,,,,
,,,,,,,,,,,,,,,,,,,,,,,,,,,,,,,,,,,,,,,,,,602b7ef25103a629e2004d70,606a0f057f6602c70cdb596d,2021-04-04_21h10.33.685,Colour_Similarity_Experiment,2020.2.10,Win32,60,60675255c767bca6388caeee,17.24610209,16.6795092,16.67305405,16.69029568,16.67004471,16.6795092,,,,,,,,,,,,,,,,,,,,PF,3,weak,,,,,,,,7,1.04812,,,,,,,,,,,,,,,,,,,,,,,,,,,,9,weak,26,52,1,0,0,response1disk,2,112,15,7,1,0,0,rectangle,15,7,1,0,0,5,7,0.00388,15,7,1,0,0,0,111,111,157,1,0,,,,,,,,,,,,,,,,,,,,,
,,,,,,,,,,,,,,,,,,,,,,,,,,,,,,,,,,,,,,,,,,602b7ef25103a629e2004d70,606a0f057f6602c70cdb596d,2021-04-04_21h10.33.685,Colour_Similarity_Experiment,2020.2.10,Win32,60,60675255c767bca6388caeee,17.24610209,16.6795092,16.67305405,16.69029568,16.67004471,16.6795092,,,,,,,,,,,,,,,,,,,,PF,3,weak,,,,,,,,7,1.31752,,,,,,,,,,,,,,,,,,,,,,,,,,,,4,weak,32,48,1,0,0,response1disk,6,113,14,3,1,0,0,rectangle,14,3,1,0,0,5,5,0.00337,14,3,1,0,0,0,112,112,120,1,0,,,,,,,,,,,,,,,,,,,,,
,,,,,,,,,,,,,,,,,,,,,,,,,,,,,,,,,,,,,,,,,,602b7ef25103a629e2004d70,606a0f057f6602c70cdb596d,2021-04-04_21h10.33.685,Colour_Similarity_Experiment,2020.2.10,Win32,60,60675255c767bca6388caeee,17.24610209,16.6795092,16.67305405,16.69029568,16.67004471,16.6795092,,,,,,,,,,,,,,,,,,,,PF,3,weak,,,,,,,,3,2.72046,,,,,,,,,,,,,,,,,,,,,,,,,,,,2,weak,-22,-60,1,0,0,response5disk,4,114,13,0,1,0,0,rectangle,13,0,1,0,0,5,4,0.002825,13,0,1,0,0,0,113,113,127,1,0,,,,,,,,,,,,,,,,,,,,,
,,,,,,,,,,,,,,,,,,,,,,,,,,,,,,,,,,,,,,,,,,602b7ef25103a629e2004d70,606a0f057f6602c70cdb596d,2021-04-04_21h10.33.685,Colour_Similarity_Experiment,2020.2.10,Win32,60,60675255c767bca6388caeee,17.24610209,16.6795092,16.67305405,16.69029568,16.67004471,16.6795092,,,,,,,,,,,,,,,,,,,,PF,3,strong,,,,,,,,7,1.026535,,,,,,,,,,,,,,,,,,,,,,,,,,,,7,strong,31,56,1,0,0,response1disk,1,115,5,14,1,0,0,rectangle,5,14,1,0,0,5,6,0.002635,5,14,1,0,0,0,114,114,132,1,0,,,,,,,,,,,,,,,,,,,,,
,,,,,,,,,,,,,,,,,,,,,,,,,,,,,,,,,,,,,,,,,,602b7ef25103a629e2004d70,606a0f057f6602c70cdb596d,2021-04-04_21h10.33.685,Colour_Similarity_Experiment,2020.2.10,Win32,60,60675255c767bca6388caeee,17.24610209,16.6795092,16.67305405,16.69029568,16.67004471,16.6795092,,,,,,,,,,,,,,,,,,,,PF,3,weak,,,,,,,,7,1.46727,,,,,,,,,,,,,,,,,,,,,,,,,,,,1,weak,36,48,1,0,0,response1disk,8,116,23,6,1,0,0,rectangle,23,6,1,0,0,5,3,0.00356,23,6,1,0,0,0,115,115,65,1,0,,,,,,,,,,,,,,,,,,,,,
,,,,,,,,,,,,,,,,,,,,,,,,,,,,,,,,,,,,,,,,,,602b7ef25103a629e2004d70,606a0f057f6602c70cdb596d,2021-04-04_21h10.33.685,Colour_Similarity_Experiment,2020.2.10,Win32,60,60675255c767bca6388caeee,17.24610209,16.6795092,16.67305405,16.69029568,16.67004471,16.6795092,,,,,,,,,,,,,,,,,,,,PF,3,weak,,,,,,,,5,2.24924,,,,,,,,,,,,,,,,,,,,,,,,,,,,8,weak,44,-29,1,0,0,response3disk,5,117,9,-2,1,0,0,rectangle,9,-2,1,0,0,5,3,0.00063,9,-2,1,0,0,0,116,116,98,1,0,,,,,,,,,,,,,,,,,,,,,
,,,,,,,,,,,,,,,,,,,,,,,,,,,,,,,,,,,,,,,,,,602b7ef25103a629e2004d70,606a0f057f6602c70cdb596d,2021-04-04_21h10.33.685,Colour_Similarity_Experiment,2020.2.10,Win32,60,60675255c767bca6388caeee,17.24610209,16.6795092,16.67305405,16.69029568,16.67004471,16.6795092,,,,,,,,,,,,,,,,,,,,PF,3,strong,,,,,,,,5,2.820365,,,,,,,,,,,,,,,,,,,,,,,,,,,,6,strong,47,-20,1,0,0,response3disk,8,118,18,-7,1,0,0,rectangle,18,-7,1,0,0,5,0,0.00176,18,-7,1,0,0,0,117,117,133,1,0,,,,,,,,,,,,,,,,,,,,,
,,,,,,,,,,,,,,,,,,,,,,,,,,,,,,,,,,,,,,,,,,602b7ef25103a629e2004d70,606a0f057f6602c70cdb596d,2021-04-04_21h10.33.685,Colour_Similarity_Experiment,2020.2.10,Win32,60,60675255c767bca6388caeee,17.24610209,16.6795092,16.67305405,16.69029568,16.67004471,16.6795092,,,,,,,,,,,,,,,,,,,,PF,3,weak,,,,,,,,1,1.321685,,,,,,,,,,,,,,,,,,,,,,,,,,,,4,weak,-50,29,1,0,0,response7disk,9,119,-5,1,1,0,0,rectangle,-5,1,1,0,0,5,7,0.002385,-5,1,1,0,0,0,118,118,75,1,0,,,,,,,,,,,,,,,,,,,,,
,,,,,,,,,,,,,,,,,,,,,,,,,,,,,,,,,,,,,,,,,,602b7ef25103a629e2004d70,606a0f057f6602c70cdb596d,2021-04-04_21h10.33.685,Colour_Similarity_Experiment,2020.2.10,Win32,60,60675255c767bca6388caeee,17.24610209,16.6795092,16.67305405,16.69029568,16.67004471,16.6795092,,,,,,,,,,,,,,,,,,,,PF,3,weak,,,,,,,,5,2.36972,,,,,,,,,,,,,,,,,,,,,,,,,,,,2,weak,34,-22,1,0,0,response3disk,1,120,14,8,1,0,0,rectangle,14,8,1,0,0,5,7,0.000615,14,8,1,0,0,0,119,119,9,1,0,,,,,,,,,,,,,,,,,,,,,
,,,,,,,,,,,,,,,,,,,,,,,,,,,,,,,,,,,,,,,,,,602b7ef25103a629e2004d70,606a0f057f6602c70cdb596d,2021-04-04_21h10.33.685,Colour_Similarity_Experiment,2020.2.10,Win32,60,60675255c767bca6388caeee,17.24610209,16.6795092,16.67305405,16.69029568,16.67004471,16.6795092,,,,,,,,,,,,,,,,,,,,PF,3,weak,,,,,,,,4,2.948825,,,,,,,,,,,,,,,,,,,,,,,,,,,,8,weak,33,-43,1,0,0,response3disk,8,121,22,1,1,0,0,rectangle,22,1,1,0,0,5,3,0.00337,22,1,1,0,0,0,120,120,153,1,0,,,,,,,,,,,,,,,,,,,,,
,,,,,,,,,,,,,,,,,,,,,,,,,,,,,,,,,,,,,,,,,,602b7ef25103a629e2004d70,606a0f057f6602c70cdb596d,2021-04-04_21h10.33.685,Colour_Similarity_Experiment,2020.2.10,Win32,60,60675255c767bca6388caeee,17.24610209,16.6795092,16.67305405,16.69029568,16.67004471,16.6795092,,,,,,,,,,,,,,,,,,,,PF,3,weak,,,,,,,,4,2.590555,,,,,,,,,,,,,,,,,,,,,,,,,,,,7,weak,29,-58,1,0,0,response3disk,2,122,17,-6,1,0,0,rectangle,17,-6,1,0,0,5,2,0.002255,17,-6,1,0,0,0,121,121,32,1,0,,,,,,,,,,,,,,,,,,,,,
,,,,,,,,,,,,,,,,,,,,,,,,,,,,,,,,,,,,,,,,,,602b7ef25103a629e2004d70,606a0f057f6602c70cdb596d,2021-04-04_21h10.33.685,Colour_Similarity_Experiment,2020.2.10,Win32,60,60675255c767bca6388caeee,17.24610209,16.6795092,16.67305405,16.69029568,16.67004471,16.6795092,,,,,,,,,,,,,,,,,,,,PF,3,strong,,,,,,,,7,1.301,,,,,,,,,,,,,,,,,,,,,,,,,,,,3,strong,26,41,1,0,0,response1disk,7,123,9,3,1,0,0,rectangle,9,3,1,0,0,5,0,0.00371,9,3,1,0,0,0,122,122,118,1,0,,,,,,,,,,,,,,,,,,,,,
,,,,,,,,,,,,,,,,,,,,,,,,,,,,,,,,,,,,,,,,,,602b7ef25103a629e2004d70,606a0f057f6602c70cdb596d,2021-04-04_21h10.33.685,Colour_Similarity_Experiment,2020.2.10,Win32,60,60675255c767bca6388caeee,17.24610209,16.6795092,16.67305405,16.69029568,16.67004471,16.6795092,,,,,,,,,,,,,,,,,,,,PF,3,strong,,,,,,,,7,2.88599,,,,,,,,,,,,,,,,,,,,,,,,,,,,9,strong,17,32,1,0,0,response1disk,2,124,12,0,1,0,0,rectangle,-41,90,1,0,0,0,0,1.685005,-12,9,1,0,0,0,123,123,11,1,1,response7disk_3,rectangle,,,,,,,,,,,,,,,,,,,
,,,,,,,,,,,,,,,,,,,,,,,,,,,,,,,,,,,,,,,,,,602b7ef25103a629e2004d70,606a0f057f6602c70cdb596d,2021-04-04_21h10.33.685,Colour_Similarity_Experiment,2020.2.10,Win32,60,60675255c767bca6388caeee,17.24610209,16.6795092,16.67305405,16.69029568,16.67004471,16.6795092,,,,,,,,,,,,,,,,,,,,PF,3,weak,,,,,,,,7,1.60173,,,,,,,,,,,,,,,,,,,,,,,,,,,,6,weak,33,77,1,0,0,response1disk,4,125,10,13,1,0,0,rectangle,10,13,1,0,0,0,7,0.003685,10,13,1,0,0,0,124,124,33,1,0,,,,,,,,,,,,,,,,,,,,,
,,,,,,,,,,,,,,,,,,,,,,,,,,,,,,,,,,,,,,,,,,602b7ef25103a629e2004d70,606a0f057f6602c70cdb596d,2021-04-04_21h10.33.685,Colour_Similarity_Experiment,2020.2.10,Win32,60,60675255c767bca6388caeee,17.24610209,16.6795092,16.67305405,16.69029568,16.67004471,16.6795092,,,,,,,,,,,,,,,,,,,,PF,3,weak,,,,,,,,3,2.051885,,,,,,,,,,,,,,,,,,,,,,,,,,,,3,weak,-29,-33,1,0,0,response5disk,3,126,-12,-5,1,0,0,rectangle,-12,-5,1,0,0,0,7,0.000355,-12,-5,1,0,0,0,125,125,4,1,0,,,,,,,,,,,,,,,,,,,,,
,,,,,,,,,,,,,,,,,,,,,,,,,,,,,,,,,,,,,,,,,,602b7ef25103a629e2004d70,606a0f057f6602c70cdb596d,2021-04-04_21h10.33.685,Colour_Similarity_Experiment,2020.2.10,Win32,60,60675255c767bca6388caeee,17.24610209,16.6795092,16.67305405,16.69029568,16.67004471,16.6795092,,,,,,,,,,,,,,,,,,,,PF,3,weak,,,,,,,,7,1.09993,,,,,,,,,,,,,,,,,,,,,,,,,,,,2,weak,40,51,1,0,0,response1disk,8,127,19,-3,1,0,0,rectangle,19,-3,1,0,0,0,1,0.003505,19,-3,1,0,0,0,126,126,52,1,0,,,,,,,,,,,,,,,,,,,,,
,,,,,,,,,,,,,,,,,,,,,,,,,,,,,,,,,,,,,,,,,,602b7ef25103a629e2004d70,606a0f057f6602c70cdb596d,2021-04-04_21h10.33.685,Colour_Similarity_Experiment,2020.2.10,Win32,60,60675255c767bca6388caeee,17.24610209,16.6795092,16.67305405,16.69029568,16.67004471,16.6795092,,,,,,,,,,,,,,,,,,,,PF,3,strong,,,,,,,,7,1.400885,,,,,,,,,,,,,,,,,,,,,,,,,,,,3,strong,31,52,1,0,0,response1disk,3,128,0,-11,1,0,0,rectangle,0,-11,1,0,0,0,1,0.000655,0,-11,1,0,0,0,127,127,68,1,0,,,,,,,,,,,,,,,,,,,,,
,,,,,,,,,,,,,,,,,,,,,,,,,,,,,,,,,,,,,,,,,,602b7ef25103a629e2004d70,606a0f057f6602c70cdb596d,2021-04-04_21h10.33.685,Colour_Similarity_Experiment,2020.2.10,Win32,60,60675255c767bca6388caeee,17.24610209,16.6795092,16.67305405,16.69029568,16.67004471,16.6795092,,,,,,,,,,,,,,,,,,,,PF,3,weak,,,,,,,,4,1.167295,,,,,,,,,,,,,,,,,,,,,,,,,,,,2,weak,42,-52,1,0,0,response3disk,5,129,4,-4,1,0,0,rectangle,4,-4,1,0,0,0,1,0.00068,4,-4,1,0,0,0,128,128,147,1,0,,,,,,,,,,,,,,,,,,,,,
,,,,,,,,,,,,,,,,,,,,,,,,,,,,,,,,,,,,,,,,,,602b7ef25103a629e2004d70,606a0f057f6602c70cdb596d,2021-04-04_21h10.33.685,Colour_Similarity_Experiment,2020.2.10,Win32,60,60675255c767bca6388caeee,17.24610209,16.6795092,16.67305405,16.69029568,16.67004471,16.6795092,,,,,,,,,,,,,,,,,,,,PF,3,strong,,,,,,,,7,1.033745,,,,,,,,,,,,,,,,,,,,,,,,,,,,6,strong,19,49,1,0,0,response1disk,2,130,5,-1,1,0,0,rectangle,5,-1,1,0,0,0,3,0.003755,5,-1,1,0,0,0,129,129,112,1,0,,,,,,,,,,,,,,,,,,,,,
,,,,,,,,,,,,,,,,,,,,,,,,,,,,,,,,,,,,,,,,,,602b7ef25103a629e2004d70,606a0f057f6602c70cdb596d,2021-04-04_21h10.33.685,Colour_Similarity_Experiment,2020.2.10,Win32,60,60675255c767bca6388caeee,17.24610209,16.6795092,16.67305405,16.69029568,16.67004471,16.6795092,,,,,,,,,,,,,,,,,,,,PF,3,strong,,,,,,,,7,1.167135,,,,,,,,,,,,,,,,,,,,,,,,,,,,7,strong,20,42,1,0,0,response1disk,6,131,12,9,1,0,0,rectangle,12,9,1,0,0,0,0,0.003535,12,9,1,0,0,0,130,130,31,1,0,,,,,,,,,,,,,,,,,,,,,
,,,,,,,,,,,,,,,,,,,,,,,,,,,,,,,,,,,,,,,,,,602b7ef25103a629e2004d70,606a0f057f6602c70cdb596d,2021-04-04_21h10.33.685,Colour_Similarity_Experiment,2020.2.10,Win32,60,60675255c767bca6388caeee,17.24610209,16.6795092,16.67305405,16.69029568,16.67004471,16.6795092,,,,,,,,,,,,,,,,,,,,PF,3,weak,,,,,,,,7,0.75443,,,,,,,,,,,,,,,,,,,,,,,,,,,,6,weak,27,44,1,0,0,response1disk,1,132,2,1,1,0,0,rectangle,2,1,1,0,0,0,0,0.000435,2,1,1,0,0,0,131,131,46,1,0,,,,,,,,,,,,,,,,,,,,,
,,,,,,,,,,,,,,,,,,,,,,,,,,,,,,,,,,,,,,,,,,602b7ef25103a629e2004d70,606a0f057f6602c70cdb596d,2021-04-04_21h10.33.685,Colour_Similarity_Experiment,2020.2.10,Win32,60,60675255c767bca6388caeee,17.24610209,16.6795092,16.67305405,16.69029568,16.67004471,16.6795092,,,,,,,,,,,,,,,,,,,,PF,3,weak,,,,,,,,7,0.81756,,,,,,,,,,,,,,,,,,,,,,,,,,,,6,weak,20,39,1,0,0,response1disk,5,133,7,13,1,0,0,rectangle,7,13,1,0,0,0,3,0.003535,7,13,1,0,0,0,132,132,59,1,0,,,,,,,,,,,,,,,,,,,,,
,,,,,,,,,,,,,,,,,,,,,,,,,,,,,,,,,,,,,,,,,,602b7ef25103a629e2004d70,606a0f057f6602c70cdb596d,2021-04-04_21h10.33.685,Colour_Similarity_Experiment,2020.2.10,Win32,60,60675255c767bca6388caeee,17.24610209,16.6795092,16.67305405,16.69029568,16.67004471,16.6795092,,,,,,,,,,,,,,,,,,,,PF,3,weak,,,,,,,,4,1.532695,,,,,,,,,,,,,,,,,,,,,,,,,,,,2,weak,37,-73,1,0,0,response3disk,3,134,16,5,1,0,0,rectangle,16,5,1,0,0,0,1,0.00245,16,5,1,0,0,0,133,133,69,1,0,,,,,,,,,,,,,,,,,,,,,
,,,,,,,,,,,,,,,,,,,,,,,,,,,,,,,,,,,,,,,,,,602b7ef25103a629e2004d70,606a0f057f6602c70cdb596d,2021-04-04_21h10.33.685,Colour_Similarity_Experiment,2020.2.10,Win32,60,60675255c767bca6388caeee,17.24610209,16.6795092,16.67305405,16.69029568,16.67004471,16.6795092,,,,,,,,,,,,,,,,,,,,PF,3,strong,,,,,,,,7,5.61922,,,,,,,,,,,,,,,,,,,,,,,,,,,,5,strong,25,50,1,0,0,response1disk,2,135,17,8,1,0,0,rectangle,-74,-31,1,0,0,0,2,2.05038,-7,6,1,0,0,0,134,134,55,1,1,response5disk_3,rectangle,,,,,,,,,,,,,,,,,,,
,,,,,,,,,,,,,,,,,,,,,,,,,,,,,,,,,,,,,,,,,,602b7ef25103a629e2004d70,606a0f057f6602c70cdb596d,2021-04-04_21h10.33.685,Colour_Similarity_Experiment,2020.2.10,Win32,60,60675255c767bca6388caeee,17.24610209,16.6795092,16.67305405,16.69029568,16.67004471,16.6795092,,,,,,,,,,,,,,,,,,,,PF,3,strong,,,,,,,,7,2.918855,,,,,,,,,,,,,,,,,,,,,,,,,,,,3,strong,23,58,1,0,0,response1disk,8,136,8,-1,1,0,0,rectangle,8,-1,1,0,0,0,2,0.00069,8,-1,1,0,0,0,135,135,44,1,0,,,,,,,,,,,,,,,,,,,,,
,,,,,,,,,,,,,,,,,,,,,,,,,,,,,,,,,,,,,,,,,,602b7ef25103a629e2004d70,606a0f057f6602c70cdb596d,2021-04-04_21h10.33.685,Colour_Similarity_Experiment,2020.2.10,Win32,60,60675255c767bca6388caeee,17.24610209,16.6795092,16.67305405,16.69029568,16.67004471,16.6795092,,,,,,,,,,,,,,,,,,,,PF,3,strong,,,,,,,,7,5.055465,,,,,,,,,,,,,,,,,,,,,,,,,,,,5,strong,50,74,1,0,0,response1disk,4,137,-6,10,1,0,0,rectangle,-6,10,1,0,0,0,2,0.00075,-6,10,1,0,0,0,136,136,8,1,0,,,,,,,,,,,,,,,,,,,,,
,,,,,,,,,,,,,,,,,,,,,,,,,,,,,,,,,,,,,,,,,,602b7ef25103a629e2004d70,606a0f057f6602c70cdb596d,2021-04-04_21h10.33.685,Colour_Similarity_Experiment,2020.2.10,Win32,60,60675255c767bca6388caeee,17.24610209,16.6795092,16.67305405,16.69029568,16.67004471,16.6795092,,,,,,,,,,,,,,,,,,,,PF,3,strong,,,,,,,,6,2.51841,,,,,,,,,,,,,,,,,,,,,,,,,,,,5,strong,41,25,1,0,0,response1disk,9,138,8,8,1,0,0,rectangle,8,8,1,0,0,0,5,0.00336,8,8,1,0,0,0,137,137,61,1,0,,,,,,,,,,,,,,,,,,,,,
,,,,,,,,,,,,,,,,,,,,,,,,,,,,,,,,,,,,,,,,,,602b7ef25103a629e2004d70,606a0f057f6602c70cdb596d,2021-04-04_21h10.33.685,Colour_Similarity_Experiment,2020.2.10,Win32,60,60675255c767bca6388caeee,17.24610209,16.6795092,16.67305405,16.69029568,16.67004471,16.6795092,,,,,,,,,,,,,,,,,,,,PF,3,strong,,,,,,,,7,0.91752,,,,,,,,,,,,,,,,,,,,,,,,,,,,8,strong,39,57,1,0,0,response1disk,3,139,19,3,1,0,0,rectangle,19,3,1,0,0,0,7,0.00368,19,3,1,0,0,0,138,138,154,1,0,,,,,,,,,,,,,,,,,,,,,
,,,,,,,,,,,,,,,,,,,,,,,,,,,,,,,,,,,,,,,,,,602b7ef25103a629e2004d70,606a0f057f6602c70cdb596d,2021-04-04_21h10.33.685,Colour_Similarity_Experiment,2020.2.10,Win32,60,60675255c767bca6388caeee,17.24610209,16.6795092,16.67305405,16.69029568,16.67004471,16.6795092,,,,,,,,,,,,,,,,,,,,PF,3,strong,,,,,,,,7,1.13308,,,,,,,,,,,,,,,,,,,,,,,,,,,,5,strong,33,54,1,0,0,response1disk,8,140,-10,-7,1,0,0,rectangle,-10,-7,1,0,0,0,1,0.003705,-10,-7,1,0,0,0,139,139,16,1,0,,,,,,,,,,,,,,,,,,,,,
,,,,,,,,,,,,,,,,,,,,,,,,,,,,,,,,,,,,,,,,,,602b7ef25103a629e2004d70,606a0f057f6602c70cdb596d,2021-04-04_21h10.33.685,Colour_Similarity_Experiment,2020.2.10,Win32,60,60675255c767bca6388caeee,17.24610209,16.6795092,16.67305405,16.69029568,16.67004471,16.6795092,,,,,,,,,,,,,,,,,,,,PF,3,strong,,,,,,,,4,1.81786,,,,,,,,,,,,,,,,,,,,,,,,,,,,4,strong,34,-51,1,0,0,response3disk,5,141,18,-5,1,0,0,rectangle,18,-5,1,0,0,0,3,0.003305,18,-5,1,0,0,0,140,140,116,1,0,,,,,,,,,,,,,,,,,,,,,
,,,,,,,,,,,,,,,,,,,,,,,,,,,,,,,,,,,,,,,,,,602b7ef25103a629e2004d70,606a0f057f6602c70cdb596d,2021-04-04_21h10.33.685,Colour_Similarity_Experiment,2020.2.10,Win32,60,60675255c767bca6388caeee,17.24610209,16.6795092,16.67305405,16.69029568,16.67004471,16.6795092,,,,,,,,,,,,,,,,,,,,PF,3,weak,,,,,,,,5,1.250705,,,,,,,,,,,,,,,,,,,,,,,,,,,,1,weak,56,-36,1,0,0,response3disk,9,142,24,-8,1,0,0,rectangle,24,-8,1,0,0,0,7,0.003595,24,-8,1,0,0,0,141,141,15,1,0,,,,,,,,,,,,,,,,,,,,,
,,,,,,,,,,,,,,,,,,,,,,,,,,,,,,,,,,,,,,,,,,602b7ef25103a629e2004d70,606a0f057f6602c70cdb596d,2021-04-04_21h10.33.685,Colour_Similarity_Experiment,2020.2.10,Win32,60,60675255c767bca6388caeee,17.24610209,16.6795092,16.67305405,16.69029568,16.67004471,16.6795092,,,,,,,,,,,,,,,,,,,,PF,3,strong,,,,,,,,5,1.95116,,,,,,,,,,,,,,,,,,,,,,,,,,,,4,strong,44,-23,1,0,0,response3disk,6,143,16,-2,1,0,0,rectangle,16,-2,1,0,0,0,3,0.00382,16,-2,1,0,0,0,142,142,122,1,0,,,,,,,,,,,,,,,,,,,,,
,,,,,,,,,,,,,,,,,,,,,,,,,,,,,,,,,,,,,,,,,,602b7ef25103a629e2004d70,606a0f057f6602c70cdb596d,2021-04-04_21h10.33.685,Colour_Similarity_Experiment,2020.2.10,Win32,60,60675255c767bca6388caeee,17.24610209,16.6795092,16.67305405,16.69029568,16.67004471,16.6795092,,,,,,,,,,,,,,,,,,,,PF,3,weak,,,,,,,,2,1.834055,,,,,,,,,,,,,,,,,,,,,,,,,,,,9,weak,-44,-27,1,0,0,response5disk,6,144,-13,-6,1,0,0,rectangle,-13,-6,1,0,0,0,4,0.003605,-13,-6,1,0,0,0,143,143,148,1,0,,,,,,,,,,,,,,,,,,,,,
,,,,,,,,,,,,,,,,,,,,,,,,,,,,,,,,,,,,,,,,,,602b7ef25103a629e2004d70,606a0f057f6602c70cdb596d,2021-04-04_21h10.33.685,Colour_Similarity_Experiment,2020.2.10,Win32,60,60675255c767bca6388caeee,17.24610209,16.6795092,16.67305405,16.69029568,16.67004471,16.6795092,,,,,,,,,,,,,,,,,,,,PF,3,weak,,,,,,,,7,2.70091,,,,,,,,,,,,,,,,,,,,,,,,,,,,4,weak,31,42,1,0,0,response1disk,1,145,5,12,1,0,0,rectangle,5,12,1,0,0,0,5,0.00239,5,12,1,0,0,0,144,144,115,1,0,,,,,,,,,,,,,,,,,,,,,
,,,,,,,,,,,,,,,,,,,,,,,,,,,,,,,,,,,,,,,,,,602b7ef25103a629e2004d70,606a0f057f6602c70cdb596d,2021-04-04_21h10.33.685,Colour_Similarity_Experiment,2020.2.10,Win32,60,60675255c767bca6388caeee,17.24610209,16.6795092,16.67305405,16.69029568,16.67004471,16.6795092,,,,,,,,,,,,,,,,,,,,PF,3,weak,,,,,,,,7,1.114305,,,,,,,,,,,,,,,,,,,,,,,,,,,,5,weak,21,46,1,0,0,response1disk,7,146,5,11,1,0,0,rectangle,5,11,1,0,0,0,5,0.00054,5,11,1,0,0,0,145,145,146,1,0,,,,,,,,,,,,,,,,,,,,,
,,,,,,,,,,,,,,,,,,,,,,,,,,,,,,,,,,,,,,,,,,602b7ef25103a629e2004d70,606a0f057f6602c70cdb596d,2021-04-04_21h10.33.685,Colour_Similarity_Experiment,2020.2.10,Win32,60,60675255c767bca6388caeee,17.24610209,16.6795092,16.67305405,16.69029568,16.67004471,16.6795092,,,,,,,,,,,,,,,,,,,,PF,3,strong,,,,,,,,7,0.984515,,,,,,,,,,,,,,,,,,,,,,,,,,,,8,strong,33,49,1,0,0,response1disk,1,147,0,3,1,0,0,rectangle,0,3,1,0,0,0,3,0.003455,0,3,1,0,0,0,146,146,20,1,0,,,,,,,,,,,,,,,,,,,,,
,,,,,,,,,,,,,,,,,,,,,,,,,,,,,,,,,,,,,,,,,,602b7ef25103a629e2004d70,606a0f057f6602c70cdb596d,2021-04-04_21h10.33.685,Colour_Similarity_Experiment,2020.2.10,Win32,60,60675255c767bca6388caeee,17.24610209,16.6795092,16.67305405,16.69029568,16.67004471,16.6795092,,,,,,,,,,,,,,,,,,,,PF,3,weak,,,,,,,,5,1.062025,,,,,,,,,,,,,,,,,,,,,,,,,,,,5,weak,34,-31,1,0,0,response3disk,8,148,9,-4,1,0,0,rectangle,9,-4,1,0,0,0,2,0.001875,9,-4,1,0,0,0,147,147,149,1,0,,,,,,,,,,,,,,,,,,,,,
,,,,,,,,,,,,,,,,,,,,,,,,,,,,,,,,,,,,,,,,,,602b7ef25103a629e2004d70,606a0f057f6602c70cdb596d,2021-04-04_21h10.33.685,Colour_Similarity_Experiment,2020.2.10,Win32,60,60675255c767bca6388caeee,17.24610209,16.6795092,16.67305405,16.69029568,16.67004471,16.6795092,,,,,,,,,,,,,,,,,,,,PF,3,strong,,,,,,,,0,1.850925,,,,,,,,,,,,,,,,,,,,,,,,,,,,3,strong,-17,52,1,0,0,response7disk,9,149,-8,6,1,0,0,rectangle,-8,6,1,0,0,0,1,0.003605,-8,6,1,0,0,0,148,148,143,1,0,,,,,,,,,,,,,,,,,,,,,
,,,,,,,,,,,,,,,,,,,,,,,,,,,,,,,,,,,,,,,,,,602b7ef25103a629e2004d70,606a0f057f6602c70cdb596d,2021-04-04_21h10.33.685,Colour_Similarity_Experiment,2020.2.10,Win32,60,60675255c767bca6388caeee,17.24610209,16.6795092,16.67305405,16.69029568,16.67004471,16.6795092,,,,,,,,,,,,,,,,,,,,PF,3,weak,,,,,,,,4,1.551435,,,,,,,,,,,,,,,,,,,,,,,,,,,,4,weak,27,-54,1,0,0,response3disk,7,150,2,0,1,0,0,rectangle,2,0,1,0,0,0,4,0.003365,2,0,1,0,0,0,149,149,38,1,0,,,,,,,,,,,,,,,,,,,,,
,,,,,,,,,,,,,,,,,,,,,,,,,,,,,,,,,,,,,,,,,,602b7ef25103a629e2004d70,606a0f057f6602c70cdb596d,2021-04-04_21h10.33.685,Colour_Similarity_Experiment,2020.2.10,Win32,60,60675255c767bca6388caeee,17.24610209,16.6795092,16.67305405,16.69029568,16.67004471,16.6795092,,,,,,,,,,,,,,,,,,,,PF,3,strong,,,,,,,,4,1.21636,,,,,,,,,,,,,,,,,,,,,,,,,,,,7,strong,21,-34,1,0,0,response3disk,9,151,12,-3,1,0,0,rectangle,12,-3,1,0,0,0,7,0.002985,12,-3,1,0,0,0,150,150,155,1,0,,,,,,,,,,,,,,,,,,,,,
,,,,,,,,,,,,,,,,,,,,,,,,,,,,,,,,,,,,,,,,,,602b7ef25103a629e2004d70,606a0f057f6602c70cdb596d,2021-04-04_21h10.33.685,Colour_Similarity_Experiment,2020.2.10,Win32,60,60675255c767bca6388caeee,17.24610209,16.6795092,16.67305405,16.69029568,16.67004471,16.6795092,,,,,,,,,,,,,,,,,,,,PF,3,weak,,,,,,,,5,1.985145,,,,,,,,,,,,,,,,,,,,,,,,,,,,3,weak,41,-25,1,0,0,response3disk,5,152,16,-13,1,0,0,rectangle,16,-13,1,0,0,0,0,0.003665,16,-13,1,0,0,0,151,151,66,1,0,,,,,,,,,,,,,,,,,,,,,
,,,,,,,,,,,,,,,,,,,,,,,,,,,,,,,,,,,,,,,,,,602b7ef25103a629e2004d70,606a0f057f6602c70cdb596d,2021-04-04_21h10.33.685,Colour_Similarity_Experiment,2020.2.10,Win32,60,60675255c767bca6388caeee,17.24610209,16.6795092,16.67305405,16.69029568,16.67004471,16.6795092,,,,,,,,,,,,,,,,,,,,PF,3,weak,,,,,,,,4,1.998095,,,,,,,,,,,,,,,,,,,,,,,,,,,,7,weak,30,-54,1,0,0,response3disk,4,153,11,-5,1,0,0,rectangle,11,-5,1,0,0,0,5,0.002225,11,-5,1,0,0,0,152,152,43,1,0,,,,,,,,,,,,,,,,,,,,,
,,,,,,,,,,,,,,,,,,,,,,,,,,,,,,,,,,,,,,,,,,602b7ef25103a629e2004d70,606a0f057f6602c70cdb596d,2021-04-04_21h10.33.685,Colour_Similarity_Experiment,2020.2.10,Win32,60,60675255c767bca6388caeee,17.24610209,16.6795092,16.67305405,16.69029568,16.67004471,16.6795092,,,,,,,,,,,,,,,,,,,,PF,3,weak,,,,,,,,6,4.18217,,,,,,,,,,,,,,,,,,,,,,,,,,,,2,weak,48,21,1,0,0,response1disk,7,154,15,1,1,0,0,rectangle,15,1,1,0,0,0,0,0.003005,15,1,1,0,0,0,153,153,107,1,0,,,,,,,,,,,,,,,,,,,,,
,,,,,,,,,,,,,,,,,,,,,,,,,,,,,,,,,,,,,,,,,,602b7ef25103a629e2004d70,606a0f057f6602c70cdb596d,2021-04-04_21h10.33.685,Colour_Similarity_Experiment,2020.2.10,Win32,60,60675255c767bca6388caeee,17.24610209,16.6795092,16.67305405,16.69029568,16.67004471,16.6795092,,,,,,,,,,,,,,,,,,,,PF,3,strong,,,,,,,,2,1.635025,,,,,,,,,,,,,,,,,,,,,,,,,,,,3,strong,-60,-45,1,0,0,response5disk,6,155,-8,1,1,0,0,rectangle,-8,1,1,0,0,0,0,0.00078,-8,1,1,0,0,0,154,154,95,1,0,,,,,,,,,,,,,,,,,,,,,
,,,,,,,,,,,,,,,,,,,,,,,,,,,,,,,,,,,,,,,,,,602b7ef25103a629e2004d70,606a0f057f6602c70cdb596d,2021-04-04_21h10.33.685,Colour_Similarity_Experiment,2020.2.10,Win32,60,60675255c767bca6388caeee,17.24610209,16.6795092,16.67305405,16.69029568,16.67004471,16.6795092,,,,,,,,,,,,,,,,,,,,PF,3,strong,,,,,,,,1,1.368015,,,,,,,,,,,,,,,,,,,,,,,,,,,,3,strong,-49,25,1,0,0,response7disk,5,156,-24,7,1,0,0,rectangle,-24,7,1,0,0,0,7,0.00647,-24,7,1,0,0,0,155,155,101,1,0,,,,,,,,,,,,,,,,,,,,,
,,,,,,,,,,,,,,,,,,,,,,,,,,,,,,,,,,,,,,,,,,602b7ef25103a629e2004d70,606a0f057f6602c70cdb596d,2021-04-04_21h10.33.685,Colour_Similarity_Experiment,2020.2.10,Win32,60,60675255c767bca6388caeee,17.24610209,16.6795092,16.67305405,16.69029568,16.67004471,16.6795092,,,,,,,,,,,,,,,,,,,,PF,3,strong,,,,,,,,7,0.91057,,,,,,,,,,,,,,,,,,,,,,,,,,,,2,strong,38,65,1,0,0,response1disk,1,157,-10,7,1,0,0,rectangle,-10,7,1,0,0,0,0,0.002435,-10,7,1,0,0,0,156,156,85,1,0,,,,,,,,,,,,,,,,,,,,,
,,,,,,,,,,,,,,,,,,,,,,,,,,,,,,,,,,,,,,,,,,602b7ef25103a629e2004d70,606a0f057f6602c70cdb596d,2021-04-04_21h10.33.685,Colour_Similarity_Experiment,2020.2.10,Win32,60,60675255c767bca6388caeee,17.24610209,16.6795092,16.67305405,16.69029568,16.67004471,16.6795092,,,,,,,,,,,,,,,,,,,,PF,3,strong,,,,,,,,4,1.347325,,,,,,,,,,,,,,,,,,,,,,,,,,,,1,strong,47,-69,1,0,0,response3disk,8,158,29,-5,1,0,0,rectangle,29,-5,1,0,0,0,3,0.002285,29,-5,1,0,0,0,157,157,27,1,0,,,,,,,,,,,,,,,,,,,,,
,,,,,,,,,,,,,,,,,,,,,,,,,,,,,,,,,,,,,,,,,,602b7ef25103a629e2004d70,606a0f057f6602c70cdb596d,2021-04-04_21h10.33.685,Colour_Similarity_Experiment,2020.2.10,Win32,60,60675255c767bca6388caeee,17.24610209,16.6795092,16.67305405,16.69029568,16.67004471,16.6795092,,,,,,,,,,,,,,,,,,,,PF,3,strong,,,,,,,,1,2.23202,,,,,,,,,,,,,,,,,,,,,,,,,,,,7,strong,-52,29,1,0,0,response7disk,8,159,-24,11,1,0,0,rectangle,-26,60,1,0,0,0,0,1.53388,-7,5,1,0,0,0,158,158,97,1,1,response7disk_3,rectangle,,,,,,,,,,,,,,,,,,,
,,,,,,,,,,,,,,,,,,,,,,,,,,,,,,,,,,,,,,,,,,602b7ef25103a629e2004d70,606a0f057f6602c70cdb596d,2021-04-04_21h10.33.685,Colour_Similarity_Experiment,2020.2.10,Win32,60,60675255c767bca6388caeee,17.24610209,16.6795092,16.67305405,16.69029568,16.67004471,16.6795092,,,,,,,,,,,,,,,,,,,,PF,3,strong,,,,,,,,7,1.387075,,,,,,,,,,,,,,,,,,,,,,,,,,,,4,strong,19,58,1,0,0,response1disk,4,160,7,6,1,0,0,rectangle,7,6,1,0,0,0,5,0.00301,7,6,1,0,0,0,159,159,84,1,0,,,,,,,,,,,,,,,,,,,,,
,,,,,,,,,,,,,,,,,,,,,,,,,,,,,,,,,,,,,,,,,,602b7ef25103a629e2004d70,606a0f057f6602c70cdb596d,2021-04-04_21h10.33.685,Colour_Similarity_Experiment,2020.2.10,Win32,60,60675255c767bca6388caeee,17.24610209,16.6795092,16.67305405,16.69029568,16.67004471,16.6795092,,,,,,,,,,,,,,,,,,,,PF,3,strong,,,,,,,,5,2.2351,,,,,,,,,,,,,,,,,,,,,,,,,,,,7,strong,33,-23,1,0,0,response3disk,7,161,16,2,1,0,0,rectangle,16,2,1,0,0,0,7,0.003465,16,2,1,0,0,0,160,160,34,1,0,,,,,,,,,,,,,,,,,,,,,
,,,,,,,,,,,,,,,,,,,,,,,,,,,,,,,,,,,,,,,,,,602b7ef25103a629e2004d70,606a0f057f6602c70cdb596d,2021-04-04_21h10.33.685,Colour_Similarity_Experiment,2020.2.10,Win32,60,60675255c767bca6388caeee,17.24610209,16.6795092,16.67305405,16.69029568,16.67004471,16.6795092,,,,,,,,,,,,,,,,,,,,PF,3,weak,,,,,,,,2,1.167395,,,,,,,,,,,,,,,,,,,,,,,,,,,,1,weak,-60,-26,1,0,0,response5disk,5,162,1,3,1,0,0,rectangle,1,3,1,0,0,0,3,0.00369,1,3,1,0,0,0,161,161,28,1,0,,,,,,,,,,,,,,,,,,,,,
,,,,,,,,,,,,,,,,,,,,,,,,,,,,,,,,,,,,,,,,,,602b7ef25103a629e2004d70,606a0f057f6602c70cdb596d,2021-04-04_21h10.33.685,Colour_Similarity_Experiment,2020.2.10,Win32,60,60675255c767bca6388caeee,17.24610209,16.6795092,16.67305405,16.69029568,16.67004471,16.6795092,,,,,,,,,,,,,,,,,,,,,,,,,,,,,,,,,,,,,,,,,,,,,,,,,,,,,,,,,,,,,,,,,,,,,,,,,,,,,,,,,,,,,,,,,,,,,,,,0,0,0,0,1,,,,,,,,,,,,,,
,,,,,,,,,,,,,,,,,,,,,,,,,,,,,,,,,,,,,,,,,,602b7ef25103a629e2004d70,606a0f057f6602c70cdb596d,2021-04-04_21h10.33.685,Colour_Similarity_Experiment,2020.2.10,Win32,60,60675255c767bca6388caeee,17.24610209,16.6795092,16.67305405,16.69029568,16.67004471,16.6795092,,,,,,,,,,,,,,,,,,,,PF,3,weak,,,,,,,,4,1.35228,,,,,,,,,,,,,,,,,,,,,,,,,,,,6,weak,19,-36,1,0,0,response3disk,9,163,5,2,1,0,0,rectangle,5,2,1,0,0,0,0,0.002785,5,2,1,0,0,0,0,0,45,1,0,,,,,,,,,,,,,,,,,,,,,
,,,,,,,,,,,,,,,,,,,,,,,,,,,,,,,,,,,,,,,,,,602b7ef25103a629e2004d70,606a0f057f6602c70cdb596d,2021-04-04_21h10.33.685,Colour_Similarity_Experiment,2020.2.10,Win32,60,60675255c767bca6388caeee,17.24610209,16.6795092,16.67305405,16.69029568,16.67004471,16.6795092,,,,,,,,,,,,,,,,,,,,PF,3,weak,,,,,,,,7,2.09736,,,,,,,,,,,,,,,,,,,,,,,,,,,,5,weak,32,59,1,0,0,response1disk,4,164,6,7,1,0,0,rectangle,6,7,1,0,0,0,7,0.002555,6,7,1,0,0,0,1,1,54,1,0,,,,,,,,,,,,,,,,,,,,,
,,,,,,,,,,,,,,,,,,,,,,,,,,,,,,,,,,,,,,,,,,602b7ef25103a629e2004d70,606a0f057f6602c70cdb596d,2021-04-04_21h10.33.685,Colour_Similarity_Experiment,2020.2.10,Win32,60,60675255c767bca6388caeee,17.24610209,16.6795092,16.67305405,16.69029568,16.67004471,16.6795092,,,,,,,,,,,,,,,,,,,,PF,3,strong,,,,,,,,2,1.48281,,,,,,,,,,,,,,,,,,,,,,,,,,,,6,strong,-71,-20,1,0,0,response5disk,3,165,2,2,1,0,0,rectangle,2,2,1,0,0,0,7,0.000325,2,2,1,0,0,0,2,2,21,1,0,,,,,,,,,,,,,,,,,,,,,
,,,,,,,,,,,,,,,,,,,,,,,,,,,,,,,,,,,,,,,,,,602b7ef25103a629e2004d70,606a0f057f6602c70cdb596d,2021-04-04_21h10.33.685,Colour_Similarity_Experiment,2020.2.10,Win32,60,60675255c767bca6388caeee,17.24610209,16.6795092,16.67305405,16.69029568,16.67004471,16.6795092,,,,,,,,,,,,,,,,,,,,PF,3,strong,,,,,,,,5,3.41606,,,,,,,,,,,,,,,,,,,,,,,,,,,,8,strong,51,-27,1,0,0,response3disk,5,166,26,-7,1,0,0,rectangle,26,-7,1,0,0,0,3,0.002795,26,-7,1,0,0,0,3,3,152,1,0,,,,,,,,,,,,,,,,,,,,,
,,,,,,,,,,,,,,,,,,,,,,,,,,,,,,,,,,,,,,,,,,602b7ef25103a629e2004d70,606a0f057f6602c70cdb596d,2021-04-04_21h10.33.685,Colour_Similarity_Experiment,2020.2.10,Win32,60,60675255c767bca6388caeee,17.24610209,16.6795092,16.67305405,16.69029568,16.67004471,16.6795092,,,,,,,,,,,,,,,,,,,,PF,3,strong,,,,,,,,3,1.88502,,,,,,,,,,,,,,,,,,,,,,,,,,,,1,strong,-34,-49,1,0,0,response5disk,4,167,12,-4,1,0,0,rectangle,12,-4,1,0,0,0,2,0.003345,12,-4,1,0,0,0,4,4,135,1,0,,,,,,,,,,,,,,,,,,,,,
,,,,,,,,,,,,,,,,,,,,,,,,,,,,,,,,,,,,,,,,,,602b7ef25103a629e2004d70,606a0f057f6602c70cdb596d,2021-04-04_21h10.33.685,Colour_Similarity_Experiment,2020.2.10,Win32,60,60675255c767bca6388caeee,17.24610209,16.6795092,16.67305405,16.69029568,16.67004471,16.6795092,,,,,,,,,,,,,,,,,,,,PF,3,strong,,,,,,,,3,1.76771,,,,,,,,,,,,,,,,,,,,,,,,,,,,7,strong,-33,-50,1,0,0,response5disk,5,168,-9,-5,1,0,0,rectangle,-9,-5,1,0,0,0,3,0.002135,-9,-5,1,0,0,0,5,5,156,1,0,,,,,,,,,,,,,,,,,,,,,
,,,,,,,,,,,,,,,,,,,,,,,,,,,,,,,,,,,,,,,,,,602b7ef25103a629e2004d70,606a0f057f6602c70cdb596d,2021-04-04_21h10.33.685,Colour_Similarity_Experiment,2020.2.10,Win32,60,60675255c767bca6388caeee,17.24610209,16.6795092,16.67305405,16.69029568,16.67004471,16.6795092,,,,,,,,,,,,,,,,,,,,PF,3,strong,,,,,,,,4,2.1184,,,,,,,,,,,,,,,,,,,,,,,,,,,,8,strong,21,-40,1,0,0,response3disk,8,169,12,-5,1,0,0,rectangle,12,-5,1,0,0,0,3,0.004575,12,-5,1,0,0,0,6,6,48,1,0,,,,,,,,,,,,,,,,,,,,,
,,,,,,,,,,,,,,,,,,,,,,,,,,,,,,,,,,,,,,,,,,602b7ef25103a629e2004d70,606a0f057f6602c70cdb596d,2021-04-04_21h10.33.685,Colour_Similarity_Experiment,2020.2.10,Win32,60,60675255c767bca6388caeee,17.24610209,16.6795092,16.67305405,16.69029568,16.67004471,16.6795092,,,,,,,,,,,,,,,,,,,,PF,3,weak,,,,,,,,7,2.945815,,,,,,,,,,,,,,,,,,,,,,,,,,,,5,weak,33,70,1,0,0,response1disk,3,170,0,-12,1,0,0,rectangle,0,-12,1,0,0,0,3,0.001145,0,-12,1,0,0,0,7,7,109,1,0,,,,,,,,,,,,,,,,,,,,,
,,,,,,,,,,,,,,,,,,,,,,,,,,,,,,,,,,,,,,,,,,602b7ef25103a629e2004d70,606a0f057f6602c70cdb596d,2021-04-04_21h10.33.685,Colour_Similarity_Experiment,2020.2.10,Win32,60,60675255c767bca6388caeee,17.24610209,16.6795092,16.67305405,16.69029568,16.67004471,16.6795092,,,,,,,,,,,,,,,,,,,,PF,3,strong,,,,,,,,3,1.63246,,,,,,,,,,,,,,,,,,,,,,,,,,,,2,strong,-30,-47,1,0,0,response5disk,2,171,7,9,1,0,0,rectangle,7,9,1,0,0,0,5,0.00537,7,9,1,0,0,0,8,8,142,1,0,,,,,,,,,,,,,,,,,,,,,
,,,,,,,,,,,,,,,,,,,,,,,,,,,,,,,,,,,,,,,,,,602b7ef25103a629e2004d70,606a0f057f6602c70cdb596d,2021-04-04_21h10.33.685,Colour_Similarity_Experiment,2020.2.10,Win32,60,60675255c767bca6388caeee,17.24610209,16.6795092,16.67305405,16.69029568,16.67004471,16.6795092,,,,,,,,,,,,,,,,,,,,PF,3,weak,,,,,,,,4,2.33505,,,,,,,,,,,,,,,,,,,,,,,,,,,,7,weak,27,-50,1,0,0,response3disk,8,172,12,2,1,0,0,rectangle,12,2,1,0,0,0,6,0.0037,12,2,1,0,0,0,9,9,140,1,0,,,,,,,,,,,,,,,,,,,,,
,,,,,,,,,,,,,,,,,,,,,,,,,,,,,,,,,,,,,,,,,,602b7ef25103a629e2004d70,606a0f057f6602c70cdb596d,2021-04-04_21h10.33.685,Colour_Similarity_Experiment,2020.2.10,Win32,60,60675255c767bca6388caeee,17.24610209,16.6795092,16.67305405,16.69029568,16.67004471,16.6795092,,,,,,,,,,,,,,,,,,,,PF,3,strong,,,,,,,,6,3.196675,,,,,,,,,,,,,,,,,,,,,,,,,,,,9,strong,45,32,1,0,0,response1disk,1,173,-8,0,1,0,0,rectangle,-8,0,1,0,0,0,1,0.002035,-8,0,1,0,0,0,10,10,111,1,0,,,,,,,,,,,,,,,,,,,,,
,,,,,,,,,,,,,,,,,,,,,,,,,,,,,,,,,,,,,,,,,,602b7ef25103a629e2004d70,606a0f057f6602c70cdb596d,2021-04-04_21h10.33.685,Colour_Similarity_Experiment,2020.2.10,Win32,60,60675255c767bca6388caeee,17.24610209,16.6795092,16.67305405,16.69029568,16.67004471,16.6795092,,,,,,,,,,,,,,,,,,,,PF,3,strong,,,,,,,,7,1.53469,,,,,,,,,,,,,,,,,,,,,,,,,,,,3,strong,53,80,1,0,0,response1disk,4,174,13,12,1,0,0,rectangle,13,12,1,0,0,0,1,0.000565,13,12,1,0,0,0,11,11,110,1,0,,,,,,,,,,,,,,,,,,,,,
,,,,,,,,,,,,,,,,,,,,,,,,,,,,,,,,,,,,,,,,,,602b7ef25103a629e2004d70,606a0f057f6602c70cdb596d,2021-04-04_21h10.33.685,Colour_Similarity_Experiment,2020.2.10,Win32,60,60675255c767bca6388caeee,17.24610209,16.6795092,16.67305405,16.69029568,16.67004471,16.6795092,,,,,,,,,,,,,,,,,,,,PF,3,strong,,,,,,,,7,1.201865,,,,,,,,,,,,,,,,,,,,,,,,,,,,6,strong,25,47,1,0,0,response1disk,1,175,-3,6,1,0,0,rectangle,-3,6,1,0,0,0,0,0.003145,-3,6,1,0,0,0,12,12,5,1,0,,,,,,,,,,,,,,,,,,,,,
,,,,,,,,,,,,,,,,,,,,,,,,,,,,,,,,,,,,,,,,,,602b7ef25103a629e2004d70,606a0f057f6602c70cdb596d,2021-04-04_21h10.33.685,Colour_Similarity_Experiment,2020.2.10,Win32,60,60675255c767bca6388caeee,17.24610209,16.6795092,16.67305405,16.69029568,16.67004471,16.6795092,,,,,,,,,,,,,,,,,,,,PF,3,weak,,,,,,,,0,1.01755,,,,,,,,,,,,,,,,,,,,,,,,,,,,7,weak,-54,101,1,0,0,response7disk,1,176,-9,3,1,0,0,rectangle,-9,3,1,0,0,0,3,0.00628,-9,3,1,0,0,0,13,13,53,1,0,,,,,,,,,,,,,,,,,,,,,
,,,,,,,,,,,,,,,,,,,,,,,,,,,,,,,,,,,,,,,,,,602b7ef25103a629e2004d70,606a0f057f6602c70cdb596d,2021-04-04_21h10.33.685,Colour_Similarity_Experiment,2020.2.10,Win32,60,60675255c767bca6388caeee,17.24610209,16.6795092,16.67305405,16.69029568,16.67004471,16.6795092,,,,,,,,,,,,,,,,,,,,PF,3,weak,,,,,,,,5,1.34236,,,,,,,,,,,,,,,,,,,,,,,,,,,,9,weak,46,-18,1,0,0,response3disk,9,177,20,-2,1,0,0,rectangle,20,-2,1,0,0,0,1,0.00341,20,-2,1,0,0,0,14,14,106,1,0,,,,,,,,,,,,,,,,,,,,,
,,,,,,,,,,,,,,,,,,,,,,,,,,,,,,,,,,,,,,,,,,602b7ef25103a629e2004d70,606a0f057f6602c70cdb596d,2021-04-04_21h10.33.685,Colour_Similarity_Experiment,2020.2.10,Win32,60,60675255c767bca6388caeee,17.24610209,16.6795092,16.67305405,16.69029568,16.67004471,16.6795092,,,,,,,,,,,,,,,,,,,,PF,3,strong,,,,,,,,7,1.16739,,,,,,,,,,,,,,,,,,,,,,,,,,,,7,strong,27,67,1,0,0,response1disk,4,178,14,1,1,0,0,rectangle,14,1,1,0,0,0,7,0.00315,14,1,1,0,0,0,15,15,158,1,0,,,,,,,,,,,,,,,,,,,,,
,,,,,,,,,,,,,,,,,,,,,,,,,,,,,,,,,,,,,,,,,,602b7ef25103a629e2004d70,606a0f057f6602c70cdb596d,2021-04-04_21h10.33.685,Colour_Similarity_Experiment,2020.2.10,Win32,60,60675255c767bca6388caeee,17.24610209,16.6795092,16.67305405,16.69029568,16.67004471,16.6795092,,,,,,,,,,,,,,,,,,,,PF,3,strong,,,,,,,,0,0.916825,,,,,,,,,,,,,,,,,,,,,,,,,,,,2,strong,-27,77,1,0,0,response7disk,4,179,1,-8,1,0,0,rectangle,1,-8,1,0,0,0,4,0.003665,1,-8,1,0,0,0,16,16,145,1,0,,,,,,,,,,,,,,,,,,,,,
,,,,,,,,,,,,,,,,,,,,,,,,,,,,,,,,,,,,,,,,,,602b7ef25103a629e2004d70,606a0f057f6602c70cdb596d,2021-04-04_21h10.33.685,Colour_Similarity_Experiment,2020.2.10,Win32,60,60675255c767bca6388caeee,17.24610209,16.6795092,16.67305405,16.69029568,16.67004471,16.6795092,,,,,,,,,,,,,,,,,,,,PF,3,strong,,,,,,,,0,1.06766,,,,,,,,,,,,,,,,,,,,,,,,,,,,6,strong,-31,79,1,0,0,response7disk,4,180,-3,3,1,0,0,rectangle,-3,3,1,0,0,0,2,0.00318,-3,3,1,0,0,0,17,17,56,1,0,,,,,,,,,,,,,,,,,,,,,
,,,,,,,,,,,,,,,,,,,,,,,,,,,,,,,,,,,,,,,,,,602b7ef25103a629e2004d70,606a0f057f6602c70cdb596d,2021-04-04_21h10.33.685,Colour_Similarity_Experiment,2020.2.10,Win32,60,60675255c767bca6388caeee,17.24610209,16.6795092,16.67305405,16.69029568,16.67004471,16.6795092,,,,,,,,,,,,,,,,,,,,PF,3,strong,,,,,,,,7,0.985355,,,,,,,,,,,,,,,,,,,,,,,,,,,,3,strong,28,82,1,0,0,response1disk,1,181,-7,-4,1,0,0,rectangle,-7,-4,1,0,0,0,1,0.00375,-7,-4,1,0,0,0,18,18,125,1,0,,,,,,,,,,,,,,,,,,,,,
,,,,,,,,,,,,,,,,,,,,,,,,,,,,,,,,,,,,,,,,,,602b7ef25103a629e2004d70,606a0f057f6602c70cdb596d,2021-04-04_21h10.33.685,Colour_Similarity_Experiment,2020.2.10,Win32,60,60675255c767bca6388caeee,17.24610209,16.6795092,16.67305405,16.69029568,16.67004471,16.6795092,,,,,,,,,,,,,,,,,,,,PF,3,strong,,,,,,,,7,1.314975,,,,,,,,,,,,,,,,,,,,,,,,,,,,1,strong,32,81,1,0,0,response1disk,5,182,-8,-7,1,0,0,rectangle,-8,-7,1,0,0,0,2,0.0026,-8,-7,1,0,0,0,19,19,82,1,0,,,,,,,,,,,,,,,,,,,,,
,,,,,,,,,,,,,,,,,,,,,,,,,,,,,,,,,,,,,,,,,,602b7ef25103a629e2004d70,606a0f057f6602c70cdb596d,2021-04-04_21h10.33.685,Colour_Similarity_Experiment,2020.2.10,Win32,60,60675255c767bca6388caeee,17.24610209,16.6795092,16.67305405,16.69029568,16.67004471,16.6795092,,,,,,,,,,,,,,,,,,,,PF,3,weak,,,,,,,,6,2.46452,,,,,,,,,,,,,,,,,,,,,,,,,,,,4,weak,40,25,1,0,0,response1disk,4,183,17,-2,1,0,0,rectangle,17,-2,1,0,0,0,5,0.003835,17,-2,1,0,0,0,20,20,70,1,0,,,,,,,,,,,,,,,,,,,,,
,,,,,,,,,,,,,,,,,,,,,,,,,,,,,,,,,,,,,,,,,,602b7ef25103a629e2004d70,606a0f057f6602c70cdb596d,2021-04-04_21h10.33.685,Colour_Similarity_Experiment,2020.2.10,Win32,60,60675255c767bca6388caeee,17.24610209,16.6795092,16.67305405,16.69029568,16.67004471,16.6795092,,,,,,,,,,,,,,,,,,,,PF,3,weak,,,,,,,,2,2.968715,,,,,,,,,,,,,,,,,,,,,,,,,,,,8,weak,-89,-31,1,0,0,response5disk,3,184,3,6,1,0,0,rectangle,3,6,1,0,0,0,1,0.00215,3,6,1,0,0,0,21,21,71,1,0,,,,,,,,,,,,,,,,,,,,,
,,,,,,,,,,,,,,,,,,,,,,,,,,,,,,,,,,,,,,,,,,602b7ef25103a629e2004d70,606a0f057f6602c70cdb596d,2021-04-04_21h10.33.685,Colour_Similarity_Experiment,2020.2.10,Win32,60,60675255c767bca6388caeee,17.24610209,16.6795092,16.67305405,16.69029568,16.67004471,16.6795092,,,,,,,,,,,,,,,,,,,,PF,3,weak,,,,,,,,6,4.28114,,,,,,,,,,,,,,,,,,,,,,,,,,,,5,weak,79,24,1,0,0,response1disk,6,185,-33,4,1,0,0,rectangle,-33,4,1,0,0,0,5,0.001995,-33,4,1,0,0,0,22,22,103,1,0,,,,,,,,,,,,,,,,,,,,,
,,,,,,,,,,,,,,,,,,,,,,,,,,,,,,,,,,,,,,,,,,602b7ef25103a629e2004d70,606a0f057f6602c70cdb596d,2021-04-04_21h10.33.685,Colour_Similarity_Experiment,2020.2.10,Win32,60,60675255c767bca6388caeee,17.24610209,16.6795092,16.67305405,16.69029568,16.67004471,16.6795092,,,,,,,,,,,,,,,,,,,,PF,3,strong,,,,,,,,6,1.165045,,,,,,,,,,,,,,,,,,,,,,,,,,,,4,strong,87,49,1,0,0,response1disk,8,186,4,14,1,0,0,rectangle,4,14,1,0,0,0,4,0.002025,4,14,1,0,0,0,23,23,35,1,0,,,,,,,,,,,,,,,,,,,,,
,,,,,,,,,,,,,,,,,,,,,,,,,,,,,,,,,,,,,,,,,,602b7ef25103a629e2004d70,606a0f057f6602c70cdb596d,2021-04-04_21h10.33.685,Colour_Similarity_Experiment,2020.2.10,Win32,60,60675255c767bca6388caeee,17.24610209,16.6795092,16.67305405,16.69029568,16.67004471,16.6795092,,,,,,,,,,,,,,,,,,,,PF,3,strong,,,,,,,,0,0.93538,,,,,,,,,,,,,,,,,,,,,,,,,,,,6,strong,-71,95,1,0,0,response7disk,9,187,-12,15,1,0,0,rectangle,-49,-68,1,0,0,3,3,2.40118,-6,3,1,0,0,0,24,24,160,1,1,response5disk_3,rectangle,,,,,,,,,,,,,,,,,,,
,,,,,,,,,,,,,,,,,,,,,,,,,,,,,,,,,,,,,,,,,,602b7ef25103a629e2004d70,606a0f057f6602c70cdb596d,2021-04-04_21h10.33.685,Colour_Similarity_Experiment,2020.2.10,Win32,60,60675255c767bca6388caeee,17.24610209,16.6795092,16.67305405,16.69029568,16.67004471,16.6795092,,,,,,,,,,,,,,,,,,,,PF,3,weak,,,,,,,,6,1.68494,,,,,,,,,,,,,,,,,,,,,,,,,,,,3,weak,67,43,1,0,0,response1disk,2,188,12,-3,1,0,0,rectangle,-39,71,1,0,0,0,0,1.93371,-16,6,1,0,0,0,25,25,36,1,1,response7disk_3,rectangle,,,,,,,,,,,,,,,,,,,
,,,,,,,,,,,,,,,,,,,,,,,,,,,,,,,,,,,,,,,,,,602b7ef25103a629e2004d70,606a0f057f6602c70cdb596d,2021-04-04_21h10.33.685,Colour_Similarity_Experiment,2020.2.10,Win32,60,60675255c767bca6388caeee,17.24610209,16.6795092,16.67305405,16.69029568,16.67004471,16.6795092,,,,,,,,,,,,,,,,,,,,PF,3,strong,,,,,,,,7,1.717995,,,,,,,,,,,,,,,,,,,,,,,,,,,,5,strong,45,83,1,0,0,response1disk,5,189,-10,-12,1,0,0,rectangle,-10,-12,1,0,0,0,4,0.00296,-10,-12,1,0,0,0,26,26,19,1,0,,,,,,,,,,,,,,,,,,,,,
,,,,,,,,,,,,,,,,,,,,,,,,,,,,,,,,,,,,,,,,,,602b7ef25103a629e2004d70,606a0f057f6602c70cdb596d,2021-04-04_21h10.33.685,Colour_Similarity_Experiment,2020.2.10,Win32,60,60675255c767bca6388caeee,17.24610209,16.6795092,16.67305405,16.69029568,16.67004471,16.6795092,,,,,,,,,,,,,,,,,,,,PF,3,weak,,,,,,,,7,1.084435,,,,,,,,,,,,,,,,,,,,,,,,,,,,9,weak,34,70,1,0,0,response1disk,1,190,0,2,1,0,0,rectangle,0,2,1,0,0,0,2,0.00352,0,2,1,0,0,0,27,27,74,1,0,,,,,,,,,,,,,,,,,,,,,
,,,,,,,,,,,,,,,,,,,,,,,,,,,,,,,,,,,,,,,,,,602b7ef25103a629e2004d70,606a0f057f6602c70cdb596d,2021-04-04_21h10.33.685,Colour_Similarity_Experiment,2020.2.10,Win32,60,60675255c767bca6388caeee,17.24610209,16.6795092,16.67305405,16.69029568,16.67004471,16.6795092,,,,,,,,,,,,,,,,,,,,PF,3,strong,,,,,,,,7,1.21753,,,,,,,,,,,,,,,,,,,,,,,,,,,,1,strong,36,64,1,0,0,response1disk,6,191,-14,-2,1,0,0,rectangle,-14,-2,1,0,0,0,1,0.00354,-14,-2,1,0,0,0,28,28,58,1,0,,,,,,,,,,,,,,,,,,,,,
,,,,,,,,,,,,,,,,,,,,,,,,,,,,,,,,,,,,,,,,,,602b7ef25103a629e2004d70,606a0f057f6602c70cdb596d,2021-04-04_21h10.33.685,Colour_Similarity_Experiment,2020.2.10,Win32,60,60675255c767bca6388caeee,17.24610209,16.6795092,16.67305405,16.69029568,16.67004471,16.6795092,,,,,,,,,,,,,,,,,,,,PF,3,weak,,,,,,,,7,0.783965,,,,,,,,,,,,,,,,,,,,,,,,,,,,8,weak,23,55,1,0,0,response1disk,1,192,-15,-5,1,0,0,rectangle,-15,-5,1,0,0,0,1,0.000425,-15,-5,1,0,0,0,29,29,57,1,0,,,,,,,,,,,,,,,,,,,,,
,,,,,,,,,,,,,,,,,,,,,,,,,,,,,,,,,,,,,,,,,,602b7ef25103a629e2004d70,606a0f057f6602c70cdb596d,2021-04-04_21h10.33.685,Colour_Similarity_Experiment,2020.2.10,Win32,60,60675255c767bca6388caeee,17.24610209,16.6795092,16.67305405,16.69029568,16.67004471,16.6795092,,,,,,,,,,,,,,,,,,,,PF,3,strong,,,,,,,,7,0.868325,,,,,,,,,,,,,,,,,,,,,,,,,,,,8,strong,44,59,1,0,0,response1disk,4,193,4,2,1,0,0,rectangle,4,2,1,0,0,0,3,0.001965,4,2,1,0,0,0,30,30,88,1,0,,,,,,,,,,,,,,,,,,,,,
,,,,,,,,,,,,,,,,,,,,,,,,,,,,,,,,,,,,,,,,,,602b7ef25103a629e2004d70,606a0f057f6602c70cdb596d,2021-04-04_21h10.33.685,Colour_Similarity_Experiment,2020.2.10,Win32,60,60675255c767bca6388caeee,17.24610209,16.6795092,16.67305405,16.69029568,16.67004471,16.6795092,,,,,,,,,,,,,,,,,,,,PF,3,weak,,,,,,,,2,1.549395,,,,,,,,,,,,,,,,,,,,,,,,,,,,7,weak,-93,-32,1,0,0,response5disk,3,194,-5,12,1,0,0,rectangle,-5,12,1,0,0,0,1,0.001975,-5,12,1,0,0,0,31,31,81,1,0,,,,,,,,,,,,,,,,,,,,,
,,,,,,,,,,,,,,,,,,,,,,,,,,,,,,,,,,,,,,,,,,602b7ef25103a629e2004d70,606a0f057f6602c70cdb596d,2021-04-04_21h10.33.685,Colour_Similarity_Experiment,2020.2.10,Win32,60,60675255c767bca6388caeee,17.24610209,16.6795092,16.67305405,16.69029568,16.67004471,16.6795092,,,,,,,,,,,,,,,,,,,,PF,3,strong,,,,,,,,7,1.00166,,,,,,,,,,,,,,,,,,,,,,,,,,,,4,strong,15,63,1,0,0,response1disk,1,195,-7,3,1,0,0,rectangle,-7,3,1,0,0,0,3,0.003045,-7,3,1,0,0,0,32,32,102,1,0,,,,,,,,,,,,,,,,,,,,,
