key_resp.keys,key_resp.rt,key_resp_16.keys,key_resp_16.rt,key_resp_2.keys,key_resp_2.rt,X Scale,ratio_pxpermm,screen_size_x,screen_size_y,testsize,key_resp_3.keys,key_resp_4.keys,key_resp_4.rt,line_size,key_resp_5.keys,key_resp_5.rt,key_resp_6.keys,key_resp_6.rt,key_resp_8.keys,key_resp_8.rt,key_resp_7.keys,key_resp_7.rt,key_resp_12.keys,key_resp_12.rt,key_resp_11.keys,key_resp_11.rt,key_resp_18.keys,key_resp_18.rt,key_resp_21.keys,key_resp_21.rt,key_resp_13.keys,key_resp_13.rt,key_resp_19.keys,key_resp_19.rt,ballposx,viewer_distance,trials.thisRepN,trials.thisTrialN,trials.thisN,trials.thisIndex,trials.ran,participant,session,date,expName,psychopyVersion,OS,frameRate,study_id,realFrameRate1,realFrameRate2,realFrameRate3,realFrameRate4,realFrameRate5,realFrameRate,viewerdistancecm,DVA_to_distance,radius_F,radius_P,r_F,R_P,key_resp_20.keys,key_resp_20.rt,key_resp_14.keys,key_resp_14.rt,key_resp_15.keys,key_resp_15.rt,key_resp_17.keys,key_resp_17.rt,key_resp_9.keys,key_resp_9.rt,key_resp_10.keys,key_resp_10.rt,Colour_1,Ecc,mask_frames,maskCon,mouse_5.x,mouse_5.y,mouse_5.leftButton,mouse_5.midButton,mouse_5.rightButton,mouse_5.clicked_name,Colour_2,similarity,response_time,mouse_10.x,mouse_10.y,mouse_10.leftButton,mouse_10.midButton,mouse_10.rightButton,mouse_10.clicked_name,mouse_7.x,mouse_7.y,mouse_7.leftButton,mouse_7.midButton,mouse_7.rightButton,catchnumberprac,mouse_6.x,mouse_6.y,mouse_6.leftButton,mouse_6.midButton,mouse_6.rightButton,duringprac.thisRepN,duringprac.thisTrialN,duringprac.thisN,duringprac.thisIndex,duringprac.ran,mouse_7.clicked_name,mouse_6.clicked_name,key_resp_22.keys,key_resp_22.rt,Colour1,maskCon1,mouse.x,mouse.y,mouse.leftButton,mouse.midButton,mouse.rightButton,mouse.clicked_name,Colour2,trialnumber,mouse_2.x,mouse_2.y,mouse_2.leftButton,mouse_2.midButton,mouse_2.rightButton,mouse_2.clicked_name,mouse_3.x,mouse_3.y,mouse_3.leftButton,mouse_3.midButton,mouse_3.rightButton,catchresponse,catchnumber,response_time_catch,mouse_11.x,mouse_11.y,mouse_11.leftButton,mouse_11.midButton,mouse_11.rightButton,trials_2.thisRepN,trials_2.thisTrialN,trials_2.thisN,trials_2.thisIndex,trials_2.ran,Catch,mouse_3.clicked_name,mouse_11.clicked_name,trials_3.thisRepN,trials_3.thisTrialN,trials_3.thisN,trials_3.thisIndex,trials_3.ran,answer1,rt1,answer2,rt2,answer3,rt3,answer4,rt4,answer5,rt5,answer6,rt6,answer7,rt7
space,219.38624,space,33.488185,space,15.222995,45.6,4.56,336.8421053,189.4736842,1536,,space,18.6788,91.2,space,21.41139,space,10.52993,space,2.020525,space,11.7833,space,6.729945,space,15.752885,space,12.840265,space,24.4715,space,12.695685,return,33.354925,-2179.584,2552.145884,0,0,0,0,1,602c1fc2c083e34a7ba2894b,606a0f38a5fd39d4018ecee0,2021-04-04_15h11.52.249,Colour_Similarity_Experiment,2020.2.10,Win32,60,60675255c767bca6388caeee,316.7752003,17.06000763,16.71736919,16.69777184,16.73042827,16.73042827,,,,,,,,,,,,,,,,,,,,,,,,,,,,,,,,,,,,,,,,,,,,,,,,,,,,,,,,,,,,,,,,,,,,,,,,,,,,,,,,,,,,,,,,,,,,,,,,,,,,,,,,,,,,,,,,,
,,,,,,,,,,,,,,,,,,,,,,,,,,,,,,,,,return,31.37604,-1919.232,2314.329102,1,0,1,0,1,602c1fc2c083e34a7ba2894b,606a0f38a5fd39d4018ecee0,2021-04-04_15h11.52.249,Colour_Similarity_Experiment,2020.2.10,Win32,60,60675255c767bca6388caeee,316.7752003,17.06000763,16.71736919,16.69777184,16.73042827,16.73042827,,,,,,,,,,,,,,,,,,,,,,,,,,,,,,,,,,,,,,,,,,,,,,,,,,,,,,,,,,,,,,,,,,,,,,,,,,,,,,,,,,,,,,,,,,,,,,,,,,,,,,,,,,,,,,,,,
,,,,,,,,,,,,,,,,,,,,,,,,,,,,,,,,,return,10.150445,-829.44,1318.865932,2,0,2,0,1,602c1fc2c083e34a7ba2894b,606a0f38a5fd39d4018ecee0,2021-04-04_15h11.52.249,Colour_Similarity_Experiment,2020.2.10,Win32,60,60675255c767bca6388caeee,316.7752003,17.06000763,16.71736919,16.69777184,16.73042827,16.73042827,,,,,,,,,,,,,,,,,,,,,,,,,,,,,,,,,,,,,,,,,,,,,,,,,,,,,,,,,,,,,,,,,,,,,,,,,,,,,,,,,,,,,,,,,,,,,,,,,,,,,,,,,,,,,,,,,
,,,,,,,,,,,,,,,,,,,,,,,,,,,,,,,,,return,7.513515,-465.408,986.3433516,3,0,3,0,1,602c1fc2c083e34a7ba2894b,606a0f38a5fd39d4018ecee0,2021-04-04_15h11.52.249,Colour_Similarity_Experiment,2020.2.10,Win32,60,60675255c767bca6388caeee,316.7752003,17.06000763,16.71736919,16.69777184,16.73042827,16.73042827,,,,,,,,,,,,,,,,,,,,,,,,,,,,,,,,,,,,,,,,,,,,,,,,,,,,,,,,,,,,,,,,,,,,,,,,,,,,,,,,,,,,,,,,,,,,,,,,,,,,,,,,,,,,,,,,,
,,,,,,,,,,,,,,,,,,,,,,,,,,,,,,,,,return,5.164665,-140.544,689.5985168,4,0,4,0,1,602c1fc2c083e34a7ba2894b,606a0f38a5fd39d4018ecee0,2021-04-04_15h11.52.249,Colour_Similarity_Experiment,2020.2.10,Win32,60,60675255c767bca6388caeee,316.7752003,17.06000763,16.71736919,16.69777184,16.73042827,16.73042827,,,,,,,,,,,,,,,,,,,,,,,,,,,,,,,,,,,,,,,,,,,,,,,,,,,,,,,,,,,,,,,,,,,,,,,,,,,,,,,,,,,,,,,,,,,,,,,,,,,,,,,,,,,,,,,,,
,,,,,,,,,,,,,,,,,,,,,,,,,,,,,,,,,,,,,,,,,,602c1fc2c083e34a7ba2894b,606a0f38a5fd39d4018ecee0,2021-04-04_15h11.52.249,Colour_Similarity_Experiment,2020.2.10,Win32,60,60675255c767bca6388caeee,316.7752003,17.06000763,16.71736919,16.69777184,16.73042827,16.73042827,255,44.51039965,304.4511336,2029.674224,202.9674224,913.3534008,space,7.05453,space,24.26328,space,45.224865,space,9.61756,space,1.67262,space,7.879475,6,PF,3,strong,-52.79998934,73.59999466,1,0,0,response7disk_5,6,0,18.099565,-0.799988568,3.19999361,1,0,0,rectangle_8,-0.799988568,3.19999361,1,0,0,2,-0.799988568,3.19999361,1,0,0,0,0,0,3,1,,,,,,,,,,,,,,,,,,,,,,,,,,,,,,,,,,,,,,,,,,,,,,,,,,,,,,,,,,,,
,,,,,,,,,,,,,,,,,,,,,,,,,,,,,,,,,,,,,,,,,,602c1fc2c083e34a7ba2894b,606a0f38a5fd39d4018ecee0,2021-04-04_15h11.52.249,Colour_Similarity_Experiment,2020.2.10,Win32,60,60675255c767bca6388caeee,316.7752003,17.06000763,16.71736919,16.69777184,16.73042827,16.73042827,,,,,,,,,,,,,,,,,,,5,PF,3,strong,50.4000122,-107.200008,1,0,0,response3disk_5,3,4,13.03942,3.200011492,2.399993598,1,0,0,rectangle_8,3.200011492,2.399993598,1,0,0,2,3.200011492,2.399993598,1,0,0,0,1,1,2,1,,,,,,,,,,,,,,,,,,,,,,,,,,,,,,,,,,,,,,,,,,,,,,,,,,,,,,,,,,,,
,,,,,,,,,,,,,,,,,,,,,,,,,,,,,,,,,,,,,,,,,,602c1fc2c083e34a7ba2894b,606a0f38a5fd39d4018ecee0,2021-04-04_15h11.52.249,Colour_Similarity_Experiment,2020.2.10,Win32,60,60675255c767bca6388caeee,316.7752003,17.06000763,16.71736919,16.69777184,16.73042827,16.73042827,,,,,,,,,,,,,,,,,,,7,PF,3,strong,-71.19998962,-46.40000713,1,0,0,response5disk_5,5,2,8.36529,-10.39993988,3.999993622,1,0,0,rectangle_8,-94.39994113,-41.60000706,1,0,0,2,6.400011539,-2.400006473,1,0,0,0,2,2,0,1,response5disk_7,rectangle_4,,,,,,,,,,,,,,,,,,,,,,,,,,,,,,,,,,,,,,,,,,,,,,,,,,,,,,,,,,
,,,,,,,,,,,,,,,,,,,,,,,,,,,,,,,,,,,,,,,,,,602c1fc2c083e34a7ba2894b,606a0f38a5fd39d4018ecee0,2021-04-04_15h11.52.249,Colour_Similarity_Experiment,2020.2.10,Win32,60,60675255c767bca6388caeee,316.7752003,17.06000763,16.71736919,16.69777184,16.73042827,16.73042827,,,,,,,,,,,,,,,,,,,4,PF,3,weak,28.00001186,-87.20000774,1,0,0,response3disk_5,7,4,5.233025,15.20001167,3.19999361,1,0,0,rectangle_8,15.20001167,3.19999361,1,0,0,2,15.20001167,3.19999361,1,0,0,0,3,3,6,1,,,,,,,,,,,,,,,,,,,,,,,,,,,,,,,,,,,,,,,,,,,,,,,,,,,,,,,,,,,,
,,,,,,,,,,,,,,,,,,,,,,,,,,,,,,,,,,,,,,,,,,602c1fc2c083e34a7ba2894b,606a0f38a5fd39d4018ecee0,2021-04-04_15h11.52.249,Colour_Similarity_Experiment,2020.2.10,Win32,60,60675255c767bca6388caeee,316.7752003,17.06000763,16.71736919,16.69777184,16.73042827,16.73042827,,,,,,,,,,,,,,,,,,,1,PF,3,weak,63.20001239,63.19997009,1,0,0,response1disk_5,4,6,3.814715,10.4000116,1.599993587,1,0,0,rectangle_8,-59.99998945,-44.00000709,1,0,0,2,16.80001169,5.599993646,1,0,0,0,4,4,5,1,response5disk_7,rectangle_4,,,,,,,,,,,,,,,,,,,,,,,,,,,,,,,,,,,,,,,,,,,,,,,,,,,,,,,,,,
,,,,,,,,,,,,,,,,,,,,,,,,,,,,,,,,,,,,,,,,,,602c1fc2c083e34a7ba2894b,606a0f38a5fd39d4018ecee0,2021-04-04_15h11.52.249,Colour_Similarity_Experiment,2020.2.10,Win32,60,60675255c767bca6388caeee,316.7752003,17.06000763,16.71736919,16.69777184,16.73042827,16.73042827,,,,,,,,,,,,,,,,,,,5,PF,3,weak,68.00001246,79.19997033,1,0,0,response1disk_5,2,7,6.087135,29.60006071,-1.600006461,1,0,0,rectangle_8,29.60006071,-1.600006461,1,0,0,2,29.60006071,-1.600006461,1,0,0,0,5,5,1,1,,,,,,,,,,,,,,,,,,,,,,,,,,,,,,,,,,,,,,,,,,,,,,,,,,,,,,,,,,,,
,,,,,,,,,,,,,,,,,,,,,,,,,,,,,,,,,,,,,,,,,,602c1fc2c083e34a7ba2894b,606a0f38a5fd39d4018ecee0,2021-04-04_15h11.52.249,Colour_Similarity_Experiment,2020.2.10,Win32,60,60675255c767bca6388caeee,316.7752003,17.06000763,16.71736919,16.69777184,16.73042827,16.73042827,,,,,,,,,,,,,,,,,,,2,PF,3,weak,107.200013,31.19996961,1,0,0,response1disk_5,5,6,7.69252,15.20001167,4.799993634,1,0,0,rectangle_8,15.20001167,4.799993634,1,0,0,2,15.20001167,4.799993634,1,0,0,0,6,6,4,1,,,,,,,,,,,,,,,,,,,,,,,,,,,,,,,,,,,,,,,,,,,,,,,,,,,,,,,,,,,,
,,,,,,,,,,,,,,,,,,,,,,,,,,,,,,,,,,,,,,,,,,602c1fc2c083e34a7ba2894b,606a0f38a5fd39d4018ecee0,2021-04-04_15h11.52.249,Colour_Similarity_Experiment,2020.2.10,Win32,60,60675255c767bca6388caeee,316.7752003,17.06000763,16.71736919,16.69777184,16.73042827,16.73042827,,,,,,,,,,,,,,,,,,,,PF,3,weak,,,,,,,,7,11.385855,,,,,,,,,,,,,,,,,,,,,,,,,space,6.43198,4,weak,48.00001216,67.19997015,1,0,0,response1disk,8,1,6.400011539,-4.000006497,1,0,0,rectangle,6.400011539,-4.000006497,1,0,0,,2,0.004275,6.400011539,-4.000006497,1,0,0,0,0,0,124,1,0,,,,,,,,,,,,,,,,,,,,,
,,,,,,,,,,,,,,,,,,,,,,,,,,,,,,,,,,,,,,,,,,602c1fc2c083e34a7ba2894b,606a0f38a5fd39d4018ecee0,2021-04-04_15h11.52.249,Colour_Similarity_Experiment,2020.2.10,Win32,60,60675255c767bca6388caeee,316.7752003,17.06000763,16.71736919,16.69777184,16.73042827,16.73042827,,,,,,,,,,,,,,,,,,,,PF,3,strong,,,,,,,,7,3.835925,,,,,,,,,,,,,,,,,,,,,,,,,,,1,strong,41.60006089,56.79999441,1,0,0,response1disk,3,2,0.800011456,-7.200006545,1,0,0,rectangle,0.800011456,-7.200006545,1,0,0,,4,0.000755,0.800011456,-7.200006545,1,0,0,0,1,1,99,1,0,,,,,,,,,,,,,,,,,,,,,
,,,,,,,,,,,,,,,,,,,,,,,,,,,,,,,,,,,,,,,,,,602c1fc2c083e34a7ba2894b,606a0f38a5fd39d4018ecee0,2021-04-04_15h11.52.249,Colour_Similarity_Experiment,2020.2.10,Win32,60,60675255c767bca6388caeee,316.7752003,17.06000763,16.71736919,16.69777184,16.73042827,16.73042827,,,,,,,,,,,,,,,,,,,,PF,3,strong,,,,,,,,4,3.085615,,,,,,,,,,,,,,,,,,,,,,,,,,,2,strong,45.60006095,-70.40000749,1,0,0,response3disk,2,3,28.80001187,-4.000006497,1,0,0,rectangle,28.80001187,-4.000006497,1,0,0,,0,0.00335,28.80001187,-4.000006497,1,0,0,0,2,2,142,1,0,,,,,,,,,,,,,,,,,,,,,
,,,,,,,,,,,,,,,,,,,,,,,,,,,,,,,,,,,,,,,,,,602c1fc2c083e34a7ba2894b,606a0f38a5fd39d4018ecee0,2021-04-04_15h11.52.249,Colour_Similarity_Experiment,2020.2.10,Win32,60,60675255c767bca6388caeee,316.7752003,17.06000763,16.71736919,16.69777184,16.73042827,16.73042827,,,,,,,,,,,,,,,,,,,,PF,3,strong,,,,,,,,4,2.78387,,,,,,,,,,,,,,,,,,,,,,,,,,,7,strong,38.40001202,-71.2000075,1,0,0,response3disk,3,4,8.000011563,2.399993598,1,0,0,rectangle,8.000011563,2.399993598,1,0,0,,5,0.00327,8.000011563,2.399993598,1,0,0,0,3,3,73,1,0,,,,,,,,,,,,,,,,,,,,,
,,,,,,,,,,,,,,,,,,,,,,,,,,,,,,,,,,,,,,,,,,602c1fc2c083e34a7ba2894b,606a0f38a5fd39d4018ecee0,2021-04-04_15h11.52.249,Colour_Similarity_Experiment,2020.2.10,Win32,60,60675255c767bca6388caeee,316.7752003,17.06000763,16.71736919,16.69777184,16.73042827,16.73042827,,,,,,,,,,,,,,,,,,,,PF,3,weak,,,,,,,,5,3.18301,,,,,,,,,,,,,,,,,,,,,,,,,,,8,weak,76.00001258,-48.00000715,1,0,0,response3disk,6,5,-11.19998872,-8.800006568,1,0,0,rectangle,43.20001209,85.59999484,1,0,0,7,7,5.55756,27.20001185,-6.400006533,1,0,0,0,4,4,161,1,1,response1disk_3,rectangle,,,,,,,,,,,,,,,,,,,
,,,,,,,,,,,,,,,,,,,,,,,,,,,,,,,,,,,,,,,,,,602c1fc2c083e34a7ba2894b,606a0f38a5fd39d4018ecee0,2021-04-04_15h11.52.249,Colour_Similarity_Experiment,2020.2.10,Win32,60,60675255c767bca6388caeee,316.7752003,17.06000763,16.71736919,16.69777184,16.73042827,16.73042827,,,,,,,,,,,,,,,,,,,,PF,3,weak,,,,,,,,7,2.335325,,,,,,,,,,,,,,,,,,,,,,,,,,,5,weak,44.80001211,68.79999459,1,0,0,response1disk,1,6,16.00001168,-6.4373E-06,1,0,0,rectangle,98.40001291,-64.8000074,1,0,0,5,5,3.083465,8.000011563,7.19999367,1,0,0,0,5,5,159,1,1,response3disk_3,rectangle,,,,,,,,,,,,,,,,,,,
,,,,,,,,,,,,,,,,,,,,,,,,,,,,,,,,,,,,,,,,,,602c1fc2c083e34a7ba2894b,606a0f38a5fd39d4018ecee0,2021-04-04_15h11.52.249,Colour_Similarity_Experiment,2020.2.10,Win32,60,60675255c767bca6388caeee,316.7752003,17.06000763,16.71736919,16.69777184,16.73042827,16.73042827,,,,,,,,,,,,,,,,,,,,PF,3,weak,,,,,,,,2,4.504735,,,,,,,,,,,,,,,,,,,,,,,,,,,4,weak,-90.39994107,-48.80000716,1,0,0,response5disk,9,7,8.800011575,-4.800006509,1,0,0,rectangle,8.800011575,-4.800006509,1,0,0,5,4,0.001375,8.800011575,-4.800006509,1,0,0,0,6,6,75,1,0,,,,,,,,,,,,,,,,,,,,,
,,,,,,,,,,,,,,,,,,,,,,,,,,,,,,,,,,,,,,,,,,602c1fc2c083e34a7ba2894b,606a0f38a5fd39d4018ecee0,2021-04-04_15h11.52.249,Colour_Similarity_Experiment,2020.2.10,Win32,60,60675255c767bca6388caeee,316.7752003,17.06000763,16.71736919,16.69777184,16.73042827,16.73042827,,,,,,,,,,,,,,,,,,,,PF,3,strong,,,,,,,,6,3.2006,,,,,,,,,,,,,,,,,,,,,,,,,,,3,strong,97.6000129,49.5999943,1,0,0,response1disk,5,8,16.80001169,-4.000006497,1,0,0,rectangle,16.80001169,-4.000006497,1,0,0,5,5,0.00123,16.80001169,-4.000006497,1,0,0,0,7,7,101,1,0,,,,,,,,,,,,,,,,,,,,,
,,,,,,,,,,,,,,,,,,,,,,,,,,,,,,,,,,,,,,,,,,602c1fc2c083e34a7ba2894b,606a0f38a5fd39d4018ecee0,2021-04-04_15h11.52.249,Colour_Similarity_Experiment,2020.2.10,Win32,60,60675255c767bca6388caeee,316.7752003,17.06000763,16.71736919,16.69777184,16.73042827,16.73042827,,,,,,,,,,,,,,,,,,,,PF,3,weak,,,,,,,,3,3.39564,,,,,,,,,,,,,,,,,,,,,,,,,,,6,weak,-54.39994054,-98.4000079,1,0,0,response5disk,8,9,33.60006077,6.399993658,1,0,0,rectangle,33.60006077,6.399993658,1,0,0,5,2,0.002025,33.60006077,6.399993658,1,0,0,0,8,8,64,1,0,,,,,,,,,,,,,,,,,,,,,
,,,,,,,,,,,,,,,,,,,,,,,,,,,,,,,,,,,,,,,,,,602c1fc2c083e34a7ba2894b,606a0f38a5fd39d4018ecee0,2021-04-04_15h11.52.249,Colour_Similarity_Experiment,2020.2.10,Win32,60,60675255c767bca6388caeee,316.7752003,17.06000763,16.71736919,16.69777184,16.73042827,16.73042827,,,,,,,,,,,,,,,,,,,,PF,3,strong,,,,,,,,6,4.868085,,,,,,,,,,,,,,,,,,,,,,,,,,,6,strong,103.200013,60.79999447,1,0,0,response1disk,5,10,13.60006047,10.39999372,1,0,0,rectangle,13.60006047,10.39999372,1,0,0,5,1,0.00239,13.60006047,10.39999372,1,0,0,0,9,9,126,1,0,,,,,,,,,,,,,,,,,,,,,
,,,,,,,,,,,,,,,,,,,,,,,,,,,,,,,,,,,,,,,,,,602c1fc2c083e34a7ba2894b,606a0f38a5fd39d4018ecee0,2021-04-04_15h11.52.249,Colour_Similarity_Experiment,2020.2.10,Win32,60,60675255c767bca6388caeee,316.7752003,17.06000763,16.71736919,16.69777184,16.73042827,16.73042827,,,,,,,,,,,,,,,,,,,,PF,3,weak,,,,,,,,4,4.598275,,,,,,,,,,,,,,,,,,,,,,,,,,,8,weak,38.40001202,-77.60000759,1,0,0,response3disk,7,11,20.80001175,9.599993706,1,0,0,rectangle,20.80001175,9.599993706,1,0,0,5,5,0.001775,20.80001175,9.599993706,1,0,0,0,10,10,23,1,0,,,,,,,,,,,,,,,,,,,,,
,,,,,,,,,,,,,,,,,,,,,,,,,,,,,,,,,,,,,,,,,,602c1fc2c083e34a7ba2894b,606a0f38a5fd39d4018ecee0,2021-04-04_15h11.52.249,Colour_Similarity_Experiment,2020.2.10,Win32,60,60675255c767bca6388caeee,316.7752003,17.06000763,16.71736919,16.69777184,16.73042827,16.73042827,,,,,,,,,,,,,,,,,,,,PF,3,weak,,,,,,,,6,7.315735,,,,,,,,,,,,,,,,,,,,,,,,,,,5,weak,108.0000131,35.9999941,1,0,0,response1disk,3,12,16.80001169,-2.400006473,1,0,0,rectangle,16.80001169,-2.400006473,1,0,0,5,2,0.003355,16.80001169,-2.400006473,1,0,0,0,11,11,109,1,0,,,,,,,,,,,,,,,,,,,,,
,,,,,,,,,,,,,,,,,,,,,,,,,,,,,,,,,,,,,,,,,,602c1fc2c083e34a7ba2894b,606a0f38a5fd39d4018ecee0,2021-04-04_15h11.52.249,Colour_Similarity_Experiment,2020.2.10,Win32,60,60675255c767bca6388caeee,316.7752003,17.06000763,16.71736919,16.69777184,16.73042827,16.73042827,,,,,,,,,,,,,,,,,,,,PF,3,strong,,,,,,,,7,1.67861,,,,,,,,,,,,,,,,,,,,,,,,,,,9,strong,40.00001204,68.79999459,1,0,0,response1disk,8,13,-5.599988639,7.19999367,1,0,0,rectangle,-5.599988639,7.19999367,1,0,0,5,6,0.00189,-5.599988639,7.19999367,1,0,0,0,12,12,6,1,0,,,,,,,,,,,,,,,,,,,,,
,,,,,,,,,,,,,,,,,,,,,,,,,,,,,,,,,,,,,,,,,,602c1fc2c083e34a7ba2894b,606a0f38a5fd39d4018ecee0,2021-04-04_15h11.52.249,Colour_Similarity_Experiment,2020.2.10,Win32,60,60675255c767bca6388caeee,316.7752003,17.06000763,16.71736919,16.69777184,16.73042827,16.73042827,,,,,,,,,,,,,,,,,,,,PF,3,weak,,,,,,,,1,2.799825,,,,,,,,,,,,,,,,,,,,,,,,,,,4,weak,-75.99998969,34.39999408,1,0,0,response7disk,7,14,-2.399939764,-3.200006485,1,0,0,rectangle,-2.399939764,-3.200006485,1,0,0,5,4,0.002155,-2.399939764,-3.200006485,1,0,0,0,13,13,38,1,0,,,,,,,,,,,,,,,,,,,,,
,,,,,,,,,,,,,,,,,,,,,,,,,,,,,,,,,,,,,,,,,,602c1fc2c083e34a7ba2894b,606a0f38a5fd39d4018ecee0,2021-04-04_15h11.52.249,Colour_Similarity_Experiment,2020.2.10,Win32,60,60675255c767bca6388caeee,316.7752003,17.06000763,16.71736919,16.69777184,16.73042827,16.73042827,,,,,,,,,,,,,,,,,,,,PF,3,strong,,,,,,,,5,3.267015,,,,,,,,,,,,,,,,,,,,,,,,,,,7,strong,95.20001286,-51.2000072,1,0,0,response3disk,4,15,28.80001187,-3.200006485,1,0,0,rectangle,28.80001187,-3.200006485,1,0,0,5,4,0.000375,28.80001187,-3.200006485,1,0,0,0,14,14,158,1,0,,,,,,,,,,,,,,,,,,,,,
,,,,,,,,,,,,,,,,,,,,,,,,,,,,,,,,,,,,,,,,,,602c1fc2c083e34a7ba2894b,606a0f38a5fd39d4018ecee0,2021-04-04_15h11.52.249,Colour_Similarity_Experiment,2020.2.10,Win32,60,60675255c767bca6388caeee,316.7752003,17.06000763,16.71736919,16.69777184,16.73042827,16.73042827,,,,,,,,,,,,,,,,,,,,PF,3,weak,,,,,,,,6,2.93041,,,,,,,,,,,,,,,,,,,,,,,,,,,1,weak,67.20001245,32.79999405,1,0,0,response1disk,6,16,20.80001175,-2.400006473,1,0,0,rectangle,20.80001175,-2.400006473,1,0,0,5,5,0.001835,20.80001175,-2.400006473,1,0,0,0,15,15,144,1,0,,,,,,,,,,,,,,,,,,,,,
,,,,,,,,,,,,,,,,,,,,,,,,,,,,,,,,,,,,,,,,,,602c1fc2c083e34a7ba2894b,606a0f38a5fd39d4018ecee0,2021-04-04_15h11.52.249,Colour_Similarity_Experiment,2020.2.10,Win32,60,60675255c767bca6388caeee,316.7752003,17.06000763,16.71736919,16.69777184,16.73042827,16.73042827,,,,,,,,,,,,,,,,,,,,PF,3,strong,,,,,,,,6,1.366325,,,,,,,,,,,,,,,,,,,,,,,,,,,2,strong,83.20001268,42.39999419,1,0,0,response1disk,3,17,18.40001172,-8.000006557,1,0,0,rectangle,-55.99998939,-76.00000757,1,0,0,3,3,1.687895,12.00001162,4.799993634,1,0,0,0,16,16,104,1,1,response5disk_3,rectangle,,,,,,,,,,,,,,,,,,,
,,,,,,,,,,,,,,,,,,,,,,,,,,,,,,,,,,,,,,,,,,602c1fc2c083e34a7ba2894b,606a0f38a5fd39d4018ecee0,2021-04-04_15h11.52.249,Colour_Similarity_Experiment,2020.2.10,Win32,60,60675255c767bca6388caeee,316.7752003,17.06000763,16.71736919,16.69777184,16.73042827,16.73042827,,,,,,,,,,,,,,,,,,,,PF,3,weak,,,,,,,,0,2.598835,,,,,,,,,,,,,,,,,,,,,,,,,,,3,weak,-39.19998914,54.39999437,1,0,0,response7disk,3,18,20.00001174,4.799993634,1,0,0,rectangle,20.00001174,4.799993634,1,0,0,3,1,0.00269,20.00001174,4.799993634,1,0,0,0,17,17,4,1,0,,,,,,,,,,,,,,,,,,,,,
,,,,,,,,,,,,,,,,,,,,,,,,,,,,,,,,,,,,,,,,,,602c1fc2c083e34a7ba2894b,606a0f38a5fd39d4018ecee0,2021-04-04_15h11.52.249,Colour_Similarity_Experiment,2020.2.10,Win32,60,60675255c767bca6388caeee,316.7752003,17.06000763,16.71736919,16.69777184,16.73042827,16.73042827,,,,,,,,,,,,,,,,,,,,PF,3,strong,,,,,,,,6,3.647955,,,,,,,,,,,,,,,,,,,,,,,,,,,1,strong,77.6000126,69.5999946,1,0,0,response1disk,9,19,28.00001186,7.19999367,1,0,0,rectangle,28.00001186,7.19999367,1,0,0,3,1,0.000125,28.00001186,7.19999367,1,0,0,0,18,18,123,1,0,,,,,,,,,,,,,,,,,,,,,
,,,,,,,,,,,,,,,,,,,,,,,,,,,,,,,,,,,,,,,,,,602c1fc2c083e34a7ba2894b,606a0f38a5fd39d4018ecee0,2021-04-04_15h11.52.249,Colour_Similarity_Experiment,2020.2.10,Win32,60,60675255c767bca6388caeee,316.7752003,17.06000763,16.71736919,16.69777184,16.73042827,16.73042827,,,,,,,,,,,,,,,,,,,,PF,3,weak,,,,,,,,7,1.161745,,,,,,,,,,,,,,,,,,,,,,,,,,,9,weak,41.60006089,97.59999502,1,0,0,response1disk,6,20,-5.599988639,14.39999378,1,0,0,rectangle,-5.599988639,14.39999378,1,0,0,3,6,0.00167,-5.599988639,14.39999378,1,0,0,0,19,19,148,1,0,,,,,,,,,,,,,,,,,,,,,
,,,,,,,,,,,,,,,,,,,,,,,,,,,,,,,,,,,,,,,,,,602c1fc2c083e34a7ba2894b,606a0f38a5fd39d4018ecee0,2021-04-04_15h11.52.249,Colour_Similarity_Experiment,2020.2.10,Win32,60,60675255c767bca6388caeee,316.7752003,17.06000763,16.71736919,16.69777184,16.73042827,16.73042827,,,,,,,,,,,,,,,,,,,,PF,3,strong,,,,,,,,0,1.367375,,,,,,,,,,,,,,,,,,,,,,,,,,,9,strong,-32.79998904,60.79999447,1,0,0,response7disk,6,21,-19.99998885,-2.400006473,1,0,0,rectangle,-19.99998885,-2.400006473,1,0,0,3,0,0.001055,-19.99998885,-2.400006473,1,0,0,0,20,20,117,1,0,,,,,,,,,,,,,,,,,,,,,
,,,,,,,,,,,,,,,,,,,,,,,,,,,,,,,,,,,,,,,,,,602c1fc2c083e34a7ba2894b,606a0f38a5fd39d4018ecee0,2021-04-04_15h11.52.249,Colour_Similarity_Experiment,2020.2.10,Win32,60,60675255c767bca6388caeee,316.7752003,17.06000763,16.71736919,16.69777184,16.73042827,16.73042827,,,,,,,,,,,,,,,,,,,,PF,3,weak,,,,,,,,6,3.282225,,,,,,,,,,,,,,,,,,,,,,,,,,,3,weak,88.00001276,33.59999406,1,0,0,response1disk,4,22,-10.39993988,5.599993646,1,0,0,rectangle,-10.39993988,5.599993646,1,0,0,3,6,0.00177,-10.39993988,5.599993646,1,0,0,0,21,21,30,1,0,,,,,,,,,,,,,,,,,,,,,
,,,,,,,,,,,,,,,,,,,,,,,,,,,,,,,,,,,,,,,,,,602c1fc2c083e34a7ba2894b,606a0f38a5fd39d4018ecee0,2021-04-04_15h11.52.249,Colour_Similarity_Experiment,2020.2.10,Win32,60,60675255c767bca6388caeee,316.7752003,17.06000763,16.71736919,16.69777184,16.73042827,16.73042827,,,,,,,,,,,,,,,,,,,,PF,3,weak,,,,,,,,2,3.904685,,,,,,,,,,,,,,,,,,,,,,,,,,,4,weak,-81.59998977,-45.60000712,1,0,0,response5disk,5,23,21.60006059,11.99999374,1,0,0,rectangle,21.60006059,11.99999374,1,0,0,3,5,0.00218,21.60006059,11.99999374,1,0,0,0,22,22,49,1,0,,,,,,,,,,,,,,,,,,,,,
,,,,,,,,,,,,,,,,,,,,,,,,,,,,,,,,,,,,,,,,,,602c1fc2c083e34a7ba2894b,606a0f38a5fd39d4018ecee0,2021-04-04_15h11.52.249,Colour_Similarity_Experiment,2020.2.10,Win32,60,60675255c767bca6388caeee,316.7752003,17.06000763,16.71736919,16.69777184,16.73042827,16.73042827,,,,,,,,,,,,,,,,,,,,PF,3,weak,,,,,,,,6,3.685145,,,,,,,,,,,,,,,,,,,,,,,,,,,5,weak,84.80001271,41.59999418,1,0,0,response1disk,2,24,27.20001185,-2.400006473,1,0,0,rectangle,27.20001185,-2.400006473,1,0,0,3,0,0.00169,27.20001185,-2.400006473,1,0,0,0,23,23,129,1,0,,,,,,,,,,,,,,,,,,,,,
,,,,,,,,,,,,,,,,,,,,,,,,,,,,,,,,,,,,,,,,,,602c1fc2c083e34a7ba2894b,606a0f38a5fd39d4018ecee0,2021-04-04_15h11.52.249,Colour_Similarity_Experiment,2020.2.10,Win32,60,60675255c767bca6388caeee,316.7752003,17.06000763,16.71736919,16.69777184,16.73042827,16.73042827,,,,,,,,,,,,,,,,,,,,PF,3,strong,,,,,,,,5,3.01742,,,,,,,,,,,,,,,,,,,,,,,,,,,7,strong,82.40001267,-32.00000691,1,0,0,response3disk,9,25,-3.999988616,8.799993694,1,0,0,rectangle,-3.999988616,8.799993694,1,0,0,3,4,0.003125,-3.999988616,8.799993694,1,0,0,0,24,24,155,1,0,,,,,,,,,,,,,,,,,,,,,
,,,,,,,,,,,,,,,,,,,,,,,,,,,,,,,,,,,,,,,,,,602c1fc2c083e34a7ba2894b,606a0f38a5fd39d4018ecee0,2021-04-04_15h11.52.249,Colour_Similarity_Experiment,2020.2.10,Win32,60,60675255c767bca6388caeee,316.7752003,17.06000763,16.71736919,16.69777184,16.73042827,16.73042827,,,,,,,,,,,,,,,,,,,,PF,3,strong,,,,,,,,5,2.101495,,,,,,,,,,,,,,,,,,,,,,,,,,,6,strong,83.20001268,-30.40000689,1,0,0,response3disk,2,26,10.4000116,7.19999367,1,0,0,rectangle,10.4000116,7.19999367,1,0,0,3,2,0.000675,10.4000116,7.19999367,1,0,0,0,25,25,112,1,0,,,,,,,,,,,,,,,,,,,,,
,,,,,,,,,,,,,,,,,,,,,,,,,,,,,,,,,,,,,,,,,,602c1fc2c083e34a7ba2894b,606a0f38a5fd39d4018ecee0,2021-04-04_15h11.52.249,Colour_Similarity_Experiment,2020.2.10,Win32,60,60675255c767bca6388caeee,316.7752003,17.06000763,16.71736919,16.69777184,16.73042827,16.73042827,,,,,,,,,,,,,,,,,,,,PF,3,weak,,,,,,,,0,1.398305,,,,,,,,,,,,,,,,,,,,,,,,,,,8,weak,-51.99998933,95.99999499,1,0,0,response7disk,2,27,-6.399939823,-1.600006461,1,0,0,rectangle,-6.399939823,-1.600006461,1,0,0,3,2,0.000785,-6.399939823,-1.600006461,1,0,0,0,26,26,83,1,0,,,,,,,,,,,,,,,,,,,,,
,,,,,,,,,,,,,,,,,,,,,,,,,,,,,,,,,,,,,,,,,,602c1fc2c083e34a7ba2894b,606a0f38a5fd39d4018ecee0,2021-04-04_15h11.52.249,Colour_Similarity_Experiment,2020.2.10,Win32,60,60675255c767bca6388caeee,316.7752003,17.06000763,16.71736919,16.69777184,16.73042827,16.73042827,,,,,,,,,,,,,,,,,,,,PF,3,strong,,,,,,,,0,1.165405,,,,,,,,,,,,,,,,,,,,,,,,,,,7,strong,-31.19998902,83.99999481,1,0,0,response7disk,2,28,-0.799988568,2.399993598,1,0,0,rectangle,-0.799988568,2.399993598,1,0,0,3,7,0.001755,-0.799988568,2.399993598,1,0,0,0,27,27,138,1,0,,,,,,,,,,,,,,,,,,,,,
,,,,,,,,,,,,,,,,,,,,,,,,,,,,,,,,,,,,,,,,,,602c1fc2c083e34a7ba2894b,606a0f38a5fd39d4018ecee0,2021-04-04_15h11.52.249,Colour_Similarity_Experiment,2020.2.10,Win32,60,60675255c767bca6388caeee,316.7752003,17.06000763,16.71736919,16.69777184,16.73042827,16.73042827,,,,,,,,,,,,,,,,,,,,PF,3,weak,,,,,,,,2,2.934325,,,,,,,,,,,,,,,,,,,,,,,,,,,7,weak,-65.59998953,-42.40000707,1,0,0,response5disk,9,29,2.40001148,1.599993587,1,0,0,rectangle,2.40001148,1.599993587,1,0,0,3,3,0.0026,2.40001148,1.599993587,1,0,0,0,28,28,10,1,0,,,,,,,,,,,,,,,,,,,,,
,,,,,,,,,,,,,,,,,,,,,,,,,,,,,,,,,,,,,,,,,,602c1fc2c083e34a7ba2894b,606a0f38a5fd39d4018ecee0,2021-04-04_15h11.52.249,Colour_Similarity_Experiment,2020.2.10,Win32,60,60675255c767bca6388caeee,316.7752003,17.06000763,16.71736919,16.69777184,16.73042827,16.73042827,,,,,,,,,,,,,,,,,,,,PF,3,strong,,,,,,,,7,2.20181,,,,,,,,,,,,,,,,,,,,,,,,,,,8,strong,61.60001236,95.19997057,1,0,0,response1disk,5,30,-22.39994006,-6.400006533,1,0,0,rectangle,-22.39994006,-6.400006533,1,0,0,3,4,0.00287,-22.39994006,-6.400006533,1,0,0,0,29,29,152,1,0,,,,,,,,,,,,,,,,,,,,,
,,,,,,,,,,,,,,,,,,,,,,,,,,,,,,,,,,,,,,,,,,602c1fc2c083e34a7ba2894b,606a0f38a5fd39d4018ecee0,2021-04-04_15h11.52.249,Colour_Similarity_Experiment,2020.2.10,Win32,60,60675255c767bca6388caeee,316.7752003,17.06000763,16.71736919,16.69777184,16.73042827,16.73042827,,,,,,,,,,,,,,,,,,,,PF,3,strong,,,,,,,,1,2.399965,,,,,,,,,,,,,,,,,,,,,,,,,,,4,strong,-74.39994084,30.39999402,1,0,0,response7disk,3,31,19.20001173,-4.800006509,1,0,0,rectangle,19.20001173,-4.800006509,1,0,0,3,4,0.000285,19.20001173,-4.800006509,1,0,0,0,30,30,77,1,0,,,,,,,,,,,,,,,,,,,,,
,,,,,,,,,,,,,,,,,,,,,,,,,,,,,,,,,,,,,,,,,,602c1fc2c083e34a7ba2894b,606a0f38a5fd39d4018ecee0,2021-04-04_15h11.52.249,Colour_Similarity_Experiment,2020.2.10,Win32,60,60675255c767bca6388caeee,316.7752003,17.06000763,16.71736919,16.69777184,16.73042827,16.73042827,,,,,,,,,,,,,,,,,,,,PF,3,strong,,,,,,,,6,2.049865,,,,,,,,,,,,,,,,,,,,,,,,,,,6,strong,76.00001258,39.19996973,1,0,0,response1disk,1,32,3.200011492,-9.60000658,1,0,0,rectangle,3.200011492,-9.60000658,1,0,0,3,5,0.001355,3.200011492,-9.60000658,1,0,0,0,31,31,5,1,0,,,,,,,,,,,,,,,,,,,,,
,,,,,,,,,,,,,,,,,,,,,,,,,,,,,,,,,,,,,,,,,,602c1fc2c083e34a7ba2894b,606a0f38a5fd39d4018ecee0,2021-04-04_15h11.52.249,Colour_Similarity_Experiment,2020.2.10,Win32,60,60675255c767bca6388caeee,316.7752003,17.06000763,16.71736919,16.69777184,16.73042827,16.73042827,,,,,,,,,,,,,,,,,,,,PF,3,strong,,,,,,,,1,1.417845,,,,,,,,,,,,,,,,,,,,,,,,,,,5,strong,-79.19998974,35.9999941,1,0,0,response7disk,9,33,19.20001173,-0.800006449,1,0,0,rectangle,19.20001173,-0.800006449,1,0,0,3,4,0.00236,19.20001173,-0.800006449,1,0,0,0,32,32,61,1,0,,,,,,,,,,,,,,,,,,,,,
,,,,,,,,,,,,,,,,,,,,,,,,,,,,,,,,,,,,,,,,,,602c1fc2c083e34a7ba2894b,606a0f38a5fd39d4018ecee0,2021-04-04_15h11.52.249,Colour_Similarity_Experiment,2020.2.10,Win32,60,60675255c767bca6388caeee,316.7752003,17.06000763,16.71736919,16.69777184,16.73042827,16.73042827,,,,,,,,,,,,,,,,,,,,PF,3,weak,,,,,,,,1,1.9186,,,,,,,,,,,,,,,,,,,,,,,,,,,8,weak,-107.1999902,29.599994,1,0,0,response7disk,1,34,22.40001178,-2.400006473,1,0,0,rectangle,22.40001178,-2.400006473,1,0,0,3,3,0.00292,22.40001178,-2.400006473,1,0,0,0,33,33,57,1,0,,,,,,,,,,,,,,,,,,,,,
,,,,,,,,,,,,,,,,,,,,,,,,,,,,,,,,,,,,,,,,,,602c1fc2c083e34a7ba2894b,606a0f38a5fd39d4018ecee0,2021-04-04_15h11.52.249,Colour_Similarity_Experiment,2020.2.10,Win32,60,60675255c767bca6388caeee,316.7752003,17.06000763,16.71736919,16.69777184,16.73042827,16.73042827,,,,,,,,,,,,,,,,,,,,PF,3,weak,,,,,,,,7,3.001225,,,,,,,,,,,,,,,,,,,,,,,,,,,6,weak,58.40001231,92.79999495,1,0,0,response1disk,5,35,-8.799988687,7.19999367,1,0,0,rectangle,-8.799988687,7.19999367,1,0,0,3,4,0.003205,-8.799988687,7.19999367,1,0,0,0,34,34,59,1,0,,,,,,,,,,,,,,,,,,,,,
,,,,,,,,,,,,,,,,,,,,,,,,,,,,,,,,,,,,,,,,,,602c1fc2c083e34a7ba2894b,606a0f38a5fd39d4018ecee0,2021-04-04_15h11.52.249,Colour_Similarity_Experiment,2020.2.10,Win32,60,60675255c767bca6388caeee,316.7752003,17.06000763,16.71736919,16.69777184,16.73042827,16.73042827,,,,,,,,,,,,,,,,,,,,PF,3,weak,,,,,,,,7,1.98337,,,,,,,,,,,,,,,,,,,,,,,,,,,7,weak,41.60006089,70.39999461,1,0,0,response1disk,2,36,-3.999988616,-0.800006449,1,0,0,rectangle,-3.999988616,-0.800006449,1,0,0,3,0,0.00285,-3.999988616,-0.800006449,1,0,0,0,35,35,32,1,0,,,,,,,,,,,,,,,,,,,,,
,,,,,,,,,,,,,,,,,,,,,,,,,,,,,,,,,,,,,,,,,,602c1fc2c083e34a7ba2894b,606a0f38a5fd39d4018ecee0,2021-04-04_15h11.52.249,Colour_Similarity_Experiment,2020.2.10,Win32,60,60675255c767bca6388caeee,316.7752003,17.06000763,16.71736919,16.69777184,16.73042827,16.73042827,,,,,,,,,,,,,,,,,,,,PF,3,weak,,,,,,,,6,3.09662,,,,,,,,,,,,,,,,,,,,,,,,,,,4,weak,119.2000132,50.39999431,1,0,0,response1disk,6,37,15.20001167,2.399993598,1,0,0,rectangle,15.20001167,2.399993598,1,0,0,3,0,0.000295,15.20001167,2.399993598,1,0,0,0,36,36,120,1,0,,,,,,,,,,,,,,,,,,,,,
,,,,,,,,,,,,,,,,,,,,,,,,,,,,,,,,,,,,,,,,,,602c1fc2c083e34a7ba2894b,606a0f38a5fd39d4018ecee0,2021-04-04_15h11.52.249,Colour_Similarity_Experiment,2020.2.10,Win32,60,60675255c767bca6388caeee,316.7752003,17.06000763,16.71736919,16.69777184,16.73042827,16.73042827,,,,,,,,,,,,,,,,,,,,PF,3,weak,,,,,,,,6,4.400835,,,,,,,,,,,,,,,,,,,,,,,,,,,4,weak,109.6000131,61.59999448,1,0,0,response1disk,4,38,-15.99998879,-4.800006509,1,0,0,rectangle,-15.99998879,-4.800006509,1,0,0,3,3,0.001985,-15.99998879,-4.800006509,1,0,0,0,37,37,70,1,0,,,,,,,,,,,,,,,,,,,,,
,,,,,,,,,,,,,,,,,,,,,,,,,,,,,,,,,,,,,,,,,,602c1fc2c083e34a7ba2894b,606a0f38a5fd39d4018ecee0,2021-04-04_15h11.52.249,Colour_Similarity_Experiment,2020.2.10,Win32,60,60675255c767bca6388caeee,316.7752003,17.06000763,16.71736919,16.69777184,16.73042827,16.73042827,,,,,,,,,,,,,,,,,,,,PF,3,strong,,,,,,,,7,1.749775,,,,,,,,,,,,,,,,,,,,,,,,,,,1,strong,49.60006101,76.79999471,1,0,0,response1disk,2,39,3.200011492,12.79999375,1,0,0,rectangle,3.200011492,12.79999375,1,0,0,3,0,0.00253,3.200011492,12.79999375,1,0,0,0,38,38,2,1,0,,,,,,,,,,,,,,,,,,,,,
,,,,,,,,,,,,,,,,,,,,,,,,,,,,,,,,,,,,,,,,,,602c1fc2c083e34a7ba2894b,606a0f38a5fd39d4018ecee0,2021-04-04_15h11.52.249,Colour_Similarity_Experiment,2020.2.10,Win32,60,60675255c767bca6388caeee,316.7752003,17.06000763,16.71736919,16.69777184,16.73042827,16.73042827,,,,,,,,,,,,,,,,,,,,PF,3,weak,,,,,,,,2,3.318035,,,,,,,,,,,,,,,,,,,,,,,,,,,2,weak,-77.59998971,-40.00000703,1,0,0,response5disk,1,40,-15.99998879,-16.00000668,1,0,0,rectangle,-15.99998879,-16.00000668,1,0,0,3,0,0.000285,-15.99998879,-16.00000668,1,0,0,0,39,39,9,1,0,,,,,,,,,,,,,,,,,,,,,
,,,,,,,,,,,,,,,,,,,,,,,,,,,,,,,,,,,,,,,,,,602c1fc2c083e34a7ba2894b,606a0f38a5fd39d4018ecee0,2021-04-04_15h11.52.249,Colour_Similarity_Experiment,2020.2.10,Win32,60,60675255c767bca6388caeee,316.7752003,17.06000763,16.71736919,16.69777184,16.73042827,16.73042827,,,,,,,,,,,,,,,,,,,,PF,3,weak,,,,,,,,7,2.128705,,,,,,,,,,,,,,,,,,,,,,,,,,,5,weak,40.80001205,72.79999465,1,0,0,response1disk,6,41,13.60006047,3.19999361,1,0,0,rectangle,13.60006047,3.19999361,1,0,0,3,6,0.00264,13.60006047,3.19999361,1,0,0,0,40,40,103,1,0,,,,,,,,,,,,,,,,,,,,,
,,,,,,,,,,,,,,,,,,,,,,,,,,,,,,,,,,,,,,,,,,602c1fc2c083e34a7ba2894b,606a0f38a5fd39d4018ecee0,2021-04-04_15h11.52.249,Colour_Similarity_Experiment,2020.2.10,Win32,60,60675255c767bca6388caeee,316.7752003,17.06000763,16.71736919,16.69777184,16.73042827,16.73042827,,,,,,,,,,,,,,,,,,,,PF,3,weak,,,,,,,,7,1.864365,,,,,,,,,,,,,,,,,,,,,,,,,,,3,weak,38.40001202,79.19997033,0,0,1,response1disk,9,42,-13.59998876,-6.400006533,1,0,0,rectangle,-13.59998876,-6.400006533,1,0,0,3,4,0.00074,-13.59998876,-6.400006533,1,0,0,0,41,41,79,1,0,,,,,,,,,,,,,,,,,,,,,
,,,,,,,,,,,,,,,,,,,,,,,,,,,,,,,,,,,,,,,,,,602c1fc2c083e34a7ba2894b,606a0f38a5fd39d4018ecee0,2021-04-04_15h11.52.249,Colour_Similarity_Experiment,2020.2.10,Win32,60,60675255c767bca6388caeee,316.7752003,17.06000763,16.71736919,16.69777184,16.73042827,16.73042827,,,,,,,,,,,,,,,,,,,,PF,3,weak,,,,,,,,5,2.95194,,,,,,,,,,,,,,,,,,,,,,,,,,,8,weak,92.80001283,-47.20000714,1,0,0,response3disk,3,43,15.20001167,-12.00000662,1,0,0,rectangle,15.20001167,-12.00000662,1,0,0,3,6,0.00129,15.20001167,-12.00000662,1,0,0,0,42,42,71,1,0,,,,,,,,,,,,,,,,,,,,,
,,,,,,,,,,,,,,,,,,,,,,,,,,,,,,,,,,,,,,,,,,602c1fc2c083e34a7ba2894b,606a0f38a5fd39d4018ecee0,2021-04-04_15h11.52.249,Colour_Similarity_Experiment,2020.2.10,Win32,60,60675255c767bca6388caeee,316.7752003,17.06000763,16.71736919,16.69777184,16.73042827,16.73042827,,,,,,,,,,,,,,,,,,,,PF,3,strong,,,,,,,,5,1.779845,,,,,,,,,,,,,,,,,,,,,,,,,,,4,strong,81.60001266,-48.80000716,1,0,0,response3disk,2,44,10.4000116,-5.600006521,1,0,0,rectangle,10.4000116,-5.600006521,1,0,0,3,7,0.001855,10.4000116,-5.600006521,1,0,0,0,43,43,13,1,0,,,,,,,,,,,,,,,,,,,,,
,,,,,,,,,,,,,,,,,,,,,,,,,,,,,,,,,,,,,,,,,,602c1fc2c083e34a7ba2894b,606a0f38a5fd39d4018ecee0,2021-04-04_15h11.52.249,Colour_Similarity_Experiment,2020.2.10,Win32,60,60675255c767bca6388caeee,316.7752003,17.06000763,16.71736919,16.69777184,16.73042827,16.73042827,,,,,,,,,,,,,,,,,,,,PF,3,strong,,,,,,,,7,1.801505,,,,,,,,,,,,,,,,,,,,,,,,,,,4,strong,42.40001208,70.39999461,1,0,0,response1disk,4,45,13.60006047,7.999993682,1,0,0,rectangle,13.60006047,7.999993682,1,0,0,3,5,0.00275,13.60006047,7.999993682,1,0,0,0,44,44,84,1,0,,,,,,,,,,,,,,,,,,,,,
,,,,,,,,,,,,,,,,,,,,,,,,,,,,,,,,,,,,,,,,,,602c1fc2c083e34a7ba2894b,606a0f38a5fd39d4018ecee0,2021-04-04_15h11.52.249,Colour_Similarity_Experiment,2020.2.10,Win32,60,60675255c767bca6388caeee,316.7752003,17.06000763,16.71736919,16.69777184,16.73042827,16.73042827,,,,,,,,,,,,,,,,,,,,PF,3,strong,,,,,,,,2,2.451685,,,,,,,,,,,,,,,,,,,,,,,,,,,1,strong,-97.59999001,-42.40000707,1,0,0,response5disk,5,46,-25.59998894,-4.800006509,1,0,0,rectangle,-25.59998894,-4.800006509,1,0,0,3,1,0.002655,-25.59998894,-4.800006509,1,0,0,0,45,45,82,1,0,,,,,,,,,,,,,,,,,,,,,
,,,,,,,,,,,,,,,,,,,,,,,,,,,,,,,,,,,,,,,,,,602c1fc2c083e34a7ba2894b,606a0f38a5fd39d4018ecee0,2021-04-04_15h11.52.249,Colour_Similarity_Experiment,2020.2.10,Win32,60,60675255c767bca6388caeee,316.7752003,17.06000763,16.71736919,16.69777184,16.73042827,16.73042827,,,,,,,,,,,,,,,,,,,,PF,3,weak,,,,,,,,0,1.050715,,,,,,,,,,,,,,,,,,,,,,,,,,,3,weak,-27.99998897,67.19997015,1,0,0,response7disk,5,47,-6.399939823,0.799993575,1,0,0,rectangle,-6.399939823,0.799993575,1,0,0,3,0,0.00221,-6.399939823,0.799993575,1,0,0,0,46,46,66,1,0,,,,,,,,,,,,,,,,,,,,,
,,,,,,,,,,,,,,,,,,,,,,,,,,,,,,,,,,,,,,,,,,602c1fc2c083e34a7ba2894b,606a0f38a5fd39d4018ecee0,2021-04-04_15h11.52.249,Colour_Similarity_Experiment,2020.2.10,Win32,60,60675255c767bca6388caeee,316.7752003,17.06000763,16.71736919,16.69777184,16.73042827,16.73042827,,,,,,,,,,,,,,,,,,,,PF,3,weak,,,,,,,,2,2.413775,,,,,,,,,,,,,,,,,,,,,,,,,,,6,weak,-99.19999003,-28.80000687,1,0,0,response5disk,4,48,-9.599988699,-6.4373E-06,1,0,0,rectangle,-9.599988699,-6.4373E-06,1,0,0,3,4,0.00059,-9.599988699,-6.4373E-06,1,0,0,0,47,47,33,1,0,,,,,,,,,,,,,,,,,,,,,
,,,,,,,,,,,,,,,,,,,,,,,,,,,,,,,,,,,,,,,,,,602c1fc2c083e34a7ba2894b,606a0f38a5fd39d4018ecee0,2021-04-04_15h11.52.249,Colour_Similarity_Experiment,2020.2.10,Win32,60,60675255c767bca6388caeee,316.7752003,17.06000763,16.71736919,16.69777184,16.73042827,16.73042827,,,,,,,,,,,,,,,,,,,,PF,3,strong,,,,,,,,6,1.950975,,,,,,,,,,,,,,,,,,,,,,,,,,,6,strong,104.800013,47.19996985,1,0,0,response1disk,9,49,-15.99998879,-9.60000658,1,0,0,rectangle,-79.19998974,35.9999941,1,0,0,1,1,2.301275,4.800011516,11.19999373,1,0,0,0,48,48,160,1,1,response7disk_3,rectangle,,,,,,,,,,,,,,,,,,,
,,,,,,,,,,,,,,,,,,,,,,,,,,,,,,,,,,,,,,,,,,602c1fc2c083e34a7ba2894b,606a0f38a5fd39d4018ecee0,2021-04-04_15h11.52.249,Colour_Similarity_Experiment,2020.2.10,Win32,60,60675255c767bca6388caeee,316.7752003,17.06000763,16.71736919,16.69777184,16.73042827,16.73042827,,,,,,,,,,,,,,,,,,,,PF,3,weak,,,,,,,,6,7.07961,,,,,,,,,,,,,,,,,,,,,,,,,,,2,weak,75.20001256,51.19996991,1,0,0,response1disk,2,50,15.20001167,8.799993694,1,0,0,rectangle,15.20001167,8.799993694,1,0,0,1,3,0.003195,15.20001167,8.799993694,1,0,0,0,49,49,14,1,0,,,,,,,,,,,,,,,,,,,,,
,,,,,,,,,,,,,,,,,,,,,,,,,,,,,,,,,,,,,,,,,,602c1fc2c083e34a7ba2894b,606a0f38a5fd39d4018ecee0,2021-04-04_15h11.52.249,Colour_Similarity_Experiment,2020.2.10,Win32,60,60675255c767bca6388caeee,316.7752003,17.06000763,16.71736919,16.69777184,16.73042827,16.73042827,,,,,,,,,,,,,,,,,,,,PF,3,weak,,,,,,,,3,2.966575,,,,,,,,,,,,,,,,,,,,,,,,,,,7,weak,-47.19998926,-100.0000079,1,0,0,response5disk,1,51,14.40001166,4.799993634,1,0,0,rectangle,14.40001166,4.799993634,1,0,0,1,7,0.00153,14.40001166,4.799993634,1,0,0,0,50,50,53,1,0,,,,,,,,,,,,,,,,,,,,,
,,,,,,,,,,,,,,,,,,,,,,,,,,,,,,,,,,,,,,,,,,602c1fc2c083e34a7ba2894b,606a0f38a5fd39d4018ecee0,2021-04-04_15h11.52.249,Colour_Similarity_Experiment,2020.2.10,Win32,60,60675255c767bca6388caeee,316.7752003,17.06000763,16.71736919,16.69777184,16.73042827,16.73042827,,,,,,,,,,,,,,,,,,,,PF,3,weak,,,,,,,,7,1.313705,,,,,,,,,,,,,,,,,,,,,,,,,,,6,weak,31.20001191,79.19997033,1,0,0,response1disk,7,52,-10.39993988,7.999993682,1,0,0,rectangle,-10.39993988,7.999993682,1,0,0,1,5,0.00233,-10.39993988,7.999993682,1,0,0,0,51,51,50,1,0,,,,,,,,,,,,,,,,,,,,,
,,,,,,,,,,,,,,,,,,,,,,,,,,,,,,,,,,,,,,,,,,602c1fc2c083e34a7ba2894b,606a0f38a5fd39d4018ecee0,2021-04-04_15h11.52.249,Colour_Similarity_Experiment,2020.2.10,Win32,60,60675255c767bca6388caeee,316.7752003,17.06000763,16.71736919,16.69777184,16.73042827,16.73042827,,,,,,,,,,,,,,,,,,,,PF,3,weak,,,,,,,,6,2.44685,,,,,,,,,,,,,,,,,,,,,,,,,,,7,weak,128.0000134,35.19996967,1,0,0,response1disk,4,53,-3.199988604,-8.800006568,1,0,0,rectangle,-3.199988604,-8.800006568,1,0,0,1,6,0.002565,-3.199988604,-8.800006568,1,0,0,0,52,52,43,1,0,,,,,,,,,,,,,,,,,,,,,
,,,,,,,,,,,,,,,,,,,,,,,,,,,,,,,,,,,,,,,,,,602c1fc2c083e34a7ba2894b,606a0f38a5fd39d4018ecee0,2021-04-04_15h11.52.249,Colour_Similarity_Experiment,2020.2.10,Win32,60,60675255c767bca6388caeee,316.7752003,17.06000763,16.71736919,16.69777184,16.73042827,16.73042827,,,,,,,,,,,,,,,,,,,,PF,3,weak,,,,,,,,1,1.55103,,,,,,,,,,,,,,,,,,,,,,,,,,,6,weak,-82.39994096,39.19996973,1,0,0,response7disk,3,54,-0.799988568,-4.000006497,1,0,0,rectangle,-0.799988568,-4.000006497,1,0,0,1,5,0.00371,-0.799988568,-4.000006497,1,0,0,0,53,53,26,1,0,,,,,,,,,,,,,,,,,,,,,
,,,,,,,,,,,,,,,,,,,,,,,,,,,,,,,,,,,,,,,,,,602c1fc2c083e34a7ba2894b,606a0f38a5fd39d4018ecee0,2021-04-04_15h11.52.249,Colour_Similarity_Experiment,2020.2.10,Win32,60,60675255c767bca6388caeee,316.7752003,17.06000763,16.71736919,16.69777184,16.73042827,16.73042827,,,,,,,,,,,,,,,,,,,,PF,3,weak,,,,,,,,6,9.3206,,,,,,,,,,,,,,,,,,,,,,,,,,,3,weak,69.60001248,25.59999394,1,0,0,response1disk,1,55,27.20001185,-2.400006473,1,0,0,rectangle,27.20001185,-2.400006473,1,0,0,1,0,0.002125,27.20001185,-2.400006473,1,0,0,0,54,54,96,1,0,,,,,,,,,,,,,,,,,,,,,
,,,,,,,,,,,,,,,,,,,,,,,,,,,,,,,,,,,,,,,,,,602c1fc2c083e34a7ba2894b,606a0f38a5fd39d4018ecee0,2021-04-04_15h11.52.249,Colour_Similarity_Experiment,2020.2.10,Win32,60,60675255c767bca6388caeee,316.7752003,17.06000763,16.71736919,16.69777184,16.73042827,16.73042827,,,,,,,,,,,,,,,,,,,,PF,3,strong,,,,,,,,2,1.85093,,,,,,,,,,,,,,,,,,,,,,,,,,,8,strong,-94.39994113,-33.60000694,1,0,0,response5disk,9,56,28.00001186,-4.800006509,1,0,0,rectangle,28.00001186,-4.800006509,1,0,0,1,7,0.006695,28.00001186,-4.800006509,1,0,0,0,55,55,105,1,0,,,,,,,,,,,,,,,,,,,,,
,,,,,,,,,,,,,,,,,,,,,,,,,,,,,,,,,,,,,,,,,,602c1fc2c083e34a7ba2894b,606a0f38a5fd39d4018ecee0,2021-04-04_15h11.52.249,Colour_Similarity_Experiment,2020.2.10,Win32,60,60675255c767bca6388caeee,316.7752003,17.06000763,16.71736919,16.69777184,16.73042827,16.73042827,,,,,,,,,,,,,,,,,,,,PF,3,weak,,,,,,,,4,2.878405,,,,,,,,,,,,,,,,,,,,,,,,,,,9,weak,46.40001214,-90.40000778,1,0,0,response3disk,2,57,13.60006047,-4.800006509,1,0,0,rectangle,13.60006047,-4.800006509,1,0,0,1,7,0.00072,13.60006047,-4.800006509,1,0,0,0,56,56,157,1,0,,,,,,,,,,,,,,,,,,,,,
,,,,,,,,,,,,,,,,,,,,,,,,,,,,,,,,,,,,,,,,,,602c1fc2c083e34a7ba2894b,606a0f38a5fd39d4018ecee0,2021-04-04_15h11.52.249,Colour_Similarity_Experiment,2020.2.10,Win32,60,60675255c767bca6388caeee,316.7752003,17.06000763,16.71736919,16.69777184,16.73042827,16.73042827,,,,,,,,,,,,,,,,,,,,PF,3,weak,,,,,,,,7,1.450945,,,,,,,,,,,,,,,,,,,,,,,,,,,1,weak,53.60001224,83.99999481,1,0,0,response1disk,5,58,-1.59998858,-6.400006533,1,0,0,rectangle,-1.59998858,-6.400006533,1,0,0,1,1,0.002645,-1.59998858,-6.400006533,1,0,0,0,57,57,28,1,0,,,,,,,,,,,,,,,,,,,,,
,,,,,,,,,,,,,,,,,,,,,,,,,,,,,,,,,,,,,,,,,,602c1fc2c083e34a7ba2894b,606a0f38a5fd39d4018ecee0,2021-04-04_15h11.52.249,Colour_Similarity_Experiment,2020.2.10,Win32,60,60675255c767bca6388caeee,316.7752003,17.06000763,16.71736919,16.69777184,16.73042827,16.73042827,,,,,,,,,,,,,,,,,,,,PF,3,strong,,,,,,,,0,1.05121,,,,,,,,,,,,,,,,,,,,,,,,,,,5,strong,-32.79998904,97.59999502,1,0,0,response7disk,5,59,7.200011551,-9.60000658,1,0,0,rectangle,7.200011551,-9.60000658,1,0,0,1,5,0.00233,7.200011551,-9.60000658,1,0,0,0,58,58,19,1,0,,,,,,,,,,,,,,,,,,,,,
,,,,,,,,,,,,,,,,,,,,,,,,,,,,,,,,,,,,,,,,,,602c1fc2c083e34a7ba2894b,606a0f38a5fd39d4018ecee0,2021-04-04_15h11.52.249,Colour_Similarity_Experiment,2020.2.10,Win32,60,60675255c767bca6388caeee,316.7752003,17.06000763,16.71736919,16.69777184,16.73042827,16.73042827,,,,,,,,,,,,,,,,,,,,PF,3,strong,,,,,,,,6,2.812715,,,,,,,,,,,,,,,,,,,,,,,,,,,5,strong,101.600013,55.19996997,1,0,0,response1disk,2,60,1.14441E-05,-8.000006557,1,0,0,rectangle,47.20001215,91.19997051,1,0,0,7,7,4.320535,-5.599988639,3.999993622,1,0,0,0,59,59,55,1,1,response1disk_3,rectangle,,,,,,,,,,,,,,,,,,,
,,,,,,,,,,,,,,,,,,,,,,,,,,,,,,,,,,,,,,,,,,602c1fc2c083e34a7ba2894b,606a0f38a5fd39d4018ecee0,2021-04-04_15h11.52.249,Colour_Similarity_Experiment,2020.2.10,Win32,60,60675255c767bca6388caeee,316.7752003,17.06000763,16.71736919,16.69777184,16.73042827,16.73042827,,,,,,,,,,,,,,,,,,,,PF,3,strong,,,,,,,,6,1.74982,,,,,,,,,,,,,,,,,,,,,,,,,,,5,strong,125.6000133,45.59999424,1,0,0,response1disk,6,61,20.00001174,-6.4373E-06,1,0,0,rectangle,20.00001174,-6.4373E-06,1,0,0,7,6,0.002565,20.00001174,-6.4373E-06,1,0,0,0,60,60,12,1,0,,,,,,,,,,,,,,,,,,,,,
,,,,,,,,,,,,,,,,,,,,,,,,,,,,,,,,,,,,,,,,,,602c1fc2c083e34a7ba2894b,606a0f38a5fd39d4018ecee0,2021-04-04_15h11.52.249,Colour_Similarity_Experiment,2020.2.10,Win32,60,60675255c767bca6388caeee,316.7752003,17.06000763,16.71736919,16.69777184,16.73042827,16.73042827,,,,,,,,,,,,,,,,,,,,PF,3,weak,,,,,,,,4,3.093775,,,,,,,,,,,,,,,,,,,,,,,,,,,1,weak,55.20001227,-81.60005648,1,0,0,response3disk,8,62,-10.39993988,2.399993598,1,0,0,rectangle,-10.39993988,2.399993598,1,0,0,7,4,0.002405,-10.39993988,2.399993598,1,0,0,0,61,61,65,1,0,,,,,,,,,,,,,,,,,,,,,
,,,,,,,,,,,,,,,,,,,,,,,,,,,,,,,,,,,,,,,,,,602c1fc2c083e34a7ba2894b,606a0f38a5fd39d4018ecee0,2021-04-04_15h11.52.249,Colour_Similarity_Experiment,2020.2.10,Win32,60,60675255c767bca6388caeee,316.7752003,17.06000763,16.71736919,16.69777184,16.73042827,16.73042827,,,,,,,,,,,,,,,,,,,,PF,3,strong,,,,,,,,5,3.734455,,,,,,,,,,,,,,,,,,,,,,,,,,,4,strong,92.00001281,-48.00000715,1,0,0,response3disk,6,63,8.800011575,-3.200006485,1,0,0,rectangle,8.800011575,-3.200006485,1,0,0,7,4,0.00365,8.800011575,-3.200006485,1,0,0,0,62,62,122,1,0,,,,,,,,,,,,,,,,,,,,,
,,,,,,,,,,,,,,,,,,,,,,,,,,,,,,,,,,,,,,,,,,602c1fc2c083e34a7ba2894b,606a0f38a5fd39d4018ecee0,2021-04-04_15h11.52.249,Colour_Similarity_Experiment,2020.2.10,Win32,60,60675255c767bca6388caeee,316.7752003,17.06000763,16.71736919,16.69777184,16.73042827,16.73042827,,,,,,,,,,,,,,,,,,,,PF,3,strong,,,,,,,,2,2.333185,,,,,,,,,,,,,,,,,,,,,,,,,,,1,strong,-83.99998981,-61.60000736,1,0,0,response5disk,7,64,3.200011492,-6.4373E-06,1,0,0,rectangle,3.200011492,-6.4373E-06,1,0,0,7,0,0.00234,3.200011492,-6.4373E-06,1,0,0,0,63,63,137,1,0,,,,,,,,,,,,,,,,,,,,,
,,,,,,,,,,,,,,,,,,,,,,,,,,,,,,,,,,,,,,,,,,602c1fc2c083e34a7ba2894b,606a0f38a5fd39d4018ecee0,2021-04-04_15h11.52.249,Colour_Similarity_Experiment,2020.2.10,Win32,60,60675255c767bca6388caeee,316.7752003,17.06000763,16.71736919,16.69777184,16.73042827,16.73042827,,,,,,,,,,,,,,,,,,,,PF,3,strong,,,,,,,,7,2.112305,,,,,,,,,,,,,,,,,,,,,,,,,,,9,strong,52.80001223,69.5999946,1,0,0,response1disk,2,65,-10.39993988,-8.000006557,1,0,0,rectangle,-36.7999891,67.19997015,1,0,0,0,0,2.1681,12.80001163,-8.000006557,1,0,0,0,64,64,11,1,1,response7disk_3,rectangle,,,,,,,,,,,,,,,,,,,
,,,,,,,,,,,,,,,,,,,,,,,,,,,,,,,,,,,,,,,,,,602c1fc2c083e34a7ba2894b,606a0f38a5fd39d4018ecee0,2021-04-04_15h11.52.249,Colour_Similarity_Experiment,2020.2.10,Win32,60,60675255c767bca6388caeee,316.7752003,17.06000763,16.71736919,16.69777184,16.73042827,16.73042827,,,,,,,,,,,,,,,,,,,,PF,3,strong,,,,,,,,3,2.21296,,,,,,,,,,,,,,,,,,,,,,,,,,,3,strong,-35.99998909,-66.40000743,1,0,0,response5disk,3,66,14.40001166,11.99999374,1,0,0,rectangle,14.40001166,11.99999374,1,0,0,0,4,0.002405,14.40001166,11.99999374,1,0,0,0,65,65,68,1,0,,,,,,,,,,,,,,,,,,,,,
,,,,,,,,,,,,,,,,,,,,,,,,,,,,,,,,,,,,,,,,,,602c1fc2c083e34a7ba2894b,606a0f38a5fd39d4018ecee0,2021-04-04_15h11.52.249,Colour_Similarity_Experiment,2020.2.10,Win32,60,60675255c767bca6388caeee,316.7752003,17.06000763,16.71736919,16.69777184,16.73042827,16.73042827,,,,,,,,,,,,,,,,,,,,PF,3,weak,,,,,,,,6,3.46932,,,,,,,,,,,,,,,,,,,,,,,,,,,5,weak,116.8000132,43.99999422,1,0,0,response1disk,8,67,16.80001169,-6.400006533,1,0,0,rectangle,16.80001169,-6.400006533,1,0,0,0,0,0.000985,16.80001169,-6.400006533,1,0,0,0,66,66,149,1,0,,,,,,,,,,,,,,,,,,,,,
,,,,,,,,,,,,,,,,,,,,,,,,,,,,,,,,,,,,,,,,,,602c1fc2c083e34a7ba2894b,606a0f38a5fd39d4018ecee0,2021-04-04_15h11.52.249,Colour_Similarity_Experiment,2020.2.10,Win32,60,60675255c767bca6388caeee,316.7752003,17.06000763,16.71736919,16.69777184,16.73042827,16.73042827,,,,,,,,,,,,,,,,,,,,PF,3,weak,,,,,,,,7,5.469025,,,,,,,,,,,,,,,,,,,,,,,,,,,4,weak,40.80001205,94.39999497,1,0,0,response1disk,2,68,15.20001167,12.79999375,1,0,0,rectangle,15.20001167,12.79999375,1,0,0,0,1,0.00305,15.20001167,12.79999375,1,0,0,0,67,67,108,1,0,,,,,,,,,,,,,,,,,,,,,
,,,,,,,,,,,,,,,,,,,,,,,,,,,,,,,,,,,,,,,,,,602c1fc2c083e34a7ba2894b,606a0f38a5fd39d4018ecee0,2021-04-04_15h11.52.249,Colour_Similarity_Experiment,2020.2.10,Win32,60,60675255c767bca6388caeee,316.7752003,17.06000763,16.71736919,16.69777184,16.73042827,16.73042827,,,,,,,,,,,,,,,,,,,,PF,3,weak,,,,,,,,3,2.044985,,,,,,,,,,,,,,,,,,,,,,,,,,,2,weak,-51.19998932,-76.00000757,1,0,0,response5disk,3,69,8.800011575,6.399993658,1,0,0,rectangle,8.800011575,6.399993658,1,0,0,0,7,0.001295,8.800011575,6.399993658,1,0,0,0,68,68,69,1,0,,,,,,,,,,,,,,,,,,,,,
,,,,,,,,,,,,,,,,,,,,,,,,,,,,,,,,,,,,,,,,,,602c1fc2c083e34a7ba2894b,606a0f38a5fd39d4018ecee0,2021-04-04_15h11.52.249,Colour_Similarity_Experiment,2020.2.10,Win32,60,60675255c767bca6388caeee,316.7752003,17.06000763,16.71736919,16.69777184,16.73042827,16.73042827,,,,,,,,,,,,,,,,,,,,PF,3,weak,,,,,,,,7,2.17019,,,,,,,,,,,,,,,,,,,,,,,,,,,9,weak,49.60006101,71.19997021,1,0,0,response1disk,9,70,12.80001163,-6.4373E-06,1,0,0,rectangle,12.80001163,-6.4373E-06,1,0,0,0,4,0.001275,12.80001163,-6.4373E-06,1,0,0,0,69,69,106,1,0,,,,,,,,,,,,,,,,,,,,,
,,,,,,,,,,,,,,,,,,,,,,,,,,,,,,,,,,,,,,,,,,602c1fc2c083e34a7ba2894b,606a0f38a5fd39d4018ecee0,2021-04-04_15h11.52.249,Colour_Similarity_Experiment,2020.2.10,Win32,60,60675255c767bca6388caeee,316.7752003,17.06000763,16.71736919,16.69777184,16.73042827,16.73042827,,,,,,,,,,,,,,,,,,,,PF,3,weak,,,,,,,,6,4.01351,,,,,,,,,,,,,,,,,,,,,,,,,,,1,weak,109.6000131,34.39999408,1,0,0,response1disk,2,71,20.00001174,0.799993575,1,0,0,rectangle,20.00001174,0.799993575,1,0,0,0,7,0.00213,20.00001174,0.799993575,1,0,0,0,70,70,24,1,0,,,,,,,,,,,,,,,,,,,,,
,,,,,,,,,,,,,,,,,,,,,,,,,,,,,,,,,,,,,,,,,,602c1fc2c083e34a7ba2894b,606a0f38a5fd39d4018ecee0,2021-04-04_15h11.52.249,Colour_Similarity_Experiment,2020.2.10,Win32,60,60675255c767bca6388caeee,316.7752003,17.06000763,16.71736919,16.69777184,16.73042827,16.73042827,,,,,,,,,,,,,,,,,,,,PF,3,weak,,,,,,,,3,3.551275,,,,,,,,,,,,,,,,,,,,,,,,,,,6,weak,-57.59998941,-90.40000778,1,0,0,response5disk,1,72,8.800011575,-5.600006521,1,0,0,rectangle,8.800011575,-5.600006521,1,0,0,0,4,0.00175,8.800011575,-5.600006521,1,0,0,0,71,71,46,1,0,,,,,,,,,,,,,,,,,,,,,
,,,,,,,,,,,,,,,,,,,,,,,,,,,,,,,,,,,,,,,,,,602c1fc2c083e34a7ba2894b,606a0f38a5fd39d4018ecee0,2021-04-04_15h11.52.249,Colour_Similarity_Experiment,2020.2.10,Win32,60,60675255c767bca6388caeee,316.7752003,17.06000763,16.71736919,16.69777184,16.73042827,16.73042827,,,,,,,,,,,,,,,,,,,,PF,3,weak,,,,,,,,6,4.062435,,,,,,,,,,,,,,,,,,,,,,,,,,,4,weak,98.40001291,35.9999941,1,0,0,response1disk,3,73,4.800011516,-3.200006485,1,0,0,rectangle,4.800011516,-3.200006485,1,0,0,0,7,0.00085,4.800011516,-3.200006485,1,0,0,0,72,72,89,1,0,,,,,,,,,,,,,,,,,,,,,
,,,,,,,,,,,,,,,,,,,,,,,,,,,,,,,,,,,,,,,,,,602c1fc2c083e34a7ba2894b,606a0f38a5fd39d4018ecee0,2021-04-04_15h11.52.249,Colour_Similarity_Experiment,2020.2.10,Win32,60,60675255c767bca6388caeee,316.7752003,17.06000763,16.71736919,16.69777184,16.73042827,16.73042827,,,,,,,,,,,,,,,,,,,,PF,3,strong,,,,,,,,1,1.44465,,,,,,,,,,,,,,,,,,,,,,,,,,,1,strong,-101.5999901,47.99999428,1,0,0,response7disk,4,74,14.40001166,-4.000006497,1,0,0,rectangle,14.40001166,-4.000006497,1,0,0,0,3,0.00179,14.40001166,-4.000006497,1,0,0,0,73,73,135,1,0,,,,,,,,,,,,,,,,,,,,,
,,,,,,,,,,,,,,,,,,,,,,,,,,,,,,,,,,,,,,,,,,602c1fc2c083e34a7ba2894b,606a0f38a5fd39d4018ecee0,2021-04-04_15h11.52.249,Colour_Similarity_Experiment,2020.2.10,Win32,60,60675255c767bca6388caeee,316.7752003,17.06000763,16.71736919,16.69777184,16.73042827,16.73042827,,,,,,,,,,,,,,,,,,,,PF,3,strong,,,,,,,,7,4.418315,,,,,,,,,,,,,,,,,,,,,,,,,,,4,strong,44.80001211,80.79999477,1,0,0,response1disk,9,75,1.600060296,-2.400006473,1,0,0,rectangle,1.600060296,-2.400006473,1,0,0,0,0,0.0021,1.600060296,-2.400006473,1,0,0,0,74,74,90,1,0,,,,,,,,,,,,,,,,,,,,,
,,,,,,,,,,,,,,,,,,,,,,,,,,,,,,,,,,,,,,,,,,602c1fc2c083e34a7ba2894b,606a0f38a5fd39d4018ecee0,2021-04-04_15h11.52.249,Colour_Similarity_Experiment,2020.2.10,Win32,60,60675255c767bca6388caeee,316.7752003,17.06000763,16.71736919,16.69777184,16.73042827,16.73042827,,,,,,,,,,,,,,,,,,,,PF,3,strong,,,,,,,,7,2.567985,,,,,,,,,,,,,,,,,,,,,,,,,,,5,strong,65.60001242,73.59999466,1,0,0,response1disk,3,76,6.400011539,5.599993646,1,0,0,rectangle,6.400011539,5.599993646,1,0,0,0,2,0.001935,6.400011539,5.599993646,1,0,0,0,75,75,25,1,0,,,,,,,,,,,,,,,,,,,,,
,,,,,,,,,,,,,,,,,,,,,,,,,,,,,,,,,,,,,,,,,,602c1fc2c083e34a7ba2894b,606a0f38a5fd39d4018ecee0,2021-04-04_15h11.52.249,Colour_Similarity_Experiment,2020.2.10,Win32,60,60675255c767bca6388caeee,316.7752003,17.06000763,16.71736919,16.69777184,16.73042827,16.73042827,,,,,,,,,,,,,,,,,,,,PF,3,strong,,,,,,,,7,1.763305,,,,,,,,,,,,,,,,,,,,,,,,,,,5,strong,57.6000123,78.39999473,1,0,0,response1disk,1,77,1.14441E-05,-4.000006497,1,0,0,rectangle,1.14441E-05,-4.000006497,1,0,0,0,6,0.00269,1.14441E-05,-4.000006497,1,0,0,0,76,76,131,1,0,,,,,,,,,,,,,,,,,,,,,
,,,,,,,,,,,,,,,,,,,,,,,,,,,,,,,,,,,,,,,,,,602c1fc2c083e34a7ba2894b,606a0f38a5fd39d4018ecee0,2021-04-04_15h11.52.249,Colour_Similarity_Experiment,2020.2.10,Win32,60,60675255c767bca6388caeee,316.7752003,17.06000763,16.71736919,16.69777184,16.73042827,16.73042827,,,,,,,,,,,,,,,,,,,,PF,3,strong,,,,,,,,2,1.40053,,,,,,,,,,,,,,,,,,,,,,,,,,,9,strong,-95.19998997,-40.00000703,1,0,0,response5disk,9,78,9.600060415,1.599993587,1,0,0,rectangle,9.600060415,1.599993587,1,0,0,0,4,0.00226,9.600060415,1.599993587,1,0,0,0,77,77,17,1,0,,,,,,,,,,,,,,,,,,,,,
,,,,,,,,,,,,,,,,,,,,,,,,,,,,,,,,,,,,,,,,,,602c1fc2c083e34a7ba2894b,606a0f38a5fd39d4018ecee0,2021-04-04_15h11.52.249,Colour_Similarity_Experiment,2020.2.10,Win32,60,60675255c767bca6388caeee,316.7752003,17.06000763,16.71736919,16.69777184,16.73042827,16.73042827,,,,,,,,,,,,,,,,,,,,PF,3,strong,,,,,,,,7,2.265935,,,,,,,,,,,,,,,,,,,,,,,,,,,6,strong,39.20001203,71.19997021,1,0,0,response1disk,4,79,-32.79998904,-4.800006509,1,0,0,rectangle,-32.79998904,-4.800006509,1,0,0,0,5,0.001485,-32.79998904,-4.800006509,1,0,0,0,78,78,56,1,0,,,,,,,,,,,,,,,,,,,,,
,,,,,,,,,,,,,,,,,,,,,,,,,,,,,,,,,,,,,,,,,,602c1fc2c083e34a7ba2894b,606a0f38a5fd39d4018ecee0,2021-04-04_15h11.52.249,Colour_Similarity_Experiment,2020.2.10,Win32,60,60675255c767bca6388caeee,316.7752003,17.06000763,16.71736919,16.69777184,16.73042827,16.73042827,,,,,,,,,,,,,,,,,,,,PF,3,weak,,,,,,,,0,1.284175,,,,,,,,,,,,,,,,,,,,,,,,,,,8,weak,-34.39994024,67.99999458,1,0,0,response7disk,4,80,2.40001148,11.19999373,1,0,0,rectangle,2.40001148,11.19999373,1,0,0,0,0,0.00314,2.40001148,11.19999373,1,0,0,0,79,79,78,1,0,,,,,,,,,,,,,,,,,,,,,
,,,,,,,,,,,,,,,,,,,,,,,,,,,,,,,,,,,,,,,,,,602c1fc2c083e34a7ba2894b,606a0f38a5fd39d4018ecee0,2021-04-04_15h11.52.249,Colour_Similarity_Experiment,2020.2.10,Win32,60,60675255c767bca6388caeee,316.7752003,17.06000763,16.71736919,16.69777184,16.73042827,16.73042827,,,,,,,,,,,,,,,,,,,,PF,3,strong,,,,,,,,7,2.15191,,,,,,,,,,,,,,,,,,,,,,,,,,,7,strong,38.40001202,68.79999459,1,0,0,response1disk,8,81,4.800011516,5.599993646,1,0,0,rectangle,36.80001199,79.19997033,1,0,0,7,7,2.58256,1.600060296,5.599993646,1,0,0,0,80,80,97,1,1,response1disk_3,rectangle,,,,,,,,,,,,,,,,,,,
,,,,,,,,,,,,,,,,,,,,,,,,,,,,,,,,,,,,,,,,,,602c1fc2c083e34a7ba2894b,606a0f38a5fd39d4018ecee0,2021-04-04_15h11.52.249,Colour_Similarity_Experiment,2020.2.10,Win32,60,60675255c767bca6388caeee,316.7752003,17.06000763,16.71736919,16.69777184,16.73042827,16.73042827,,,,,,,,,,,,,,,,,,,,PF,3,strong,,,,,,,,7,0.99696,,,,,,,,,,,,,,,,,,,,,,,,,,,2,strong,48.80001217,76.79999471,1,0,0,response1disk,4,82,-11.19998872,3.19999361,1,0,0,rectangle,-11.19998872,3.19999361,1,0,0,7,6,0.003485,-11.19998872,3.19999361,1,0,0,0,81,81,145,1,0,,,,,,,,,,,,,,,,,,,,,
,,,,,,,,,,,,,,,,,,,,,,,,,,,,,,,,,,,,,,,,,,602c1fc2c083e34a7ba2894b,606a0f38a5fd39d4018ecee0,2021-04-04_15h11.52.249,Colour_Similarity_Experiment,2020.2.10,Win32,60,60675255c767bca6388caeee,316.7752003,17.06000763,16.71736919,16.69777184,16.73042827,16.73042827,,,,,,,,,,,,,,,,,,,,PF,3,strong,,,,,,,,5,2.40084,,,,,,,,,,,,,,,,,,,,,,,,,,,5,strong,81.60001266,-44.8000071,1,0,0,response3disk,7,83,-20.79998887,15.19999379,1,0,0,rectangle,-20.79998887,15.19999379,1,0,0,7,0,0.001825,-20.79998887,15.19999379,1,0,0,0,82,82,7,1,0,,,,,,,,,,,,,,,,,,,,,
,,,,,,,,,,,,,,,,,,,,,,,,,,,,,,,,,,,,,,,,,,602c1fc2c083e34a7ba2894b,606a0f38a5fd39d4018ecee0,2021-04-04_15h11.52.249,Colour_Similarity_Experiment,2020.2.10,Win32,60,60675255c767bca6388caeee,316.7752003,17.06000763,16.71736919,16.69777184,16.73042827,16.73042827,,,,,,,,,,,,,,,,,,,,PF,3,strong,,,,,,,,1,1.399175,,,,,,,,,,,,,,,,,,,,,,,,,,,3,strong,-87.19998986,35.19996967,1,0,0,response7disk,6,84,4.000011504,-12.80000663,1,0,0,rectangle,4.000011504,-12.80000663,1,0,0,7,4,0.00178,4.000011504,-12.80000663,1,0,0,0,83,83,95,1,0,,,,,,,,,,,,,,,,,,,,,
,,,,,,,,,,,,,,,,,,,,,,,,,,,,,,,,,,,,,,,,,,602c1fc2c083e34a7ba2894b,606a0f38a5fd39d4018ecee0,2021-04-04_15h11.52.249,Colour_Similarity_Experiment,2020.2.10,Win32,60,60675255c767bca6388caeee,316.7752003,17.06000763,16.71736919,16.69777184,16.73042827,16.73042827,,,,,,,,,,,,,,,,,,,,PF,3,weak,,,,,,,,3,2.16353,,,,,,,,,,,,,,,,,,,,,,,,,,,7,weak,-34.39994024,-84.8000077,1,0,0,response5disk,3,85,0.800011456,-6.4373E-06,1,0,0,rectangle,0.800011456,-6.4373E-06,1,0,0,7,6,0.00227,0.800011456,-6.4373E-06,1,0,0,0,84,84,81,1,0,,,,,,,,,,,,,,,,,,,,,
,,,,,,,,,,,,,,,,,,,,,,,,,,,,,,,,,,,,,,,,,,602c1fc2c083e34a7ba2894b,606a0f38a5fd39d4018ecee0,2021-04-04_15h11.52.249,Colour_Similarity_Experiment,2020.2.10,Win32,60,60675255c767bca6388caeee,316.7752003,17.06000763,16.71736919,16.69777184,16.73042827,16.73042827,,,,,,,,,,,,,,,,,,,,PF,3,weak,,,,,,,,7,1.61661,,,,,,,,,,,,,,,,,,,,,,,,,,,9,weak,41.60006089,78.39999473,1,0,0,response1disk,8,86,14.40001166,-4.800006509,1,0,0,rectangle,14.40001166,-4.800006509,1,0,0,7,4,0.002395,14.40001166,-4.800006509,1,0,0,0,85,85,67,1,0,,,,,,,,,,,,,,,,,,,,,
,,,,,,,,,,,,,,,,,,,,,,,,,,,,,,,,,,,,,,,,,,602c1fc2c083e34a7ba2894b,606a0f38a5fd39d4018ecee0,2021-04-04_15h11.52.249,Colour_Similarity_Experiment,2020.2.10,Win32,60,60675255c767bca6388caeee,316.7752003,17.06000763,16.71736919,16.69777184,16.73042827,16.73042827,,,,,,,,,,,,,,,,,,,,PF,3,weak,,,,,,,,3,2.90104,,,,,,,,,,,,,,,,,,,,,,,,,,,3,weak,-35.19998908,-90.40000778,1,0,0,response5disk,7,87,-0.799988568,1.599993587,1,0,0,rectangle,-0.799988568,1.599993587,1,0,0,7,7,0.00375,-0.799988568,1.599993587,1,0,0,0,86,86,41,1,0,,,,,,,,,,,,,,,,,,,,,
,,,,,,,,,,,,,,,,,,,,,,,,,,,,,,,,,,,,,,,,,,602c1fc2c083e34a7ba2894b,606a0f38a5fd39d4018ecee0,2021-04-04_15h11.52.249,Colour_Similarity_Experiment,2020.2.10,Win32,60,60675255c767bca6388caeee,316.7752003,17.06000763,16.71736919,16.69777184,16.73042827,16.73042827,,,,,,,,,,,,,,,,,,,,PF,3,strong,,,,,,,,3,1.39913,,,,,,,,,,,,,,,,,,,,,,,,,,,1,strong,-43.1999892,-78.40000761,1,0,0,response5disk,8,88,23.20001179,7.19999367,1,0,0,rectangle,23.20001179,7.19999367,1,0,0,7,4,0.00081,23.20001179,7.19999367,1,0,0,0,87,87,27,1,0,,,,,,,,,,,,,,,,,,,,,
,,,,,,,,,,,,,,,,,,,,,,,,,,,,,,,,,,,,,,,,,,602c1fc2c083e34a7ba2894b,606a0f38a5fd39d4018ecee0,2021-04-04_15h11.52.249,Colour_Similarity_Experiment,2020.2.10,Win32,60,60675255c767bca6388caeee,316.7752003,17.06000763,16.71736919,16.69777184,16.73042827,16.73042827,,,,,,,,,,,,,,,,,,,,PF,3,weak,,,,,,,,5,3.20764,,,,,,,,,,,,,,,,,,,,,,,,,,,8,weak,78.40001261,-40.80000705,1,0,0,response3disk,5,89,6.400011539,-4.800006509,1,0,0,rectangle,6.400011539,-4.800006509,1,0,0,7,0,0.001905,6.400011539,-4.800006509,1,0,0,0,88,88,98,1,0,,,,,,,,,,,,,,,,,,,,,
,,,,,,,,,,,,,,,,,,,,,,,,,,,,,,,,,,,,,,,,,,602c1fc2c083e34a7ba2894b,606a0f38a5fd39d4018ecee0,2021-04-04_15h11.52.249,Colour_Similarity_Experiment,2020.2.10,Win32,60,60675255c767bca6388caeee,316.7752003,17.06000763,16.71736919,16.69777184,16.73042827,16.73042827,,,,,,,,,,,,,,,,,,,,PF,3,strong,,,,,,,,1,1.69798,,,,,,,,,,,,,,,,,,,,,,,,,,,9,strong,-76.7999897,34.39999408,1,0,0,response7disk,5,90,5.600060356,-4.800006509,1,0,0,rectangle,5.600060356,-4.800006509,1,0,0,7,3,0.001865,5.600060356,-4.800006509,1,0,0,0,89,89,128,1,0,,,,,,,,,,,,,,,,,,,,,
,,,,,,,,,,,,,,,,,,,,,,,,,,,,,,,,,,,,,,,,,,602c1fc2c083e34a7ba2894b,606a0f38a5fd39d4018ecee0,2021-04-04_15h11.52.249,Colour_Similarity_Experiment,2020.2.10,Win32,60,60675255c767bca6388caeee,316.7752003,17.06000763,16.71736919,16.69777184,16.73042827,16.73042827,,,,,,,,,,,,,,,,,,,,PF,3,strong,,,,,,,,6,2.115985,,,,,,,,,,,,,,,,,,,,,,,,,,,9,strong,83.20001268,53.59999436,1,0,0,response1disk,1,91,4.800011516,2.399993598,1,0,0,rectangle,4.800011516,2.399993598,1,0,0,7,1,0.00209,4.800011516,2.399993598,1,0,0,0,90,90,111,1,0,,,,,,,,,,,,,,,,,,,,,
,,,,,,,,,,,,,,,,,,,,,,,,,,,,,,,,,,,,,,,,,,602c1fc2c083e34a7ba2894b,606a0f38a5fd39d4018ecee0,2021-04-04_15h11.52.249,Colour_Similarity_Experiment,2020.2.10,Win32,60,60675255c767bca6388caeee,316.7752003,17.06000763,16.71736919,16.69777184,16.73042827,16.73042827,,,,,,,,,,,,,,,,,,,,PF,3,weak,,,,,,,,7,2.228815,,,,,,,,,,,,,,,,,,,,,,,,,,,3,weak,43.20001209,61.59999448,1,0,0,response1disk,6,92,-8.799988687,5.599993646,1,0,0,rectangle,-8.799988687,5.599993646,1,0,0,7,4,0.00154,-8.799988687,5.599993646,1,0,0,0,91,91,47,1,0,,,,,,,,,,,,,,,,,,,,,
,,,,,,,,,,,,,,,,,,,,,,,,,,,,,,,,,,,,,,,,,,602c1fc2c083e34a7ba2894b,606a0f38a5fd39d4018ecee0,2021-04-04_15h11.52.249,Colour_Similarity_Experiment,2020.2.10,Win32,60,60675255c767bca6388caeee,316.7752003,17.06000763,16.71736919,16.69777184,16.73042827,16.73042827,,,,,,,,,,,,,,,,,,,,PF,3,strong,,,,,,,,0,1.334315,,,,,,,,,,,,,,,,,,,,,,,,,,,7,strong,-55.99998939,75.19997027,1,0,0,response7disk,6,93,-7.999988675,-4.000006497,1,0,0,rectangle,-7.999988675,-4.000006497,1,0,0,7,7,0.002875,-7.999988675,-4.000006497,1,0,0,0,92,92,31,1,0,,,,,,,,,,,,,,,,,,,,,
,,,,,,,,,,,,,,,,,,,,,,,,,,,,,,,,,,,,,,,,,,602c1fc2c083e34a7ba2894b,606a0f38a5fd39d4018ecee0,2021-04-04_15h11.52.249,Colour_Similarity_Experiment,2020.2.10,Win32,60,60675255c767bca6388caeee,316.7752003,17.06000763,16.71736919,16.69777184,16.73042827,16.73042827,,,,,,,,,,,,,,,,,,,,PF,3,weak,,,,,,,,7,1.566815,,,,,,,,,,,,,,,,,,,,,,,,,,,2,weak,26.40001184,79.19997033,1,0,0,response1disk,9,94,8.000011563,5.599993646,1,0,0,rectangle,8.000011563,5.599993646,1,0,0,7,4,0.003035,8.000011563,5.599993646,1,0,0,0,93,93,39,1,0,,,,,,,,,,,,,,,,,,,,,
,,,,,,,,,,,,,,,,,,,,,,,,,,,,,,,,,,,,,,,,,,602c1fc2c083e34a7ba2894b,606a0f38a5fd39d4018ecee0,2021-04-04_15h11.52.249,Colour_Similarity_Experiment,2020.2.10,Win32,60,60675255c767bca6388caeee,316.7752003,17.06000763,16.71736919,16.69777184,16.73042827,16.73042827,,,,,,,,,,,,,,,,,,,,PF,3,strong,,,,,,,,7,2.397075,,,,,,,,,,,,,,,,,,,,,,,,,,,9,strong,52.00001222,75.19997027,1,0,0,response1disk,4,95,16.80001169,-4.800006509,1,0,0,rectangle,16.80001169,-4.800006509,1,0,0,7,6,0.002485,16.80001169,-4.800006509,1,0,0,0,94,94,60,1,0,,,,,,,,,,,,,,,,,,,,,
,,,,,,,,,,,,,,,,,,,,,,,,,,,,,,,,,,,,,,,,,,602c1fc2c083e34a7ba2894b,606a0f38a5fd39d4018ecee0,2021-04-04_15h11.52.249,Colour_Similarity_Experiment,2020.2.10,Win32,60,60675255c767bca6388caeee,316.7752003,17.06000763,16.71736919,16.69777184,16.73042827,16.73042827,,,,,,,,,,,,,,,,,,,,PF,3,strong,,,,,,,,7,2.032515,,,,,,,,,,,,,,,,,,,,,,,,,,,3,strong,52.80001223,70.39999461,1,0,0,response1disk,8,96,9.600060415,6.399993658,1,0,0,rectangle,9.600060415,6.399993658,1,0,0,7,7,0.0026,9.600060415,6.399993658,1,0,0,0,95,95,44,1,0,,,,,,,,,,,,,,,,,,,,,
,,,,,,,,,,,,,,,,,,,,,,,,,,,,,,,,,,,,,,,,,,602c1fc2c083e34a7ba2894b,606a0f38a5fd39d4018ecee0,2021-04-04_15h11.52.249,Colour_Similarity_Experiment,2020.2.10,Win32,60,60675255c767bca6388caeee,316.7752003,17.06000763,16.71736919,16.69777184,16.73042827,16.73042827,,,,,,,,,,,,,,,,,,,,PF,3,strong,,,,,,,,5,6.577825,,,,,,,,,,,,,,,,,,,,,,,,,,,4,strong,89.60001278,-41.60000706,1,0,0,response3disk,1,97,25.60006065,2.399993598,1,0,0,rectangle,25.60006065,2.399993598,1,0,0,7,2,0.002205,25.60006065,2.399993598,1,0,0,0,96,96,102,1,0,,,,,,,,,,,,,,,,,,,,,
,,,,,,,,,,,,,,,,,,,,,,,,,,,,,,,,,,,,,,,,,,602c1fc2c083e34a7ba2894b,606a0f38a5fd39d4018ecee0,2021-04-04_15h11.52.249,Colour_Similarity_Experiment,2020.2.10,Win32,60,60675255c767bca6388caeee,316.7752003,17.06000763,16.71736919,16.69777184,16.73042827,16.73042827,,,,,,,,,,,,,,,,,,,,PF,3,weak,,,,,,,,7,1.18184,,,,,,,,,,,,,,,,,,,,,,,,,,,1,weak,43.20001209,71.99999464,1,0,0,response1disk,4,98,8.800011575,-6.4373E-06,1,0,0,rectangle,8.800011575,-6.4373E-06,1,0,0,7,5,0.000565,8.800011575,-6.4373E-06,1,0,0,0,97,97,139,1,0,,,,,,,,,,,,,,,,,,,,,
,,,,,,,,,,,,,,,,,,,,,,,,,,,,,,,,,,,,,,,,,,602c1fc2c083e34a7ba2894b,606a0f38a5fd39d4018ecee0,2021-04-04_15h11.52.249,Colour_Similarity_Experiment,2020.2.10,Win32,60,60675255c767bca6388caeee,316.7752003,17.06000763,16.71736919,16.69777184,16.73042827,16.73042827,,,,,,,,,,,,,,,,,,,,PF,3,strong,,,,,,,,7,1.68407,,,,,,,,,,,,,,,,,,,,,,,,,,,6,strong,32.80001193,61.59999448,1,0,0,response1disk,7,99,-13.59998876,-11.2000066,1,0,0,rectangle,-13.59998876,-11.2000066,1,0,0,7,7,0.00163,-13.59998876,-11.2000066,1,0,0,0,98,98,18,1,0,,,,,,,,,,,,,,,,,,,,,
,,,,,,,,,,,,,,,,,,,,,,,,,,,,,,,,,,,,,,,,,,602c1fc2c083e34a7ba2894b,606a0f38a5fd39d4018ecee0,2021-04-04_15h11.52.249,Colour_Similarity_Experiment,2020.2.10,Win32,60,60675255c767bca6388caeee,316.7752003,17.06000763,16.71736919,16.69777184,16.73042827,16.73042827,,,,,,,,,,,,,,,,,,,,PF,3,strong,,,,,,,,7,2.534945,,,,,,,,,,,,,,,,,,,,,,,,,,,3,strong,32.80001193,47.99999428,1,0,0,response1disk,2,100,4.800011516,-14.40000665,1,0,0,rectangle,4.800011516,-14.40000665,1,0,0,7,4,0.00169,4.800011516,-14.40000665,1,0,0,0,99,99,93,1,0,,,,,,,,,,,,,,,,,,,,,
,,,,,,,,,,,,,,,,,,,,,,,,,,,,,,,,,,,,,,,,,,602c1fc2c083e34a7ba2894b,606a0f38a5fd39d4018ecee0,2021-04-04_15h11.52.249,Colour_Similarity_Experiment,2020.2.10,Win32,60,60675255c767bca6388caeee,316.7752003,17.06000763,16.71736919,16.69777184,16.73042827,16.73042827,,,,,,,,,,,,,,,,,,,,PF,3,weak,,,,,,,,7,2.049915,,,,,,,,,,,,,,,,,,,,,,,,,,,7,weak,40.00001204,67.19997015,1,0,0,response1disk,8,101,-3.199988604,-11.2000066,1,0,0,rectangle,-3.199988604,-11.2000066,1,0,0,7,3,0.00178,-3.199988604,-11.2000066,1,0,0,0,100,100,140,1,0,,,,,,,,,,,,,,,,,,,,,
,,,,,,,,,,,,,,,,,,,,,,,,,,,,,,,,,,,,,,,,,,602c1fc2c083e34a7ba2894b,606a0f38a5fd39d4018ecee0,2021-04-04_15h11.52.249,Colour_Similarity_Experiment,2020.2.10,Win32,60,60675255c767bca6388caeee,316.7752003,17.06000763,16.71736919,16.69777184,16.73042827,16.73042827,,,,,,,,,,,,,,,,,,,,PF,3,strong,,,,,,,,4,2.61226,,,,,,,,,,,,,,,,,,,,,,,,,,,3,strong,47.20001215,-72.80000752,1,0,0,response3disk,1,102,1.14441E-05,6.399993658,1,0,0,rectangle,1.14441E-05,6.399993658,1,0,0,7,2,0.000715,1.14441E-05,6.399993658,1,0,0,0,101,101,125,1,0,,,,,,,,,,,,,,,,,,,,,
,,,,,,,,,,,,,,,,,,,,,,,,,,,,,,,,,,,,,,,,,,602c1fc2c083e34a7ba2894b,606a0f38a5fd39d4018ecee0,2021-04-04_15h11.52.249,Colour_Similarity_Experiment,2020.2.10,Win32,60,60675255c767bca6388caeee,316.7752003,17.06000763,16.71736919,16.69777184,16.73042827,16.73042827,,,,,,,,,,,,,,,,,,,,PF,3,weak,,,,,,,,2,2.598145,,,,,,,,,,,,,,,,,,,,,,,,,,,8,weak,-91.19998991,-47.20000714,1,0,0,response5disk,9,103,17.60006053,8.799993694,1,0,0,rectangle,17.60006053,8.799993694,1,0,0,7,0,0.0019,17.60006053,8.799993694,1,0,0,0,102,102,42,1,0,,,,,,,,,,,,,,,,,,,,,
,,,,,,,,,,,,,,,,,,,,,,,,,,,,,,,,,,,,,,,,,,602c1fc2c083e34a7ba2894b,606a0f38a5fd39d4018ecee0,2021-04-04_15h11.52.249,Colour_Similarity_Experiment,2020.2.10,Win32,60,60675255c767bca6388caeee,316.7752003,17.06000763,16.71736919,16.69777184,16.73042827,16.73042827,,,,,,,,,,,,,,,,,,,,PF,3,strong,,,,,,,,7,1.22819,,,,,,,,,,,,,,,,,,,,,,,,,,,4,strong,37.60006083,79.19997033,1,0,0,response1disk,5,104,-13.59998876,-4.800006509,1,0,0,rectangle,-13.59998876,-4.800006509,1,0,0,7,2,0.00199,-13.59998876,-4.800006509,1,0,0,0,103,103,116,1,0,,,,,,,,,,,,,,,,,,,,,
,,,,,,,,,,,,,,,,,,,,,,,,,,,,,,,,,,,,,,,,,,602c1fc2c083e34a7ba2894b,606a0f38a5fd39d4018ecee0,2021-04-04_15h11.52.249,Colour_Similarity_Experiment,2020.2.10,Win32,60,60675255c767bca6388caeee,316.7752003,17.06000763,16.71736919,16.69777184,16.73042827,16.73042827,,,,,,,,,,,,,,,,,,,,PF,3,weak,,,,,,,,7,1.446205,,,,,,,,,,,,,,,,,,,,,,,,,,,3,weak,32.00001192,73.59999466,1,0,0,response1disk,2,105,-1.59998858,7.999993682,1,0,0,rectangle,-51.19998932,-86.40000772,1,0,0,3,3,3.76684,9.600060415,-8.800006568,1,0,0,0,104,104,36,1,1,response5disk_3,rectangle,,,,,,,,,,,,,,,,,,,
,,,,,,,,,,,,,,,,,,,,,,,,,,,,,,,,,,,,,,,,,,602c1fc2c083e34a7ba2894b,606a0f38a5fd39d4018ecee0,2021-04-04_15h11.52.249,Colour_Similarity_Experiment,2020.2.10,Win32,60,60675255c767bca6388caeee,316.7752003,17.06000763,16.71736919,16.69777184,16.73042827,16.73042827,,,,,,,,,,,,,,,,,,,,PF,3,weak,,,,,,,,7,1.23434,,,,,,,,,,,,,,,,,,,,,,,,,,,2,weak,45.60006095,79.19997033,1,0,0,response1disk,4,106,8.000011563,-2.400006473,1,0,0,rectangle,8.000011563,-2.400006473,1,0,0,3,4,0.00263,8.000011563,-2.400006473,1,0,0,0,105,105,127,1,0,,,,,,,,,,,,,,,,,,,,,
,,,,,,,,,,,,,,,,,,,,,,,,,,,,,,,,,,,,,,,,,,602c1fc2c083e34a7ba2894b,606a0f38a5fd39d4018ecee0,2021-04-04_15h11.52.249,Colour_Similarity_Experiment,2020.2.10,Win32,60,60675255c767bca6388caeee,316.7752003,17.06000763,16.71736919,16.69777184,16.73042827,16.73042827,,,,,,,,,,,,,,,,,,,,PF,3,weak,,,,,,,,3,3.06369,,,,,,,,,,,,,,,,,,,,,,,,,,,1,weak,-63.1999895,-121.6000571,1,0,0,response5disk,7,107,4.800011516,9.599993706,1,0,0,rectangle,4.800011516,9.599993706,1,0,0,3,6,0.00192,4.800011516,9.599993706,1,0,0,0,106,106,150,1,0,,,,,,,,,,,,,,,,,,,,,
,,,,,,,,,,,,,,,,,,,,,,,,,,,,,,,,,,,,,,,,,,602c1fc2c083e34a7ba2894b,606a0f38a5fd39d4018ecee0,2021-04-04_15h11.52.249,Colour_Similarity_Experiment,2020.2.10,Win32,60,60675255c767bca6388caeee,316.7752003,17.06000763,16.71736919,16.69777184,16.73042827,16.73042827,,,,,,,,,,,,,,,,,,,,PF,3,strong,,,,,,,,7,5.803205,,,,,,,,,,,,,,,,,,,,,,,,,,,1,strong,56.00001228,83.99999481,1,0,0,response1disk,1,108,31.20001191,-6.4373E-06,1,0,0,rectangle,31.20001191,-6.4373E-06,1,0,0,3,2,0.001245,31.20001191,-6.4373E-06,1,0,0,0,107,107,151,1,0,,,,,,,,,,,,,,,,,,,,,
,,,,,,,,,,,,,,,,,,,,,,,,,,,,,,,,,,,,,,,,,,602c1fc2c083e34a7ba2894b,606a0f38a5fd39d4018ecee0,2021-04-04_15h11.52.249,Colour_Similarity_Experiment,2020.2.10,Win32,60,60675255c767bca6388caeee,316.7752003,17.06000763,16.71736919,16.69777184,16.73042827,16.73042827,,,,,,,,,,,,,,,,,,,,PF,3,strong,,,,,,,,7,1.183325,,,,,,,,,,,,,,,,,,,,,,,,,,,8,strong,36.00001198,64.79999453,1,0,0,response1disk,4,109,-5.599988639,9.599993706,1,0,0,rectangle,-5.599988639,9.599993706,1,0,0,3,3,0.00335,-5.599988639,9.599993706,1,0,0,0,108,108,88,1,0,,,,,,,,,,,,,,,,,,,,,
,,,,,,,,,,,,,,,,,,,,,,,,,,,,,,,,,,,,,,,,,,602c1fc2c083e34a7ba2894b,606a0f38a5fd39d4018ecee0,2021-04-04_15h11.52.249,Colour_Similarity_Experiment,2020.2.10,Win32,60,60675255c767bca6388caeee,316.7752003,17.06000763,16.71736919,16.69777184,16.73042827,16.73042827,,,,,,,,,,,,,,,,,,,,PF,3,weak,,,,,,,,2,5.203035,,,,,,,,,,,,,,,,,,,,,,,,,,,7,weak,-89.59998989,-56.80000728,1,0,0,response5disk,5,110,3.200011492,3.19999361,1,0,0,rectangle,3.200011492,3.19999361,1,0,0,3,2,0.000885,3.200011492,3.19999361,1,0,0,0,109,109,92,1,0,,,,,,,,,,,,,,,,,,,,,
,,,,,,,,,,,,,,,,,,,,,,,,,,,,,,,,,,,,,,,,,,602c1fc2c083e34a7ba2894b,606a0f38a5fd39d4018ecee0,2021-04-04_15h11.52.249,Colour_Similarity_Experiment,2020.2.10,Win32,60,60675255c767bca6388caeee,316.7752003,17.06000763,16.71736919,16.69777184,16.73042827,16.73042827,,,,,,,,,,,,,,,,,,,,PF,3,weak,,,,,,,,3,3.78025,,,,,,,,,,,,,,,,,,,,,,,,,,,1,weak,-47.99998927,-82.40000767,1,0,0,response5disk,3,111,7.200011551,3.19999361,1,0,0,rectangle,7.200011551,3.19999361,1,0,0,3,0,0.000655,7.200011551,3.19999361,1,0,0,0,110,110,1,1,0,,,,,,,,,,,,,,,,,,,,,
,,,,,,,,,,,,,,,,,,,,,,,,,,,,,,,,,,,,,,,,,,602c1fc2c083e34a7ba2894b,606a0f38a5fd39d4018ecee0,2021-04-04_15h11.52.249,Colour_Similarity_Experiment,2020.2.10,Win32,60,60675255c767bca6388caeee,316.7752003,17.06000763,16.71736919,16.69777184,16.73042827,16.73042827,,,,,,,,,,,,,,,,,,,,PF,3,strong,,,,,,,,6,4.20121,,,,,,,,,,,,,,,,,,,,,,,,,,,7,strong,68.80001247,43.99999422,1,0,0,response1disk,7,112,13.60006047,-2.400006473,1,0,0,rectangle,13.60006047,-2.400006473,1,0,0,3,4,0.002025,13.60006047,-2.400006473,1,0,0,0,111,111,34,1,0,,,,,,,,,,,,,,,,,,,,,
,,,,,,,,,,,,,,,,,,,,,,,,,,,,,,,,,,,,,,,,,,602c1fc2c083e34a7ba2894b,606a0f38a5fd39d4018ecee0,2021-04-04_15h11.52.249,Colour_Similarity_Experiment,2020.2.10,Win32,60,60675255c767bca6388caeee,316.7752003,17.06000763,16.71736919,16.69777184,16.73042827,16.73042827,,,,,,,,,,,,,,,,,,,,PF,3,strong,,,,,,,,7,1.062415,,,,,,,,,,,,,,,,,,,,,,,,,,,3,strong,32.80001193,58.39999443,1,0,0,response1disk,4,113,-7.199988663,-4.000006497,1,0,0,rectangle,-7.199988663,-4.000006497,1,0,0,3,4,0.00028,-7.199988663,-4.000006497,1,0,0,0,112,112,110,1,0,,,,,,,,,,,,,,,,,,,,,
,,,,,,,,,,,,,,,,,,,,,,,,,,,,,,,,,,,,,,,,,,602c1fc2c083e34a7ba2894b,606a0f38a5fd39d4018ecee0,2021-04-04_15h11.52.249,Colour_Similarity_Experiment,2020.2.10,Win32,60,60675255c767bca6388caeee,316.7752003,17.06000763,16.71736919,16.69777184,16.73042827,16.73042827,,,,,,,,,,,,,,,,,,,,PF,3,weak,,,,,,,,7,0.94634,,,,,,,,,,,,,,,,,,,,,,,,,,,9,weak,29.60006071,80.79999477,1,0,0,response1disk,7,114,-13.59998876,-9.60000658,1,0,0,rectangle,-13.59998876,-9.60000658,1,0,0,3,3,0.00264,-13.59998876,-9.60000658,1,0,0,0,113,113,121,1,0,,,,,,,,,,,,,,,,,,,,,
,,,,,,,,,,,,,,,,,,,,,,,,,,,,,,,,,,,,,,,,,,602c1fc2c083e34a7ba2894b,606a0f38a5fd39d4018ecee0,2021-04-04_15h11.52.249,Colour_Similarity_Experiment,2020.2.10,Win32,60,60675255c767bca6388caeee,316.7752003,17.06000763,16.71736919,16.69777184,16.73042827,16.73042827,,,,,,,,,,,,,,,,,,,,PF,3,weak,,,,,,,,7,0.80167,,,,,,,,,,,,,,,,,,,,,,,,,,,9,weak,40.00001204,90.39999491,1,0,0,response1disk,3,115,-3.199988604,5.599993646,1,0,0,rectangle,-3.199988604,5.599993646,1,0,0,3,6,0.003245,-3.199988604,5.599993646,1,0,0,0,114,114,119,1,0,,,,,,,,,,,,,,,,,,,,,
,,,,,,,,,,,,,,,,,,,,,,,,,,,,,,,,,,,,,,,,,,602c1fc2c083e34a7ba2894b,606a0f38a5fd39d4018ecee0,2021-04-04_15h11.52.249,Colour_Similarity_Experiment,2020.2.10,Win32,60,60675255c767bca6388caeee,316.7752003,17.06000763,16.71736919,16.69777184,16.73042827,16.73042827,,,,,,,,,,,,,,,,,,,,PF,3,strong,,,,,,,,7,0.78194,,,,,,,,,,,,,,,,,,,,,,,,,,,3,strong,41.60006089,91.19997051,1,0,0,response1disk,7,116,8.000011563,14.39999378,1,0,0,rectangle,8.000011563,14.39999378,1,0,0,3,5,0.00181,8.000011563,14.39999378,1,0,0,0,115,115,118,1,0,,,,,,,,,,,,,,,,,,,,,
,,,,,,,,,,,,,,,,,,,,,,,,,,,,,,,,,,,,,,,,,,602c1fc2c083e34a7ba2894b,606a0f38a5fd39d4018ecee0,2021-04-04_15h11.52.249,Colour_Similarity_Experiment,2020.2.10,Win32,60,60675255c767bca6388caeee,316.7752003,17.06000763,16.71736919,16.69777184,16.73042827,16.73042827,,,,,,,,,,,,,,,,,,,,PF,3,weak,,,,,,,,7,1.250865,,,,,,,,,,,,,,,,,,,,,,,,,,,6,weak,32.00001192,48.79999429,1,0,0,response1disk,2,117,-8.799988687,-12.80000663,1,0,0,rectangle,-8.799988687,-12.80000663,1,0,0,3,7,0.00173,-8.799988687,-12.80000663,1,0,0,0,116,116,130,1,0,,,,,,,,,,,,,,,,,,,,,
,,,,,,,,,,,,,,,,,,,,,,,,,,,,,,,,,,,,,,,,,,602c1fc2c083e34a7ba2894b,606a0f38a5fd39d4018ecee0,2021-04-04_15h11.52.249,Colour_Similarity_Experiment,2020.2.10,Win32,60,60675255c767bca6388caeee,316.7752003,17.06000763,16.71736919,16.69777184,16.73042827,16.73042827,,,,,,,,,,,,,,,,,,,,PF,3,strong,,,,,,,,3,2.65697,,,,,,,,,,,,,,,,,,,,,,,,,,,2,strong,-54.39994054,-93.60005666,1,0,0,response5disk,1,118,7.200011551,11.99999374,1,0,0,rectangle,7.200011551,11.99999374,1,0,0,3,3,0.001005,7.200011551,11.99999374,1,0,0,0,117,117,85,1,0,,,,,,,,,,,,,,,,,,,,,
,,,,,,,,,,,,,,,,,,,,,,,,,,,,,,,,,,,,,,,,,,602c1fc2c083e34a7ba2894b,606a0f38a5fd39d4018ecee0,2021-04-04_15h11.52.249,Colour_Similarity_Experiment,2020.2.10,Win32,60,60675255c767bca6388caeee,316.7752003,17.06000763,16.71736919,16.69777184,16.73042827,16.73042827,,,,,,,,,,,,,,,,,,,,PF,3,weak,,,,,,,,7,2.284245,,,,,,,,,,,,,,,,,,,,,,,,,,,9,weak,31.20001191,55.19996997,1,0,0,response1disk,5,119,1.600060296,9.599993706,1,0,0,rectangle,1.600060296,9.599993706,1,0,0,3,4,0.00292,1.600060296,9.599993706,1,0,0,0,118,118,134,1,0,,,,,,,,,,,,,,,,,,,,,
,,,,,,,,,,,,,,,,,,,,,,,,,,,,,,,,,,,,,,,,,,602c1fc2c083e34a7ba2894b,606a0f38a5fd39d4018ecee0,2021-04-04_15h11.52.249,Colour_Similarity_Experiment,2020.2.10,Win32,60,60675255c767bca6388caeee,316.7752003,17.06000763,16.71736919,16.69777184,16.73042827,16.73042827,,,,,,,,,,,,,,,,,,,,PF,3,strong,,,,,,,,7,1.783985,,,,,,,,,,,,,,,,,,,,,,,,,,,2,strong,45.60006095,67.19997015,1,0,0,response1disk,9,120,3.200011492,-9.60000658,1,0,0,rectangle,3.200011492,-9.60000658,1,0,0,3,4,0.00035,3.200011492,-9.60000658,1,0,0,0,119,119,72,1,0,,,,,,,,,,,,,,,,,,,,,
,,,,,,,,,,,,,,,,,,,,,,,,,,,,,,,,,,,,,,,,,,602c1fc2c083e34a7ba2894b,606a0f38a5fd39d4018ecee0,2021-04-04_15h11.52.249,Colour_Similarity_Experiment,2020.2.10,Win32,60,60675255c767bca6388caeee,316.7752003,17.06000763,16.71736919,16.69777184,16.73042827,16.73042827,,,,,,,,,,,,,,,,,,,,PF,3,weak,,,,,,,,7,2.75188,,,,,,,,,,,,,,,,,,,,,,,,,,,2,weak,45.60006095,51.19996991,1,0,0,response1disk,7,121,4.800011516,-11.2000066,1,0,0,rectangle,4.800011516,-11.2000066,1,0,0,3,4,0.00054,4.800011516,-11.2000066,1,0,0,0,120,120,107,1,0,,,,,,,,,,,,,,,,,,,,,
,,,,,,,,,,,,,,,,,,,,,,,,,,,,,,,,,,,,,,,,,,602c1fc2c083e34a7ba2894b,606a0f38a5fd39d4018ecee0,2021-04-04_15h11.52.249,Colour_Similarity_Experiment,2020.2.10,Win32,60,60675255c767bca6388caeee,316.7752003,17.06000763,16.71736919,16.69777184,16.73042827,16.73042827,,,,,,,,,,,,,,,,,,,,PF,3,weak,,,,,,,,2,3.028765,,,,,,,,,,,,,,,,,,,,,,,,,,,4,weak,-94.39994113,-40.00000703,1,0,0,response5disk,1,122,8.000011563,7.19999367,1,0,0,rectangle,8.000011563,7.19999367,1,0,0,3,5,0.001855,8.000011563,7.19999367,1,0,0,0,121,121,115,1,0,,,,,,,,,,,,,,,,,,,,,
,,,,,,,,,,,,,,,,,,,,,,,,,,,,,,,,,,,,,,,,,,602c1fc2c083e34a7ba2894b,606a0f38a5fd39d4018ecee0,2021-04-04_15h11.52.249,Colour_Similarity_Experiment,2020.2.10,Win32,60,60675255c767bca6388caeee,316.7752003,17.06000763,16.71736919,16.69777184,16.73042827,16.73042827,,,,,,,,,,,,,,,,,,,,PF,3,strong,,,,,,,,7,1.49738,,,,,,,,,,,,,,,,,,,,,,,,,,,9,strong,42.40001208,71.99999464,1,0,0,response1disk,3,123,1.14441E-05,-4.800006509,1,0,0,rectangle,1.14441E-05,-4.800006509,1,0,0,3,4,0.001975,1.14441E-05,-4.800006509,1,0,0,0,122,122,141,1,0,,,,,,,,,,,,,,,,,,,,,
,,,,,,,,,,,,,,,,,,,,,,,,,,,,,,,,,,,,,,,,,,602c1fc2c083e34a7ba2894b,606a0f38a5fd39d4018ecee0,2021-04-04_15h11.52.249,Colour_Similarity_Experiment,2020.2.10,Win32,60,60675255c767bca6388caeee,316.7752003,17.06000763,16.71736919,16.69777184,16.73042827,16.73042827,,,,,,,,,,,,,,,,,,,,PF,3,strong,,,,,,,,7,1.56567,,,,,,,,,,,,,,,,,,,,,,,,,,,6,strong,38.40001202,63.19997009,1,0,0,response1disk,8,124,-13.59998876,-9.60000658,1,0,0,rectangle,-13.59998876,-9.60000658,1,0,0,3,5,0.00192,-13.59998876,-9.60000658,1,0,0,0,123,123,133,1,0,,,,,,,,,,,,,,,,,,,,,
,,,,,,,,,,,,,,,,,,,,,,,,,,,,,,,,,,,,,,,,,,602c1fc2c083e34a7ba2894b,606a0f38a5fd39d4018ecee0,2021-04-04_15h11.52.249,Colour_Similarity_Experiment,2020.2.10,Win32,60,60675255c767bca6388caeee,316.7752003,17.06000763,16.71736919,16.69777184,16.73042827,16.73042827,,,,,,,,,,,,,,,,,,,,PF,3,strong,,,,,,,,3,3.86887,,,,,,,,,,,,,,,,,,,,,,,,,,,3,strong,-45.59998924,-92.00000781,1,0,0,response5disk,9,125,7.200011551,-5.600006521,1,0,0,rectangle,7.200011551,-5.600006521,1,0,0,3,7,0.001775,7.200011551,-5.600006521,1,0,0,0,124,124,143,1,0,,,,,,,,,,,,,,,,,,,,,
,,,,,,,,,,,,,,,,,,,,,,,,,,,,,,,,,,,,,,,,,,602c1fc2c083e34a7ba2894b,606a0f38a5fd39d4018ecee0,2021-04-04_15h11.52.249,Colour_Similarity_Experiment,2020.2.10,Win32,60,60675255c767bca6388caeee,316.7752003,17.06000763,16.71736919,16.69777184,16.73042827,16.73042827,,,,,,,,,,,,,,,,,,,,PF,3,weak,,,,,,,,7,1.35077,,,,,,,,,,,,,,,,,,,,,,,,,,,7,weak,22.40001178,71.99999464,1,0,0,response1disk,6,126,-8.799988687,2.399993598,1,0,0,rectangle,-8.799988687,2.399993598,1,0,0,3,1,0.00277,-8.799988687,2.399993598,1,0,0,0,125,125,29,1,0,,,,,,,,,,,,,,,,,,,,,
,,,,,,,,,,,,,,,,,,,,,,,,,,,,,,,,,,,,,,,,,,602c1fc2c083e34a7ba2894b,606a0f38a5fd39d4018ecee0,2021-04-04_15h11.52.249,Colour_Similarity_Experiment,2020.2.10,Win32,60,60675255c767bca6388caeee,316.7752003,17.06000763,16.71736919,16.69777184,16.73042827,16.73042827,,,,,,,,,,,,,,,,,,,,PF,3,weak,,,,,,,,1,2.000005,,,,,,,,,,,,,,,,,,,,,,,,,,,7,weak,-83.1999898,51.19996991,1,0,0,response7disk,7,127,20.80001175,-1.600006461,1,0,0,rectangle,20.80001175,-1.600006461,1,0,0,3,3,0.00218,20.80001175,-1.600006461,1,0,0,0,126,126,51,1,0,,,,,,,,,,,,,,,,,,,,,
,,,,,,,,,,,,,,,,,,,,,,,,,,,,,,,,,,,,,,,,,,602c1fc2c083e34a7ba2894b,606a0f38a5fd39d4018ecee0,2021-04-04_15h11.52.249,Colour_Similarity_Experiment,2020.2.10,Win32,60,60675255c767bca6388caeee,316.7752003,17.06000763,16.71736919,16.69777184,16.73042827,16.73042827,,,,,,,,,,,,,,,,,,,,PF,3,strong,,,,,,,,7,0.88388,,,,,,,,,,,,,,,,,,,,,,,,,,,8,strong,28.00001186,75.19997027,1,0,0,response1disk,1,128,-15.19998878,-16.80000669,1,0,0,rectangle,-15.19998878,-16.80000669,1,0,0,3,0,0.0019,-15.19998878,-16.80000669,1,0,0,0,127,127,20,1,0,,,,,,,,,,,,,,,,,,,,,
,,,,,,,,,,,,,,,,,,,,,,,,,,,,,,,,,,,,,,,,,,602c1fc2c083e34a7ba2894b,606a0f38a5fd39d4018ecee0,2021-04-04_15h11.52.249,Colour_Similarity_Experiment,2020.2.10,Win32,60,60675255c767bca6388caeee,316.7752003,17.06000763,16.71736919,16.69777184,16.73042827,16.73042827,,,,,,,,,,,,,,,,,,,,PF,3,strong,,,,,,,,7,0.749585,,,,,,,,,,,,,,,,,,,,,,,,,,,9,strong,47.20001215,109.5999952,1,0,0,response1disk,7,129,-8.799988687,-12.80000663,1,0,0,rectangle,-8.799988687,-12.80000663,1,0,0,3,0,0.00063,-8.799988687,-12.80000663,1,0,0,0,128,128,100,1,0,,,,,,,,,,,,,,,,,,,,,
,,,,,,,,,,,,,,,,,,,,,,,,,,,,,,,,,,,,,,,,,,602c1fc2c083e34a7ba2894b,606a0f38a5fd39d4018ecee0,2021-04-04_15h11.52.249,Colour_Similarity_Experiment,2020.2.10,Win32,60,60675255c767bca6388caeee,316.7752003,17.06000763,16.71736919,16.69777184,16.73042827,16.73042827,,,,,,,,,,,,,,,,,,,,PF,3,weak,,,,,,,,4,2.267805,,,,,,,,,,,,,,,,,,,,,,,,,,,2,weak,41.60006089,-87.20000774,1,0,0,response3disk,8,130,1.600060296,-7.200006545,1,0,0,rectangle,1.600060296,-7.200006545,1,0,0,3,2,0.00217,1.600060296,-7.200006545,1,0,0,0,129,129,52,1,0,,,,,,,,,,,,,,,,,,,,,
,,,,,,,,,,,,,,,,,,,,,,,,,,,,,,,,,,,,,,,,,,602c1fc2c083e34a7ba2894b,606a0f38a5fd39d4018ecee0,2021-04-04_15h11.52.249,Colour_Similarity_Experiment,2020.2.10,Win32,60,60675255c767bca6388caeee,316.7752003,17.06000763,16.71736919,16.69777184,16.73042827,16.73042827,,,,,,,,,,,,,,,,,,,,PF,3,weak,,,,,,,,3,2.101595,,,,,,,,,,,,,,,,,,,,,,,,,,,5,weak,-20.79998887,-59.20000732,1,0,0,response5disk,9,131,32.80001193,8.799993694,1,0,0,rectangle,-95.99998999,-56.80000728,1,0,0,3,2,1.91665,2.40001148,5.599993646,1,0,0,0,130,130,136,1,1,response5disk_3,rectangle,,,,,,,,,,,,,,,,,,,
,,,,,,,,,,,,,,,,,,,,,,,,,,,,,,,,,,,,,,,,,,602c1fc2c083e34a7ba2894b,606a0f38a5fd39d4018ecee0,2021-04-04_15h11.52.249,Colour_Similarity_Experiment,2020.2.10,Win32,60,60675255c767bca6388caeee,316.7752003,17.06000763,16.71736919,16.69777184,16.73042827,16.73042827,,,,,,,,,,,,,,,,,,,,PF,3,weak,,,,,,,,7,1.017115,,,,,,,,,,,,,,,,,,,,,,,,,,,5,weak,37.60006083,70.39999461,1,0,0,response1disk,5,132,4.800011516,4.799993634,1,0,0,rectangle,4.800011516,4.799993634,1,0,0,3,6,0.003225,4.800011516,4.799993634,1,0,0,0,131,131,94,1,0,,,,,,,,,,,,,,,,,,,,,
,,,,,,,,,,,,,,,,,,,,,,,,,,,,,,,,,,,,,,,,,,602c1fc2c083e34a7ba2894b,606a0f38a5fd39d4018ecee0,2021-04-04_15h11.52.249,Colour_Similarity_Experiment,2020.2.10,Win32,60,60675255c767bca6388caeee,316.7752003,17.06000763,16.71736919,16.69777184,16.73042827,16.73042827,,,,,,,,,,,,,,,,,,,,PF,3,strong,,,,,,,,5,6.3856,,,,,,,,,,,,,,,,,,,,,,,,,,,2,strong,116.0000132,-57.6000073,1,0,0,response3disk,6,133,7.200011551,1.599993587,1,0,0,rectangle,7.200011551,1.599993587,1,0,0,3,6,0.000595,7.200011551,1.599993587,1,0,0,0,132,132,40,1,0,,,,,,,,,,,,,,,,,,,,,
,,,,,,,,,,,,,,,,,,,,,,,,,,,,,,,,,,,,,,,,,,602c1fc2c083e34a7ba2894b,606a0f38a5fd39d4018ecee0,2021-04-04_15h11.52.249,Colour_Similarity_Experiment,2020.2.10,Win32,60,60675255c767bca6388caeee,316.7752003,17.06000763,16.71736919,16.69777184,16.73042827,16.73042827,,,,,,,,,,,,,,,,,,,,PF,3,strong,,,,,,,,0,1.41636,,,,,,,,,,,,,,,,,,,,,,,,,,,1,strong,-51.99998933,97.59999502,1,0,0,response7disk,6,134,0.800011456,3.999993622,1,0,0,rectangle,0.800011456,3.999993622,1,0,0,3,3,0.000985,0.800011456,3.999993622,1,0,0,0,133,133,58,1,0,,,,,,,,,,,,,,,,,,,,,
,,,,,,,,,,,,,,,,,,,,,,,,,,,,,,,,,,,,,,,,,,602c1fc2c083e34a7ba2894b,606a0f38a5fd39d4018ecee0,2021-04-04_15h11.52.249,Colour_Similarity_Experiment,2020.2.10,Win32,60,60675255c767bca6388caeee,316.7752003,17.06000763,16.71736919,16.69777184,16.73042827,16.73042827,,,,,,,,,,,,,,,,,,,,PF,3,strong,,,,,,,,3,1.696695,,,,,,,,,,,,,,,,,,,,,,,,,,,2,strong,-51.99998933,-88.80000776,1,0,0,response5disk,5,135,11.20001161,-7.200006545,1,0,0,rectangle,11.20001161,-7.200006545,1,0,0,3,2,0.00164,11.20001161,-7.200006545,1,0,0,0,134,134,80,1,0,,,,,,,,,,,,,,,,,,,,,
,,,,,,,,,,,,,,,,,,,,,,,,,,,,,,,,,,,,,,,,,,602c1fc2c083e34a7ba2894b,606a0f38a5fd39d4018ecee0,2021-04-04_15h11.52.249,Colour_Similarity_Experiment,2020.2.10,Win32,60,60675255c767bca6388caeee,316.7752003,17.06000763,16.71736919,16.69777184,16.73042827,16.73042827,,,,,,,,,,,,,,,,,,,,PF,3,strong,,,,,,,,7,1.233225,,,,,,,,,,,,,,,,,,,,,,,,,,,5,strong,49.60006101,87.19997045,1,0,0,response1disk,8,136,-4.799988627,-12.80000663,1,0,0,rectangle,-4.799988627,-12.80000663,1,0,0,3,3,0.000865,-4.799988627,-12.80000663,1,0,0,0,135,135,16,1,0,,,,,,,,,,,,,,,,,,,,,
,,,,,,,,,,,,,,,,,,,,,,,,,,,,,,,,,,,,,,,,,,602c1fc2c083e34a7ba2894b,606a0f38a5fd39d4018ecee0,2021-04-04_15h11.52.249,Colour_Similarity_Experiment,2020.2.10,Win32,60,60675255c767bca6388caeee,316.7752003,17.06000763,16.71736919,16.69777184,16.73042827,16.73042827,,,,,,,,,,,,,,,,,,,,PF,3,weak,,,,,,,,0,1.664375,,,,,,,,,,,,,,,,,,,,,,,,,,,3,weak,-47.99998927,76.79999471,1,0,0,response7disk,8,137,15.20001167,4.799993634,1,0,0,rectangle,15.20001167,4.799993634,1,0,0,3,0,0.00227,15.20001167,4.799993634,1,0,0,0,136,136,3,1,0,,,,,,,,,,,,,,,,,,,,,
,,,,,,,,,,,,,,,,,,,,,,,,,,,,,,,,,,,,,,,,,,602c1fc2c083e34a7ba2894b,606a0f38a5fd39d4018ecee0,2021-04-04_15h11.52.249,Colour_Similarity_Experiment,2020.2.10,Win32,60,60675255c767bca6388caeee,316.7752003,17.06000763,16.71736919,16.69777184,16.73042827,16.73042827,,,,,,,,,,,,,,,,,,,,PF,3,weak,,,,,,,,7,3.48787,,,,,,,,,,,,,,,,,,,,,,,,,,,5,weak,25.60006065,68.79999459,1,0,0,response1disk,4,138,6.400011539,5.599993646,1,0,0,rectangle,6.400011539,5.599993646,1,0,0,3,5,0.00083,6.400011539,5.599993646,1,0,0,0,137,137,54,1,0,,,,,,,,,,,,,,,,,,,,,
,,,,,,,,,,,,,,,,,,,,,,,,,,,,,,,,,,,,,,,,,,602c1fc2c083e34a7ba2894b,606a0f38a5fd39d4018ecee0,2021-04-04_15h11.52.249,Colour_Similarity_Experiment,2020.2.10,Win32,60,60675255c767bca6388caeee,316.7752003,17.06000763,16.71736919,16.69777184,16.73042827,16.73042827,,,,,,,,,,,,,,,,,,,,PF,3,strong,,,,,,,,3,4.468915,,,,,,,,,,,,,,,,,,,,,,,,,,,6,strong,-52.79998934,-100.8000079,1,0,0,response5disk,3,139,18.40001172,8.799993694,1,0,0,rectangle,18.40001172,8.799993694,1,0,0,3,5,0.000225,18.40001172,8.799993694,1,0,0,0,138,138,21,1,0,,,,,,,,,,,,,,,,,,,,,
,,,,,,,,,,,,,,,,,,,,,,,,,,,,,,,,,,,,,,,,,,602c1fc2c083e34a7ba2894b,606a0f38a5fd39d4018ecee0,2021-04-04_15h11.52.249,Colour_Similarity_Experiment,2020.2.10,Win32,60,60675255c767bca6388caeee,316.7752003,17.06000763,16.71736919,16.69777184,16.73042827,16.73042827,,,,,,,,,,,,,,,,,,,,PF,3,strong,,,,,,,,7,1.116855,,,,,,,,,,,,,,,,,,,,,,,,,,,4,strong,50.4000122,79.99999475,1,0,0,response1disk,8,140,-7.199988663,4.799993634,1,0,0,rectangle,-7.199988663,4.799993634,1,0,0,3,7,0.00071,-7.199988663,4.799993634,1,0,0,0,139,139,35,1,0,,,,,,,,,,,,,,,,,,,,,
,,,,,,,,,,,,,,,,,,,,,,,,,,,,,,,,,,,,,,,,,,602c1fc2c083e34a7ba2894b,606a0f38a5fd39d4018ecee0,2021-04-04_15h11.52.249,Colour_Similarity_Experiment,2020.2.10,Win32,60,60675255c767bca6388caeee,316.7752003,17.06000763,16.71736919,16.69777184,16.73042827,16.73042827,,,,,,,,,,,,,,,,,,,,PF,3,strong,,,,,,,,4,1.21633,,,,,,,,,,,,,,,,,,,,,,,,,,,2,strong,25.60006065,-76.80000758,1,0,0,response3disk,7,141,10.4000116,-3.200006485,1,0,0,rectangle,10.4000116,-3.200006485,1,0,0,3,4,0.002355,10.4000116,-3.200006485,1,0,0,0,140,140,63,1,0,,,,,,,,,,,,,,,,,,,,,
,,,,,,,,,,,,,,,,,,,,,,,,,,,,,,,,,,,,,,,,,,602c1fc2c083e34a7ba2894b,606a0f38a5fd39d4018ecee0,2021-04-04_15h11.52.249,Colour_Similarity_Experiment,2020.2.10,Win32,60,60675255c767bca6388caeee,316.7752003,17.06000763,16.71736919,16.69777184,16.73042827,16.73042827,,,,,,,,,,,,,,,,,,,,PF,3,weak,,,,,,,,1,3.035125,,,,,,,,,,,,,,,,,,,,,,,,,,,2,weak,-107.1999902,39.19996973,1,0,0,response7disk,6,142,-22.39994006,-4.800006509,1,0,0,rectangle,-22.39994006,-4.800006509,1,0,0,3,2,0.001405,-22.39994006,-4.800006509,1,0,0,0,141,141,113,1,0,,,,,,,,,,,,,,,,,,,,,
,,,,,,,,,,,,,,,,,,,,,,,,,,,,,,,,,,,,,,,,,,602c1fc2c083e34a7ba2894b,606a0f38a5fd39d4018ecee0,2021-04-04_15h11.52.249,Colour_Similarity_Experiment,2020.2.10,Win32,60,60675255c767bca6388caeee,316.7752003,17.06000763,16.71736919,16.69777184,16.73042827,16.73042827,,,,,,,,,,,,,,,,,,,,PF,3,strong,,,,,,,,0,1.313685,,,,,,,,,,,,,,,,,,,,,,,,,,,8,strong,-50.39994048,88.79999489,1,0,0,response7disk,6,143,-2.399939764,8.799993694,1,0,0,rectangle,-2.399939764,8.799993694,1,0,0,3,6,0.002245,-2.399939764,8.799993694,1,0,0,0,142,142,37,1,0,,,,,,,,,,,,,,,,,,,,,
,,,,,,,,,,,,,,,,,,,,,,,,,,,,,,,,,,,,,,,,,,602c1fc2c083e34a7ba2894b,606a0f38a5fd39d4018ecee0,2021-04-04_15h11.52.249,Colour_Similarity_Experiment,2020.2.10,Win32,60,60675255c767bca6388caeee,316.7752003,17.06000763,16.71736919,16.69777184,16.73042827,16.73042827,,,,,,,,,,,,,,,,,,,,PF,3,weak,,,,,,,,4,3.01847,,,,,,,,,,,,,,,,,,,,,,,,,,,9,weak,53.60001224,-83.20000768,1,0,0,response3disk,4,144,0.800011456,10.39999372,1,0,0,rectangle,0.800011456,10.39999372,1,0,0,3,0,0.00181,0.800011456,10.39999372,1,0,0,0,143,143,114,1,0,,,,,,,,,,,,,,,,,,,,,
,,,,,,,,,,,,,,,,,,,,,,,,,,,,,,,,,,,,,,,,,,602c1fc2c083e34a7ba2894b,606a0f38a5fd39d4018ecee0,2021-04-04_15h11.52.249,Colour_Similarity_Experiment,2020.2.10,Win32,60,60675255c767bca6388caeee,316.7752003,17.06000763,16.71736919,16.69777184,16.73042827,16.73042827,,,,,,,,,,,,,,,,,,,,PF,3,strong,,,,,,,,7,1.717575,,,,,,,,,,,,,,,,,,,,,,,,,,,7,strong,32.00001192,64.79999453,1,0,0,response1disk,1,145,-4.799988627,-10.40000659,1,0,0,rectangle,-4.799988627,-10.40000659,1,0,0,3,1,0.00079,-4.799988627,-10.40000659,1,0,0,0,144,144,132,1,0,,,,,,,,,,,,,,,,,,,,,
,,,,,,,,,,,,,,,,,,,,,,,,,,,,,,,,,,,,,,,,,,602c1fc2c083e34a7ba2894b,606a0f38a5fd39d4018ecee0,2021-04-04_15h11.52.249,Colour_Similarity_Experiment,2020.2.10,Win32,60,60675255c767bca6388caeee,316.7752003,17.06000763,16.71736919,16.69777184,16.73042827,16.73042827,,,,,,,,,,,,,,,,,,,,PF,3,strong,,,,,,,,5,2.75673,,,,,,,,,,,,,,,,,,,,,,,,,,,8,strong,81.60001266,-43.20000708,1,0,0,response3disk,8,146,-6.399939823,-0.800006449,1,0,0,rectangle,-6.399939823,-0.800006449,1,0,0,3,6,0.00193,-6.399939823,-0.800006449,1,0,0,0,145,145,48,1,0,,,,,,,,,,,,,,,,,,,,,
,,,,,,,,,,,,,,,,,,,,,,,,,,,,,,,,,,,,,,,,,,602c1fc2c083e34a7ba2894b,606a0f38a5fd39d4018ecee0,2021-04-04_15h11.52.249,Colour_Similarity_Experiment,2020.2.10,Win32,60,60675255c767bca6388caeee,316.7752003,17.06000763,16.71736919,16.69777184,16.73042827,16.73042827,,,,,,,,,,,,,,,,,,,,PF,3,weak,,,,,,,,0,1.05159,,,,,,,,,,,,,,,,,,,,,,,,,,,8,weak,-37.59998912,75.19997027,1,0,0,response7disk,8,147,-2.399939764,14.39999378,1,0,0,rectangle,-2.399939764,14.39999378,1,0,0,3,2,0.00177,-2.399939764,14.39999378,1,0,0,0,146,146,153,1,0,,,,,,,,,,,,,,,,,,,,,
,,,,,,,,,,,,,,,,,,,,,,,,,,,,,,,,,,,,,,,,,,602c1fc2c083e34a7ba2894b,606a0f38a5fd39d4018ecee0,2021-04-04_15h11.52.249,Colour_Similarity_Experiment,2020.2.10,Win32,60,60675255c767bca6388caeee,316.7752003,17.06000763,16.71736919,16.69777184,16.73042827,16.73042827,,,,,,,,,,,,,,,,,,,,PF,3,strong,,,,,,,,4,1.849745,,,,,,,,,,,,,,,,,,,,,,,,,,,8,strong,36.80001199,-86.40000772,1,0,0,response3disk,7,148,5.600060356,-3.200006485,1,0,0,rectangle,5.600060356,-3.200006485,1,0,0,3,1,0.001275,5.600060356,-3.200006485,1,0,0,0,147,147,86,1,0,,,,,,,,,,,,,,,,,,,,,
,,,,,,,,,,,,,,,,,,,,,,,,,,,,,,,,,,,,,,,,,,602c1fc2c083e34a7ba2894b,606a0f38a5fd39d4018ecee0,2021-04-04_15h11.52.249,Colour_Similarity_Experiment,2020.2.10,Win32,60,60675255c767bca6388caeee,316.7752003,17.06000763,16.71736919,16.69777184,16.73042827,16.73042827,,,,,,,,,,,,,,,,,,,,PF,3,strong,,,,,,,,1,0.91856,,,,,,,,,,,,,,,,,,,,,,,,,,,6,strong,-79.99998975,34.39999408,1,0,0,response7disk,6,149,-2.399939764,2.399993598,1,0,0,rectangle,-2.399939764,2.399993598,1,0,0,3,2,0.00212,-2.399939764,2.399993598,1,0,0,0,148,148,91,1,0,,,,,,,,,,,,,,,,,,,,,
,,,,,,,,,,,,,,,,,,,,,,,,,,,,,,,,,,,,,,,,,,602c1fc2c083e34a7ba2894b,606a0f38a5fd39d4018ecee0,2021-04-04_15h11.52.249,Colour_Similarity_Experiment,2020.2.10,Win32,60,60675255c767bca6388caeee,316.7752003,17.06000763,16.71736919,16.69777184,16.73042827,16.73042827,,,,,,,,,,,,,,,,,,,,PF,3,weak,,,,,,,,7,1.094045,,,,,,,,,,,,,,,,,,,,,,,,,,,9,weak,35.20001197,67.19997015,1,0,0,response1disk,1,150,19.20001173,7.999993682,1,0,0,rectangle,19.20001173,7.999993682,1,0,0,3,2,0.00076,19.20001173,7.999993682,1,0,0,0,149,149,74,1,0,,,,,,,,,,,,,,,,,,,,,
,,,,,,,,,,,,,,,,,,,,,,,,,,,,,,,,,,,,,,,,,,602c1fc2c083e34a7ba2894b,606a0f38a5fd39d4018ecee0,2021-04-04_15h11.52.249,Colour_Similarity_Experiment,2020.2.10,Win32,60,60675255c767bca6388caeee,316.7752003,17.06000763,16.71736919,16.69777184,16.73042827,16.73042827,,,,,,,,,,,,,,,,,,,,PF,3,weak,,,,,,,,1,1.4012,,,,,,,,,,,,,,,,,,,,,,,,,,,1,weak,-75.19998968,35.9999941,1,0,0,response7disk,9,151,-23.1999889,-4.000006497,1,0,0,rectangle,-23.1999889,-4.000006497,1,0,0,3,7,0.001865,-23.1999889,-4.000006497,1,0,0,0,150,150,15,1,0,,,,,,,,,,,,,,,,,,,,,
,,,,,,,,,,,,,,,,,,,,,,,,,,,,,,,,,,,,,,,,,,602c1fc2c083e34a7ba2894b,606a0f38a5fd39d4018ecee0,2021-04-04_15h11.52.249,Colour_Similarity_Experiment,2020.2.10,Win32,60,60675255c767bca6388caeee,316.7752003,17.06000763,16.71736919,16.69777184,16.73042827,16.73042827,,,,,,,,,,,,,,,,,,,,PF,3,strong,,,,,,,,7,1.9677,,,,,,,,,,,,,,,,,,,,,,,,,,,4,strong,25.60006065,61.59999448,1,0,0,response1disk,7,152,12.80001163,-4.000006497,1,0,0,rectangle,12.80001163,-4.000006497,1,0,0,3,2,0.005845,12.80001163,-4.000006497,1,0,0,0,151,151,87,1,0,,,,,,,,,,,,,,,,,,,,,
,,,,,,,,,,,,,,,,,,,,,,,,,,,,,,,,,,,,,,,,,,602c1fc2c083e34a7ba2894b,606a0f38a5fd39d4018ecee0,2021-04-04_15h11.52.249,Colour_Similarity_Experiment,2020.2.10,Win32,60,60675255c767bca6388caeee,316.7752003,17.06000763,16.71736919,16.69777184,16.73042827,16.73042827,,,,,,,,,,,,,,,,,,,,PF,3,strong,,,,,,,,4,1.68439,,,,,,,,,,,,,,,,,,,,,,,,,,,2,strong,49.60006101,-72.80000752,1,0,0,response3disk,8,153,4.000011504,3.19999361,1,0,0,rectangle,4.000011504,3.19999361,1,0,0,3,6,0.000765,4.000011504,3.19999361,1,0,0,0,152,152,62,1,0,,,,,,,,,,,,,,,,,,,,,
,,,,,,,,,,,,,,,,,,,,,,,,,,,,,,,,,,,,,,,,,,602c1fc2c083e34a7ba2894b,606a0f38a5fd39d4018ecee0,2021-04-04_15h11.52.249,Colour_Similarity_Experiment,2020.2.10,Win32,60,60675255c767bca6388caeee,316.7752003,17.06000763,16.71736919,16.69777184,16.73042827,16.73042827,,,,,,,,,,,,,,,,,,,,PF,3,strong,,,,,,,,7,2.217045,,,,,,,,,,,,,,,,,,,,,,,,,,,5,strong,42.40001208,63.19997009,1,0,0,response1disk,4,154,22.40001178,3.999993622,1,0,0,rectangle,22.40001178,3.999993622,1,0,0,3,5,0.0019,22.40001178,3.999993622,1,0,0,0,153,153,8,1,0,,,,,,,,,,,,,,,,,,,,,
,,,,,,,,,,,,,,,,,,,,,,,,,,,,,,,,,,,,,,,,,,602c1fc2c083e34a7ba2894b,606a0f38a5fd39d4018ecee0,2021-04-04_15h11.52.249,Colour_Similarity_Experiment,2020.2.10,Win32,60,60675255c767bca6388caeee,316.7752003,17.06000763,16.71736919,16.69777184,16.73042827,16.73042827,,,,,,,,,,,,,,,,,,,,PF,3,weak,,,,,,,,6,5.018605,,,,,,,,,,,,,,,,,,,,,,,,,,,5,weak,63.20001239,25.59999394,1,0,0,response1disk,7,155,12.80001163,-16.80000669,1,0,0,rectangle,12.80001163,-16.80000669,1,0,0,3,5,0.000125,12.80001163,-16.80000669,1,0,0,0,154,154,146,1,0,,,,,,,,,,,,,,,,,,,,,
,,,,,,,,,,,,,,,,,,,,,,,,,,,,,,,,,,,,,,,,,,602c1fc2c083e34a7ba2894b,606a0f38a5fd39d4018ecee0,2021-04-04_15h11.52.249,Colour_Similarity_Experiment,2020.2.10,Win32,60,60675255c767bca6388caeee,316.7752003,17.06000763,16.71736919,16.69777184,16.73042827,16.73042827,,,,,,,,,,,,,,,,,,,,PF,3,strong,,,,,,,,7,1.20029,,,,,,,,,,,,,,,,,,,,,,,,,,,8,strong,36.80001199,78.39999473,1,0,0,response1disk,2,156,3.200011492,7.19999367,1,0,0,rectangle,3.200011492,7.19999367,1,0,0,3,1,0.003325,3.200011492,7.19999367,1,0,0,0,155,155,22,1,0,,,,,,,,,,,,,,,,,,,,,
,,,,,,,,,,,,,,,,,,,,,,,,,,,,,,,,,,,,,,,,,,602c1fc2c083e34a7ba2894b,606a0f38a5fd39d4018ecee0,2021-04-04_15h11.52.249,Colour_Similarity_Experiment,2020.2.10,Win32,60,60675255c767bca6388caeee,316.7752003,17.06000763,16.71736919,16.69777184,16.73042827,16.73042827,,,,,,,,,,,,,,,,,,,,PF,3,weak,,,,,,,,5,2.751765,,,,,,,,,,,,,,,,,,,,,,,,,,,6,weak,75.20001256,-49.60000718,1,0,0,response3disk,9,157,10.4000116,-7.200006545,1,0,0,rectangle,10.4000116,-7.200006545,1,0,0,3,4,0.00249,10.4000116,-7.200006545,1,0,0,0,156,156,45,1,0,,,,,,,,,,,,,,,,,,,,,
,,,,,,,,,,,,,,,,,,,,,,,,,,,,,,,,,,,,,,,,,,602c1fc2c083e34a7ba2894b,606a0f38a5fd39d4018ecee0,2021-04-04_15h11.52.249,Colour_Similarity_Experiment,2020.2.10,Win32,60,60675255c767bca6388caeee,316.7752003,17.06000763,16.71736919,16.69777184,16.73042827,16.73042827,,,,,,,,,,,,,,,,,,,,PF,3,weak,,,,,,,,2,1.961435,,,,,,,,,,,,,,,,,,,,,,,,,,,1,weak,-102.3999413,-57.6000073,1,0,0,response5disk,1,158,24.80001181,4.799993634,1,0,0,rectangle,55.20001227,82.39999479,1,0,0,7,7,1.70032,13.60006047,0.799993575,1,0,0,0,157,157,76,1,1,response1disk_3,rectangle,,,,,,,,,,,,,,,,,,,
,,,,,,,,,,,,,,,,,,,,,,,,,,,,,,,,,,,,,,,,,,602c1fc2c083e34a7ba2894b,606a0f38a5fd39d4018ecee0,2021-04-04_15h11.52.249,Colour_Similarity_Experiment,2020.2.10,Win32,60,60675255c767bca6388caeee,316.7752003,17.06000763,16.71736919,16.69777184,16.73042827,16.73042827,,,,,,,,,,,,,,,,,,,,PF,3,strong,,,,,,,,5,1.95132,,,,,,,,,,,,,,,,,,,,,,,,,,,8,strong,82.40001267,-67.20000744,1,0,0,response3disk,3,159,5.600060356,-16.80000669,1,0,0,rectangle,5.600060356,-16.80000669,1,0,0,7,3,0.00209,5.600060356,-16.80000669,1,0,0,0,158,158,154,1,0,,,,,,,,,,,,,,,,,,,,,
,,,,,,,,,,,,,,,,,,,,,,,,,,,,,,,,,,,,,,,,,,602c1fc2c083e34a7ba2894b,606a0f38a5fd39d4018ecee0,2021-04-04_15h11.52.249,Colour_Similarity_Experiment,2020.2.10,Win32,60,60675255c767bca6388caeee,316.7752003,17.06000763,16.71736919,16.69777184,16.73042827,16.73042827,,,,,,,,,,,,,,,,,,,,PF,3,strong,,,,,,,,2,1.7336,,,,,,,,,,,,,,,,,,,,,,,,,,,7,strong,-72.79998964,-56.80000728,1,0,0,response5disk,5,160,-1.59998858,-8.800006568,1,0,0,rectangle,-1.59998858,-8.800006568,1,0,0,7,4,0.000675,-1.59998858,-8.800006568,1,0,0,0,159,159,156,1,0,,,,,,,,,,,,,,,,,,,,,
,,,,,,,,,,,,,,,,,,,,,,,,,,,,,,,,,,,,,,,,,,602c1fc2c083e34a7ba2894b,606a0f38a5fd39d4018ecee0,2021-04-04_15h11.52.249,Colour_Similarity_Experiment,2020.2.10,Win32,60,60675255c767bca6388caeee,316.7752003,17.06000763,16.71736919,16.69777184,16.73042827,16.73042827,,,,,,,,,,,,,,,,,,,,PF,3,weak,,,,,,,,0,1.100535,,,,,,,,,,,,,,,,,,,,,,,,,,,2,weak,-38.3999403,70.39999461,1,0,0,response7disk,5,161,-6.399939823,-2.400006473,1,0,0,rectangle,-6.399939823,-2.400006473,1,0,0,7,0,0.002015,-6.399939823,-2.400006473,1,0,0,0,160,160,147,1,0,,,,,,,,,,,,,,,,,,,,,
,,,,,,,,,,,,,,,,,,,,,,,,,,,,,,,,,,,,,,,,,,602c1fc2c083e34a7ba2894b,606a0f38a5fd39d4018ecee0,2021-04-04_15h11.52.249,Colour_Similarity_Experiment,2020.2.10,Win32,60,60675255c767bca6388caeee,316.7752003,17.06000763,16.71736919,16.69777184,16.73042827,16.73042827,,,,,,,,,,,,,,,,,,,,PF,3,weak,,,,,,,,2,4.901685,,,,,,,,,,,,,,,,,,,,,,,,,,,6,weak,-71.99998963,-40.80000705,1,0,0,response5disk,6,162,-7.999988675,-5.600006521,1,0,0,rectangle,-7.999988675,-5.600006521,1,0,0,7,1,0.002985,-7.999988675,-5.600006521,1,0,0,0,161,161,0,1,0,,,,,,,,,,,,,,,,,,,,,
,,,,,,,,,,,,,,,,,,,,,,,,,,,,,,,,,,,,,,,,,,602c1fc2c083e34a7ba2894b,606a0f38a5fd39d4018ecee0,2021-04-04_15h11.52.249,Colour_Similarity_Experiment,2020.2.10,Win32,60,60675255c767bca6388caeee,316.7752003,17.06000763,16.71736919,16.69777184,16.73042827,16.73042827,,,,,,,,,,,,,,,,,,,,,,,,,,,,,,,,,,,,,,,,,,,,,,,,,,,,,,,,,,,,,,,,,,,,,,,,,,,,,,,,,,,,,,,,,,,,,,,0,0,0,0,1,,,,,,,,,,,,,,
,,,,,,,,,,,,,,,,,,,,,,,,,,,,,,,,,,,,,,,,,,602c1fc2c083e34a7ba2894b,606a0f38a5fd39d4018ecee0,2021-04-04_15h11.52.249,Colour_Similarity_Experiment,2020.2.10,Win32,60,60675255c767bca6388caeee,316.7752003,17.06000763,16.71736919,16.69777184,16.73042827,16.73042827,,,,,,,,,,,,,,,,,,,,PF,3,weak,,,,,,,,5,1.786255,,,,,,,,,,,,,,,,,,,,,,,,,,,4,weak,60.80001235,-46.40000713,1,0,0,response3disk,8,163,25.60006065,-4.800006509,1,0,0,rectangle,25.60006065,-4.800006509,1,0,0,7,2,0.001925,25.60006065,-4.800006509,1,0,0,0,0,0,124,1,0,,,,,,,,,,,,,,,,,,,,,
,,,,,,,,,,,,,,,,,,,,,,,,,,,,,,,,,,,,,,,,,,602c1fc2c083e34a7ba2894b,606a0f38a5fd39d4018ecee0,2021-04-04_15h11.52.249,Colour_Similarity_Experiment,2020.2.10,Win32,60,60675255c767bca6388caeee,316.7752003,17.06000763,16.71736919,16.69777184,16.73042827,16.73042827,,,,,,,,,,,,,,,,,,,,PF,3,strong,,,,,,,,7,8.086085,,,,,,,,,,,,,,,,,,,,,,,,,,,1,strong,37.60006083,61.59999448,1,0,0,response1disk,3,164,6.400011539,2.399993598,1,0,0,rectangle,6.400011539,2.399993598,1,0,0,7,4,0.003045,6.400011539,2.399993598,1,0,0,0,1,1,99,1,0,,,,,,,,,,,,,,,,,,,,,
,,,,,,,,,,,,,,,,,,,,,,,,,,,,,,,,,,,,,,,,,,602c1fc2c083e34a7ba2894b,606a0f38a5fd39d4018ecee0,2021-04-04_15h11.52.249,Colour_Similarity_Experiment,2020.2.10,Win32,60,60675255c767bca6388caeee,316.7752003,17.06000763,16.71736919,16.69777184,16.73042827,16.73042827,,,,,,,,,,,,,,,,,,,,PF,3,strong,,,,,,,,7,1.03402,,,,,,,,,,,,,,,,,,,,,,,,,,,2,strong,44.80001211,79.19997033,1,0,0,response1disk,2,165,8.000011563,14.39999378,1,0,0,rectangle,8.000011563,14.39999378,1,0,0,7,0,0.000635,8.000011563,14.39999378,1,0,0,0,2,2,142,1,0,,,,,,,,,,,,,,,,,,,,,
,,,,,,,,,,,,,,,,,,,,,,,,,,,,,,,,,,,,,,,,,,602c1fc2c083e34a7ba2894b,606a0f38a5fd39d4018ecee0,2021-04-04_15h11.52.249,Colour_Similarity_Experiment,2020.2.10,Win32,60,60675255c767bca6388caeee,316.7752003,17.06000763,16.71736919,16.69777184,16.73042827,16.73042827,,,,,,,,,,,,,,,,,,,,PF,3,strong,,,,,,,,7,2.33538,,,,,,,,,,,,,,,,,,,,,,,,,,,7,strong,29.60006071,58.39999443,1,0,0,response1disk,3,166,4.000011504,4.799993634,1,0,0,rectangle,4.000011504,4.799993634,1,0,0,7,5,0.00174,4.000011504,4.799993634,1,0,0,0,3,3,73,1,0,,,,,,,,,,,,,,,,,,,,,
,,,,,,,,,,,,,,,,,,,,,,,,,,,,,,,,,,,,,,,,,,602c1fc2c083e34a7ba2894b,606a0f38a5fd39d4018ecee0,2021-04-04_15h11.52.249,Colour_Similarity_Experiment,2020.2.10,Win32,60,60675255c767bca6388caeee,316.7752003,17.06000763,16.71736919,16.69777184,16.73042827,16.73042827,,,,,,,,,,,,,,,,,,,,PF,3,weak,,,,,,,,6,3.08588,,,,,,,,,,,,,,,,,,,,,,,,,,,8,weak,104.800013,40.79999417,1,0,0,response1disk,6,167,-4.799988627,-5.600006521,1,0,0,rectangle,28.80001187,74.39999467,1,0,0,7,7,2.199895,3.200011492,15.9999938,1,0,0,0,4,4,161,1,1,response1disk_3,rectangle,,,,,,,,,,,,,,,,,,,
