key_resp.keys,key_resp.rt,key_resp_16.keys,key_resp_16.rt,key_resp_2.keys,key_resp_2.rt,X Scale,ratio_pxpermm,screen_size_x,screen_size_y,testsize,key_resp_3.keys,key_resp_4.keys,key_resp_4.rt,line_size,key_resp_5.keys,key_resp_5.rt,key_resp_6.keys,key_resp_6.rt,key_resp_8.keys,key_resp_8.rt,key_resp_7.keys,key_resp_7.rt,key_resp_12.keys,key_resp_12.rt,key_resp_11.keys,key_resp_11.rt,key_resp_18.keys,key_resp_18.rt,key_resp_21.keys,key_resp_21.rt,key_resp_13.keys,key_resp_13.rt,key_resp_19.keys,key_resp_19.rt,ballposx,viewer_distance,trials.thisRepN,trials.thisTrialN,trials.thisN,trials.thisIndex,trials.ran,participant,session,date,expName,psychopyVersion,OS,frameRate,study_id,realFrameRate1,realFrameRate2,realFrameRate3,realFrameRate4,realFrameRate5,realFrameRate,viewerdistancecm,DVA_to_distance,radius_F,radius_P,r_F,R_P,key_resp_20.keys,key_resp_20.rt,key_resp_14.keys,key_resp_14.rt,key_resp_15.keys,key_resp_15.rt,key_resp_17.keys,key_resp_17.rt,key_resp_9.keys,key_resp_9.rt,key_resp_10.keys,key_resp_10.rt,Colour_1,Ecc,maskCon,mask_frames,mouse_5.x,mouse_5.y,mouse_5.leftButton,mouse_5.midButton,mouse_5.rightButton,mouse_5.clicked_name,Colour_2,similarity,response_time,mouse_10.x,mouse_10.y,mouse_10.leftButton,mouse_10.midButton,mouse_10.rightButton,mouse_10.clicked_name,mouse_7.x,mouse_7.y,mouse_7.leftButton,mouse_7.midButton,mouse_7.rightButton,catchnumberprac,mouse_6.x,mouse_6.y,mouse_6.leftButton,mouse_6.midButton,mouse_6.rightButton,duringprac.thisRepN,duringprac.thisTrialN,duringprac.thisN,duringprac.thisIndex,duringprac.ran,mouse_7.clicked_name,catchprac,mouse_6.clicked_name,key_resp_22.keys,key_resp_22.rt,Colour1,maskCon1,mouse.x,mouse.y,mouse.leftButton,mouse.midButton,mouse.rightButton,mouse.clicked_name,Colour2,trialnumber,mouse_2.x,mouse_2.y,mouse_2.leftButton,mouse_2.midButton,mouse_2.rightButton,mouse_2.clicked_name,mouse_3.x,mouse_3.y,mouse_3.leftButton,mouse_3.midButton,mouse_3.rightButton,catchresponse,catchnumber,response_time_catch,mouse_11.x,mouse_11.y,mouse_11.leftButton,mouse_11.midButton,mouse_11.rightButton,trials_2.thisRepN,trials_2.thisTrialN,trials_2.thisN,trials_2.thisIndex,trials_2.ran,Catch,mouse_3.clicked_name,mouse_11.clicked_name,trials_3.thisRepN,trials_3.thisTrialN,trials_3.thisN,trials_3.thisIndex,trials_3.ran,answer1,rt1,answer2,rt2,answer3,rt3,answer4,rt4,answer5,rt5,answer6,rt6,answer7,rt7
space,1.609,space,110.186,space,3.155,60,6,320,180,1920,,space,6.056,120,space,6.623,space,0.925,space,0.876,space,1.334,space,3.398,space,4.951,space,5.397,space,5.365,space,6.332,return,2.909,-489.6,873.0471558,0,0,0,0,1,5b1123b61e55760001b9cfd9,606cad273e67cbf8a9940177,2021-04-06_20h49.28.271,Colour_Similarity_Experiment,2020.2.10,Win32,60,6067542a4a25243f4d7d4fcf,8.15990991,6.969769795,6.968960864,6.975862069,6.968523002,6.969769795,,,,,,,,,,,,,,,,,,,,,,,,,,,,,,,,,,,,,,,,,,,,,,,,,,,,,,,,,,,,,,,,,,,,,,,,,,,,,,,,,,,,,,,,,,,,,,,,,,,,,,,,,,,,,,,,,,
,,,,,,,,,,,,,,,,,,,,,,,,,,,,,,,,,return,2.767,-429.12,831.0609186,1,0,1,0,1,5b1123b61e55760001b9cfd9,606cad273e67cbf8a9940177,2021-04-06_20h49.28.271,Colour_Similarity_Experiment,2020.2.10,Win32,60,6067542a4a25243f4d7d4fcf,8.15990991,6.969769795,6.968960864,6.975862069,6.968523002,6.969769795,,,,,,,,,,,,,,,,,,,,,,,,,,,,,,,,,,,,,,,,,,,,,,,,,,,,,,,,,,,,,,,,,,,,,,,,,,,,,,,,,,,,,,,,,,,,,,,,,,,,,,,,,,,,,,,,,,
,,,,,,,,,,,,,,,,,,,,,,,,,,,,,,,,,return,1.934,-80.64,589.1402181,2,0,2,0,1,5b1123b61e55760001b9cfd9,606cad273e67cbf8a9940177,2021-04-06_20h49.28.271,Colour_Similarity_Experiment,2020.2.10,Win32,60,6067542a4a25243f4d7d4fcf,8.15990991,6.969769795,6.968960864,6.975862069,6.968523002,6.969769795,,,,,,,,,,,,,,,,,,,,,,,,,,,,,,,,,,,,,,,,,,,,,,,,,,,,,,,,,,,,,,,,,,,,,,,,,,,,,,,,,,,,,,,,,,,,,,,,,,,,,,,,,,,,,,,,,,
,,,,,,,,,,,,,,,,,,,,,,,,,,,,,,,,,return,1.74,-2.88,535.1579131,3,0,3,0,1,5b1123b61e55760001b9cfd9,606cad273e67cbf8a9940177,2021-04-06_20h49.28.271,Colour_Similarity_Experiment,2020.2.10,Win32,60,6067542a4a25243f4d7d4fcf,8.15990991,6.969769795,6.968960864,6.975862069,6.968523002,6.969769795,,,,,,,,,,,,,,,,,,,,,,,,,,,,,,,,,,,,,,,,,,,,,,,,,,,,,,,,,,,,,,,,,,,,,,,,,,,,,,,,,,,,,,,,,,,,,,,,,,,,,,,,,,,,,,,,,,
,,,,,,,,,,,,,,,,,,,,,,,,,,,,,,,,,return,1.542,77.76,479.1762634,4,0,4,0,1,5b1123b61e55760001b9cfd9,606cad273e67cbf8a9940177,2021-04-06_20h49.28.271,Colour_Similarity_Experiment,2020.2.10,Win32,60,6067542a4a25243f4d7d4fcf,8.15990991,6.969769795,6.968960864,6.975862069,6.968523002,6.969769795,,,,,,,,,,,,,,,,,,,,,,,,,,,,,,,,,,,,,,,,,,,,,,,,,,,,,,,,,,,,,,,,,,,,,,,,,,,,,,,,,,,,,,,,,,,,,,,,,,,,,,,,,,,,,,,,,,
,,,,,,,,,,,,,,,,,,,,,,,,,,,,,,,,,,,,,,,,,,5b1123b61e55760001b9cfd9,606cad273e67cbf8a9940177,2021-04-06_20h49.28.271,Colour_Similarity_Experiment,2020.2.10,Win32,60,6067542a4a25243f4d7d4fcf,8.15990991,6.969769795,6.968960864,6.975862069,6.968523002,6.969769795,59,10.29848462,92.68636162,617.9090775,61.79090775,278.0590849,space,3.564,space,4.678,space,64.271,space,4.016,space,1.295,space,2.429,3,PF,strong,7,-64,119,1,0,0,response7disk_5,8,0,4.546,17,1,1,0,0,rectangle_8,17,1,1,0,0,3,17,1,1,0,0,0,0,0,2,1,,,,,,,,,,,,,,,,,,,,,,,,,,,,,,,,,,,,,,,,,,,,,,,,,,,,,,,,,,,,,
,,,,,,,,,,,,,,,,,,,,,,,,,,,,,,,,,,,,,,,,,,5b1123b61e55760001b9cfd9,606cad273e67cbf8a9940177,2021-04-06_20h49.28.271,Colour_Similarity_Experiment,2020.2.10,Win32,60,6067542a4a25243f4d7d4fcf,8.15990991,6.969769795,6.968960864,6.975862069,6.968523002,6.969769795,,,,,,,,,,,,,,,,,,,3,PF,weak,7,79,144,1,0,0,response1disk_5,8,7,4.505,8,11,1,0,0,rectangle_8,-52,-95,1,0,0,3,-24,5,1,0,0,0,1,1,5,1,response5disk_7,3,rectangle_4,,,,,,,,,,,,,,,,,,,,,,,,,,,,,,,,,,,,,,,,,,,,,,,,,,,,,,,,,,
,,,,,,,,,,,,,,,,,,,,,,,,,,,,,,,,,,,,,,,,,,5b1123b61e55760001b9cfd9,606cad273e67cbf8a9940177,2021-04-06_20h49.28.271,Colour_Similarity_Experiment,2020.2.10,Win32,60,6067542a4a25243f4d7d4fcf,8.15990991,6.969769795,6.968960864,6.975862069,6.968523002,6.969769795,,,,,,,,,,,,,,,,,,,6,PF,weak,7,63,119,1,0,0,response1disk_5,1,7,2.537,-8,11,1,0,0,rectangle_8,-8,11,1,0,0,3,-8,11,1,0,0,0,2,2,4,1,,,,,,,,,,,,,,,,,,,,,,,,,,,,,,,,,,,,,,,,,,,,,,,,,,,,,,,,,,,,,
,,,,,,,,,,,,,,,,,,,,,,,,,,,,,,,,,,,,,,,,,,5b1123b61e55760001b9cfd9,606cad273e67cbf8a9940177,2021-04-06_20h49.28.271,Colour_Similarity_Experiment,2020.2.10,Win32,60,6067542a4a25243f4d7d4fcf,8.15990991,6.969769795,6.968960864,6.975862069,6.968523002,6.969769795,,,,,,,,,,,,,,,,,,,1,PF,strong,7,65,114,1,0,0,response1disk_5,6,7,2.134,20,5,1,0,0,rectangle_8,-55,-85,1,0,0,3,-27,0,1,0,0,0,3,3,0,1,response5disk_7,3,rectangle_4,,,,,,,,,,,,,,,,,,,,,,,,,,,,,,,,,,,,,,,,,,,,,,,,,,,,,,,,,,
,,,,,,,,,,,,,,,,,,,,,,,,,,,,,,,,,,,,,,,,,,5b1123b61e55760001b9cfd9,606cad273e67cbf8a9940177,2021-04-06_20h49.28.271,Colour_Similarity_Experiment,2020.2.10,Win32,60,6067542a4a25243f4d7d4fcf,8.15990991,6.969769795,6.968960864,6.975862069,6.968523002,6.969769795,,,,,,,,,,,,,,,,,,,8,PF,weak,7,35,-114,1,0,0,response3disk_5,4,4,3.858,-23,9,1,0,0,rectangle_8,-23,9,1,0,0,3,-23,9,1,0,0,0,4,4,1,1,,,,,,,,,,,,,,,,,,,,,,,,,,,,,,,,,,,,,,,,,,,,,,,,,,,,,,,,,,,,,
,,,,,,,,,,,,,,,,,,,,,,,,,,,,,,,,,,,,,,,,,,5b1123b61e55760001b9cfd9,606cad273e67cbf8a9940177,2021-04-06_20h49.28.271,Colour_Similarity_Experiment,2020.2.10,Win32,60,6067542a4a25243f4d7d4fcf,8.15990991,6.969769795,6.968960864,6.975862069,6.968523002,6.969769795,,,,,,,,,,,,,,,,,,,7,PF,strong,7,-80,64,1,0,0,response7disk_5,5,1,3.051,-22,11,1,0,0,rectangle_8,-22,11,1,0,0,3,-22,11,1,0,0,0,5,5,3,1,,,,,,,,,,,,,,,,,,,,,,,,,,,,,,,,,,,,,,,,,,,,,,,,,,,,,,,,,,,,,
,,,,,,,,,,,,,,,,,,,,,,,,,,,,,,,,,,,,,,,,,,5b1123b61e55760001b9cfd9,606cad273e67cbf8a9940177,2021-04-06_20h49.28.271,Colour_Similarity_Experiment,2020.2.10,Win32,60,6067542a4a25243f4d7d4fcf,8.15990991,6.969769795,6.968960864,6.975862069,6.968523002,6.969769795,,,,,,,,,,,,,,,,,,,7,PF,weak,7,-58,-103,1,0,0,response5disk_5,8,3,3.288,-33,5,1,0,0,rectangle_8,-33,5,1,0,0,3,-33,5,1,0,0,0,6,6,6,1,,,,,,,,,,,,,,,,,,,,,,,,,,,,,,,,,,,,,,,,,,,,,,,,,,,,,,,,,,,,,
,,,,,,,,,,,,,,,,,,,,,,,,,,,,,,,,,,,,,,,,,,5b1123b61e55760001b9cfd9,606cad273e67cbf8a9940177,2021-04-06_20h49.28.271,Colour_Similarity_Experiment,2020.2.10,Win32,60,6067542a4a25243f4d7d4fcf,8.15990991,6.969769795,6.968960864,6.975862069,6.968523002,6.969769795,,,,,,,,,,,,,,,,,,,,PF,weak,7,,,,,,,,4,2.829,,,,,,,,,,,,,,,,,,,,,,,,,,space,1.49,3,weak,38,-131,1,0,0,response3disk,7,1,-4,-19,1,0,0,rectangle,-4,-19,1,0,0,,1,0,-4,-19,1,0,0,0,0,0,41,1,0,,,,,,,,,,,,,,,,,,,,,
,,,,,,,,,,,,,,,,,,,,,,,,,,,,,,,,,,,,,,,,,,5b1123b61e55760001b9cfd9,606cad273e67cbf8a9940177,2021-04-06_20h49.28.271,Colour_Similarity_Experiment,2020.2.10,Win32,60,6067542a4a25243f4d7d4fcf,8.15990991,6.969769795,6.968960864,6.975862069,6.968523002,6.969769795,,,,,,,,,,,,,,,,,,,,PF,strong,7,,,,,,,,7,2.628,,,,,,,,,,,,,,,,,,,,,,,,,,,,1,strong,65,93,1,0,0,response1disk,3,2,1,8,1,0,0,rectangle,1,8,1,0,0,,6,0.001,1,8,1,0,0,0,1,1,99,1,0,,,,,,,,,,,,,,,,,,,,,
,,,,,,,,,,,,,,,,,,,,,,,,,,,,,,,,,,,,,,,,,,5b1123b61e55760001b9cfd9,606cad273e67cbf8a9940177,2021-04-06_20h49.28.271,Colour_Similarity_Experiment,2020.2.10,Win32,60,6067542a4a25243f4d7d4fcf,8.15990991,6.969769795,6.968960864,6.975862069,6.968523002,6.969769795,,,,,,,,,,,,,,,,,,,,PF,strong,7,,,,,,,,5,2.323,,,,,,,,,,,,,,,,,,,,,,,,,,,,4,strong,123,-69,1,0,0,response3disk,8,3,8,6,1,0,0,rectangle,8,6,1,0,0,,4,0.001,8,6,1,0,0,0,2,2,35,1,0,,,,,,,,,,,,,,,,,,,,,
,,,,,,,,,,,,,,,,,,,,,,,,,,,,,,,,,,,,,,,,,,5b1123b61e55760001b9cfd9,606cad273e67cbf8a9940177,2021-04-06_20h49.28.271,Colour_Similarity_Experiment,2020.2.10,Win32,60,6067542a4a25243f4d7d4fcf,8.15990991,6.969769795,6.968960864,6.975862069,6.968523002,6.969769795,,,,,,,,,,,,,,,,,,,,PF,weak,7,,,,,,,,0,1.339,,,,,,,,,,,,,,,,,,,,,,,,,,,,8,weak,-64,109,1,0,0,response7disk,8,4,4,5,1,0,0,rectangle,4,5,1,0,0,,7,0,4,5,1,0,0,0,3,3,153,1,0,,,,,,,,,,,,,,,,,,,,,
,,,,,,,,,,,,,,,,,,,,,,,,,,,,,,,,,,,,,,,,,,5b1123b61e55760001b9cfd9,606cad273e67cbf8a9940177,2021-04-06_20h49.28.271,Colour_Similarity_Experiment,2020.2.10,Win32,60,6067542a4a25243f4d7d4fcf,8.15990991,6.969769795,6.968960864,6.975862069,6.968523002,6.969769795,,,,,,,,,,,,,,,,,,,,PF,strong,7,,,,,,,,0,1.112,,,,,,,,,,,,,,,,,,,,,,,,,,,,9,strong,-61,117,1,0,0,response7disk,8,5,20,-6,1,0,0,rectangle,20,-6,1,0,0,,0,0,20,-6,1,0,0,0,4,4,6,1,0,,,,,,,,,,,,,,,,,,,,,
,,,,,,,,,,,,,,,,,,,,,,,,,,,,,,,,,,,,,,,,,,5b1123b61e55760001b9cfd9,606cad273e67cbf8a9940177,2021-04-06_20h49.28.271,Colour_Similarity_Experiment,2020.2.10,Win32,60,6067542a4a25243f4d7d4fcf,8.15990991,6.969769795,6.968960864,6.975862069,6.968523002,6.969769795,,,,,,,,,,,,,,,,,,,,PF,strong,7,,,,,,,,3,2.788,,,,,,,,,,,,,,,,,,,,,,,,,,,,3,strong,-61,-112,1,0,0,response5disk,9,6,-15,-4,1,0,0,rectangle,-15,-4,1,0,0,,1,0.001,-15,-4,1,0,0,0,5,5,143,1,0,,,,,,,,,,,,,,,,,,,,,
,,,,,,,,,,,,,,,,,,,,,,,,,,,,,,,,,,,,,,,,,,5b1123b61e55760001b9cfd9,606cad273e67cbf8a9940177,2021-04-06_20h49.28.271,Colour_Similarity_Experiment,2020.2.10,Win32,60,6067542a4a25243f4d7d4fcf,8.15990991,6.969769795,6.968960864,6.975862069,6.968523002,6.969769795,,,,,,,,,,,,,,,,,,,,PF,strong,7,,,,,,,,4,3.024,,,,,,,,,,,,,,,,,,,,,,,,,,,,2,strong,55,-116,1,0,0,response3disk,2,7,11,3,1,0,0,rectangle,11,3,1,0,0,,1,0,11,3,1,0,0,0,6,6,142,1,0,,,,,,,,,,,,,,,,,,,,,
,,,,,,,,,,,,,,,,,,,,,,,,,,,,,,,,,,,,,,,,,,5b1123b61e55760001b9cfd9,606cad273e67cbf8a9940177,2021-04-06_20h49.28.271,Colour_Similarity_Experiment,2020.2.10,Win32,60,6067542a4a25243f4d7d4fcf,8.15990991,6.969769795,6.968960864,6.975862069,6.968523002,6.969769795,,,,,,,,,,,,,,,,,,,,PF,weak,7,,,,,,,,4,1.905,,,,,,,,,,,,,,,,,,,,,,,,,,,,6,weak,71,-123,1,0,0,response3disk,3,8,-32,2,1,0,0,rectangle,-32,2,1,0,0,,1,0.001,-32,2,1,0,0,0,7,7,26,1,0,,,,,,,,,,,,,,,,,,,,,
,,,,,,,,,,,,,,,,,,,,,,,,,,,,,,,,,,,,,,,,,,5b1123b61e55760001b9cfd9,606cad273e67cbf8a9940177,2021-04-06_20h49.28.271,Colour_Similarity_Experiment,2020.2.10,Win32,60,6067542a4a25243f4d7d4fcf,8.15990991,6.969769795,6.968960864,6.975862069,6.968523002,6.969769795,,,,,,,,,,,,,,,,,,,,PF,strong,7,,,,,,,,1,1.355,,,,,,,,,,,,,,,,,,,,,,,,,,,,3,strong,-103,48,1,0,0,response7disk,4,9,16,-3,1,0,0,rectangle,16,-3,1,0,0,,0,0,16,-3,1,0,0,0,8,8,110,1,0,,,,,,,,,,,,,,,,,,,,,
,,,,,,,,,,,,,,,,,,,,,,,,,,,,,,,,,,,,,,,,,,5b1123b61e55760001b9cfd9,606cad273e67cbf8a9940177,2021-04-06_20h49.28.271,Colour_Similarity_Experiment,2020.2.10,Win32,60,6067542a4a25243f4d7d4fcf,8.15990991,6.969769795,6.968960864,6.975862069,6.968523002,6.969769795,,,,,,,,,,,,,,,,,,,,PF,strong,7,,,,,,,,3,2.113,,,,,,,,,,,,,,,,,,,,,,,,,,,,9,strong,-55,-109,1,0,0,response5disk,7,10,-12,-13,1,0,0,rectangle,-12,-13,1,0,0,,2,0,-12,-13,1,0,0,0,9,9,100,1,0,,,,,,,,,,,,,,,,,,,,,
,,,,,,,,,,,,,,,,,,,,,,,,,,,,,,,,,,,,,,,,,,5b1123b61e55760001b9cfd9,606cad273e67cbf8a9940177,2021-04-06_20h49.28.271,Colour_Similarity_Experiment,2020.2.10,Win32,60,6067542a4a25243f4d7d4fcf,8.15990991,6.969769795,6.968960864,6.975862069,6.968523002,6.969769795,,,,,,,,,,,,,,,,,,,,PF,strong,7,,,,,,,,7,1.933,,,,,,,,,,,,,,,,,,,,,,,,,,,,6,strong,45,146,1,0,0,response1disk,1,11,-8,14,1,0,0,rectangle,-8,14,1,0,0,,3,0,-8,14,1,0,0,0,10,10,5,1,0,,,,,,,,,,,,,,,,,,,,,
,,,,,,,,,,,,,,,,,,,,,,,,,,,,,,,,,,,,,,,,,,5b1123b61e55760001b9cfd9,606cad273e67cbf8a9940177,2021-04-06_20h49.28.271,Colour_Similarity_Experiment,2020.2.10,Win32,60,6067542a4a25243f4d7d4fcf,8.15990991,6.969769795,6.968960864,6.975862069,6.968523002,6.969769795,,,,,,,,,,,,,,,,,,,,PF,strong,7,,,,,,,,2,2.433,,,,,,,,,,,,,,,,,,,,,,,,,,,,8,strong,-92,-49,1,0,0,response5disk,5,12,32,8,1,0,0,rectangle,32,8,1,0,0,,1,0,32,8,1,0,0,0,11,11,152,1,0,,,,,,,,,,,,,,,,,,,,,
,,,,,,,,,,,,,,,,,,,,,,,,,,,,,,,,,,,,,,,,,,5b1123b61e55760001b9cfd9,606cad273e67cbf8a9940177,2021-04-06_20h49.28.271,Colour_Similarity_Experiment,2020.2.10,Win32,60,6067542a4a25243f4d7d4fcf,8.15990991,6.969769795,6.968960864,6.975862069,6.968523002,6.969769795,,,,,,,,,,,,,,,,,,,,PF,weak,7,,,,,,,,7,1.62,,,,,,,,,,,,,,,,,,,,,,,,,,,,3,weak,51,119,1,0,0,response1disk,6,13,16,13,1,0,0,rectangle,16,13,1,0,0,,7,0.001,16,13,1,0,0,0,12,12,47,1,0,,,,,,,,,,,,,,,,,,,,,
,,,,,,,,,,,,,,,,,,,,,,,,,,,,,,,,,,,,,,,,,,5b1123b61e55760001b9cfd9,606cad273e67cbf8a9940177,2021-04-06_20h49.28.271,Colour_Similarity_Experiment,2020.2.10,Win32,60,6067542a4a25243f4d7d4fcf,8.15990991,6.969769795,6.968960864,6.975862069,6.968523002,6.969769795,,,,,,,,,,,,,,,,,,,,PF,strong,7,,,,,,,,3,2.988,,,,,,,,,,,,,,,,,,,,,,,,,,,,8,strong,-52,-101,1,0,0,response5disk,8,14,-3,3,1,0,0,rectangle,-3,3,1,0,0,,6,0.001,-3,3,1,0,0,0,13,13,48,1,0,,,,,,,,,,,,,,,,,,,,,
,,,,,,,,,,,,,,,,,,,,,,,,,,,,,,,,,,,,,,,,,,5b1123b61e55760001b9cfd9,606cad273e67cbf8a9940177,2021-04-06_20h49.28.271,Colour_Similarity_Experiment,2020.2.10,Win32,60,6067542a4a25243f4d7d4fcf,8.15990991,6.969769795,6.968960864,6.975862069,6.968523002,6.969769795,,,,,,,,,,,,,,,,,,,,PF,weak,7,,,,,,,,4,1.799,,,,,,,,,,,,,,,,,,,,,,,,,,,,3,weak,42,-118,1,0,0,response3disk,9,15,8,2,1,0,0,rectangle,8,2,1,0,0,,2,0,8,2,1,0,0,0,14,14,79,1,0,,,,,,,,,,,,,,,,,,,,,
,,,,,,,,,,,,,,,,,,,,,,,,,,,,,,,,,,,,,,,,,,5b1123b61e55760001b9cfd9,606cad273e67cbf8a9940177,2021-04-06_20h49.28.271,Colour_Similarity_Experiment,2020.2.10,Win32,60,6067542a4a25243f4d7d4fcf,8.15990991,6.969769795,6.968960864,6.975862069,6.968523002,6.969769795,,,,,,,,,,,,,,,,,,,,PF,strong,7,,,,,,,,4,1.835,,,,,,,,,,,,,,,,,,,,,,,,,,,,7,strong,32,-126,1,0,0,response3disk,3,16,-11,8,1,0,0,rectangle,-11,8,1,0,0,,1,0,-11,8,1,0,0,0,15,15,73,1,0,,,,,,,,,,,,,,,,,,,,,
,,,,,,,,,,,,,,,,,,,,,,,,,,,,,,,,,,,,,,,,,,5b1123b61e55760001b9cfd9,606cad273e67cbf8a9940177,2021-04-06_20h49.28.271,Colour_Similarity_Experiment,2020.2.10,Win32,60,6067542a4a25243f4d7d4fcf,8.15990991,6.969769795,6.968960864,6.975862069,6.968523002,6.969769795,,,,,,,,,,,,,,,,,,,,PF,weak,7,,,,,,,,4,1.223,,,,,,,,,,,,,,,,,,,,,,,,,,,,8,weak,38,-109,1,0,0,response3disk,2,17,8,-10,1,0,0,rectangle,8,-10,1,0,0,,0,0.001,8,-10,1,0,0,0,16,16,83,1,0,,,,,,,,,,,,,,,,,,,,,
,,,,,,,,,,,,,,,,,,,,,,,,,,,,,,,,,,,,,,,,,,5b1123b61e55760001b9cfd9,606cad273e67cbf8a9940177,2021-04-06_20h49.28.271,Colour_Similarity_Experiment,2020.2.10,Win32,60,6067542a4a25243f4d7d4fcf,8.15990991,6.969769795,6.968960864,6.975862069,6.968523002,6.969769795,,,,,,,,,,,,,,,,,,,,PF,weak,7,,,,,,,,7,1.592,,,,,,,,,,,,,,,,,,,,,,,,,,,,7,weak,89,138,1,0,0,response1disk,4,18,5,-6,1,0,0,rectangle,5,-6,1,0,0,,5,0.001,5,-6,1,0,0,0,17,17,43,1,0,,,,,,,,,,,,,,,,,,,,,
,,,,,,,,,,,,,,,,,,,,,,,,,,,,,,,,,,,,,,,,,,5b1123b61e55760001b9cfd9,606cad273e67cbf8a9940177,2021-04-06_20h49.28.271,Colour_Similarity_Experiment,2020.2.10,Win32,60,6067542a4a25243f4d7d4fcf,8.15990991,6.969769795,6.968960864,6.975862069,6.968523002,6.969769795,,,,,,,,,,,,,,,,,,,,PF,weak,7,,,,,,,,2,1.988,,,,,,,,,,,,,,,,,,,,,,,,,,,,7,weak,-91,-49,1,0,0,response5disk,8,19,15,8,1,0,0,rectangle,15,8,1,0,0,,0,0.001,15,8,1,0,0,0,18,18,140,1,0,,,,,,,,,,,,,,,,,,,,,
,,,,,,,,,,,,,,,,,,,,,,,,,,,,,,,,,,,,,,,,,,5b1123b61e55760001b9cfd9,606cad273e67cbf8a9940177,2021-04-06_20h49.28.271,Colour_Similarity_Experiment,2020.2.10,Win32,60,6067542a4a25243f4d7d4fcf,8.15990991,6.969769795,6.968960864,6.975862069,6.968523002,6.969769795,,,,,,,,,,,,,,,,,,,,PF,weak,7,,,,,,,,7,1.911,,,,,,,,,,,,,,,,,,,,,,,,,,,,9,weak,40,87,1,0,0,response1disk,7,20,2,2,1,0,0,rectangle,2,2,1,0,0,,0,0,2,2,1,0,0,0,19,19,121,1,0,,,,,,,,,,,,,,,,,,,,,
,,,,,,,,,,,,,,,,,,,,,,,,,,,,,,,,,,,,,,,,,,5b1123b61e55760001b9cfd9,606cad273e67cbf8a9940177,2021-04-06_20h49.28.271,Colour_Similarity_Experiment,2020.2.10,Win32,60,6067542a4a25243f4d7d4fcf,8.15990991,6.969769795,6.968960864,6.975862069,6.968523002,6.969769795,,,,,,,,,,,,,,,,,,,,PF,weak,7,,,,,,,,7,1.627,,,,,,,,,,,,,,,,,,,,,,,,,,,,4,weak,57,131,1,0,0,response1disk,2,21,-26,-20,1,0,0,rectangle,-26,-20,1,0,0,,1,0.001,-26,-20,1,0,0,0,20,20,108,1,0,,,,,,,,,,,,,,,,,,,,,
,,,,,,,,,,,,,,,,,,,,,,,,,,,,,,,,,,,,,,,,,,5b1123b61e55760001b9cfd9,606cad273e67cbf8a9940177,2021-04-06_20h49.28.271,Colour_Similarity_Experiment,2020.2.10,Win32,60,6067542a4a25243f4d7d4fcf,8.15990991,6.969769795,6.968960864,6.975862069,6.968523002,6.969769795,,,,,,,,,,,,,,,,,,,,PF,weak,7,,,,,,,,3,1.716,,,,,,,,,,,,,,,,,,,,,,,,,,,,1,weak,-43,-106,1,0,0,response5disk,2,22,-15,-1,1,0,0,rectangle,-15,-1,1,0,0,,1,0,-15,-1,1,0,0,0,21,21,24,1,0,,,,,,,,,,,,,,,,,,,,,
,,,,,,,,,,,,,,,,,,,,,,,,,,,,,,,,,,,,,,,,,,5b1123b61e55760001b9cfd9,606cad273e67cbf8a9940177,2021-04-06_20h49.28.271,Colour_Similarity_Experiment,2020.2.10,Win32,60,6067542a4a25243f4d7d4fcf,8.15990991,6.969769795,6.968960864,6.975862069,6.968523002,6.969769795,,,,,,,,,,,,,,,,,,,,PF,weak,7,,,,,,,,7,1.398,,,,,,,,,,,,,,,,,,,,,,,,,,,,6,weak,88,116,1,0,0,response1disk,9,23,11,-7,1,0,0,rectangle,11,-7,1,0,0,,2,0,11,-7,1,0,0,0,22,22,45,1,0,,,,,,,,,,,,,,,,,,,,,
,,,,,,,,,,,,,,,,,,,,,,,,,,,,,,,,,,,,,,,,,,5b1123b61e55760001b9cfd9,606cad273e67cbf8a9940177,2021-04-06_20h49.28.271,Colour_Similarity_Experiment,2020.2.10,Win32,60,6067542a4a25243f4d7d4fcf,8.15990991,6.969769795,6.968960864,6.975862069,6.968523002,6.969769795,,,,,,,,,,,,,,,,,,,,PF,strong,7,,,,,,,,7,1.278,,,,,,,,,,,,,,,,,,,,,,,,,,,,6,strong,58,92,1,0,0,response1disk,3,24,-12,-12,1,0,0,rectangle,-12,-12,1,0,0,,6,0,-12,-12,1,0,0,0,23,23,21,1,0,,,,,,,,,,,,,,,,,,,,,
,,,,,,,,,,,,,,,,,,,,,,,,,,,,,,,,,,,,,,,,,,5b1123b61e55760001b9cfd9,606cad273e67cbf8a9940177,2021-04-06_20h49.28.271,Colour_Similarity_Experiment,2020.2.10,Win32,60,6067542a4a25243f4d7d4fcf,8.15990991,6.969769795,6.968960864,6.975862069,6.968523002,6.969769795,,,,,,,,,,,,,,,,,,,,PF,weak,7,,,,,,,,7,0.931,,,,,,,,,,,,,,,,,,,,,,,,,,,,4,weak,35,77,1,0,0,response1disk,1,25,-10,-12,1,0,0,rectangle,-10,-12,1,0,0,,4,0.001,-10,-12,1,0,0,0,24,24,115,1,0,,,,,,,,,,,,,,,,,,,,,
,,,,,,,,,,,,,,,,,,,,,,,,,,,,,,,,,,,,,,,,,,5b1123b61e55760001b9cfd9,606cad273e67cbf8a9940177,2021-04-06_20h49.28.271,Colour_Similarity_Experiment,2020.2.10,Win32,60,6067542a4a25243f4d7d4fcf,8.15990991,6.969769795,6.968960864,6.975862069,6.968523002,6.969769795,,,,,,,,,,,,,,,,,,,,PF,weak,7,,,,,,,,2,1.168,,,,,,,,,,,,,,,,,,,,,,,,,,,,8,weak,-80,-45,1,0,0,response5disk,7,26,24,15,1,0,0,rectangle,24,15,1,0,0,,7,0,24,15,1,0,0,0,25,25,23,1,0,,,,,,,,,,,,,,,,,,,,,
,,,,,,,,,,,,,,,,,,,,,,,,,,,,,,,,,,,,,,,,,,5b1123b61e55760001b9cfd9,606cad273e67cbf8a9940177,2021-04-06_20h49.28.271,Colour_Similarity_Experiment,2020.2.10,Win32,60,6067542a4a25243f4d7d4fcf,8.15990991,6.969769795,6.968960864,6.975862069,6.968523002,6.969769795,,,,,,,,,,,,,,,,,,,,PF,strong,7,,,,,,,,5,2.4,,,,,,,,,,,,,,,,,,,,,,,,,,,,8,strong,92,-54,1,0,0,response3disk,7,27,-1,3,1,0,0,rectangle,-1,3,1,0,0,,7,0,-1,3,1,0,0,0,26,26,86,1,0,,,,,,,,,,,,,,,,,,,,,
,,,,,,,,,,,,,,,,,,,,,,,,,,,,,,,,,,,,,,,,,,5b1123b61e55760001b9cfd9,606cad273e67cbf8a9940177,2021-04-06_20h49.28.271,Colour_Similarity_Experiment,2020.2.10,Win32,60,6067542a4a25243f4d7d4fcf,8.15990991,6.969769795,6.968960864,6.975862069,6.968523002,6.969769795,,,,,,,,,,,,,,,,,,,,PF,strong,7,,,,,,,,7,2.036,,,,,,,,,,,,,,,,,,,,,,,,,,,,7,strong,50,71,1,0,0,response1disk,1,28,10,1,1,0,0,rectangle,10,1,1,0,0,,7,0.001,10,1,1,0,0,0,27,27,132,1,0,,,,,,,,,,,,,,,,,,,,,
,,,,,,,,,,,,,,,,,,,,,,,,,,,,,,,,,,,,,,,,,,5b1123b61e55760001b9cfd9,606cad273e67cbf8a9940177,2021-04-06_20h49.28.271,Colour_Similarity_Experiment,2020.2.10,Win32,60,6067542a4a25243f4d7d4fcf,8.15990991,6.969769795,6.968960864,6.975862069,6.968523002,6.969769795,,,,,,,,,,,,,,,,,,,,PF,weak,7,,,,,,,,0,1.05,,,,,,,,,,,,,,,,,,,,,,,,,,,,1,weak,-73,125,1,0,0,response7disk,1,29,14,-16,1,0,0,rectangle,-113,-53,1,0,0,,2,2.434,2,0,1,0,0,0,28,28,76,1,1,response5disk_3,rectangle,,,,,,,,,,,,,,,,,,,
,,,,,,,,,,,,,,,,,,,,,,,,,,,,,,,,,,,,,,,,,,5b1123b61e55760001b9cfd9,606cad273e67cbf8a9940177,2021-04-06_20h49.28.271,Colour_Similarity_Experiment,2020.2.10,Win32,60,6067542a4a25243f4d7d4fcf,8.15990991,6.969769795,6.968960864,6.975862069,6.968523002,6.969769795,,,,,,,,,,,,,,,,,,,,PF,weak,7,,,,,,,,0,1.092,,,,,,,,,,,,,,,,,,,,,,,,,,,,3,weak,-47,116,1,0,0,response7disk,3,30,10,-6,1,0,0,rectangle,10,-6,1,0,0,,3,0,10,-6,1,0,0,0,29,29,4,1,0,,,,,,,,,,,,,,,,,,,,,
,,,,,,,,,,,,,,,,,,,,,,,,,,,,,,,,,,,,,,,,,,5b1123b61e55760001b9cfd9,606cad273e67cbf8a9940177,2021-04-06_20h49.28.271,Colour_Similarity_Experiment,2020.2.10,Win32,60,6067542a4a25243f4d7d4fcf,8.15990991,6.969769795,6.968960864,6.975862069,6.968523002,6.969769795,,,,,,,,,,,,,,,,,,,,PF,weak,7,,,,,,,,7,2.162,,,,,,,,,,,,,,,,,,,,,,,,,,,,7,weak,48,134,1,0,0,response1disk,6,31,-16,-9,1,0,0,rectangle,-16,-9,1,0,0,,7,0.001,-16,-9,1,0,0,0,30,30,29,1,0,,,,,,,,,,,,,,,,,,,,,
,,,,,,,,,,,,,,,,,,,,,,,,,,,,,,,,,,,,,,,,,,5b1123b61e55760001b9cfd9,606cad273e67cbf8a9940177,2021-04-06_20h49.28.271,Colour_Similarity_Experiment,2020.2.10,Win32,60,6067542a4a25243f4d7d4fcf,8.15990991,6.969769795,6.968960864,6.975862069,6.968523002,6.969769795,,,,,,,,,,,,,,,,,,,,PF,strong,7,,,,,,,,5,2.149,,,,,,,,,,,,,,,,,,,,,,,,,,,,1,strong,83,-39,1,0,0,response3disk,7,32,-13,6,1,0,0,rectangle,-13,6,1,0,0,,5,0.001,-13,6,1,0,0,0,31,31,137,1,0,,,,,,,,,,,,,,,,,,,,,
,,,,,,,,,,,,,,,,,,,,,,,,,,,,,,,,,,,,,,,,,,5b1123b61e55760001b9cfd9,606cad273e67cbf8a9940177,2021-04-06_20h49.28.271,Colour_Similarity_Experiment,2020.2.10,Win32,60,6067542a4a25243f4d7d4fcf,8.15990991,6.969769795,6.968960864,6.975862069,6.968523002,6.969769795,,,,,,,,,,,,,,,,,,,,PF,strong,7,,,,,,,,7,1.432,,,,,,,,,,,,,,,,,,,,,,,,,,,,1,strong,56,93,1,0,0,response1disk,5,33,1,-8,1,0,0,rectangle,1,-8,1,0,0,,6,0.001,1,-8,1,0,0,0,32,32,82,1,0,,,,,,,,,,,,,,,,,,,,,
,,,,,,,,,,,,,,,,,,,,,,,,,,,,,,,,,,,,,,,,,,5b1123b61e55760001b9cfd9,606cad273e67cbf8a9940177,2021-04-06_20h49.28.271,Colour_Similarity_Experiment,2020.2.10,Win32,60,6067542a4a25243f4d7d4fcf,8.15990991,6.969769795,6.968960864,6.975862069,6.968523002,6.969769795,,,,,,,,,,,,,,,,,,,,PF,strong,7,,,,,,,,7,1.077,,,,,,,,,,,,,,,,,,,,,,,,,,,,7,strong,47,113,1,0,0,response1disk,4,34,-26,-4,1,0,0,rectangle,-26,-4,1,0,0,,4,0.001,-26,-4,1,0,0,0,33,33,158,1,0,,,,,,,,,,,,,,,,,,,,,
,,,,,,,,,,,,,,,,,,,,,,,,,,,,,,,,,,,,,,,,,,5b1123b61e55760001b9cfd9,606cad273e67cbf8a9940177,2021-04-06_20h49.28.271,Colour_Similarity_Experiment,2020.2.10,Win32,60,6067542a4a25243f4d7d4fcf,8.15990991,6.969769795,6.968960864,6.975862069,6.968523002,6.969769795,,,,,,,,,,,,,,,,,,,,PF,weak,7,,,,,,,,4,1.029,,,,,,,,,,,,,,,,,,,,,,,,,,,,5,weak,38,-103,1,0,0,response3disk,8,35,7,-3,1,0,0,rectangle,7,-3,1,0,0,,4,0,7,-3,1,0,0,0,34,34,149,1,0,,,,,,,,,,,,,,,,,,,,,
,,,,,,,,,,,,,,,,,,,,,,,,,,,,,,,,,,,,,,,,,,5b1123b61e55760001b9cfd9,606cad273e67cbf8a9940177,2021-04-06_20h49.28.271,Colour_Similarity_Experiment,2020.2.10,Win32,60,6067542a4a25243f4d7d4fcf,8.15990991,6.969769795,6.968960864,6.975862069,6.968523002,6.969769795,,,,,,,,,,,,,,,,,,,,PF,strong,7,,,,,,,,1,1.348,,,,,,,,,,,,,,,,,,,,,,,,,,,,6,strong,-106,38,1,0,0,response7disk,7,36,8,-7,1,0,0,rectangle,8,-7,1,0,0,,5,0,8,-7,1,0,0,0,35,35,18,1,0,,,,,,,,,,,,,,,,,,,,,
,,,,,,,,,,,,,,,,,,,,,,,,,,,,,,,,,,,,,,,,,,5b1123b61e55760001b9cfd9,606cad273e67cbf8a9940177,2021-04-06_20h49.28.271,Colour_Similarity_Experiment,2020.2.10,Win32,60,6067542a4a25243f4d7d4fcf,8.15990991,6.969769795,6.968960864,6.975862069,6.968523002,6.969769795,,,,,,,,,,,,,,,,,,,,PF,strong,7,,,,,,,,7,1.641,,,,,,,,,,,,,,,,,,,,,,,,,,,,6,strong,35,65,1,0,0,response1disk,8,37,-1,-13,1,0,0,rectangle,-1,-13,1,0,0,,0,0.001,-1,-13,1,0,0,0,36,36,133,1,0,,,,,,,,,,,,,,,,,,,,,
,,,,,,,,,,,,,,,,,,,,,,,,,,,,,,,,,,,,,,,,,,5b1123b61e55760001b9cfd9,606cad273e67cbf8a9940177,2021-04-06_20h49.28.271,Colour_Similarity_Experiment,2020.2.10,Win32,60,6067542a4a25243f4d7d4fcf,8.15990991,6.969769795,6.968960864,6.975862069,6.968523002,6.969769795,,,,,,,,,,,,,,,,,,,,PF,weak,7,,,,,,,,5,1.884,,,,,,,,,,,,,,,,,,,,,,,,,,,,9,weak,96,-51,1,0,0,response3disk,2,38,-13,17,1,0,0,rectangle,-13,17,1,0,0,,1,0.002,-13,17,1,0,0,0,37,37,157,1,0,,,,,,,,,,,,,,,,,,,,,
,,,,,,,,,,,,,,,,,,,,,,,,,,,,,,,,,,,,,,,,,,5b1123b61e55760001b9cfd9,606cad273e67cbf8a9940177,2021-04-06_20h49.28.271,Colour_Similarity_Experiment,2020.2.10,Win32,60,6067542a4a25243f4d7d4fcf,8.15990991,6.969769795,6.968960864,6.975862069,6.968523002,6.969769795,,,,,,,,,,,,,,,,,,,,PF,weak,7,,,,,,,,2,1.445,,,,,,,,,,,,,,,,,,,,,,,,,,,,1,weak,-70,-26,1,0,0,response5disk,9,39,-3,-1,1,0,0,rectangle,-3,-1,1,0,0,,3,0,-3,-1,1,0,0,0,38,38,15,1,0,,,,,,,,,,,,,,,,,,,,,
,,,,,,,,,,,,,,,,,,,,,,,,,,,,,,,,,,,,,,,,,,5b1123b61e55760001b9cfd9,606cad273e67cbf8a9940177,2021-04-06_20h49.28.271,Colour_Similarity_Experiment,2020.2.10,Win32,60,6067542a4a25243f4d7d4fcf,8.15990991,6.969769795,6.968960864,6.975862069,6.968523002,6.969769795,,,,,,,,,,,,,,,,,,,,PF,strong,7,,,,,,,,5,2.739,,,,,,,,,,,,,,,,,,,,,,,,,,,,5,strong,123,-43,1,0,0,response3disk,7,40,-31,-21,1,0,0,rectangle,-31,-21,1,0,0,,4,0.001,-31,-21,1,0,0,0,39,39,7,1,0,,,,,,,,,,,,,,,,,,,,,
,,,,,,,,,,,,,,,,,,,,,,,,,,,,,,,,,,,,,,,,,,5b1123b61e55760001b9cfd9,606cad273e67cbf8a9940177,2021-04-06_20h49.28.271,Colour_Similarity_Experiment,2020.2.10,Win32,60,6067542a4a25243f4d7d4fcf,8.15990991,6.969769795,6.968960864,6.975862069,6.968523002,6.969769795,,,,,,,,,,,,,,,,,,,,PF,strong,7,,,,,,,,5,1.46,,,,,,,,,,,,,,,,,,,,,,,,,,,,3,strong,84,-44,1,0,0,response3disk,1,41,32,0,1,0,0,rectangle,32,0,1,0,0,,1,0,32,0,1,0,0,0,40,40,125,1,0,,,,,,,,,,,,,,,,,,,,,
,,,,,,,,,,,,,,,,,,,,,,,,,,,,,,,,,,,,,,,,,,5b1123b61e55760001b9cfd9,606cad273e67cbf8a9940177,2021-04-06_20h49.28.271,Colour_Similarity_Experiment,2020.2.10,Win32,60,6067542a4a25243f4d7d4fcf,8.15990991,6.969769795,6.968960864,6.975862069,6.968523002,6.969769795,,,,,,,,,,,,,,,,,,,,PF,weak,7,,,,,,,,1,1.126,,,,,,,,,,,,,,,,,,,,,,,,,,,,7,weak,-110,68,1,0,0,response7disk,5,42,20,-13,1,0,0,rectangle,20,-13,1,0,0,,0,0.001,20,-13,1,0,0,0,41,41,92,1,0,,,,,,,,,,,,,,,,,,,,,
,,,,,,,,,,,,,,,,,,,,,,,,,,,,,,,,,,,,,,,,,,5b1123b61e55760001b9cfd9,606cad273e67cbf8a9940177,2021-04-06_20h49.28.271,Colour_Similarity_Experiment,2020.2.10,Win32,60,6067542a4a25243f4d7d4fcf,8.15990991,6.969769795,6.968960864,6.975862069,6.968523002,6.969769795,,,,,,,,,,,,,,,,,,,,PF,strong,7,,,,,,,,7,2.301,,,,,,,,,,,,,,,,,,,,,,,,,,,,4,strong,55,81,1,0,0,response1disk,3,43,19,-16,1,0,0,rectangle,19,-16,1,0,0,,1,0.001,19,-16,1,0,0,0,42,42,77,1,0,,,,,,,,,,,,,,,,,,,,,
,,,,,,,,,,,,,,,,,,,,,,,,,,,,,,,,,,,,,,,,,,5b1123b61e55760001b9cfd9,606cad273e67cbf8a9940177,2021-04-06_20h49.28.271,Colour_Similarity_Experiment,2020.2.10,Win32,60,6067542a4a25243f4d7d4fcf,8.15990991,6.969769795,6.968960864,6.975862069,6.968523002,6.969769795,,,,,,,,,,,,,,,,,,,,PF,strong,7,,,,,,,,7,1.181,,,,,,,,,,,,,,,,,,,,,,,,,,,,5,strong,47,99,1,0,0,response1disk,9,44,-1,-2,1,0,0,rectangle,-1,-2,1,0,0,,0,0.002,-1,-2,1,0,0,0,43,43,61,1,0,,,,,,,,,,,,,,,,,,,,,
,,,,,,,,,,,,,,,,,,,,,,,,,,,,,,,,,,,,,,,,,,5b1123b61e55760001b9cfd9,606cad273e67cbf8a9940177,2021-04-06_20h49.28.271,Colour_Similarity_Experiment,2020.2.10,Win32,60,6067542a4a25243f4d7d4fcf,8.15990991,6.969769795,6.968960864,6.975862069,6.968523002,6.969769795,,,,,,,,,,,,,,,,,,,,PF,weak,7,,,,,,,,7,2.648,,,,,,,,,,,,,,,,,,,,,,,,,,,,7,weak,57,125,1,0,0,response1disk,9,45,-16,0,1,0,0,rectangle,-16,0,1,0,0,,2,0.001,-16,0,1,0,0,0,44,44,10,1,0,,,,,,,,,,,,,,,,,,,,,
,,,,,,,,,,,,,,,,,,,,,,,,,,,,,,,,,,,,,,,,,,5b1123b61e55760001b9cfd9,606cad273e67cbf8a9940177,2021-04-06_20h49.28.271,Colour_Similarity_Experiment,2020.2.10,Win32,60,6067542a4a25243f4d7d4fcf,8.15990991,6.969769795,6.968960864,6.975862069,6.968523002,6.969769795,,,,,,,,,,,,,,,,,,,,PF,strong,7,,,,,,,,4,1.571,,,,,,,,,,,,,,,,,,,,,,,,,,,,9,strong,56,-92,1,0,0,response3disk,4,46,19,-6,1,0,0,rectangle,19,-6,1,0,0,,6,0,19,-6,1,0,0,0,45,45,60,1,0,,,,,,,,,,,,,,,,,,,,,
,,,,,,,,,,,,,,,,,,,,,,,,,,,,,,,,,,,,,,,,,,5b1123b61e55760001b9cfd9,606cad273e67cbf8a9940177,2021-04-06_20h49.28.271,Colour_Similarity_Experiment,2020.2.10,Win32,60,6067542a4a25243f4d7d4fcf,8.15990991,6.969769795,6.968960864,6.975862069,6.968523002,6.969769795,,,,,,,,,,,,,,,,,,,,PF,weak,7,,,,,,,,2,1.502,,,,,,,,,,,,,,,,,,,,,,,,,,,,9,weak,-103,-49,1,0,0,response5disk,8,47,-14,1,1,0,0,rectangle,-14,1,1,0,0,,6,0,-14,1,1,0,0,0,46,46,67,1,0,,,,,,,,,,,,,,,,,,,,,
,,,,,,,,,,,,,,,,,,,,,,,,,,,,,,,,,,,,,,,,,,5b1123b61e55760001b9cfd9,606cad273e67cbf8a9940177,2021-04-06_20h49.28.271,Colour_Similarity_Experiment,2020.2.10,Win32,60,6067542a4a25243f4d7d4fcf,8.15990991,6.969769795,6.968960864,6.975862069,6.968523002,6.969769795,,,,,,,,,,,,,,,,,,,,PF,strong,7,,,,,,,,6,0.897,,,,,,,,,,,,,,,,,,,,,,,,,,,,4,strong,87,81,1,0,0,response1disk,1,48,-7,-12,1,0,0,rectangle,-7,-12,1,0,0,,7,0,-7,-12,1,0,0,0,47,47,102,1,0,,,,,,,,,,,,,,,,,,,,,
,,,,,,,,,,,,,,,,,,,,,,,,,,,,,,,,,,,,,,,,,,5b1123b61e55760001b9cfd9,606cad273e67cbf8a9940177,2021-04-06_20h49.28.271,Colour_Similarity_Experiment,2020.2.10,Win32,60,6067542a4a25243f4d7d4fcf,8.15990991,6.969769795,6.968960864,6.975862069,6.968523002,6.969769795,,,,,,,,,,,,,,,,,,,,PF,weak,7,,,,,,,,4,1.377,,,,,,,,,,,,,,,,,,,,,,,,,,,,2,weak,59,-99,1,0,0,response3disk,7,49,-19,-1,1,0,0,rectangle,-19,-1,1,0,0,,7,0,-19,-1,1,0,0,0,48,48,107,1,0,,,,,,,,,,,,,,,,,,,,,
,,,,,,,,,,,,,,,,,,,,,,,,,,,,,,,,,,,,,,,,,,5b1123b61e55760001b9cfd9,606cad273e67cbf8a9940177,2021-04-06_20h49.28.271,Colour_Similarity_Experiment,2020.2.10,Win32,60,6067542a4a25243f4d7d4fcf,8.15990991,6.969769795,6.968960864,6.975862069,6.968523002,6.969769795,,,,,,,,,,,,,,,,,,,,PF,weak,7,,,,,,,,7,0.938,,,,,,,,,,,,,,,,,,,,,,,,,,,,8,weak,98,114,1,0,0,response1disk,1,50,16,5,1,0,0,rectangle,16,5,1,0,0,,7,0,16,5,1,0,0,0,49,49,57,1,0,,,,,,,,,,,,,,,,,,,,,
,,,,,,,,,,,,,,,,,,,,,,,,,,,,,,,,,,,,,,,,,,5b1123b61e55760001b9cfd9,606cad273e67cbf8a9940177,2021-04-06_20h49.28.271,Colour_Similarity_Experiment,2020.2.10,Win32,60,6067542a4a25243f4d7d4fcf,8.15990991,6.969769795,6.968960864,6.975862069,6.968523002,6.969769795,,,,,,,,,,,,,,,,,,,,PF,strong,7,,,,,,,,4,1.509,,,,,,,,,,,,,,,,,,,,,,,,,,,,2,strong,51,-86,1,0,0,response3disk,7,51,23,7,1,0,0,rectangle,23,7,1,0,0,,4,0,23,7,1,0,0,0,50,50,63,1,0,,,,,,,,,,,,,,,,,,,,,
,,,,,,,,,,,,,,,,,,,,,,,,,,,,,,,,,,,,,,,,,,5b1123b61e55760001b9cfd9,606cad273e67cbf8a9940177,2021-04-06_20h49.28.271,Colour_Similarity_Experiment,2020.2.10,Win32,60,6067542a4a25243f4d7d4fcf,8.15990991,6.969769795,6.968960864,6.975862069,6.968523002,6.969769795,,,,,,,,,,,,,,,,,,,,PF,weak,7,,,,,,,,1,1.599,,,,,,,,,,,,,,,,,,,,,,,,,,,,7,weak,-109,42,1,0,0,response7disk,7,52,-11,-4,1,0,0,rectangle,-11,-4,1,0,0,,7,0.001,-11,-4,1,0,0,0,51,51,51,1,0,,,,,,,,,,,,,,,,,,,,,
,,,,,,,,,,,,,,,,,,,,,,,,,,,,,,,,,,,,,,,,,,5b1123b61e55760001b9cfd9,606cad273e67cbf8a9940177,2021-04-06_20h49.28.271,Colour_Similarity_Experiment,2020.2.10,Win32,60,6067542a4a25243f4d7d4fcf,8.15990991,6.969769795,6.968960864,6.975862069,6.968523002,6.969769795,,,,,,,,,,,,,,,,,,,,PF,strong,7,,,,,,,,7,0.848,,,,,,,,,,,,,,,,,,,,,,,,,,,,4,strong,57,120,1,0,0,response1disk,2,53,-4,9,1,0,0,rectangle,-4,9,1,0,0,,3,0.001,-4,9,1,0,0,0,52,52,13,1,0,,,,,,,,,,,,,,,,,,,,,
,,,,,,,,,,,,,,,,,,,,,,,,,,,,,,,,,,,,,,,,,,5b1123b61e55760001b9cfd9,606cad273e67cbf8a9940177,2021-04-06_20h49.28.271,Colour_Similarity_Experiment,2020.2.10,Win32,60,6067542a4a25243f4d7d4fcf,8.15990991,6.969769795,6.968960864,6.975862069,6.968523002,6.969769795,,,,,,,,,,,,,,,,,,,,PF,weak,7,,,,,,,,7,0.764,,,,,,,,,,,,,,,,,,,,,,,,,,,,2,weak,71,99,1,0,0,response1disk,9,54,2,-4,1,0,0,rectangle,2,-4,1,0,0,,6,0.001,2,-4,1,0,0,0,53,53,39,1,0,,,,,,,,,,,,,,,,,,,,,
,,,,,,,,,,,,,,,,,,,,,,,,,,,,,,,,,,,,,,,,,,5b1123b61e55760001b9cfd9,606cad273e67cbf8a9940177,2021-04-06_20h49.28.271,Colour_Similarity_Experiment,2020.2.10,Win32,60,6067542a4a25243f4d7d4fcf,8.15990991,6.969769795,6.968960864,6.975862069,6.968523002,6.969769795,,,,,,,,,,,,,,,,,,,,PF,strong,7,,,,,,,,1,1.237,,,,,,,,,,,,,,,,,,,,,,,,,,,,1,strong,-161,48,1,0,0,response7disk,1,55,-12,-4,1,0,0,rectangle,-12,-4,1,0,0,,1,0.001,-12,-4,1,0,0,0,54,54,151,1,0,,,,,,,,,,,,,,,,,,,,,
,,,,,,,,,,,,,,,,,,,,,,,,,,,,,,,,,,,,,,,,,,5b1123b61e55760001b9cfd9,606cad273e67cbf8a9940177,2021-04-06_20h49.28.271,Colour_Similarity_Experiment,2020.2.10,Win32,60,6067542a4a25243f4d7d4fcf,8.15990991,6.969769795,6.968960864,6.975862069,6.968523002,6.969769795,,,,,,,,,,,,,,,,,,,,PF,weak,7,,,,,,,,7,2.189,,,,,,,,,,,,,,,,,,,,,,,,,,,,1,weak,62,129,1,0,0,response1disk,6,56,17,10,1,0,0,rectangle,17,10,1,0,0,,5,0,17,10,1,0,0,0,55,55,144,1,0,,,,,,,,,,,,,,,,,,,,,
,,,,,,,,,,,,,,,,,,,,,,,,,,,,,,,,,,,,,,,,,,5b1123b61e55760001b9cfd9,606cad273e67cbf8a9940177,2021-04-06_20h49.28.271,Colour_Similarity_Experiment,2020.2.10,Win32,60,6067542a4a25243f4d7d4fcf,8.15990991,6.969769795,6.968960864,6.975862069,6.968523002,6.969769795,,,,,,,,,,,,,,,,,,,,PF,weak,7,,,,,,,,7,0.764,,,,,,,,,,,,,,,,,,,,,,,,,,,,7,weak,75,137,1,0,0,response1disk,2,57,14,-8,1,0,0,rectangle,14,-8,1,0,0,,0,0,14,-8,1,0,0,0,56,56,32,1,0,,,,,,,,,,,,,,,,,,,,,
,,,,,,,,,,,,,,,,,,,,,,,,,,,,,,,,,,,,,,,,,,5b1123b61e55760001b9cfd9,606cad273e67cbf8a9940177,2021-04-06_20h49.28.271,Colour_Similarity_Experiment,2020.2.10,Win32,60,6067542a4a25243f4d7d4fcf,8.15990991,6.969769795,6.968960864,6.975862069,6.968523002,6.969769795,,,,,,,,,,,,,,,,,,,,PF,strong,7,,,,,,,,7,0.994,,,,,,,,,,,,,,,,,,,,,,,,,,,,9,strong,65,122,1,0,0,response1disk,5,58,-13,1,1,0,0,rectangle,-13,1,1,0,0,,3,0.001,-13,1,1,0,0,0,57,57,128,1,0,,,,,,,,,,,,,,,,,,,,,
,,,,,,,,,,,,,,,,,,,,,,,,,,,,,,,,,,,,,,,,,,5b1123b61e55760001b9cfd9,606cad273e67cbf8a9940177,2021-04-06_20h49.28.271,Colour_Similarity_Experiment,2020.2.10,Win32,60,6067542a4a25243f4d7d4fcf,8.15990991,6.969769795,6.968960864,6.975862069,6.968523002,6.969769795,,,,,,,,,,,,,,,,,,,,PF,weak,7,,,,,,,,1,1.926,,,,,,,,,,,,,,,,,,,,,,,,,,,,5,weak,-79,58,1,0,0,response7disk,6,59,6,7,1,0,0,rectangle,6,7,1,0,0,,0,0.001,6,7,1,0,0,0,58,58,103,1,0,,,,,,,,,,,,,,,,,,,,,
,,,,,,,,,,,,,,,,,,,,,,,,,,,,,,,,,,,,,,,,,,5b1123b61e55760001b9cfd9,606cad273e67cbf8a9940177,2021-04-06_20h49.28.271,Colour_Similarity_Experiment,2020.2.10,Win32,60,6067542a4a25243f4d7d4fcf,8.15990991,6.969769795,6.968960864,6.975862069,6.968523002,6.969769795,,,,,,,,,,,,,,,,,,,,PF,strong,7,,,,,,,,1,1.487,,,,,,,,,,,,,,,,,,,,,,,,,,,,8,strong,-104,57,1,0,0,response7disk,9,60,-9,-4,1,0,0,rectangle,-9,-4,1,0,0,,0,0,-9,-4,1,0,0,0,59,59,105,1,0,,,,,,,,,,,,,,,,,,,,,
,,,,,,,,,,,,,,,,,,,,,,,,,,,,,,,,,,,,,,,,,,5b1123b61e55760001b9cfd9,606cad273e67cbf8a9940177,2021-04-06_20h49.28.271,Colour_Similarity_Experiment,2020.2.10,Win32,60,6067542a4a25243f4d7d4fcf,8.15990991,6.969769795,6.968960864,6.975862069,6.968523002,6.969769795,,,,,,,,,,,,,,,,,,,,PF,strong,7,,,,,,,,1,0.813,,,,,,,,,,,,,,,,,,,,,,,,,,,,6,strong,-92,51,1,0,0,response7disk,6,61,8,-7,1,0,0,rectangle,8,-7,1,0,0,,2,0,8,-7,1,0,0,0,60,60,91,1,0,,,,,,,,,,,,,,,,,,,,,
,,,,,,,,,,,,,,,,,,,,,,,,,,,,,,,,,,,,,,,,,,5b1123b61e55760001b9cfd9,606cad273e67cbf8a9940177,2021-04-06_20h49.28.271,Colour_Similarity_Experiment,2020.2.10,Win32,60,6067542a4a25243f4d7d4fcf,8.15990991,6.969769795,6.968960864,6.975862069,6.968523002,6.969769795,,,,,,,,,,,,,,,,,,,,PF,weak,7,,,,,,,,7,0.807,,,,,,,,,,,,,,,,,,,,,,,,,,,,6,weak,78,123,1,0,0,response1disk,1,62,-26,-4,1,0,0,rectangle,-26,-4,1,0,0,,3,0,-26,-4,1,0,0,0,61,61,46,1,0,,,,,,,,,,,,,,,,,,,,,
,,,,,,,,,,,,,,,,,,,,,,,,,,,,,,,,,,,,,,,,,,5b1123b61e55760001b9cfd9,606cad273e67cbf8a9940177,2021-04-06_20h49.28.271,Colour_Similarity_Experiment,2020.2.10,Win32,60,6067542a4a25243f4d7d4fcf,8.15990991,6.969769795,6.968960864,6.975862069,6.968523002,6.969769795,,,,,,,,,,,,,,,,,,,,PF,weak,7,,,,,,,,3,1.488,,,,,,,,,,,,,,,,,,,,,,,,,,,,7,weak,-58,-109,1,0,0,response5disk,3,63,3,3,1,0,0,rectangle,3,3,1,0,0,,3,0,3,3,1,0,0,0,62,62,81,1,0,,,,,,,,,,,,,,,,,,,,,
,,,,,,,,,,,,,,,,,,,,,,,,,,,,,,,,,,,,,,,,,,5b1123b61e55760001b9cfd9,606cad273e67cbf8a9940177,2021-04-06_20h49.28.271,Colour_Similarity_Experiment,2020.2.10,Win32,60,6067542a4a25243f4d7d4fcf,8.15990991,6.969769795,6.968960864,6.975862069,6.968523002,6.969769795,,,,,,,,,,,,,,,,,,,,PF,strong,7,,,,,,,,3,2.12,,,,,,,,,,,,,,,,,,,,,,,,,,,,7,strong,-27,-106,1,0,0,response5disk,8,64,14,17,1,0,0,rectangle,63,119,1,0,0,7,7,1.668,13,7,1,0,0,0,63,63,97,1,1,response1disk_3,rectangle,,,,,,,,,,,,,,,,,,,
,,,,,,,,,,,,,,,,,,,,,,,,,,,,,,,,,,,,,,,,,,5b1123b61e55760001b9cfd9,606cad273e67cbf8a9940177,2021-04-06_20h49.28.271,Colour_Similarity_Experiment,2020.2.10,Win32,60,6067542a4a25243f4d7d4fcf,8.15990991,6.969769795,6.968960864,6.975862069,6.968523002,6.969769795,,,,,,,,,,,,,,,,,,,,PF,weak,7,,,,,,,,1,1.3,,,,,,,,,,,,,,,,,,,,,,,,,,,,8,weak,-119,50,1,0,0,response7disk,9,65,-16,-3,1,0,0,rectangle,-16,-3,1,0,0,7,4,0.001,-16,-3,1,0,0,0,64,64,42,1,0,,,,,,,,,,,,,,,,,,,,,
,,,,,,,,,,,,,,,,,,,,,,,,,,,,,,,,,,,,,,,,,,5b1123b61e55760001b9cfd9,606cad273e67cbf8a9940177,2021-04-06_20h49.28.271,Colour_Similarity_Experiment,2020.2.10,Win32,60,6067542a4a25243f4d7d4fcf,8.15990991,6.969769795,6.968960864,6.975862069,6.968523002,6.969769795,,,,,,,,,,,,,,,,,,,,PF,weak,7,,,,,,,,3,1.71,,,,,,,,,,,,,,,,,,,,,,,,,,,,2,weak,-41,-107,1,0,0,response5disk,3,66,12,12,1,0,0,rectangle,12,12,1,0,0,7,0,0,12,12,1,0,0,0,65,65,69,1,0,,,,,,,,,,,,,,,,,,,,,
,,,,,,,,,,,,,,,,,,,,,,,,,,,,,,,,,,,,,,,,,,5b1123b61e55760001b9cfd9,606cad273e67cbf8a9940177,2021-04-06_20h49.28.271,Colour_Similarity_Experiment,2020.2.10,Win32,60,6067542a4a25243f4d7d4fcf,8.15990991,6.969769795,6.968960864,6.975862069,6.968523002,6.969769795,,,,,,,,,,,,,,,,,,,,PF,strong,7,,,,,,,,7,1.445,,,,,,,,,,,,,,,,,,,,,,,,,,,,5,strong,69,135,1,0,0,response1disk,2,67,16,7,1,0,0,rectangle,105,70,1,0,0,6,6,1.905,29,8,1,0,0,0,66,66,55,1,1,response1disk_3,rectangle,,,,,,,,,,,,,,,,,,,
,,,,,,,,,,,,,,,,,,,,,,,,,,,,,,,,,,,,,,,,,,5b1123b61e55760001b9cfd9,606cad273e67cbf8a9940177,2021-04-06_20h49.28.271,Colour_Similarity_Experiment,2020.2.10,Win32,60,6067542a4a25243f4d7d4fcf,8.15990991,6.969769795,6.968960864,6.975862069,6.968523002,6.969769795,,,,,,,,,,,,,,,,,,,,PF,strong,7,,,,,,,,7,2.141,,,,,,,,,,,,,,,,,,,,,,,,,,,,5,strong,65,117,1,0,0,response1disk,1,68,-30,12,1,0,0,rectangle,-30,12,1,0,0,6,6,0,-30,12,1,0,0,0,67,67,131,1,0,,,,,,,,,,,,,,,,,,,,,
,,,,,,,,,,,,,,,,,,,,,,,,,,,,,,,,,,,,,,,,,,5b1123b61e55760001b9cfd9,606cad273e67cbf8a9940177,2021-04-06_20h49.28.271,Colour_Similarity_Experiment,2020.2.10,Win32,60,6067542a4a25243f4d7d4fcf,8.15990991,6.969769795,6.968960864,6.975862069,6.968523002,6.969769795,,,,,,,,,,,,,,,,,,,,PF,weak,7,,,,,,,,7,3.184,,,,,,,,,,,,,,,,,,,,,,,,,,,,2,weak,70,135,1,0,0,response1disk,5,69,14,-4,1,0,0,rectangle,14,-4,1,0,0,6,4,0,14,-4,1,0,0,0,68,68,147,1,0,,,,,,,,,,,,,,,,,,,,,
,,,,,,,,,,,,,,,,,,,,,,,,,,,,,,,,,,,,,,,,,,5b1123b61e55760001b9cfd9,606cad273e67cbf8a9940177,2021-04-06_20h49.28.271,Colour_Similarity_Experiment,2020.2.10,Win32,60,6067542a4a25243f4d7d4fcf,8.15990991,6.969769795,6.968960864,6.975862069,6.968523002,6.969769795,,,,,,,,,,,,,,,,,,,,PF,strong,7,,,,,,,,1,1.273,,,,,,,,,,,,,,,,,,,,,,,,,,,,4,strong,-86,59,1,0,0,response7disk,4,70,-1,-13,1,0,0,rectangle,-1,-13,1,0,0,6,3,0.001,-1,-13,1,0,0,0,69,69,84,1,0,,,,,,,,,,,,,,,,,,,,,
,,,,,,,,,,,,,,,,,,,,,,,,,,,,,,,,,,,,,,,,,,5b1123b61e55760001b9cfd9,606cad273e67cbf8a9940177,2021-04-06_20h49.28.271,Colour_Similarity_Experiment,2020.2.10,Win32,60,6067542a4a25243f4d7d4fcf,8.15990991,6.969769795,6.968960864,6.975862069,6.968523002,6.969769795,,,,,,,,,,,,,,,,,,,,PF,weak,7,,,,,,,,1,1.043,,,,,,,,,,,,,,,,,,,,,,,,,,,,4,weak,-100,57,1,0,0,response7disk,6,71,-34,4,1,0,0,rectangle,-34,4,1,0,0,6,5,0.001,-34,4,1,0,0,0,70,70,120,1,0,,,,,,,,,,,,,,,,,,,,,
,,,,,,,,,,,,,,,,,,,,,,,,,,,,,,,,,,,,,,,,,,5b1123b61e55760001b9cfd9,606cad273e67cbf8a9940177,2021-04-06_20h49.28.271,Colour_Similarity_Experiment,2020.2.10,Win32,60,6067542a4a25243f4d7d4fcf,8.15990991,6.969769795,6.968960864,6.975862069,6.968523002,6.969769795,,,,,,,,,,,,,,,,,,,,PF,strong,7,,,,,,,,5,1.842,,,,,,,,,,,,,,,,,,,,,,,,,,,,1,strong,96,-58,1,0,0,response3disk,4,72,-38,6,1,0,0,rectangle,-38,6,1,0,0,6,3,0,-38,6,1,0,0,0,71,71,135,1,0,,,,,,,,,,,,,,,,,,,,,
,,,,,,,,,,,,,,,,,,,,,,,,,,,,,,,,,,,,,,,,,,5b1123b61e55760001b9cfd9,606cad273e67cbf8a9940177,2021-04-06_20h49.28.271,Colour_Similarity_Experiment,2020.2.10,Win32,60,6067542a4a25243f4d7d4fcf,8.15990991,6.969769795,6.968960864,6.975862069,6.968523002,6.969769795,,,,,,,,,,,,,,,,,,,,PF,strong,7,,,,,,,,5,1.453,,,,,,,,,,,,,,,,,,,,,,,,,,,,7,strong,127,-49,1,0,0,response3disk,7,73,7,12,1,0,0,rectangle,7,12,1,0,0,6,4,0,7,12,1,0,0,0,72,72,34,1,0,,,,,,,,,,,,,,,,,,,,,
,,,,,,,,,,,,,,,,,,,,,,,,,,,,,,,,,,,,,,,,,,5b1123b61e55760001b9cfd9,606cad273e67cbf8a9940177,2021-04-06_20h49.28.271,Colour_Similarity_Experiment,2020.2.10,Win32,60,6067542a4a25243f4d7d4fcf,8.15990991,6.969769795,6.968960864,6.975862069,6.968523002,6.969769795,,,,,,,,,,,,,,,,,,,,PF,weak,7,,,,,,,,6,1.78,,,,,,,,,,,,,,,,,,,,,,,,,,,,5,weak,90,63,1,0,0,response1disk,2,74,-1,-18,1,0,0,rectangle,-1,-18,1,0,0,6,0,0.001,-1,-18,1,0,0,0,73,73,129,1,0,,,,,,,,,,,,,,,,,,,,,
,,,,,,,,,,,,,,,,,,,,,,,,,,,,,,,,,,,,,,,,,,5b1123b61e55760001b9cfd9,606cad273e67cbf8a9940177,2021-04-06_20h49.28.271,Colour_Similarity_Experiment,2020.2.10,Win32,60,6067542a4a25243f4d7d4fcf,8.15990991,6.969769795,6.968960864,6.975862069,6.968523002,6.969769795,,,,,,,,,,,,,,,,,,,,PF,weak,7,,,,,,,,7,2.315,,,,,,,,,,,,,,,,,,,,,,,,,,,,3,weak,40,110,1,0,0,response1disk,8,75,8,8,1,0,0,rectangle,8,8,1,0,0,6,2,0,8,8,1,0,0,0,74,74,3,1,0,,,,,,,,,,,,,,,,,,,,,
,,,,,,,,,,,,,,,,,,,,,,,,,,,,,,,,,,,,,,,,,,5b1123b61e55760001b9cfd9,606cad273e67cbf8a9940177,2021-04-06_20h49.28.271,Colour_Similarity_Experiment,2020.2.10,Win32,60,6067542a4a25243f4d7d4fcf,8.15990991,6.969769795,6.968960864,6.975862069,6.968523002,6.969769795,,,,,,,,,,,,,,,,,,,,PF,weak,7,,,,,,,,7,0.737,,,,,,,,,,,,,,,,,,,,,,,,,,,,6,weak,30,114,1,0,0,response1disk,4,76,10,-4,1,0,0,rectangle,10,-4,1,0,0,6,0,0.001,10,-4,1,0,0,0,75,75,33,1,0,,,,,,,,,,,,,,,,,,,,,
,,,,,,,,,,,,,,,,,,,,,,,,,,,,,,,,,,,,,,,,,,5b1123b61e55760001b9cfd9,606cad273e67cbf8a9940177,2021-04-06_20h49.28.271,Colour_Similarity_Experiment,2020.2.10,Win32,60,6067542a4a25243f4d7d4fcf,8.15990991,6.969769795,6.968960864,6.975862069,6.968523002,6.969769795,,,,,,,,,,,,,,,,,,,,PF,strong,7,,,,,,,,7,0.647,,,,,,,,,,,,,,,,,,,,,,,,,,,,2,strong,26,98,1,0,0,response1disk,6,77,5,-12,1,0,0,rectangle,5,-12,1,0,0,6,6,0,5,-12,1,0,0,0,76,76,40,1,0,,,,,,,,,,,,,,,,,,,,,
,,,,,,,,,,,,,,,,,,,,,,,,,,,,,,,,,,,,,,,,,,5b1123b61e55760001b9cfd9,606cad273e67cbf8a9940177,2021-04-06_20h49.28.271,Colour_Similarity_Experiment,2020.2.10,Win32,60,6067542a4a25243f4d7d4fcf,8.15990991,6.969769795,6.968960864,6.975862069,6.968523002,6.969769795,,,,,,,,,,,,,,,,,,,,PF,weak,7,,,,,,,,0,0.932,,,,,,,,,,,,,,,,,,,,,,,,,,,,5,weak,-84,125,1,0,0,response7disk,5,78,-28,-1,1,0,0,rectangle,-28,-1,1,0,0,6,4,0,-28,-1,1,0,0,0,77,77,94,1,0,,,,,,,,,,,,,,,,,,,,,
,,,,,,,,,,,,,,,,,,,,,,,,,,,,,,,,,,,,,,,,,,5b1123b61e55760001b9cfd9,606cad273e67cbf8a9940177,2021-04-06_20h49.28.271,Colour_Similarity_Experiment,2020.2.10,Win32,60,6067542a4a25243f4d7d4fcf,8.15990991,6.969769795,6.968960864,6.975862069,6.968523002,6.969769795,,,,,,,,,,,,,,,,,,,,PF,weak,7,,,,,,,,1,4.401,,,,,,,,,,,,,,,,,,,,,,,,,,,,5,weak,-139,56,1,0,0,response7disk,3,79,44,16,1,0,0,rectangle,44,16,1,0,0,6,0,0,44,16,1,0,0,0,78,78,109,1,0,,,,,,,,,,,,,,,,,,,,,
,,,,,,,,,,,,,,,,,,,,,,,,,,,,,,,,,,,,,,,,,,5b1123b61e55760001b9cfd9,606cad273e67cbf8a9940177,2021-04-06_20h49.28.271,Colour_Similarity_Experiment,2020.2.10,Win32,60,6067542a4a25243f4d7d4fcf,8.15990991,6.969769795,6.968960864,6.975862069,6.968523002,6.969769795,,,,,,,,,,,,,,,,,,,,PF,strong,7,,,,,,,,4,1.891,,,,,,,,,,,,,,,,,,,,,,,,,,,,4,strong,56,-109,1,0,0,response3disk,6,80,10,2,1,0,0,rectangle,10,2,1,0,0,6,6,0,10,2,1,0,0,0,79,79,122,1,0,,,,,,,,,,,,,,,,,,,,,
,,,,,,,,,,,,,,,,,,,,,,,,,,,,,,,,,,,,,,,,,,5b1123b61e55760001b9cfd9,606cad273e67cbf8a9940177,2021-04-06_20h49.28.271,Colour_Similarity_Experiment,2020.2.10,Win32,60,6067542a4a25243f4d7d4fcf,8.15990991,6.969769795,6.968960864,6.975862069,6.968523002,6.969769795,,,,,,,,,,,,,,,,,,,,PF,strong,7,,,,,,,,4,1.05,,,,,,,,,,,,,,,,,,,,,,,,,,,,6,strong,65,-113,1,0,0,response3disk,2,81,-8,18,1,0,0,rectangle,-8,18,1,0,0,6,6,0.001,-8,18,1,0,0,0,80,80,112,1,0,,,,,,,,,,,,,,,,,,,,,
,,,,,,,,,,,,,,,,,,,,,,,,,,,,,,,,,,,,,,,,,,5b1123b61e55760001b9cfd9,606cad273e67cbf8a9940177,2021-04-06_20h49.28.271,Colour_Similarity_Experiment,2020.2.10,Win32,60,6067542a4a25243f4d7d4fcf,8.15990991,6.969769795,6.968960864,6.975862069,6.968523002,6.969769795,,,,,,,,,,,,,,,,,,,,PF,weak,7,,,,,,,,1,1.244,,,,,,,,,,,,,,,,,,,,,,,,,,,,9,weak,-114,57,1,0,0,response7disk,1,82,-19,14,1,0,0,rectangle,-19,14,1,0,0,6,1,0.001,-19,14,1,0,0,0,81,81,74,1,0,,,,,,,,,,,,,,,,,,,,,
,,,,,,,,,,,,,,,,,,,,,,,,,,,,,,,,,,,,,,,,,,5b1123b61e55760001b9cfd9,606cad273e67cbf8a9940177,2021-04-06_20h49.28.271,Colour_Similarity_Experiment,2020.2.10,Win32,60,6067542a4a25243f4d7d4fcf,8.15990991,6.969769795,6.968960864,6.975862069,6.968523002,6.969769795,,,,,,,,,,,,,,,,,,,,PF,weak,7,,,,,,,,7,1.912,,,,,,,,,,,,,,,,,,,,,,,,,,,,1,weak,63,119,1,0,0,response1disk,5,83,-1,-1,1,0,0,rectangle,-1,-1,1,0,0,6,2,0.001,-1,-1,1,0,0,0,82,82,28,1,0,,,,,,,,,,,,,,,,,,,,,
,,,,,,,,,,,,,,,,,,,,,,,,,,,,,,,,,,,,,,,,,,5b1123b61e55760001b9cfd9,606cad273e67cbf8a9940177,2021-04-06_20h49.28.271,Colour_Similarity_Experiment,2020.2.10,Win32,60,6067542a4a25243f4d7d4fcf,8.15990991,6.969769795,6.968960864,6.975862069,6.968523002,6.969769795,,,,,,,,,,,,,,,,,,,,PF,weak,7,,,,,,,,7,0.667,,,,,,,,,,,,,,,,,,,,,,,,,,,,9,weak,60,98,1,0,0,response1disk,6,84,2,-2,1,0,0,rectangle,2,-2,1,0,0,6,5,0,2,-2,1,0,0,0,83,83,148,1,0,,,,,,,,,,,,,,,,,,,,,
,,,,,,,,,,,,,,,,,,,,,,,,,,,,,,,,,,,,,,,,,,5b1123b61e55760001b9cfd9,606cad273e67cbf8a9940177,2021-04-06_20h49.28.271,Colour_Similarity_Experiment,2020.2.10,Win32,60,6067542a4a25243f4d7d4fcf,8.15990991,6.969769795,6.968960864,6.975862069,6.968523002,6.969769795,,,,,,,,,,,,,,,,,,,,PF,strong,7,,,,,,,,7,1.411,,,,,,,,,,,,,,,,,,,,,,,,,,,,2,strong,36,92,1,0,0,response1disk,8,85,-35,-1,1,0,0,rectangle,-35,-1,1,0,0,6,6,0,-35,-1,1,0,0,0,84,84,62,1,0,,,,,,,,,,,,,,,,,,,,,
,,,,,,,,,,,,,,,,,,,,,,,,,,,,,,,,,,,,,,,,,,5b1123b61e55760001b9cfd9,606cad273e67cbf8a9940177,2021-04-06_20h49.28.271,Colour_Similarity_Experiment,2020.2.10,Win32,60,6067542a4a25243f4d7d4fcf,8.15990991,6.969769795,6.968960864,6.975862069,6.968523002,6.969769795,,,,,,,,,,,,,,,,,,,,PF,strong,7,,,,,,,,7,0.8,,,,,,,,,,,,,,,,,,,,,,,,,,,,8,strong,63,86,1,0,0,response1disk,1,86,-8,5,1,0,0,rectangle,-8,5,1,0,0,6,6,0,-8,5,1,0,0,0,85,85,20,1,0,,,,,,,,,,,,,,,,,,,,,
,,,,,,,,,,,,,,,,,,,,,,,,,,,,,,,,,,,,,,,,,,5b1123b61e55760001b9cfd9,606cad273e67cbf8a9940177,2021-04-06_20h49.28.271,Colour_Similarity_Experiment,2020.2.10,Win32,60,6067542a4a25243f4d7d4fcf,8.15990991,6.969769795,6.968960864,6.975862069,6.968523002,6.969769795,,,,,,,,,,,,,,,,,,,,PF,weak,7,,,,,,,,7,0.535,,,,,,,,,,,,,,,,,,,,,,,,,,,,9,weak,54,101,1,0,0,response1disk,3,87,1,4,1,0,0,rectangle,1,4,1,0,0,6,7,0,1,4,1,0,0,0,86,86,119,1,0,,,,,,,,,,,,,,,,,,,,,
,,,,,,,,,,,,,,,,,,,,,,,,,,,,,,,,,,,,,,,,,,5b1123b61e55760001b9cfd9,606cad273e67cbf8a9940177,2021-04-06_20h49.28.271,Colour_Similarity_Experiment,2020.2.10,Win32,60,6067542a4a25243f4d7d4fcf,8.15990991,6.969769795,6.968960864,6.975862069,6.968523002,6.969769795,,,,,,,,,,,,,,,,,,,,PF,weak,7,,,,,,,,7,0.799,,,,,,,,,,,,,,,,,,,,,,,,,,,,4,weak,69,78,1,0,0,response1disk,7,88,14,-7,1,0,0,rectangle,14,-7,1,0,0,6,1,0,14,-7,1,0,0,0,87,87,38,1,0,,,,,,,,,,,,,,,,,,,,,
,,,,,,,,,,,,,,,,,,,,,,,,,,,,,,,,,,,,,,,,,,5b1123b61e55760001b9cfd9,606cad273e67cbf8a9940177,2021-04-06_20h49.28.271,Colour_Similarity_Experiment,2020.2.10,Win32,60,6067542a4a25243f4d7d4fcf,8.15990991,6.969769795,6.968960864,6.975862069,6.968523002,6.969769795,,,,,,,,,,,,,,,,,,,,PF,strong,7,,,,,,,,5,0.897,,,,,,,,,,,,,,,,,,,,,,,,,,,,3,strong,114,-51,1,0,0,response3disk,2,89,-13,18,1,0,0,rectangle,-13,18,1,0,0,6,7,0.001,-13,18,1,0,0,0,88,88,93,1,0,,,,,,,,,,,,,,,,,,,,,
,,,,,,,,,,,,,,,,,,,,,,,,,,,,,,,,,,,,,,,,,,5b1123b61e55760001b9cfd9,606cad273e67cbf8a9940177,2021-04-06_20h49.28.271,Colour_Similarity_Experiment,2020.2.10,Win32,60,6067542a4a25243f4d7d4fcf,8.15990991,6.969769795,6.968960864,6.975862069,6.968523002,6.969769795,,,,,,,,,,,,,,,,,,,,PF,weak,7,,,,,,,,5,0.249,,,,,,,,,,,,,,,,,,,,,,,,,,,,1,weak,111,-61,1,0,0,response3disk,8,90,-2,20,1,0,0,rectangle,-2,20,1,0,0,6,7,0.001,-2,20,1,0,0,0,89,89,65,1,0,,,,,,,,,,,,,,,,,,,,,
,,,,,,,,,,,,,,,,,,,,,,,,,,,,,,,,,,,,,,,,,,5b1123b61e55760001b9cfd9,606cad273e67cbf8a9940177,2021-04-06_20h49.28.271,Colour_Similarity_Experiment,2020.2.10,Win32,60,6067542a4a25243f4d7d4fcf,8.15990991,6.969769795,6.968960864,6.975862069,6.968523002,6.969769795,,,,,,,,,,,,,,,,,,,,PF,weak,7,,,,,,,,7,1.612,,,,,,,,,,,,,,,,,,,,,,,,,,,,1,weak,65,110,1,0,0,response1disk,7,91,-12,-9,1,0,0,rectangle,-12,-9,1,0,0,6,4,0.002,-12,-9,1,0,0,0,90,90,150,1,0,,,,,,,,,,,,,,,,,,,,,
,,,,,,,,,,,,,,,,,,,,,,,,,,,,,,,,,,,,,,,,,,5b1123b61e55760001b9cfd9,606cad273e67cbf8a9940177,2021-04-06_20h49.28.271,Colour_Similarity_Experiment,2020.2.10,Win32,60,6067542a4a25243f4d7d4fcf,8.15990991,6.969769795,6.968960864,6.975862069,6.968523002,6.969769795,,,,,,,,,,,,,,,,,,,,PF,weak,7,,,,,,,,5,0.709,,,,,,,,,,,,,,,,,,,,,,,,,,,,2,weak,165,-80,1,0,0,response3disk,6,92,-9,4,1,0,0,rectangle,-9,4,1,0,0,6,0,0.001,-9,4,1,0,0,0,91,91,113,1,0,,,,,,,,,,,,,,,,,,,,,
,,,,,,,,,,,,,,,,,,,,,,,,,,,,,,,,,,,,,,,,,,5b1123b61e55760001b9cfd9,606cad273e67cbf8a9940177,2021-04-06_20h49.28.271,Colour_Similarity_Experiment,2020.2.10,Win32,60,6067542a4a25243f4d7d4fcf,8.15990991,6.969769795,6.968960864,6.975862069,6.968523002,6.969769795,,,,,,,,,,,,,,,,,,,,PF,weak,7,,,,,,,,5,0.68,,,,,,,,,,,,,,,,,,,,,,,,,,,,1,weak,107,-38,1,0,0,response3disk,3,93,8,5,1,0,0,rectangle,8,5,1,0,0,6,2,0.001,8,5,1,0,0,0,92,92,1,1,0,,,,,,,,,,,,,,,,,,,,,
,,,,,,,,,,,,,,,,,,,,,,,,,,,,,,,,,,,,,,,,,,5b1123b61e55760001b9cfd9,606cad273e67cbf8a9940177,2021-04-06_20h49.28.271,Colour_Similarity_Experiment,2020.2.10,Win32,60,6067542a4a25243f4d7d4fcf,8.15990991,6.969769795,6.968960864,6.975862069,6.968523002,6.969769795,,,,,,,,,,,,,,,,,,,,PF,strong,7,,,,,,,,4,1.015,,,,,,,,,,,,,,,,,,,,,,,,,,,,2,strong,52,-119,1,0,0,response3disk,3,94,13,-9,1,0,0,rectangle,-92,-51,1,0,0,6,2,2.099,2,-6,1,0,0,0,93,93,104,1,1,response5disk_3,rectangle,,,,,,,,,,,,,,,,,,,
,,,,,,,,,,,,,,,,,,,,,,,,,,,,,,,,,,,,,,,,,,5b1123b61e55760001b9cfd9,606cad273e67cbf8a9940177,2021-04-06_20h49.28.271,Colour_Similarity_Experiment,2020.2.10,Win32,60,6067542a4a25243f4d7d4fcf,8.15990991,6.969769795,6.968960864,6.975862069,6.968523002,6.969769795,,,,,,,,,,,,,,,,,,,,PF,weak,7,,,,,,,,4,0.959,,,,,,,,,,,,,,,,,,,,,,,,,,,,9,weak,45,-97,1,0,0,response3disk,4,95,10,-13,1,0,0,rectangle,10,-13,1,0,0,6,7,0.001,10,-13,1,0,0,0,94,94,114,1,0,,,,,,,,,,,,,,,,,,,,,
,,,,,,,,,,,,,,,,,,,,,,,,,,,,,,,,,,,,,,,,,,5b1123b61e55760001b9cfd9,606cad273e67cbf8a9940177,2021-04-06_20h49.28.271,Colour_Similarity_Experiment,2020.2.10,Win32,60,6067542a4a25243f4d7d4fcf,8.15990991,6.969769795,6.968960864,6.975862069,6.968523002,6.969769795,,,,,,,,,,,,,,,,,,,,PF,strong,7,,,,,,,,5,0.334,,,,,,,,,,,,,,,,,,,,,,,,,,,,5,strong,119,-64,1,0,0,response3disk,5,96,-5,3,1,0,0,rectangle,-5,3,1,0,0,6,6,0.001,-5,3,1,0,0,0,95,95,19,1,0,,,,,,,,,,,,,,,,,,,,,
,,,,,,,,,,,,,,,,,,,,,,,,,,,,,,,,,,,,,,,,,,5b1123b61e55760001b9cfd9,606cad273e67cbf8a9940177,2021-04-06_20h49.28.271,Colour_Similarity_Experiment,2020.2.10,Win32,60,6067542a4a25243f4d7d4fcf,8.15990991,6.969769795,6.968960864,6.975862069,6.968523002,6.969769795,,,,,,,,,,,,,,,,,,,,PF,strong,7,,,,,,,,1,0.904,,,,,,,,,,,,,,,,,,,,,,,,,,,,7,strong,-91,42,1,0,0,response7disk,5,97,14,-9,1,0,0,rectangle,14,-9,1,0,0,6,2,0.001,14,-9,1,0,0,0,96,96,156,1,0,,,,,,,,,,,,,,,,,,,,,
,,,,,,,,,,,,,,,,,,,,,,,,,,,,,,,,,,,,,,,,,,5b1123b61e55760001b9cfd9,606cad273e67cbf8a9940177,2021-04-06_20h49.28.271,Colour_Similarity_Experiment,2020.2.10,Win32,60,6067542a4a25243f4d7d4fcf,8.15990991,6.969769795,6.968960864,6.975862069,6.968523002,6.969769795,,,,,,,,,,,,,,,,,,,,PF,weak,7,,,,,,,,5,0.793,,,,,,,,,,,,,,,,,,,,,,,,,,,,4,weak,86,-36,1,0,0,response3disk,8,98,-1,-6,1,0,0,rectangle,-1,-6,1,0,0,6,7,0.001,-1,-6,1,0,0,0,97,97,124,1,0,,,,,,,,,,,,,,,,,,,,,
,,,,,,,,,,,,,,,,,,,,,,,,,,,,,,,,,,,,,,,,,,5b1123b61e55760001b9cfd9,606cad273e67cbf8a9940177,2021-04-06_20h49.28.271,Colour_Similarity_Experiment,2020.2.10,Win32,60,6067542a4a25243f4d7d4fcf,8.15990991,6.969769795,6.968960864,6.975862069,6.968523002,6.969769795,,,,,,,,,,,,,,,,,,,,PF,weak,7,,,,,,,,7,1.62,,,,,,,,,,,,,,,,,,,,,,,,,,,,8,weak,68,144,1,0,0,response1disk,3,99,0,-2,1,0,0,rectangle,0,-2,1,0,0,6,4,0,0,-2,1,0,0,0,98,98,71,1,0,,,,,,,,,,,,,,,,,,,,,
,,,,,,,,,,,,,,,,,,,,,,,,,,,,,,,,,,,,,,,,,,5b1123b61e55760001b9cfd9,606cad273e67cbf8a9940177,2021-04-06_20h49.28.271,Colour_Similarity_Experiment,2020.2.10,Win32,60,6067542a4a25243f4d7d4fcf,8.15990991,6.969769795,6.968960864,6.975862069,6.968523002,6.969769795,,,,,,,,,,,,,,,,,,,,PF,strong,7,,,,,,,,5,0.966,,,,,,,,,,,,,,,,,,,,,,,,,,,,1,strong,56,-32,1,0,0,response3disk,6,100,10,0,1,0,0,rectangle,10,0,1,0,0,6,7,0.001,10,0,1,0,0,0,99,99,58,1,0,,,,,,,,,,,,,,,,,,,,,
,,,,,,,,,,,,,,,,,,,,,,,,,,,,,,,,,,,,,,,,,,5b1123b61e55760001b9cfd9,606cad273e67cbf8a9940177,2021-04-06_20h49.28.271,Colour_Similarity_Experiment,2020.2.10,Win32,60,6067542a4a25243f4d7d4fcf,8.15990991,6.969769795,6.968960864,6.975862069,6.968523002,6.969769795,,,,,,,,,,,,,,,,,,,,PF,weak,7,,,,,,,,4,0.701,,,,,,,,,,,,,,,,,,,,,,,,,,,,1,weak,43,-93,1,0,0,response3disk,4,101,10,-9,1,0,0,rectangle,10,-9,1,0,0,6,1,0,10,-9,1,0,0,0,100,100,139,1,0,,,,,,,,,,,,,,,,,,,,,
,,,,,,,,,,,,,,,,,,,,,,,,,,,,,,,,,,,,,,,,,,5b1123b61e55760001b9cfd9,606cad273e67cbf8a9940177,2021-04-06_20h49.28.271,Colour_Similarity_Experiment,2020.2.10,Win32,60,6067542a4a25243f4d7d4fcf,8.15990991,6.969769795,6.968960864,6.975862069,6.968523002,6.969769795,,,,,,,,,,,,,,,,,,,,PF,weak,7,,,,,,,,6,0.849,,,,,,,,,,,,,,,,,,,,,,,,,,,,5,weak,104,45,1,0,0,response1disk,9,102,31,-1,1,0,0,rectangle,69,134,1,0,0,7,7,1.634,-28,-5,1,0,0,0,101,101,136,1,1,response1disk_3,rectangle,,,,,,,,,,,,,,,,,,,
,,,,,,,,,,,,,,,,,,,,,,,,,,,,,,,,,,,,,,,,,,5b1123b61e55760001b9cfd9,606cad273e67cbf8a9940177,2021-04-06_20h49.28.271,Colour_Similarity_Experiment,2020.2.10,Win32,60,6067542a4a25243f4d7d4fcf,8.15990991,6.969769795,6.968960864,6.975862069,6.968523002,6.969769795,,,,,,,,,,,,,,,,,,,,PF,strong,7,,,,,,,,6,1.933,,,,,,,,,,,,,,,,,,,,,,,,,,,,6,strong,153,104,1,0,0,response1disk,4,103,-10,10,1,0,0,rectangle,-10,10,1,0,0,7,4,0,-10,10,1,0,0,0,102,102,56,1,0,,,,,,,,,,,,,,,,,,,,,
,,,,,,,,,,,,,,,,,,,,,,,,,,,,,,,,,,,,,,,,,,5b1123b61e55760001b9cfd9,606cad273e67cbf8a9940177,2021-04-06_20h49.28.271,Colour_Similarity_Experiment,2020.2.10,Win32,60,6067542a4a25243f4d7d4fcf,8.15990991,6.969769795,6.968960864,6.975862069,6.968523002,6.969769795,,,,,,,,,,,,,,,,,,,,PF,weak,7,,,,,,,,4,1.697,,,,,,,,,,,,,,,,,,,,,,,,,,,,9,weak,65,-82,1,0,0,response3disk,5,104,11,17,1,0,0,rectangle,11,17,1,0,0,7,5,0,11,17,1,0,0,0,103,103,134,1,0,,,,,,,,,,,,,,,,,,,,,
,,,,,,,,,,,,,,,,,,,,,,,,,,,,,,,,,,,,,,,,,,5b1123b61e55760001b9cfd9,606cad273e67cbf8a9940177,2021-04-06_20h49.28.271,Colour_Similarity_Experiment,2020.2.10,Win32,60,6067542a4a25243f4d7d4fcf,8.15990991,6.969769795,6.968960864,6.975862069,6.968523002,6.969769795,,,,,,,,,,,,,,,,,,,,PF,strong,7,,,,,,,,5,2.072,,,,,,,,,,,,,,,,,,,,,,,,,,,,4,strong,103,-76,1,0,0,response3disk,9,105,5,18,1,0,0,rectangle,5,18,1,0,0,7,7,0,5,18,1,0,0,0,104,104,90,1,0,,,,,,,,,,,,,,,,,,,,,
,,,,,,,,,,,,,,,,,,,,,,,,,,,,,,,,,,,,,,,,,,5b1123b61e55760001b9cfd9,606cad273e67cbf8a9940177,2021-04-06_20h49.28.271,Colour_Similarity_Experiment,2020.2.10,Win32,60,6067542a4a25243f4d7d4fcf,8.15990991,6.969769795,6.968960864,6.975862069,6.968523002,6.969769795,,,,,,,,,,,,,,,,,,,,PF,strong,7,,,,,,,,1,1.245,,,,,,,,,,,,,,,,,,,,,,,,,,,,3,strong,-74,48,1,0,0,response7disk,3,106,28,-18,1,0,0,rectangle,28,-18,1,0,0,7,1,0.001,28,-18,1,0,0,0,105,105,68,1,0,,,,,,,,,,,,,,,,,,,,,
,,,,,,,,,,,,,,,,,,,,,,,,,,,,,,,,,,,,,,,,,,5b1123b61e55760001b9cfd9,606cad273e67cbf8a9940177,2021-04-06_20h49.28.271,Colour_Similarity_Experiment,2020.2.10,Win32,60,6067542a4a25243f4d7d4fcf,8.15990991,6.969769795,6.968960864,6.975862069,6.968523002,6.969769795,,,,,,,,,,,,,,,,,,,,PF,strong,7,,,,,,,,5,1.042,,,,,,,,,,,,,,,,,,,,,,,,,,,,2,strong,97,-67,1,0,0,response3disk,5,107,-47,5,1,0,0,rectangle,-47,5,1,0,0,7,0,0.001,-47,5,1,0,0,0,106,106,80,1,0,,,,,,,,,,,,,,,,,,,,,
,,,,,,,,,,,,,,,,,,,,,,,,,,,,,,,,,,,,,,,,,,5b1123b61e55760001b9cfd9,606cad273e67cbf8a9940177,2021-04-06_20h49.28.271,Colour_Similarity_Experiment,2020.2.10,Win32,60,6067542a4a25243f4d7d4fcf,8.15990991,6.969769795,6.968960864,6.975862069,6.968523002,6.969769795,,,,,,,,,,,,,,,,,,,,PF,weak,7,,,,,,,,0,0.981,,,,,,,,,,,,,,,,,,,,,,,,,,,,9,weak,-72,105,1,0,0,response7disk,9,108,17,4,1,0,0,rectangle,17,4,1,0,0,7,1,0,17,4,1,0,0,0,107,107,106,1,0,,,,,,,,,,,,,,,,,,,,,
,,,,,,,,,,,,,,,,,,,,,,,,,,,,,,,,,,,,,,,,,,5b1123b61e55760001b9cfd9,606cad273e67cbf8a9940177,2021-04-06_20h49.28.271,Colour_Similarity_Experiment,2020.2.10,Win32,60,6067542a4a25243f4d7d4fcf,8.15990991,6.969769795,6.968960864,6.975862069,6.968523002,6.969769795,,,,,,,,,,,,,,,,,,,,PF,weak,7,,,,,,,,0,0.771,,,,,,,,,,,,,,,,,,,,,,,,,,,,6,weak,-59,138,1,0,0,response7disk,6,109,-37,2,1,0,0,rectangle,-37,2,1,0,0,7,3,0.001,-37,2,1,0,0,0,108,108,0,1,0,,,,,,,,,,,,,,,,,,,,,
,,,,,,,,,,,,,,,,,,,,,,,,,,,,,,,,,,,,,,,,,,5b1123b61e55760001b9cfd9,606cad273e67cbf8a9940177,2021-04-06_20h49.28.271,Colour_Similarity_Experiment,2020.2.10,Win32,60,6067542a4a25243f4d7d4fcf,8.15990991,6.969769795,6.968960864,6.975862069,6.968523002,6.969769795,,,,,,,,,,,,,,,,,,,,PF,weak,7,,,,,,,,0,0.799,,,,,,,,,,,,,,,,,,,,,,,,,,,,3,weak,-47,108,1,0,0,response7disk,4,110,-2,2,1,0,0,rectangle,-2,2,1,0,0,7,7,0.001,-2,2,1,0,0,0,109,109,30,1,0,,,,,,,,,,,,,,,,,,,,,
,,,,,,,,,,,,,,,,,,,,,,,,,,,,,,,,,,,,,,,,,,5b1123b61e55760001b9cfd9,606cad273e67cbf8a9940177,2021-04-06_20h49.28.271,Colour_Similarity_Experiment,2020.2.10,Win32,60,6067542a4a25243f4d7d4fcf,8.15990991,6.969769795,6.968960864,6.975862069,6.968523002,6.969769795,,,,,,,,,,,,,,,,,,,,PF,strong,7,,,,,,,,6,1.022,,,,,,,,,,,,,,,,,,,,,,,,,,,,9,strong,90,53,1,0,0,response1disk,6,111,-23,-9,1,0,0,rectangle,-23,-9,1,0,0,7,2,0.001,-23,-9,1,0,0,0,110,110,117,1,0,,,,,,,,,,,,,,,,,,,,,
,,,,,,,,,,,,,,,,,,,,,,,,,,,,,,,,,,,,,,,,,,5b1123b61e55760001b9cfd9,606cad273e67cbf8a9940177,2021-04-06_20h49.28.271,Colour_Similarity_Experiment,2020.2.10,Win32,60,6067542a4a25243f4d7d4fcf,8.15990991,6.969769795,6.968960864,6.975862069,6.968523002,6.969769795,,,,,,,,,,,,,,,,,,,,PF,weak,7,,,,,,,,6,0.736,,,,,,,,,,,,,,,,,,,,,,,,,,,,8,weak,140,75,1,0,0,response1disk,6,112,1,2,1,0,0,rectangle,-37,-114,1,0,0,3,3,2.649,20,5,1,0,0,0,111,111,161,1,1,response5disk_3,rectangle,,,,,,,,,,,,,,,,,,,
,,,,,,,,,,,,,,,,,,,,,,,,,,,,,,,,,,,,,,,,,,5b1123b61e55760001b9cfd9,606cad273e67cbf8a9940177,2021-04-06_20h49.28.271,Colour_Similarity_Experiment,2020.2.10,Win32,60,6067542a4a25243f4d7d4fcf,8.15990991,6.969769795,6.968960864,6.975862069,6.968523002,6.969769795,,,,,,,,,,,,,,,,,,,,PF,weak,7,,,,,,,,7,0.98,,,,,,,,,,,,,,,,,,,,,,,,,,,,5,weak,74,150,1,0,0,response1disk,1,113,8,-13,1,0,0,rectangle,-82,-48,1,0,0,3,2,1.244,32,8,1,0,0,0,112,112,159,1,1,response5disk_3,rectangle,,,,,,,,,,,,,,,,,,,
,,,,,,,,,,,,,,,,,,,,,,,,,,,,,,,,,,,,,,,,,,5b1123b61e55760001b9cfd9,606cad273e67cbf8a9940177,2021-04-06_20h49.28.271,Colour_Similarity_Experiment,2020.2.10,Win32,60,6067542a4a25243f4d7d4fcf,8.15990991,6.969769795,6.968960864,6.975862069,6.968523002,6.969769795,,,,,,,,,,,,,,,,,,,,PF,strong,7,,,,,,,,0,0.973,,,,,,,,,,,,,,,,,,,,,,,,,,,,9,strong,-48,116,1,0,0,response7disk,9,114,-1,5,1,0,0,rectangle,-1,5,1,0,0,3,6,0.001,-1,5,1,0,0,0,113,113,17,1,0,,,,,,,,,,,,,,,,,,,,,
,,,,,,,,,,,,,,,,,,,,,,,,,,,,,,,,,,,,,,,,,,5b1123b61e55760001b9cfd9,606cad273e67cbf8a9940177,2021-04-06_20h49.28.271,Colour_Similarity_Experiment,2020.2.10,Win32,60,6067542a4a25243f4d7d4fcf,8.15990991,6.969769795,6.968960864,6.975862069,6.968523002,6.969769795,,,,,,,,,,,,,,,,,,,,PF,weak,7,,,,,,,,7,1.105,,,,,,,,,,,,,,,,,,,,,,,,,,,,3,weak,61,71,1,0,0,response1disk,1,115,20,-7,1,0,0,rectangle,20,-7,1,0,0,3,5,0.001,20,-7,1,0,0,0,114,114,96,1,0,,,,,,,,,,,,,,,,,,,,,
,,,,,,,,,,,,,,,,,,,,,,,,,,,,,,,,,,,,,,,,,,5b1123b61e55760001b9cfd9,606cad273e67cbf8a9940177,2021-04-06_20h49.28.271,Colour_Similarity_Experiment,2020.2.10,Win32,60,6067542a4a25243f4d7d4fcf,8.15990991,6.969769795,6.968960864,6.975862069,6.968523002,6.969769795,,,,,,,,,,,,,,,,,,,,PF,weak,7,,,,,,,,2,1.265,,,,,,,,,,,,,,,,,,,,,,,,,,,,4,weak,-93,-54,1,0,0,response5disk,5,116,22,-6,1,0,0,rectangle,22,-6,1,0,0,3,5,0,22,-6,1,0,0,0,115,115,49,1,0,,,,,,,,,,,,,,,,,,,,,
,,,,,,,,,,,,,,,,,,,,,,,,,,,,,,,,,,,,,,,,,,5b1123b61e55760001b9cfd9,606cad273e67cbf8a9940177,2021-04-06_20h49.28.271,Colour_Similarity_Experiment,2020.2.10,Win32,60,6067542a4a25243f4d7d4fcf,8.15990991,6.969769795,6.968960864,6.975862069,6.968523002,6.969769795,,,,,,,,,,,,,,,,,,,,PF,strong,7,,,,,,,,4,1.091,,,,,,,,,,,,,,,,,,,,,,,,,,,,4,strong,39,-95,1,0,0,response3disk,5,117,-11,6,1,0,0,rectangle,-11,6,1,0,0,3,2,0,-11,6,1,0,0,0,116,116,116,1,0,,,,,,,,,,,,,,,,,,,,,
,,,,,,,,,,,,,,,,,,,,,,,,,,,,,,,,,,,,,,,,,,5b1123b61e55760001b9cfd9,606cad273e67cbf8a9940177,2021-04-06_20h49.28.271,Colour_Similarity_Experiment,2020.2.10,Win32,60,6067542a4a25243f4d7d4fcf,8.15990991,6.969769795,6.968960864,6.975862069,6.968523002,6.969769795,,,,,,,,,,,,,,,,,,,,PF,weak,7,,,,,,,,1,1.231,,,,,,,,,,,,,,,,,,,,,,,,,,,,6,weak,-116,49,1,0,0,response7disk,7,118,12,-7,1,0,0,rectangle,12,-7,1,0,0,3,0,0,12,-7,1,0,0,0,117,117,50,1,0,,,,,,,,,,,,,,,,,,,,,
,,,,,,,,,,,,,,,,,,,,,,,,,,,,,,,,,,,,,,,,,,5b1123b61e55760001b9cfd9,606cad273e67cbf8a9940177,2021-04-06_20h49.28.271,Colour_Similarity_Experiment,2020.2.10,Win32,60,6067542a4a25243f4d7d4fcf,8.15990991,6.969769795,6.968960864,6.975862069,6.968523002,6.969769795,,,,,,,,,,,,,,,,,,,,PF,strong,7,,,,,,,,3,0.96,,,,,,,,,,,,,,,,,,,,,,,,,,,,5,strong,-43,-116,1,0,0,response5disk,3,119,6,-13,1,0,0,rectangle,6,-13,1,0,0,3,2,0.001,6,-13,1,0,0,0,118,118,25,1,0,,,,,,,,,,,,,,,,,,,,,
,,,,,,,,,,,,,,,,,,,,,,,,,,,,,,,,,,,,,,,,,,5b1123b61e55760001b9cfd9,606cad273e67cbf8a9940177,2021-04-06_20h49.28.271,Colour_Similarity_Experiment,2020.2.10,Win32,60,6067542a4a25243f4d7d4fcf,8.15990991,6.969769795,6.968960864,6.975862069,6.968523002,6.969769795,,,,,,,,,,,,,,,,,,,,PF,strong,7,,,,,,,,5,0.855,,,,,,,,,,,,,,,,,,,,,,,,,,,,2,strong,83,-51,1,0,0,response3disk,1,120,-10,6,1,0,0,rectangle,-10,6,1,0,0,3,2,0.001,-10,6,1,0,0,0,119,119,85,1,0,,,,,,,,,,,,,,,,,,,,,
,,,,,,,,,,,,,,,,,,,,,,,,,,,,,,,,,,,,,,,,,,5b1123b61e55760001b9cfd9,606cad273e67cbf8a9940177,2021-04-06_20h49.28.271,Colour_Similarity_Experiment,2020.2.10,Win32,60,6067542a4a25243f4d7d4fcf,8.15990991,6.969769795,6.968960864,6.975862069,6.968523002,6.969769795,,,,,,,,,,,,,,,,,,,,PF,weak,7,,,,,,,,2,1.786,,,,,,,,,,,,,,,,,,,,,,,,,,,,8,weak,-110,-55,1,0,0,response5disk,5,121,21,12,1,0,0,rectangle,21,12,1,0,0,3,7,0.001,21,12,1,0,0,0,120,120,98,1,0,,,,,,,,,,,,,,,,,,,,,
,,,,,,,,,,,,,,,,,,,,,,,,,,,,,,,,,,,,,,,,,,5b1123b61e55760001b9cfd9,606cad273e67cbf8a9940177,2021-04-06_20h49.28.271,Colour_Similarity_Experiment,2020.2.10,Win32,60,6067542a4a25243f4d7d4fcf,8.15990991,6.969769795,6.968960864,6.975862069,6.968523002,6.969769795,,,,,,,,,,,,,,,,,,,,PF,strong,7,,,,,,,,5,1.778,,,,,,,,,,,,,,,,,,,,,,,,,,,,1,strong,36,-28,1,0,0,response3disk,8,122,25,-9,1,0,0,rectangle,25,-9,1,0,0,3,5,0,25,-9,1,0,0,0,121,121,27,1,0,,,,,,,,,,,,,,,,,,,,,
,,,,,,,,,,,,,,,,,,,,,,,,,,,,,,,,,,,,,,,,,,5b1123b61e55760001b9cfd9,606cad273e67cbf8a9940177,2021-04-06_20h49.28.271,Colour_Similarity_Experiment,2020.2.10,Win32,60,6067542a4a25243f4d7d4fcf,8.15990991,6.969769795,6.968960864,6.975862069,6.968523002,6.969769795,,,,,,,,,,,,,,,,,,,,PF,strong,7,,,,,,,,7,1.113,,,,,,,,,,,,,,,,,,,,,,,,,,,,9,strong,56,87,1,0,0,response1disk,2,123,23,-14,1,0,0,rectangle,103,68,1,0,0,6,6,1.869,-16,-14,1,0,0,0,122,122,11,1,1,response1disk_3,rectangle,,,,,,,,,,,,,,,,,,,
,,,,,,,,,,,,,,,,,,,,,,,,,,,,,,,,,,,,,,,,,,5b1123b61e55760001b9cfd9,606cad273e67cbf8a9940177,2021-04-06_20h49.28.271,Colour_Similarity_Experiment,2020.2.10,Win32,60,6067542a4a25243f4d7d4fcf,8.15990991,6.969769795,6.968960864,6.975862069,6.968523002,6.969769795,,,,,,,,,,,,,,,,,,,,PF,weak,7,,,,,,,,6,1.599,,,,,,,,,,,,,,,,,,,,,,,,,,,,6,weak,98,38,1,0,0,response1disk,2,124,1,-7,1,0,0,rectangle,1,-7,1,0,0,6,1,0,1,-7,1,0,0,0,123,123,130,1,0,,,,,,,,,,,,,,,,,,,,,
,,,,,,,,,,,,,,,,,,,,,,,,,,,,,,,,,,,,,,,,,,5b1123b61e55760001b9cfd9,606cad273e67cbf8a9940177,2021-04-06_20h49.28.271,Colour_Similarity_Experiment,2020.2.10,Win32,60,6067542a4a25243f4d7d4fcf,8.15990991,6.969769795,6.968960864,6.975862069,6.968523002,6.969769795,,,,,,,,,,,,,,,,,,,,PF,weak,7,,,,,,,,7,1.439,,,,,,,,,,,,,,,,,,,,,,,,,,,,8,weak,58,113,1,0,0,response1disk,4,125,8,-2,1,0,0,rectangle,8,-2,1,0,0,6,4,0.001,8,-2,1,0,0,0,124,124,78,1,0,,,,,,,,,,,,,,,,,,,,,
,,,,,,,,,,,,,,,,,,,,,,,,,,,,,,,,,,,,,,,,,,5b1123b61e55760001b9cfd9,606cad273e67cbf8a9940177,2021-04-06_20h49.28.271,Colour_Similarity_Experiment,2020.2.10,Win32,60,6067542a4a25243f4d7d4fcf,8.15990991,6.969769795,6.968960864,6.975862069,6.968523002,6.969769795,,,,,,,,,,,,,,,,,,,,PF,strong,7,,,,,,,,4,1.043,,,,,,,,,,,,,,,,,,,,,,,,,,,,7,strong,66,-113,1,0,0,response3disk,6,126,-16,0,1,0,0,rectangle,-16,0,1,0,0,6,3,0.001,-16,0,1,0,0,0,125,125,31,1,0,,,,,,,,,,,,,,,,,,,,,
,,,,,,,,,,,,,,,,,,,,,,,,,,,,,,,,,,,,,,,,,,5b1123b61e55760001b9cfd9,606cad273e67cbf8a9940177,2021-04-06_20h49.28.271,Colour_Similarity_Experiment,2020.2.10,Win32,60,6067542a4a25243f4d7d4fcf,8.15990991,6.969769795,6.968960864,6.975862069,6.968523002,6.969769795,,,,,,,,,,,,,,,,,,,,PF,strong,7,,,,,,,,5,0.981,,,,,,,,,,,,,,,,,,,,,,,,,,,,2,strong,83,-67,1,0,0,response3disk,4,127,-16,0,1,0,0,rectangle,-16,0,1,0,0,6,6,0.001,-16,0,1,0,0,0,126,126,145,1,0,,,,,,,,,,,,,,,,,,,,,
,,,,,,,,,,,,,,,,,,,,,,,,,,,,,,,,,,,,,,,,,,5b1123b61e55760001b9cfd9,606cad273e67cbf8a9940177,2021-04-06_20h49.28.271,Colour_Similarity_Experiment,2020.2.10,Win32,60,6067542a4a25243f4d7d4fcf,8.15990991,6.969769795,6.968960864,6.975862069,6.968523002,6.969769795,,,,,,,,,,,,,,,,,,,,PF,strong,7,,,,,,,,6,1.627,,,,,,,,,,,,,,,,,,,,,,,,,,,,7,strong,113,51,1,0,0,response1disk,2,128,-7,-16,1,0,0,rectangle,-7,-16,1,0,0,6,6,0,-7,-16,1,0,0,0,127,127,138,1,0,,,,,,,,,,,,,,,,,,,,,
,,,,,,,,,,,,,,,,,,,,,,,,,,,,,,,,,,,,,,,,,,5b1123b61e55760001b9cfd9,606cad273e67cbf8a9940177,2021-04-06_20h49.28.271,Colour_Similarity_Experiment,2020.2.10,Win32,60,6067542a4a25243f4d7d4fcf,8.15990991,6.969769795,6.968960864,6.975862069,6.968523002,6.969769795,,,,,,,,,,,,,,,,,,,,PF,strong,7,,,,,,,,7,1.223,,,,,,,,,,,,,,,,,,,,,,,,,,,,1,strong,44,92,1,0,0,response1disk,2,129,2,-8,1,0,0,rectangle,2,-8,1,0,0,6,7,0.001,2,-8,1,0,0,0,128,128,2,1,0,,,,,,,,,,,,,,,,,,,,,
,,,,,,,,,,,,,,,,,,,,,,,,,,,,,,,,,,,,,,,,,,5b1123b61e55760001b9cfd9,606cad273e67cbf8a9940177,2021-04-06_20h49.28.271,Colour_Similarity_Experiment,2020.2.10,Win32,60,6067542a4a25243f4d7d4fcf,8.15990991,6.969769795,6.968960864,6.975862069,6.968523002,6.969769795,,,,,,,,,,,,,,,,,,,,PF,strong,7,,,,,,,,7,0.821,,,,,,,,,,,,,,,,,,,,,,,,,,,,8,strong,81,123,1,0,0,response1disk,2,130,8,2,1,0,0,rectangle,8,2,1,0,0,6,1,0.001,8,2,1,0,0,0,129,129,22,1,0,,,,,,,,,,,,,,,,,,,,,
,,,,,,,,,,,,,,,,,,,,,,,,,,,,,,,,,,,,,,,,,,5b1123b61e55760001b9cfd9,606cad273e67cbf8a9940177,2021-04-06_20h49.28.271,Colour_Similarity_Experiment,2020.2.10,Win32,60,6067542a4a25243f4d7d4fcf,8.15990991,6.969769795,6.968960864,6.975862069,6.968523002,6.969769795,,,,,,,,,,,,,,,,,,,,PF,strong,7,,,,,,,,7,0.841,,,,,,,,,,,,,,,,,,,,,,,,,,,,1,strong,51,102,1,0,0,response1disk,9,131,5,16,1,0,0,rectangle,5,16,1,0,0,6,3,0,5,16,1,0,0,0,130,130,123,1,0,,,,,,,,,,,,,,,,,,,,,
,,,,,,,,,,,,,,,,,,,,,,,,,,,,,,,,,,,,,,,,,,5b1123b61e55760001b9cfd9,606cad273e67cbf8a9940177,2021-04-06_20h49.28.271,Colour_Similarity_Experiment,2020.2.10,Win32,60,6067542a4a25243f4d7d4fcf,8.15990991,6.969769795,6.968960864,6.975862069,6.968523002,6.969769795,,,,,,,,,,,,,,,,,,,,PF,weak,7,,,,,,,,7,1.523,,,,,,,,,,,,,,,,,,,,,,,,,,,,2,weak,70,125,1,0,0,response1disk,8,132,25,-2,1,0,0,rectangle,25,-2,1,0,0,6,6,0,25,-2,1,0,0,0,131,131,52,1,0,,,,,,,,,,,,,,,,,,,,,
,,,,,,,,,,,,,,,,,,,,,,,,,,,,,,,,,,,,,,,,,,5b1123b61e55760001b9cfd9,606cad273e67cbf8a9940177,2021-04-06_20h49.28.271,Colour_Similarity_Experiment,2020.2.10,Win32,60,6067542a4a25243f4d7d4fcf,8.15990991,6.969769795,6.968960864,6.975862069,6.968523002,6.969769795,,,,,,,,,,,,,,,,,,,,PF,weak,7,,,,,,,,3,1.314,,,,,,,,,,,,,,,,,,,,,,,,,,,,3,weak,-43,-95,1,0,0,response5disk,5,133,-25,15,1,0,0,rectangle,-25,15,1,0,0,6,0,0,-25,15,1,0,0,0,132,132,66,1,0,,,,,,,,,,,,,,,,,,,,,
,,,,,,,,,,,,,,,,,,,,,,,,,,,,,,,,,,,,,,,,,,5b1123b61e55760001b9cfd9,606cad273e67cbf8a9940177,2021-04-06_20h49.28.271,Colour_Similarity_Experiment,2020.2.10,Win32,60,6067542a4a25243f4d7d4fcf,8.15990991,6.969769795,6.968960864,6.975862069,6.968523002,6.969769795,,,,,,,,,,,,,,,,,,,,PF,weak,7,,,,,,,,1,1.301,,,,,,,,,,,,,,,,,,,,,,,,,,,,5,weak,-112,59,1,0,0,response7disk,7,134,11,-16,1,0,0,rectangle,11,-16,1,0,0,6,7,0.001,11,-16,1,0,0,0,133,133,146,1,0,,,,,,,,,,,,,,,,,,,,,
,,,,,,,,,,,,,,,,,,,,,,,,,,,,,,,,,,,,,,,,,,5b1123b61e55760001b9cfd9,606cad273e67cbf8a9940177,2021-04-06_20h49.28.271,Colour_Similarity_Experiment,2020.2.10,Win32,60,6067542a4a25243f4d7d4fcf,8.15990991,6.969769795,6.968960864,6.975862069,6.968523002,6.969769795,,,,,,,,,,,,,,,,,,,,PF,weak,7,,,,,,,,6,1.404,,,,,,,,,,,,,,,,,,,,,,,,,,,,4,weak,77,65,1,0,0,response1disk,9,135,1,-4,1,0,0,rectangle,1,-4,1,0,0,6,6,0,1,-4,1,0,0,0,134,134,75,1,0,,,,,,,,,,,,,,,,,,,,,
,,,,,,,,,,,,,,,,,,,,,,,,,,,,,,,,,,,,,,,,,,5b1123b61e55760001b9cfd9,606cad273e67cbf8a9940177,2021-04-06_20h49.28.271,Colour_Similarity_Experiment,2020.2.10,Win32,60,6067542a4a25243f4d7d4fcf,8.15990991,6.969769795,6.968960864,6.975862069,6.968523002,6.969769795,,,,,,,,,,,,,,,,,,,,PF,strong,7,,,,,,,,7,1.209,,,,,,,,,,,,,,,,,,,,,,,,,,,,9,strong,56,102,1,0,0,response1disk,1,136,5,-17,1,0,0,rectangle,5,-17,1,0,0,6,3,0,5,-17,1,0,0,0,135,135,111,1,0,,,,,,,,,,,,,,,,,,,,,
,,,,,,,,,,,,,,,,,,,,,,,,,,,,,,,,,,,,,,,,,,5b1123b61e55760001b9cfd9,606cad273e67cbf8a9940177,2021-04-06_20h49.28.271,Colour_Similarity_Experiment,2020.2.10,Win32,60,6067542a4a25243f4d7d4fcf,8.15990991,6.969769795,6.968960864,6.975862069,6.968523002,6.969769795,,,,,,,,,,,,,,,,,,,,PF,strong,7,,,,,,,,4,1.342,,,,,,,,,,,,,,,,,,,,,,,,,,,,7,strong,50,-92,1,0,0,response3disk,9,137,-2,2,1,0,0,rectangle,-2,2,1,0,0,6,2,0.001,-2,2,1,0,0,0,136,136,155,1,0,,,,,,,,,,,,,,,,,,,,,
,,,,,,,,,,,,,,,,,,,,,,,,,,,,,,,,,,,,,,,,,,5b1123b61e55760001b9cfd9,606cad273e67cbf8a9940177,2021-04-06_20h49.28.271,Colour_Similarity_Experiment,2020.2.10,Win32,60,6067542a4a25243f4d7d4fcf,8.15990991,6.969769795,6.968960864,6.975862069,6.968523002,6.969769795,,,,,,,,,,,,,,,,,,,,PF,strong,7,,,,,,,,5,1.015,,,,,,,,,,,,,,,,,,,,,,,,,,,,3,strong,80,-35,1,0,0,response3disk,8,138,35,0,1,0,0,rectangle,35,0,1,0,0,6,1,0,35,0,1,0,0,0,137,137,44,1,0,,,,,,,,,,,,,,,,,,,,,
,,,,,,,,,,,,,,,,,,,,,,,,,,,,,,,,,,,,,,,,,,5b1123b61e55760001b9cfd9,606cad273e67cbf8a9940177,2021-04-06_20h49.28.271,Colour_Similarity_Experiment,2020.2.10,Win32,60,6067542a4a25243f4d7d4fcf,8.15990991,6.969769795,6.968960864,6.975862069,6.968523002,6.969769795,,,,,,,,,,,,,,,,,,,,PF,weak,7,,,,,,,,0,1.126,,,,,,,,,,,,,,,,,,,,,,,,,,,,2,weak,-58,111,1,0,0,response7disk,2,139,31,-15,1,0,0,rectangle,31,-15,1,0,0,6,7,0.001,31,-15,1,0,0,0,138,138,14,1,0,,,,,,,,,,,,,,,,,,,,,
,,,,,,,,,,,,,,,,,,,,,,,,,,,,,,,,,,,,,,,,,,5b1123b61e55760001b9cfd9,606cad273e67cbf8a9940177,2021-04-06_20h49.28.271,Colour_Similarity_Experiment,2020.2.10,Win32,60,6067542a4a25243f4d7d4fcf,8.15990991,6.969769795,6.968960864,6.975862069,6.968523002,6.969769795,,,,,,,,,,,,,,,,,,,,PF,weak,7,,,,,,,,5,1.599,,,,,,,,,,,,,,,,,,,,,,,,,,,,3,weak,89,-46,1,0,0,response3disk,2,140,-5,3,1,0,0,rectangle,-40,122,1,0,0,0,0,1.918,-24,10,1,0,0,0,139,139,36,1,1,response7disk_3,rectangle,,,,,,,,,,,,,,,,,,,
,,,,,,,,,,,,,,,,,,,,,,,,,,,,,,,,,,,,,,,,,,5b1123b61e55760001b9cfd9,606cad273e67cbf8a9940177,2021-04-06_20h49.28.271,Colour_Similarity_Experiment,2020.2.10,Win32,60,6067542a4a25243f4d7d4fcf,8.15990991,6.969769795,6.968960864,6.975862069,6.968523002,6.969769795,,,,,,,,,,,,,,,,,,,,PF,weak,7,,,,,,,,0,1.745,,,,,,,,,,,,,,,,,,,,,,,,,,,,4,weak,-58,114,1,0,0,response7disk,4,141,15,14,1,0,0,rectangle,15,14,1,0,0,0,4,0,15,14,1,0,0,0,140,140,70,1,0,,,,,,,,,,,,,,,,,,,,,
,,,,,,,,,,,,,,,,,,,,,,,,,,,,,,,,,,,,,,,,,,5b1123b61e55760001b9cfd9,606cad273e67cbf8a9940177,2021-04-06_20h49.28.271,Colour_Similarity_Experiment,2020.2.10,Win32,60,6067542a4a25243f4d7d4fcf,8.15990991,6.969769795,6.968960864,6.975862069,6.968523002,6.969769795,,,,,,,,,,,,,,,,,,,,PF,weak,7,,,,,,,,1,0.966,,,,,,,,,,,,,,,,,,,,,,,,,,,,5,weak,-73,41,1,0,0,response7disk,4,142,-7,5,1,0,0,rectangle,-7,5,1,0,0,0,4,0,-7,5,1,0,0,0,141,141,54,1,0,,,,,,,,,,,,,,,,,,,,,
,,,,,,,,,,,,,,,,,,,,,,,,,,,,,,,,,,,,,,,,,,5b1123b61e55760001b9cfd9,606cad273e67cbf8a9940177,2021-04-06_20h49.28.271,Colour_Similarity_Experiment,2020.2.10,Win32,60,6067542a4a25243f4d7d4fcf,8.15990991,6.969769795,6.968960864,6.975862069,6.968523002,6.969769795,,,,,,,,,,,,,,,,,,,,PF,strong,7,,,,,,,,4,1.042,,,,,,,,,,,,,,,,,,,,,,,,,,,,8,strong,33,-71,1,0,0,response3disk,3,143,-1,-9,1,0,0,rectangle,-1,-9,1,0,0,0,6,0.001,-1,-9,1,0,0,0,142,142,154,1,0,,,,,,,,,,,,,,,,,,,,,
,,,,,,,,,,,,,,,,,,,,,,,,,,,,,,,,,,,,,,,,,,5b1123b61e55760001b9cfd9,606cad273e67cbf8a9940177,2021-04-06_20h49.28.271,Colour_Similarity_Experiment,2020.2.10,Win32,60,6067542a4a25243f4d7d4fcf,8.15990991,6.969769795,6.968960864,6.975862069,6.968523002,6.969769795,,,,,,,,,,,,,,,,,,,,PF,weak,7,,,,,,,,5,0.869,,,,,,,,,,,,,,,,,,,,,,,,,,,,2,weak,86,-41,1,0,0,response3disk,1,144,7,-4,1,0,0,rectangle,7,-4,1,0,0,0,3,0.001,7,-4,1,0,0,0,143,143,9,1,0,,,,,,,,,,,,,,,,,,,,,
,,,,,,,,,,,,,,,,,,,,,,,,,,,,,,,,,,,,,,,,,,5b1123b61e55760001b9cfd9,606cad273e67cbf8a9940177,2021-04-06_20h49.28.271,Colour_Similarity_Experiment,2020.2.10,Win32,60,6067542a4a25243f4d7d4fcf,8.15990991,6.969769795,6.968960864,6.975862069,6.968523002,6.969769795,,,,,,,,,,,,,,,,,,,,PF,weak,7,,,,,,,,7,1.042,,,,,,,,,,,,,,,,,,,,,,,,,,,,7,weak,67,143,1,0,0,response1disk,1,145,12,11,1,0,0,rectangle,12,11,1,0,0,0,6,0,12,11,1,0,0,0,144,144,53,1,0,,,,,,,,,,,,,,,,,,,,,
,,,,,,,,,,,,,,,,,,,,,,,,,,,,,,,,,,,,,,,,,,5b1123b61e55760001b9cfd9,606cad273e67cbf8a9940177,2021-04-06_20h49.28.271,Colour_Similarity_Experiment,2020.2.10,Win32,60,6067542a4a25243f4d7d4fcf,8.15990991,6.969769795,6.968960864,6.975862069,6.968523002,6.969769795,,,,,,,,,,,,,,,,,,,,PF,strong,7,,,,,,,,5,1.085,,,,,,,,,,,,,,,,,,,,,,,,,,,,3,strong,83,-43,1,0,0,response3disk,5,146,-3,2,1,0,0,rectangle,-3,2,1,0,0,0,5,0,-3,2,1,0,0,0,145,145,101,1,0,,,,,,,,,,,,,,,,,,,,,
,,,,,,,,,,,,,,,,,,,,,,,,,,,,,,,,,,,,,,,,,,5b1123b61e55760001b9cfd9,606cad273e67cbf8a9940177,2021-04-06_20h49.28.271,Colour_Similarity_Experiment,2020.2.10,Win32,60,6067542a4a25243f4d7d4fcf,8.15990991,6.969769795,6.968960864,6.975862069,6.968523002,6.969769795,,,,,,,,,,,,,,,,,,,,PF,strong,7,,,,,,,,1,1.676,,,,,,,,,,,,,,,,,,,,,,,,,,,,5,strong,-80,36,1,0,0,response7disk,6,147,15,-1,1,0,0,rectangle,15,-1,1,0,0,0,0,0,15,-1,1,0,0,0,146,146,12,1,0,,,,,,,,,,,,,,,,,,,,,
,,,,,,,,,,,,,,,,,,,,,,,,,,,,,,,,,,,,,,,,,,5b1123b61e55760001b9cfd9,606cad273e67cbf8a9940177,2021-04-06_20h49.28.271,Colour_Similarity_Experiment,2020.2.10,Win32,60,6067542a4a25243f4d7d4fcf,8.15990991,6.969769795,6.968960864,6.975862069,6.968523002,6.969769795,,,,,,,,,,,,,,,,,,,,PF,strong,7,,,,,,,,2,0.987,,,,,,,,,,,,,,,,,,,,,,,,,,,,4,strong,-92,-43,1,0,0,response5disk,7,148,39,8,1,0,0,rectangle,39,8,1,0,0,0,5,0,39,8,1,0,0,0,147,147,87,1,0,,,,,,,,,,,,,,,,,,,,,
,,,,,,,,,,,,,,,,,,,,,,,,,,,,,,,,,,,,,,,,,,5b1123b61e55760001b9cfd9,606cad273e67cbf8a9940177,2021-04-06_20h49.28.271,Colour_Similarity_Experiment,2020.2.10,Win32,60,6067542a4a25243f4d7d4fcf,8.15990991,6.969769795,6.968960864,6.975862069,6.968523002,6.969769795,,,,,,,,,,,,,,,,,,,,PF,strong,7,,,,,,,,4,1.105,,,,,,,,,,,,,,,,,,,,,,,,,,,,6,strong,29,-79,1,0,0,response3disk,9,149,-32,3,1,0,0,rectangle,38,117,1,0,0,7,7,1.495,-8,13,1,0,0,0,148,148,160,1,1,response1disk_3,rectangle,,,,,,,,,,,,,,,,,,,
,,,,,,,,,,,,,,,,,,,,,,,,,,,,,,,,,,,,,,,,,,5b1123b61e55760001b9cfd9,606cad273e67cbf8a9940177,2021-04-06_20h49.28.271,Colour_Similarity_Experiment,2020.2.10,Win32,60,6067542a4a25243f4d7d4fcf,8.15990991,6.969769795,6.968960864,6.975862069,6.968523002,6.969769795,,,,,,,,,,,,,,,,,,,,PF,strong,7,,,,,,,,5,2.559,,,,,,,,,,,,,,,,,,,,,,,,,,,,3,strong,95,-43,1,0,0,response3disk,7,150,5,6,1,0,0,rectangle,5,6,1,0,0,7,4,0.001,5,6,1,0,0,0,149,149,118,1,0,,,,,,,,,,,,,,,,,,,,,
,,,,,,,,,,,,,,,,,,,,,,,,,,,,,,,,,,,,,,,,,,5b1123b61e55760001b9cfd9,606cad273e67cbf8a9940177,2021-04-06_20h49.28.271,Colour_Similarity_Experiment,2020.2.10,Win32,60,6067542a4a25243f4d7d4fcf,8.15990991,6.969769795,6.968960864,6.975862069,6.968523002,6.969769795,,,,,,,,,,,,,,,,,,,,PF,strong,7,,,,,,,,7,0.987,,,,,,,,,,,,,,,,,,,,,,,,,,,,2,strong,35,149,1,0,0,response1disk,9,151,-4,20,1,0,0,rectangle,-4,20,1,0,0,7,4,0,-4,20,1,0,0,0,150,150,72,1,0,,,,,,,,,,,,,,,,,,,,,
,,,,,,,,,,,,,,,,,,,,,,,,,,,,,,,,,,,,,,,,,,5b1123b61e55760001b9cfd9,606cad273e67cbf8a9940177,2021-04-06_20h49.28.271,Colour_Similarity_Experiment,2020.2.10,Win32,60,6067542a4a25243f4d7d4fcf,8.15990991,6.969769795,6.968960864,6.975862069,6.968523002,6.969769795,,,,,,,,,,,,,,,,,,,,PF,weak,7,,,,,,,,2,0.967,,,,,,,,,,,,,,,,,,,,,,,,,,,,6,weak,-94,-54,1,0,0,response5disk,8,152,-4,-7,1,0,0,rectangle,-4,-7,1,0,0,7,3,0.001,-4,-7,1,0,0,0,151,151,64,1,0,,,,,,,,,,,,,,,,,,,,,
,,,,,,,,,,,,,,,,,,,,,,,,,,,,,,,,,,,,,,,,,,5b1123b61e55760001b9cfd9,606cad273e67cbf8a9940177,2021-04-06_20h49.28.271,Colour_Similarity_Experiment,2020.2.10,Win32,60,6067542a4a25243f4d7d4fcf,8.15990991,6.969769795,6.968960864,6.975862069,6.968523002,6.969769795,,,,,,,,,,,,,,,,,,,,PF,weak,7,,,,,,,,1,0.807,,,,,,,,,,,,,,,,,,,,,,,,,,,,6,weak,-130,66,1,0,0,response7disk,5,153,-4,-12,1,0,0,rectangle,-4,-12,1,0,0,7,7,0,-4,-12,1,0,0,0,152,152,59,1,0,,,,,,,,,,,,,,,,,,,,,
,,,,,,,,,,,,,,,,,,,,,,,,,,,,,,,,,,,,,,,,,,5b1123b61e55760001b9cfd9,606cad273e67cbf8a9940177,2021-04-06_20h49.28.271,Colour_Similarity_Experiment,2020.2.10,Win32,60,6067542a4a25243f4d7d4fcf,8.15990991,6.969769795,6.968960864,6.975862069,6.968523002,6.969769795,,,,,,,,,,,,,,,,,,,,PF,weak,7,,,,,,,,7,1.126,,,,,,,,,,,,,,,,,,,,,,,,,,,,2,weak,44,87,1,0,0,response1disk,4,154,-5,-16,1,0,0,rectangle,-5,-16,1,0,0,7,1,0,-5,-16,1,0,0,0,153,153,127,1,0,,,,,,,,,,,,,,,,,,,,,
,,,,,,,,,,,,,,,,,,,,,,,,,,,,,,,,,,,,,,,,,,5b1123b61e55760001b9cfd9,606cad273e67cbf8a9940177,2021-04-06_20h49.28.271,Colour_Similarity_Experiment,2020.2.10,Win32,60,6067542a4a25243f4d7d4fcf,8.15990991,6.969769795,6.968960864,6.975862069,6.968523002,6.969769795,,,,,,,,,,,,,,,,,,,,PF,weak,7,,,,,,,,1,0.925,,,,,,,,,,,,,,,,,,,,,,,,,,,,4,weak,-133,63,1,0,0,response7disk,3,155,21,-8,1,0,0,rectangle,21,-8,1,0,0,7,3,0.001,21,-8,1,0,0,0,154,154,89,1,0,,,,,,,,,,,,,,,,,,,,,
,,,,,,,,,,,,,,,,,,,,,,,,,,,,,,,,,,,,,,,,,,5b1123b61e55760001b9cfd9,606cad273e67cbf8a9940177,2021-04-06_20h49.28.271,Colour_Similarity_Experiment,2020.2.10,Win32,60,6067542a4a25243f4d7d4fcf,8.15990991,6.969769795,6.968960864,6.975862069,6.968523002,6.969769795,,,,,,,,,,,,,,,,,,,,PF,strong,7,,,,,,,,5,0.903,,,,,,,,,,,,,,,,,,,,,,,,,,,,9,strong,90,-44,1,0,0,response3disk,3,156,7,-3,1,0,0,rectangle,7,-3,1,0,0,7,1,0.001,7,-3,1,0,0,0,155,155,141,1,0,,,,,,,,,,,,,,,,,,,,,
,,,,,,,,,,,,,,,,,,,,,,,,,,,,,,,,,,,,,,,,,,5b1123b61e55760001b9cfd9,606cad273e67cbf8a9940177,2021-04-06_20h49.28.271,Colour_Similarity_Experiment,2020.2.10,Win32,60,6067542a4a25243f4d7d4fcf,8.15990991,6.969769795,6.968960864,6.975862069,6.968523002,6.969769795,,,,,,,,,,,,,,,,,,,,PF,strong,7,,,,,,,,7,0.967,,,,,,,,,,,,,,,,,,,,,,,,,,,,3,strong,48,74,1,0,0,response1disk,6,157,5,8,1,0,0,rectangle,5,8,1,0,0,7,2,0,5,8,1,0,0,0,156,156,95,1,0,,,,,,,,,,,,,,,,,,,,,
,,,,,,,,,,,,,,,,,,,,,,,,,,,,,,,,,,,,,,,,,,5b1123b61e55760001b9cfd9,606cad273e67cbf8a9940177,2021-04-06_20h49.28.271,Colour_Similarity_Experiment,2020.2.10,Win32,60,6067542a4a25243f4d7d4fcf,8.15990991,6.969769795,6.968960864,6.975862069,6.968523002,6.969769795,,,,,,,,,,,,,,,,,,,,PF,strong,7,,,,,,,,2,1.216,,,,,,,,,,,,,,,,,,,,,,,,,,,,5,strong,-121,-66,1,0,0,response5disk,8,158,18,-4,1,0,0,rectangle,18,-4,1,0,0,7,6,0.001,18,-4,1,0,0,0,157,157,16,1,0,,,,,,,,,,,,,,,,,,,,,
,,,,,,,,,,,,,,,,,,,,,,,,,,,,,,,,,,,,,,,,,,5b1123b61e55760001b9cfd9,606cad273e67cbf8a9940177,2021-04-06_20h49.28.271,Colour_Similarity_Experiment,2020.2.10,Win32,60,6067542a4a25243f4d7d4fcf,8.15990991,6.969769795,6.968960864,6.975862069,6.968523002,6.969769795,,,,,,,,,,,,,,,,,,,,PF,strong,7,,,,,,,,1,1.481,,,,,,,,,,,,,,,,,,,,,,,,,,,,6,strong,-122,48,1,0,0,response7disk,5,159,23,-11,1,0,0,rectangle,23,-11,1,0,0,7,4,0.001,23,-11,1,0,0,0,158,158,126,1,0,,,,,,,,,,,,,,,,,,,,,
,,,,,,,,,,,,,,,,,,,,,,,,,,,,,,,,,,,,,,,,,,5b1123b61e55760001b9cfd9,606cad273e67cbf8a9940177,2021-04-06_20h49.28.271,Colour_Similarity_Experiment,2020.2.10,Win32,60,6067542a4a25243f4d7d4fcf,8.15990991,6.969769795,6.968960864,6.975862069,6.968523002,6.969769795,,,,,,,,,,,,,,,,,,,,PF,strong,7,,,,,,,,4,1.488,,,,,,,,,,,,,,,,,,,,,,,,,,,,5,strong,26,-104,1,0,0,response3disk,4,160,-14,-15,1,0,0,rectangle,-14,-15,1,0,0,7,3,0.001,-14,-15,1,0,0,0,159,159,8,1,0,,,,,,,,,,,,,,,,,,,,,
,,,,,,,,,,,,,,,,,,,,,,,,,,,,,,,,,,,,,,,,,,5b1123b61e55760001b9cfd9,606cad273e67cbf8a9940177,2021-04-06_20h49.28.271,Colour_Similarity_Experiment,2020.2.10,Win32,60,6067542a4a25243f4d7d4fcf,8.15990991,6.969769795,6.968960864,6.975862069,6.968523002,6.969769795,,,,,,,,,,,,,,,,,,,,PF,strong,7,,,,,,,,7,1.314,,,,,,,,,,,,,,,,,,,,,,,,,,,,8,strong,47,119,1,0,0,response1disk,6,161,-1,-7,1,0,0,rectangle,-1,-7,1,0,0,7,6,0.001,-1,-7,1,0,0,0,160,160,37,1,0,,,,,,,,,,,,,,,,,,,,,
,,,,,,,,,,,,,,,,,,,,,,,,,,,,,,,,,,,,,,,,,,5b1123b61e55760001b9cfd9,606cad273e67cbf8a9940177,2021-04-06_20h49.28.271,Colour_Similarity_Experiment,2020.2.10,Win32,60,6067542a4a25243f4d7d4fcf,8.15990991,6.969769795,6.968960864,6.975862069,6.968523002,6.969769795,,,,,,,,,,,,,,,,,,,,PF,strong,7,,,,,,,,6,1.37,,,,,,,,,,,,,,,,,,,,,,,,,,,,8,strong,101,47,1,0,0,response1disk,4,162,-20,-15,1,0,0,rectangle,-20,-15,1,0,0,7,7,0.001,-20,-15,1,0,0,0,161,161,88,1,0,,,,,,,,,,,,,,,,,,,,,
,,,,,,,,,,,,,,,,,,,,,,,,,,,,,,,,,,,,,,,,,,5b1123b61e55760001b9cfd9,606cad273e67cbf8a9940177,2021-04-06_20h49.28.271,Colour_Similarity_Experiment,2020.2.10,Win32,60,6067542a4a25243f4d7d4fcf,8.15990991,6.969769795,6.968960864,6.975862069,6.968523002,6.969769795,,,,,,,,,,,,,,,,,,,,,,,,,,,,,,,,,,,,,,,,,,,,,,,,,,,,,,,,,,,,,,,,,,,,,,,,,,,,,,,,,,,,,,,,,,,,,,,,0,0,0,0,1,,,,,,,,,,,,,,
,,,,,,,,,,,,,,,,,,,,,,,,,,,,,,,,,,,,,,,,,,5b1123b61e55760001b9cfd9,606cad273e67cbf8a9940177,2021-04-06_20h49.28.271,Colour_Similarity_Experiment,2020.2.10,Win32,60,6067542a4a25243f4d7d4fcf,8.15990991,6.969769795,6.968960864,6.975862069,6.968523002,6.969769795,,,,,,,,,,,,,,,,,,,,PF,weak,7,,,,,,,,7,1.05,,,,,,,,,,,,,,,,,,,,,,,,,,,,3,weak,29,104,1,0,0,response1disk,7,163,5,-10,1,0,0,rectangle,5,-10,1,0,0,7,1,0,5,-10,1,0,0,0,0,0,41,1,0,,,,,,,,,,,,,,,,,,,,,
,,,,,,,,,,,,,,,,,,,,,,,,,,,,,,,,,,,,,,,,,,5b1123b61e55760001b9cfd9,606cad273e67cbf8a9940177,2021-04-06_20h49.28.271,Colour_Similarity_Experiment,2020.2.10,Win32,60,6067542a4a25243f4d7d4fcf,8.15990991,6.969769795,6.968960864,6.975862069,6.968523002,6.969769795,,,,,,,,,,,,,,,,,,,,PF,strong,7,,,,,,,,7,0.757,,,,,,,,,,,,,,,,,,,,,,,,,,,,1,strong,71,110,1,0,0,response1disk,3,164,7,-17,1,0,0,rectangle,7,-17,1,0,0,7,6,0,7,-17,1,0,0,0,1,1,99,1,0,,,,,,,,,,,,,,,,,,,,,
,,,,,,,,,,,,,,,,,,,,,,,,,,,,,,,,,,,,,,,,,,5b1123b61e55760001b9cfd9,606cad273e67cbf8a9940177,2021-04-06_20h49.28.271,Colour_Similarity_Experiment,2020.2.10,Win32,60,6067542a4a25243f4d7d4fcf,8.15990991,6.969769795,6.968960864,6.975862069,6.968523002,6.969769795,,,,,,,,,,,,,,,,,,,,PF,strong,7,,,,,,,,7,1.119,,,,,,,,,,,,,,,,,,,,,,,,,,,,4,strong,66,84,1,0,0,response1disk,8,165,4,-10,1,0,0,rectangle,4,-10,1,0,0,7,4,0,4,-10,1,0,0,0,2,2,35,1,0,,,,,,,,,,,,,,,,,,,,,
,,,,,,,,,,,,,,,,,,,,,,,,,,,,,,,,,,,,,,,,,,5b1123b61e55760001b9cfd9,606cad273e67cbf8a9940177,2021-04-06_20h49.28.271,Colour_Similarity_Experiment,2020.2.10,Win32,60,6067542a4a25243f4d7d4fcf,8.15990991,6.969769795,6.968960864,6.975862069,6.968523002,6.969769795,,,,,,,,,,,,,,,,,,,,PF,weak,7,,,,,,,,7,1.655,,,,,,,,,,,,,,,,,,,,,,,,,,,,8,weak,44,89,1,0,0,response1disk,8,166,1,-1,1,0,0,rectangle,1,-1,1,0,0,7,7,0.001,1,-1,1,0,0,0,3,3,153,1,0,,,,,,,,,,,,,,,,,,,,,
,,,,,,,,,,,,,,,,,,,,,,,,,,,,,,,,,,,,,,,,,,5b1123b61e55760001b9cfd9,606cad273e67cbf8a9940177,2021-04-06_20h49.28.271,Colour_Similarity_Experiment,2020.2.10,Win32,60,6067542a4a25243f4d7d4fcf,8.15990991,6.969769795,6.968960864,6.975862069,6.968523002,6.969769795,,,,,,,,,,,,,,,,,,,,PF,strong,7,,,,,,,,4,1.189,,,,,,,,,,,,,,,,,,,,,,,,,,,,9,strong,40,-79,1,0,0,response3disk,8,167,13,8,1,0,0,rectangle,13,8,1,0,0,7,0,0,13,8,1,0,0,0,4,4,6,1,0,,,,,,,,,,,,,,,,,,,,,
,,,,,,,,,,,,,,,,,,,,,,,,,,,,,,,,,,,,,,,,,,5b1123b61e55760001b9cfd9,606cad273e67cbf8a9940177,2021-04-06_20h49.28.271,Colour_Similarity_Experiment,2020.2.10,Win32,60,6067542a4a25243f4d7d4fcf,8.15990991,6.969769795,6.968960864,6.975862069,6.968523002,6.969769795,,,,,,,,,,,,,,,,,,,,PF,strong,7,,,,,,,,2,0.897,,,,,,,,,,,,,,,,,,,,,,,,,,,,3,strong,-97,-43,1,0,0,response5disk,9,168,0,-9,1,0,0,rectangle,0,-9,1,0,0,7,1,0,0,-9,1,0,0,0,5,5,143,1,0,,,,,,,,,,,,,,,,,,,,,
,,,,,,,,,,,,,,,,,,,,,,,,,,,,,,,,,,,,,,,,,,5b1123b61e55760001b9cfd9,606cad273e67cbf8a9940177,2021-04-06_20h49.28.271,Colour_Similarity_Experiment,2020.2.10,Win32,60,6067542a4a25243f4d7d4fcf,8.15990991,6.969769795,6.968960864,6.975862069,6.968523002,6.969769795,,,,,,,,,,,,,,,,,,,,PF,strong,7,,,,,,,,1,1.154,,,,,,,,,,,,,,,,,,,,,,,,,,,,2,strong,-91,63,1,0,0,response7disk,2,169,-9,-10,1,0,0,rectangle,-9,-10,1,0,0,7,1,0,-9,-10,1,0,0,0,6,6,142,1,0,,,,,,,,,,,,,,,,,,,,,
,,,,,,,,,,,,,,,,,,,,,,,,,,,,,,,,,,,,,,,,,,5b1123b61e55760001b9cfd9,606cad273e67cbf8a9940177,2021-04-06_20h49.28.271,Colour_Similarity_Experiment,2020.2.10,Win32,60,6067542a4a25243f4d7d4fcf,8.15990991,6.969769795,6.968960864,6.975862069,6.968523002,6.969769795,,,,,,,,,,,,,,,,,,,,PF,weak,7,,,,,,,,7,0.779,,,,,,,,,,,,,,,,,,,,,,,,,,,,6,weak,56,117,1,0,0,response1disk,3,170,-15,-8,1,0,0,rectangle,-15,-8,1,0,0,7,1,0,-15,-8,1,0,0,0,7,7,26,1,0,,,,,,,,,,,,,,,,,,,,,
,,,,,,,,,,,,,,,,,,,,,,,,,,,,,,,,,,,,,,,,,,5b1123b61e55760001b9cfd9,606cad273e67cbf8a9940177,2021-04-06_20h49.28.271,Colour_Similarity_Experiment,2020.2.10,Win32,60,6067542a4a25243f4d7d4fcf,8.15990991,6.969769795,6.968960864,6.975862069,6.968523002,6.969769795,,,,,,,,,,,,,,,,,,,,PF,strong,7,,,,,,,,5,0.806,,,,,,,,,,,,,,,,,,,,,,,,,,,,3,strong,63,-43,1,0,0,response3disk,4,171,-40,-3,1,0,0,rectangle,-40,-3,1,0,0,7,0,0,-40,-3,1,0,0,0,8,8,110,1,0,,,,,,,,,,,,,,,,,,,,,
,,,,,,,,,,,,,,,,,,,,,,,,,,,,,,,,,,,,,,,,,,5b1123b61e55760001b9cfd9,606cad273e67cbf8a9940177,2021-04-06_20h49.28.271,Colour_Similarity_Experiment,2020.2.10,Win32,60,6067542a4a25243f4d7d4fcf,8.15990991,6.969769795,6.968960864,6.975862069,6.968523002,6.969769795,,,,,,,,,,,,,,,,,,,,PF,strong,7,,,,,,,,4,0.654,,,,,,,,,,,,,,,,,,,,,,,,,,,,9,strong,36,-100,1,0,0,response3disk,7,172,7,-19,1,0,0,rectangle,7,-19,1,0,0,7,2,0,7,-19,1,0,0,0,9,9,100,1,0,,,,,,,,,,,,,,,,,,,,,
,,,,,,,,,,,,,,,,,,,,,,,,,,,,,,,,,,,,,,,,,,5b1123b61e55760001b9cfd9,606cad273e67cbf8a9940177,2021-04-06_20h49.28.271,Colour_Similarity_Experiment,2020.2.10,Win32,60,6067542a4a25243f4d7d4fcf,8.15990991,6.969769795,6.968960864,6.975862069,6.968523002,6.969769795,,,,,,,,,,,,,,,,,,,,PF,strong,7,,,,,,,,7,1.3,,,,,,,,,,,,,,,,,,,,,,,,,,,,6,strong,67,137,1,0,0,response1disk,1,173,16,2,1,0,0,rectangle,16,2,1,0,0,7,3,0.001,16,2,1,0,0,0,10,10,5,1,0,,,,,,,,,,,,,,,,,,,,,
,,,,,,,,,,,,,,,,,,,,,,,,,,,,,,,,,,,,,,,,,,5b1123b61e55760001b9cfd9,606cad273e67cbf8a9940177,2021-04-06_20h49.28.271,Colour_Similarity_Experiment,2020.2.10,Win32,60,6067542a4a25243f4d7d4fcf,8.15990991,6.969769795,6.968960864,6.975862069,6.968523002,6.969769795,,,,,,,,,,,,,,,,,,,,PF,strong,7,,,,,,,,3,2.134,,,,,,,,,,,,,,,,,,,,,,,,,,,,8,strong,-40,-73,1,0,0,response5disk,5,174,0,-9,1,0,0,rectangle,0,-9,1,0,0,7,1,0.001,0,-9,1,0,0,0,11,11,152,1,0,,,,,,,,,,,,,,,,,,,,,
,,,,,,,,,,,,,,,,,,,,,,,,,,,,,,,,,,,,,,,,,,5b1123b61e55760001b9cfd9,606cad273e67cbf8a9940177,2021-04-06_20h49.28.271,Colour_Similarity_Experiment,2020.2.10,Win32,60,6067542a4a25243f4d7d4fcf,8.15990991,6.969769795,6.968960864,6.975862069,6.968523002,6.969769795,,,,,,,,,,,,,,,,,,,,PF,weak,7,,,,,,,,5,1.202,,,,,,,,,,,,,,,,,,,,,,,,,,,,3,weak,126,-43,1,0,0,response3disk,6,175,-10,9,1,0,0,rectangle,-10,9,1,0,0,7,7,0,-10,9,1,0,0,0,12,12,47,1,0,,,,,,,,,,,,,,,,,,,,,
,,,,,,,,,,,,,,,,,,,,,,,,,,,,,,,,,,,,,,,,,,5b1123b61e55760001b9cfd9,606cad273e67cbf8a9940177,2021-04-06_20h49.28.271,Colour_Similarity_Experiment,2020.2.10,Win32,60,6067542a4a25243f4d7d4fcf,8.15990991,6.969769795,6.968960864,6.975862069,6.968523002,6.969769795,,,,,,,,,,,,,,,,,,,,PF,strong,7,,,,,,,,7,1.474,,,,,,,,,,,,,,,,,,,,,,,,,,,,8,strong,45,105,1,0,0,response1disk,8,176,2,-11,1,0,0,rectangle,2,-11,1,0,0,7,6,0,2,-11,1,0,0,0,13,13,48,1,0,,,,,,,,,,,,,,,,,,,,,
,,,,,,,,,,,,,,,,,,,,,,,,,,,,,,,,,,,,,,,,,,5b1123b61e55760001b9cfd9,606cad273e67cbf8a9940177,2021-04-06_20h49.28.271,Colour_Similarity_Experiment,2020.2.10,Win32,60,6067542a4a25243f4d7d4fcf,8.15990991,6.969769795,6.968960864,6.975862069,6.968523002,6.969769795,,,,,,,,,,,,,,,,,,,,PF,weak,7,,,,,,,,5,1.008,,,,,,,,,,,,,,,,,,,,,,,,,,,,3,weak,112,-43,1,0,0,response3disk,9,177,-47,8,1,0,0,rectangle,-47,8,1,0,0,7,2,0.001,-47,8,1,0,0,0,14,14,79,1,0,,,,,,,,,,,,,,,,,,,,,
,,,,,,,,,,,,,,,,,,,,,,,,,,,,,,,,,,,,,,,,,,5b1123b61e55760001b9cfd9,606cad273e67cbf8a9940177,2021-04-06_20h49.28.271,Colour_Similarity_Experiment,2020.2.10,Win32,60,6067542a4a25243f4d7d4fcf,8.15990991,6.969769795,6.968960864,6.975862069,6.968523002,6.969769795,,,,,,,,,,,,,,,,,,,,PF,strong,7,,,,,,,,5,13.021,,,,,,,,,,,,,,,,,,,,,,,,,,,,7,strong,104,-64,1,0,0,response3disk,3,178,14,-4,1,0,0,rectangle,14,-4,1,0,0,7,1,0.001,14,-4,1,0,0,0,15,15,73,1,0,,,,,,,,,,,,,,,,,,,,,
,,,,,,,,,,,,,,,,,,,,,,,,,,,,,,,,,,,,,,,,,,5b1123b61e55760001b9cfd9,606cad273e67cbf8a9940177,2021-04-06_20h49.28.271,Colour_Similarity_Experiment,2020.2.10,Win32,60,6067542a4a25243f4d7d4fcf,8.15990991,6.969769795,6.968960864,6.975862069,6.968523002,6.969769795,,,,,,,,,,,,,,,,,,,,PF,weak,7,,,,,,,,7,0.981,,,,,,,,,,,,,,,,,,,,,,,,,,,,8,weak,76,114,1,0,0,response1disk,2,179,14,12,1,0,0,rectangle,14,12,1,0,0,7,0,0,14,12,1,0,0,0,16,16,83,1,0,,,,,,,,,,,,,,,,,,,,,
,,,,,,,,,,,,,,,,,,,,,,,,,,,,,,,,,,,,,,,,,,5b1123b61e55760001b9cfd9,606cad273e67cbf8a9940177,2021-04-06_20h49.28.271,Colour_Similarity_Experiment,2020.2.10,Win32,60,6067542a4a25243f4d7d4fcf,8.15990991,6.969769795,6.968960864,6.975862069,6.968523002,6.969769795,,,,,,,,,,,,,,,,,,,,PF,weak,7,,,,,,,,7,0.583,,,,,,,,,,,,,,,,,,,,,,,,,,,,7,weak,51,116,1,0,0,response1disk,4,180,2,-16,1,0,0,rectangle,2,-16,1,0,0,7,5,0.001,2,-16,1,0,0,0,17,17,43,1,0,,,,,,,,,,,,,,,,,,,,,
,,,,,,,,,,,,,,,,,,,,,,,,,,,,,,,,,,,,,,,,,,5b1123b61e55760001b9cfd9,606cad273e67cbf8a9940177,2021-04-06_20h49.28.271,Colour_Similarity_Experiment,2020.2.10,Win32,60,6067542a4a25243f4d7d4fcf,8.15990991,6.969769795,6.968960864,6.975862069,6.968523002,6.969769795,,,,,,,,,,,,,,,,,,,,PF,weak,7,,,,,,,,3,1.438,,,,,,,,,,,,,,,,,,,,,,,,,,,,7,weak,-51,-152,1,0,0,response5disk,8,181,11,13,1,0,0,rectangle,11,13,1,0,0,7,0,0,11,13,1,0,0,0,18,18,140,1,0,,,,,,,,,,,,,,,,,,,,,
,,,,,,,,,,,,,,,,,,,,,,,,,,,,,,,,,,,,,,,,,,5b1123b61e55760001b9cfd9,606cad273e67cbf8a9940177,2021-04-06_20h49.28.271,Colour_Similarity_Experiment,2020.2.10,Win32,60,6067542a4a25243f4d7d4fcf,8.15990991,6.969769795,6.968960864,6.975862069,6.968523002,6.969769795,,,,,,,,,,,,,,,,,,,,PF,weak,7,,,,,,,,3,6.945,,,,,,,,,,,,,,,,,,,,,,,,,,,,9,weak,-42,-104,1,0,0,response5disk,7,182,-25,-7,1,0,0,rectangle,-25,-7,1,0,0,7,0,0,-25,-7,1,0,0,0,19,19,121,1,0,,,,,,,,,,,,,,,,,,,,,
,,,,,,,,,,,,,,,,,,,,,,,,,,,,,,,,,,,,,,,,,,5b1123b61e55760001b9cfd9,606cad273e67cbf8a9940177,2021-04-06_20h49.28.271,Colour_Similarity_Experiment,2020.2.10,Win32,60,6067542a4a25243f4d7d4fcf,8.15990991,6.969769795,6.968960864,6.975862069,6.968523002,6.969769795,,,,,,,,,,,,,,,,,,,,PF,weak,7,,,,,,,,6,0.785,,,,,,,,,,,,,,,,,,,,,,,,,,,,4,weak,92,90,1,0,0,response1disk,2,183,-32,-15,1,0,0,rectangle,-32,-15,1,0,0,7,1,0,-32,-15,1,0,0,0,20,20,108,1,0,,,,,,,,,,,,,,,,,,,,,
,,,,,,,,,,,,,,,,,,,,,,,,,,,,,,,,,,,,,,,,,,5b1123b61e55760001b9cfd9,606cad273e67cbf8a9940177,2021-04-06_20h49.28.271,Colour_Similarity_Experiment,2020.2.10,Win32,60,6067542a4a25243f4d7d4fcf,8.15990991,6.969769795,6.968960864,6.975862069,6.968523002,6.969769795,,,,,,,,,,,,,,,,,,,,PF,weak,7,,,,,,,,5,1.009,,,,,,,,,,,,,,,,,,,,,,,,,,,,1,weak,71,-39,1,0,0,response3disk,2,184,-22,15,1,0,0,rectangle,-22,15,1,0,0,7,1,0,-22,15,1,0,0,0,21,21,24,1,0,,,,,,,,,,,,,,,,,,,,,
,,,,,,,,,,,,,,,,,,,,,,,,,,,,,,,,,,,,,,,,,,5b1123b61e55760001b9cfd9,606cad273e67cbf8a9940177,2021-04-06_20h49.28.271,Colour_Similarity_Experiment,2020.2.10,Win32,60,6067542a4a25243f4d7d4fcf,8.15990991,6.969769795,6.968960864,6.975862069,6.968523002,6.969769795,,,,,,,,,,,,,,,,,,,,PF,weak,7,,,,,,,,3,1.182,,,,,,,,,,,,,,,,,,,,,,,,,,,,6,weak,-66,-118,1,0,0,response5disk,9,185,8,-12,1,0,0,rectangle,8,-12,1,0,0,7,2,0.001,8,-12,1,0,0,0,22,22,45,1,0,,,,,,,,,,,,,,,,,,,,,
,,,,,,,,,,,,,,,,,,,,,,,,,,,,,,,,,,,,,,,,,,5b1123b61e55760001b9cfd9,606cad273e67cbf8a9940177,2021-04-06_20h49.28.271,Colour_Similarity_Experiment,2020.2.10,Win32,60,6067542a4a25243f4d7d4fcf,8.15990991,6.969769795,6.968960864,6.975862069,6.968523002,6.969769795,,,,,,,,,,,,,,,,,,,,PF,strong,7,,,,,,,,7,0.828,,,,,,,,,,,,,,,,,,,,,,,,,,,,6,strong,85,110,1,0,0,response1disk,3,186,35,-8,1,0,0,rectangle,35,-8,1,0,0,7,6,0,35,-8,1,0,0,0,23,23,21,1,0,,,,,,,,,,,,,,,,,,,,,
,,,,,,,,,,,,,,,,,,,,,,,,,,,,,,,,,,,,,,,,,,5b1123b61e55760001b9cfd9,606cad273e67cbf8a9940177,2021-04-06_20h49.28.271,Colour_Similarity_Experiment,2020.2.10,Win32,60,6067542a4a25243f4d7d4fcf,8.15990991,6.969769795,6.968960864,6.975862069,6.968523002,6.969769795,,,,,,,,,,,,,,,,,,,,PF,weak,7,,,,,,,,7,0.939,,,,,,,,,,,,,,,,,,,,,,,,,,,,4,weak,68,89,1,0,0,response1disk,1,187,4,-17,1,0,0,rectangle,4,-17,1,0,0,7,4,0,4,-17,1,0,0,0,24,24,115,1,0,,,,,,,,,,,,,,,,,,,,,
,,,,,,,,,,,,,,,,,,,,,,,,,,,,,,,,,,,,,,,,,,5b1123b61e55760001b9cfd9,606cad273e67cbf8a9940177,2021-04-06_20h49.28.271,Colour_Similarity_Experiment,2020.2.10,Win32,60,6067542a4a25243f4d7d4fcf,8.15990991,6.969769795,6.968960864,6.975862069,6.968523002,6.969769795,,,,,,,,,,,,,,,,,,,,PF,weak,7,,,,,,,,2,0.918,,,,,,,,,,,,,,,,,,,,,,,,,,,,8,weak,-107,-61,1,0,0,response5disk,7,188,36,-6,1,0,0,rectangle,36,-6,1,0,0,7,7,0,36,-6,1,0,0,0,25,25,23,1,0,,,,,,,,,,,,,,,,,,,,,
,,,,,,,,,,,,,,,,,,,,,,,,,,,,,,,,,,,,,,,,,,5b1123b61e55760001b9cfd9,606cad273e67cbf8a9940177,2021-04-06_20h49.28.271,Colour_Similarity_Experiment,2020.2.10,Win32,60,6067542a4a25243f4d7d4fcf,8.15990991,6.969769795,6.968960864,6.975862069,6.968523002,6.969769795,,,,,,,,,,,,,,,,,,,,PF,strong,7,,,,,,,,3,1.251,,,,,,,,,,,,,,,,,,,,,,,,,,,,8,strong,-41,-86,1,0,0,response5disk,7,189,-19,-12,1,0,0,rectangle,-19,-12,1,0,0,7,7,0,-19,-12,1,0,0,0,26,26,86,1,0,,,,,,,,,,,,,,,,,,,,,
,,,,,,,,,,,,,,,,,,,,,,,,,,,,,,,,,,,,,,,,,,5b1123b61e55760001b9cfd9,606cad273e67cbf8a9940177,2021-04-06_20h49.28.271,Colour_Similarity_Experiment,2020.2.10,Win32,60,6067542a4a25243f4d7d4fcf,8.15990991,6.969769795,6.968960864,6.975862069,6.968523002,6.969769795,,,,,,,,,,,,,,,,,,,,PF,strong,7,,,,,,,,7,5.347,,,,,,,,,,,,,,,,,,,,,,,,,,,,7,strong,97,137,1,0,0,response1disk,1,190,-12,-1,1,0,0,rectangle,-12,-1,1,0,0,7,7,0,-12,-1,1,0,0,0,27,27,132,1,0,,,,,,,,,,,,,,,,,,,,,
,,,,,,,,,,,,,,,,,,,,,,,,,,,,,,,,,,,,,,,,,,5b1123b61e55760001b9cfd9,606cad273e67cbf8a9940177,2021-04-06_20h49.28.271,Colour_Similarity_Experiment,2020.2.10,Win32,60,6067542a4a25243f4d7d4fcf,8.15990991,6.969769795,6.968960864,6.975862069,6.968523002,6.969769795,,,,,,,,,,,,,,,,,,,,PF,weak,7,,,,,,,,0,0.827,,,,,,,,,,,,,,,,,,,,,,,,,,,,1,weak,-70,117,1,0,0,response7disk,1,191,15,-16,1,0,0,rectangle,-89,-72,1,0,0,7,2,1.731,6,0,1,0,0,0,28,28,76,1,1,response5disk_3,rectangle,,,,,,,,,,,,,,,,,,,
,,,,,,,,,,,,,,,,,,,,,,,,,,,,,,,,,,,,,,,,,,5b1123b61e55760001b9cfd9,606cad273e67cbf8a9940177,2021-04-06_20h49.28.271,Colour_Similarity_Experiment,2020.2.10,Win32,60,6067542a4a25243f4d7d4fcf,8.15990991,6.969769795,6.968960864,6.975862069,6.968523002,6.969769795,,,,,,,,,,,,,,,,,,,,PF,weak,7,,,,,,,,1,1.148,,,,,,,,,,,,,,,,,,,,,,,,,,,,3,weak,-100,57,1,0,0,response7disk,3,192,-15,-11,1,0,0,rectangle,-15,-11,1,0,0,7,3,0.001,-15,-11,1,0,0,0,29,29,4,1,0,,,,,,,,,,,,,,,,,,,,,
,,,,,,,,,,,,,,,,,,,,,,,,,,,,,,,,,,,,,,,,,,5b1123b61e55760001b9cfd9,606cad273e67cbf8a9940177,2021-04-06_20h49.28.271,Colour_Similarity_Experiment,2020.2.10,Win32,60,6067542a4a25243f4d7d4fcf,8.15990991,6.969769795,6.968960864,6.975862069,6.968523002,6.969769795,,,,,,,,,,,,,,,,,,,,PF,weak,7,,,,,,,,1,0.709,,,,,,,,,,,,,,,,,,,,,,,,,,,,7,weak,-101,48,1,0,0,response7disk,6,193,42,-10,1,0,0,rectangle,42,-10,1,0,0,7,7,0.001,42,-10,1,0,0,0,30,30,29,1,0,,,,,,,,,,,,,,,,,,,,,
,,,,,,,,,,,,,,,,,,,,,,,,,,,,,,,,,,,,,,,,,,5b1123b61e55760001b9cfd9,606cad273e67cbf8a9940177,2021-04-06_20h49.28.271,Colour_Similarity_Experiment,2020.2.10,Win32,60,6067542a4a25243f4d7d4fcf,8.15990991,6.969769795,6.968960864,6.975862069,6.968523002,6.969769795,,,,,,,,,,,,,,,,,,,,PF,strong,7,,,,,,,,7,1.217,,,,,,,,,,,,,,,,,,,,,,,,,,,,1,strong,29,104,1,0,0,response1disk,7,194,11,1,1,0,0,rectangle,11,1,1,0,0,7,5,0,11,1,1,0,0,0,31,31,137,1,0,,,,,,,,,,,,,,,,,,,,,
,,,,,,,,,,,,,,,,,,,,,,,,,,,,,,,,,,,,,,,,,,5b1123b61e55760001b9cfd9,606cad273e67cbf8a9940177,2021-04-06_20h49.28.271,Colour_Similarity_Experiment,2020.2.10,Win32,60,6067542a4a25243f4d7d4fcf,8.15990991,6.969769795,6.968960864,6.975862069,6.968523002,6.969769795,,,,,,,,,,,,,,,,,,,,PF,strong,7,,,,,,,,7,0.932,,,,,,,,,,,,,,,,,,,,,,,,,,,,1,strong,72,98,1,0,0,response1disk,5,195,10,7,1,0,0,rectangle,10,7,1,0,0,7,6,0,10,7,1,0,0,0,32,32,82,1,0,,,,,,,,,,,,,,,,,,,,,
,,,,,,,,,,,,,,,,,,,,,,,,,,,,,,,,,,,,,,,,,,5b1123b61e55760001b9cfd9,606cad273e67cbf8a9940177,2021-04-06_20h49.28.271,Colour_Similarity_Experiment,2020.2.10,Win32,60,6067542a4a25243f4d7d4fcf,8.15990991,6.969769795,6.968960864,6.975862069,6.968523002,6.969769795,,,,,,,,,,,,,,,,,,,,PF,strong,7,,,,,,,,7,0.71,,,,,,,,,,,,,,,,,,,,,,,,,,,,7,strong,68,98,1,0,0,response1disk,4,196,22,-2,1,0,0,rectangle,22,-2,1,0,0,7,4,0,22,-2,1,0,0,0,33,33,158,1,0,,,,,,,,,,,,,,,,,,,,,
,,,,,,,,,,,,,,,,,,,,,,,,,,,,,,,,,,,,,,,,,,5b1123b61e55760001b9cfd9,606cad273e67cbf8a9940177,2021-04-06_20h49.28.271,Colour_Similarity_Experiment,2020.2.10,Win32,60,6067542a4a25243f4d7d4fcf,8.15990991,6.969769795,6.968960864,6.975862069,6.968523002,6.969769795,,,,,,,,,,,,,,,,,,,,PF,weak,7,,,,,,,,3,1.272,,,,,,,,,,,,,,,,,,,,,,,,,,,,5,weak,-48,-104,1,0,0,response5disk,8,197,-21,3,1,0,0,rectangle,-21,3,1,0,0,7,4,0,-21,3,1,0,0,0,34,34,149,1,0,,,,,,,,,,,,,,,,,,,,,
