key_resp.keys,key_resp.rt,key_resp_16.keys,key_resp_16.rt,key_resp_2.keys,key_resp_2.rt,X Scale,ratio_pxpermm,screen_size_x,screen_size_y,testsize,key_resp_3.keys,key_resp_4.keys,key_resp_4.rt,line_size,key_resp_5.keys,key_resp_5.rt,key_resp_6.keys,key_resp_6.rt,key_resp_8.keys,key_resp_8.rt,key_resp_7.keys,key_resp_7.rt,key_resp_12.keys,key_resp_12.rt,key_resp_11.keys,key_resp_11.rt,key_resp_18.keys,key_resp_18.rt,key_resp_21.keys,key_resp_21.rt,key_resp_13.keys,key_resp_13.rt,key_resp_19.keys,key_resp_19.rt,ballposx,viewer_distance,trials.thisRepN,trials.thisTrialN,trials.thisN,trials.thisIndex,trials.ran,participant,session,date,expName,psychopyVersion,OS,frameRate,study_id,realFrameRate1,realFrameRate2,realFrameRate3,realFrameRate4,realFrameRate5,realFrameRate,viewerdistancecm,DVA_to_distance,radius_F,radius_P,r_F,R_P,key_resp_20.keys,key_resp_20.rt,key_resp_14.keys,key_resp_14.rt,key_resp_15.keys,key_resp_15.rt,key_resp_17.keys,key_resp_17.rt,key_resp_9.keys,key_resp_9.rt,key_resp_10.keys,key_resp_10.rt,Colour_1,Ecc,maskCon,mask_frames,mouse_5.x,mouse_5.y,mouse_5.leftButton,mouse_5.midButton,mouse_5.rightButton,mouse_5.clicked_name,Colour_2,similarity,response_time,mouse_10.x,mouse_10.y,mouse_10.leftButton,mouse_10.midButton,mouse_10.rightButton,mouse_10.clicked_name,mouse_7.x,mouse_7.y,mouse_7.leftButton,mouse_7.midButton,mouse_7.rightButton,catchnumberprac,mouse_6.x,mouse_6.y,mouse_6.leftButton,mouse_6.midButton,mouse_6.rightButton,duringprac.thisRepN,duringprac.thisTrialN,duringprac.thisN,duringprac.thisIndex,duringprac.ran,mouse_7.clicked_name,mouse_6.clicked_name,key_resp_22.keys,key_resp_22.rt,Colour1,maskCon1,mouse.x,mouse.y,mouse.leftButton,mouse.midButton,mouse.rightButton,mouse.clicked_name,Colour2,trialnumber,mouse_2.x,mouse_2.y,mouse_2.leftButton,mouse_2.midButton,mouse_2.rightButton,mouse_2.clicked_name,mouse_3.x,mouse_3.y,mouse_3.leftButton,mouse_3.midButton,mouse_3.rightButton,catchresponse,catchnumber,response_time_catch,mouse_11.x,mouse_11.y,mouse_11.leftButton,mouse_11.midButton,mouse_11.rightButton,trials_2.thisRepN,trials_2.thisTrialN,trials_2.thisN,trials_2.thisIndex,trials_2.ran,Catch,mouse_3.clicked_name,mouse_11.clicked_name,trials_3.thisRepN,trials_3.thisTrialN,trials_3.thisN,trials_3.thisIndex,trials_3.ran,answer1,rt1,answer2,rt2,answer3,rt3,answer4,rt4,answer5,rt5,answer6,rt6,answer7,rt7
space,1.83095,space,33.210465,space,4.646975,57.8,5.78,259.5155709,173.0103806,1500,,space,12.07604,115.6,space,13.307595,space,3.537305,space,1.700725,space,3.47527,space,7.29006,space,8.891005,space,8.38606,space,10.022965,space,6.19149,return,6.395735,-303.75,651.2787309,0,0,0,0,1,5bf3294917a7de0001cf6e4b,606c0d650f1813c85a8caba2,2021-04-06_09h27.49.581,Colour_Similarity_Experiment,2020.2.10,Linux x86_64,60,6067542a4a25243f4d7d4fcf,17.29127232,16.73567018,16.74568922,16.75182507,16.69286181,16.74568922,,,,,,,,,,,,,,,,,,,,,,,,,,,,,,,,,,,,,,,,,,,,,,,,,,,,,,,,,,,,,,,,,,,,,,,,,,,,,,,,,,,,,,,,,,,,,,,,,,,,,,,,,,,,,,,,,
,,,,,,,,,,,,,,,,,,,,,,,,,,,,,,,,,return,7.04798,-382.5,708.0291597,1,0,1,0,1,5bf3294917a7de0001cf6e4b,606c0d650f1813c85a8caba2,2021-04-06_09h27.49.581,Colour_Similarity_Experiment,2020.2.10,Linux x86_64,60,6067542a4a25243f4d7d4fcf,17.29127232,16.73567018,16.74568922,16.75182507,16.69286181,16.74568922,,,,,,,,,,,,,,,,,,,,,,,,,,,,,,,,,,,,,,,,,,,,,,,,,,,,,,,,,,,,,,,,,,,,,,,,,,,,,,,,,,,,,,,,,,,,,,,,,,,,,,,,,,,,,,,,,
,,,,,,,,,,,,,,,,,,,,,,,,,,,,,,,,,return,6.6812,-342,678.8432249,2,0,2,0,1,5bf3294917a7de0001cf6e4b,606c0d650f1813c85a8caba2,2021-04-06_09h27.49.581,Colour_Similarity_Experiment,2020.2.10,Linux x86_64,60,6067542a4a25243f4d7d4fcf,17.29127232,16.73567018,16.74568922,16.75182507,16.69286181,16.74568922,,,,,,,,,,,,,,,,,,,,,,,,,,,,,,,,,,,,,,,,,,,,,,,,,,,,,,,,,,,,,,,,,,,,,,,,,,,,,,,,,,,,,,,,,,,,,,,,,,,,,,,,,,,,,,,,,
,,,,,,,,,,,,,,,,,,,,,,,,,,,,,,,,,return,6.127665,-267.75,625.3356777,3,0,3,0,1,5bf3294917a7de0001cf6e4b,606c0d650f1813c85a8caba2,2021-04-06_09h27.49.581,Colour_Similarity_Experiment,2020.2.10,Linux x86_64,60,6067542a4a25243f4d7d4fcf,17.29127232,16.73567018,16.74568922,16.75182507,16.69286181,16.74568922,,,,,,,,,,,,,,,,,,,,,,,,,,,,,,,,,,,,,,,,,,,,,,,,,,,,,,,,,,,,,,,,,,,,,,,,,,,,,,,,,,,,,,,,,,,,,,,,,,,,,,,,,,,,,,,,,
,,,,,,,,,,,,,,,,,,,,,,,,,,,,,,,,,return,6.010895,-252,613.9855919,4,0,4,0,1,5bf3294917a7de0001cf6e4b,606c0d650f1813c85a8caba2,2021-04-06_09h27.49.581,Colour_Similarity_Experiment,2020.2.10,Linux x86_64,60,6067542a4a25243f4d7d4fcf,17.29127232,16.73567018,16.74568922,16.75182507,16.69286181,16.74568922,,,,,,,,,,,,,,,,,,,,,,,,,,,,,,,,,,,,,,,,,,,,,,,,,,,,,,,,,,,,,,,,,,,,,,,,,,,,,,,,,,,,,,,,,,,,,,,,,,,,,,,,,,,,,,,,,
,,,,,,,,,,,,,,,,,,,,,,,,,,,,,,,,,,,,,,,,,,5bf3294917a7de0001cf6e4b,606c0d650f1813c85a8caba2,2021-04-06_09h27.49.581,Colour_Similarity_Experiment,2020.2.10,Linux x86_64,60,6067542a4a25243f4d7d4fcf,17.29127232,16.73567018,16.74568922,16.75182507,16.69286181,16.74568922,65,11.34578815,98.36798322,655.7865548,65.57865548,295.1039497,space,4.02228,space,10.11718,space,57.38098,space,8.102235,space,9.45514,space,5.196975,2,PF,weak,3,43.24333191,-109.3369675,1,0,0,response3disk_5,6,4,15.12266,-15.58441162,-7.794151306,1,0,0,rectangle_8,-15.58441162,-7.794151306,1,0,0,2,-15.58441162,-7.794151306,1,0,0,0,0,0,5,1,,,,,,,,,,,,,,,,,,,,,,,,,,,,,,,,,,,,,,,,,,,,,,,,,,,,,,,,,,,,
,,,,,,,,,,,,,,,,,,,,,,,,,,,,,,,,,,,,,,,,,,5bf3294917a7de0001cf6e4b,606c0d650f1813c85a8caba2,2021-04-06_09h27.49.581,Colour_Similarity_Experiment,2020.2.10,Linux x86_64,60,6067542a4a25243f4d7d4fcf,17.29127232,16.73567018,16.74568922,16.75182507,16.69286181,16.74568922,,,,,,,,,,,,,,,,,,,8,PF,strong,3,87.85797119,-38.66405487,1,0,0,response3disk_5,5,5,5.421545,6.435089111,2.931861877,1,0,0,rectangle_8,6.435089111,2.931861877,1,0,0,2,6.435089111,2.931861877,1,0,0,0,1,1,0,1,,,,,,,,,,,,,,,,,,,,,,,,,,,,,,,,,,,,,,,,,,,,,,,,,,,,,,,,,,,,
,,,,,,,,,,,,,,,,,,,,,,,,,,,,,,,,,,,,,,,,,,5bf3294917a7de0001cf6e4b,606c0d650f1813c85a8caba2,2021-04-06_09h27.49.581,Colour_Similarity_Experiment,2020.2.10,Linux x86_64,60,6067542a4a25243f4d7d4fcf,17.29127232,16.73567018,16.74568922,16.75182507,16.69286181,16.74568922,,,,,,,,,,,,,,,,,,,4,PF,weak,3,90.51933289,51.66828156,1,0,0,response1disk_5,1,6,3.08746,9.782028198,-10.52761078,1,0,0,rectangle_8,9.782028198,-10.52761078,1,0,0,2,9.782028198,-10.52761078,1,0,0,0,2,2,1,1,,,,,,,,,,,,,,,,,,,,,,,,,,,,,,,,,,,,,,,,,,,,,,,,,,,,,,,,,,,,
,,,,,,,,,,,,,,,,,,,,,,,,,,,,,,,,,,,,,,,,,,5bf3294917a7de0001cf6e4b,606c0d650f1813c85a8caba2,2021-04-06_09h27.49.581,Colour_Similarity_Experiment,2020.2.10,Linux x86_64,60,6067542a4a25243f4d7d4fcf,17.29127232,16.73567018,16.74568922,16.75182507,16.69286181,16.74568922,,,,,,,,,,,,,,,,,,,8,PF,weak,3,105.5508423,37.51194,1,0,0,response1disk_5,3,6,5.425,7.487716675,0.875816345,1,0,0,rectangle_8,7.487716675,0.875816345,1,0,0,2,7.487716675,0.875816345,1,0,0,0,3,3,4,1,,,,,,,,,,,,,,,,,,,,,,,,,,,,,,,,,,,,,,,,,,,,,,,,,,,,,,,,,,,,
,,,,,,,,,,,,,,,,,,,,,,,,,,,,,,,,,,,,,,,,,,5bf3294917a7de0001cf6e4b,606c0d650f1813c85a8caba2,2021-04-06_09h27.49.581,Colour_Similarity_Experiment,2020.2.10,Linux x86_64,60,6067542a4a25243f4d7d4fcf,17.29127232,16.73567018,16.74568922,16.75182507,16.69286181,16.74568922,,,,,,,,,,,,,,,,,,,3,PF,strong,3,-64.55421448,-39.10427094,1,0,0,response5disk_5,4,2,8.475915,14.3120575,-5.596923828,1,0,0,rectangle_8,14.3120575,-5.596923828,1,0,0,2,14.3120575,-5.596923828,1,0,0,0,4,4,3,1,,,,,,,,,,,,,,,,,,,,,,,,,,,,,,,,,,,,,,,,,,,,,,,,,,,,,,,,,,,,
,,,,,,,,,,,,,,,,,,,,,,,,,,,,,,,,,,,,,,,,,,5bf3294917a7de0001cf6e4b,606c0d650f1813c85a8caba2,2021-04-06_09h27.49.581,Colour_Similarity_Experiment,2020.2.10,Linux x86_64,60,6067542a4a25243f4d7d4fcf,17.29127232,16.73567018,16.74568922,16.75182507,16.69286181,16.74568922,,,,,,,,,,,,,,,,,,,8,PF,strong,3,95.26870728,39.54250336,1,0,0,response1disk_5,4,6,2.46748,-3.228759766,-0.109939575,1,0,0,rectangle_8,-84.05403137,-34.80773926,1,0,0,2,0.505599976,-0.8253479,1,0,0,0,5,5,2,1,response5disk_7,rectangle_4,,,,,,,,,,,,,,,,,,,,,,,,,,,,,,,,,,,,,,,,,,,,,,,,,,,,,,,,,,
,,,,,,,,,,,,,,,,,,,,,,,,,,,,,,,,,,,,,,,,,,5bf3294917a7de0001cf6e4b,606c0d650f1813c85a8caba2,2021-04-06_09h27.49.581,Colour_Similarity_Experiment,2020.2.10,Linux x86_64,60,6067542a4a25243f4d7d4fcf,17.29127232,16.73567018,16.74568922,16.75182507,16.69286181,16.74568922,,,,,,,,,,,,,,,,,,,4,PF,weak,3,-92.52006531,-58.99868011,1,0,0,response5disk_5,5,2,2.737185,-8.57673645,-6.981239319,1,0,0,rectangle_8,-8.57673645,-6.981239319,1,0,0,2,-8.57673645,-6.981239319,1,0,0,0,6,6,6,1,,,,,,,,,,,,,,,,,,,,,,,,,,,,,,,,,,,,,,,,,,,,,,,,,,,,,,,,,,,,
,,,,,,,,,,,,,,,,,,,,,,,,,,,,,,,,,,,,,,,,,,5bf3294917a7de0001cf6e4b,606c0d650f1813c85a8caba2,2021-04-06_09h27.49.581,Colour_Similarity_Experiment,2020.2.10,Linux x86_64,60,6067542a4a25243f4d7d4fcf,17.29127232,16.73567018,16.74568922,16.75182507,16.69286181,16.74568922,,,,,,,,,,,,,,,,,,,,PF,strong,3,,,,,,,,1,3.355265,,,,,,,,,,,,,,,,,,,,,,,,,space,3.86338,4,strong,-91.00395203,36.33075714,1,0,0,response7disk,4,1,0.070419312,-0.758018494,1,0,0,rectangle,0.070419312,-0.758018494,1,0,0,,2,0.00739,0.070419312,-0.758018494,1,0,0,0,0,0,84,1,0,,,,,,,,,,,,,,,,,,,,,
,,,,,,,,,,,,,,,,,,,,,,,,,,,,,,,,,,,,,,,,,,5bf3294917a7de0001cf6e4b,606c0d650f1813c85a8caba2,2021-04-06_09h27.49.581,Colour_Similarity_Experiment,2020.2.10,Linux x86_64,60,6067542a4a25243f4d7d4fcf,17.29127232,16.73567018,16.74568922,16.75182507,16.69286181,16.74568922,,,,,,,,,,,,,,,,,,,,PF,weak,3,,,,,,,,2,3.672305,,,,,,,,,,,,,,,,,,,,,,,,,,,9,weak,-79.59342957,-56.18457794,1,0,0,response5disk,1,2,-5.31539917,-1.494903564,1,0,0,rectangle,-5.31539917,-1.494903564,1,0,0,,7,0.00345,-5.31539917,-1.494903564,1,0,0,0,1,1,74,1,0,,,,,,,,,,,,,,,,,,,,,
,,,,,,,,,,,,,,,,,,,,,,,,,,,,,,,,,,,,,,,,,,5bf3294917a7de0001cf6e4b,606c0d650f1813c85a8caba2,2021-04-06_09h27.49.581,Colour_Similarity_Experiment,2020.2.10,Linux x86_64,60,6067542a4a25243f4d7d4fcf,17.29127232,16.73567018,16.74568922,16.75182507,16.69286181,16.74568922,,,,,,,,,,,,,,,,,,,,PF,strong,3,,,,,,,,1,2.789175,,,,,,,,,,,,,,,,,,,,,,,,,,,5,strong,-101.3531494,26.81751251,1,0,0,response7disk,4,3,-6.471633911,-5.94127655,1,0,0,rectangle,-6.471633911,-5.94127655,1,0,0,,7,0.00128,-6.471633911,-5.94127655,1,0,0,0,2,2,8,1,0,,,,,,,,,,,,,,,,,,,,,
,,,,,,,,,,,,,,,,,,,,,,,,,,,,,,,,,,,,,,,,,,5bf3294917a7de0001cf6e4b,606c0d650f1813c85a8caba2,2021-04-06_09h27.49.581,Colour_Similarity_Experiment,2020.2.10,Linux x86_64,60,6067542a4a25243f4d7d4fcf,17.29127232,16.73567018,16.74568922,16.75182507,16.69286181,16.74568922,,,,,,,,,,,,,,,,,,,,PF,strong,3,,,,,,,,3,2.446425,,,,,,,,,,,,,,,,,,,,,,,,,,,2,strong,-42.89741516,-54.76844788,1,0,0,response5disk,4,4,7.001571655,1.153488159,1,0,0,rectangle,7.001571655,1.153488159,1,0,0,,1,0.004475,7.001571655,1.153488159,1,0,0,0,3,3,145,1,0,,,,,,,,,,,,,,,,,,,,,
,,,,,,,,,,,,,,,,,,,,,,,,,,,,,,,,,,,,,,,,,,5bf3294917a7de0001cf6e4b,606c0d650f1813c85a8caba2,2021-04-06_09h27.49.581,Colour_Similarity_Experiment,2020.2.10,Linux x86_64,60,6067542a4a25243f4d7d4fcf,17.29127232,16.73567018,16.74568922,16.75182507,16.69286181,16.74568922,,,,,,,,,,,,,,,,,,,,PF,strong,3,,,,,,,,4,6.32129,,,,,,,,,,,,,,,,,,,,,,,,,,,8,strong,28.41056824,-92.21340179,1,0,0,response3disk,5,5,-33.32740784,13.63002777,1,0,0,rectangle,-33.32740784,13.63002777,1,0,0,,5,0.003745,-33.32740784,13.63002777,1,0,0,0,4,4,152,1,0,,,,,,,,,,,,,,,,,,,,,
,,,,,,,,,,,,,,,,,,,,,,,,,,,,,,,,,,,,,,,,,,5bf3294917a7de0001cf6e4b,606c0d650f1813c85a8caba2,2021-04-06_09h27.49.581,Colour_Similarity_Experiment,2020.2.10,Linux x86_64,60,6067542a4a25243f4d7d4fcf,17.29127232,16.73567018,16.74568922,16.75182507,16.69286181,16.74568922,,,,,,,,,,,,,,,,,,,,PF,weak,3,,,,,,,,1,1.954225,,,,,,,,,,,,,,,,,,,,,,,,,,,9,weak,-104.3942261,46.73374176,1,0,0,response7disk,9,6,-14.71107483,4.830856323,1,0,0,rectangle,-14.71107483,4.830856323,1,0,0,,5,0.000655,-14.71107483,4.830856323,1,0,0,0,5,5,106,1,0,,,,,,,,,,,,,,,,,,,,,
,,,,,,,,,,,,,,,,,,,,,,,,,,,,,,,,,,,,,,,,,,5bf3294917a7de0001cf6e4b,606c0d650f1813c85a8caba2,2021-04-06_09h27.49.581,Colour_Similarity_Experiment,2020.2.10,Linux x86_64,60,6067542a4a25243f4d7d4fcf,17.29127232,16.73567018,16.74568922,16.75182507,16.69286181,16.74568922,,,,,,,,,,,,,,,,,,,,PF,strong,3,,,,,,,,5,2.421575,,,,,,,,,,,,,,,,,,,,,,,,,,,8,strong,89.65797424,-60.69648743,1,0,0,response3disk,6,7,-0.041427612,-7.196159363,1,0,0,rectangle,-0.041427612,-7.196159363,1,0,0,,0,0.00324,-0.041427612,-7.196159363,1,0,0,0,6,6,37,1,0,,,,,,,,,,,,,,,,,,,,,
,,,,,,,,,,,,,,,,,,,,,,,,,,,,,,,,,,,,,,,,,,5bf3294917a7de0001cf6e4b,606c0d650f1813c85a8caba2,2021-04-06_09h27.49.581,Colour_Similarity_Experiment,2020.2.10,Linux x86_64,60,6067542a4a25243f4d7d4fcf,17.29127232,16.73567018,16.74568922,16.75182507,16.69286181,16.74568922,,,,,,,,,,,,,,,,,,,,PF,weak,3,,,,,,,,2,3.83523,,,,,,,,,,,,,,,,,,,,,,,,,,,4,weak,-87.42988586,-32.34401703,1,0,0,response5disk,5,8,-5.584030151,3.742523193,1,0,0,rectangle,-5.584030151,3.742523193,1,0,0,,4,0.00325,-5.584030151,3.742523193,1,0,0,0,7,7,49,1,0,,,,,,,,,,,,,,,,,,,,,
,,,,,,,,,,,,,,,,,,,,,,,,,,,,,,,,,,,,,,,,,,5bf3294917a7de0001cf6e4b,606c0d650f1813c85a8caba2,2021-04-06_09h27.49.581,Colour_Similarity_Experiment,2020.2.10,Linux x86_64,60,6067542a4a25243f4d7d4fcf,17.29127232,16.73567018,16.74568922,16.75182507,16.69286181,16.74568922,,,,,,,,,,,,,,,,,,,,PF,weak,3,,,,,,,,5,2.35075,,,,,,,,,,,,,,,,,,,,,,,,,,,9,weak,82.62748718,-49.20722961,1,0,0,response3disk,3,9,5.719528198,-4.243125916,1,0,0,rectangle,5.719528198,-4.243125916,1,0,0,,2,0.00555,5.719528198,-4.243125916,1,0,0,0,8,8,119,1,0,,,,,,,,,,,,,,,,,,,,,
,,,,,,,,,,,,,,,,,,,,,,,,,,,,,,,,,,,,,,,,,,5bf3294917a7de0001cf6e4b,606c0d650f1813c85a8caba2,2021-04-06_09h27.49.581,Colour_Similarity_Experiment,2020.2.10,Linux x86_64,60,6067542a4a25243f4d7d4fcf,17.29127232,16.73567018,16.74568922,16.75182507,16.69286181,16.74568922,,,,,,,,,,,,,,,,,,,,PF,weak,3,,,,,,,,6,1.999295,,,,,,,,,,,,,,,,,,,,,,,,,,,2,weak,85.7976532,36.56414032,1,0,0,response1disk,8,10,14.48753357,-1.314125061,1,0,0,rectangle,14.48753357,-1.314125061,1,0,0,,7,0.003625,14.48753357,-1.314125061,1,0,0,0,9,9,52,1,0,,,,,,,,,,,,,,,,,,,,,
,,,,,,,,,,,,,,,,,,,,,,,,,,,,,,,,,,,,,,,,,,5bf3294917a7de0001cf6e4b,606c0d650f1813c85a8caba2,2021-04-06_09h27.49.581,Colour_Similarity_Experiment,2020.2.10,Linux x86_64,60,6067542a4a25243f4d7d4fcf,17.29127232,16.73567018,16.74568922,16.75182507,16.69286181,16.74568922,,,,,,,,,,,,,,,,,,,,PF,weak,3,,,,,,,,0,2.261195,,,,,,,,,,,,,,,,,,,,,,,,,,,2,weak,-32.98713684,73.7657547,1,0,0,response7disk,2,11,-12.71102905,1.324615479,1,0,0,rectangle,-12.71102905,1.324615479,1,0,0,,1,0.003525,-12.71102905,1.324615479,1,0,0,0,10,10,14,1,0,,,,,,,,,,,,,,,,,,,,,
,,,,,,,,,,,,,,,,,,,,,,,,,,,,,,,,,,,,,,,,,,5bf3294917a7de0001cf6e4b,606c0d650f1813c85a8caba2,2021-04-06_09h27.49.581,Colour_Similarity_Experiment,2020.2.10,Linux x86_64,60,6067542a4a25243f4d7d4fcf,17.29127232,16.73567018,16.74568922,16.75182507,16.69286181,16.74568922,,,,,,,,,,,,,,,,,,,,PF,strong,3,,,,,,,,3,3.53999,,,,,,,,,,,,,,,,,,,,,,,,,,,9,strong,-58.33930969,-81.97181702,1,0,0,response5disk,7,12,10.28373718,-2.370185852,1,0,0,rectangle,10.28373718,-2.370185852,1,0,0,,7,0.003335,10.28373718,-2.370185852,1,0,0,0,11,11,100,1,0,,,,,,,,,,,,,,,,,,,,,
,,,,,,,,,,,,,,,,,,,,,,,,,,,,,,,,,,,,,,,,,,5bf3294917a7de0001cf6e4b,606c0d650f1813c85a8caba2,2021-04-06_09h27.49.581,Colour_Similarity_Experiment,2020.2.10,Linux x86_64,60,6067542a4a25243f4d7d4fcf,17.29127232,16.73567018,16.74568922,16.75182507,16.69286181,16.74568922,,,,,,,,,,,,,,,,,,,,PF,strong,3,,,,,,,,3,1.80454,,,,,,,,,,,,,,,,,,,,,,,,,,,7,strong,-35.62919617,-93.38539124,1,0,0,response5disk,2,13,14.17663574,-7.696914673,1,0,0,rectangle,14.17663574,-7.696914673,1,0,0,,5,0.00452,14.17663574,-7.696914673,1,0,0,0,12,12,138,1,0,,,,,,,,,,,,,,,,,,,,,
,,,,,,,,,,,,,,,,,,,,,,,,,,,,,,,,,,,,,,,,,,5bf3294917a7de0001cf6e4b,606c0d650f1813c85a8caba2,2021-04-06_09h27.49.581,Colour_Similarity_Experiment,2020.2.10,Linux x86_64,60,6067542a4a25243f4d7d4fcf,17.29127232,16.73567018,16.74568922,16.75182507,16.69286181,16.74568922,,,,,,,,,,,,,,,,,,,,PF,weak,3,,,,,,,,3,3.720775,,,,,,,,,,,,,,,,,,,,,,,,,,,2,weak,-35.87654114,-82.81543732,1,0,0,response5disk,1,14,-4.882888794,-1.823158264,1,0,0,rectangle,-4.882888794,-1.823158264,1,0,0,,5,0.00083,-4.882888794,-1.823158264,1,0,0,0,13,13,9,1,0,,,,,,,,,,,,,,,,,,,,,
,,,,,,,,,,,,,,,,,,,,,,,,,,,,,,,,,,,,,,,,,,5bf3294917a7de0001cf6e4b,606c0d650f1813c85a8caba2,2021-04-06_09h27.49.581,Colour_Similarity_Experiment,2020.2.10,Linux x86_64,60,6067542a4a25243f4d7d4fcf,17.29127232,16.73567018,16.74568922,16.75182507,16.69286181,16.74568922,,,,,,,,,,,,,,,,,,,,PF,weak,3,,,,,,,,4,1.71948,,,,,,,,,,,,,,,,,,,,,,,,,,,8,weak,33.17276001,-75.93402863,1,0,0,response3disk,4,15,7.473831177,-11.15463257,1,0,0,rectangle,7.473831177,-11.15463257,1,0,0,,3,0.00384,7.473831177,-11.15463257,1,0,0,0,14,14,78,1,0,,,,,,,,,,,,,,,,,,,,,
,,,,,,,,,,,,,,,,,,,,,,,,,,,,,,,,,,,,,,,,,,5bf3294917a7de0001cf6e4b,606c0d650f1813c85a8caba2,2021-04-06_09h27.49.581,Colour_Similarity_Experiment,2020.2.10,Linux x86_64,60,6067542a4a25243f4d7d4fcf,17.29127232,16.73567018,16.74568922,16.75182507,16.69286181,16.74568922,,,,,,,,,,,,,,,,,,,,PF,weak,3,,,,,,,,4,1.416445,,,,,,,,,,,,,,,,,,,,,,,,,,,2,weak,37.46315002,-63.53088379,1,0,0,response3disk,4,16,5.711898804,-8.898200989,1,0,0,rectangle,5.711898804,-8.898200989,1,0,0,,4,0.003175,5.711898804,-8.898200989,1,0,0,0,15,15,127,1,0,,,,,,,,,,,,,,,,,,,,,
,,,,,,,,,,,,,,,,,,,,,,,,,,,,,,,,,,,,,,,,,,5bf3294917a7de0001cf6e4b,606c0d650f1813c85a8caba2,2021-04-06_09h27.49.581,Colour_Similarity_Experiment,2020.2.10,Linux x86_64,60,6067542a4a25243f4d7d4fcf,17.29127232,16.73567018,16.74568922,16.75182507,16.69286181,16.74568922,,,,,,,,,,,,,,,,,,,,PF,strong,3,,,,,,,,4,1.473195,,,,,,,,,,,,,,,,,,,,,,,,,,,7,strong,43.7184906,-68.94008636,1,0,0,response3disk,1,17,11.86157227,-12.61951447,1,0,0,rectangle,11.86157227,-12.61951447,1,0,0,,2,0.00324,11.86157227,-12.61951447,1,0,0,0,16,16,132,1,0,,,,,,,,,,,,,,,,,,,,,
,,,,,,,,,,,,,,,,,,,,,,,,,,,,,,,,,,,,,,,,,,5bf3294917a7de0001cf6e4b,606c0d650f1813c85a8caba2,2021-04-06_09h27.49.581,Colour_Similarity_Experiment,2020.2.10,Linux x86_64,60,6067542a4a25243f4d7d4fcf,17.29127232,16.73567018,16.74568922,16.75182507,16.69286181,16.74568922,,,,,,,,,,,,,,,,,,,,PF,weak,3,,,,,,,,0,4.52282,,,,,,,,,,,,,,,,,,,,,,,,,,,1,weak,-39.8614502,119.1446304,1,0,0,response7disk,1,18,5.635299683,0.985145569,1,0,0,rectangle,30.16517639,-81.98677063,1,0,0,4,4,2.8544,-10.64903259,3.687133789,1,0,0,0,17,17,76,1,1,response3disk_3,rectangle,,,,,,,,,,,,,,,,,,,
,,,,,,,,,,,,,,,,,,,,,,,,,,,,,,,,,,,,,,,,,,5bf3294917a7de0001cf6e4b,606c0d650f1813c85a8caba2,2021-04-06_09h27.49.581,Colour_Similarity_Experiment,2020.2.10,Linux x86_64,60,6067542a4a25243f4d7d4fcf,17.29127232,16.73567018,16.74568922,16.75182507,16.69286181,16.74568922,,,,,,,,,,,,,,,,,,,,PF,weak,3,,,,,,,,2,2.75502,,,,,,,,,,,,,,,,,,,,,,,,,,,4,weak,-76.92054749,-28.00746918,1,0,0,response5disk,3,19,-0.950164795,5.97984314,1,0,0,rectangle,-0.950164795,5.97984314,1,0,0,4,3,0.003135,-0.950164795,5.97984314,1,0,0,0,18,18,89,1,0,,,,,,,,,,,,,,,,,,,,,
,,,,,,,,,,,,,,,,,,,,,,,,,,,,,,,,,,,,,,,,,,5bf3294917a7de0001cf6e4b,606c0d650f1813c85a8caba2,2021-04-06_09h27.49.581,Colour_Similarity_Experiment,2020.2.10,Linux x86_64,60,6067542a4a25243f4d7d4fcf,17.29127232,16.73567018,16.74568922,16.75182507,16.69286181,16.74568922,,,,,,,,,,,,,,,,,,,,PF,strong,3,,,,,,,,5,1.71983,,,,,,,,,,,,,,,,,,,,,,,,,,,1,strong,92.9989624,-57.3651886,1,0,0,response3disk,4,20,0.888061523,-7.95211792,1,0,0,rectangle,0.888061523,-7.95211792,1,0,0,4,4,0.00472,0.888061523,-7.95211792,1,0,0,0,19,19,135,1,0,,,,,,,,,,,,,,,,,,,,,
,,,,,,,,,,,,,,,,,,,,,,,,,,,,,,,,,,,,,,,,,,5bf3294917a7de0001cf6e4b,606c0d650f1813c85a8caba2,2021-04-06_09h27.49.581,Colour_Similarity_Experiment,2020.2.10,Linux x86_64,60,6067542a4a25243f4d7d4fcf,17.29127232,16.73567018,16.74568922,16.75182507,16.69286181,16.74568922,,,,,,,,,,,,,,,,,,,,PF,strong,3,,,,,,,,2,3.222755,,,,,,,,,,,,,,,,,,,,,,,,,,,4,strong,-83.12606812,-32.85255432,1,0,0,response5disk,5,21,-0.564041138,4.265174866,1,0,0,rectangle,-0.564041138,4.265174866,1,0,0,4,5,0.00127,-0.564041138,4.265174866,1,0,0,0,20,20,116,1,0,,,,,,,,,,,,,,,,,,,,,
,,,,,,,,,,,,,,,,,,,,,,,,,,,,,,,,,,,,,,,,,,5bf3294917a7de0001cf6e4b,606c0d650f1813c85a8caba2,2021-04-06_09h27.49.581,Colour_Similarity_Experiment,2020.2.10,Linux x86_64,60,6067542a4a25243f4d7d4fcf,17.29127232,16.73567018,16.74568922,16.75182507,16.69286181,16.74568922,,,,,,,,,,,,,,,,,,,,PF,strong,3,,,,,,,,4,1.919145,,,,,,,,,,,,,,,,,,,,,,,,,,,3,strong,30.5242157,-71.00654602,1,0,0,response3disk,1,22,-14.71977234,9.001808167,1,0,0,rectangle,-14.71977234,9.001808167,1,0,0,4,4,0.002835,-14.71977234,9.001808167,1,0,0,0,21,21,125,1,0,,,,,,,,,,,,,,,,,,,,,
,,,,,,,,,,,,,,,,,,,,,,,,,,,,,,,,,,,,,,,,,,5bf3294917a7de0001cf6e4b,606c0d650f1813c85a8caba2,2021-04-06_09h27.49.581,Colour_Similarity_Experiment,2020.2.10,Linux x86_64,60,6067542a4a25243f4d7d4fcf,17.29127232,16.73567018,16.74568922,16.75182507,16.69286181,16.74568922,,,,,,,,,,,,,,,,,,,,PF,weak,3,,,,,,,,0,1.31705,,,,,,,,,,,,,,,,,,,,,,,,,,,5,weak,-35.57884216,69.59243774,1,0,0,response7disk,5,23,-20.12947083,-2.69367218,1,0,0,rectangle,-20.12947083,-2.69367218,1,0,0,4,6,0.002705,-20.12947083,-2.69367218,1,0,0,0,22,22,94,1,0,,,,,,,,,,,,,,,,,,,,,
,,,,,,,,,,,,,,,,,,,,,,,,,,,,,,,,,,,,,,,,,,5bf3294917a7de0001cf6e4b,606c0d650f1813c85a8caba2,2021-04-06_09h27.49.581,Colour_Similarity_Experiment,2020.2.10,Linux x86_64,60,6067542a4a25243f4d7d4fcf,17.29127232,16.73567018,16.74568922,16.75182507,16.69286181,16.74568922,,,,,,,,,,,,,,,,,,,,PF,strong,3,,,,,,,,4,5.207035,,,,,,,,,,,,,,,,,,,,,,,,,,,9,strong,26.86737061,-72.70637512,1,0,0,response3disk,3,24,-10.21614075,1.035881042,1,0,0,rectangle,-10.21614075,1.035881042,1,0,0,4,4,0.00439,-10.21614075,1.035881042,1,0,0,0,23,23,141,1,0,,,,,,,,,,,,,,,,,,,,,
,,,,,,,,,,,,,,,,,,,,,,,,,,,,,,,,,,,,,,,,,,5bf3294917a7de0001cf6e4b,606c0d650f1813c85a8caba2,2021-04-06_09h27.49.581,Colour_Similarity_Experiment,2020.2.10,Linux x86_64,60,6067542a4a25243f4d7d4fcf,17.29127232,16.73567018,16.74568922,16.75182507,16.69286181,16.74568922,,,,,,,,,,,,,,,,,,,,PF,weak,3,,,,,,,,5,1.887205,,,,,,,,,,,,,,,,,,,,,,,,,,,5,weak,86.74766541,-46.51679993,1,0,0,response3disk,9,25,17.08061218,-12.147789,1,0,0,rectangle,-77.38731384,-38.36864471,1,0,0,4,2,2.384715,-1.520233154,6.265106201,1,0,0,0,24,24,136,1,1,response5disk_3,rectangle,,,,,,,,,,,,,,,,,,,
,,,,,,,,,,,,,,,,,,,,,,,,,,,,,,,,,,,,,,,,,,5bf3294917a7de0001cf6e4b,606c0d650f1813c85a8caba2,2021-04-06_09h27.49.581,Colour_Similarity_Experiment,2020.2.10,Linux x86_64,60,6067542a4a25243f4d7d4fcf,17.29127232,16.73567018,16.74568922,16.75182507,16.69286181,16.74568922,,,,,,,,,,,,,,,,,,,,PF,weak,3,,,,,,,,5,2.82078,,,,,,,,,,,,,,,,,,,,,,,,,,,6,weak,99.93614197,-55.72566986,1,0,0,response3disk,2,26,-12.05978394,-5.265769958,1,0,0,rectangle,-12.05978394,-5.265769958,1,0,0,4,7,0.003175,-12.05978394,-5.265769958,1,0,0,0,25,25,130,1,0,,,,,,,,,,,,,,,,,,,,,
,,,,,,,,,,,,,,,,,,,,,,,,,,,,,,,,,,,,,,,,,,5bf3294917a7de0001cf6e4b,606c0d650f1813c85a8caba2,2021-04-06_09h27.49.581,Colour_Similarity_Experiment,2020.2.10,Linux x86_64,60,6067542a4a25243f4d7d4fcf,17.29127232,16.73567018,16.74568922,16.75182507,16.69286181,16.74568922,,,,,,,,,,,,,,,,,,,,PF,weak,3,,,,,,,,5,3.20281,,,,,,,,,,,,,,,,,,,,,,,,,,,8,weak,107.2364044,-47.7576828,1,0,0,response3disk,2,27,-18.27583313,-7.00843811,1,0,0,rectangle,-18.27583313,-7.00843811,1,0,0,4,6,0.0029,-18.27583313,-7.00843811,1,0,0,0,26,26,83,1,0,,,,,,,,,,,,,,,,,,,,,
,,,,,,,,,,,,,,,,,,,,,,,,,,,,,,,,,,,,,,,,,,5bf3294917a7de0001cf6e4b,606c0d650f1813c85a8caba2,2021-04-06_09h27.49.581,Colour_Similarity_Experiment,2020.2.10,Linux x86_64,60,6067542a4a25243f4d7d4fcf,17.29127232,16.73567018,16.74568922,16.75182507,16.69286181,16.74568922,,,,,,,,,,,,,,,,,,,,PF,weak,3,,,,,,,,3,4.856085,,,,,,,,,,,,,,,,,,,,,,,,,,,7,weak,-59.86541748,-79.61048126,1,0,0,response5disk,5,28,0.596923828,2.500839233,1,0,0,rectangle,0.596923828,2.500839233,1,0,0,4,7,0.00323,0.596923828,2.500839233,1,0,0,0,27,27,92,1,0,,,,,,,,,,,,,,,,,,,,,
,,,,,,,,,,,,,,,,,,,,,,,,,,,,,,,,,,,,,,,,,,5bf3294917a7de0001cf6e4b,606c0d650f1813c85a8caba2,2021-04-06_09h27.49.581,Colour_Similarity_Experiment,2020.2.10,Linux x86_64,60,6067542a4a25243f4d7d4fcf,17.29127232,16.73567018,16.74568922,16.75182507,16.69286181,16.74568922,,,,,,,,,,,,,,,,,,,,PF,weak,3,,,,,,,,4,3.96953,,,,,,,,,,,,,,,,,,,,,,,,,,,3,weak,56.59294128,-85.01869202,1,0,0,response3disk,1,29,12.15415955,9.555282593,1,0,0,rectangle,12.15415955,9.555282593,1,0,0,4,7,0.00045,12.15415955,9.555282593,1,0,0,0,28,28,96,1,0,,,,,,,,,,,,,,,,,,,,,
,,,,,,,,,,,,,,,,,,,,,,,,,,,,,,,,,,,,,,,,,,5bf3294917a7de0001cf6e4b,606c0d650f1813c85a8caba2,2021-04-06_09h27.49.581,Colour_Similarity_Experiment,2020.2.10,Linux x86_64,60,6067542a4a25243f4d7d4fcf,17.29127232,16.73567018,16.74568922,16.75182507,16.69286181,16.74568922,,,,,,,,,,,,,,,,,,,,PF,strong,3,,,,,,,,4,1.434525,,,,,,,,,,,,,,,,,,,,,,,,,,,1,strong,34.23347473,-70.91960907,1,0,0,response3disk,3,30,-8.280105591,4.093017578,1,0,0,rectangle,-8.280105591,4.093017578,1,0,0,4,7,0.000445,-8.280105591,4.093017578,1,0,0,0,29,29,99,1,0,,,,,,,,,,,,,,,,,,,,,
,,,,,,,,,,,,,,,,,,,,,,,,,,,,,,,,,,,,,,,,,,5bf3294917a7de0001cf6e4b,606c0d650f1813c85a8caba2,2021-04-06_09h27.49.581,Colour_Similarity_Experiment,2020.2.10,Linux x86_64,60,6067542a4a25243f4d7d4fcf,17.29127232,16.73567018,16.74568922,16.75182507,16.69286181,16.74568922,,,,,,,,,,,,,,,,,,,,PF,strong,3,,,,,,,,3,3.588265,,,,,,,,,,,,,,,,,,,,,,,,,,,5,strong,-53.54728699,-73.86806488,1,0,0,response5disk,7,31,-14.46411133,6.644821167,1,0,0,rectangle,-14.46411133,6.644821167,1,0,0,4,1,0.00397,-14.46411133,6.644821167,1,0,0,0,30,30,7,1,0,,,,,,,,,,,,,,,,,,,,,
,,,,,,,,,,,,,,,,,,,,,,,,,,,,,,,,,,,,,,,,,,5bf3294917a7de0001cf6e4b,606c0d650f1813c85a8caba2,2021-04-06_09h27.49.581,Colour_Similarity_Experiment,2020.2.10,Linux x86_64,60,6067542a4a25243f4d7d4fcf,17.29127232,16.73567018,16.74568922,16.75182507,16.69286181,16.74568922,,,,,,,,,,,,,,,,,,,,PF,weak,3,,,,,,,,3,6.003595,,,,,,,,,,,,,,,,,,,,,,,,,,,7,weak,-32.49458313,-90.25390625,1,0,0,response5disk,8,32,15.16784668,2.879524231,1,0,0,rectangle,15.16784668,2.879524231,1,0,0,4,4,0.00328,15.16784668,2.879524231,1,0,0,0,31,31,140,1,0,,,,,,,,,,,,,,,,,,,,,
,,,,,,,,,,,,,,,,,,,,,,,,,,,,,,,,,,,,,,,,,,5bf3294917a7de0001cf6e4b,606c0d650f1813c85a8caba2,2021-04-06_09h27.49.581,Colour_Similarity_Experiment,2020.2.10,Linux x86_64,60,6067542a4a25243f4d7d4fcf,17.29127232,16.73567018,16.74568922,16.75182507,16.69286181,16.74568922,,,,,,,,,,,,,,,,,,,,PF,weak,3,,,,,,,,3,1.69864,,,,,,,,,,,,,,,,,,,,,,,,,,,8,weak,-38.61991882,-87.2636795,1,0,0,response5disk,7,33,9.334411621,-9.660491943,1,0,0,rectangle,9.334411621,-9.660491943,1,0,0,4,0,0.00758,9.334411621,-9.660491943,1,0,0,0,32,32,23,1,0,,,,,,,,,,,,,,,,,,,,,
,,,,,,,,,,,,,,,,,,,,,,,,,,,,,,,,,,,,,,,,,,5bf3294917a7de0001cf6e4b,606c0d650f1813c85a8caba2,2021-04-06_09h27.49.581,Colour_Similarity_Experiment,2020.2.10,Linux x86_64,60,6067542a4a25243f4d7d4fcf,17.29127232,16.73567018,16.74568922,16.75182507,16.69286181,16.74568922,,,,,,,,,,,,,,,,,,,,PF,weak,3,,,,,,,,2,2.70252,,,,,,,,,,,,,,,,,,,,,,,,,,,5,weak,-96.42967224,-35.72887421,1,0,0,response5disk,6,34,11.26235962,8.24634552,1,0,0,rectangle,11.26235962,8.24634552,1,0,0,4,6,0.002865,11.26235962,8.24634552,1,0,0,0,33,33,103,1,0,,,,,,,,,,,,,,,,,,,,,
,,,,,,,,,,,,,,,,,,,,,,,,,,,,,,,,,,,,,,,,,,5bf3294917a7de0001cf6e4b,606c0d650f1813c85a8caba2,2021-04-06_09h27.49.581,Colour_Similarity_Experiment,2020.2.10,Linux x86_64,60,6067542a4a25243f4d7d4fcf,17.29127232,16.73567018,16.74568922,16.75182507,16.69286181,16.74568922,,,,,,,,,,,,,,,,,,,,PF,weak,3,,,,,,,,0,1.302515,,,,,,,,,,,,,,,,,,,,,,,,,,,6,weak,-32.04704285,81.89113617,1,0,0,response7disk,6,35,-7.837753296,-3.107872009,1,0,0,rectangle,-7.837753296,-3.107872009,1,0,0,4,7,0.00341,-7.837753296,-3.107872009,1,0,0,0,34,34,0,1,0,,,,,,,,,,,,,,,,,,,,,
,,,,,,,,,,,,,,,,,,,,,,,,,,,,,,,,,,,,,,,,,,5bf3294917a7de0001cf6e4b,606c0d650f1813c85a8caba2,2021-04-06_09h27.49.581,Colour_Similarity_Experiment,2020.2.10,Linux x86_64,60,6067542a4a25243f4d7d4fcf,17.29127232,16.73567018,16.74568922,16.75182507,16.69286181,16.74568922,,,,,,,,,,,,,,,,,,,,PF,strong,3,,,,,,,,5,1.219505,,,,,,,,,,,,,,,,,,,,,,,,,,,4,strong,80.59257507,-51.06136322,1,0,0,response3disk,8,36,-21.2134552,-2.439880371,1,0,0,rectangle,-21.2134552,-2.439880371,1,0,0,4,0,0.002915,-21.2134552,-2.439880371,1,0,0,0,35,35,35,1,0,,,,,,,,,,,,,,,,,,,,,
,,,,,,,,,,,,,,,,,,,,,,,,,,,,,,,,,,,,,,,,,,5bf3294917a7de0001cf6e4b,606c0d650f1813c85a8caba2,2021-04-06_09h27.49.581,Colour_Similarity_Experiment,2020.2.10,Linux x86_64,60,6067542a4a25243f4d7d4fcf,17.29127232,16.73567018,16.74568922,16.75182507,16.69286181,16.74568922,,,,,,,,,,,,,,,,,,,,PF,weak,3,,,,,,,,5,1.75023,,,,,,,,,,,,,,,,,,,,,,,,,,,9,weak,79.63432312,-22.29053497,1,0,0,response3disk,5,37,18.14331055,-3.682975769,1,0,0,rectangle,18.14331055,-3.682975769,1,0,0,4,3,0.00359,18.14331055,-3.682975769,1,0,0,0,36,36,134,1,0,,,,,,,,,,,,,,,,,,,,,
,,,,,,,,,,,,,,,,,,,,,,,,,,,,,,,,,,,,,,,,,,5bf3294917a7de0001cf6e4b,606c0d650f1813c85a8caba2,2021-04-06_09h27.49.581,Colour_Similarity_Experiment,2020.2.10,Linux x86_64,60,6067542a4a25243f4d7d4fcf,17.29127232,16.73567018,16.74568922,16.75182507,16.69286181,16.74568922,,,,,,,,,,,,,,,,,,,,PF,strong,3,,,,,,,,4,2.00238,,,,,,,,,,,,,,,,,,,,,,,,,,,1,strong,66.57600403,-92.71099091,1,0,0,response3disk,2,38,7.450027466,-1.230545044,1,0,0,rectangle,7.450027466,-1.230545044,1,0,0,4,5,0.00285,7.450027466,-1.230545044,1,0,0,0,37,37,2,1,0,,,,,,,,,,,,,,,,,,,,,
,,,,,,,,,,,,,,,,,,,,,,,,,,,,,,,,,,,,,,,,,,5bf3294917a7de0001cf6e4b,606c0d650f1813c85a8caba2,2021-04-06_09h27.49.581,Colour_Similarity_Experiment,2020.2.10,Linux x86_64,60,6067542a4a25243f4d7d4fcf,17.29127232,16.73567018,16.74568922,16.75182507,16.69286181,16.74568922,,,,,,,,,,,,,,,,,,,,PF,strong,3,,,,,,,,6,1.83637,,,,,,,,,,,,,,,,,,,,,,,,,,,9,strong,97.14111328,18.60080719,1,0,0,response1disk,6,39,-7.70614624,-8.453941345,1,0,0,rectangle,-7.70614624,-8.453941345,1,0,0,4,3,0.003905,-7.70614624,-8.453941345,1,0,0,0,38,38,117,1,0,,,,,,,,,,,,,,,,,,,,,
,,,,,,,,,,,,,,,,,,,,,,,,,,,,,,,,,,,,,,,,,,5bf3294917a7de0001cf6e4b,606c0d650f1813c85a8caba2,2021-04-06_09h27.49.581,Colour_Similarity_Experiment,2020.2.10,Linux x86_64,60,6067542a4a25243f4d7d4fcf,17.29127232,16.73567018,16.74568922,16.75182507,16.69286181,16.74568922,,,,,,,,,,,,,,,,,,,,PF,weak,3,,,,,,,,6,1.30122,,,,,,,,,,,,,,,,,,,,,,,,,,,8,weak,93.85154724,38.39492798,1,0,0,response1disk,3,40,25.36842346,3.25012207,1,0,0,rectangle,25.36842346,3.25012207,1,0,0,4,0,0.002795,25.36842346,3.25012207,1,0,0,0,39,39,71,1,0,,,,,,,,,,,,,,,,,,,,,
,,,,,,,,,,,,,,,,,,,,,,,,,,,,,,,,,,,,,,,,,,5bf3294917a7de0001cf6e4b,606c0d650f1813c85a8caba2,2021-04-06_09h27.49.581,Colour_Similarity_Experiment,2020.2.10,Linux x86_64,60,6067542a4a25243f4d7d4fcf,17.29127232,16.73567018,16.74568922,16.75182507,16.69286181,16.74568922,,,,,,,,,,,,,,,,,,,,PF,strong,3,,,,,,,,6,1.14899,,,,,,,,,,,,,,,,,,,,,,,,,,,3,strong,85.53405762,30.06687164,1,0,0,response1disk,9,41,25.0604248,-1.56337738,1,0,0,rectangle,25.0604248,-1.56337738,1,0,0,4,1,0.0027,25.0604248,-1.56337738,1,0,0,0,40,40,143,1,0,,,,,,,,,,,,,,,,,,,,,
,,,,,,,,,,,,,,,,,,,,,,,,,,,,,,,,,,,,,,,,,,5bf3294917a7de0001cf6e4b,606c0d650f1813c85a8caba2,2021-04-06_09h27.49.581,Colour_Similarity_Experiment,2020.2.10,Linux x86_64,60,6067542a4a25243f4d7d4fcf,17.29127232,16.73567018,16.74568922,16.75182507,16.69286181,16.74568922,,,,,,,,,,,,,,,,,,,,PF,weak,3,,,,,,,,6,1.071565,,,,,,,,,,,,,,,,,,,,,,,,,,,8,weak,106.69487,39.96700287,1,0,0,response1disk,6,42,32.84889221,-4.112510681,1,0,0,rectangle,69.51293945,-39.64488983,1,0,0,5,5,1.835015,4.714508057,2.362251282,1,0,0,0,41,41,161,1,1,response3disk_3,rectangle,,,,,,,,,,,,,,,,,,,
,,,,,,,,,,,,,,,,,,,,,,,,,,,,,,,,,,,,,,,,,,5bf3294917a7de0001cf6e4b,606c0d650f1813c85a8caba2,2021-04-06_09h27.49.581,Colour_Similarity_Experiment,2020.2.10,Linux x86_64,60,6067542a4a25243f4d7d4fcf,17.29127232,16.73567018,16.74568922,16.75182507,16.69286181,16.74568922,,,,,,,,,,,,,,,,,,,,PF,strong,3,,,,,,,,6,2.36993,,,,,,,,,,,,,,,,,,,,,,,,,,,4,strong,95.74714661,24.97348785,1,0,0,response1disk,9,43,-7.302932739,-6.556282043,1,0,0,rectangle,-7.302932739,-6.556282043,1,0,0,5,4,0.00289,-7.302932739,-6.556282043,1,0,0,0,42,42,90,1,0,,,,,,,,,,,,,,,,,,,,,
,,,,,,,,,,,,,,,,,,,,,,,,,,,,,,,,,,,,,,,,,,5bf3294917a7de0001cf6e4b,606c0d650f1813c85a8caba2,2021-04-06_09h27.49.581,Colour_Similarity_Experiment,2020.2.10,Linux x86_64,60,6067542a4a25243f4d7d4fcf,17.29127232,16.73567018,16.74568922,16.75182507,16.69286181,16.74568922,,,,,,,,,,,,,,,,,,,,PF,strong,3,,,,,,,,0,1.587275,,,,,,,,,,,,,,,,,,,,,,,,,,,9,strong,-53.17749023,70.62397003,1,0,0,response7disk,9,44,6.810836792,-4.443664551,1,0,0,rectangle,6.810836792,-4.443664551,1,0,0,5,0,0.004285,6.810836792,-4.443664551,1,0,0,0,43,43,17,1,0,,,,,,,,,,,,,,,,,,,,,
,,,,,,,,,,,,,,,,,,,,,,,,,,,,,,,,,,,,,,,,,,5bf3294917a7de0001cf6e4b,606c0d650f1813c85a8caba2,2021-04-06_09h27.49.581,Colour_Similarity_Experiment,2020.2.10,Linux x86_64,60,6067542a4a25243f4d7d4fcf,17.29127232,16.73567018,16.74568922,16.75182507,16.69286181,16.74568922,,,,,,,,,,,,,,,,,,,,PF,weak,3,,,,,,,,5,3.226765,,,,,,,,,,,,,,,,,,,,,,,,,,,7,weak,112.4730682,-58.44585419,1,0,0,response3disk,2,45,-5.643005371,3.823547363,1,0,0,rectangle,-5.643005371,3.823547363,1,0,0,5,3,0.00288,-5.643005371,3.823547363,1,0,0,0,44,44,32,1,0,,,,,,,,,,,,,,,,,,,,,
,,,,,,,,,,,,,,,,,,,,,,,,,,,,,,,,,,,,,,,,,,5bf3294917a7de0001cf6e4b,606c0d650f1813c85a8caba2,2021-04-06_09h27.49.581,Colour_Similarity_Experiment,2020.2.10,Linux x86_64,60,6067542a4a25243f4d7d4fcf,17.29127232,16.73567018,16.74568922,16.75182507,16.69286181,16.74568922,,,,,,,,,,,,,,,,,,,,PF,strong,3,,,,,,,,6,1.3023,,,,,,,,,,,,,,,,,,,,,,,,,,,8,strong,75.26954651,31.76685333,1,0,0,response1disk,3,46,-15.37376404,-6.664543152,1,0,0,rectangle,-15.37376404,-6.664543152,1,0,0,5,7,0.001,-15.37376404,-6.664543152,1,0,0,0,45,45,154,1,0,,,,,,,,,,,,,,,,,,,,,
,,,,,,,,,,,,,,,,,,,,,,,,,,,,,,,,,,,,,,,,,,5bf3294917a7de0001cf6e4b,606c0d650f1813c85a8caba2,2021-04-06_09h27.49.581,Colour_Similarity_Experiment,2020.2.10,Linux x86_64,60,6067542a4a25243f4d7d4fcf,17.29127232,16.73567018,16.74568922,16.75182507,16.69286181,16.74568922,,,,,,,,,,,,,,,,,,,,PF,strong,3,,,,,,,,6,3.55239,,,,,,,,,,,,,,,,,,,,,,,,,,,6,strong,115.7659912,53.3322525,1,0,0,response1disk,8,47,25.65132141,1.720581055,1,0,0,rectangle,25.65132141,1.720581055,1,0,0,5,3,0.00474,25.65132141,1.720581055,1,0,0,0,46,46,133,1,0,,,,,,,,,,,,,,,,,,,,,
,,,,,,,,,,,,,,,,,,,,,,,,,,,,,,,,,,,,,,,,,,5bf3294917a7de0001cf6e4b,606c0d650f1813c85a8caba2,2021-04-06_09h27.49.581,Colour_Similarity_Experiment,2020.2.10,Linux x86_64,60,6067542a4a25243f4d7d4fcf,17.29127232,16.73567018,16.74568922,16.75182507,16.69286181,16.74568922,,,,,,,,,,,,,,,,,,,,PF,strong,3,,,,,,,,6,1.624495,,,,,,,,,,,,,,,,,,,,,,,,,,,4,strong,100.1174927,31.13983154,1,0,0,response1disk,7,48,-24.89776611,-3.469009399,1,0,0,rectangle,-24.89776611,-3.469009399,1,0,0,5,4,0.002745,-24.89776611,-3.469009399,1,0,0,0,47,47,87,1,0,,,,,,,,,,,,,,,,,,,,,
,,,,,,,,,,,,,,,,,,,,,,,,,,,,,,,,,,,,,,,,,,5bf3294917a7de0001cf6e4b,606c0d650f1813c85a8caba2,2021-04-06_09h27.49.581,Colour_Similarity_Experiment,2020.2.10,Linux x86_64,60,6067542a4a25243f4d7d4fcf,17.29127232,16.73567018,16.74568922,16.75182507,16.69286181,16.74568922,,,,,,,,,,,,,,,,,,,,PF,strong,3,,,,,,,,0,1.402225,,,,,,,,,,,,,,,,,,,,,,,,,,,8,strong,-29.44946289,71.33823395,1,0,0,response7disk,9,49,-8.886566162,0.427894592,1,0,0,rectangle,-8.886566162,0.427894592,1,0,0,5,6,0.02553,-8.886566162,0.427894592,1,0,0,0,48,48,105,1,0,,,,,,,,,,,,,,,,,,,,,
,,,,,,,,,,,,,,,,,,,,,,,,,,,,,,,,,,,,,,,,,,5bf3294917a7de0001cf6e4b,606c0d650f1813c85a8caba2,2021-04-06_09h27.49.581,Colour_Similarity_Experiment,2020.2.10,Linux x86_64,60,6067542a4a25243f4d7d4fcf,17.29127232,16.73567018,16.74568922,16.75182507,16.69286181,16.74568922,,,,,,,,,,,,,,,,,,,,PF,strong,3,,,,,,,,4,1.217875,,,,,,,,,,,,,,,,,,,,,,,,,,,9,strong,42.00866699,-63.57543945,1,0,0,response3disk,4,50,5.79536438,9.469642639,1,0,0,rectangle,5.79536438,9.469642639,1,0,0,5,2,0.003035,5.79536438,9.469642639,1,0,0,0,49,49,60,1,0,,,,,,,,,,,,,,,,,,,,,
,,,,,,,,,,,,,,,,,,,,,,,,,,,,,,,,,,,,,,,,,,5bf3294917a7de0001cf6e4b,606c0d650f1813c85a8caba2,2021-04-06_09h27.49.581,Colour_Similarity_Experiment,2020.2.10,Linux x86_64,60,6067542a4a25243f4d7d4fcf,17.29127232,16.73567018,16.74568922,16.75182507,16.69286181,16.74568922,,,,,,,,,,,,,,,,,,,,PF,strong,3,,,,,,,,2,3.32406,,,,,,,,,,,,,,,,,,,,,,,,,,,5,strong,-60.44090271,-40.41919708,1,0,0,response5disk,3,51,12.62115479,-8.198623657,1,0,0,rectangle,12.62115479,-8.198623657,1,0,0,5,5,0.00184,12.62115479,-8.198623657,1,0,0,0,50,50,25,1,0,,,,,,,,,,,,,,,,,,,,,
,,,,,,,,,,,,,,,,,,,,,,,,,,,,,,,,,,,,,,,,,,5bf3294917a7de0001cf6e4b,606c0d650f1813c85a8caba2,2021-04-06_09h27.49.581,Colour_Similarity_Experiment,2020.2.10,Linux x86_64,60,6067542a4a25243f4d7d4fcf,17.29127232,16.73567018,16.74568922,16.75182507,16.69286181,16.74568922,,,,,,,,,,,,,,,,,,,,PF,weak,3,,,,,,,,4,2.40738,,,,,,,,,,,,,,,,,,,,,,,,,,,2,weak,34.28375244,-59.27345276,1,0,0,response3disk,6,52,-3.358840942,16.15879059,1,0,0,rectangle,-3.358840942,16.15879059,1,0,0,5,6,0.002855,-3.358840942,16.15879059,1,0,0,0,51,51,113,1,0,,,,,,,,,,,,,,,,,,,,,
,,,,,,,,,,,,,,,,,,,,,,,,,,,,,,,,,,,,,,,,,,5bf3294917a7de0001cf6e4b,606c0d650f1813c85a8caba2,2021-04-06_09h27.49.581,Colour_Similarity_Experiment,2020.2.10,Linux x86_64,60,6067542a4a25243f4d7d4fcf,17.29127232,16.73567018,16.74568922,16.75182507,16.69286181,16.74568922,,,,,,,,,,,,,,,,,,,,PF,weak,3,,,,,,,,5,1.64183,,,,,,,,,,,,,,,,,,,,,,,,,,,1,weak,75.23803711,-49.67323303,1,0,0,response3disk,4,53,15.01029968,-13.10974121,1,0,0,rectangle,15.01029968,-13.10974121,1,0,0,5,5,0.003595,15.01029968,-13.10974121,1,0,0,0,52,52,139,1,0,,,,,,,,,,,,,,,,,,,,,
,,,,,,,,,,,,,,,,,,,,,,,,,,,,,,,,,,,,,,,,,,5bf3294917a7de0001cf6e4b,606c0d650f1813c85a8caba2,2021-04-06_09h27.49.581,Colour_Similarity_Experiment,2020.2.10,Linux x86_64,60,6067542a4a25243f4d7d4fcf,17.29127232,16.73567018,16.74568922,16.75182507,16.69286181,16.74568922,,,,,,,,,,,,,,,,,,,,PF,weak,3,,,,,,,,1,2.650195,,,,,,,,,,,,,,,,,,,,,,,,,,,8,weak,-90.32829285,22.7293396,1,0,0,response7disk,9,54,-2.523117065,3.656959534,1,0,0,rectangle,-2.523117065,3.656959534,1,0,0,5,3,0.00596,-2.523117065,3.656959534,1,0,0,0,53,53,42,1,0,,,,,,,,,,,,,,,,,,,,,
,,,,,,,,,,,,,,,,,,,,,,,,,,,,,,,,,,,,,,,,,,5bf3294917a7de0001cf6e4b,606c0d650f1813c85a8caba2,2021-04-06_09h27.49.581,Colour_Similarity_Experiment,2020.2.10,Linux x86_64,60,6067542a4a25243f4d7d4fcf,17.29127232,16.73567018,16.74568922,16.75182507,16.69286181,16.74568922,,,,,,,,,,,,,,,,,,,,PF,weak,3,,,,,,,,3,1.818445,,,,,,,,,,,,,,,,,,,,,,,,,,,6,weak,-28.80577087,-60.85998535,1,0,0,response5disk,7,55,10.49621582,-4.201431274,1,0,0,rectangle,10.49621582,-4.201431274,1,0,0,5,4,0.003075,10.49621582,-4.201431274,1,0,0,0,54,54,50,1,0,,,,,,,,,,,,,,,,,,,,,
,,,,,,,,,,,,,,,,,,,,,,,,,,,,,,,,,,,,,,,,,,5bf3294917a7de0001cf6e4b,606c0d650f1813c85a8caba2,2021-04-06_09h27.49.581,Colour_Similarity_Experiment,2020.2.10,Linux x86_64,60,6067542a4a25243f4d7d4fcf,17.29127232,16.73567018,16.74568922,16.75182507,16.69286181,16.74568922,,,,,,,,,,,,,,,,,,,,PF,weak,3,,,,,,,,6,1.783225,,,,,,,,,,,,,,,,,,,,,,,,,,,1,weak,111.9544983,37.05932617,1,0,0,response1disk,6,56,25.87928772,3.509788513,1,0,0,rectangle,25.87928772,3.509788513,1,0,0,5,6,0.00298,25.87928772,3.509788513,1,0,0,0,55,55,144,1,0,,,,,,,,,,,,,,,,,,,,,
,,,,,,,,,,,,,,,,,,,,,,,,,,,,,,,,,,,,,,,,,,5bf3294917a7de0001cf6e4b,606c0d650f1813c85a8caba2,2021-04-06_09h27.49.581,Colour_Similarity_Experiment,2020.2.10,Linux x86_64,60,6067542a4a25243f4d7d4fcf,17.29127232,16.73567018,16.74568922,16.75182507,16.69286181,16.74568922,,,,,,,,,,,,,,,,,,,,PF,weak,3,,,,,,,,6,2.6053,,,,,,,,,,,,,,,,,,,,,,,,,,,4,weak,122.3668671,29.54090118,1,0,0,response1disk,2,57,1.197814941,-6.982078552,1,0,0,rectangle,1.197814941,-6.982078552,1,0,0,5,0,0.00324,1.197814941,-6.982078552,1,0,0,0,56,56,108,1,0,,,,,,,,,,,,,,,,,,,,,
,,,,,,,,,,,,,,,,,,,,,,,,,,,,,,,,,,,,,,,,,,5bf3294917a7de0001cf6e4b,606c0d650f1813c85a8caba2,2021-04-06_09h27.49.581,Colour_Similarity_Experiment,2020.2.10,Linux x86_64,60,6067542a4a25243f4d7d4fcf,17.29127232,16.73567018,16.74568922,16.75182507,16.69286181,16.74568922,,,,,,,,,,,,,,,,,,,,PF,strong,3,,,,,,,,6,1.43435,,,,,,,,,,,,,,,,,,,,,,,,,,,5,strong,81.69288635,32.96813965,1,0,0,response1disk,2,58,2.351989746,2.051124573,1,0,0,rectangle,37.92694092,-68.72402191,1,0,0,4,4,1.68464,3.518600464,-1.922340393,1,0,0,0,57,57,55,1,1,response3disk_3,rectangle,,,,,,,,,,,,,,,,,,,
,,,,,,,,,,,,,,,,,,,,,,,,,,,,,,,,,,,,,,,,,,5bf3294917a7de0001cf6e4b,606c0d650f1813c85a8caba2,2021-04-06_09h27.49.581,Colour_Similarity_Experiment,2020.2.10,Linux x86_64,60,6067542a4a25243f4d7d4fcf,17.29127232,16.73567018,16.74568922,16.75182507,16.69286181,16.74568922,,,,,,,,,,,,,,,,,,,,PF,strong,3,,,,,,,,6,5.76815,,,,,,,,,,,,,,,,,,,,,,,,,,,9,strong,125.7953644,42.8068924,1,0,0,response1disk,5,59,18.89213562,2.114906311,1,0,0,rectangle,18.89213562,2.114906311,1,0,0,4,1,0.00397,18.89213562,2.114906311,1,0,0,0,58,58,128,1,0,,,,,,,,,,,,,,,,,,,,,
,,,,,,,,,,,,,,,,,,,,,,,,,,,,,,,,,,,,,,,,,,5bf3294917a7de0001cf6e4b,606c0d650f1813c85a8caba2,2021-04-06_09h27.49.581,Colour_Similarity_Experiment,2020.2.10,Linux x86_64,60,6067542a4a25243f4d7d4fcf,17.29127232,16.73567018,16.74568922,16.75182507,16.69286181,16.74568922,,,,,,,,,,,,,,,,,,,,PF,strong,3,,,,,,,,6,3.05228,,,,,,,,,,,,,,,,,,,,,,,,,,,3,strong,94.62158203,27.92175293,1,0,0,response1disk,7,60,13.54118347,4.507980347,1,0,0,rectangle,13.54118347,4.507980347,1,0,0,4,4,0.002675,13.54118347,4.507980347,1,0,0,0,59,59,118,1,0,,,,,,,,,,,,,,,,,,,,,
,,,,,,,,,,,,,,,,,,,,,,,,,,,,,,,,,,,,,,,,,,5bf3294917a7de0001cf6e4b,606c0d650f1813c85a8caba2,2021-04-06_09h27.49.581,Colour_Similarity_Experiment,2020.2.10,Linux x86_64,60,6067542a4a25243f4d7d4fcf,17.29127232,16.73567018,16.74568922,16.75182507,16.69286181,16.74568922,,,,,,,,,,,,,,,,,,,,PF,weak,3,,,,,,,,5,2.0364,,,,,,,,,,,,,,,,,,,,,,,,,,,4,weak,101.2433624,-35.18848419,1,0,0,response3disk,8,61,4.138259888,-0.394668579,1,0,0,rectangle,4.138259888,-0.394668579,1,0,0,4,6,0.003815,4.138259888,-0.394668579,1,0,0,0,60,60,124,1,0,,,,,,,,,,,,,,,,,,,,,
,,,,,,,,,,,,,,,,,,,,,,,,,,,,,,,,,,,,,,,,,,5bf3294917a7de0001cf6e4b,606c0d650f1813c85a8caba2,2021-04-06_09h27.49.581,Colour_Similarity_Experiment,2020.2.10,Linux x86_64,60,6067542a4a25243f4d7d4fcf,17.29127232,16.73567018,16.74568922,16.75182507,16.69286181,16.74568922,,,,,,,,,,,,,,,,,,,,PF,weak,3,,,,,,,,3,1.734715,,,,,,,,,,,,,,,,,,,,,,,,,,,2,weak,-37.85873413,-73.81771088,1,0,0,response5disk,7,62,5.724868774,2.71030426,1,0,0,rectangle,5.724868774,2.71030426,1,0,0,4,7,0.00382,5.724868774,2.71030426,1,0,0,0,61,61,107,1,0,,,,,,,,,,,,,,,,,,,,,
,,,,,,,,,,,,,,,,,,,,,,,,,,,,,,,,,,,,,,,,,,5bf3294917a7de0001cf6e4b,606c0d650f1813c85a8caba2,2021-04-06_09h27.49.581,Colour_Similarity_Experiment,2020.2.10,Linux x86_64,60,6067542a4a25243f4d7d4fcf,17.29127232,16.73567018,16.74568922,16.75182507,16.69286181,16.74568922,,,,,,,,,,,,,,,,,,,,PF,weak,3,,,,,,,,2,2.777145,,,,,,,,,,,,,,,,,,,,,,,,,,,6,weak,-80.74699402,-28.74385834,1,0,0,response5disk,4,63,-8.180618286,-6.803970337,1,0,0,rectangle,-8.180618286,-6.803970337,1,0,0,4,0,0.00307,-8.180618286,-6.803970337,1,0,0,0,62,62,33,1,0,,,,,,,,,,,,,,,,,,,,,
,,,,,,,,,,,,,,,,,,,,,,,,,,,,,,,,,,,,,,,,,,5bf3294917a7de0001cf6e4b,606c0d650f1813c85a8caba2,2021-04-06_09h27.49.581,Colour_Similarity_Experiment,2020.2.10,Linux x86_64,60,6067542a4a25243f4d7d4fcf,17.29127232,16.73567018,16.74568922,16.75182507,16.69286181,16.74568922,,,,,,,,,,,,,,,,,,,,PF,strong,3,,,,,,,,4,3.42204,,,,,,,,,,,,,,,,,,,,,,,,,,,6,strong,33.41300964,-83.83892059,1,0,0,response3disk,7,64,6.625747681,6.349411011,1,0,0,rectangle,6.625747681,6.349411011,1,0,0,4,0,0.000865,6.625747681,6.349411011,1,0,0,0,63,63,18,1,0,,,,,,,,,,,,,,,,,,,,,
,,,,,,,,,,,,,,,,,,,,,,,,,,,,,,,,,,,,,,,,,,5bf3294917a7de0001cf6e4b,606c0d650f1813c85a8caba2,2021-04-06_09h27.49.581,Colour_Similarity_Experiment,2020.2.10,Linux x86_64,60,6067542a4a25243f4d7d4fcf,17.29127232,16.73567018,16.74568922,16.75182507,16.69286181,16.74568922,,,,,,,,,,,,,,,,,,,,PF,weak,3,,,,,,,,6,2.522175,,,,,,,,,,,,,,,,,,,,,,,,,,,5,weak,122.1420288,54.49523926,1,0,0,response1disk,1,65,9.490432739,6.291847229,1,0,0,rectangle,-91.79756165,49.53704834,1,0,0,1,1,1.518415,-23.72993469,9.326171875,1,0,0,0,64,64,159,1,1,response7disk_3,rectangle,,,,,,,,,,,,,,,,,,,
,,,,,,,,,,,,,,,,,,,,,,,,,,,,,,,,,,,,,,,,,,5bf3294917a7de0001cf6e4b,606c0d650f1813c85a8caba2,2021-04-06_09h27.49.581,Colour_Similarity_Experiment,2020.2.10,Linux x86_64,60,6067542a4a25243f4d7d4fcf,17.29127232,16.73567018,16.74568922,16.75182507,16.69286181,16.74568922,,,,,,,,,,,,,,,,,,,,PF,strong,3,,,,,,,,0,1.4157,,,,,,,,,,,,,,,,,,,,,,,,,,,3,strong,-43.37043762,77.91576385,1,0,0,response7disk,3,66,-0.645751953,-5.179710388,1,0,0,rectangle,-0.645751953,-5.179710388,1,0,0,1,3,0.00342,-0.645751953,-5.179710388,1,0,0,0,65,65,68,1,0,,,,,,,,,,,,,,,,,,,,,
,,,,,,,,,,,,,,,,,,,,,,,,,,,,,,,,,,,,,,,,,,5bf3294917a7de0001cf6e4b,606c0d650f1813c85a8caba2,2021-04-06_09h27.49.581,Colour_Similarity_Experiment,2020.2.10,Linux x86_64,60,6067542a4a25243f4d7d4fcf,17.29127232,16.73567018,16.74568922,16.75182507,16.69286181,16.74568922,,,,,,,,,,,,,,,,,,,,PF,strong,3,,,,,,,,2,2.169465,,,,,,,,,,,,,,,,,,,,,,,,,,,3,strong,-86.33399963,-65.9696579,1,0,0,response5disk,5,67,2.172393799,-3.110542297,1,0,0,rectangle,2.172393799,-3.110542297,1,0,0,1,7,0.002655,2.172393799,-3.110542297,1,0,0,0,66,66,101,1,0,,,,,,,,,,,,,,,,,,,,,
,,,,,,,,,,,,,,,,,,,,,,,,,,,,,,,,,,,,,,,,,,5bf3294917a7de0001cf6e4b,606c0d650f1813c85a8caba2,2021-04-06_09h27.49.581,Colour_Similarity_Experiment,2020.2.10,Linux x86_64,60,6067542a4a25243f4d7d4fcf,17.29127232,16.73567018,16.74568922,16.75182507,16.69286181,16.74568922,,,,,,,,,,,,,,,,,,,,PF,strong,3,,,,,,,,3,2.585395,,,,,,,,,,,,,,,,,,,,,,,,,,,8,strong,-43.83392334,-59.57439423,1,0,0,response5disk,1,68,-6.464767456,-3.535461426,1,0,0,rectangle,-6.464767456,-3.535461426,1,0,0,1,1,0.004045,-6.464767456,-3.535461426,1,0,0,0,67,67,20,1,0,,,,,,,,,,,,,,,,,,,,,
,,,,,,,,,,,,,,,,,,,,,,,,,,,,,,,,,,,,,,,,,,5bf3294917a7de0001cf6e4b,606c0d650f1813c85a8caba2,2021-04-06_09h27.49.581,Colour_Similarity_Experiment,2020.2.10,Linux x86_64,60,6067542a4a25243f4d7d4fcf,17.29127232,16.73567018,16.74568922,16.75182507,16.69286181,16.74568922,,,,,,,,,,,,,,,,,,,,PF,strong,3,,,,,,,,2,1.68519,,,,,,,,,,,,,,,,,,,,,,,,,,,6,strong,-84.81987,-48.43688965,1,0,0,response5disk,3,69,8.037033081,-2.13344574,1,0,0,rectangle,8.037033081,-2.13344574,1,0,0,1,0,0.002915,8.037033081,-2.13344574,1,0,0,0,68,68,21,1,0,,,,,,,,,,,,,,,,,,,,,
,,,,,,,,,,,,,,,,,,,,,,,,,,,,,,,,,,,,,,,,,,5bf3294917a7de0001cf6e4b,606c0d650f1813c85a8caba2,2021-04-06_09h27.49.581,Colour_Similarity_Experiment,2020.2.10,Linux x86_64,60,6067542a4a25243f4d7d4fcf,17.29127232,16.73567018,16.74568922,16.75182507,16.69286181,16.74568922,,,,,,,,,,,,,,,,,,,,PF,weak,3,,,,,,,,5,3.13794,,,,,,,,,,,,,,,,,,,,,,,,,,,3,weak,98.06465149,-52.60906219,1,0,0,response3disk,8,70,29.91821289,-10.02651215,1,0,0,rectangle,29.91821289,-10.02651215,1,0,0,1,0,0.000435,29.91821289,-10.02651215,1,0,0,0,69,69,3,1,0,,,,,,,,,,,,,,,,,,,,,
,,,,,,,,,,,,,,,,,,,,,,,,,,,,,,,,,,,,,,,,,,5bf3294917a7de0001cf6e4b,606c0d650f1813c85a8caba2,2021-04-06_09h27.49.581,Colour_Similarity_Experiment,2020.2.10,Linux x86_64,60,6067542a4a25243f4d7d4fcf,17.29127232,16.73567018,16.74568922,16.75182507,16.69286181,16.74568922,,,,,,,,,,,,,,,,,,,,PF,strong,3,,,,,,,,3,3.003995,,,,,,,,,,,,,,,,,,,,,,,,,,,3,strong,-36.12678528,-65.04425049,1,0,0,response5disk,4,71,2.603988647,7.755737305,1,0,0,rectangle,2.603988647,7.755737305,1,0,0,1,2,0.002865,2.603988647,7.755737305,1,0,0,0,70,70,110,1,0,,,,,,,,,,,,,,,,,,,,,
,,,,,,,,,,,,,,,,,,,,,,,,,,,,,,,,,,,,,,,,,,5bf3294917a7de0001cf6e4b,606c0d650f1813c85a8caba2,2021-04-06_09h27.49.581,Colour_Similarity_Experiment,2020.2.10,Linux x86_64,60,6067542a4a25243f4d7d4fcf,17.29127232,16.73567018,16.74568922,16.75182507,16.69286181,16.74568922,,,,,,,,,,,,,,,,,,,,PF,weak,3,,,,,,,,4,2.569655,,,,,,,,,,,,,,,,,,,,,,,,,,,5,weak,51.38206482,-59.88616943,1,0,0,response3disk,7,72,-5.477600098,-4.096832275,1,0,0,rectangle,-5.477600098,-4.096832275,1,0,0,1,5,0.003735,-5.477600098,-4.096832275,1,0,0,0,71,71,146,1,0,,,,,,,,,,,,,,,,,,,,,
,,,,,,,,,,,,,,,,,,,,,,,,,,,,,,,,,,,,,,,,,,5bf3294917a7de0001cf6e4b,606c0d650f1813c85a8caba2,2021-04-06_09h27.49.581,Colour_Similarity_Experiment,2020.2.10,Linux x86_64,60,6067542a4a25243f4d7d4fcf,17.29127232,16.73567018,16.74568922,16.75182507,16.69286181,16.74568922,,,,,,,,,,,,,,,,,,,,PF,weak,3,,,,,,,,6,2.984905,,,,,,,,,,,,,,,,,,,,,,,,,,,9,weak,94.24819946,34.04472351,1,0,0,response1disk,4,73,8.549880981,-5.901794434,1,0,0,rectangle,8.549880981,-5.901794434,1,0,0,1,5,0.0009,8.549880981,-5.901794434,1,0,0,0,72,72,114,1,0,,,,,,,,,,,,,,,,,,,,,
,,,,,,,,,,,,,,,,,,,,,,,,,,,,,,,,,,,,,,,,,,5bf3294917a7de0001cf6e4b,606c0d650f1813c85a8caba2,2021-04-06_09h27.49.581,Colour_Similarity_Experiment,2020.2.10,Linux x86_64,60,6067542a4a25243f4d7d4fcf,17.29127232,16.73567018,16.74568922,16.75182507,16.69286181,16.74568922,,,,,,,,,,,,,,,,,,,,PF,strong,3,,,,,,,,4,2.901645,,,,,,,,,,,,,,,,,,,,,,,,,,,1,strong,69.97947693,-94.85378265,1,0,0,response3disk,9,74,16.05674744,-10.3698349,1,0,0,rectangle,16.05674744,-10.3698349,1,0,0,1,4,0.00788,16.05674744,-10.3698349,1,0,0,0,73,73,123,1,0,,,,,,,,,,,,,,,,,,,,,
,,,,,,,,,,,,,,,,,,,,,,,,,,,,,,,,,,,,,,,,,,5bf3294917a7de0001cf6e4b,606c0d650f1813c85a8caba2,2021-04-06_09h27.49.581,Colour_Similarity_Experiment,2020.2.10,Linux x86_64,60,6067542a4a25243f4d7d4fcf,17.29127232,16.73567018,16.74568922,16.75182507,16.69286181,16.74568922,,,,,,,,,,,,,,,,,,,,PF,weak,3,,,,,,,,0,1.16969,,,,,,,,,,,,,,,,,,,,,,,,,,,3,weak,-41.64070129,80.13538361,1,0,0,response7disk,3,75,-22.94456482,13.75961304,1,0,0,rectangle,-22.94456482,13.75961304,1,0,0,1,1,0.00588,-22.94456482,13.75961304,1,0,0,0,74,74,4,1,0,,,,,,,,,,,,,,,,,,,,,
,,,,,,,,,,,,,,,,,,,,,,,,,,,,,,,,,,,,,,,,,,5bf3294917a7de0001cf6e4b,606c0d650f1813c85a8caba2,2021-04-06_09h27.49.581,Colour_Similarity_Experiment,2020.2.10,Linux x86_64,60,6067542a4a25243f4d7d4fcf,17.29127232,16.73567018,16.74568922,16.75182507,16.69286181,16.74568922,,,,,,,,,,,,,,,,,,,,PF,strong,3,,,,,,,,5,2.63787,,,,,,,,,,,,,,,,,,,,,,,,,,,2,strong,105.2429962,-51.71802521,1,0,0,response3disk,7,76,19.33113098,-11.47613525,1,0,0,rectangle,19.33113098,-11.47613525,1,0,0,1,1,0.00054,19.33113098,-11.47613525,1,0,0,0,75,75,63,1,0,,,,,,,,,,,,,,,,,,,,,
,,,,,,,,,,,,,,,,,,,,,,,,,,,,,,,,,,,,,,,,,,5bf3294917a7de0001cf6e4b,606c0d650f1813c85a8caba2,2021-04-06_09h27.49.581,Colour_Similarity_Experiment,2020.2.10,Linux x86_64,60,6067542a4a25243f4d7d4fcf,17.29127232,16.73567018,16.74568922,16.75182507,16.69286181,16.74568922,,,,,,,,,,,,,,,,,,,,PF,strong,3,,,,,,,,3,4.10435,,,,,,,,,,,,,,,,,,,,,,,,,,,7,strong,-37.34886169,-88.60713959,1,0,0,response5disk,5,77,18.30436707,9.652824402,1,0,0,rectangle,18.30436707,9.652824402,1,0,0,1,2,0.00406,18.30436707,9.652824402,1,0,0,0,76,76,156,1,0,,,,,,,,,,,,,,,,,,,,,
,,,,,,,,,,,,,,,,,,,,,,,,,,,,,,,,,,,,,,,,,,5bf3294917a7de0001cf6e4b,606c0d650f1813c85a8caba2,2021-04-06_09h27.49.581,Colour_Similarity_Experiment,2020.2.10,Linux x86_64,60,6067542a4a25243f4d7d4fcf,17.29127232,16.73567018,16.74568922,16.75182507,16.69286181,16.74568922,,,,,,,,,,,,,,,,,,,,PF,strong,3,,,,,,,,3,2.51672,,,,,,,,,,,,,,,,,,,,,,,,,,,1,strong,-23.98040771,-82.45220184,1,0,0,response5disk,8,78,17.69859314,13.21990967,1,0,0,rectangle,17.69859314,13.21990967,1,0,0,1,1,0.00377,17.69859314,13.21990967,1,0,0,0,77,77,27,1,0,,,,,,,,,,,,,,,,,,,,,
,,,,,,,,,,,,,,,,,,,,,,,,,,,,,,,,,,,,,,,,,,5bf3294917a7de0001cf6e4b,606c0d650f1813c85a8caba2,2021-04-06_09h27.49.581,Colour_Similarity_Experiment,2020.2.10,Linux x86_64,60,6067542a4a25243f4d7d4fcf,17.29127232,16.73567018,16.74568922,16.75182507,16.69286181,16.74568922,,,,,,,,,,,,,,,,,,,,PF,strong,3,,,,,,,,4,4.769175,,,,,,,,,,,,,,,,,,,,,,,,,,,2,strong,32.95539856,-109.4216537,1,0,0,response3disk,5,79,-4.56451416,-14.01592255,1,0,0,rectangle,-4.56451416,-14.01592255,1,0,0,1,1,0.00074,-4.56451416,-14.01592255,1,0,0,0,78,78,80,1,0,,,,,,,,,,,,,,,,,,,,,
,,,,,,,,,,,,,,,,,,,,,,,,,,,,,,,,,,,,,,,,,,5bf3294917a7de0001cf6e4b,606c0d650f1813c85a8caba2,2021-04-06_09h27.49.581,Colour_Similarity_Experiment,2020.2.10,Linux x86_64,60,6067542a4a25243f4d7d4fcf,17.29127232,16.73567018,16.74568922,16.75182507,16.69286181,16.74568922,,,,,,,,,,,,,,,,,,,,PF,weak,3,,,,,,,,2,1.41766,,,,,,,,,,,,,,,,,,,,,,,,,,,3,weak,-72.47612,-45.70148468,1,0,0,response5disk,4,80,-3.895874023,0.299224854,1,0,0,rectangle,-3.895874023,0.299224854,1,0,0,1,0,0.00269,-3.895874023,0.299224854,1,0,0,0,79,79,30,1,0,,,,,,,,,,,,,,,,,,,,,
,,,,,,,,,,,,,,,,,,,,,,,,,,,,,,,,,,,,,,,,,,5bf3294917a7de0001cf6e4b,606c0d650f1813c85a8caba2,2021-04-06_09h27.49.581,Colour_Similarity_Experiment,2020.2.10,Linux x86_64,60,6067542a4a25243f4d7d4fcf,17.29127232,16.73567018,16.74568922,16.75182507,16.69286181,16.74568922,,,,,,,,,,,,,,,,,,,,PF,strong,3,,,,,,,,3,1.888555,,,,,,,,,,,,,,,,,,,,,,,,,,,7,strong,-33.42285156,-71.37336731,1,0,0,response5disk,8,81,15.36186218,-5.867424011,1,0,0,rectangle,34.06974792,-73.63990784,1,0,0,4,4,2.06791,-11.79130554,1.765022278,1,0,0,0,80,80,97,1,1,response3disk_3,rectangle,,,,,,,,,,,,,,,,,,,
,,,,,,,,,,,,,,,,,,,,,,,,,,,,,,,,,,,,,,,,,,5bf3294917a7de0001cf6e4b,606c0d650f1813c85a8caba2,2021-04-06_09h27.49.581,Colour_Similarity_Experiment,2020.2.10,Linux x86_64,60,6067542a4a25243f4d7d4fcf,17.29127232,16.73567018,16.74568922,16.75182507,16.69286181,16.74568922,,,,,,,,,,,,,,,,,,,,PF,weak,3,,,,,,,,3,3.62653,,,,,,,,,,,,,,,,,,,,,,,,,,,7,weak,-52.55371094,-103.1079102,1,0,0,response5disk,9,82,-7.43347168,-6.344146729,1,0,0,rectangle,-7.43347168,-6.344146729,1,0,0,4,4,0.00046,-7.43347168,-6.344146729,1,0,0,0,81,81,10,1,0,,,,,,,,,,,,,,,,,,,,,
,,,,,,,,,,,,,,,,,,,,,,,,,,,,,,,,,,,,,,,,,,5bf3294917a7de0001cf6e4b,606c0d650f1813c85a8caba2,2021-04-06_09h27.49.581,Colour_Similarity_Experiment,2020.2.10,Linux x86_64,60,6067542a4a25243f4d7d4fcf,17.29127232,16.73567018,16.74568922,16.75182507,16.69286181,16.74568922,,,,,,,,,,,,,,,,,,,,PF,weak,3,,,,,,,,3,3.254475,,,,,,,,,,,,,,,,,,,,,,,,,,,1,weak,-42.9889679,-77.30964661,1,0,0,response5disk,5,83,0.690307617,-3.096961975,1,0,0,rectangle,0.690307617,-3.096961975,1,0,0,4,0,0.00318,0.690307617,-3.096961975,1,0,0,0,82,82,28,1,0,,,,,,,,,,,,,,,,,,,,,
,,,,,,,,,,,,,,,,,,,,,,,,,,,,,,,,,,,,,,,,,,5bf3294917a7de0001cf6e4b,606c0d650f1813c85a8caba2,2021-04-06_09h27.49.581,Colour_Similarity_Experiment,2020.2.10,Linux x86_64,60,6067542a4a25243f4d7d4fcf,17.29127232,16.73567018,16.74568922,16.75182507,16.69286181,16.74568922,,,,,,,,,,,,,,,,,,,,PF,strong,3,,,,,,,,4,2.137125,,,,,,,,,,,,,,,,,,,,,,,,,,,2,strong,78.4311676,-83.71437073,1,0,0,response3disk,1,84,6.762924194,2.061653137,1,0,0,rectangle,6.762924194,2.061653137,1,0,0,4,1,0.003365,6.762924194,2.061653137,1,0,0,0,83,83,85,1,0,,,,,,,,,,,,,,,,,,,,,
,,,,,,,,,,,,,,,,,,,,,,,,,,,,,,,,,,,,,,,,,,5bf3294917a7de0001cf6e4b,606c0d650f1813c85a8caba2,2021-04-06_09h27.49.581,Colour_Similarity_Experiment,2020.2.10,Linux x86_64,60,6067542a4a25243f4d7d4fcf,17.29127232,16.73567018,16.74568922,16.75182507,16.69286181,16.74568922,,,,,,,,,,,,,,,,,,,,PF,strong,3,,,,,,,,2,1.703335,,,,,,,,,,,,,,,,,,,,,,,,,,,2,strong,-81.21795654,-59.20269012,1,0,0,response5disk,6,85,7.142410278,-11.51489258,1,0,0,rectangle,7.142410278,-11.51489258,1,0,0,4,7,0.0044,7.142410278,-11.51489258,1,0,0,0,84,84,40,1,0,,,,,,,,,,,,,,,,,,,,,
,,,,,,,,,,,,,,,,,,,,,,,,,,,,,,,,,,,,,,,,,,5bf3294917a7de0001cf6e4b,606c0d650f1813c85a8caba2,2021-04-06_09h27.49.581,Colour_Similarity_Experiment,2020.2.10,Linux x86_64,60,6067542a4a25243f4d7d4fcf,17.29127232,16.73567018,16.74568922,16.75182507,16.69286181,16.74568922,,,,,,,,,,,,,,,,,,,,PF,strong,3,,,,,,,,3,2.037465,,,,,,,,,,,,,,,,,,,,,,,,,,,2,strong,-40.14228821,-52.37957001,1,0,0,response5disk,9,86,-6.802825928,2.007369995,1,0,0,rectangle,-6.802825928,2.007369995,1,0,0,4,6,0.002545,-6.802825928,2.007369995,1,0,0,0,85,85,72,1,0,,,,,,,,,,,,,,,,,,,,,
,,,,,,,,,,,,,,,,,,,,,,,,,,,,,,,,,,,,,,,,,,5bf3294917a7de0001cf6e4b,606c0d650f1813c85a8caba2,2021-04-06_09h27.49.581,Colour_Similarity_Experiment,2020.2.10,Linux x86_64,60,6067542a4a25243f4d7d4fcf,17.29127232,16.73567018,16.74568922,16.75182507,16.69286181,16.74568922,,,,,,,,,,,,,,,,,,,,PF,strong,3,,,,,,,,3,1.57066,,,,,,,,,,,,,,,,,,,,,,,,,,,1,strong,-30.78704834,-65.16181946,1,0,0,response5disk,6,87,0.0365448,-8.248291016,1,0,0,rectangle,0.0365448,-8.248291016,1,0,0,4,2,0.003105,0.0365448,-8.248291016,1,0,0,0,86,86,58,1,0,,,,,,,,,,,,,,,,,,,,,
,,,,,,,,,,,,,,,,,,,,,,,,,,,,,,,,,,,,,,,,,,5bf3294917a7de0001cf6e4b,606c0d650f1813c85a8caba2,2021-04-06_09h27.49.581,Colour_Similarity_Experiment,2020.2.10,Linux x86_64,60,6067542a4a25243f4d7d4fcf,17.29127232,16.73567018,16.74568922,16.75182507,16.69286181,16.74568922,,,,,,,,,,,,,,,,,,,,PF,weak,3,,,,,,,,2,1.58864,,,,,,,,,,,,,,,,,,,,,,,,,,,9,weak,-117.9304123,-19.57172394,1,0,0,response5disk,8,88,-29.0813446,-0.93044281,1,0,0,rectangle,-29.0813446,-0.93044281,1,0,0,4,3,0.003855,-29.0813446,-0.93044281,1,0,0,0,87,87,67,1,0,,,,,,,,,,,,,,,,,,,,,
,,,,,,,,,,,,,,,,,,,,,,,,,,,,,,,,,,,,,,,,,,5bf3294917a7de0001cf6e4b,606c0d650f1813c85a8caba2,2021-04-06_09h27.49.581,Colour_Similarity_Experiment,2020.2.10,Linux x86_64,60,6067542a4a25243f4d7d4fcf,17.29127232,16.73567018,16.74568922,16.75182507,16.69286181,16.74568922,,,,,,,,,,,,,,,,,,,,PF,weak,3,,,,,,,,2,2.408485,,,,,,,,,,,,,,,,,,,,,,,,,,,3,weak,-88.57063293,-51.12537384,1,0,0,response5disk,5,89,-11.81030273,-5.341758728,1,0,0,rectangle,-11.81030273,-5.341758728,1,0,0,4,0,0.00399,-11.81030273,-5.341758728,1,0,0,0,88,88,66,1,0,,,,,,,,,,,,,,,,,,,,,
,,,,,,,,,,,,,,,,,,,,,,,,,,,,,,,,,,,,,,,,,,5bf3294917a7de0001cf6e4b,606c0d650f1813c85a8caba2,2021-04-06_09h27.49.581,Colour_Similarity_Experiment,2020.2.10,Linux x86_64,60,6067542a4a25243f4d7d4fcf,17.29127232,16.73567018,16.74568922,16.75182507,16.69286181,16.74568922,,,,,,,,,,,,,,,,,,,,PF,weak,3,,,,,,,,1,1.621285,,,,,,,,,,,,,,,,,,,,,,,,,,,1,weak,-91.92192078,49.45896149,1,0,0,response7disk,9,90,-6.514968872,-3.238296509,1,0,0,rectangle,-6.514968872,-3.238296509,1,0,0,4,7,0.00426,-6.514968872,-3.238296509,1,0,0,0,89,89,15,1,0,,,,,,,,,,,,,,,,,,,,,
,,,,,,,,,,,,,,,,,,,,,,,,,,,,,,,,,,,,,,,,,,5bf3294917a7de0001cf6e4b,606c0d650f1813c85a8caba2,2021-04-06_09h27.49.581,Colour_Similarity_Experiment,2020.2.10,Linux x86_64,60,6067542a4a25243f4d7d4fcf,17.29127232,16.73567018,16.74568922,16.75182507,16.69286181,16.74568922,,,,,,,,,,,,,,,,,,,,PF,weak,3,,,,,,,,1,1.15141,,,,,,,,,,,,,,,,,,,,,,,,,,,2,weak,-80.79269409,39.8204422,1,0,0,response7disk,3,91,-20.06645203,-1.352844238,1,0,0,rectangle,-20.06645203,-1.352844238,1,0,0,4,0,0.00403,-20.06645203,-1.352844238,1,0,0,0,90,90,69,1,0,,,,,,,,,,,,,,,,,,,,,
,,,,,,,,,,,,,,,,,,,,,,,,,,,,,,,,,,,,,,,,,,5bf3294917a7de0001cf6e4b,606c0d650f1813c85a8caba2,2021-04-06_09h27.49.581,Colour_Similarity_Experiment,2020.2.10,Linux x86_64,60,6067542a4a25243f4d7d4fcf,17.29127232,16.73567018,16.74568922,16.75182507,16.69286181,16.74568922,,,,,,,,,,,,,,,,,,,,PF,weak,3,,,,,,,,3,2.10483,,,,,,,,,,,,,,,,,,,,,,,,,,,5,weak,-35.12016296,-75.79631805,1,0,0,response5disk,8,92,-1.016921997,17.64057159,1,0,0,rectangle,-1.016921997,17.64057159,1,0,0,4,0,0.000445,-1.016921997,17.64057159,1,0,0,0,91,91,149,1,0,,,,,,,,,,,,,,,,,,,,,
,,,,,,,,,,,,,,,,,,,,,,,,,,,,,,,,,,,,,,,,,,5bf3294917a7de0001cf6e4b,606c0d650f1813c85a8caba2,2021-04-06_09h27.49.581,Colour_Similarity_Experiment,2020.2.10,Linux x86_64,60,6067542a4a25243f4d7d4fcf,17.29127232,16.73567018,16.74568922,16.75182507,16.69286181,16.74568922,,,,,,,,,,,,,,,,,,,,PF,weak,3,,,,,,,,4,1.819085,,,,,,,,,,,,,,,,,,,,,,,,,,,9,weak,40.00488281,-81.0149765,1,0,0,response3disk,2,93,-7.361450195,-2.632522583,1,0,0,rectangle,-7.361450195,-2.632522583,1,0,0,4,7,0.00267,-7.361450195,-2.632522583,1,0,0,0,92,92,157,1,0,,,,,,,,,,,,,,,,,,,,,
,,,,,,,,,,,,,,,,,,,,,,,,,,,,,,,,,,,,,,,,,,5bf3294917a7de0001cf6e4b,606c0d650f1813c85a8caba2,2021-04-06_09h27.49.581,Colour_Similarity_Experiment,2020.2.10,Linux x86_64,60,6067542a4a25243f4d7d4fcf,17.29127232,16.73567018,16.74568922,16.75182507,16.69286181,16.74568922,,,,,,,,,,,,,,,,,,,,PF,weak,3,,,,,,,,4,1.654175,,,,,,,,,,,,,,,,,,,,,,,,,,,5,weak,28.10646057,-66.96094513,1,0,0,response3disk,2,94,3.517379761,-4.40612793,1,0,0,rectangle,3.517379761,-4.40612793,1,0,0,4,4,0.00255,3.517379761,-4.40612793,1,0,0,0,93,93,129,1,0,,,,,,,,,,,,,,,,,,,,,
,,,,,,,,,,,,,,,,,,,,,,,,,,,,,,,,,,,,,,,,,,5bf3294917a7de0001cf6e4b,606c0d650f1813c85a8caba2,2021-04-06_09h27.49.581,Colour_Similarity_Experiment,2020.2.10,Linux x86_64,60,6067542a4a25243f4d7d4fcf,17.29127232,16.73567018,16.74568922,16.75182507,16.69286181,16.74568922,,,,,,,,,,,,,,,,,,,,PF,strong,3,,,,,,,,4,3.504495,,,,,,,,,,,,,,,,,,,,,,,,,,,5,strong,41.91825867,-98.2201004,1,0,0,response3disk,9,95,6.385726929,-11.78768158,1,0,0,rectangle,6.385726929,-11.78768158,1,0,0,4,7,0.00322,6.385726929,-11.78768158,1,0,0,0,94,94,61,1,0,,,,,,,,,,,,,,,,,,,,,
,,,,,,,,,,,,,,,,,,,,,,,,,,,,,,,,,,,,,,,,,,5bf3294917a7de0001cf6e4b,606c0d650f1813c85a8caba2,2021-04-06_09h27.49.581,Colour_Similarity_Experiment,2020.2.10,Linux x86_64,60,6067542a4a25243f4d7d4fcf,17.29127232,16.73567018,16.74568922,16.75182507,16.69286181,16.74568922,,,,,,,,,,,,,,,,,,,,PF,strong,3,,,,,,,,0,1.318875,,,,,,,,,,,,,,,,,,,,,,,,,,,6,strong,-29.24934387,57.93754578,1,0,0,response7disk,6,96,-8.615646362,-2.843513489,1,0,0,rectangle,-8.615646362,-2.843513489,1,0,0,4,4,0.00117,-8.615646362,-2.843513489,1,0,0,0,95,95,91,1,0,,,,,,,,,,,,,,,,,,,,,
,,,,,,,,,,,,,,,,,,,,,,,,,,,,,,,,,,,,,,,,,,5bf3294917a7de0001cf6e4b,606c0d650f1813c85a8caba2,2021-04-06_09h27.49.581,Colour_Similarity_Experiment,2020.2.10,Linux x86_64,60,6067542a4a25243f4d7d4fcf,17.29127232,16.73567018,16.74568922,16.75182507,16.69286181,16.74568922,,,,,,,,,,,,,,,,,,,,PF,strong,3,,,,,,,,1,2.939045,,,,,,,,,,,,,,,,,,,,,,,,,,,2,strong,-60.41244507,22.2208786,1,0,0,response7disk,3,97,15.20317078,-6.220855713,1,0,0,rectangle,99.1834259,34.16381836,1,0,0,6,6,2.319335,-7.206192017,-4.629020691,1,0,0,0,96,96,104,1,1,response1disk_3,rectangle,,,,,,,,,,,,,,,,,,,
,,,,,,,,,,,,,,,,,,,,,,,,,,,,,,,,,,,,,,,,,,5bf3294917a7de0001cf6e4b,606c0d650f1813c85a8caba2,2021-04-06_09h27.49.581,Colour_Similarity_Experiment,2020.2.10,Linux x86_64,60,6067542a4a25243f4d7d4fcf,17.29127232,16.73567018,16.74568922,16.75182507,16.69286181,16.74568922,,,,,,,,,,,,,,,,,,,,PF,strong,3,,,,,,,,5,2.68623,,,,,,,,,,,,,,,,,,,,,,,,,,,6,strong,95.80070496,-47.55195618,1,0,0,response3disk,4,98,25.25588989,-10.75550079,1,0,0,rectangle,25.25588989,-10.75550079,1,0,0,6,7,0.003425,25.25588989,-10.75550079,1,0,0,0,97,97,56,1,0,,,,,,,,,,,,,,,,,,,,,
,,,,,,,,,,,,,,,,,,,,,,,,,,,,,,,,,,,,,,,,,,5bf3294917a7de0001cf6e4b,606c0d650f1813c85a8caba2,2021-04-06_09h27.49.581,Colour_Similarity_Experiment,2020.2.10,Linux x86_64,60,6067542a4a25243f4d7d4fcf,17.29127232,16.73567018,16.74568922,16.75182507,16.69286181,16.74568922,,,,,,,,,,,,,,,,,,,,PF,weak,3,,,,,,,,4,2.017875,,,,,,,,,,,,,,,,,,,,,,,,,,,1,weak,40.47683716,-57.08667755,1,0,0,response3disk,2,99,2.002258301,11.22531891,1,0,0,rectangle,2.002258301,11.22531891,1,0,0,6,5,0.002775,2.002258301,11.22531891,1,0,0,0,98,98,24,1,0,,,,,,,,,,,,,,,,,,,,,
,,,,,,,,,,,,,,,,,,,,,,,,,,,,,,,,,,,,,,,,,,5bf3294917a7de0001cf6e4b,606c0d650f1813c85a8caba2,2021-04-06_09h27.49.581,Colour_Similarity_Experiment,2020.2.10,Linux x86_64,60,6067542a4a25243f4d7d4fcf,17.29127232,16.73567018,16.74568922,16.75182507,16.69286181,16.74568922,,,,,,,,,,,,,,,,,,,,PF,weak,3,,,,,,,,5,1.800015,,,,,,,,,,,,,,,,,,,,,,,,,,,7,weak,88.74855042,-36.7748642,1,0,0,response3disk,3,100,-14.28504944,-2.25063324,1,0,0,rectangle,-14.28504944,-2.25063324,1,0,0,6,5,0.00055,-14.28504944,-2.25063324,1,0,0,0,99,99,81,1,0,,,,,,,,,,,,,,,,,,,,,
,,,,,,,,,,,,,,,,,,,,,,,,,,,,,,,,,,,,,,,,,,5bf3294917a7de0001cf6e4b,606c0d650f1813c85a8caba2,2021-04-06_09h27.49.581,Colour_Similarity_Experiment,2020.2.10,Linux x86_64,60,6067542a4a25243f4d7d4fcf,17.29127232,16.73567018,16.74568922,16.75182507,16.69286181,16.74568922,,,,,,,,,,,,,,,,,,,,PF,weak,3,,,,,,,,3,2.051505,,,,,,,,,,,,,,,,,,,,,,,,,,,5,weak,-52.68371582,-64.71687317,1,0,0,response5disk,4,101,-1.042404175,3.837547302,1,0,0,rectangle,-1.042404175,3.837547302,1,0,0,6,4,0.004635,-1.042404175,3.837547302,1,0,0,0,100,100,54,1,0,,,,,,,,,,,,,,,,,,,,,
,,,,,,,,,,,,,,,,,,,,,,,,,,,,,,,,,,,,,,,,,,5bf3294917a7de0001cf6e4b,606c0d650f1813c85a8caba2,2021-04-06_09h27.49.581,Colour_Similarity_Experiment,2020.2.10,Linux x86_64,60,6067542a4a25243f4d7d4fcf,17.29127232,16.73567018,16.74568922,16.75182507,16.69286181,16.74568922,,,,,,,,,,,,,,,,,,,,PF,strong,3,,,,,,,,3,1.65137,,,,,,,,,,,,,,,,,,,,,,,,,,,5,strong,-30.94322205,-54.41772461,1,0,0,response5disk,8,102,2.036132813,-9.247589111,1,0,0,rectangle,2.036132813,-9.247589111,1,0,0,6,2,0.00359,2.036132813,-9.247589111,1,0,0,0,101,101,16,1,0,,,,,,,,,,,,,,,,,,,,,
,,,,,,,,,,,,,,,,,,,,,,,,,,,,,,,,,,,,,,,,,,5bf3294917a7de0001cf6e4b,606c0d650f1813c85a8caba2,2021-04-06_09h27.49.581,Colour_Similarity_Experiment,2020.2.10,Linux x86_64,60,6067542a4a25243f4d7d4fcf,17.29127232,16.73567018,16.74568922,16.75182507,16.69286181,16.74568922,,,,,,,,,,,,,,,,,,,,PF,strong,3,,,,,,,,3,3.64835,,,,,,,,,,,,,,,,,,,,,,,,,,,8,strong,-30.44189453,-71.34380341,1,0,0,response5disk,7,103,10.14770508,-3.678588867,1,0,0,rectangle,10.14770508,-3.678588867,1,0,0,6,7,0.002565,10.14770508,-3.678588867,1,0,0,0,102,102,86,1,0,,,,,,,,,,,,,,,,,,,,,
,,,,,,,,,,,,,,,,,,,,,,,,,,,,,,,,,,,,,,,,,,5bf3294917a7de0001cf6e4b,606c0d650f1813c85a8caba2,2021-04-06_09h27.49.581,Colour_Similarity_Experiment,2020.2.10,Linux x86_64,60,6067542a4a25243f4d7d4fcf,17.29127232,16.73567018,16.74568922,16.75182507,16.69286181,16.74568922,,,,,,,,,,,,,,,,,,,,PF,strong,3,,,,,,,,3,2.338915,,,,,,,,,,,,,,,,,,,,,,,,,,,6,strong,-36.66305542,-97.20344543,1,0,0,response5disk,5,104,4.846725464,-11.341362,1,0,0,rectangle,4.846725464,-11.341362,1,0,0,6,2,0.003005,4.846725464,-11.341362,1,0,0,0,103,103,126,1,0,,,,,,,,,,,,,,,,,,,,,
,,,,,,,,,,,,,,,,,,,,,,,,,,,,,,,,,,,,,,,,,,5bf3294917a7de0001cf6e4b,606c0d650f1813c85a8caba2,2021-04-06_09h27.49.581,Colour_Similarity_Experiment,2020.2.10,Linux x86_64,60,6067542a4a25243f4d7d4fcf,17.29127232,16.73567018,16.74568922,16.75182507,16.69286181,16.74568922,,,,,,,,,,,,,,,,,,,,PF,strong,3,,,,,,,,0,1.238945,,,,,,,,,,,,,,,,,,,,,,,,,,,5,strong,-41.17477417,69.96555328,1,0,0,response7disk,5,105,-15.29174805,0.168685913,1,0,0,rectangle,-15.29174805,0.168685913,1,0,0,6,1,0.004335,-15.29174805,0.168685913,1,0,0,0,104,104,19,1,0,,,,,,,,,,,,,,,,,,,,,
,,,,,,,,,,,,,,,,,,,,,,,,,,,,,,,,,,,,,,,,,,5bf3294917a7de0001cf6e4b,606c0d650f1813c85a8caba2,2021-04-06_09h27.49.581,Colour_Similarity_Experiment,2020.2.10,Linux x86_64,60,6067542a4a25243f4d7d4fcf,17.29127232,16.73567018,16.74568922,16.75182507,16.69286181,16.74568922,,,,,,,,,,,,,,,,,,,,PF,strong,3,,,,,,,,5,3.73737,,,,,,,,,,,,,,,,,,,,,,,,,,,2,strong,75.67985535,-34.4467926,1,0,0,response3disk,8,106,-31.4616394,10.18146515,1,0,0,rectangle,-31.4616394,10.18146515,1,0,0,6,3,0.0032,-31.4616394,10.18146515,1,0,0,0,105,105,62,1,0,,,,,,,,,,,,,,,,,,,,,
,,,,,,,,,,,,,,,,,,,,,,,,,,,,,,,,,,,,,,,,,,5bf3294917a7de0001cf6e4b,606c0d650f1813c85a8caba2,2021-04-06_09h27.49.581,Colour_Similarity_Experiment,2020.2.10,Linux x86_64,60,6067542a4a25243f4d7d4fcf,17.29127232,16.73567018,16.74568922,16.75182507,16.69286181,16.74568922,,,,,,,,,,,,,,,,,,,,PF,weak,3,,,,,,,,4,1.5189,,,,,,,,,,,,,,,,,,,,,,,,,,,6,weak,36.81938171,-59.18758392,1,0,0,response3disk,3,107,-7.836227417,7.910881042,1,0,0,rectangle,-7.836227417,7.910881042,1,0,0,6,1,0.002245,-7.836227417,7.910881042,1,0,0,0,106,106,26,1,0,,,,,,,,,,,,,,,,,,,,,
,,,,,,,,,,,,,,,,,,,,,,,,,,,,,,,,,,,,,,,,,,5bf3294917a7de0001cf6e4b,606c0d650f1813c85a8caba2,2021-04-06_09h27.49.581,Colour_Similarity_Experiment,2020.2.10,Linux x86_64,60,6067542a4a25243f4d7d4fcf,17.29127232,16.73567018,16.74568922,16.75182507,16.69286181,16.74568922,,,,,,,,,,,,,,,,,,,,PF,weak,3,,,,,,,,1,1.285855,,,,,,,,,,,,,,,,,,,,,,,,,,,8,weak,-81.9278717,34.74021912,1,0,0,response7disk,8,108,-14.27253723,2.977333069,1,0,0,rectangle,-14.27253723,2.977333069,1,0,0,6,2,0.0043,-14.27253723,2.977333069,1,0,0,0,107,107,153,1,0,,,,,,,,,,,,,,,,,,,,,
,,,,,,,,,,,,,,,,,,,,,,,,,,,,,,,,,,,,,,,,,,5bf3294917a7de0001cf6e4b,606c0d650f1813c85a8caba2,2021-04-06_09h27.49.581,Colour_Similarity_Experiment,2020.2.10,Linux x86_64,60,6067542a4a25243f4d7d4fcf,17.29127232,16.73567018,16.74568922,16.75182507,16.69286181,16.74568922,,,,,,,,,,,,,,,,,,,,PF,strong,3,,,,,,,,2,1.683485,,,,,,,,,,,,,,,,,,,,,,,,,,,5,strong,-82.18711853,-29.13074493,1,0,0,response5disk,6,109,-8.47114563,6.122894287,1,0,0,rectangle,-8.47114563,6.122894287,1,0,0,6,0,0.003955,-8.47114563,6.122894287,1,0,0,0,108,108,12,1,0,,,,,,,,,,,,,,,,,,,,,
,,,,,,,,,,,,,,,,,,,,,,,,,,,,,,,,,,,,,,,,,,5bf3294917a7de0001cf6e4b,606c0d650f1813c85a8caba2,2021-04-06_09h27.49.581,Colour_Similarity_Experiment,2020.2.10,Linux x86_64,60,6067542a4a25243f4d7d4fcf,17.29127232,16.73567018,16.74568922,16.75182507,16.69286181,16.74568922,,,,,,,,,,,,,,,,,,,,PF,strong,3,,,,,,,,2,1.769725,,,,,,,,,,,,,,,,,,,,,,,,,,,4,strong,-83.64768982,-34.28630829,1,0,0,response5disk,6,110,-12.34519958,-5.212440491,1,0,0,rectangle,-12.34519958,-5.212440491,1,0,0,6,4,0.002775,-12.34519958,-5.212440491,1,0,0,0,109,109,122,1,0,,,,,,,,,,,,,,,,,,,,,
,,,,,,,,,,,,,,,,,,,,,,,,,,,,,,,,,,,,,,,,,,5bf3294917a7de0001cf6e4b,606c0d650f1813c85a8caba2,2021-04-06_09h27.49.581,Colour_Similarity_Experiment,2020.2.10,Linux x86_64,60,6067542a4a25243f4d7d4fcf,17.29127232,16.73567018,16.74568922,16.75182507,16.69286181,16.74568922,,,,,,,,,,,,,,,,,,,,PF,strong,3,,,,,,,,4,3.47089,,,,,,,,,,,,,,,,,,,,,,,,,,,9,strong,38.53874207,-89.19078827,1,0,0,response3disk,1,111,-1.339492798,0.519676208,1,0,0,rectangle,-1.339492798,0.519676208,1,0,0,6,2,0.00305,-1.339492798,0.519676208,1,0,0,0,110,110,111,1,0,,,,,,,,,,,,,,,,,,,,,
,,,,,,,,,,,,,,,,,,,,,,,,,,,,,,,,,,,,,,,,,,5bf3294917a7de0001cf6e4b,606c0d650f1813c85a8caba2,2021-04-06_09h27.49.581,Colour_Similarity_Experiment,2020.2.10,Linux x86_64,60,6067542a4a25243f4d7d4fcf,17.29127232,16.73567018,16.74568922,16.75182507,16.69286181,16.74568922,,,,,,,,,,,,,,,,,,,,PF,strong,3,,,,,,,,3,2.1676,,,,,,,,,,,,,,,,,,,,,,,,,,,7,strong,-31.91650391,-72.46101379,1,0,0,response5disk,3,112,12.28637695,-6.054153442,1,0,0,rectangle,12.28637695,-6.054153442,1,0,0,6,7,0.00355,12.28637695,-6.054153442,1,0,0,0,111,111,73,1,0,,,,,,,,,,,,,,,,,,,,,
,,,,,,,,,,,,,,,,,,,,,,,,,,,,,,,,,,,,,,,,,,5bf3294917a7de0001cf6e4b,606c0d650f1813c85a8caba2,2021-04-06_09h27.49.581,Colour_Similarity_Experiment,2020.2.10,Linux x86_64,60,6067542a4a25243f4d7d4fcf,17.29127232,16.73567018,16.74568922,16.75182507,16.69286181,16.74568922,,,,,,,,,,,,,,,,,,,,PF,weak,3,,,,,,,,2,1.803415,,,,,,,,,,,,,,,,,,,,,,,,,,,3,weak,-93.75152588,-38.11397552,1,0,0,response5disk,2,113,-3.966445923,8.571472168,1,0,0,rectangle,-32.32780457,-90.67501068,1,0,0,3,3,1.5529,19.02336121,3.941841125,1,0,0,0,112,112,36,1,1,response5disk_3,rectangle,,,,,,,,,,,,,,,,,,,
,,,,,,,,,,,,,,,,,,,,,,,,,,,,,,,,,,,,,,,,,,5bf3294917a7de0001cf6e4b,606c0d650f1813c85a8caba2,2021-04-06_09h27.49.581,Colour_Similarity_Experiment,2020.2.10,Linux x86_64,60,6067542a4a25243f4d7d4fcf,17.29127232,16.73567018,16.74568922,16.75182507,16.69286181,16.74568922,,,,,,,,,,,,,,,,,,,,PF,weak,3,,,,,,,,2,1.36783,,,,,,,,,,,,,,,,,,,,,,,,,,,7,weak,-59.12818909,-29.27997589,1,0,0,response5disk,6,114,1.535873413,-1.962471008,1,0,0,rectangle,1.535873413,-1.962471008,1,0,0,3,3,0.00074,1.535873413,-1.962471008,1,0,0,0,113,113,29,1,0,,,,,,,,,,,,,,,,,,,,,
,,,,,,,,,,,,,,,,,,,,,,,,,,,,,,,,,,,,,,,,,,5bf3294917a7de0001cf6e4b,606c0d650f1813c85a8caba2,2021-04-06_09h27.49.581,Colour_Similarity_Experiment,2020.2.10,Linux x86_64,60,6067542a4a25243f4d7d4fcf,17.29127232,16.73567018,16.74568922,16.75182507,16.69286181,16.74568922,,,,,,,,,,,,,,,,,,,,PF,strong,3,,,,,,,,3,2.50707,,,,,,,,,,,,,,,,,,,,,,,,,,,6,strong,-43.57383728,-58.05736542,1,0,0,response5disk,9,115,-5.33782959,-12.304039,1,0,0,rectangle,120.4351044,49.34925079,1,0,0,6,6,1.95173,18.82331848,3.305702209,1,0,0,0,114,114,160,1,1,response1disk_3,rectangle,,,,,,,,,,,,,,,,,,,
,,,,,,,,,,,,,,,,,,,,,,,,,,,,,,,,,,,,,,,,,,5bf3294917a7de0001cf6e4b,606c0d650f1813c85a8caba2,2021-04-06_09h27.49.581,Colour_Similarity_Experiment,2020.2.10,Linux x86_64,60,6067542a4a25243f4d7d4fcf,17.29127232,16.73567018,16.74568922,16.75182507,16.69286181,16.74568922,,,,,,,,,,,,,,,,,,,,PF,strong,3,,,,,,,,4,2.404855,,,,,,,,,,,,,,,,,,,,,,,,,,,8,strong,35.77888489,-89.61639404,1,0,0,response3disk,2,116,-0.923461914,-7.612953186,1,0,0,rectangle,-0.923461914,-7.612953186,1,0,0,6,7,0.00273,-0.923461914,-7.612953186,1,0,0,0,115,115,22,1,0,,,,,,,,,,,,,,,,,,,,,
,,,,,,,,,,,,,,,,,,,,,,,,,,,,,,,,,,,,,,,,,,5bf3294917a7de0001cf6e4b,606c0d650f1813c85a8caba2,2021-04-06_09h27.49.581,Colour_Similarity_Experiment,2020.2.10,Linux x86_64,60,6067542a4a25243f4d7d4fcf,17.29127232,16.73567018,16.74568922,16.75182507,16.69286181,16.74568922,,,,,,,,,,,,,,,,,,,,PF,strong,3,,,,,,,,3,3.3514,,,,,,,,,,,,,,,,,,,,,,,,,,,9,strong,-46.65718079,-99.34509277,1,0,0,response5disk,8,117,-0.820922852,10.61191559,1,0,0,rectangle,-0.820922852,10.61191559,1,0,0,6,5,0.00292,-0.820922852,10.61191559,1,0,0,0,116,116,6,1,0,,,,,,,,,,,,,,,,,,,,,
,,,,,,,,,,,,,,,,,,,,,,,,,,,,,,,,,,,,,,,,,,5bf3294917a7de0001cf6e4b,606c0d650f1813c85a8caba2,2021-04-06_09h27.49.581,Colour_Similarity_Experiment,2020.2.10,Linux x86_64,60,6067542a4a25243f4d7d4fcf,17.29127232,16.73567018,16.74568922,16.75182507,16.69286181,16.74568922,,,,,,,,,,,,,,,,,,,,PF,weak,3,,,,,,,,3,1.95173,,,,,,,,,,,,,,,,,,,,,,,,,,,1,weak,-32.40455627,-72.16255188,1,0,0,response5disk,7,118,7.494430542,-3.630027771,1,0,0,rectangle,7.494430542,-3.630027771,1,0,0,6,4,0.00273,7.494430542,-3.630027771,1,0,0,0,117,117,150,1,0,,,,,,,,,,,,,,,,,,,,,
,,,,,,,,,,,,,,,,,,,,,,,,,,,,,,,,,,,,,,,,,,5bf3294917a7de0001cf6e4b,606c0d650f1813c85a8caba2,2021-04-06_09h27.49.581,Colour_Similarity_Experiment,2020.2.10,Linux x86_64,60,6067542a4a25243f4d7d4fcf,17.29127232,16.73567018,16.74568922,16.75182507,16.69286181,16.74568922,,,,,,,,,,,,,,,,,,,,PF,strong,3,,,,,,,,4,2.55862,,,,,,,,,,,,,,,,,,,,,,,,,,,9,strong,28.27095032,-73.54652405,1,0,0,response3disk,2,119,1.021652222,-14.24781799,1,0,0,rectangle,83.65715027,-49.23713684,1,0,0,5,5,1.350545,4.00642395,-1.647186279,1,0,0,0,118,118,11,1,1,response3disk_3,rectangle,,,,,,,,,,,,,,,,,,,
,,,,,,,,,,,,,,,,,,,,,,,,,,,,,,,,,,,,,,,,,,5bf3294917a7de0001cf6e4b,606c0d650f1813c85a8caba2,2021-04-06_09h27.49.581,Colour_Similarity_Experiment,2020.2.10,Linux x86_64,60,6067542a4a25243f4d7d4fcf,17.29127232,16.73567018,16.74568922,16.75182507,16.69286181,16.74568922,,,,,,,,,,,,,,,,,,,,PF,weak,3,,,,,,,,4,4.3588,,,,,,,,,,,,,,,,,,,,,,,,,,,9,weak,70.79017639,-98.84998322,1,0,0,response3disk,6,120,9.880523682,0.967330933,1,0,0,rectangle,9.880523682,0.967330933,1,0,0,5,0,0.00389,9.880523682,0.967330933,1,0,0,0,119,119,148,1,0,,,,,,,,,,,,,,,,,,,,,
,,,,,,,,,,,,,,,,,,,,,,,,,,,,,,,,,,,,,,,,,,5bf3294917a7de0001cf6e4b,606c0d650f1813c85a8caba2,2021-04-06_09h27.49.581,Colour_Similarity_Experiment,2020.2.10,Linux x86_64,60,6067542a4a25243f4d7d4fcf,17.29127232,16.73567018,16.74568922,16.75182507,16.69286181,16.74568922,,,,,,,,,,,,,,,,,,,,PF,strong,3,,,,,,,,2,1.45441,,,,,,,,,,,,,,,,,,,,,,,,,,,3,strong,-76.90063477,-36.73622131,1,0,0,response5disk,2,121,-15.68695068,-4.180984497,1,0,0,rectangle,-15.68695068,-4.180984497,1,0,0,5,0,0.00048,-15.68695068,-4.180984497,1,0,0,0,120,120,93,1,0,,,,,,,,,,,,,,,,,,,,,
,,,,,,,,,,,,,,,,,,,,,,,,,,,,,,,,,,,,,,,,,,5bf3294917a7de0001cf6e4b,606c0d650f1813c85a8caba2,2021-04-06_09h27.49.581,Colour_Similarity_Experiment,2020.2.10,Linux x86_64,60,6067542a4a25243f4d7d4fcf,17.29127232,16.73567018,16.74568922,16.75182507,16.69286181,16.74568922,,,,,,,,,,,,,,,,,,,,PF,weak,3,,,,,,,,0,1.134195,,,,,,,,,,,,,,,,,,,,,,,,,,,4,weak,-55.03746033,97.76958466,1,0,0,response7disk,4,122,-20.57197571,9.364280701,1,0,0,rectangle,-20.57197571,9.364280701,1,0,0,5,1,0.00254,-20.57197571,9.364280701,1,0,0,0,121,121,70,1,0,,,,,,,,,,,,,,,,,,,,,
,,,,,,,,,,,,,,,,,,,,,,,,,,,,,,,,,,,,,,,,,,5bf3294917a7de0001cf6e4b,606c0d650f1813c85a8caba2,2021-04-06_09h27.49.581,Colour_Similarity_Experiment,2020.2.10,Linux x86_64,60,6067542a4a25243f4d7d4fcf,17.29127232,16.73567018,16.74568922,16.75182507,16.69286181,16.74568922,,,,,,,,,,,,,,,,,,,,PF,weak,3,,,,,,,,5,2.235555,,,,,,,,,,,,,,,,,,,,,,,,,,,8,weak,80.26786804,-42.94471741,1,0,0,response3disk,5,123,-6.929321289,2.541542053,1,0,0,rectangle,-6.929321289,2.541542053,1,0,0,5,4,0.004325,-6.929321289,2.541542053,1,0,0,0,122,122,98,1,0,,,,,,,,,,,,,,,,,,,,,
,,,,,,,,,,,,,,,,,,,,,,,,,,,,,,,,,,,,,,,,,,5bf3294917a7de0001cf6e4b,606c0d650f1813c85a8caba2,2021-04-06_09h27.49.581,Colour_Similarity_Experiment,2020.2.10,Linux x86_64,60,6067542a4a25243f4d7d4fcf,17.29127232,16.73567018,16.74568922,16.75182507,16.69286181,16.74568922,,,,,,,,,,,,,,,,,,,,PF,weak,3,,,,,,,,4,2.237105,,,,,,,,,,,,,,,,,,,,,,,,,,,5,weak,47.50907898,-70.84247589,1,0,0,response3disk,3,124,5.030441284,0.591926575,1,0,0,rectangle,5.030441284,0.591926575,1,0,0,5,6,0.00361,5.030441284,0.591926575,1,0,0,0,123,123,109,1,0,,,,,,,,,,,,,,,,,,,,,
,,,,,,,,,,,,,,,,,,,,,,,,,,,,,,,,,,,,,,,,,,5bf3294917a7de0001cf6e4b,606c0d650f1813c85a8caba2,2021-04-06_09h27.49.581,Colour_Similarity_Experiment,2020.2.10,Linux x86_64,60,6067542a4a25243f4d7d4fcf,17.29127232,16.73567018,16.74568922,16.75182507,16.69286181,16.74568922,,,,,,,,,,,,,,,,,,,,PF,strong,3,,,,,,,,2,2.10315,,,,,,,,,,,,,,,,,,,,,,,,,,,8,strong,-88.21434021,-41.27662659,1,0,0,response5disk,8,125,13.89305115,6.778869629,1,0,0,rectangle,13.89305115,6.778869629,1,0,0,5,3,0.004065,13.89305115,6.778869629,1,0,0,0,124,124,48,1,0,,,,,,,,,,,,,,,,,,,,,
,,,,,,,,,,,,,,,,,,,,,,,,,,,,,,,,,,,,,,,,,,5bf3294917a7de0001cf6e4b,606c0d650f1813c85a8caba2,2021-04-06_09h27.49.581,Colour_Similarity_Experiment,2020.2.10,Linux x86_64,60,6067542a4a25243f4d7d4fcf,17.29127232,16.73567018,16.74568922,16.75182507,16.69286181,16.74568922,,,,,,,,,,,,,,,,,,,,PF,weak,3,,,,,,,,1,1.78688,,,,,,,,,,,,,,,,,,,,,,,,,,,6,weak,-83.57505798,19.5993042,1,0,0,response7disk,5,126,-13.19084167,-14.91168976,1,0,0,rectangle,-13.19084167,-14.91168976,1,0,0,5,5,0.00365,-13.19084167,-14.91168976,1,0,0,0,125,125,59,1,0,,,,,,,,,,,,,,,,,,,,,
,,,,,,,,,,,,,,,,,,,,,,,,,,,,,,,,,,,,,,,,,,5bf3294917a7de0001cf6e4b,606c0d650f1813c85a8caba2,2021-04-06_09h27.49.581,Colour_Similarity_Experiment,2020.2.10,Linux x86_64,60,6067542a4a25243f4d7d4fcf,17.29127232,16.73567018,16.74568922,16.75182507,16.69286181,16.74568922,,,,,,,,,,,,,,,,,,,,PF,strong,3,,,,,,,,1,2.289795,,,,,,,,,,,,,,,,,,,,,,,,,,,7,strong,-69.89685059,25.92697144,1,0,0,response7disk,7,127,-12.64472961,2.11391449,1,0,0,rectangle,-12.64472961,2.11391449,1,0,0,5,2,0.003965,-12.64472961,2.11391449,1,0,0,0,126,126,34,1,0,,,,,,,,,,,,,,,,,,,,,
,,,,,,,,,,,,,,,,,,,,,,,,,,,,,,,,,,,,,,,,,,5bf3294917a7de0001cf6e4b,606c0d650f1813c85a8caba2,2021-04-06_09h27.49.581,Colour_Similarity_Experiment,2020.2.10,Linux x86_64,60,6067542a4a25243f4d7d4fcf,17.29127232,16.73567018,16.74568922,16.75182507,16.69286181,16.74568922,,,,,,,,,,,,,,,,,,,,PF,strong,3,,,,,,,,6,3.00388,,,,,,,,,,,,,,,,,,,,,,,,,,,4,strong,101.194458,38.17874908,1,0,0,response1disk,1,128,-10.35461426,-5.841331482,1,0,0,rectangle,-10.35461426,-5.841331482,1,0,0,5,4,0.00342,-10.35461426,-5.841331482,1,0,0,0,127,127,102,1,0,,,,,,,,,,,,,,,,,,,,,
,,,,,,,,,,,,,,,,,,,,,,,,,,,,,,,,,,,,,,,,,,5bf3294917a7de0001cf6e4b,606c0d650f1813c85a8caba2,2021-04-06_09h27.49.581,Colour_Similarity_Experiment,2020.2.10,Linux x86_64,60,6067542a4a25243f4d7d4fcf,17.29127232,16.73567018,16.74568922,16.75182507,16.69286181,16.74568922,,,,,,,,,,,,,,,,,,,,PF,strong,3,,,,,,,,2,1.92347,,,,,,,,,,,,,,,,,,,,,,,,,,,4,strong,-62.17224121,-41.68483734,1,0,0,response5disk,3,129,15.49842834,-6.957511902,1,0,0,rectangle,15.49842834,-6.957511902,1,0,0,5,2,0.00265,15.49842834,-6.957511902,1,0,0,0,128,128,77,1,0,,,,,,,,,,,,,,,,,,,,,
,,,,,,,,,,,,,,,,,,,,,,,,,,,,,,,,,,,,,,,,,,5bf3294917a7de0001cf6e4b,606c0d650f1813c85a8caba2,2021-04-06_09h27.49.581,Colour_Similarity_Experiment,2020.2.10,Linux x86_64,60,6067542a4a25243f4d7d4fcf,17.29127232,16.73567018,16.74568922,16.75182507,16.69286181,16.74568922,,,,,,,,,,,,,,,,,,,,PF,strong,3,,,,,,,,3,3.27124,,,,,,,,,,,,,,,,,,,,,,,,,,,1,strong,-50.75584412,-73.31310272,1,0,0,response5disk,1,130,-0.277938843,-0.684661865,1,0,0,rectangle,-0.277938843,-0.684661865,1,0,0,5,3,0.002505,-0.277938843,-0.684661865,1,0,0,0,129,129,151,1,0,,,,,,,,,,,,,,,,,,,,,
,,,,,,,,,,,,,,,,,,,,,,,,,,,,,,,,,,,,,,,,,,5bf3294917a7de0001cf6e4b,606c0d650f1813c85a8caba2,2021-04-06_09h27.49.581,Colour_Similarity_Experiment,2020.2.10,Linux x86_64,60,6067542a4a25243f4d7d4fcf,17.29127232,16.73567018,16.74568922,16.75182507,16.69286181,16.74568922,,,,,,,,,,,,,,,,,,,,PF,weak,3,,,,,,,,5,1.718535,,,,,,,,,,,,,,,,,,,,,,,,,,,3,weak,80.00579834,-36.8844223,1,0,0,response3disk,6,131,11.19010925,-1.267051697,1,0,0,rectangle,11.19010925,-1.267051697,1,0,0,5,6,0.00493,11.19010925,-1.267051697,1,0,0,0,130,130,47,1,0,,,,,,,,,,,,,,,,,,,,,
,,,,,,,,,,,,,,,,,,,,,,,,,,,,,,,,,,,,,,,,,,5bf3294917a7de0001cf6e4b,606c0d650f1813c85a8caba2,2021-04-06_09h27.49.581,Colour_Similarity_Experiment,2020.2.10,Linux x86_64,60,6067542a4a25243f4d7d4fcf,17.29127232,16.73567018,16.74568922,16.75182507,16.69286181,16.74568922,,,,,,,,,,,,,,,,,,,,PF,weak,3,,,,,,,,3,5.47172,,,,,,,,,,,,,,,,,,,,,,,,,,,9,weak,-41.71020508,-72.65125275,1,0,0,response5disk,7,132,11.84074402,17.04006195,1,0,0,rectangle,11.84074402,17.04006195,1,0,0,5,2,0.002715,11.84074402,17.04006195,1,0,0,0,131,131,121,1,0,,,,,,,,,,,,,,,,,,,,,
,,,,,,,,,,,,,,,,,,,,,,,,,,,,,,,,,,,,,,,,,,5bf3294917a7de0001cf6e4b,606c0d650f1813c85a8caba2,2021-04-06_09h27.49.581,Colour_Similarity_Experiment,2020.2.10,Linux x86_64,60,6067542a4a25243f4d7d4fcf,17.29127232,16.73567018,16.74568922,16.75182507,16.69286181,16.74568922,,,,,,,,,,,,,,,,,,,,PF,weak,3,,,,,,,,5,1.833545,,,,,,,,,,,,,,,,,,,,,,,,,,,6,weak,94.63272095,-42.78717041,1,0,0,response3disk,1,133,6.253890991,-8.161964417,1,0,0,rectangle,6.253890991,-8.161964417,1,0,0,5,5,0.00124,6.253890991,-8.161964417,1,0,0,0,132,132,46,1,0,,,,,,,,,,,,,,,,,,,,,
,,,,,,,,,,,,,,,,,,,,,,,,,,,,,,,,,,,,,,,,,,5bf3294917a7de0001cf6e4b,606c0d650f1813c85a8caba2,2021-04-06_09h27.49.581,Colour_Similarity_Experiment,2020.2.10,Linux x86_64,60,6067542a4a25243f4d7d4fcf,17.29127232,16.73567018,16.74568922,16.75182507,16.69286181,16.74568922,,,,,,,,,,,,,,,,,,,,PF,weak,3,,,,,,,,7,3.305395,,,,,,,,,,,,,,,,,,,,,,,,,,,4,weak,36.6191864,76.41742706,1,0,0,response1disk,1,134,8.724136353,-0.547676086,1,0,0,rectangle,8.724136353,-0.547676086,1,0,0,5,7,0.00388,8.724136353,-0.547676086,1,0,0,0,133,133,115,1,0,,,,,,,,,,,,,,,,,,,,,
,,,,,,,,,,,,,,,,,,,,,,,,,,,,,,,,,,,,,,,,,,5bf3294917a7de0001cf6e4b,606c0d650f1813c85a8caba2,2021-04-06_09h27.49.581,Colour_Similarity_Experiment,2020.2.10,Linux x86_64,60,6067542a4a25243f4d7d4fcf,17.29127232,16.73567018,16.74568922,16.75182507,16.69286181,16.74568922,,,,,,,,,,,,,,,,,,,,PF,strong,3,,,,,,,,3,3.08786,,,,,,,,,,,,,,,,,,,,,,,,,,,4,strong,-38.97796631,-70.49465179,1,0,0,response5disk,2,135,3.765029907,-3.806343079,1,0,0,rectangle,3.765029907,-3.806343079,1,0,0,5,3,0.004155,3.765029907,-3.806343079,1,0,0,0,134,134,13,1,0,,,,,,,,,,,,,,,,,,,,,
,,,,,,,,,,,,,,,,,,,,,,,,,,,,,,,,,,,,,,,,,,5bf3294917a7de0001cf6e4b,606c0d650f1813c85a8caba2,2021-04-06_09h27.49.581,Colour_Similarity_Experiment,2020.2.10,Linux x86_64,60,6067542a4a25243f4d7d4fcf,17.29127232,16.73567018,16.74568922,16.75182507,16.69286181,16.74568922,,,,,,,,,,,,,,,,,,,,PF,weak,3,,,,,,,,3,5.12926,,,,,,,,,,,,,,,,,,,,,,,,,,,4,weak,-35.27748108,-64.40593719,1,0,0,response5disk,6,136,-0.921325684,4.221725464,1,0,0,rectangle,-0.921325684,4.221725464,1,0,0,5,0,0.00301,-0.921325684,4.221725464,1,0,0,0,135,135,120,1,0,,,,,,,,,,,,,,,,,,,,,
,,,,,,,,,,,,,,,,,,,,,,,,,,,,,,,,,,,,,,,,,,5bf3294917a7de0001cf6e4b,606c0d650f1813c85a8caba2,2021-04-06_09h27.49.581,Colour_Similarity_Experiment,2020.2.10,Linux x86_64,60,6067542a4a25243f4d7d4fcf,17.29127232,16.73567018,16.74568922,16.75182507,16.69286181,16.74568922,,,,,,,,,,,,,,,,,,,,PF,strong,3,,,,,,,,5,1.657825,,,,,,,,,,,,,,,,,,,,,,,,,,,6,strong,62.47673035,-27.58911133,1,0,0,response3disk,2,137,11.7766571,-2.909698486,1,0,0,rectangle,11.7766571,-2.909698486,1,0,0,5,5,0.00158,11.7766571,-2.909698486,1,0,0,0,136,136,112,1,0,,,,,,,,,,,,,,,,,,,,,
,,,,,,,,,,,,,,,,,,,,,,,,,,,,,,,,,,,,,,,,,,5bf3294917a7de0001cf6e4b,606c0d650f1813c85a8caba2,2021-04-06_09h27.49.581,Colour_Similarity_Experiment,2020.2.10,Linux x86_64,60,6067542a4a25243f4d7d4fcf,17.29127232,16.73567018,16.74568922,16.75182507,16.69286181,16.74568922,,,,,,,,,,,,,,,,,,,,PF,weak,3,,,,,,,,4,2.221,,,,,,,,,,,,,,,,,,,,,,,,,,,3,weak,43.25653076,-80.38654327,1,0,0,response3disk,9,138,10.56419373,0.996131897,1,0,0,rectangle,10.56419373,0.996131897,1,0,0,5,2,0.00313,10.56419373,0.996131897,1,0,0,0,137,137,79,1,0,,,,,,,,,,,,,,,,,,,,,
,,,,,,,,,,,,,,,,,,,,,,,,,,,,,,,,,,,,,,,,,,5bf3294917a7de0001cf6e4b,606c0d650f1813c85a8caba2,2021-04-06_09h27.49.581,Colour_Similarity_Experiment,2020.2.10,Linux x86_64,60,6067542a4a25243f4d7d4fcf,17.29127232,16.73567018,16.74568922,16.75182507,16.69286181,16.74568922,,,,,,,,,,,,,,,,,,,,PF,strong,3,,,,,,,,6,2.402965,,,,,,,,,,,,,,,,,,,,,,,,,,,1,strong,103.9629364,33.39653015,1,0,0,response1disk,5,139,22.11143494,2.677650452,1,0,0,rectangle,22.11143494,2.677650452,1,0,0,5,4,0.002725,22.11143494,2.677650452,1,0,0,0,138,138,82,1,0,,,,,,,,,,,,,,,,,,,,,
,,,,,,,,,,,,,,,,,,,,,,,,,,,,,,,,,,,,,,,,,,5bf3294917a7de0001cf6e4b,606c0d650f1813c85a8caba2,2021-04-06_09h27.49.581,Colour_Similarity_Experiment,2020.2.10,Linux x86_64,60,6067542a4a25243f4d7d4fcf,17.29127232,16.73567018,16.74568922,16.75182507,16.69286181,16.74568922,,,,,,,,,,,,,,,,,,,,PF,strong,3,,,,,,,,6,4.178915,,,,,,,,,,,,,,,,,,,,,,,,,,,1,strong,117.223587,41.37302399,1,0,0,response1disk,7,140,33.19694519,14.7423172,1,0,0,rectangle,33.19694519,14.7423172,1,0,0,5,5,0.003385,33.19694519,14.7423172,1,0,0,0,139,139,137,1,0,,,,,,,,,,,,,,,,,,,,,
,,,,,,,,,,,,,,,,,,,,,,,,,,,,,,,,,,,,,,,,,,5bf3294917a7de0001cf6e4b,606c0d650f1813c85a8caba2,2021-04-06_09h27.49.581,Colour_Similarity_Experiment,2020.2.10,Linux x86_64,60,6067542a4a25243f4d7d4fcf,17.29127232,16.73567018,16.74568922,16.75182507,16.69286181,16.74568922,,,,,,,,,,,,,,,,,,,,PF,weak,3,,,,,,,,6,1.030645,,,,,,,,,,,,,,,,,,,,,,,,,,,4,weak,103.5395813,58.60050201,1,0,0,response1disk,7,141,15.9539032,5.941734314,1,0,0,rectangle,15.9539032,5.941734314,1,0,0,5,3,0.002925,15.9539032,5.941734314,1,0,0,0,140,140,38,1,0,,,,,,,,,,,,,,,,,,,,,
,,,,,,,,,,,,,,,,,,,,,,,,,,,,,,,,,,,,,,,,,,5bf3294917a7de0001cf6e4b,606c0d650f1813c85a8caba2,2021-04-06_09h27.49.581,Colour_Similarity_Experiment,2020.2.10,Linux x86_64,60,6067542a4a25243f4d7d4fcf,17.29127232,16.73567018,16.74568922,16.75182507,16.69286181,16.74568922,,,,,,,,,,,,,,,,,,,,PF,strong,3,,,,,,,,6,1.48621,,,,,,,,,,,,,,,,,,,,,,,,,,,6,strong,72.7633667,49.01447296,1,0,0,response1disk,1,142,1.067428589,2.155761719,1,0,0,rectangle,1.067428589,2.155761719,1,0,0,5,0,0.002625,1.067428589,2.155761719,1,0,0,0,141,141,5,1,0,,,,,,,,,,,,,,,,,,,,,
,,,,,,,,,,,,,,,,,,,,,,,,,,,,,,,,,,,,,,,,,,5bf3294917a7de0001cf6e4b,606c0d650f1813c85a8caba2,2021-04-06_09h27.49.581,Colour_Similarity_Experiment,2020.2.10,Linux x86_64,60,6067542a4a25243f4d7d4fcf,17.29127232,16.73567018,16.74568922,16.75182507,16.69286181,16.74568922,,,,,,,,,,,,,,,,,,,,PF,weak,3,,,,,,,,5,2.724845,,,,,,,,,,,,,,,,,,,,,,,,,,,2,weak,109.3491364,-31.69391632,1,0,0,response3disk,9,143,23.22036743,-7.41230011,1,0,0,rectangle,23.22036743,-7.41230011,1,0,0,5,4,0.004025,23.22036743,-7.41230011,1,0,0,0,142,142,39,1,0,,,,,,,,,,,,,,,,,,,,,
,,,,,,,,,,,,,,,,,,,,,,,,,,,,,,,,,,,,,,,,,,5bf3294917a7de0001cf6e4b,606c0d650f1813c85a8caba2,2021-04-06_09h27.49.581,Colour_Similarity_Experiment,2020.2.10,Linux x86_64,60,6067542a4a25243f4d7d4fcf,17.29127232,16.73567018,16.74568922,16.75182507,16.69286181,16.74568922,,,,,,,,,,,,,,,,,,,,PF,strong,3,,,,,,,,6,4.151955,,,,,,,,,,,,,,,,,,,,,,,,,,,5,strong,112.1924591,31.86740875,1,0,0,response1disk,1,144,32.91473389,-0.738830566,1,0,0,rectangle,32.91473389,-0.738830566,1,0,0,5,2,0.003305,32.91473389,-0.738830566,1,0,0,0,143,143,131,1,0,,,,,,,,,,,,,,,,,,,,,
,,,,,,,,,,,,,,,,,,,,,,,,,,,,,,,,,,,,,,,,,,5bf3294917a7de0001cf6e4b,606c0d650f1813c85a8caba2,2021-04-06_09h27.49.581,Colour_Similarity_Experiment,2020.2.10,Linux x86_64,60,6067542a4a25243f4d7d4fcf,17.29127232,16.73567018,16.74568922,16.75182507,16.69286181,16.74568922,,,,,,,,,,,,,,,,,,,,PF,strong,3,,,,,,,,4,2.609895,,,,,,,,,,,,,,,,,,,,,,,,,,,7,strong,17.7583313,-89.41188812,1,0,0,response3disk,4,145,1.832809448,-3.022117615,1,0,0,rectangle,1.832809448,-3.022117615,1,0,0,5,3,0.002655,1.832809448,-3.022117615,1,0,0,0,144,144,158,1,0,,,,,,,,,,,,,,,,,,,,,
,,,,,,,,,,,,,,,,,,,,,,,,,,,,,,,,,,,,,,,,,,5bf3294917a7de0001cf6e4b,606c0d650f1813c85a8caba2,2021-04-06_09h27.49.581,Colour_Similarity_Experiment,2020.2.10,Linux x86_64,60,6067542a4a25243f4d7d4fcf,17.29127232,16.73567018,16.74568922,16.75182507,16.69286181,16.74568922,,,,,,,,,,,,,,,,,,,,PF,weak,3,,,,,,,,4,1.419725,,,,,,,,,,,,,,,,,,,,,,,,,,,7,weak,36.86393738,-69.49001312,1,0,0,response3disk,4,146,3.89831543,-9.67754364,1,0,0,rectangle,3.89831543,-9.67754364,1,0,0,5,4,0.002495,3.89831543,-9.67754364,1,0,0,0,145,145,43,1,0,,,,,,,,,,,,,,,,,,,,,
,,,,,,,,,,,,,,,,,,,,,,,,,,,,,,,,,,,,,,,,,,5bf3294917a7de0001cf6e4b,606c0d650f1813c85a8caba2,2021-04-06_09h27.49.581,Colour_Similarity_Experiment,2020.2.10,Linux x86_64,60,6067542a4a25243f4d7d4fcf,17.29127232,16.73567018,16.74568922,16.75182507,16.69286181,16.74568922,,,,,,,,,,,,,,,,,,,,PF,strong,3,,,,,,,,4,2.15026,,,,,,,,,,,,,,,,,,,,,,,,,,,3,strong,26.1781311,-67.85411835,1,0,0,response3disk,6,147,-0.779266357,-6.39705658,1,0,0,rectangle,-0.779266357,-6.39705658,1,0,0,5,5,0.00283,-0.779266357,-6.39705658,1,0,0,0,146,146,95,1,0,,,,,,,,,,,,,,,,,,,,,
,,,,,,,,,,,,,,,,,,,,,,,,,,,,,,,,,,,,,,,,,,5bf3294917a7de0001cf6e4b,606c0d650f1813c85a8caba2,2021-04-06_09h27.49.581,Colour_Similarity_Experiment,2020.2.10,Linux x86_64,60,6067542a4a25243f4d7d4fcf,17.29127232,16.73567018,16.74568922,16.75182507,16.69286181,16.74568922,,,,,,,,,,,,,,,,,,,,PF,strong,3,,,,,,,,2,1.54077,,,,,,,,,,,,,,,,,,,,,,,,,,,7,strong,-69.766922,-31.35547638,1,0,0,response5disk,6,148,-1.437606812,2.004623413,1,0,0,rectangle,-1.437606812,2.004623413,1,0,0,5,7,0.003735,-1.437606812,2.004623413,1,0,0,0,147,147,31,1,0,,,,,,,,,,,,,,,,,,,,,
,,,,,,,,,,,,,,,,,,,,,,,,,,,,,,,,,,,,,,,,,,5bf3294917a7de0001cf6e4b,606c0d650f1813c85a8caba2,2021-04-06_09h27.49.581,Colour_Similarity_Experiment,2020.2.10,Linux x86_64,60,6067542a4a25243f4d7d4fcf,17.29127232,16.73567018,16.74568922,16.75182507,16.69286181,16.74568922,,,,,,,,,,,,,,,,,,,,PF,weak,3,,,,,,,,3,3.0547,,,,,,,,,,,,,,,,,,,,,,,,,,,8,weak,-25.60752869,-58.98628235,1,0,0,response5disk,1,149,4.223709106,-3.501853943,1,0,0,rectangle,4.223709106,-3.501853943,1,0,0,5,0,0.00374,4.223709106,-3.501853943,1,0,0,0,148,148,57,1,0,,,,,,,,,,,,,,,,,,,,,
,,,,,,,,,,,,,,,,,,,,,,,,,,,,,,,,,,,,,,,,,,5bf3294917a7de0001cf6e4b,606c0d650f1813c85a8caba2,2021-04-06_09h27.49.581,Colour_Similarity_Experiment,2020.2.10,Linux x86_64,60,6067542a4a25243f4d7d4fcf,17.29127232,16.73567018,16.74568922,16.75182507,16.69286181,16.74568922,,,,,,,,,,,,,,,,,,,,PF,weak,3,,,,,,,,1,1.95174,,,,,,,,,,,,,,,,,,,,,,,,,,,7,weak,-88.24645996,53.54278564,1,0,0,response7disk,7,150,-19.66003418,6.823158264,1,0,0,rectangle,-19.66003418,6.823158264,1,0,0,5,1,0.002845,-19.66003418,6.823158264,1,0,0,0,149,149,51,1,0,,,,,,,,,,,,,,,,,,,,,
,,,,,,,,,,,,,,,,,,,,,,,,,,,,,,,,,,,,,,,,,,5bf3294917a7de0001cf6e4b,606c0d650f1813c85a8caba2,2021-04-06_09h27.49.581,Colour_Similarity_Experiment,2020.2.10,Linux x86_64,60,6067542a4a25243f4d7d4fcf,17.29127232,16.73567018,16.74568922,16.75182507,16.69286181,16.74568922,,,,,,,,,,,,,,,,,,,,PF,weak,3,,,,,,,,2,1.61903,,,,,,,,,,,,,,,,,,,,,,,,,,,1,weak,-73.82820129,-42.09583282,1,0,0,response5disk,8,151,-19.37438965,-18.70449066,1,0,0,rectangle,-19.37438965,-18.70449066,1,0,0,5,6,0.00365,-19.37438965,-18.70449066,1,0,0,0,150,150,65,1,0,,,,,,,,,,,,,,,,,,,,,
,,,,,,,,,,,,,,,,,,,,,,,,,,,,,,,,,,,,,,,,,,5bf3294917a7de0001cf6e4b,606c0d650f1813c85a8caba2,2021-04-06_09h27.49.581,Colour_Similarity_Experiment,2020.2.10,Linux x86_64,60,6067542a4a25243f4d7d4fcf,17.29127232,16.73567018,16.74568922,16.75182507,16.69286181,16.74568922,,,,,,,,,,,,,,,,,,,,PF,strong,3,,,,,,,,5,2.953105,,,,,,,,,,,,,,,,,,,,,,,,,,,8,strong,83.43925476,-44.69825745,1,0,0,response3disk,4,152,3.884429932,-5.289001465,1,0,0,rectangle,3.884429932,-5.289001465,1,0,0,5,3,0.0055,3.884429932,-5.289001465,1,0,0,0,151,151,88,1,0,,,,,,,,,,,,,,,,,,,,,
,,,,,,,,,,,,,,,,,,,,,,,,,,,,,,,,,,,,,,,,,,5bf3294917a7de0001cf6e4b,606c0d650f1813c85a8caba2,2021-04-06_09h27.49.581,Colour_Similarity_Experiment,2020.2.10,Linux x86_64,60,6067542a4a25243f4d7d4fcf,17.29127232,16.73567018,16.74568922,16.75182507,16.69286181,16.74568922,,,,,,,,,,,,,,,,,,,,PF,weak,3,,,,,,,,6,1.512785,,,,,,,,,,,,,,,,,,,,,,,,,,,6,weak,79.11842346,32.12280273,1,0,0,response1disk,9,153,5.724182129,2.382240295,1,0,0,rectangle,5.724182129,2.382240295,1,0,0,5,1,0.00309,5.724182129,2.382240295,1,0,0,0,152,152,45,1,0,,,,,,,,,,,,,,,,,,,,,
,,,,,,,,,,,,,,,,,,,,,,,,,,,,,,,,,,,,,,,,,,5bf3294917a7de0001cf6e4b,606c0d650f1813c85a8caba2,2021-04-06_09h27.49.581,Colour_Similarity_Experiment,2020.2.10,Linux x86_64,60,6067542a4a25243f4d7d4fcf,17.29127232,16.73567018,16.74568922,16.75182507,16.69286181,16.74568922,,,,,,,,,,,,,,,,,,,,PF,strong,3,,,,,,,,1,2.053175,,,,,,,,,,,,,,,,,,,,,,,,,,,2,strong,-71.12556458,29.29798126,1,0,0,response7disk,2,154,-0.984420776,-1.458320618,1,0,0,rectangle,-0.984420776,-1.458320618,1,0,0,5,3,0.006965,-0.984420776,-1.458320618,1,0,0,0,153,153,142,1,0,,,,,,,,,,,,,,,,,,,,,
,,,,,,,,,,,,,,,,,,,,,,,,,,,,,,,,,,,,,,,,,,5bf3294917a7de0001cf6e4b,606c0d650f1813c85a8caba2,2021-04-06_09h27.49.581,Colour_Similarity_Experiment,2020.2.10,Linux x86_64,60,6067542a4a25243f4d7d4fcf,17.29127232,16.73567018,16.74568922,16.75182507,16.69286181,16.74568922,,,,,,,,,,,,,,,,,,,,PF,weak,3,,,,,,,,4,3.90111,,,,,,,,,,,,,,,,,,,,,,,,,,,6,weak,32.92472839,-69.41383362,1,0,0,response3disk,8,155,-14.75364685,11.00818634,1,0,0,rectangle,-14.75364685,11.00818634,1,0,0,5,2,0.00386,-14.75364685,11.00818634,1,0,0,0,154,154,64,1,0,,,,,,,,,,,,,,,,,,,,,
,,,,,,,,,,,,,,,,,,,,,,,,,,,,,,,,,,,,,,,,,,5bf3294917a7de0001cf6e4b,606c0d650f1813c85a8caba2,2021-04-06_09h27.49.581,Colour_Similarity_Experiment,2020.2.10,Linux x86_64,60,6067542a4a25243f4d7d4fcf,17.29127232,16.73567018,16.74568922,16.75182507,16.69286181,16.74568922,,,,,,,,,,,,,,,,,,,,PF,weak,3,,,,,,,,6,3.58773,,,,,,,,,,,,,,,,,,,,,,,,,,,3,weak,101.2068176,30.13889313,1,0,0,response1disk,7,156,-2.718887329,-1.619224548,1,0,0,rectangle,-2.718887329,-1.619224548,1,0,0,5,1,0.005025,-2.718887329,-1.619224548,1,0,0,0,155,155,41,1,0,,,,,,,,,,,,,,,,,,,,,
,,,,,,,,,,,,,,,,,,,,,,,,,,,,,,,,,,,,,,,,,,5bf3294917a7de0001cf6e4b,606c0d650f1813c85a8caba2,2021-04-06_09h27.49.581,Colour_Similarity_Experiment,2020.2.10,Linux x86_64,60,6067542a4a25243f4d7d4fcf,17.29127232,16.73567018,16.74568922,16.75182507,16.69286181,16.74568922,,,,,,,,,,,,,,,,,,,,PF,strong,3,,,,,,,,5,4.08382,,,,,,,,,,,,,,,,,,,,,,,,,,,7,strong,76.43516541,-48.34285736,1,0,0,response3disk,9,157,4.699020386,-4.999427795,1,0,0,rectangle,4.699020386,-4.999427795,1,0,0,5,3,0.0075,4.699020386,-4.999427795,1,0,0,0,156,156,155,1,0,,,,,,,,,,,,,,,,,,,,,
,,,,,,,,,,,,,,,,,,,,,,,,,,,,,,,,,,,,,,,,,,5bf3294917a7de0001cf6e4b,606c0d650f1813c85a8caba2,2021-04-06_09h27.49.581,Colour_Similarity_Experiment,2020.2.10,Linux x86_64,60,6067542a4a25243f4d7d4fcf,17.29127232,16.73567018,16.74568922,16.75182507,16.69286181,16.74568922,,,,,,,,,,,,,,,,,,,,PF,weak,3,,,,,,,,4,3.419405,,,,,,,,,,,,,,,,,,,,,,,,,,,2,weak,30.3704071,-86.99611664,1,0,0,response3disk,5,158,-18.45924377,1.990776062,1,0,0,rectangle,-18.45924377,1.990776062,1,0,0,5,4,0.00308,-18.45924377,1.990776062,1,0,0,0,157,157,147,1,0,,,,,,,,,,,,,,,,,,,,,
,,,,,,,,,,,,,,,,,,,,,,,,,,,,,,,,,,,,,,,,,,5bf3294917a7de0001cf6e4b,606c0d650f1813c85a8caba2,2021-04-06_09h27.49.581,Colour_Similarity_Experiment,2020.2.10,Linux x86_64,60,6067542a4a25243f4d7d4fcf,17.29127232,16.73567018,16.74568922,16.75182507,16.69286181,16.74568922,,,,,,,,,,,,,,,,,,,,PF,weak,3,,,,,,,,6,1.401715,,,,,,,,,,,,,,,,,,,,,,,,,,,4,weak,99.63577271,71.55109406,1,0,0,response1disk,9,159,18.59642029,15.91228485,1,0,0,rectangle,18.59642029,15.91228485,1,0,0,6,3,0.00264,18.59642029,15.91228485,1,0,0,0,158,158,75,1,0,,,,,,,,,,,,,,,,,,,,,
,,,,,,,,,,,,,,,,,,,,,,,,,,,,,,,,,,,,,,,,,,5bf3294917a7de0001cf6e4b,606c0d650f1813c85a8caba2,2021-04-06_09h27.49.581,Colour_Similarity_Experiment,2020.2.10,Linux x86_64,60,6067542a4a25243f4d7d4fcf,17.29127232,16.73567018,16.74568922,16.75182507,16.69286181,16.74568922,,,,,,,,,,,,,,,,,,,,PF,strong,3,,,,,,,,7,2.93694,,,,,,,,,,,,,,,,,,,,,,,,,,,3,strong,42.49687195,83.16085815,1,0,0,response1disk,8,160,6.592712402,6.193962097,1,0,0,rectangle,6.592712402,6.193962097,1,0,0,6,3,0.000435,6.592712402,6.193962097,1,0,0,0,159,159,44,1,0,,,,,,,,,,,,,,,,,,,,,
,,,,,,,,,,,,,,,,,,,,,,,,,,,,,,,,,,,,,,,,,,5bf3294917a7de0001cf6e4b,606c0d650f1813c85a8caba2,2021-04-06_09h27.49.581,Colour_Similarity_Experiment,2020.2.10,Linux x86_64,60,6067542a4a25243f4d7d4fcf,17.29127232,16.73567018,16.74568922,16.75182507,16.69286181,16.74568922,,,,,,,,,,,,,,,,,,,,PF,weak,3,,,,,,,,5,2.22078,,,,,,,,,,,,,,,,,,,,,,,,,,,7,weak,97.2429657,-43.82678986,1,0,0,response3disk,1,161,25.46974182,-12.98187256,1,0,0,rectangle,25.46974182,-12.98187256,1,0,0,6,3,0.001,25.46974182,-12.98187256,1,0,0,0,160,160,53,1,0,,,,,,,,,,,,,,,,,,,,,
,,,,,,,,,,,,,,,,,,,,,,,,,,,,,,,,,,,,,,,,,,5bf3294917a7de0001cf6e4b,606c0d650f1813c85a8caba2,2021-04-06_09h27.49.581,Colour_Similarity_Experiment,2020.2.10,Linux x86_64,60,6067542a4a25243f4d7d4fcf,17.29127232,16.73567018,16.74568922,16.75182507,16.69286181,16.74568922,,,,,,,,,,,,,,,,,,,,PF,weak,3,,,,,,,,6,1.670765,,,,,,,,,,,,,,,,,,,,,,,,,,,1,weak,104.2071533,37.63889313,1,0,0,response1disk,3,162,29.87136841,5.762367249,1,0,0,rectangle,29.87136841,5.762367249,1,0,0,6,5,0.00289,29.87136841,5.762367249,1,0,0,0,161,161,1,1,0,,,,,,,,,,,,,,,,,,,,,
,,,,,,,,,,,,,,,,,,,,,,,,,,,,,,,,,,,,,,,,,,5bf3294917a7de0001cf6e4b,606c0d650f1813c85a8caba2,2021-04-06_09h27.49.581,Colour_Similarity_Experiment,2020.2.10,Linux x86_64,60,6067542a4a25243f4d7d4fcf,17.29127232,16.73567018,16.74568922,16.75182507,16.69286181,16.74568922,,,,,,,,,,,,,,,,,,,,,,,,,,,,,,,,,,,,,,,,,,,,,,,,,,,,,,,,,,,,,,,,,,,,,,,,,,,,,,,,,,,,,,,,,,,,,,,0,0,0,0,1,,,,,,,,,,,,,,
,,,,,,,,,,,,,,,,,,,,,,,,,,,,,,,,,,,,,,,,,,5bf3294917a7de0001cf6e4b,606c0d650f1813c85a8caba2,2021-04-06_09h27.49.581,Colour_Similarity_Experiment,2020.2.10,Linux x86_64,60,6067542a4a25243f4d7d4fcf,17.29127232,16.73567018,16.74568922,16.75182507,16.69286181,16.74568922,,,,,,,,,,,,,,,,,,,,PF,strong,3,,,,,,,,0,2.838455,,,,,,,,,,,,,,,,,,,,,,,,,,,4,strong,-41.85371399,81.04557037,1,0,0,response7disk,4,163,-15.59883118,14.87388611,1,0,0,rectangle,-15.59883118,14.87388611,1,0,0,6,2,0.000595,-15.59883118,14.87388611,1,0,0,0,0,0,84,1,0,,,,,,,,,,,,,,,,,,,,,
,,,,,,,,,,,,,,,,,,,,,,,,,,,,,,,,,,,,,,,,,,5bf3294917a7de0001cf6e4b,606c0d650f1813c85a8caba2,2021-04-06_09h27.49.581,Colour_Similarity_Experiment,2020.2.10,Linux x86_64,60,6067542a4a25243f4d7d4fcf,17.29127232,16.73567018,16.74568922,16.75182507,16.69286181,16.74568922,,,,,,,,,,,,,,,,,,,,PF,weak,3,,,,,,,,4,3.00352,,,,,,,,,,,,,,,,,,,,,,,,,,,9,weak,56.10855103,-66.79012299,1,0,0,response3disk,1,164,2.23991394,6.640968323,1,0,0,rectangle,2.23991394,6.640968323,1,0,0,6,7,0.003795,2.23991394,6.640968323,1,0,0,0,1,1,74,1,0,,,,,,,,,,,,,,,,,,,,,
