key_resp.keys,key_resp.rt,key_resp_16.keys,key_resp_16.rt,key_resp_2.keys,key_resp_2.rt,X Scale,ratio_pxpermm,screen_size_x,screen_size_y,testsize,key_resp_3.keys,key_resp_3.rt,key_resp_4.keys,key_resp_4.rt,line_size,key_resp_5.keys,key_resp_5.rt,key_resp_6.keys,key_resp_6.rt,key_resp_8.keys,key_resp_8.rt,key_resp_7.keys,key_resp_7.rt,key_resp_12.keys,key_resp_12.rt,key_resp_11.keys,key_resp_11.rt,key_resp_18.keys,key_resp_18.rt,key_resp_21.keys,key_resp_21.rt,key_resp_13.keys,key_resp_13.rt,key_resp_19.keys,key_resp_19.rt,ballposx,viewer_distance,trials.thisRepN,trials.thisTrialN,trials.thisN,trials.thisIndex,trials.ran,participant,session,date,expName,psychopyVersion,OS,frameRate,study_id,realFrameRate1,realFrameRate2,realFrameRate3,realFrameRate4,realFrameRate5,realFrameRate,viewerdistancecm,DVA_to_distance,radius_F,radius_P,r_F,R_P,key_resp_20.keys,key_resp_20.rt,key_resp_14.keys,key_resp_14.rt,key_resp_15.keys,key_resp_15.rt,key_resp_17.keys,key_resp_17.rt,key_resp_9.keys,key_resp_9.rt,key_resp_10.keys,key_resp_10.rt,Colour_1,Ecc,maskCon,mask_frames,mouse_5.x,mouse_5.y,mouse_5.leftButton,mouse_5.midButton,mouse_5.rightButton,mouse_5.clicked_name,Colour_2,similarity,response_time,mouse_10.x,mouse_10.y,mouse_10.leftButton,mouse_10.midButton,mouse_10.rightButton,mouse_10.clicked_name,mouse_7.x,mouse_7.y,mouse_7.leftButton,mouse_7.midButton,mouse_7.rightButton,catchnumberprac,mouse_6.x,mouse_6.y,mouse_6.leftButton,mouse_6.midButton,mouse_6.rightButton,duringprac.thisRepN,duringprac.thisTrialN,duringprac.thisN,duringprac.thisIndex,duringprac.ran,mouse_7.clicked_name,catchprac,mouse_6.clicked_name,key_resp_22.keys,key_resp_22.rt,Colour1,maskCon1,mouse.x,mouse.y,mouse.leftButton,mouse.midButton,mouse.rightButton,mouse.clicked_name,Colour2,trialnumber,mouse_2.x,mouse_2.y,mouse_2.leftButton,mouse_2.midButton,mouse_2.rightButton,mouse_2.clicked_name,mouse_3.x,mouse_3.y,mouse_3.leftButton,mouse_3.midButton,mouse_3.rightButton,catchresponse,catchnumber,response_time_catch,mouse_11.x,mouse_11.y,mouse_11.leftButton,mouse_11.midButton,mouse_11.rightButton,trials_2.thisRepN,trials_2.thisTrialN,trials_2.thisN,trials_2.thisIndex,trials_2.ran,Catch,mouse_3.clicked_name,mouse_11.clicked_name,trials_3.thisRepN,trials_3.thisTrialN,trials_3.thisN,trials_3.thisIndex,trials_3.ran,answer1,rt1,answer2,rt2,answer3,rt3,answer4,rt4,answer5,rt5,answer6,rt6,answer7,rt7
space,1.97793,space,0.63963,space,1.4254,44.3,4.43,288.9390519,162.5282167,1280,space,3.33049,space,6.49356,88.6,space,12.979525,space,2.856755,space,0.982135,space,2.600415,space,5.07229,space,1.521055,space,4.69747,space,3.39756,space,2.79637,return,11.600955,-862.08,1291.976802,0,0,0,0,1,5dbc433e82849c1eb0c400b5,606c0d40f58e2c56c765ad1d,2021-04-06_09h27.11.983,Colour_Similarity_Experiment,2020.2.10,Win32,60,6067542a4a25243f4d7d4fcf,17.85185268,17.212375,16.65099034,16.6761352,16.64611973,16.6761352,,,,,,,,,,,,,,,,,,,,,,,,,,,,,,,,,,,,,,,,,,,,,,,,,,,,,,,,,,,,,,,,,,,,,,,,,,,,,,,,,,,,,,,,,,,,,,,,,,,,,,,,,,,,,,,,,,
,,,,,,,,,,,,,,,,,,,,,,,,,,,,,,,,,,return,10.06867,-683.52,1124.086011,1,0,1,0,1,5dbc433e82849c1eb0c400b5,606c0d40f58e2c56c765ad1d,2021-04-06_09h27.11.983,Colour_Similarity_Experiment,2020.2.10,Win32,60,6067542a4a25243f4d7d4fcf,17.85185268,17.212375,16.65099034,16.6761352,16.64611973,16.6761352,,,,,,,,,,,,,,,,,,,,,,,,,,,,,,,,,,,,,,,,,,,,,,,,,,,,,,,,,,,,,,,,,,,,,,,,,,,,,,,,,,,,,,,,,,,,,,,,,,,,,,,,,,,,,,,,,,
,,,,,,,,,,,,,,,,,,,,,,,,,,,,,,,,,,return,9.993475,-673.92,1115.059625,2,0,2,0,1,5dbc433e82849c1eb0c400b5,606c0d40f58e2c56c765ad1d,2021-04-06_09h27.11.983,Colour_Similarity_Experiment,2020.2.10,Win32,60,6067542a4a25243f4d7d4fcf,17.85185268,17.212375,16.65099034,16.6761352,16.64611973,16.6761352,,,,,,,,,,,,,,,,,,,,,,,,,,,,,,,,,,,,,,,,,,,,,,,,,,,,,,,,,,,,,,,,,,,,,,,,,,,,,,,,,,,,,,,,,,,,,,,,,,,,,,,,,,,,,,,,,,
,,,,,,,,,,,,,,,,,,,,,,,,,,,,,,,,,,return,9.9053,-664.32,1106.033238,3,0,3,0,1,5dbc433e82849c1eb0c400b5,606c0d40f58e2c56c765ad1d,2021-04-06_09h27.11.983,Colour_Similarity_Experiment,2020.2.10,Win32,60,6067542a4a25243f4d7d4fcf,17.85185268,17.212375,16.65099034,16.6761352,16.64611973,16.6761352,,,,,,,,,,,,,,,,,,,,,,,,,,,,,,,,,,,,,,,,,,,,,,,,,,,,,,,,,,,,,,,,,,,,,,,,,,,,,,,,,,,,,,,,,,,,,,,,,,,,,,,,,,,,,,,,,,
,,,,,,,,,,,,,,,,,,,,,,,,,,,,,,,,,,return,10.093075,-685.44,1125.891288,4,0,4,0,1,5dbc433e82849c1eb0c400b5,606c0d40f58e2c56c765ad1d,2021-04-06_09h27.11.983,Colour_Similarity_Experiment,2020.2.10,Win32,60,6067542a4a25243f4d7d4fcf,17.85185268,17.212375,16.65099034,16.6761352,16.64611973,16.6761352,,,,,,,,,,,,,,,,,,,,,,,,,,,,,,,,,,,,,,,,,,,,,,,,,,,,,,,,,,,,,,,,,,,,,,,,,,,,,,,,,,,,,,,,,,,,,,,,,,,,,,,,,,,,,,,,,,
,,,,,,,,,,,,,,,,,,,,,,,,,,,,,,,,,,,,,,,,,,,5dbc433e82849c1eb0c400b5,606c0d40f58e2c56c765ad1d,2021-04-06_09h27.11.983,Colour_Similarity_Experiment,2020.2.10,Win32,60,6067542a4a25243f4d7d4fcf,17.85185268,17.212375,16.65099034,16.6761352,16.64611973,16.6761352,112,19.54966573,129.9075288,866.0501917,86.60501917,389.7225863,space,4.442155,space,7.90902,space,10.901335,space,2.79898,space,2.097005,space,5.842935,7,PF,strong,3,78.0000214,41.33330349,1,0,0,response1disk_5,2,6,7.101145,-13.99998134,2.666656017,1,0,0,rectangle_8,-13.99998134,2.666656017,1,0,0,4,-13.99998134,2.666656017,1,0,0,0,0,0,3,1,,,,,,,,,,,,,,,,,,,,,,,,,,,,,,,,,,,,,,,,,,,,,,,,,,,,,,,,,,,,,
,,,,,,,,,,,,,,,,,,,,,,,,,,,,,,,,,,,,,,,,,,,5dbc433e82849c1eb0c400b5,606c0d40f58e2c56c765ad1d,2021-04-06_09h27.11.983,Colour_Similarity_Experiment,2020.2.10,Win32,60,6067542a4a25243f4d7d4fcf,17.85185268,17.212375,16.65099034,16.6761352,16.64611973,16.6761352,,,,,,,,,,,,,,,,,,,4,PF,weak,3,44.66668707,83.33330474,1,0,0,response1disk_5,1,7,3.1496,13.33339349,-1.333344102,1,0,0,rectangle_8,34.66668677,-72.66667956,1,0,0,4,22.66668642,-4.000010848,1,0,0,0,1,1,4,1,response3disk_7,4,rectangle_4,,,,,,,,,,,,,,,,,,,,,,,,,,,,,,,,,,,,,,,,,,,,,,,,,,,,,,,,,,
,,,,,,,,,,,,,,,,,,,,,,,,,,,,,,,,,,,,,,,,,,,5dbc433e82849c1eb0c400b5,606c0d40f58e2c56c765ad1d,2021-04-06_09h27.11.983,Colour_Similarity_Experiment,2020.2.10,Win32,60,6067542a4a25243f4d7d4fcf,17.85185268,17.212375,16.65099034,16.6761352,16.64611973,16.6761352,,,,,,,,,,,,,,,,,,,5,PF,weak,3,-75.99998319,30.66665685,1,0,0,response7disk_5,6,1,4.546235,18.00001961,-5.333344221,1,0,0,rectangle_8,17.33339361,-75.33334631,1,0,0,4,-1.999980986,-8.666677654,1,0,0,0,2,2,1,1,response3disk_7,4,rectangle_4,,,,,,,,,,,,,,,,,,,,,,,,,,,,,,,,,,,,,,,,,,,,,,,,,,,,,,,,,,
,,,,,,,,,,,,,,,,,,,,,,,,,,,,,,,,,,,,,,,,,,,5dbc433e82849c1eb0c400b5,606c0d40f58e2c56c765ad1d,2021-04-06_09h27.11.983,Colour_Similarity_Experiment,2020.2.10,Win32,60,6067542a4a25243f4d7d4fcf,17.85185268,17.212375,16.65099034,16.6761352,16.64611973,16.6761352,,,,,,,,,,,,,,,,,,,6,PF,strong,3,-28.66660776,87.33330486,1,0,0,response7disk_5,6,0,2.299075,2.66668582,-11.3333444,1,0,0,rectangle_8,2.66668582,-11.3333444,1,0,0,4,2.66668582,-11.3333444,1,0,0,0,3,3,0,1,,,,,,,,,,,,,,,,,,,,,,,,,,,,,,,,,,,,,,,,,,,,,,,,,,,,,,,,,,,,,
,,,,,,,,,,,,,,,,,,,,,,,,,,,,,,,,,,,,,,,,,,,5dbc433e82849c1eb0c400b5,606c0d40f58e2c56c765ad1d,2021-04-06_09h27.11.983,Colour_Similarity_Experiment,2020.2.10,Win32,60,6067542a4a25243f4d7d4fcf,17.85185268,17.212375,16.65099034,16.6761352,16.64611973,16.6761352,,,,,,,,,,,,,,,,,,,7,PF,weak,3,63.33335429,-56.0000124,1,0,0,response3disk_5,1,5,2.94829,30.00001997,-13.33334446,1,0,0,rectangle_8,30.00001997,-13.33334446,1,0,0,4,30.00001997,-13.33334446,1,0,0,0,4,4,5,1,,,,,,,,,,,,,,,,,,,,,,,,,,,,,,,,,,,,,,,,,,,,,,,,,,,,,,,,,,,,,
,,,,,,,,,,,,,,,,,,,,,,,,,,,,,,,,,,,,,,,,,,,5dbc433e82849c1eb0c400b5,606c0d40f58e2c56c765ad1d,2021-04-06_09h27.11.983,Colour_Similarity_Experiment,2020.2.10,Win32,60,6067542a4a25243f4d7d4fcf,17.85185268,17.212375,16.65099034,16.6761352,16.64611973,16.6761352,,,,,,,,,,,,,,,,,,,3,PF,weak,3,42.66668701,-69.33334613,1,0,0,response3disk_5,5,4,4.95408,7.333393315,-10.66667771,1,0,0,rectangle_8,7.333393315,-10.66667771,1,0,0,4,7.333393315,-10.66667771,1,0,0,0,5,5,6,1,,,,,,,,,,,,,,,,,,,,,,,,,,,,,,,,,,,,,,,,,,,,,,,,,,,,,,,,,,,,,
,,,,,,,,,,,,,,,,,,,,,,,,,,,,,,,,,,,,,,,,,,,5dbc433e82849c1eb0c400b5,606c0d40f58e2c56c765ad1d,2021-04-06_09h27.11.983,Colour_Similarity_Experiment,2020.2.10,Win32,60,6067542a4a25243f4d7d4fcf,17.85185268,17.212375,16.65099034,16.6761352,16.64611973,16.6761352,,,,,,,,,,,,,,,,,,,7,PF,strong,3,68.66668779,-57.33334577,1,0,0,response3disk_5,4,5,4.61358,-3.999981046,-2.000010788,1,0,0,rectangle_8,-3.999981046,-2.000010788,1,0,0,4,-3.999981046,-2.000010788,1,0,0,0,6,6,2,1,,,,,,,,,,,,,,,,,,,,,,,,,,,,,,,,,,,,,,,,,,,,,,,,,,,,,,,,,,,,,
,,,,,,,,,,,,,,,,,,,,,,,,,,,,,,,,,,,,,,,,,,,5dbc433e82849c1eb0c400b5,606c0d40f58e2c56c765ad1d,2021-04-06_09h27.11.983,Colour_Similarity_Experiment,2020.2.10,Win32,60,6067542a4a25243f4d7d4fcf,17.85185268,17.212375,16.65099034,16.6761352,16.64611973,16.6761352,,,,,,,,,,,,,,,,,,,,PF,strong,3,,,,,,,,6,3.16552,,,,,,,,,,,,,,,,,,,,,,,,,,space,3.02293,4,strong,93.33335519,43.99999058,1,0,0,response1disk,1,1,14.00001949,-6.666677594,1,0,0,rectangle,14.00001949,-6.666677594,1,0,0,,3,0.00266,14.00001949,-6.666677594,1,0,0,0,0,0,102,1,0,,,,,,,,,,,,,,,,,,,,,
,,,,,,,,,,,,,,,,,,,,,,,,,,,,,,,,,,,,,,,,,,,5dbc433e82849c1eb0c400b5,606c0d40f58e2c56c765ad1d,2021-04-06_09h27.11.983,Colour_Similarity_Experiment,2020.2.10,Win32,60,6067542a4a25243f4d7d4fcf,17.85185268,17.212375,16.65099034,16.6761352,16.64611973,16.6761352,,,,,,,,,,,,,,,,,,,,PF,weak,3,,,,,,,,6,1.98282,,,,,,,,,,,,,,,,,,,,,,,,,,,,1,weak,94.00002187,27.99999011,1,0,0,response1disk,4,2,5.333393256,8.666656196,1,0,0,rectangle,5.333393256,8.666656196,1,0,0,,7,0.002845,5.333393256,8.666656196,1,0,0,0,1,1,139,1,0,,,,,,,,,,,,,,,,,,,,,
,,,,,,,,,,,,,,,,,,,,,,,,,,,,,,,,,,,,,,,,,,,5dbc433e82849c1eb0c400b5,606c0d40f58e2c56c765ad1d,2021-04-06_09h27.11.983,Colour_Similarity_Experiment,2020.2.10,Win32,60,6067542a4a25243f4d7d4fcf,17.85185268,17.212375,16.65099034,16.6761352,16.64611973,16.6761352,,,,,,,,,,,,,,,,,,,,PF,strong,3,,,,,,,,2,1.80747,,,,,,,,,,,,,,,,,,,,,,,,,,,,5,strong,-73.33331645,-38.00001186,1,0,0,response5disk,6,3,2.66668582,5.99998945,1,0,0,rectangle,2.66668582,5.99998945,1,0,0,,7,0.000465,2.66668582,5.99998945,1,0,0,0,2,2,12,1,0,,,,,,,,,,,,,,,,,,,,,
,,,,,,,,,,,,,,,,,,,,,,,,,,,,,,,,,,,,,,,,,,,5dbc433e82849c1eb0c400b5,606c0d40f58e2c56c765ad1d,2021-04-06_09h27.11.983,Colour_Similarity_Experiment,2020.2.10,Win32,60,6067542a4a25243f4d7d4fcf,17.85185268,17.212375,16.65099034,16.6761352,16.64611973,16.6761352,,,,,,,,,,,,,,,,,,,,PF,weak,3,,,,,,,,2,1.548915,,,,,,,,,,,,,,,,,,,,,,,,,,,,1,weak,-73.33331645,-34.66667843,1,0,0,response5disk,7,4,-12.66660728,-13.33334446,1,0,0,rectangle,-12.66660728,-13.33334446,1,0,0,,7,0.00016,-12.66660728,-13.33334446,1,0,0,0,3,3,150,1,0,,,,,,,,,,,,,,,,,,,,,
,,,,,,,,,,,,,,,,,,,,,,,,,,,,,,,,,,,,,,,,,,,5dbc433e82849c1eb0c400b5,606c0d40f58e2c56c765ad1d,2021-04-06_09h27.11.983,Colour_Similarity_Experiment,2020.2.10,Win32,60,6067542a4a25243f4d7d4fcf,17.85185268,17.212375,16.65099034,16.6761352,16.64611973,16.6761352,,,,,,,,,,,,,,,,,,,,PF,weak,3,,,,,,,,2,1.785635,,,,,,,,,,,,,,,,,,,,,,,,,,,,8,weak,-91.33331698,-30.00001162,1,0,0,response5disk,9,5,-14.66660734,1.333322644,1,0,0,rectangle,-14.66660734,1.333322644,1,0,0,,6,0.00222,-14.66660734,1.333322644,1,0,0,0,4,4,42,1,0,,,,,,,,,,,,,,,,,,,,,
,,,,,,,,,,,,,,,,,,,,,,,,,,,,,,,,,,,,,,,,,,,5dbc433e82849c1eb0c400b5,606c0d40f58e2c56c765ad1d,2021-04-06_09h27.11.983,Colour_Similarity_Experiment,2020.2.10,Win32,60,6067542a4a25243f4d7d4fcf,17.85185268,17.212375,16.65099034,16.6761352,16.64611973,16.6761352,,,,,,,,,,,,,,,,,,,,PF,strong,3,,,,,,,,3,1.81429,,,,,,,,,,,,,,,,,,,,,,,,,,,,1,strong,-35.33331531,-66.66667938,1,0,0,response5disk,9,6,10.66668606,1.333322644,1,0,0,rectangle,10.66668606,1.333322644,1,0,0,,7,0.000685,10.66668606,1.333322644,1,0,0,0,5,5,123,1,0,,,,,,,,,,,,,,,,,,,,,
,,,,,,,,,,,,,,,,,,,,,,,,,,,,,,,,,,,,,,,,,,,5dbc433e82849c1eb0c400b5,606c0d40f58e2c56c765ad1d,2021-04-06_09h27.11.983,Colour_Similarity_Experiment,2020.2.10,Win32,60,6067542a4a25243f4d7d4fcf,17.85185268,17.212375,16.65099034,16.6761352,16.64611973,16.6761352,,,,,,,,,,,,,,,,,,,,PF,weak,3,,,,,,,,4,1.86465,,,,,,,,,,,,,,,,,,,,,,,,,,,,5,weak,46.00002044,-99.33334702,1,0,0,response3disk,9,7,-1.3333143,4.666656077,1,0,0,rectangle,42.00002033,-88.66668004,1,0,0,4,4,2.79865,-3.999981046,-10.66667771,1,0,0,0,6,6,136,1,1,response3disk_3,rectangle,,,,,,,,,,,,,,,,,,,
,,,,,,,,,,,,,,,,,,,,,,,,,,,,,,,,,,,,,,,,,,,5dbc433e82849c1eb0c400b5,606c0d40f58e2c56c765ad1d,2021-04-06_09h27.11.983,Colour_Similarity_Experiment,2020.2.10,Win32,60,6067542a4a25243f4d7d4fcf,17.85185268,17.212375,16.65099034,16.6761352,16.64611973,16.6761352,,,,,,,,,,,,,,,,,,,,PF,strong,3,,,,,,,,4,1.53251,,,,,,,,,,,,,,,,,,,,,,,,,,,,3,strong,28.66668659,-112.6666808,1,0,0,response3disk,9,8,-5.999981105,1.999989331,1,0,0,rectangle,-5.999981105,1.999989331,1,0,0,4,3,0.001745,-5.999981105,1.999989331,1,0,0,0,7,7,143,1,0,,,,,,,,,,,,,,,,,,,,,
,,,,,,,,,,,,,,,,,,,,,,,,,,,,,,,,,,,,,,,,,,,5dbc433e82849c1eb0c400b5,606c0d40f58e2c56c765ad1d,2021-04-06_09h27.11.983,Colour_Similarity_Experiment,2020.2.10,Win32,60,6067542a4a25243f4d7d4fcf,17.85185268,17.212375,16.65099034,16.6761352,16.64611973,16.6761352,,,,,,,,,,,,,,,,,,,,PF,strong,3,,,,,,,,5,1.215695,,,,,,,,,,,,,,,,,,,,,,,,,,,,1,strong,63.33335429,-27.33334488,1,0,0,response3disk,7,9,10.66668606,-1.07288E-05,1,0,0,rectangle,10.66668606,-1.07288E-05,1,0,0,4,7,0.002925,10.66668606,-1.07288E-05,1,0,0,0,8,8,137,1,0,,,,,,,,,,,,,,,,,,,,,
,,,,,,,,,,,,,,,,,,,,,,,,,,,,,,,,,,,,,,,,,,,5dbc433e82849c1eb0c400b5,606c0d40f58e2c56c765ad1d,2021-04-06_09h27.11.983,Colour_Similarity_Experiment,2020.2.10,Win32,60,6067542a4a25243f4d7d4fcf,17.85185268,17.212375,16.65099034,16.6761352,16.64611973,16.6761352,,,,,,,,,,,,,,,,,,,,PF,weak,3,,,,,,,,4,1.033995,,,,,,,,,,,,,,,,,,,,,,,,,,,,8,weak,35.33339415,-38.66667855,1,0,0,response3disk,1,10,7.333393315,1.999989331,1,0,0,rectangle,7.333393315,1.999989331,1,0,0,4,6,0.00345,7.333393315,1.999989331,1,0,0,0,9,9,57,1,0,,,,,,,,,,,,,,,,,,,,,
,,,,,,,,,,,,,,,,,,,,,,,,,,,,,,,,,,,,,,,,,,,5dbc433e82849c1eb0c400b5,606c0d40f58e2c56c765ad1d,2021-04-06_09h27.11.983,Colour_Similarity_Experiment,2020.2.10,Win32,60,6067542a4a25243f4d7d4fcf,17.85185268,17.212375,16.65099034,16.6761352,16.64611973,16.6761352,,,,,,,,,,,,,,,,,,,,PF,weak,3,,,,,,,,4,1.27527,,,,,,,,,,,,,,,,,,,,,,,,,,,,8,weak,32.00002003,-88.00001335,1,0,0,response3disk,2,11,3.333393196,-4.666677535,1,0,0,rectangle,3.333393196,-4.666677535,1,0,0,4,1,0.00217,3.333393196,-4.666677535,1,0,0,0,10,10,83,1,0,,,,,,,,,,,,,,,,,,,,,
,,,,,,,,,,,,,,,,,,,,,,,,,,,,,,,,,,,,,,,,,,,5dbc433e82849c1eb0c400b5,606c0d40f58e2c56c765ad1d,2021-04-06_09h27.11.983,Colour_Similarity_Experiment,2020.2.10,Win32,60,6067542a4a25243f4d7d4fcf,17.85185268,17.212375,16.65099034,16.6761352,16.64611973,16.6761352,,,,,,,,,,,,,,,,,,,,PF,weak,3,,,,,,,,5,1.125695,,,,,,,,,,,,,,,,,,,,,,,,,,,,6,weak,52.00002062,-25.33334482,1,0,0,response3disk,4,12,-13.99998134,6.666656137,1,0,0,rectangle,-13.99998134,6.666656137,1,0,0,4,3,0.001165,-13.99998134,6.666656137,1,0,0,0,11,11,33,1,0,,,,,,,,,,,,,,,,,,,,,
,,,,,,,,,,,,,,,,,,,,,,,,,,,,,,,,,,,,,,,,,,,5dbc433e82849c1eb0c400b5,606c0d40f58e2c56c765ad1d,2021-04-06_09h27.11.983,Colour_Similarity_Experiment,2020.2.10,Win32,60,6067542a4a25243f4d7d4fcf,17.85185268,17.212375,16.65099034,16.6761352,16.64611973,16.6761352,,,,,,,,,,,,,,,,,,,,PF,weak,3,,,,,,,,7,1.78441,,,,,,,,,,,,,,,,,,,,,,,,,,,,8,weak,33.33339409,43.33330355,1,0,0,response1disk,5,13,-9.333314538,-2.666677475,1,0,0,rectangle,-9.333314538,-2.666677475,1,0,0,4,2,0.00121,-9.333314538,-2.666677475,1,0,0,0,12,12,98,1,0,,,,,,,,,,,,,,,,,,,,,
,,,,,,,,,,,,,,,,,,,,,,,,,,,,,,,,,,,,,,,,,,,5dbc433e82849c1eb0c400b5,606c0d40f58e2c56c765ad1d,2021-04-06_09h27.11.983,Colour_Similarity_Experiment,2020.2.10,Win32,60,6067542a4a25243f4d7d4fcf,17.85185268,17.212375,16.65099034,16.6761352,16.64611973,16.6761352,,,,,,,,,,,,,,,,,,,,PF,strong,3,,,,,,,,6,0.94961,,,,,,,,,,,,,,,,,,,,,,,,,,,,5,strong,62.00002092,26.66665673,1,0,0,response1disk,8,14,2.66668582,5.99998945,1,0,0,rectangle,2.66668582,5.99998945,1,0,0,4,0,0.002795,2.66668582,5.99998945,1,0,0,0,13,13,16,1,0,,,,,,,,,,,,,,,,,,,,,
,,,,,,,,,,,,,,,,,,,,,,,,,,,,,,,,,,,,,,,,,,,5dbc433e82849c1eb0c400b5,606c0d40f58e2c56c765ad1d,2021-04-06_09h27.11.983,Colour_Similarity_Experiment,2020.2.10,Win32,60,6067542a4a25243f4d7d4fcf,17.85185268,17.212375,16.65099034,16.6761352,16.64611973,16.6761352,,,,,,,,,,,,,,,,,,,,PF,strong,3,,,,,,,,0,1.882335,,,,,,,,,,,,,,,,,,,,,,,,,,,,8,strong,-47.33331567,51.99999082,1,0,0,response7disk,9,15,-1.999980986,-10.00001103,1,0,0,rectangle,-1.999980986,-10.00001103,1,0,0,4,2,0.000675,-1.999980986,-10.00001103,1,0,0,0,14,14,105,1,0,,,,,,,,,,,,,,,,,,,,,
,,,,,,,,,,,,,,,,,,,,,,,,,,,,,,,,,,,,,,,,,,,5dbc433e82849c1eb0c400b5,606c0d40f58e2c56c765ad1d,2021-04-06_09h27.11.983,Colour_Similarity_Experiment,2020.2.10,Win32,60,6067542a4a25243f4d7d4fcf,17.85185268,17.212375,16.65099034,16.6761352,16.64611973,16.6761352,,,,,,,,,,,,,,,,,,,,PF,strong,3,,,,,,,,4,1.698625,,,,,,,,,,,,,,,,,,,,,,,,,,,,1,strong,63.33335429,-76.66667968,1,0,0,response3disk,5,16,22.00001973,4.666656077,1,0,0,rectangle,22.00001973,4.666656077,1,0,0,4,5,0.00385,22.00001973,4.666656077,1,0,0,0,15,15,82,1,0,,,,,,,,,,,,,,,,,,,,,
,,,,,,,,,,,,,,,,,,,,,,,,,,,,,,,,,,,,,,,,,,,5dbc433e82849c1eb0c400b5,606c0d40f58e2c56c765ad1d,2021-04-06_09h27.11.983,Colour_Similarity_Experiment,2020.2.10,Win32,60,6067542a4a25243f4d7d4fcf,17.85185268,17.212375,16.65099034,16.6761352,16.64611973,16.6761352,,,,,,,,,,,,,,,,,,,,PF,weak,3,,,,,,,,1,1.886185,,,,,,,,,,,,,,,,,,,,,,,,,,,,4,weak,-52.66660847,14.66665637,1,0,0,response7disk,3,17,1.333393137,10.66665626,1,0,0,rectangle,1.333393137,10.66665626,1,0,0,4,1,0.00113,1.333393137,10.66665626,1,0,0,0,16,16,89,1,0,,,,,,,,,,,,,,,,,,,,,
,,,,,,,,,,,,,,,,,,,,,,,,,,,,,,,,,,,,,,,,,,,5dbc433e82849c1eb0c400b5,606c0d40f58e2c56c765ad1d,2021-04-06_09h27.11.983,Colour_Similarity_Experiment,2020.2.10,Win32,60,6067542a4a25243f4d7d4fcf,17.85185268,17.212375,16.65099034,16.6761352,16.64611973,16.6761352,,,,,,,,,,,,,,,,,,,,PF,strong,3,,,,,,,,6,1.188355,,,,,,,,,,,,,,,,,,,,,,,,,,,,2,strong,69.33335447,51.33330379,1,0,0,response1disk,7,18,8.000019312,-13.33334446,1,0,0,rectangle,8.000019312,-13.33334446,1,0,0,4,5,0.00267,8.000019312,-13.33334446,1,0,0,0,17,17,63,1,0,,,,,,,,,,,,,,,,,,,,,
,,,,,,,,,,,,,,,,,,,,,,,,,,,,,,,,,,,,,,,,,,,5dbc433e82849c1eb0c400b5,606c0d40f58e2c56c765ad1d,2021-04-06_09h27.11.983,Colour_Similarity_Experiment,2020.2.10,Win32,60,6067542a4a25243f4d7d4fcf,17.85185268,17.212375,16.65099034,16.6761352,16.64611973,16.6761352,,,,,,,,,,,,,,,,,,,,PF,weak,3,,,,,,,,6,0.85064,,,,,,,,,,,,,,,,,,,,,,,,,,,,2,weak,98.66668868,33.99999028,1,0,0,response1disk,8,19,-1.999980986,7.99998951,1,0,0,rectangle,-1.999980986,7.99998951,1,0,0,4,6,0.001905,-1.999980986,7.99998951,1,0,0,0,18,18,52,1,0,,,,,,,,,,,,,,,,,,,,,
,,,,,,,,,,,,,,,,,,,,,,,,,,,,,,,,,,,,,,,,,,,5dbc433e82849c1eb0c400b5,606c0d40f58e2c56c765ad1d,2021-04-06_09h27.11.983,Colour_Similarity_Experiment,2020.2.10,Win32,60,6067542a4a25243f4d7d4fcf,17.85185268,17.212375,16.65099034,16.6761352,16.64611973,16.6761352,,,,,,,,,,,,,,,,,,,,PF,weak,3,,,,,,,,0,1.31911,,,,,,,,,,,,,,,,,,,,,,,,,,,,2,weak,-17.99998146,65.33330421,1,0,0,response7disk,2,20,-14.66660734,-14.00001115,1,0,0,rectangle,-14.66660734,-14.00001115,1,0,0,4,1,0.002885,-14.66660734,-14.00001115,1,0,0,0,19,19,14,1,0,,,,,,,,,,,,,,,,,,,,,
,,,,,,,,,,,,,,,,,,,,,,,,,,,,,,,,,,,,,,,,,,,5dbc433e82849c1eb0c400b5,606c0d40f58e2c56c765ad1d,2021-04-06_09h27.11.983,Colour_Similarity_Experiment,2020.2.10,Win32,60,6067542a4a25243f4d7d4fcf,17.85185268,17.212375,16.65099034,16.6761352,16.64611973,16.6761352,,,,,,,,,,,,,,,,,,,,PF,weak,3,,,,,,,,6,0.87574,,,,,,,,,,,,,,,,,,,,,,,,,,,,9,weak,82.6666882,23.99998999,1,0,0,response1disk,4,21,24.00001979,3.99998939,1,0,0,rectangle,24.00001979,3.99998939,1,0,0,4,3,0.00239,24.00001979,3.99998939,1,0,0,0,20,20,114,1,0,,,,,,,,,,,,,,,,,,,,,
,,,,,,,,,,,,,,,,,,,,,,,,,,,,,,,,,,,,,,,,,,,5dbc433e82849c1eb0c400b5,606c0d40f58e2c56c765ad1d,2021-04-06_09h27.11.983,Colour_Similarity_Experiment,2020.2.10,Win32,60,6067542a4a25243f4d7d4fcf,17.85185268,17.212375,16.65099034,16.6761352,16.64611973,16.6761352,,,,,,,,,,,,,,,,,,,,PF,strong,3,,,,,,,,3,2.168665,,,,,,,,,,,,,,,,,,,,,,,,,,,,8,strong,-17.33331478,-38.66667855,1,0,0,response5disk,1,22,-5.333314419,-4.666677535,1,0,0,rectangle,-5.333314419,-4.666677535,1,0,0,4,7,0.0043,-5.333314419,-4.666677535,1,0,0,0,21,21,20,1,0,,,,,,,,,,,,,,,,,,,,,
,,,,,,,,,,,,,,,,,,,,,,,,,,,,,,,,,,,,,,,,,,,5dbc433e82849c1eb0c400b5,606c0d40f58e2c56c765ad1d,2021-04-06_09h27.11.983,Colour_Similarity_Experiment,2020.2.10,Win32,60,6067542a4a25243f4d7d4fcf,17.85185268,17.212375,16.65099034,16.6761352,16.64611973,16.6761352,,,,,,,,,,,,,,,,,,,,PF,weak,3,,,,,,,,3,0.86821,,,,,,,,,,,,,,,,,,,,,,,,,,,,6,weak,-33.33331525,-66.66667938,1,0,0,response5disk,3,23,10.00001937,5.333322763,1,0,0,rectangle,10.00001937,5.333322763,1,0,0,4,4,0.001655,10.00001937,5.333322763,1,0,0,0,22,22,26,1,0,,,,,,,,,,,,,,,,,,,,,
,,,,,,,,,,,,,,,,,,,,,,,,,,,,,,,,,,,,,,,,,,,5dbc433e82849c1eb0c400b5,606c0d40f58e2c56c765ad1d,2021-04-06_09h27.11.983,Colour_Similarity_Experiment,2020.2.10,Win32,60,6067542a4a25243f4d7d4fcf,17.85185268,17.212375,16.65099034,16.6761352,16.64611973,16.6761352,,,,,,,,,,,,,,,,,,,,PF,weak,3,,,,,,,,0,1.1654,,,,,,,,,,,,,,,,,,,,,,,,,,,,3,weak,-35.33331531,43.99999058,1,0,0,response7disk,3,24,-3.999981046,-6.666677594,1,0,0,rectangle,-3.999981046,-6.666677594,1,0,0,4,3,0.002315,-3.999981046,-6.666677594,1,0,0,0,23,23,4,1,0,,,,,,,,,,,,,,,,,,,,,
,,,,,,,,,,,,,,,,,,,,,,,,,,,,,,,,,,,,,,,,,,,5dbc433e82849c1eb0c400b5,606c0d40f58e2c56c765ad1d,2021-04-06_09h27.11.983,Colour_Similarity_Experiment,2020.2.10,Win32,60,6067542a4a25243f4d7d4fcf,17.85185268,17.212375,16.65099034,16.6761352,16.64611973,16.6761352,,,,,,,,,,,,,,,,,,,,PF,weak,3,,,,,,,,0,0.664545,,,,,,,,,,,,,,,,,,,,,,,,,,,,4,weak,-25.33331501,27.33330307,1,0,0,response7disk,8,25,0.66668576,-4.000010848,1,0,0,rectangle,0.66668576,-4.000010848,1,0,0,4,0,0.002025,0.66668576,-4.000010848,1,0,0,0,24,24,124,1,0,,,,,,,,,,,,,,,,,,,,,
,,,,,,,,,,,,,,,,,,,,,,,,,,,,,,,,,,,,,,,,,,,5dbc433e82849c1eb0c400b5,606c0d40f58e2c56c765ad1d,2021-04-06_09h27.11.983,Colour_Similarity_Experiment,2020.2.10,Win32,60,6067542a4a25243f4d7d4fcf,17.85185268,17.212375,16.65099034,16.6761352,16.64611973,16.6761352,,,,,,,,,,,,,,,,,,,,PF,strong,3,,,,,,,,0,0.73596,,,,,,,,,,,,,,,,,,,,,,,,,,,,4,strong,-39.99998212,55.33330391,1,0,0,response7disk,3,26,-3.999981046,1.999989331,1,0,0,rectangle,-3.999981046,1.999989331,1,0,0,4,2,0.000775,-3.999981046,1.999989331,1,0,0,0,25,25,77,1,0,,,,,,,,,,,,,,,,,,,,,
,,,,,,,,,,,,,,,,,,,,,,,,,,,,,,,,,,,,,,,,,,,5dbc433e82849c1eb0c400b5,606c0d40f58e2c56c765ad1d,2021-04-06_09h27.11.983,Colour_Similarity_Experiment,2020.2.10,Win32,60,6067542a4a25243f4d7d4fcf,17.85185268,17.212375,16.65099034,16.6761352,16.64611973,16.6761352,,,,,,,,,,,,,,,,,,,,PF,weak,3,,,,,,,,3,0.751975,,,,,,,,,,,,,,,,,,,,,,,,,,,,7,weak,-43.99998224,-45.33334541,1,0,0,response5disk,4,27,0.66668576,6.666656137,1,0,0,rectangle,0.66668576,6.666656137,1,0,0,4,4,0.002235,0.66668576,6.666656137,1,0,0,0,26,26,43,1,0,,,,,,,,,,,,,,,,,,,,,
,,,,,,,,,,,,,,,,,,,,,,,,,,,,,,,,,,,,,,,,,,,5dbc433e82849c1eb0c400b5,606c0d40f58e2c56c765ad1d,2021-04-06_09h27.11.983,Colour_Similarity_Experiment,2020.2.10,Win32,60,6067542a4a25243f4d7d4fcf,17.85185268,17.212375,16.65099034,16.6761352,16.64611973,16.6761352,,,,,,,,,,,,,,,,,,,,PF,strong,3,,,,,,,,6,0.521155,,,,,,,,,,,,,,,,,,,,,,,,,,,,2,strong,28.66668659,17.33332312,1,0,0,response1disk,8,28,22.00001973,7.333322823,1,0,0,rectangle,22.00001973,7.333322823,1,0,0,4,4,0.000445,22.00001973,7.333322823,1,0,0,0,27,27,62,1,0,,,,,,,,,,,,,,,,,,,,,
,,,,,,,,,,,,,,,,,,,,,,,,,,,,,,,,,,,,,,,,,,,5dbc433e82849c1eb0c400b5,606c0d40f58e2c56c765ad1d,2021-04-06_09h27.11.983,Colour_Similarity_Experiment,2020.2.10,Win32,60,6067542a4a25243f4d7d4fcf,17.85185268,17.212375,16.65099034,16.6761352,16.64611973,16.6761352,,,,,,,,,,,,,,,,,,,,PF,strong,3,,,,,,,,3,0.61847,,,,,,,,,,,,,,,,,,,,,,,,,,,,4,strong,-25.33331501,-45.33334541,1,0,0,response5disk,4,29,0.66668576,-5.333344221,1,0,0,rectangle,0.66668576,-5.333344221,1,0,0,4,2,0.00139,0.66668576,-5.333344221,1,0,0,0,28,28,84,1,0,,,,,,,,,,,,,,,,,,,,,
,,,,,,,,,,,,,,,,,,,,,,,,,,,,,,,,,,,,,,,,,,,5dbc433e82849c1eb0c400b5,606c0d40f58e2c56c765ad1d,2021-04-06_09h27.11.983,Colour_Similarity_Experiment,2020.2.10,Win32,60,6067542a4a25243f4d7d4fcf,17.85185268,17.212375,16.65099034,16.6761352,16.64611973,16.6761352,,,,,,,,,,,,,,,,,,,,PF,weak,3,,,,,,,,4,0.36663,,,,,,,,,,,,,,,,,,,,,,,,,,,,5,weak,22.00001973,-52.66667897,1,0,0,response3disk,7,30,8.666685998,-8.666677654,1,0,0,rectangle,8.666685998,-8.666677654,1,0,0,4,3,0.000975,8.666685998,-8.666677654,1,0,0,0,29,29,146,1,0,,,,,,,,,,,,,,,,,,,,,
,,,,,,,,,,,,,,,,,,,,,,,,,,,,,,,,,,,,,,,,,,,5dbc433e82849c1eb0c400b5,606c0d40f58e2c56c765ad1d,2021-04-06_09h27.11.983,Colour_Similarity_Experiment,2020.2.10,Win32,60,6067542a4a25243f4d7d4fcf,17.85185268,17.212375,16.65099034,16.6761352,16.64611973,16.6761352,,,,,,,,,,,,,,,,,,,,PF,strong,3,,,,,,,,3,0.849825,,,,,,,,,,,,,,,,,,,,,,,,,,,,3,strong,-17.99998146,-57.33334577,1,0,0,response5disk,1,31,-9.333314538,2.666656017,1,0,0,rectangle,-9.333314538,2.666656017,1,0,0,4,5,0.002195,-9.333314538,2.666656017,1,0,0,0,30,30,125,1,0,,,,,,,,,,,,,,,,,,,,,
,,,,,,,,,,,,,,,,,,,,,,,,,,,,,,,,,,,,,,,,,,,5dbc433e82849c1eb0c400b5,606c0d40f58e2c56c765ad1d,2021-04-06_09h27.11.983,Colour_Similarity_Experiment,2020.2.10,Win32,60,6067542a4a25243f4d7d4fcf,17.85185268,17.212375,16.65099034,16.6761352,16.64611973,16.6761352,,,,,,,,,,,,,,,,,,,,PF,strong,3,,,,,,,,4,0.356015,,,,,,,,,,,,,,,,,,,,,,,,,,,,7,strong,26.00001985,-48.00001216,1,0,0,response3disk,3,32,6.000019252,-8.666677654,1,0,0,rectangle,6.000019252,-8.666677654,1,0,0,4,3,0.001525,6.000019252,-8.666677654,1,0,0,0,31,31,73,1,0,,,,,,,,,,,,,,,,,,,,,
,,,,,,,,,,,,,,,,,,,,,,,,,,,,,,,,,,,,,,,,,,,5dbc433e82849c1eb0c400b5,606c0d40f58e2c56c765ad1d,2021-04-06_09h27.11.983,Colour_Similarity_Experiment,2020.2.10,Win32,60,6067542a4a25243f4d7d4fcf,17.85185268,17.212375,16.65099034,16.6761352,16.64611973,16.6761352,,,,,,,,,,,,,,,,,,,,PF,strong,3,,,,,,,,5,0.305595,,,,,,,,,,,,,,,,,,,,,,,,,,,,9,strong,39.33339427,-30.66667831,1,0,0,response3disk,1,33,1.333393137,1.999989331,1,0,0,rectangle,1.333393137,1.999989331,1,0,0,4,3,0.000715,1.333393137,1.999989331,1,0,0,0,32,32,111,1,0,,,,,,,,,,,,,,,,,,,,,
,,,,,,,,,,,,,,,,,,,,,,,,,,,,,,,,,,,,,,,,,,,5dbc433e82849c1eb0c400b5,606c0d40f58e2c56c765ad1d,2021-04-06_09h27.11.983,Colour_Similarity_Experiment,2020.2.10,Win32,60,6067542a4a25243f4d7d4fcf,17.85185268,17.212375,16.65099034,16.6761352,16.64611973,16.6761352,,,,,,,,,,,,,,,,,,,,PF,weak,3,,,,,,,,4,0.106745,,,,,,,,,,,,,,,,,,,,,,,,,,,,5,weak,30.66668665,-42.66667867,1,0,0,response3disk,4,34,-4.666607042,-6.666677594,1,0,0,rectangle,-4.666607042,-6.666677594,1,0,0,4,7,0.00507,-4.666607042,-6.666677594,1,0,0,0,33,33,54,1,0,,,,,,,,,,,,,,,,,,,,,
,,,,,,,,,,,,,,,,,,,,,,,,,,,,,,,,,,,,,,,,,,,5dbc433e82849c1eb0c400b5,606c0d40f58e2c56c765ad1d,2021-04-06_09h27.11.983,Colour_Similarity_Experiment,2020.2.10,Win32,60,6067542a4a25243f4d7d4fcf,17.85185268,17.212375,16.65099034,16.6761352,16.64611973,16.6761352,,,,,,,,,,,,,,,,,,,,PF,weak,3,,,,,,,,1,1.016635,,,,,,,,,,,,,,,,,,,,,,,,,,,,2,weak,-23.99998164,22.66665661,1,0,0,response7disk,7,35,12.00001943,8.666656196,1,0,0,rectangle,12.00001943,8.666656196,1,0,0,4,6,0.0025,12.00001943,8.666656196,1,0,0,0,34,34,107,1,0,,,,,,,,,,,,,,,,,,,,,
,,,,,,,,,,,,,,,,,,,,,,,,,,,,,,,,,,,,,,,,,,,5dbc433e82849c1eb0c400b5,606c0d40f58e2c56c765ad1d,2021-04-06_09h27.11.983,Colour_Similarity_Experiment,2020.2.10,Win32,60,6067542a4a25243f4d7d4fcf,17.85185268,17.212375,16.65099034,16.6761352,16.64611973,16.6761352,,,,,,,,,,,,,,,,,,,,PF,strong,3,,,,,,,,6,6.682765,,,,,,,,,,,,,,,,,,,,,,,,,,,,2,strong,54.00002068,28.66665679,1,0,0,response1disk,5,36,-5.333314419,-0.666677415,1,0,0,rectangle,-5.333314419,-0.666677415,1,0,0,4,4,0.00325,-5.333314419,-0.666677415,1,0,0,0,35,35,80,1,0,,,,,,,,,,,,,,,,,,,,,
,,,,,,,,,,,,,,,,,,,,,,,,,,,,,,,,,,,,,,,,,,,5dbc433e82849c1eb0c400b5,606c0d40f58e2c56c765ad1d,2021-04-06_09h27.11.983,Colour_Similarity_Experiment,2020.2.10,Win32,60,6067542a4a25243f4d7d4fcf,17.85185268,17.212375,16.65099034,16.6761352,16.64611973,16.6761352,,,,,,,,,,,,,,,,,,,,PF,weak,3,,,,,,,,0,0.650525,,,,,,,,,,,,,,,,,,,,,,,,,,,,8,weak,-22.66660758,63.99999118,1,0,0,response7disk,6,37,7.333393315,11.99998963,1,0,0,rectangle,-75.3333165,-30.66667831,1,0,0,4,2,2.304325,-11.3333146,-6.666677594,1,0,0,0,36,36,161,1,1,response5disk_3,rectangle,,,,,,,,,,,,,,,,,,,
,,,,,,,,,,,,,,,,,,,,,,,,,,,,,,,,,,,,,,,,,,,5dbc433e82849c1eb0c400b5,606c0d40f58e2c56c765ad1d,2021-04-06_09h27.11.983,Colour_Similarity_Experiment,2020.2.10,Win32,60,6067542a4a25243f4d7d4fcf,17.85185268,17.212375,16.65099034,16.6761352,16.64611973,16.6761352,,,,,,,,,,,,,,,,,,,,PF,weak,3,,,,,,,,6,0.687525,,,,,,,,,,,,,,,,,,,,,,,,,,,,6,weak,49.33335388,31.99999022,1,0,0,response1disk,8,38,-5.999981105,-3.333344162,1,0,0,rectangle,-5.999981105,-3.333344162,1,0,0,4,4,0.001805,-5.999981105,-3.333344162,1,0,0,0,37,37,64,1,0,,,,,,,,,,,,,,,,,,,,,
,,,,,,,,,,,,,,,,,,,,,,,,,,,,,,,,,,,,,,,,,,,5dbc433e82849c1eb0c400b5,606c0d40f58e2c56c765ad1d,2021-04-06_09h27.11.983,Colour_Similarity_Experiment,2020.2.10,Win32,60,6067542a4a25243f4d7d4fcf,17.85185268,17.212375,16.65099034,16.6761352,16.64611973,16.6761352,,,,,,,,,,,,,,,,,,,,PF,weak,3,,,,,,,,5,0.43728,,,,,,,,,,,,,,,,,,,,,,,,,,,,8,weak,38.00002021,-37.33334517,1,0,0,response3disk,8,39,-3.333314359,1.333322644,1,0,0,rectangle,-3.333314359,1.333322644,1,0,0,4,6,0.00387,-3.333314359,1.333322644,1,0,0,0,38,38,153,1,0,,,,,,,,,,,,,,,,,,,,,
,,,,,,,,,,,,,,,,,,,,,,,,,,,,,,,,,,,,,,,,,,,5dbc433e82849c1eb0c400b5,606c0d40f58e2c56c765ad1d,2021-04-06_09h27.11.983,Colour_Similarity_Experiment,2020.2.10,Win32,60,6067542a4a25243f4d7d4fcf,17.85185268,17.212375,16.65099034,16.6761352,16.64611973,16.6761352,,,,,,,,,,,,,,,,,,,,PF,strong,3,,,,,,,,1,0.29227,,,,,,,,,,,,,,,,,,,,,,,,,,,,7,strong,-39.99998212,21.99998993,1,0,0,response7disk,9,40,-10.66660722,1.999989331,1,0,0,rectangle,-10.66660722,1.999989331,1,0,0,4,5,0.001845,-10.66660722,1.999989331,1,0,0,0,39,39,155,1,0,,,,,,,,,,,,,,,,,,,,,
,,,,,,,,,,,,,,,,,,,,,,,,,,,,,,,,,,,,,,,,,,,5dbc433e82849c1eb0c400b5,606c0d40f58e2c56c765ad1d,2021-04-06_09h27.11.983,Colour_Similarity_Experiment,2020.2.10,Win32,60,6067542a4a25243f4d7d4fcf,17.85185268,17.212375,16.65099034,16.6761352,16.64611973,16.6761352,,,,,,,,,,,,,,,,,,,,PF,strong,3,,,,,,,,2,0.584335,,,,,,,,,,,,,,,,,,,,,,,,,,,,9,strong,-36.666608,-22.66667807,1,0,0,response5disk,2,41,-27.33331507,-8.666677654,1,0,0,rectangle,53.333354,-65.33334601,1,0,0,4,4,1.39874,10.66668606,-9.33334434,1,0,0,0,40,40,11,1,1,response3disk_3,rectangle,,,,,,,,,,,,,,,,,,,
,,,,,,,,,,,,,,,,,,,,,,,,,,,,,,,,,,,,,,,,,,,5dbc433e82849c1eb0c400b5,606c0d40f58e2c56c765ad1d,2021-04-06_09h27.11.983,Colour_Similarity_Experiment,2020.2.10,Win32,60,6067542a4a25243f4d7d4fcf,17.85185268,17.212375,16.65099034,16.6761352,16.64611973,16.6761352,,,,,,,,,,,,,,,,,,,,PF,weak,3,,,,,,,,0,0.98223,,,,,,,,,,,,,,,,,,,,,,,,,,,,7,weak,-41.33331549,58.66665769,1,0,0,response7disk,7,42,-7.333314478,-1.07288E-05,1,0,0,rectangle,-7.333314478,-1.07288E-05,1,0,0,4,2,0.002045,-7.333314478,-1.07288E-05,1,0,0,0,41,41,51,1,0,,,,,,,,,,,,,,,,,,,,,
,,,,,,,,,,,,,,,,,,,,,,,,,,,,,,,,,,,,,,,,,,,5dbc433e82849c1eb0c400b5,606c0d40f58e2c56c765ad1d,2021-04-06_09h27.11.983,Colour_Similarity_Experiment,2020.2.10,Win32,60,6067542a4a25243f4d7d4fcf,17.85185268,17.212375,16.65099034,16.6761352,16.64611973,16.6761352,,,,,,,,,,,,,,,,,,,,PF,strong,3,,,,,,,,0,0.53245,,,,,,,,,,,,,,,,,,,,,,,,,,,,6,strong,-43.99998224,55.99999094,1,0,0,response7disk,7,43,-1.999980986,-12.00001109,1,0,0,rectangle,-1.999980986,-12.00001109,1,0,0,4,7,0.00224,-1.999980986,-12.00001109,1,0,0,0,42,42,18,1,0,,,,,,,,,,,,,,,,,,,,,
,,,,,,,,,,,,,,,,,,,,,,,,,,,,,,,,,,,,,,,,,,,5dbc433e82849c1eb0c400b5,606c0d40f58e2c56c765ad1d,2021-04-06_09h27.11.983,Colour_Similarity_Experiment,2020.2.10,Win32,60,6067542a4a25243f4d7d4fcf,17.85185268,17.212375,16.65099034,16.6761352,16.64611973,16.6761352,,,,,,,,,,,,,,,,,,,,PF,strong,3,,,,,,,,1,0.636325,,,,,,,,,,,,,,,,,,,,,,,,,,,,7,strong,-46.66660829,36.66665703,1,0,0,response7disk,7,44,-1.3333143,0.666655958,1,0,0,rectangle,-1.3333143,0.666655958,1,0,0,4,5,0.004435,-1.3333143,0.666655958,1,0,0,0,43,43,34,1,0,,,,,,,,,,,,,,,,,,,,,
,,,,,,,,,,,,,,,,,,,,,,,,,,,,,,,,,,,,,,,,,,,5dbc433e82849c1eb0c400b5,606c0d40f58e2c56c765ad1d,2021-04-06_09h27.11.983,Colour_Similarity_Experiment,2020.2.10,Win32,60,6067542a4a25243f4d7d4fcf,17.85185268,17.212375,16.65099034,16.6761352,16.64611973,16.6761352,,,,,,,,,,,,,,,,,,,,PF,weak,3,,,,,,,,2,1.121365,,,,,,,,,,,,,,,,,,,,,,,,,,,,6,weak,-57.33331597,-34.00001174,1,0,0,response5disk,9,45,6.666685939,-8.666677654,1,0,0,rectangle,6.666685939,-8.666677654,1,0,0,4,7,0.00064,6.666685939,-8.666677654,1,0,0,0,44,44,45,1,0,,,,,,,,,,,,,,,,,,,,,
,,,,,,,,,,,,,,,,,,,,,,,,,,,,,,,,,,,,,,,,,,,5dbc433e82849c1eb0c400b5,606c0d40f58e2c56c765ad1d,2021-04-06_09h27.11.983,Colour_Similarity_Experiment,2020.2.10,Win32,60,6067542a4a25243f4d7d4fcf,17.85185268,17.212375,16.65099034,16.6761352,16.64611973,16.6761352,,,,,,,,,,,,,,,,,,,,PF,weak,3,,,,,,,,2,1.183955,,,,,,,,,,,,,,,,,,,,,,,,,,,,6,weak,-55.33331591,-32.00001168,1,0,0,response5disk,5,46,-27.33331507,-12.66667777,1,0,0,rectangle,-27.33331507,-12.66667777,1,0,0,4,4,0.00267,-27.33331507,-12.66667777,1,0,0,0,45,45,59,1,0,,,,,,,,,,,,,,,,,,,,,
,,,,,,,,,,,,,,,,,,,,,,,,,,,,,,,,,,,,,,,,,,,5dbc433e82849c1eb0c400b5,606c0d40f58e2c56c765ad1d,2021-04-06_09h27.11.983,Colour_Similarity_Experiment,2020.2.10,Win32,60,6067542a4a25243f4d7d4fcf,17.85185268,17.212375,16.65099034,16.6761352,16.64611973,16.6761352,,,,,,,,,,,,,,,,,,,,PF,weak,3,,,,,,,,2,0.76665,,,,,,,,,,,,,,,,,,,,,,,,,,,,4,weak,-55.33331591,-23.33334476,1,0,0,response5disk,6,47,-19.33331484,1.333322644,1,0,0,rectangle,-19.33331484,1.333322644,1,0,0,4,2,0.00158,-19.33331484,1.333322644,1,0,0,0,46,46,120,1,0,,,,,,,,,,,,,,,,,,,,,
,,,,,,,,,,,,,,,,,,,,,,,,,,,,,,,,,,,,,,,,,,,5dbc433e82849c1eb0c400b5,606c0d40f58e2c56c765ad1d,2021-04-06_09h27.11.983,Colour_Similarity_Experiment,2020.2.10,Win32,60,6067542a4a25243f4d7d4fcf,17.85185268,17.212375,16.65099034,16.6761352,16.64611973,16.6761352,,,,,,,,,,,,,,,,,,,,PF,strong,3,,,,,,,,6,4.1815,,,,,,,,,,,,,,,,,,,,,,,,,,,,9,strong,94.00002187,33.33330325,1,0,0,response1disk,6,48,-18.66660746,-12.66667777,1,0,0,rectangle,-18.66660746,-12.66667777,1,0,0,4,3,0.00149,-18.66660746,-12.66667777,1,0,0,0,47,47,117,1,0,,,,,,,,,,,,,,,,,,,,,
,,,,,,,,,,,,,,,,,,,,,,,,,,,,,,,,,,,,,,,,,,,5dbc433e82849c1eb0c400b5,606c0d40f58e2c56c765ad1d,2021-04-06_09h27.11.983,Colour_Similarity_Experiment,2020.2.10,Win32,60,6067542a4a25243f4d7d4fcf,17.85185268,17.212375,16.65099034,16.6761352,16.64611973,16.6761352,,,,,,,,,,,,,,,,,,,,PF,weak,3,,,,,,,,4,1.36521,,,,,,,,,,,,,,,,,,,,,,,,,,,,3,weak,28.00001991,-97.33334696,1,0,0,response3disk,6,49,-3.999981046,-9.33334434,1,0,0,rectangle,-3.999981046,-9.33334434,1,0,0,4,6,0.00742,-3.999981046,-9.33334434,1,0,0,0,48,48,47,1,0,,,,,,,,,,,,,,,,,,,,,
,,,,,,,,,,,,,,,,,,,,,,,,,,,,,,,,,,,,,,,,,,,5dbc433e82849c1eb0c400b5,606c0d40f58e2c56c765ad1d,2021-04-06_09h27.11.983,Colour_Similarity_Experiment,2020.2.10,Win32,60,6067542a4a25243f4d7d4fcf,17.85185268,17.212375,16.65099034,16.6761352,16.64611973,16.6761352,,,,,,,,,,,,,,,,,,,,PF,weak,3,,,,,,,,4,0.850825,,,,,,,,,,,,,,,,,,,,,,,,,,,,2,weak,25.33339385,-61.33334589,1,0,0,response3disk,6,50,12.00001943,-4.666677535,1,0,0,rectangle,12.00001943,-4.666677535,1,0,0,4,0,0.0021,12.00001943,-4.666677535,1,0,0,0,49,49,113,1,0,,,,,,,,,,,,,,,,,,,,,
,,,,,,,,,,,,,,,,,,,,,,,,,,,,,,,,,,,,,,,,,,,5dbc433e82849c1eb0c400b5,606c0d40f58e2c56c765ad1d,2021-04-06_09h27.11.983,Colour_Similarity_Experiment,2020.2.10,Win32,60,6067542a4a25243f4d7d4fcf,17.85185268,17.212375,16.65099034,16.6761352,16.64611973,16.6761352,,,,,,,,,,,,,,,,,,,,PF,strong,3,,,,,,,,3,1.491125,,,,,,,,,,,,,,,,,,,,,,,,,,,,3,strong,-39.33331543,-68.66667944,1,0,0,response5disk,7,51,1.333393137,2.666656017,1,0,0,rectangle,1.333393137,2.666656017,1,0,0,4,4,0.002195,1.333393137,2.666656017,1,0,0,0,50,50,118,1,0,,,,,,,,,,,,,,,,,,,,,
,,,,,,,,,,,,,,,,,,,,,,,,,,,,,,,,,,,,,,,,,,,5dbc433e82849c1eb0c400b5,606c0d40f58e2c56c765ad1d,2021-04-06_09h27.11.983,Colour_Similarity_Experiment,2020.2.10,Win32,60,6067542a4a25243f4d7d4fcf,17.85185268,17.212375,16.65099034,16.6761352,16.64611973,16.6761352,,,,,,,,,,,,,,,,,,,,PF,weak,3,,,,,,,,0,1.13304,,,,,,,,,,,,,,,,,,,,,,,,,,,,4,weak,-57.33331597,89.33330492,1,0,0,response7disk,4,52,1.9735E-05,-6.000010908,1,0,0,rectangle,1.9735E-05,-6.000010908,1,0,0,4,6,0.001185,1.9735E-05,-6.000010908,1,0,0,0,51,51,70,1,0,,,,,,,,,,,,,,,,,,,,,
,,,,,,,,,,,,,,,,,,,,,,,,,,,,,,,,,,,,,,,,,,,5dbc433e82849c1eb0c400b5,606c0d40f58e2c56c765ad1d,2021-04-06_09h27.11.983,Colour_Similarity_Experiment,2020.2.10,Win32,60,6067542a4a25243f4d7d4fcf,17.85185268,17.212375,16.65099034,16.6761352,16.64611973,16.6761352,,,,,,,,,,,,,,,,,,,,PF,weak,3,,,,,,,,0,0.60233,,,,,,,,,,,,,,,,,,,,,,,,,,,,5,weak,-28.66660776,50.66665745,1,0,0,response7disk,5,53,-1.999980986,5.333322763,1,0,0,rectangle,-1.999980986,5.333322763,1,0,0,4,0,0.00125,-1.999980986,5.333322763,1,0,0,0,52,52,94,1,0,,,,,,,,,,,,,,,,,,,,,
,,,,,,,,,,,,,,,,,,,,,,,,,,,,,,,,,,,,,,,,,,,5dbc433e82849c1eb0c400b5,606c0d40f58e2c56c765ad1d,2021-04-06_09h27.11.983,Colour_Similarity_Experiment,2020.2.10,Win32,60,6067542a4a25243f4d7d4fcf,17.85185268,17.212375,16.65099034,16.6761352,16.64611973,16.6761352,,,,,,,,,,,,,,,,,,,,PF,strong,3,,,,,,,,0,0.702245,,,,,,,,,,,,,,,,,,,,,,,,,,,,6,strong,-29.33331513,47.33330367,1,0,0,response7disk,2,54,-13.33331466,-2.666677475,1,0,0,rectangle,-13.33331466,-2.666677475,1,0,0,4,5,0.002515,-13.33331466,-2.666677475,1,0,0,0,53,53,112,1,0,,,,,,,,,,,,,,,,,,,,,
,,,,,,,,,,,,,,,,,,,,,,,,,,,,,,,,,,,,,,,,,,,5dbc433e82849c1eb0c400b5,606c0d40f58e2c56c765ad1d,2021-04-06_09h27.11.983,Colour_Similarity_Experiment,2020.2.10,Win32,60,6067542a4a25243f4d7d4fcf,17.85185268,17.212375,16.65099034,16.6761352,16.64611973,16.6761352,,,,,,,,,,,,,,,,,,,,PF,strong,3,,,,,,,,3,0.8391,,,,,,,,,,,,,,,,,,,,,,,,,,,,3,strong,-31.33331519,-46.0000121,1,0,0,response5disk,5,55,23.33339379,-13.33334446,1,0,0,rectangle,23.33339379,-13.33334446,1,0,0,4,4,0.003275,23.33339379,-13.33334446,1,0,0,0,54,54,101,1,0,,,,,,,,,,,,,,,,,,,,,
,,,,,,,,,,,,,,,,,,,,,,,,,,,,,,,,,,,,,,,,,,,5dbc433e82849c1eb0c400b5,606c0d40f58e2c56c765ad1d,2021-04-06_09h27.11.983,Colour_Similarity_Experiment,2020.2.10,Win32,60,6067542a4a25243f4d7d4fcf,17.85185268,17.212375,16.65099034,16.6761352,16.64611973,16.6761352,,,,,,,,,,,,,,,,,,,,PF,weak,3,,,,,,,,3,0.283055,,,,,,,,,,,,,,,,,,,,,,,,,,,,9,weak,-22.66660758,-44.00001204,1,0,0,response5disk,7,56,-17.99998146,-4.666677535,1,0,0,rectangle,-17.99998146,-4.666677535,1,0,0,4,7,0.00115,-17.99998146,-4.666677535,1,0,0,0,55,55,121,1,0,,,,,,,,,,,,,,,,,,,,,
,,,,,,,,,,,,,,,,,,,,,,,,,,,,,,,,,,,,,,,,,,,5dbc433e82849c1eb0c400b5,606c0d40f58e2c56c765ad1d,2021-04-06_09h27.11.983,Colour_Similarity_Experiment,2020.2.10,Win32,60,6067542a4a25243f4d7d4fcf,17.85185268,17.212375,16.65099034,16.6761352,16.64611973,16.6761352,,,,,,,,,,,,,,,,,,,,PF,strong,3,,,,,,,,6,0.35027,,,,,,,,,,,,,,,,,,,,,,,,,,,,5,strong,46.66668713,35.33330331,1,0,0,response1disk,9,57,2.66668582,-9.33334434,1,0,0,rectangle,2.66668582,-9.33334434,1,0,0,4,3,0.00205,2.66668582,-9.33334434,1,0,0,0,56,56,61,1,0,,,,,,,,,,,,,,,,,,,,,
,,,,,,,,,,,,,,,,,,,,,,,,,,,,,,,,,,,,,,,,,,,5dbc433e82849c1eb0c400b5,606c0d40f58e2c56c765ad1d,2021-04-06_09h27.11.983,Colour_Similarity_Experiment,2020.2.10,Win32,60,6067542a4a25243f4d7d4fcf,17.85185268,17.212375,16.65099034,16.6761352,16.64611973,16.6761352,,,,,,,,,,,,,,,,,,,,PF,weak,3,,,,,,,,3,0.016495,,,,,,,,,,,,,,,,,,,,,,,,,,,,4,weak,-32.66660788,-40.66667861,1,0,0,response5disk,9,58,-22.66660758,-6.000010908,1,0,0,rectangle,-22.66660758,-6.000010908,1,0,0,4,0,0.00239,-22.66660758,-6.000010908,1,0,0,0,57,57,75,1,0,,,,,,,,,,,,,,,,,,,,,
,,,,,,,,,,,,,,,,,,,,,,,,,,,,,,,,,,,,,,,,,,,5dbc433e82849c1eb0c400b5,606c0d40f58e2c56c765ad1d,2021-04-06_09h27.11.983,Colour_Similarity_Experiment,2020.2.10,Win32,60,6067542a4a25243f4d7d4fcf,17.85185268,17.212375,16.65099034,16.6761352,16.64611973,16.6761352,,,,,,,,,,,,,,,,,,,,PF,strong,3,,,,,,,,3,0.871995,,,,,,,,,,,,,,,,,,,,,,,,,,,,3,strong,-41.33331549,-46.66667879,1,0,0,response5disk,2,59,-5.333314419,-13.33334446,1,0,0,rectangle,-5.333314419,-13.33334446,1,0,0,4,2,0.004195,-5.333314419,-13.33334446,1,0,0,0,58,58,93,1,0,,,,,,,,,,,,,,,,,,,,,
,,,,,,,,,,,,,,,,,,,,,,,,,,,,,,,,,,,,,,,,,,,5dbc433e82849c1eb0c400b5,606c0d40f58e2c56c765ad1d,2021-04-06_09h27.11.983,Colour_Similarity_Experiment,2020.2.10,Win32,60,6067542a4a25243f4d7d4fcf,17.85185268,17.212375,16.65099034,16.6761352,16.64611973,16.6761352,,,,,,,,,,,,,,,,,,,,PF,strong,3,,,,,,,,2,0.2536,,,,,,,,,,,,,,,,,,,,,,,,,,,,3,strong,-55.33331591,-27.33334488,1,0,0,response5disk,6,60,-2.666606983,5.333322763,1,0,0,rectangle,-2.666606983,5.333322763,1,0,0,4,3,0.00248,-2.666606983,5.333322763,1,0,0,0,59,59,95,1,0,,,,,,,,,,,,,,,,,,,,,
,,,,,,,,,,,,,,,,,,,,,,,,,,,,,,,,,,,,,,,,,,,5dbc433e82849c1eb0c400b5,606c0d40f58e2c56c765ad1d,2021-04-06_09h27.11.983,Colour_Similarity_Experiment,2020.2.10,Win32,60,6067542a4a25243f4d7d4fcf,17.85185268,17.212375,16.65099034,16.6761352,16.64611973,16.6761352,,,,,,,,,,,,,,,,,,,,PF,weak,3,,,,,,,,3,0.95049,,,,,,,,,,,,,,,,,,,,,,,,,,,,2,weak,-20.66660752,-26.66667819,1,0,0,response5disk,1,61,-5.333314419,-12.66667777,1,0,0,rectangle,-5.333314419,-12.66667777,1,0,0,4,3,0.000485,-5.333314419,-12.66667777,1,0,0,0,60,60,9,1,0,,,,,,,,,,,,,,,,,,,,,
,,,,,,,,,,,,,,,,,,,,,,,,,,,,,,,,,,,,,,,,,,,5dbc433e82849c1eb0c400b5,606c0d40f58e2c56c765ad1d,2021-04-06_09h27.11.983,Colour_Similarity_Experiment,2020.2.10,Win32,60,6067542a4a25243f4d7d4fcf,17.85185268,17.212375,16.65099034,16.6761352,16.64611973,16.6761352,,,,,,,,,,,,,,,,,,,,PF,weak,3,,,,,,,,6,0.43757,,,,,,,,,,,,,,,,,,,,,,,,,,,,3,weak,45.33335376,43.99999058,1,0,0,response1disk,2,62,-3.999981046,-1.333344102,1,0,0,rectangle,-74.66660913,28.66665679,1,0,0,1,1,2.147485,2.000019133,-3.333344162,1,0,0,0,61,61,36,1,1,response7disk_3,rectangle,,,,,,,,,,,,,,,,,,,
,,,,,,,,,,,,,,,,,,,,,,,,,,,,,,,,,,,,,,,,,,,5dbc433e82849c1eb0c400b5,606c0d40f58e2c56c765ad1d,2021-04-06_09h27.11.983,Colour_Similarity_Experiment,2020.2.10,Win32,60,6067542a4a25243f4d7d4fcf,17.85185268,17.212375,16.65099034,16.6761352,16.64611973,16.6761352,,,,,,,,,,,,,,,,,,,,PF,weak,3,,,,,,,,0,0.58815,,,,,,,,,,,,,,,,,,,,,,,,,,,,9,weak,-33.33331525,48.66665739,1,0,0,response7disk,5,63,-6.666607102,7.333322823,1,0,0,rectangle,-6.666607102,7.333322823,1,0,0,1,3,0.00065,-6.666607102,7.333322823,1,0,0,0,62,62,134,1,0,,,,,,,,,,,,,,,,,,,,,
,,,,,,,,,,,,,,,,,,,,,,,,,,,,,,,,,,,,,,,,,,,5dbc433e82849c1eb0c400b5,606c0d40f58e2c56c765ad1d,2021-04-06_09h27.11.983,Colour_Similarity_Experiment,2020.2.10,Win32,60,6067542a4a25243f4d7d4fcf,17.85185268,17.212375,16.65099034,16.6761352,16.64611973,16.6761352,,,,,,,,,,,,,,,,,,,,PF,strong,3,,,,,,,,3,0.43399,,,,,,,,,,,,,,,,,,,,,,,,,,,,7,strong,-35.33331531,-42.00001198,1,0,0,response5disk,1,64,-1.999980986,-12.66667777,1,0,0,rectangle,-1.999980986,-12.66667777,1,0,0,1,1,0.00112,-1.999980986,-12.66667777,1,0,0,0,63,63,132,1,0,,,,,,,,,,,,,,,,,,,,,
,,,,,,,,,,,,,,,,,,,,,,,,,,,,,,,,,,,,,,,,,,,5dbc433e82849c1eb0c400b5,606c0d40f58e2c56c765ad1d,2021-04-06_09h27.11.983,Colour_Similarity_Experiment,2020.2.10,Win32,60,6067542a4a25243f4d7d4fcf,17.85185268,17.212375,16.65099034,16.6761352,16.64611973,16.6761352,,,,,,,,,,,,,,,,,,,,PF,weak,3,,,,,,,,4,0.45087,,,,,,,,,,,,,,,,,,,,,,,,,,,,3,weak,20.00001967,-23.33334476,1,0,0,response3disk,9,65,7.333393315,-6.000010908,1,0,0,rectangle,7.333393315,-6.000010908,1,0,0,1,5,0.00117,7.333393315,-6.000010908,1,0,0,0,64,64,79,1,0,,,,,,,,,,,,,,,,,,,,,
,,,,,,,,,,,,,,,,,,,,,,,,,,,,,,,,,,,,,,,,,,,5dbc433e82849c1eb0c400b5,606c0d40f58e2c56c765ad1d,2021-04-06_09h27.11.983,Colour_Similarity_Experiment,2020.2.10,Win32,60,6067542a4a25243f4d7d4fcf,17.85185268,17.212375,16.65099034,16.6761352,16.64611973,16.6761352,,,,,,,,,,,,,,,,,,,,PF,strong,3,,,,,,,,4,1.053015,,,,,,,,,,,,,,,,,,,,,,,,,,,,6,strong,35.33339415,-79.33334643,1,0,0,response3disk,1,66,0.66668576,6.666656137,1,0,0,rectangle,0.66668576,6.666656137,1,0,0,1,6,0.00231,0.66668576,6.666656137,1,0,0,0,65,65,5,1,0,,,,,,,,,,,,,,,,,,,,,
,,,,,,,,,,,,,,,,,,,,,,,,,,,,,,,,,,,,,,,,,,,5dbc433e82849c1eb0c400b5,606c0d40f58e2c56c765ad1d,2021-04-06_09h27.11.983,Colour_Similarity_Experiment,2020.2.10,Win32,60,6067542a4a25243f4d7d4fcf,17.85185268,17.212375,16.65099034,16.6761352,16.64611973,16.6761352,,,,,,,,,,,,,,,,,,,,PF,strong,3,,,,,,,,4,0.153735,,,,,,,,,,,,,,,,,,,,,,,,,,,,6,strong,44.00002038,-63.33334595,1,0,0,response3disk,4,67,4.666685879,7.333322823,1,0,0,rectangle,4.666685879,7.333322823,1,0,0,1,5,0.00127,4.666685879,7.333322823,1,0,0,0,66,66,56,1,0,,,,,,,,,,,,,,,,,,,,,
,,,,,,,,,,,,,,,,,,,,,,,,,,,,,,,,,,,,,,,,,,,5dbc433e82849c1eb0c400b5,606c0d40f58e2c56c765ad1d,2021-04-06_09h27.11.983,Colour_Similarity_Experiment,2020.2.10,Win32,60,6067542a4a25243f4d7d4fcf,17.85185268,17.212375,16.65099034,16.6761352,16.64611973,16.6761352,,,,,,,,,,,,,,,,,,,,PF,strong,3,,,,,,,,5,0.918985,,,,,,,,,,,,,,,,,,,,,,,,,,,,9,strong,54.00002068,-28.00001156,1,0,0,response3disk,5,68,16.00001955,0.666655958,1,0,0,rectangle,16.00001955,0.666655958,1,0,0,1,1,0.00139,16.00001955,0.666655958,1,0,0,0,67,67,128,1,0,,,,,,,,,,,,,,,,,,,,,
,,,,,,,,,,,,,,,,,,,,,,,,,,,,,,,,,,,,,,,,,,,5dbc433e82849c1eb0c400b5,606c0d40f58e2c56c765ad1d,2021-04-06_09h27.11.983,Colour_Similarity_Experiment,2020.2.10,Win32,60,6067542a4a25243f4d7d4fcf,17.85185268,17.212375,16.65099034,16.6761352,16.64611973,16.6761352,,,,,,,,,,,,,,,,,,,,PF,weak,3,,,,,,,,7,0.02089,,,,,,,,,,,,,,,,,,,,,,,,,,,,8,weak,46.00002044,65.33330421,1,0,0,response1disk,3,69,19.33339367,13.333323,1,0,0,rectangle,19.33339367,13.333323,1,0,0,1,5,0.00193,19.33339367,13.333323,1,0,0,0,68,68,71,1,0,,,,,,,,,,,,,,,,,,,,,
,,,,,,,,,,,,,,,,,,,,,,,,,,,,,,,,,,,,,,,,,,,5dbc433e82849c1eb0c400b5,606c0d40f58e2c56c765ad1d,2021-04-06_09h27.11.983,Colour_Similarity_Experiment,2020.2.10,Win32,60,6067542a4a25243f4d7d4fcf,17.85185268,17.212375,16.65099034,16.6761352,16.64611973,16.6761352,,,,,,,,,,,,,,,,,,,,PF,weak,3,,,,,,,,6,0.319565,,,,,,,,,,,,,,,,,,,,,,,,,,,,6,weak,31.33339403,17.33332312,1,0,0,response1disk,2,70,26.00001985,2.666656017,1,0,0,rectangle,26.00001985,2.666656017,1,0,0,1,6,0.001125,26.00001985,2.666656017,1,0,0,0,69,69,130,1,0,,,,,,,,,,,,,,,,,,,,,
,,,,,,,,,,,,,,,,,,,,,,,,,,,,,,,,,,,,,,,,,,,5dbc433e82849c1eb0c400b5,606c0d40f58e2c56c765ad1d,2021-04-06_09h27.11.983,Colour_Similarity_Experiment,2020.2.10,Win32,60,6067542a4a25243f4d7d4fcf,17.85185268,17.212375,16.65099034,16.6761352,16.64611973,16.6761352,,,,,,,,,,,,,,,,,,,,PF,strong,3,,,,,,,,4,0.18262,,,,,,,,,,,,,,,,,,,,,,,,,,,,9,strong,15.33339355,-32.66667837,1,0,0,response3disk,3,71,5.333393256,-7.333344281,1,0,0,rectangle,5.333393256,-7.333344281,1,0,0,1,0,0.00294,5.333393256,-7.333344281,1,0,0,0,70,70,141,1,0,,,,,,,,,,,,,,,,,,,,,
,,,,,,,,,,,,,,,,,,,,,,,,,,,,,,,,,,,,,,,,,,,5dbc433e82849c1eb0c400b5,606c0d40f58e2c56c765ad1d,2021-04-06_09h27.11.983,Colour_Similarity_Experiment,2020.2.10,Win32,60,6067542a4a25243f4d7d4fcf,17.85185268,17.212375,16.65099034,16.6761352,16.64611973,16.6761352,,,,,,,,,,,,,,,,,,,,PF,strong,3,,,,,,,,5,0.100065,,,,,,,,,,,,,,,,,,,,,,,,,,,,5,strong,56.66668743,-35.33334512,1,0,0,response3disk,3,72,5.333393256,1.333322644,1,0,0,rectangle,5.333393256,1.333322644,1,0,0,1,7,0.00196,5.333393256,1.333322644,1,0,0,0,71,71,25,1,0,,,,,,,,,,,,,,,,,,,,,
,,,,,,,,,,,,,,,,,,,,,,,,,,,,,,,,,,,,,,,,,,,5dbc433e82849c1eb0c400b5,606c0d40f58e2c56c765ad1d,2021-04-06_09h27.11.983,Colour_Similarity_Experiment,2020.2.10,Win32,60,6067542a4a25243f4d7d4fcf,17.85185268,17.212375,16.65099034,16.6761352,16.64611973,16.6761352,,,,,,,,,,,,,,,,,,,,PF,strong,3,,,,,,,,3,0.05011,,,,,,,,,,,,,,,,,,,,,,,,,,,,6,strong,-19.33331484,-51.33334559,1,0,0,response5disk,5,73,3.333393196,-12.66667777,1,0,0,rectangle,3.333393196,-12.66667777,1,0,0,1,5,0.00203,3.333393196,-12.66667777,1,0,0,0,72,72,126,1,0,,,,,,,,,,,,,,,,,,,,,
,,,,,,,,,,,,,,,,,,,,,,,,,,,,,,,,,,,,,,,,,,,5dbc433e82849c1eb0c400b5,606c0d40f58e2c56c765ad1d,2021-04-06_09h27.11.983,Colour_Similarity_Experiment,2020.2.10,Win32,60,6067542a4a25243f4d7d4fcf,17.85185268,17.212375,16.65099034,16.6761352,16.64611973,16.6761352,,,,,,,,,,,,,,,,,,,,PF,weak,3,,,,,,,,4,0.884575,,,,,,,,,,,,,,,,,,,,,,,,,,,,1,weak,30.66668665,-46.66667879,1,0,0,response3disk,6,74,-0.666606923,-12.00001109,1,0,0,rectangle,-0.666606923,-12.00001109,1,0,0,1,5,0.00052,-0.666606923,-12.00001109,1,0,0,0,73,73,144,1,0,,,,,,,,,,,,,,,,,,,,,
,,,,,,,,,,,,,,,,,,,,,,,,,,,,,,,,,,,,,,,,,,,5dbc433e82849c1eb0c400b5,606c0d40f58e2c56c765ad1d,2021-04-06_09h27.11.983,Colour_Similarity_Experiment,2020.2.10,Win32,60,6067542a4a25243f4d7d4fcf,17.85185268,17.212375,16.65099034,16.6761352,16.64611973,16.6761352,,,,,,,,,,,,,,,,,,,,PF,strong,3,,,,,,,,5,0.15007,,,,,,,,,,,,,,,,,,,,,,,,,,,,5,strong,68.66668779,-44.66667873,1,0,0,response3disk,2,75,17.33339361,-6.000010908,1,0,0,rectangle,38.66668689,-81.33334649,1,0,0,4,4,1.820245,13.33339349,-7.333344281,1,0,0,0,74,74,55,1,1,response3disk_3,rectangle,,,,,,,,,,,,,,,,,,,
,,,,,,,,,,,,,,,,,,,,,,,,,,,,,,,,,,,,,,,,,,,5dbc433e82849c1eb0c400b5,606c0d40f58e2c56c765ad1d,2021-04-06_09h27.11.983,Colour_Similarity_Experiment,2020.2.10,Win32,60,6067542a4a25243f4d7d4fcf,17.85185268,17.212375,16.65099034,16.6761352,16.64611973,16.6761352,,,,,,,,,,,,,,,,,,,,PF,strong,3,,,,,,,,3,1.649935,,,,,,,,,,,,,,,,,,,,,,,,,,,,6,strong,-35.33331531,-75.33334631,1,0,0,response5disk,3,76,8.000019312,-4.666677535,1,0,0,rectangle,8.000019312,-4.666677535,1,0,0,4,2,0.003125,8.000019312,-4.666677535,1,0,0,0,75,75,21,1,0,,,,,,,,,,,,,,,,,,,,,
,,,,,,,,,,,,,,,,,,,,,,,,,,,,,,,,,,,,,,,,,,,5dbc433e82849c1eb0c400b5,606c0d40f58e2c56c765ad1d,2021-04-06_09h27.11.983,Colour_Similarity_Experiment,2020.2.10,Win32,60,6067542a4a25243f4d7d4fcf,17.85185268,17.212375,16.65099034,16.6761352,16.64611973,16.6761352,,,,,,,,,,,,,,,,,,,,PF,strong,3,,,,,,,,2,1.483535,,,,,,,,,,,,,,,,,,,,,,,,,,,,8,strong,-65.33331621,-30.66667831,1,0,0,response5disk,2,77,-1.3333143,-10.00001103,1,0,0,rectangle,-1.3333143,-10.00001103,1,0,0,4,2,0.000105,-1.3333143,-10.00001103,1,0,0,0,76,76,22,1,0,,,,,,,,,,,,,,,,,,,,,
,,,,,,,,,,,,,,,,,,,,,,,,,,,,,,,,,,,,,,,,,,,5dbc433e82849c1eb0c400b5,606c0d40f58e2c56c765ad1d,2021-04-06_09h27.11.983,Colour_Similarity_Experiment,2020.2.10,Win32,60,6067542a4a25243f4d7d4fcf,17.85185268,17.212375,16.65099034,16.6761352,16.64611973,16.6761352,,,,,,,,,,,,,,,,,,,,PF,weak,3,,,,,,,,2,0.128165,,,,,,,,,,,,,,,,,,,,,,,,,,,,1,weak,-53.99998254,-43.33334535,1,0,0,response5disk,3,78,23.33339379,-11.3333444,1,0,0,rectangle,23.33339379,-11.3333444,1,0,0,4,1,0.003425,23.33339379,-11.3333444,1,0,0,0,77,77,1,1,0,,,,,,,,,,,,,,,,,,,,,
,,,,,,,,,,,,,,,,,,,,,,,,,,,,,,,,,,,,,,,,,,,5dbc433e82849c1eb0c400b5,606c0d40f58e2c56c765ad1d,2021-04-06_09h27.11.983,Colour_Similarity_Experiment,2020.2.10,Win32,60,6067542a4a25243f4d7d4fcf,17.85185268,17.212375,16.65099034,16.6761352,16.64611973,16.6761352,,,,,,,,,,,,,,,,,,,,PF,weak,3,,,,,,,,4,0.18415,,,,,,,,,,,,,,,,,,,,,,,,,,,,7,weak,18.6666863,-68.66667944,1,0,0,response3disk,2,79,-7.333314478,-2.000010788,1,0,0,rectangle,-7.333314478,-2.000010788,1,0,0,4,1,8.5E-05,-7.333314478,-2.000010788,1,0,0,0,78,78,32,1,0,,,,,,,,,,,,,,,,,,,,,
,,,,,,,,,,,,,,,,,,,,,,,,,,,,,,,,,,,,,,,,,,,5dbc433e82849c1eb0c400b5,606c0d40f58e2c56c765ad1d,2021-04-06_09h27.11.983,Colour_Similarity_Experiment,2020.2.10,Win32,60,6067542a4a25243f4d7d4fcf,17.85185268,17.212375,16.65099034,16.6761352,16.64611973,16.6761352,,,,,,,,,,,,,,,,,,,,PF,strong,3,,,,,,,,5,0.256725,,,,,,,,,,,,,,,,,,,,,,,,,,,,9,strong,44.00002038,-30.00001162,1,0,0,response3disk,4,80,-1.3333143,-13.33334446,1,0,0,rectangle,-1.3333143,-13.33334446,1,0,0,4,2,0.002205,-1.3333143,-13.33334446,1,0,0,0,79,79,60,1,0,,,,,,,,,,,,,,,,,,,,,
,,,,,,,,,,,,,,,,,,,,,,,,,,,,,,,,,,,,,,,,,,,5dbc433e82849c1eb0c400b5,606c0d40f58e2c56c765ad1d,2021-04-06_09h27.11.983,Colour_Similarity_Experiment,2020.2.10,Win32,60,6067542a4a25243f4d7d4fcf,17.85185268,17.212375,16.65099034,16.6761352,16.64611973,16.6761352,,,,,,,,,,,,,,,,,,,,PF,strong,3,,,,,,,,4,0.115915,,,,,,,,,,,,,,,,,,,,,,,,,,,,1,strong,40.00002027,-71.33334619,1,0,0,response3disk,8,81,14.00001949,-12.66667777,1,0,0,rectangle,14.00001949,-12.66667777,1,0,0,4,3,0.00124,14.00001949,-12.66667777,1,0,0,0,80,80,27,1,0,,,,,,,,,,,,,,,,,,,,,
,,,,,,,,,,,,,,,,,,,,,,,,,,,,,,,,,,,,,,,,,,,5dbc433e82849c1eb0c400b5,606c0d40f58e2c56c765ad1d,2021-04-06_09h27.11.983,Colour_Similarity_Experiment,2020.2.10,Win32,60,6067542a4a25243f4d7d4fcf,17.85185268,17.212375,16.65099034,16.6761352,16.64611973,16.6761352,,,,,,,,,,,,,,,,,,,,PF,weak,3,,,,,,,,3,0.03287,,,,,,,,,,,,,,,,,,,,,,,,,,,,7,weak,-46.66660829,-66.0000127,1,0,0,response5disk,5,82,-3.333314359,-2.666677475,1,0,0,rectangle,-3.333314359,-2.666677475,1,0,0,4,6,0.000675,-3.333314359,-2.666677475,1,0,0,0,81,81,92,1,0,,,,,,,,,,,,,,,,,,,,,
,,,,,,,,,,,,,,,,,,,,,,,,,,,,,,,,,,,,,,,,,,,5dbc433e82849c1eb0c400b5,606c0d40f58e2c56c765ad1d,2021-04-06_09h27.11.983,Colour_Similarity_Experiment,2020.2.10,Win32,60,6067542a4a25243f4d7d4fcf,17.85185268,17.212375,16.65099034,16.6761352,16.64611973,16.6761352,,,,,,,,,,,,,,,,,,,,PF,strong,3,,,,,,,,4,0.953105,,,,,,,,,,,,,,,,,,,,,,,,,,,,8,strong,46.66668713,-68.66667944,1,0,0,response3disk,5,83,-2.666606983,-4.000010848,1,0,0,rectangle,-2.666606983,-4.000010848,1,0,0,4,7,0.00326,-2.666606983,-4.000010848,1,0,0,0,82,82,152,1,0,,,,,,,,,,,,,,,,,,,,,
,,,,,,,,,,,,,,,,,,,,,,,,,,,,,,,,,,,,,,,,,,,5dbc433e82849c1eb0c400b5,606c0d40f58e2c56c765ad1d,2021-04-06_09h27.11.983,Colour_Similarity_Experiment,2020.2.10,Win32,60,6067542a4a25243f4d7d4fcf,17.85185268,17.212375,16.65099034,16.6761352,16.64611973,16.6761352,,,,,,,,,,,,,,,,,,,,PF,weak,3,,,,,,,,7,0.03632,,,,,,,,,,,,,,,,,,,,,,,,,,,,9,weak,31.33339403,36.66665703,1,0,0,response1disk,8,84,-1.999980986,-12.00001109,1,0,0,rectangle,-1.999980986,-12.00001109,1,0,0,4,4,0.000915,-1.999980986,-12.00001109,1,0,0,0,83,83,67,1,0,,,,,,,,,,,,,,,,,,,,,
,,,,,,,,,,,,,,,,,,,,,,,,,,,,,,,,,,,,,,,,,,,5dbc433e82849c1eb0c400b5,606c0d40f58e2c56c765ad1d,2021-04-06_09h27.11.983,Colour_Similarity_Experiment,2020.2.10,Win32,60,6067542a4a25243f4d7d4fcf,17.85185268,17.212375,16.65099034,16.6761352,16.64611973,16.6761352,,,,,,,,,,,,,,,,,,,,PF,strong,3,,,,,,,,5,0.2332,,,,,,,,,,,,,,,,,,,,,,,,,,,,7,strong,43.3333537,-28.66667825,1,0,0,response3disk,2,85,-0.666606923,5.333322763,1,0,0,rectangle,-0.666606923,5.333322763,1,0,0,4,2,0.0025,-0.666606923,5.333322763,1,0,0,0,84,84,138,1,0,,,,,,,,,,,,,,,,,,,,,
,,,,,,,,,,,,,,,,,,,,,,,,,,,,,,,,,,,,,,,,,,,5dbc433e82849c1eb0c400b5,606c0d40f58e2c56c765ad1d,2021-04-06_09h27.11.983,Colour_Similarity_Experiment,2020.2.10,Win32,60,6067542a4a25243f4d7d4fcf,17.85185268,17.212375,16.65099034,16.6761352,16.64611973,16.6761352,,,,,,,,,,,,,,,,,,,,PF,weak,3,,,,,,,,4,0.282575,,,,,,,,,,,,,,,,,,,,,,,,,,,,6,weak,21.33339373,-31.333345,1,0,0,response3disk,1,86,-4.666607042,-4.666677535,1,0,0,rectangle,-4.666607042,-4.666677535,1,0,0,4,5,0.002075,-4.666607042,-4.666677535,1,0,0,0,85,85,46,1,0,,,,,,,,,,,,,,,,,,,,,
,,,,,,,,,,,,,,,,,,,,,,,,,,,,,,,,,,,,,,,,,,,5dbc433e82849c1eb0c400b5,606c0d40f58e2c56c765ad1d,2021-04-06_09h27.11.983,Colour_Similarity_Experiment,2020.2.10,Win32,60,6067542a4a25243f4d7d4fcf,17.85185268,17.212375,16.65099034,16.6761352,16.64611973,16.6761352,,,,,,,,,,,,,,,,,,,,PF,weak,3,,,,,,,,5,0.250645,,,,,,,,,,,,,,,,,,,,,,,,,,,,5,weak,51.33335394,-32.66667837,1,0,0,response3disk,2,87,3.333393196,-2.666677475,1,0,0,rectangle,3.333393196,-2.666677475,1,0,0,4,4,0.00133,3.333393196,-2.666677475,1,0,0,0,86,86,129,1,0,,,,,,,,,,,,,,,,,,,,,
,,,,,,,,,,,,,,,,,,,,,,,,,,,,,,,,,,,,,,,,,,,5dbc433e82849c1eb0c400b5,606c0d40f58e2c56c765ad1d,2021-04-06_09h27.11.983,Colour_Similarity_Experiment,2020.2.10,Win32,60,6067542a4a25243f4d7d4fcf,17.85185268,17.212375,16.65099034,16.6761352,16.64611973,16.6761352,,,,,,,,,,,,,,,,,,,,PF,weak,3,,,,,,,,5,0.18103,,,,,,,,,,,,,,,,,,,,,,,,,,,,1,weak,49.33335388,-36.0000118,1,0,0,response3disk,8,88,10.00001937,13.333323,1,0,0,rectangle,10.00001937,13.333323,1,0,0,4,3,0.00146,10.00001937,13.333323,1,0,0,0,87,87,65,1,0,,,,,,,,,,,,,,,,,,,,,
,,,,,,,,,,,,,,,,,,,,,,,,,,,,,,,,,,,,,,,,,,,5dbc433e82849c1eb0c400b5,606c0d40f58e2c56c765ad1d,2021-04-06_09h27.11.983,Colour_Similarity_Experiment,2020.2.10,Win32,60,6067542a4a25243f4d7d4fcf,17.85185268,17.212375,16.65099034,16.6761352,16.64611973,16.6761352,,,,,,,,,,,,,,,,,,,,PF,strong,3,,,,,,,,3,0.31789,,,,,,,,,,,,,,,,,,,,,,,,,,,,8,strong,-54.66660853,-78.66667974,1,0,0,response5disk,8,89,-1.999980986,-7.333344281,1,0,0,rectangle,-1.999980986,-7.333344281,1,0,0,4,4,0.003375,-1.999980986,-7.333344281,1,0,0,0,88,88,48,1,0,,,,,,,,,,,,,,,,,,,,,
,,,,,,,,,,,,,,,,,,,,,,,,,,,,,,,,,,,,,,,,,,,5dbc433e82849c1eb0c400b5,606c0d40f58e2c56c765ad1d,2021-04-06_09h27.11.983,Colour_Similarity_Experiment,2020.2.10,Win32,60,6067542a4a25243f4d7d4fcf,17.85185268,17.212375,16.65099034,16.6761352,16.64611973,16.6761352,,,,,,,,,,,,,,,,,,,,PF,weak,3,,,,,,,,2,0.283255,,,,,,,,,,,,,,,,,,,,,,,,,,,,4,weak,-50.66660841,-46.66667879,1,0,0,response5disk,2,90,1.9735E-05,13.333323,1,0,0,rectangle,1.9735E-05,13.333323,1,0,0,4,7,0.00153,1.9735E-05,13.333323,1,0,0,0,89,89,108,1,0,,,,,,,,,,,,,,,,,,,,,
,,,,,,,,,,,,,,,,,,,,,,,,,,,,,,,,,,,,,,,,,,,5dbc433e82849c1eb0c400b5,606c0d40f58e2c56c765ad1d,2021-04-06_09h27.11.983,Colour_Similarity_Experiment,2020.2.10,Win32,60,6067542a4a25243f4d7d4fcf,17.85185268,17.212375,16.65099034,16.6761352,16.64611973,16.6761352,,,,,,,,,,,,,,,,,,,,PF,strong,3,,,,,,,,1,0.565675,,,,,,,,,,,,,,,,,,,,,,,,,,,,9,strong,-44.66660823,28.66665679,1,0,0,response7disk,7,91,-15.9999814,-6.666677594,1,0,0,rectangle,-15.9999814,-6.666677594,1,0,0,4,6,0.001175,-15.9999814,-6.666677594,1,0,0,0,90,90,100,1,0,,,,,,,,,,,,,,,,,,,,,
,,,,,,,,,,,,,,,,,,,,,,,,,,,,,,,,,,,,,,,,,,,5dbc433e82849c1eb0c400b5,606c0d40f58e2c56c765ad1d,2021-04-06_09h27.11.983,Colour_Similarity_Experiment,2020.2.10,Win32,60,6067542a4a25243f4d7d4fcf,17.85185268,17.212375,16.65099034,16.6761352,16.64611973,16.6761352,,,,,,,,,,,,,,,,,,,,PF,weak,3,,,,,,,,0,0.1168,,,,,,,,,,,,,,,,,,,,,,,,,,,,7,weak,-39.99998212,57.999991,1,0,0,response7disk,9,92,4.000019193,7.99998951,1,0,0,rectangle,4.000019193,7.99998951,1,0,0,4,4,0.001275,4.000019193,7.99998951,1,0,0,0,91,91,10,1,0,,,,,,,,,,,,,,,,,,,,,
,,,,,,,,,,,,,,,,,,,,,,,,,,,,,,,,,,,,,,,,,,,5dbc433e82849c1eb0c400b5,606c0d40f58e2c56c765ad1d,2021-04-06_09h27.11.983,Colour_Similarity_Experiment,2020.2.10,Win32,60,6067542a4a25243f4d7d4fcf,17.85185268,17.212375,16.65099034,16.6761352,16.64611973,16.6761352,,,,,,,,,,,,,,,,,,,,PF,weak,3,,,,,,,,1,1.266435,,,,,,,,,,,,,,,,,,,,,,,,,,,,1,weak,-59.99998271,58.66665769,1,0,0,response7disk,5,93,-7.333314478,5.333322763,1,0,0,rectangle,-7.333314478,5.333322763,1,0,0,4,2,0.002945,-7.333314478,5.333322763,1,0,0,0,92,92,28,1,0,,,,,,,,,,,,,,,,,,,,,
,,,,,,,,,,,,,,,,,,,,,,,,,,,,,,,,,,,,,,,,,,,5dbc433e82849c1eb0c400b5,606c0d40f58e2c56c765ad1d,2021-04-06_09h27.11.983,Colour_Similarity_Experiment,2020.2.10,Win32,60,6067542a4a25243f4d7d4fcf,17.85185268,17.212375,16.65099034,16.6761352,16.64611973,16.6761352,,,,,,,,,,,,,,,,,,,,PF,strong,3,,,,,,,,1,0.06731,,,,,,,,,,,,,,,,,,,,,,,,,,,,4,strong,-52.66660847,26.66665673,1,0,0,response7disk,6,94,5.333393256,-8.000010967,1,0,0,rectangle,5.333393256,-8.000010967,1,0,0,4,5,0.00101,5.333393256,-8.000010967,1,0,0,0,93,93,122,1,0,,,,,,,,,,,,,,,,,,,,,
,,,,,,,,,,,,,,,,,,,,,,,,,,,,,,,,,,,,,,,,,,,5dbc433e82849c1eb0c400b5,606c0d40f58e2c56c765ad1d,2021-04-06_09h27.11.983,Colour_Similarity_Experiment,2020.2.10,Win32,60,6067542a4a25243f4d7d4fcf,17.85185268,17.212375,16.65099034,16.6761352,16.64611973,16.6761352,,,,,,,,,,,,,,,,,,,,PF,weak,3,,,,,,,,4,0.24726,,,,,,,,,,,,,,,,,,,,,,,,,,,,3,weak,58.0000208,-77.33334637,1,0,0,response3disk,7,95,-17.33331478,8.666656196,1,0,0,rectangle,-17.33331478,8.666656196,1,0,0,4,4,0.00231,-17.33331478,8.666656196,1,0,0,0,94,94,41,1,0,,,,,,,,,,,,,,,,,,,,,
,,,,,,,,,,,,,,,,,,,,,,,,,,,,,,,,,,,,,,,,,,,5dbc433e82849c1eb0c400b5,606c0d40f58e2c56c765ad1d,2021-04-06_09h27.11.983,Colour_Similarity_Experiment,2020.2.10,Win32,60,6067542a4a25243f4d7d4fcf,17.85185268,17.212375,16.65099034,16.6761352,16.64611973,16.6761352,,,,,,,,,,,,,,,,,,,,PF,weak,3,,,,,,,,5,0.166715,,,,,,,,,,,,,,,,,,,,,,,,,,,,4,weak,55.33335406,-48.00001216,1,0,0,response3disk,5,96,2.000019133,3.99998939,1,0,0,rectangle,2.000019133,3.99998939,1,0,0,4,5,0.003585,2.000019133,3.99998939,1,0,0,0,95,95,49,1,0,,,,,,,,,,,,,,,,,,,,,
,,,,,,,,,,,,,,,,,,,,,,,,,,,,,,,,,,,,,,,,,,,5dbc433e82849c1eb0c400b5,606c0d40f58e2c56c765ad1d,2021-04-06_09h27.11.983,Colour_Similarity_Experiment,2020.2.10,Win32,60,6067542a4a25243f4d7d4fcf,17.85185268,17.212375,16.65099034,16.6761352,16.64611973,16.6761352,,,,,,,,,,,,,,,,,,,,PF,strong,3,,,,,,,,5,0.233985,,,,,,,,,,,,,,,,,,,,,,,,,,,,2,strong,71.33335453,-66.0000127,1,0,0,response3disk,1,97,-8.666607161,7.99998951,1,0,0,rectangle,-8.666607161,7.99998951,1,0,0,4,7,0.00145,-8.666607161,7.99998951,1,0,0,0,96,96,85,1,0,,,,,,,,,,,,,,,,,,,,,
,,,,,,,,,,,,,,,,,,,,,,,,,,,,,,,,,,,,,,,,,,,5dbc433e82849c1eb0c400b5,606c0d40f58e2c56c765ad1d,2021-04-06_09h27.11.983,Colour_Similarity_Experiment,2020.2.10,Win32,60,6067542a4a25243f4d7d4fcf,17.85185268,17.212375,16.65099034,16.6761352,16.64611973,16.6761352,,,,,,,,,,,,,,,,,,,,PF,weak,3,,,,,,,,6,0.099645,,,,,,,,,,,,,,,,,,,,,,,,,,,,4,weak,52.00002062,25.99999005,1,0,0,response1disk,1,98,8.666685998,-1.333344102,1,0,0,rectangle,8.666685998,-1.333344102,1,0,0,4,0,0.002135,8.666685998,-1.333344102,1,0,0,0,97,97,115,1,0,,,,,,,,,,,,,,,,,,,,,
,,,,,,,,,,,,,,,,,,,,,,,,,,,,,,,,,,,,,,,,,,,5dbc433e82849c1eb0c400b5,606c0d40f58e2c56c765ad1d,2021-04-06_09h27.11.983,Colour_Similarity_Experiment,2020.2.10,Win32,60,6067542a4a25243f4d7d4fcf,17.85185268,17.212375,16.65099034,16.6761352,16.64611973,16.6761352,,,,,,,,,,,,,,,,,,,,PF,weak,3,,,,,,,,7,0.58825,,,,,,,,,,,,,,,,,,,,,,,,,,,,9,weak,16.66668624,31.33330319,1,0,0,response1disk,1,99,10.66668606,8.666656196,1,0,0,rectangle,10.66668606,8.666656196,1,0,0,4,2,0.001,10.66668606,8.666656196,1,0,0,0,98,98,74,1,0,,,,,,,,,,,,,,,,,,,,,
,,,,,,,,,,,,,,,,,,,,,,,,,,,,,,,,,,,,,,,,,,,5dbc433e82849c1eb0c400b5,606c0d40f58e2c56c765ad1d,2021-04-06_09h27.11.983,Colour_Similarity_Experiment,2020.2.10,Win32,60,6067542a4a25243f4d7d4fcf,17.85185268,17.212375,16.65099034,16.6761352,16.64611973,16.6761352,,,,,,,,,,,,,,,,,,,,PF,weak,3,,,,,,,,2,1.59972,,,,,,,,,,,,,,,,,,,,,,,,,,,,2,weak,-44.66660823,-16.00001121,1,0,0,response5disk,4,100,13.33339349,-5.333344221,1,0,0,rectangle,13.33339349,-5.333344221,1,0,0,4,1,0.001325,13.33339349,-5.333344221,1,0,0,0,99,99,127,1,0,,,,,,,,,,,,,,,,,,,,,
,,,,,,,,,,,,,,,,,,,,,,,,,,,,,,,,,,,,,,,,,,,5dbc433e82849c1eb0c400b5,606c0d40f58e2c56c765ad1d,2021-04-06_09h27.11.983,Colour_Similarity_Experiment,2020.2.10,Win32,60,6067542a4a25243f4d7d4fcf,17.85185268,17.212375,16.65099034,16.6761352,16.64611973,16.6761352,,,,,,,,,,,,,,,,,,,,PF,strong,3,,,,,,,,1,1.085135,,,,,,,,,,,,,,,,,,,,,,,,,,,,2,strong,-38.66660806,36.66665703,1,0,0,response7disk,2,101,3.333393196,-4.666677535,1,0,0,rectangle,3.333393196,-4.666677535,1,0,0,4,0,0.005275,3.333393196,-4.666677535,1,0,0,0,100,100,142,1,0,,,,,,,,,,,,,,,,,,,,,
,,,,,,,,,,,,,,,,,,,,,,,,,,,,,,,,,,,,,,,,,,,5dbc433e82849c1eb0c400b5,606c0d40f58e2c56c765ad1d,2021-04-06_09h27.11.983,Colour_Similarity_Experiment,2020.2.10,Win32,60,6067542a4a25243f4d7d4fcf,17.85185268,17.212375,16.65099034,16.6761352,16.64611973,16.6761352,,,,,,,,,,,,,,,,,,,,PF,strong,3,,,,,,,,1,0.85416,,,,,,,,,,,,,,,,,,,,,,,,,,,,4,strong,-46.66660829,19.99998987,1,0,0,response7disk,8,102,-18.66660746,11.33332294,1,0,0,rectangle,-18.66660746,11.33332294,1,0,0,4,7,0.00216,-18.66660746,11.33332294,1,0,0,0,101,101,35,1,0,,,,,,,,,,,,,,,,,,,,,
,,,,,,,,,,,,,,,,,,,,,,,,,,,,,,,,,,,,,,,,,,,5dbc433e82849c1eb0c400b5,606c0d40f58e2c56c765ad1d,2021-04-06_09h27.11.983,Colour_Similarity_Experiment,2020.2.10,Win32,60,6067542a4a25243f4d7d4fcf,17.85185268,17.212375,16.65099034,16.6761352,16.64611973,16.6761352,,,,,,,,,,,,,,,,,,,,PF,weak,3,,,,,,,,4,0.203145,,,,,,,,,,,,,,,,,,,,,,,,,,,,9,weak,52.00002062,-62.00001258,1,0,0,response3disk,3,103,4.666685879,1.333322644,1,0,0,rectangle,4.666685879,1.333322644,1,0,0,4,3,0.001225,4.666685879,1.333322644,1,0,0,0,102,102,119,1,0,,,,,,,,,,,,,,,,,,,,,
,,,,,,,,,,,,,,,,,,,,,,,,,,,,,,,,,,,,,,,,,,,5dbc433e82849c1eb0c400b5,606c0d40f58e2c56c765ad1d,2021-04-06_09h27.11.983,Colour_Similarity_Experiment,2020.2.10,Win32,60,6067542a4a25243f4d7d4fcf,17.85185268,17.212375,16.65099034,16.6761352,16.64611973,16.6761352,,,,,,,,,,,,,,,,,,,,PF,strong,3,,,,,,,,5,0.2714,,,,,,,,,,,,,,,,,,,,,,,,,,,,7,strong,52.00002062,-40.00001192,1,0,0,response3disk,5,104,2.66668582,5.333322763,1,0,0,rectangle,2.66668582,5.333322763,1,0,0,4,2,0.002045,2.66668582,5.333322763,1,0,0,0,103,103,156,1,0,,,,,,,,,,,,,,,,,,,,,
,,,,,,,,,,,,,,,,,,,,,,,,,,,,,,,,,,,,,,,,,,,5dbc433e82849c1eb0c400b5,606c0d40f58e2c56c765ad1d,2021-04-06_09h27.11.983,Colour_Similarity_Experiment,2020.2.10,Win32,60,6067542a4a25243f4d7d4fcf,17.85185268,17.212375,16.65099034,16.6761352,16.64611973,16.6761352,,,,,,,,,,,,,,,,,,,,PF,weak,3,,,,,,,,7,0.28793,,,,,,,,,,,,,,,,,,,,,,,,,,,,3,weak,17.33339361,34.66665697,1,0,0,response1disk,8,105,-4.666607042,-8.666677654,1,0,0,rectangle,-4.666607042,-8.666677654,1,0,0,4,2,0.000445,-4.666607042,-8.666677654,1,0,0,0,104,104,3,1,0,,,,,,,,,,,,,,,,,,,,,
,,,,,,,,,,,,,,,,,,,,,,,,,,,,,,,,,,,,,,,,,,,5dbc433e82849c1eb0c400b5,606c0d40f58e2c56c765ad1d,2021-04-06_09h27.11.983,Colour_Similarity_Experiment,2020.2.10,Win32,60,6067542a4a25243f4d7d4fcf,17.85185268,17.212375,16.65099034,16.6761352,16.64611973,16.6761352,,,,,,,,,,,,,,,,,,,,PF,weak,3,,,,,,,,2,1.01289,,,,,,,,,,,,,,,,,,,,,,,,,,,,4,weak,-65.99998289,-38.00001186,1,0,0,response5disk,7,106,-14.66660734,-12.66667777,1,0,0,rectangle,-14.66660734,-12.66667777,1,0,0,4,2,0.00078,-14.66660734,-12.66667777,1,0,0,0,105,105,38,1,0,,,,,,,,,,,,,,,,,,,,,
,,,,,,,,,,,,,,,,,,,,,,,,,,,,,,,,,,,,,,,,,,,5dbc433e82849c1eb0c400b5,606c0d40f58e2c56c765ad1d,2021-04-06_09h27.11.983,Colour_Similarity_Experiment,2020.2.10,Win32,60,6067542a4a25243f4d7d4fcf,17.85185268,17.212375,16.65099034,16.6761352,16.64611973,16.6761352,,,,,,,,,,,,,,,,,,,,PF,weak,3,,,,,,,,5,0.34954,,,,,,,,,,,,,,,,,,,,,,,,,,,,3,weak,44.66668707,-35.33334512,1,0,0,response3disk,4,107,-16.6666074,-2.666677475,1,0,0,rectangle,-16.6666074,-2.666677475,1,0,0,4,1,0.00268,-16.6666074,-2.666677475,1,0,0,0,106,106,30,1,0,,,,,,,,,,,,,,,,,,,,,
,,,,,,,,,,,,,,,,,,,,,,,,,,,,,,,,,,,,,,,,,,,5dbc433e82849c1eb0c400b5,606c0d40f58e2c56c765ad1d,2021-04-06_09h27.11.983,Colour_Similarity_Experiment,2020.2.10,Win32,60,6067542a4a25243f4d7d4fcf,17.85185268,17.212375,16.65099034,16.6761352,16.64611973,16.6761352,,,,,,,,,,,,,,,,,,,,PF,weak,3,,,,,,,,4,0.09237,,,,,,,,,,,,,,,,,,,,,,,,,,,,8,weak,62.00002092,-74.00001293,1,0,0,response3disk,7,108,17.33339361,1.333322644,1,0,0,rectangle,17.33339361,1.333322644,1,0,0,4,6,0.001665,17.33339361,1.333322644,1,0,0,0,107,107,23,1,0,,,,,,,,,,,,,,,,,,,,,
,,,,,,,,,,,,,,,,,,,,,,,,,,,,,,,,,,,,,,,,,,,5dbc433e82849c1eb0c400b5,606c0d40f58e2c56c765ad1d,2021-04-06_09h27.11.983,Colour_Similarity_Experiment,2020.2.10,Win32,60,6067542a4a25243f4d7d4fcf,17.85185268,17.212375,16.65099034,16.6761352,16.64611973,16.6761352,,,,,,,,,,,,,,,,,,,,PF,strong,3,,,,,,,,5,0.469165,,,,,,,,,,,,,,,,,,,,,,,,,,,,5,strong,49.33335388,-30.00001162,1,0,0,response3disk,7,109,-3.999981046,-2.000010788,1,0,0,rectangle,-3.999981046,-2.000010788,1,0,0,4,0,0.002985,-3.999981046,-2.000010788,1,0,0,0,108,108,7,1,0,,,,,,,,,,,,,,,,,,,,,
,,,,,,,,,,,,,,,,,,,,,,,,,,,,,,,,,,,,,,,,,,,5dbc433e82849c1eb0c400b5,606c0d40f58e2c56c765ad1d,2021-04-06_09h27.11.983,Colour_Similarity_Experiment,2020.2.10,Win32,60,6067542a4a25243f4d7d4fcf,17.85185268,17.212375,16.65099034,16.6761352,16.64611973,16.6761352,,,,,,,,,,,,,,,,,,,,PF,strong,3,,,,,,,,0,0.883465,,,,,,,,,,,,,,,,,,,,,,,,,,,,2,strong,-15.33331472,67.9999913,1,0,0,response7disk,9,110,-6.666607102,9.333322883,1,0,0,rectangle,-6.666607102,9.333322883,1,0,0,4,5,0.004815,-6.666607102,9.333322883,1,0,0,0,109,109,72,1,0,,,,,,,,,,,,,,,,,,,,,
,,,,,,,,,,,,,,,,,,,,,,,,,,,,,,,,,,,,,,,,,,,5dbc433e82849c1eb0c400b5,606c0d40f58e2c56c765ad1d,2021-04-06_09h27.11.983,Colour_Similarity_Experiment,2020.2.10,Win32,60,6067542a4a25243f4d7d4fcf,17.85185268,17.212375,16.65099034,16.6761352,16.64611973,16.6761352,,,,,,,,,,,,,,,,,,,,PF,strong,3,,,,,,,,6,1.315825,,,,,,,,,,,,,,,,,,,,,,,,,,,,4,strong,73.33335459,27.99999011,1,0,0,response1disk,7,111,-14.66660734,-0.666677415,1,0,0,rectangle,-14.66660734,-0.666677415,1,0,0,4,3,0.00288,-14.66660734,-0.666677415,1,0,0,0,110,110,87,1,0,,,,,,,,,,,,,,,,,,,,,
,,,,,,,,,,,,,,,,,,,,,,,,,,,,,,,,,,,,,,,,,,,5dbc433e82849c1eb0c400b5,606c0d40f58e2c56c765ad1d,2021-04-06_09h27.11.983,Colour_Similarity_Experiment,2020.2.10,Win32,60,6067542a4a25243f4d7d4fcf,17.85185268,17.212375,16.65099034,16.6761352,16.64611973,16.6761352,,,,,,,,,,,,,,,,,,,,PF,strong,3,,,,,,,,1,4.24633,,,,,,,,,,,,,,,,,,,,,,,,,,,,3,strong,-86.66660949,67.33330427,1,0,0,response7disk,3,112,-12.66660728,0.666655958,1,0,0,rectangle,-12.66660728,0.666655958,1,0,0,4,1,0.002585,-12.66660728,0.666655958,1,0,0,0,111,111,68,1,0,,,,,,,,,,,,,,,,,,,,,
,,,,,,,,,,,,,,,,,,,,,,,,,,,,,,,,,,,,,,,,,,,5dbc433e82849c1eb0c400b5,606c0d40f58e2c56c765ad1d,2021-04-06_09h27.11.983,Colour_Similarity_Experiment,2020.2.10,Win32,60,6067542a4a25243f4d7d4fcf,17.85185268,17.212375,16.65099034,16.6761352,16.64611973,16.6761352,,,,,,,,,,,,,,,,,,,,PF,weak,3,,,,,,,,0,0.28943,,,,,,,,,,,,,,,,,,,,,,,,,,,,3,weak,-22.66660758,68.66665798,1,0,0,response7disk,5,113,-3.333314359,11.33332294,1,0,0,rectangle,-3.333314359,11.33332294,1,0,0,4,2,0.002135,-3.333314359,11.33332294,1,0,0,0,112,112,66,1,0,,,,,,,,,,,,,,,,,,,,,
,,,,,,,,,,,,,,,,,,,,,,,,,,,,,,,,,,,,,,,,,,,5dbc433e82849c1eb0c400b5,606c0d40f58e2c56c765ad1d,2021-04-06_09h27.11.983,Colour_Similarity_Experiment,2020.2.10,Win32,60,6067542a4a25243f4d7d4fcf,17.85185268,17.212375,16.65099034,16.6761352,16.64611973,16.6761352,,,,,,,,,,,,,,,,,,,,PF,weak,3,,,,,,,,0,1.14533,,,,,,,,,,,,,,,,,,,,,,,,,,,,5,weak,-35.33331531,35.99999034,1,0,0,response7disk,6,114,18.00001961,-8.000010967,1,0,0,rectangle,18.00001961,-8.000010967,1,0,0,4,1,0.001395,18.00001961,-8.000010967,1,0,0,0,113,113,103,1,0,,,,,,,,,,,,,,,,,,,,,
,,,,,,,,,,,,,,,,,,,,,,,,,,,,,,,,,,,,,,,,,,,5dbc433e82849c1eb0c400b5,606c0d40f58e2c56c765ad1d,2021-04-06_09h27.11.983,Colour_Similarity_Experiment,2020.2.10,Win32,60,6067542a4a25243f4d7d4fcf,17.85185268,17.212375,16.65099034,16.6761352,16.64611973,16.6761352,,,,,,,,,,,,,,,,,,,,PF,weak,3,,,,,,,,0,0.98124,,,,,,,,,,,,,,,,,,,,,,,,,,,,9,weak,-37.99998206,60.66665775,1,0,0,response7disk,9,115,7.333393315,-9.33334434,1,0,0,rectangle,7.333393315,-9.33334434,1,0,0,4,3,0.00132,7.333393315,-9.33334434,1,0,0,0,114,114,106,1,0,,,,,,,,,,,,,,,,,,,,,
,,,,,,,,,,,,,,,,,,,,,,,,,,,,,,,,,,,,,,,,,,,5dbc433e82849c1eb0c400b5,606c0d40f58e2c56c765ad1d,2021-04-06_09h27.11.983,Colour_Similarity_Experiment,2020.2.10,Win32,60,6067542a4a25243f4d7d4fcf,17.85185268,17.212375,16.65099034,16.6761352,16.64611973,16.6761352,,,,,,,,,,,,,,,,,,,,PF,strong,3,,,,,,,,0,0.88574,,,,,,,,,,,,,,,,,,,,,,,,,,,,3,strong,-36.666608,61.99999112,1,0,0,response7disk,4,116,14.66668618,2.666656017,1,0,0,rectangle,14.66668618,2.666656017,1,0,0,4,3,0.00026,14.66668618,2.666656017,1,0,0,0,115,115,110,1,0,,,,,,,,,,,,,,,,,,,,,
,,,,,,,,,,,,,,,,,,,,,,,,,,,,,,,,,,,,,,,,,,,5dbc433e82849c1eb0c400b5,606c0d40f58e2c56c765ad1d,2021-04-06_09h27.11.983,Colour_Similarity_Experiment,2020.2.10,Win32,60,6067542a4a25243f4d7d4fcf,17.85185268,17.212375,16.65099034,16.6761352,16.64611973,16.6761352,,,,,,,,,,,,,,,,,,,,PF,strong,3,,,,,,,,1,1.20006,,,,,,,,,,,,,,,,,,,,,,,,,,,,7,strong,-64.66660883,33.33330325,1,0,0,response7disk,4,117,20.00001967,1.333322644,1,0,0,rectangle,20.00001967,1.333322644,1,0,0,4,5,0.003365,20.00001967,1.333322644,1,0,0,0,116,116,158,1,0,,,,,,,,,,,,,,,,,,,,,
,,,,,,,,,,,,,,,,,,,,,,,,,,,,,,,,,,,,,,,,,,,5dbc433e82849c1eb0c400b5,606c0d40f58e2c56c765ad1d,2021-04-06_09h27.11.983,Colour_Similarity_Experiment,2020.2.10,Win32,60,6067542a4a25243f4d7d4fcf,17.85185268,17.212375,16.65099034,16.6761352,16.64611973,16.6761352,,,,,,,,,,,,,,,,,,,,PF,strong,3,,,,,,,,0,1.23543,,,,,,,,,,,,,,,,,,,,,,,,,,,,9,strong,-29.99998182,73.99999148,1,0,0,response7disk,9,118,12.66668612,4.666656077,1,0,0,rectangle,12.66668612,4.666656077,1,0,0,4,7,0.00241,12.66668612,4.666656077,1,0,0,0,117,117,17,1,0,,,,,,,,,,,,,,,,,,,,,
,,,,,,,,,,,,,,,,,,,,,,,,,,,,,,,,,,,,,,,,,,,5dbc433e82849c1eb0c400b5,606c0d40f58e2c56c765ad1d,2021-04-06_09h27.11.983,Colour_Similarity_Experiment,2020.2.10,Win32,60,6067542a4a25243f4d7d4fcf,17.85185268,17.212375,16.65099034,16.6761352,16.64611973,16.6761352,,,,,,,,,,,,,,,,,,,,PF,weak,3,,,,,,,,0,1.101005,,,,,,,,,,,,,,,,,,,,,,,,,,,,1,weak,-30.66660782,65.99999124,1,0,0,response7disk,1,119,27.33339391,-4.666677535,1,0,0,rectangle,-74.66660913,-50.66667891,1,0,0,4,2,2.16644,-2.666606983,-1.07288E-05,1,0,0,0,118,118,76,1,1,response5disk_3,rectangle,,,,,,,,,,,,,,,,,,,
,,,,,,,,,,,,,,,,,,,,,,,,,,,,,,,,,,,,,,,,,,,5dbc433e82849c1eb0c400b5,606c0d40f58e2c56c765ad1d,2021-04-06_09h27.11.983,Colour_Similarity_Experiment,2020.2.10,Win32,60,6067542a4a25243f4d7d4fcf,17.85185268,17.212375,16.65099034,16.6761352,16.64611973,16.6761352,,,,,,,,,,,,,,,,,,,,PF,strong,3,,,,,,,,3,1.215165,,,,,,,,,,,,,,,,,,,,,,,,,,,,5,strong,-23.33331496,-59.33334583,1,0,0,response5disk,1,120,24.66668648,-0.666677415,1,0,0,rectangle,24.66668648,-0.666677415,1,0,0,4,7,0.001935,24.66668648,-0.666677415,1,0,0,0,119,119,131,1,0,,,,,,,,,,,,,,,,,,,,,
,,,,,,,,,,,,,,,,,,,,,,,,,,,,,,,,,,,,,,,,,,,5dbc433e82849c1eb0c400b5,606c0d40f58e2c56c765ad1d,2021-04-06_09h27.11.983,Colour_Similarity_Experiment,2020.2.10,Win32,60,6067542a4a25243f4d7d4fcf,17.85185268,17.212375,16.65099034,16.6761352,16.64611973,16.6761352,,,,,,,,,,,,,,,,,,,,PF,strong,3,,,,,,,,5,0.30147,,,,,,,,,,,,,,,,,,,,,,,,,,,,2,strong,58.0000208,-56.66667908,1,0,0,response3disk,3,121,12.66668612,5.333322763,1,0,0,rectangle,36.66668683,23.33330295,1,0,0,6,6,1.08281,18.00001961,-3.333344162,1,0,0,0,120,120,104,1,1,response1disk_3,rectangle,,,,,,,,,,,,,,,,,,,
,,,,,,,,,,,,,,,,,,,,,,,,,,,,,,,,,,,,,,,,,,,5dbc433e82849c1eb0c400b5,606c0d40f58e2c56c765ad1d,2021-04-06_09h27.11.983,Colour_Similarity_Experiment,2020.2.10,Win32,60,6067542a4a25243f4d7d4fcf,17.85185268,17.212375,16.65099034,16.6761352,16.64611973,16.6761352,,,,,,,,,,,,,,,,,,,,PF,strong,3,,,,,,,,6,0.38298,,,,,,,,,,,,,,,,,,,,,,,,,,,,5,strong,46.66668713,37.9999904,1,0,0,response1disk,4,122,16.66668624,10.66665626,1,0,0,rectangle,16.66668624,10.66665626,1,0,0,6,0,0.0014,16.66668624,10.66665626,1,0,0,0,121,121,8,1,0,,,,,,,,,,,,,,,,,,,,,
,,,,,,,,,,,,,,,,,,,,,,,,,,,,,,,,,,,,,,,,,,,5dbc433e82849c1eb0c400b5,606c0d40f58e2c56c765ad1d,2021-04-06_09h27.11.983,Colour_Similarity_Experiment,2020.2.10,Win32,60,6067542a4a25243f4d7d4fcf,17.85185268,17.212375,16.65099034,16.6761352,16.64611973,16.6761352,,,,,,,,,,,,,,,,,,,,PF,weak,3,,,,,,,,4,0.3836,,,,,,,,,,,,,,,,,,,,,,,,,,,,8,weak,26.00001985,-26.66667819,1,0,0,response3disk,4,123,12.00001943,-6.666677594,1,0,0,rectangle,12.00001943,-6.666677594,1,0,0,6,1,0.001415,12.00001943,-6.666677594,1,0,0,0,122,122,78,1,0,,,,,,,,,,,,,,,,,,,,,
,,,,,,,,,,,,,,,,,,,,,,,,,,,,,,,,,,,,,,,,,,,5dbc433e82849c1eb0c400b5,606c0d40f58e2c56c765ad1d,2021-04-06_09h27.11.983,Colour_Similarity_Experiment,2020.2.10,Win32,60,6067542a4a25243f4d7d4fcf,17.85185268,17.212375,16.65099034,16.6761352,16.64611973,16.6761352,,,,,,,,,,,,,,,,,,,,PF,weak,3,,,,,,,,4,0.35126,,,,,,,,,,,,,,,,,,,,,,,,,,,,7,weak,20.00001967,-42.66667867,1,0,0,response3disk,6,124,8.666685998,4.666656077,1,0,0,rectangle,8.666685998,4.666656077,1,0,0,6,7,0.003255,8.666685998,4.666656077,1,0,0,0,123,123,29,1,0,,,,,,,,,,,,,,,,,,,,,
,,,,,,,,,,,,,,,,,,,,,,,,,,,,,,,,,,,,,,,,,,,5dbc433e82849c1eb0c400b5,606c0d40f58e2c56c765ad1d,2021-04-06_09h27.11.983,Colour_Similarity_Experiment,2020.2.10,Win32,60,6067542a4a25243f4d7d4fcf,17.85185268,17.212375,16.65099034,16.6761352,16.64611973,16.6761352,,,,,,,,,,,,,,,,,,,,PF,strong,3,,,,,,,,1,0.72017,,,,,,,,,,,,,,,,,,,,,,,,,,,,7,strong,-35.999982,19.33330284,1,0,0,response7disk,8,125,-4.666607042,-4.000010848,1,0,0,rectangle,19.33339367,-84.00001323,1,0,0,4,4,1.83369,2.000019133,7.333322823,1,0,0,0,124,124,97,1,1,response3disk_3,rectangle,,,,,,,,,,,,,,,,,,,
,,,,,,,,,,,,,,,,,,,,,,,,,,,,,,,,,,,,,,,,,,,5dbc433e82849c1eb0c400b5,606c0d40f58e2c56c765ad1d,2021-04-06_09h27.11.983,Colour_Similarity_Experiment,2020.2.10,Win32,60,6067542a4a25243f4d7d4fcf,17.85185268,17.212375,16.65099034,16.6761352,16.64611973,16.6761352,,,,,,,,,,,,,,,,,,,,PF,strong,3,,,,,,,,0,1.08232,,,,,,,,,,,,,,,,,,,,,,,,,,,,5,strong,-32.66660788,53.99999088,1,0,0,response7disk,5,126,-1.999980986,5.99998945,1,0,0,rectangle,-1.999980986,5.99998945,1,0,0,4,0,0.001845,-1.999980986,5.99998945,1,0,0,0,125,125,19,1,0,,,,,,,,,,,,,,,,,,,,,
,,,,,,,,,,,,,,,,,,,,,,,,,,,,,,,,,,,,,,,,,,,5dbc433e82849c1eb0c400b5,606c0d40f58e2c56c765ad1d,2021-04-06_09h27.11.983,Colour_Similarity_Experiment,2020.2.10,Win32,60,6067542a4a25243f4d7d4fcf,17.85185268,17.212375,16.65099034,16.6761352,16.64611973,16.6761352,,,,,,,,,,,,,,,,,,,,PF,strong,3,,,,,,,,1,0.833115,,,,,,,,,,,,,,,,,,,,,,,,,,,,9,strong,-70.66660901,16.66665643,1,0,0,response7disk,8,127,-19.33331484,7.99998951,1,0,0,rectangle,-19.33331484,7.99998951,1,0,0,4,5,0.00061,-19.33331484,7.99998951,1,0,0,0,126,126,6,1,0,,,,,,,,,,,,,,,,,,,,,
,,,,,,,,,,,,,,,,,,,,,,,,,,,,,,,,,,,,,,,,,,,5dbc433e82849c1eb0c400b5,606c0d40f58e2c56c765ad1d,2021-04-06_09h27.11.983,Colour_Similarity_Experiment,2020.2.10,Win32,60,6067542a4a25243f4d7d4fcf,17.85185268,17.212375,16.65099034,16.6761352,16.64611973,16.6761352,,,,,,,,,,,,,,,,,,,,PF,strong,3,,,,,,,,0,1.09986,,,,,,,,,,,,,,,,,,,,,,,,,,,,6,strong,-41.33331549,61.33330409,1,0,0,response7disk,6,128,-0.666606923,3.333322704,1,0,0,rectangle,-0.666606923,3.333322704,1,0,0,4,3,0.00102,-0.666606923,3.333322704,1,0,0,0,127,127,91,1,0,,,,,,,,,,,,,,,,,,,,,
,,,,,,,,,,,,,,,,,,,,,,,,,,,,,,,,,,,,,,,,,,,5dbc433e82849c1eb0c400b5,606c0d40f58e2c56c765ad1d,2021-04-06_09h27.11.983,Colour_Similarity_Experiment,2020.2.10,Win32,60,6067542a4a25243f4d7d4fcf,17.85185268,17.212375,16.65099034,16.6761352,16.64611973,16.6761352,,,,,,,,,,,,,,,,,,,,PF,strong,3,,,,,,,,1,0.851655,,,,,,,,,,,,,,,,,,,,,,,,,,,,3,strong,-46.66660829,22.66665661,1,0,0,response7disk,8,129,-4.666607042,-4.666677535,1,0,0,rectangle,-4.666607042,-4.666677535,1,0,0,4,3,0.00054,-4.666607042,-4.666677535,1,0,0,0,128,128,44,1,0,,,,,,,,,,,,,,,,,,,,,
,,,,,,,,,,,,,,,,,,,,,,,,,,,,,,,,,,,,,,,,,,,5dbc433e82849c1eb0c400b5,606c0d40f58e2c56c765ad1d,2021-04-06_09h27.11.983,Colour_Similarity_Experiment,2020.2.10,Win32,60,6067542a4a25243f4d7d4fcf,17.85185268,17.212375,16.65099034,16.6761352,16.64611973,16.6761352,,,,,,,,,,,,,,,,,,,,PF,weak,3,,,,,,,,3,0.51635,,,,,,,,,,,,,,,,,,,,,,,,,,,,5,weak,-27.99998176,-62.00001258,1,0,0,response5disk,1,130,12.66668612,8.666656196,1,0,0,rectangle,99.33335537,-50.66667891,1,0,0,5,5,1.499655,11.33339343,-2.666677475,1,0,0,0,129,129,159,1,1,response3disk_3,rectangle,,,,,,,,,,,,,,,,,,,
,,,,,,,,,,,,,,,,,,,,,,,,,,,,,,,,,,,,,,,,,,,5dbc433e82849c1eb0c400b5,606c0d40f58e2c56c765ad1d,2021-04-06_09h27.11.983,Colour_Similarity_Experiment,2020.2.10,Win32,60,6067542a4a25243f4d7d4fcf,17.85185268,17.212375,16.65099034,16.6761352,16.64611973,16.6761352,,,,,,,,,,,,,,,,,,,,PF,weak,3,,,,,,,,3,1.250505,,,,,,,,,,,,,,,,,,,,,,,,,,,,5,weak,-45.9999823,-53.33334565,1,0,0,response5disk,8,131,-1.999980986,-12.00001109,1,0,0,rectangle,-1.999980986,-12.00001109,1,0,0,5,3,0.002525,-1.999980986,-12.00001109,1,0,0,0,130,130,149,1,0,,,,,,,,,,,,,,,,,,,,,
,,,,,,,,,,,,,,,,,,,,,,,,,,,,,,,,,,,,,,,,,,,5dbc433e82849c1eb0c400b5,606c0d40f58e2c56c765ad1d,2021-04-06_09h27.11.983,Colour_Similarity_Experiment,2020.2.10,Win32,60,6067542a4a25243f4d7d4fcf,17.85185268,17.212375,16.65099034,16.6761352,16.64611973,16.6761352,,,,,,,,,,,,,,,,,,,,PF,strong,3,,,,,,,,4,0.633945,,,,,,,,,,,,,,,,,,,,,,,,,,,,6,strong,24.66668648,-62.00001258,1,0,0,response3disk,9,132,-6.666607102,-0.666677415,1,0,0,rectangle,32.00002003,50.66665745,1,0,0,7,7,2.02006,2.66668582,-5.333344221,1,0,0,0,131,131,160,1,1,response1disk_3,rectangle,,,,,,,,,,,,,,,,,,,
,,,,,,,,,,,,,,,,,,,,,,,,,,,,,,,,,,,,,,,,,,,5dbc433e82849c1eb0c400b5,606c0d40f58e2c56c765ad1d,2021-04-06_09h27.11.983,Colour_Similarity_Experiment,2020.2.10,Win32,60,6067542a4a25243f4d7d4fcf,17.85185268,17.212375,16.65099034,16.6761352,16.64611973,16.6761352,,,,,,,,,,,,,,,,,,,,PF,weak,3,,,,,,,,7,1.3168,,,,,,,,,,,,,,,,,,,,,,,,,,,,9,weak,21.33339373,45.33330361,1,0,0,response1disk,6,133,12.66668612,11.99998963,1,0,0,rectangle,12.66668612,11.99998963,1,0,0,7,6,0.002415,12.66668612,11.99998963,1,0,0,0,132,132,148,1,0,,,,,,,,,,,,,,,,,,,,,
,,,,,,,,,,,,,,,,,,,,,,,,,,,,,,,,,,,,,,,,,,,5dbc433e82849c1eb0c400b5,606c0d40f58e2c56c765ad1d,2021-04-06_09h27.11.983,Colour_Similarity_Experiment,2020.2.10,Win32,60,6067542a4a25243f4d7d4fcf,17.85185268,17.212375,16.65099034,16.6761352,16.64611973,16.6761352,,,,,,,,,,,,,,,,,,,,PF,weak,3,,,,,,,,2,1.199975,,,,,,,,,,,,,,,,,,,,,,,,,,,,1,weak,-30.66660782,-24.00001144,1,0,0,response5disk,9,134,-15.33331472,0.666655958,1,0,0,rectangle,-15.33331472,0.666655958,1,0,0,7,6,0.00027,-15.33331472,0.666655958,1,0,0,0,133,133,15,1,0,,,,,,,,,,,,,,,,,,,,,
,,,,,,,,,,,,,,,,,,,,,,,,,,,,,,,,,,,,,,,,,,,5dbc433e82849c1eb0c400b5,606c0d40f58e2c56c765ad1d,2021-04-06_09h27.11.983,Colour_Similarity_Experiment,2020.2.10,Win32,60,6067542a4a25243f4d7d4fcf,17.85185268,17.212375,16.65099034,16.6761352,16.64611973,16.6761352,,,,,,,,,,,,,,,,,,,,PF,weak,3,,,,,,,,3,0.902305,,,,,,,,,,,,,,,,,,,,,,,,,,,,2,weak,-23.99998164,-46.0000121,1,0,0,response5disk,5,135,8.000019312,-2.000010788,1,0,0,rectangle,8.000019312,-2.000010788,1,0,0,7,1,0.002015,8.000019312,-2.000010788,1,0,0,0,134,134,147,1,0,,,,,,,,,,,,,,,,,,,,,
,,,,,,,,,,,,,,,,,,,,,,,,,,,,,,,,,,,,,,,,,,,5dbc433e82849c1eb0c400b5,606c0d40f58e2c56c765ad1d,2021-04-06_09h27.11.983,Colour_Similarity_Experiment,2020.2.10,Win32,60,6067542a4a25243f4d7d4fcf,17.85185268,17.212375,16.65099034,16.6761352,16.64611973,16.6761352,,,,,,,,,,,,,,,,,,,,PF,weak,3,,,,,,,,1,1.79908,,,,,,,,,,,,,,,,,,,,,,,,,,,,3,weak,-55.33331591,33.33330325,1,0,0,response7disk,1,136,2.000019133,1.333322644,1,0,0,rectangle,2.000019133,1.333322644,1,0,0,7,7,0.002175,2.000019133,1.333322644,1,0,0,0,135,135,96,1,0,,,,,,,,,,,,,,,,,,,,,
,,,,,,,,,,,,,,,,,,,,,,,,,,,,,,,,,,,,,,,,,,,5dbc433e82849c1eb0c400b5,606c0d40f58e2c56c765ad1d,2021-04-06_09h27.11.983,Colour_Similarity_Experiment,2020.2.10,Win32,60,6067542a4a25243f4d7d4fcf,17.85185268,17.212375,16.65099034,16.6761352,16.64611973,16.6761352,,,,,,,,,,,,,,,,,,,,PF,strong,3,,,,,,,,2,2.13139,,,,,,,,,,,,,,,,,,,,,,,,,,,,4,strong,-49.33331573,-21.3333447,1,0,0,response5disk,5,137,12.66668612,10.66665626,1,0,0,rectangle,12.66668612,10.66665626,1,0,0,7,7,0.000545,12.66668612,10.66665626,1,0,0,0,136,136,116,1,0,,,,,,,,,,,,,,,,,,,,,
,,,,,,,,,,,,,,,,,,,,,,,,,,,,,,,,,,,,,,,,,,,5dbc433e82849c1eb0c400b5,606c0d40f58e2c56c765ad1d,2021-04-06_09h27.11.983,Colour_Similarity_Experiment,2020.2.10,Win32,60,6067542a4a25243f4d7d4fcf,17.85185268,17.212375,16.65099034,16.6761352,16.64611973,16.6761352,,,,,,,,,,,,,,,,,,,,PF,weak,3,,,,,,,,2,1.119165,,,,,,,,,,,,,,,,,,,,,,,,,,,,9,weak,-71.99998307,-28.66667825,1,0,0,response5disk,2,138,2.66668582,3.99998939,1,0,0,rectangle,2.66668582,3.99998939,1,0,0,7,0,0.00252,2.66668582,3.99998939,1,0,0,0,137,137,157,1,0,,,,,,,,,,,,,,,,,,,,,
,,,,,,,,,,,,,,,,,,,,,,,,,,,,,,,,,,,,,,,,,,,5dbc433e82849c1eb0c400b5,606c0d40f58e2c56c765ad1d,2021-04-06_09h27.11.983,Colour_Similarity_Experiment,2020.2.10,Win32,60,6067542a4a25243f4d7d4fcf,17.85185268,17.212375,16.65099034,16.6761352,16.64611973,16.6761352,,,,,,,,,,,,,,,,,,,,PF,strong,3,,,,,,,,4,1.482155,,,,,,,,,,,,,,,,,,,,,,,,,,,,8,strong,38.00002021,-95.3333469,1,0,0,response3disk,4,139,-4.666607042,-2.666677475,1,0,0,rectangle,-4.666607042,-2.666677475,1,0,0,7,5,0.001405,-4.666607042,-2.666677475,1,0,0,0,138,138,88,1,0,,,,,,,,,,,,,,,,,,,,,
,,,,,,,,,,,,,,,,,,,,,,,,,,,,,,,,,,,,,,,,,,,5dbc433e82849c1eb0c400b5,606c0d40f58e2c56c765ad1d,2021-04-06_09h27.11.983,Colour_Similarity_Experiment,2020.2.10,Win32,60,6067542a4a25243f4d7d4fcf,17.85185268,17.212375,16.65099034,16.6761352,16.64611973,16.6761352,,,,,,,,,,,,,,,,,,,,PF,weak,3,,,,,,,,5,0.354805,,,,,,,,,,,,,,,,,,,,,,,,,,,,5,weak,60.66668755,-42.66667867,1,0,0,response3disk,3,140,20.66668636,13.333323,1,0,0,rectangle,20.66668636,13.333323,1,0,0,7,7,0.00175,20.66668636,13.333323,1,0,0,0,139,139,109,1,0,,,,,,,,,,,,,,,,,,,,,
,,,,,,,,,,,,,,,,,,,,,,,,,,,,,,,,,,,,,,,,,,,5dbc433e82849c1eb0c400b5,606c0d40f58e2c56c765ad1d,2021-04-06_09h27.11.983,Colour_Similarity_Experiment,2020.2.10,Win32,60,6067542a4a25243f4d7d4fcf,17.85185268,17.212375,16.65099034,16.6761352,16.64611973,16.6761352,,,,,,,,,,,,,,,,,,,,PF,weak,3,,,,,,,,7,0.30241,,,,,,,,,,,,,,,,,,,,,,,,,,,,2,weak,56.00002074,59.99999106,1,0,0,response1disk,3,141,-2.666606983,-6.000010908,1,0,0,rectangle,-2.666606983,-6.000010908,1,0,0,7,4,0.001495,-2.666606983,-6.000010908,1,0,0,0,140,140,69,1,0,,,,,,,,,,,,,,,,,,,,,
,,,,,,,,,,,,,,,,,,,,,,,,,,,,,,,,,,,,,,,,,,,5dbc433e82849c1eb0c400b5,606c0d40f58e2c56c765ad1d,2021-04-06_09h27.11.983,Colour_Similarity_Experiment,2020.2.10,Win32,60,6067542a4a25243f4d7d4fcf,17.85185268,17.212375,16.65099034,16.6761352,16.64611973,16.6761352,,,,,,,,,,,,,,,,,,,,PF,strong,3,,,,,,,,0,1.465265,,,,,,,,,,,,,,,,,,,,,,,,,,,,6,strong,-31.33331519,50.66665745,1,0,0,response7disk,8,142,-6.666607102,5.333322763,1,0,0,rectangle,-6.666607102,5.333322763,1,0,0,7,6,0.004045,-6.666607102,5.333322763,1,0,0,0,141,141,133,1,0,,,,,,,,,,,,,,,,,,,,,
,,,,,,,,,,,,,,,,,,,,,,,,,,,,,,,,,,,,,,,,,,,5dbc433e82849c1eb0c400b5,606c0d40f58e2c56c765ad1d,2021-04-06_09h27.11.983,Colour_Similarity_Experiment,2020.2.10,Win32,60,6067542a4a25243f4d7d4fcf,17.85185268,17.212375,16.65099034,16.6761352,16.64611973,16.6761352,,,,,,,,,,,,,,,,,,,,PF,strong,3,,,,,,,,3,0.455315,,,,,,,,,,,,,,,,,,,,,,,,,,,,4,strong,-34.66660794,-42.00001198,1,0,0,response5disk,2,143,1.9735E-05,3.99998939,1,0,0,rectangle,1.9735E-05,3.99998939,1,0,0,7,1,0.00252,1.9735E-05,3.99998939,1,0,0,0,142,142,13,1,0,,,,,,,,,,,,,,,,,,,,,
,,,,,,,,,,,,,,,,,,,,,,,,,,,,,,,,,,,,,,,,,,,5dbc433e82849c1eb0c400b5,606c0d40f58e2c56c765ad1d,2021-04-06_09h27.11.983,Colour_Similarity_Experiment,2020.2.10,Win32,60,6067542a4a25243f4d7d4fcf,17.85185268,17.212375,16.65099034,16.6761352,16.64611973,16.6761352,,,,,,,,,,,,,,,,,,,,PF,strong,3,,,,,,,,4,0.36694,,,,,,,,,,,,,,,,,,,,,,,,,,,,2,strong,32.00002003,-54.66667902,1,0,0,response3disk,6,144,6.000019252,8.666656196,1,0,0,rectangle,6.000019252,8.666656196,1,0,0,7,1,0.000285,6.000019252,8.666656196,1,0,0,0,143,143,40,1,0,,,,,,,,,,,,,,,,,,,,,
,,,,,,,,,,,,,,,,,,,,,,,,,,,,,,,,,,,,,,,,,,,5dbc433e82849c1eb0c400b5,606c0d40f58e2c56c765ad1d,2021-04-06_09h27.11.983,Colour_Similarity_Experiment,2020.2.10,Win32,60,6067542a4a25243f4d7d4fcf,17.85185268,17.212375,16.65099034,16.6761352,16.64611973,16.6761352,,,,,,,,,,,,,,,,,,,,PF,weak,3,,,,,,,,4,0.48605,,,,,,,,,,,,,,,,,,,,,,,,,,,,2,weak,28.00001991,-44.00001204,1,0,0,response3disk,9,145,4.000019193,-3.333344162,1,0,0,rectangle,4.000019193,-3.333344162,1,0,0,7,1,0.000485,4.000019193,-3.333344162,1,0,0,0,144,144,39,1,0,,,,,,,,,,,,,,,,,,,,,
,,,,,,,,,,,,,,,,,,,,,,,,,,,,,,,,,,,,,,,,,,,5dbc433e82849c1eb0c400b5,606c0d40f58e2c56c765ad1d,2021-04-06_09h27.11.983,Colour_Similarity_Experiment,2020.2.10,Win32,60,6067542a4a25243f4d7d4fcf,17.85185268,17.212375,16.65099034,16.6761352,16.64611973,16.6761352,,,,,,,,,,,,,,,,,,,,PF,weak,3,,,,,,,,4,1.20501,,,,,,,,,,,,,,,,,,,,,,,,,,,,1,weak,20.66668636,-79.33334643,1,0,0,response3disk,2,146,1.9735E-05,-5.333344221,1,0,0,rectangle,1.9735E-05,-5.333344221,1,0,0,7,3,0.002105,1.9735E-05,-5.333344221,1,0,0,0,145,145,24,1,0,,,,,,,,,,,,,,,,,,,,,
,,,,,,,,,,,,,,,,,,,,,,,,,,,,,,,,,,,,,,,,,,,5dbc433e82849c1eb0c400b5,606c0d40f58e2c56c765ad1d,2021-04-06_09h27.11.983,Colour_Similarity_Experiment,2020.2.10,Win32,60,6067542a4a25243f4d7d4fcf,17.85185268,17.212375,16.65099034,16.6761352,16.64611973,16.6761352,,,,,,,,,,,,,,,,,,,,PF,weak,3,,,,,,,,0,1.18566,,,,,,,,,,,,,,,,,,,,,,,,,,,,6,weak,-18.66660746,69.99999136,1,0,0,response7disk,6,147,-4.666607042,-1.07288E-05,1,0,0,rectangle,-4.666607042,-1.07288E-05,1,0,0,7,7,0.002545,-4.666607042,-1.07288E-05,1,0,0,0,146,146,0,1,0,,,,,,,,,,,,,,,,,,,,,
,,,,,,,,,,,,,,,,,,,,,,,,,,,,,,,,,,,,,,,,,,,5dbc433e82849c1eb0c400b5,606c0d40f58e2c56c765ad1d,2021-04-06_09h27.11.983,Colour_Similarity_Experiment,2020.2.10,Win32,60,6067542a4a25243f4d7d4fcf,17.85185268,17.212375,16.65099034,16.6761352,16.64611973,16.6761352,,,,,,,,,,,,,,,,,,,,PF,strong,3,,,,,,,,6,0.40181,,,,,,,,,,,,,,,,,,,,,,,,,,,,1,strong,62.66668761,15.33332306,1,0,0,response1disk,2,148,27.33339391,-14.00001115,1,0,0,rectangle,27.33339391,-14.00001115,1,0,0,5,3,0.001325,27.33339391,-14.00001115,1,0,0,0,147,147,2,1,0,,,,,,,,,,,,,,,,,,,,,
,,,,,,,,,,,,,,,,,,,,,,,,,,,,,,,,,,,,,,,,,,,5dbc433e82849c1eb0c400b5,606c0d40f58e2c56c765ad1d,2021-04-06_09h27.11.983,Colour_Similarity_Experiment,2020.2.10,Win32,60,6067542a4a25243f4d7d4fcf,17.85185268,17.212375,16.65099034,16.6761352,16.64611973,16.6761352,,,,,,,,,,,,,,,,,,,,PF,weak,3,,,,,,,,7,0.320485,,,,,,,,,,,,,,,,,,,,,,,,,,,,7,weak,43.3333537,61.33330409,1,0,0,response1disk,1,149,19.33339367,-0.666677415,1,0,0,rectangle,19.33339367,-0.666677415,1,0,0,5,1,0.00224,19.33339367,-0.666677415,1,0,0,0,148,148,53,1,0,,,,,,,,,,,,,,,,,,,,,
,,,,,,,,,,,,,,,,,,,,,,,,,,,,,,,,,,,,,,,,,,,5dbc433e82849c1eb0c400b5,606c0d40f58e2c56c765ad1d,2021-04-06_09h27.11.983,Colour_Similarity_Experiment,2020.2.10,Win32,60,6067542a4a25243f4d7d4fcf,17.85185268,17.212375,16.65099034,16.6761352,16.64611973,16.6761352,,,,,,,,,,,,,,,,,,,,PF,strong,3,,,,,,,,6,0.349555,,,,,,,,,,,,,,,,,,,,,,,,,,,,8,strong,90.66668844,16.66665643,1,0,0,response1disk,6,150,-1.999980986,5.333322763,1,0,0,rectangle,-1.999980986,5.333322763,1,0,0,5,1,0.000355,-1.999980986,5.333322763,1,0,0,0,149,149,37,1,0,,,,,,,,,,,,,,,,,,,,,
,,,,,,,,,,,,,,,,,,,,,,,,,,,,,,,,,,,,,,,,,,,5dbc433e82849c1eb0c400b5,606c0d40f58e2c56c765ad1d,2021-04-06_09h27.11.983,Colour_Similarity_Experiment,2020.2.10,Win32,60,6067542a4a25243f4d7d4fcf,17.85185268,17.212375,16.65099034,16.6761352,16.64611973,16.6761352,,,,,,,,,,,,,,,,,,,,PF,weak,3,,,,,,,,5,0.98682,,,,,,,,,,,,,,,,,,,,,,,,,,,,7,weak,72.66668791,-50.66667891,1,0,0,response3disk,8,151,-9.999981225,-0.666677415,1,0,0,rectangle,-9.999981225,-0.666677415,1,0,0,5,0,0.00211,-9.999981225,-0.666677415,1,0,0,0,150,150,140,1,0,,,,,,,,,,,,,,,,,,,,,
,,,,,,,,,,,,,,,,,,,,,,,,,,,,,,,,,,,,,,,,,,,5dbc433e82849c1eb0c400b5,606c0d40f58e2c56c765ad1d,2021-04-06_09h27.11.983,Colour_Similarity_Experiment,2020.2.10,Win32,60,6067542a4a25243f4d7d4fcf,17.85185268,17.212375,16.65099034,16.6761352,16.64611973,16.6761352,,,,,,,,,,,,,,,,,,,,PF,strong,3,,,,,,,,5,0.566225,,,,,,,,,,,,,,,,,,,,,,,,,,,,8,strong,26.66668653,-26.66667819,1,0,0,response3disk,3,152,7.333393315,0.666655958,1,0,0,rectangle,7.333393315,0.666655958,1,0,0,5,2,0.001895,7.333393315,0.666655958,1,0,0,0,151,151,154,1,0,,,,,,,,,,,,,,,,,,,,,
,,,,,,,,,,,,,,,,,,,,,,,,,,,,,,,,,,,,,,,,,,,5dbc433e82849c1eb0c400b5,606c0d40f58e2c56c765ad1d,2021-04-06_09h27.11.983,Colour_Similarity_Experiment,2020.2.10,Win32,60,6067542a4a25243f4d7d4fcf,17.85185268,17.212375,16.65099034,16.6761352,16.64611973,16.6761352,,,,,,,,,,,,,,,,,,,,PF,strong,3,,,,,,,,4,0.84992,,,,,,,,,,,,,,,,,,,,,,,,,,,,8,strong,42.00002033,-47.33334547,1,0,0,response3disk,7,153,8.666685998,10.66665626,1,0,0,rectangle,8.666685998,10.66665626,1,0,0,5,6,0.001565,8.666685998,10.66665626,1,0,0,0,152,152,86,1,0,,,,,,,,,,,,,,,,,,,,,
,,,,,,,,,,,,,,,,,,,,,,,,,,,,,,,,,,,,,,,,,,,5dbc433e82849c1eb0c400b5,606c0d40f58e2c56c765ad1d,2021-04-06_09h27.11.983,Colour_Similarity_Experiment,2020.2.10,Win32,60,6067542a4a25243f4d7d4fcf,17.85185268,17.212375,16.65099034,16.6761352,16.64611973,16.6761352,,,,,,,,,,,,,,,,,,,,PF,strong,3,,,,,,,,4,0.65509,,,,,,,,,,,,,,,,,,,,,,,,,,,,4,strong,36.66668683,-60.6666792,1,0,0,response3disk,9,154,11.33339343,-2.000010788,1,0,0,rectangle,11.33339343,-2.000010788,1,0,0,5,3,0.001195,11.33339343,-2.000010788,1,0,0,0,153,153,90,1,0,,,,,,,,,,,,,,,,,,,,,
,,,,,,,,,,,,,,,,,,,,,,,,,,,,,,,,,,,,,,,,,,,5dbc433e82849c1eb0c400b5,606c0d40f58e2c56c765ad1d,2021-04-06_09h27.11.983,Colour_Similarity_Experiment,2020.2.10,Win32,60,6067542a4a25243f4d7d4fcf,17.85185268,17.212375,16.65099034,16.6761352,16.64611973,16.6761352,,,,,,,,,,,,,,,,,,,,PF,strong,3,,,,,,,,6,0.400075,,,,,,,,,,,,,,,,,,,,,,,,,,,,1,strong,68.66668779,33.99999028,1,0,0,response1disk,3,155,30.00001997,6.666656137,1,0,0,rectangle,30.00001997,6.666656137,1,0,0,5,4,0.0009,30.00001997,6.666656137,1,0,0,0,154,154,99,1,0,,,,,,,,,,,,,,,,,,,,,
,,,,,,,,,,,,,,,,,,,,,,,,,,,,,,,,,,,,,,,,,,,5dbc433e82849c1eb0c400b5,606c0d40f58e2c56c765ad1d,2021-04-06_09h27.11.983,Colour_Similarity_Experiment,2020.2.10,Win32,60,6067542a4a25243f4d7d4fcf,17.85185268,17.212375,16.65099034,16.6761352,16.64611973,16.6761352,,,,,,,,,,,,,,,,,,,,PF,strong,3,,,,,,,,6,0.574665,,,,,,,,,,,,,,,,,,,,,,,,,,,,7,strong,44.66668707,22.66665661,1,0,0,response1disk,6,156,14.66668618,7.99998951,1,0,0,rectangle,14.66668618,7.99998951,1,0,0,5,1,0.0022,14.66668618,7.99998951,1,0,0,0,155,155,31,1,0,,,,,,,,,,,,,,,,,,,,,
,,,,,,,,,,,,,,,,,,,,,,,,,,,,,,,,,,,,,,,,,,,5dbc433e82849c1eb0c400b5,606c0d40f58e2c56c765ad1d,2021-04-06_09h27.11.983,Colour_Similarity_Experiment,2020.2.10,Win32,60,6067542a4a25243f4d7d4fcf,17.85185268,17.212375,16.65099034,16.6761352,16.64611973,16.6761352,,,,,,,,,,,,,,,,,,,,PF,strong,3,,,,,,,,6,0.659555,,,,,,,,,,,,,,,,,,,,,,,,,,,,1,strong,80.66668814,35.99999034,1,0,0,response1disk,6,157,-3.333314359,3.333322704,1,0,0,rectangle,-3.333314359,3.333322704,1,0,0,5,6,0.004575,-3.333314359,3.333322704,1,0,0,0,156,156,58,1,0,,,,,,,,,,,,,,,,,,,,,
,,,,,,,,,,,,,,,,,,,,,,,,,,,,,,,,,,,,,,,,,,,5dbc433e82849c1eb0c400b5,606c0d40f58e2c56c765ad1d,2021-04-06_09h27.11.983,Colour_Similarity_Experiment,2020.2.10,Win32,60,6067542a4a25243f4d7d4fcf,17.85185268,17.212375,16.65099034,16.6761352,16.64611973,16.6761352,,,,,,,,,,,,,,,,,,,,PF,strong,3,,,,,,,,6,0.387065,,,,,,,,,,,,,,,,,,,,,,,,,,,,1,strong,52.00002062,27.33330307,1,0,0,response1disk,4,158,0.66668576,7.99998951,1,0,0,rectangle,0.66668576,7.99998951,1,0,0,5,2,0.00109,0.66668576,7.99998951,1,0,0,0,157,157,135,1,0,,,,,,,,,,,,,,,,,,,,,
,,,,,,,,,,,,,,,,,,,,,,,,,,,,,,,,,,,,,,,,,,,5dbc433e82849c1eb0c400b5,606c0d40f58e2c56c765ad1d,2021-04-06_09h27.11.983,Colour_Similarity_Experiment,2020.2.10,Win32,60,6067542a4a25243f4d7d4fcf,17.85185268,17.212375,16.65099034,16.6761352,16.64611973,16.6761352,,,,,,,,,,,,,,,,,,,,PF,strong,3,,,,,,,,5,0.323215,,,,,,,,,,,,,,,,,,,,,,,,,,,,1,strong,70.00002116,-39.33334523,1,0,0,response3disk,1,159,6.666685939,-4.666677535,1,0,0,rectangle,6.666685939,-4.666677535,1,0,0,5,5,0.00169,6.666685939,-4.666677535,1,0,0,0,158,158,151,1,0,,,,,,,,,,,,,,,,,,,,,
,,,,,,,,,,,,,,,,,,,,,,,,,,,,,,,,,,,,,,,,,,,5dbc433e82849c1eb0c400b5,606c0d40f58e2c56c765ad1d,2021-04-06_09h27.11.983,Colour_Similarity_Experiment,2020.2.10,Win32,60,6067542a4a25243f4d7d4fcf,17.85185268,17.212375,16.65099034,16.6761352,16.64611973,16.6761352,,,,,,,,,,,,,,,,,,,,PF,weak,3,,,,,,,,3,0.08746,,,,,,,,,,,,,,,,,,,,,,,,,,,,6,weak,-42.66660817,-44.66667873,1,0,0,response5disk,7,160,11.33339343,9.333322883,1,0,0,rectangle,11.33339343,9.333322883,1,0,0,5,7,0.001375,11.33339343,9.333322883,1,0,0,0,159,159,50,1,0,,,,,,,,,,,,,,,,,,,,,
,,,,,,,,,,,,,,,,,,,,,,,,,,,,,,,,,,,,,,,,,,,5dbc433e82849c1eb0c400b5,606c0d40f58e2c56c765ad1d,2021-04-06_09h27.11.983,Colour_Similarity_Experiment,2020.2.10,Win32,60,6067542a4a25243f4d7d4fcf,17.85185268,17.212375,16.65099034,16.6761352,16.64611973,16.6761352,,,,,,,,,,,,,,,,,,,,PF,strong,3,,,,,,,,2,0.35574,,,,,,,,,,,,,,,,,,,,,,,,,,,,2,strong,-44.66660823,-28.00001156,1,0,0,response5disk,4,161,0.66668576,0.666655958,1,0,0,rectangle,0.66668576,0.666655958,1,0,0,5,1,0.001485,0.66668576,0.666655958,1,0,0,0,160,160,145,1,0,,,,,,,,,,,,,,,,,,,,,
,,,,,,,,,,,,,,,,,,,,,,,,,,,,,,,,,,,,,,,,,,,5dbc433e82849c1eb0c400b5,606c0d40f58e2c56c765ad1d,2021-04-06_09h27.11.983,Colour_Similarity_Experiment,2020.2.10,Win32,60,6067542a4a25243f4d7d4fcf,17.85185268,17.212375,16.65099034,16.6761352,16.64611973,16.6761352,,,,,,,,,,,,,,,,,,,,PF,weak,3,,,,,,,,4,0.814015,,,,,,,,,,,,,,,,,,,,,,,,,,,,7,weak,19.33339367,-30.66667831,1,0,0,response3disk,3,162,-19.33331484,13.333323,1,0,0,rectangle,-19.33331484,13.333323,1,0,0,5,6,0.001705,-19.33331484,13.333323,1,0,0,0,161,161,81,1,0,,,,,,,,,,,,,,,,,,,,,
,,,,,,,,,,,,,,,,,,,,,,,,,,,,,,,,,,,,,,,,,,,5dbc433e82849c1eb0c400b5,606c0d40f58e2c56c765ad1d,2021-04-06_09h27.11.983,Colour_Similarity_Experiment,2020.2.10,Win32,60,6067542a4a25243f4d7d4fcf,17.85185268,17.212375,16.65099034,16.6761352,16.64611973,16.6761352,,,,,,,,,,,,,,,,,,,,,,,,,,,,,,,,,,,,,,,,,,,,,,,,,,,,,,,,,,,,,,,,,,,,,,,,,,,,,,,,,,,,,,,,,,,,,,,,0,0,0,0,1,,,,,,,,,,,,,,
,,,,,,,,,,,,,,,,,,,,,,,,,,,,,,,,,,,,,,,,,,,5dbc433e82849c1eb0c400b5,606c0d40f58e2c56c765ad1d,2021-04-06_09h27.11.983,Colour_Similarity_Experiment,2020.2.10,Win32,60,6067542a4a25243f4d7d4fcf,17.85185268,17.212375,16.65099034,16.6761352,16.64611973,16.6761352,,,,,,,,,,,,,,,,,,,,PF,strong,3,,,,,,,,4,1.201315,,,,,,,,,,,,,,,,,,,,,,,,,,,,4,strong,14.00001949,-60.6666792,1,0,0,response3disk,1,163,-3.333314359,-4.666677535,1,0,0,rectangle,-3.333314359,-4.666677535,1,0,0,5,3,0.00136,-3.333314359,-4.666677535,1,0,0,0,0,0,102,1,0,,,,,,,,,,,,,,,,,,,,,
,,,,,,,,,,,,,,,,,,,,,,,,,,,,,,,,,,,,,,,,,,,5dbc433e82849c1eb0c400b5,606c0d40f58e2c56c765ad1d,2021-04-06_09h27.11.983,Colour_Similarity_Experiment,2020.2.10,Win32,60,6067542a4a25243f4d7d4fcf,17.85185268,17.212375,16.65099034,16.6761352,16.64611973,16.6761352,,,,,,,,,,,,,,,,,,,,PF,weak,3,,,,,,,,4,0.669345,,,,,,,,,,,,,,,,,,,,,,,,,,,,1,weak,26.00001985,-57.33334577,1,0,0,response3disk,4,164,5.333393256,-4.000010848,1,0,0,rectangle,5.333393256,-4.000010848,1,0,0,5,7,0.002365,5.333393256,-4.000010848,1,0,0,0,1,1,139,1,0,,,,,,,,,,,,,,,,,,,,,
,,,,,,,,,,,,,,,,,,,,,,,,,,,,,,,,,,,,,,,,,,,5dbc433e82849c1eb0c400b5,606c0d40f58e2c56c765ad1d,2021-04-06_09h27.11.983,Colour_Similarity_Experiment,2020.2.10,Win32,60,6067542a4a25243f4d7d4fcf,17.85185268,17.212375,16.65099034,16.6761352,16.64611973,16.6761352,,,,,,,,,,,,,,,,,,,,PF,strong,3,,,,,,,,3,1.18605,,,,,,,,,,,,,,,,,,,,,,,,,,,,5,strong,-41.99998218,-60.6666792,1,0,0,response5disk,6,165,14.66668618,-12.00001109,1,0,0,rectangle,14.66668618,-12.00001109,1,0,0,5,7,0.00033,14.66668618,-12.00001109,1,0,0,0,2,2,12,1,0,,,,,,,,,,,,,,,,,,,,,
,,,,,,,,,,,,,,,,,,,,,,,,,,,,,,,,,,,,,,,,,,,5dbc433e82849c1eb0c400b5,606c0d40f58e2c56c765ad1d,2021-04-06_09h27.11.983,Colour_Similarity_Experiment,2020.2.10,Win32,60,6067542a4a25243f4d7d4fcf,17.85185268,17.212375,16.65099034,16.6761352,16.64611973,16.6761352,,,,,,,,,,,,,,,,,,,,PF,weak,3,,,,,,,,3,0.621415,,,,,,,,,,,,,,,,,,,,,,,,,,,,1,weak,-21.99998158,-32.00001168,1,0,0,response5disk,7,166,1.333393137,-1.07288E-05,1,0,0,rectangle,1.333393137,-1.07288E-05,1,0,0,5,7,0.00037,1.333393137,-1.07288E-05,1,0,0,0,3,3,150,1,0,,,,,,,,,,,,,,,,,,,,,
,,,,,,,,,,,,,,,,,,,,,,,,,,,,,,,,,,,,,,,,,,,5dbc433e82849c1eb0c400b5,606c0d40f58e2c56c765ad1d,2021-04-06_09h27.11.983,Colour_Similarity_Experiment,2020.2.10,Win32,60,6067542a4a25243f4d7d4fcf,17.85185268,17.212375,16.65099034,16.6761352,16.64611973,16.6761352,,,,,,,,,,,,,,,,,,,,PF,weak,3,,,,,,,,3,0.31526,,,,,,,,,,,,,,,,,,,,,,,,,,,,8,weak,-33.33331525,-62.00001258,1,0,0,response5disk,9,167,8.000019312,11.99998963,1,0,0,rectangle,8.000019312,11.99998963,1,0,0,5,6,0.00119,8.000019312,11.99998963,1,0,0,0,4,4,42,1,0,,,,,,,,,,,,,,,,,,,,,
