key_resp.keys,key_resp.rt,key_resp_16.keys,key_resp_16.rt,key_resp_2.keys,key_resp_2.rt,X Scale,ratio_pxpermm,screen_size_x,screen_size_y,testsize,key_resp_3.keys,key_resp_4.keys,key_resp_4.rt,line_size,key_resp_5.keys,key_resp_5.rt,key_resp_6.keys,key_resp_6.rt,key_resp_8.keys,key_resp_8.rt,key_resp_7.keys,key_resp_7.rt,key_resp_12.keys,key_resp_12.rt,key_resp_11.keys,key_resp_11.rt,key_resp_18.keys,key_resp_18.rt,key_resp_21.keys,key_resp_21.rt,key_resp_13.keys,key_resp_13.rt,key_resp_19.keys,key_resp_19.rt,ballposx,viewer_distance,trials.thisRepN,trials.thisTrialN,trials.thisN,trials.thisIndex,trials.ran,participant,session,date,expName,psychopyVersion,OS,frameRate,study_id,realFrameRate1,realFrameRate2,realFrameRate3,realFrameRate4,realFrameRate5,realFrameRate,viewerdistancecm,DVA_to_distance,radius_F,radius_P,r_F,R_P,key_resp_20.keys,key_resp_20.rt,key_resp_14.keys,key_resp_14.rt,key_resp_15.keys,key_resp_15.rt,key_resp_17.keys,key_resp_17.rt,key_resp_9.keys,key_resp_9.rt,key_resp_10.keys,key_resp_10.rt,Colour_1,Ecc,maskCon,mask_frames,mouse_5.x,mouse_5.y,mouse_5.leftButton,mouse_5.midButton,mouse_5.rightButton,mouse_5.clicked_name,Colour_2,similarity,response_time,mouse_10.x,mouse_10.y,mouse_10.leftButton,mouse_10.midButton,mouse_10.rightButton,mouse_10.clicked_name,mouse_7.x,mouse_7.y,mouse_7.leftButton,mouse_7.midButton,mouse_7.rightButton,catchnumberprac,mouse_6.x,mouse_6.y,mouse_6.leftButton,mouse_6.midButton,mouse_6.rightButton,duringprac.thisRepN,duringprac.thisTrialN,duringprac.thisN,duringprac.thisIndex,duringprac.ran,mouse_7.clicked_name,catchprac,mouse_6.clicked_name,key_resp_22.keys,key_resp_22.rt,Colour1,maskCon1,mouse.x,mouse.y,mouse.leftButton,mouse.midButton,mouse.rightButton,mouse.clicked_name,Colour2,trialnumber,mouse_2.x,mouse_2.y,mouse_2.leftButton,mouse_2.midButton,mouse_2.rightButton,mouse_2.clicked_name,mouse_3.x,mouse_3.y,mouse_3.leftButton,mouse_3.midButton,mouse_3.rightButton,catchresponse,catchnumber,response_time_catch,mouse_11.x,mouse_11.y,mouse_11.leftButton,mouse_11.midButton,mouse_11.rightButton,trials_2.thisRepN,trials_2.thisTrialN,trials_2.thisN,trials_2.thisIndex,trials_2.ran,Catch,mouse_3.clicked_name,mouse_11.clicked_name,trials_3.thisRepN,trials_3.thisTrialN,trials_3.thisN,trials_3.thisIndex,trials_3.ran,answer1,rt1,answer2,rt2,answer3,rt3,answer4,rt4,answer5,rt5,answer6,rt6,answer7,rt7
space,2.968275,space,54.574335,space,6.52552,45,4.5,341.3333333,192,1536,,space,19.787565,90,space,11.970805,space,6.08038,space,1.94887,space,4.266075,space,10.441845,space,5.86092,space,5.60634,space,10.937855,space,29.302195,return,4.50288,-50.688,615.620427,0,0,0,0,1,5de6d5557544ea070b13d83a,606c0df0803e3e9a766e75ac,2021-04-06_09h30.03.646,Colour_Similarity_Experiment,2020.2.10,Win32,60,6067542a4a25243f4d7d4fcf,16.88955932,16.73737286,16.68500977,16.65834034,16.64870987,16.68500977,,,,,,,,,,,,,,,,,,,,,,,,,,,,,,,,,,,,,,,,,,,,,,,,,,,,,,,,,,,,,,,,,,,,,,,,,,,,,,,,,,,,,,,,,,,,,,,,,,,,,,,,,,,,,,,,,,
,,,,,,,,,,,,,,,,,,,,,,,,,,,,,,,,,return,3.85722,39.168,532.4476904,1,0,1,0,1,5de6d5557544ea070b13d83a,606c0df0803e3e9a766e75ac,2021-04-06_09h30.03.646,Colour_Similarity_Experiment,2020.2.10,Win32,60,6067542a4a25243f4d7d4fcf,16.88955932,16.73737286,16.68500977,16.65834034,16.64870987,16.68500977,,,,,,,,,,,,,,,,,,,,,,,,,,,,,,,,,,,,,,,,,,,,,,,,,,,,,,,,,,,,,,,,,,,,,,,,,,,,,,,,,,,,,,,,,,,,,,,,,,,,,,,,,,,,,,,,,,
,,,,,,,,,,,,,,,,,,,,,,,,,,,,,,,,,return,3.449655,96.768,479.1318335,2,0,2,0,1,5de6d5557544ea070b13d83a,606c0df0803e3e9a766e75ac,2021-04-06_09h30.03.646,Colour_Similarity_Experiment,2020.2.10,Win32,60,6067542a4a25243f4d7d4fcf,16.88955932,16.73737286,16.68500977,16.65834034,16.64870987,16.68500977,,,,,,,,,,,,,,,,,,,,,,,,,,,,,,,,,,,,,,,,,,,,,,,,,,,,,,,,,,,,,,,,,,,,,,,,,,,,,,,,,,,,,,,,,,,,,,,,,,,,,,,,,,,,,,,,,,
,,,,,,,,,,,,,,,,,,,,,,,,,,,,,,,,,return,4.195565,-6.912,575.1003758,3,0,3,0,1,5de6d5557544ea070b13d83a,606c0df0803e3e9a766e75ac,2021-04-06_09h30.03.646,Colour_Similarity_Experiment,2020.2.10,Win32,60,6067542a4a25243f4d7d4fcf,16.88955932,16.73737286,16.68500977,16.65834034,16.64870987,16.68500977,,,,,,,,,,,,,,,,,,,,,,,,,,,,,,,,,,,,,,,,,,,,,,,,,,,,,,,,,,,,,,,,,,,,,,,,,,,,,,,,,,,,,,,,,,,,,,,,,,,,,,,,,,,,,,,,,,
,,,,,,,,,,,,,,,,,,,,,,,,,,,,,,,,,return,4.113305,4.608,564.4372045,4,0,4,0,1,5de6d5557544ea070b13d83a,606c0df0803e3e9a766e75ac,2021-04-06_09h30.03.646,Colour_Similarity_Experiment,2020.2.10,Win32,60,6067542a4a25243f4d7d4fcf,16.88955932,16.73737286,16.68500977,16.65834034,16.64870987,16.68500977,,,,,,,,,,,,,,,,,,,,,,,,,,,,,,,,,,,,,,,,,,,,,,,,,,,,,,,,,,,,,,,,,,,,,,,,,,,,,,,,,,,,,,,,,,,,,,,,,,,,,,,,,,,,,,,,,,
,,,,,,,,,,,,,,,,,,,,,,,,,,,,,,,,,,,,,,,,,,5de6d5557544ea070b13d83a,606c0df0803e3e9a766e75ac,2021-04-06_09h30.03.646,Colour_Similarity_Experiment,2020.2.10,Win32,60,6067542a4a25243f4d7d4fcf,16.88955932,16.73737286,16.68500977,16.65834034,16.64870987,16.68500977,56,9.774832864,65.98012183,439.8674789,43.98674789,197.9403655,space,3.67307,space,18.319945,space,44.013635,space,7.403155,space,4.504895,space,6.63702,1,PF,weak,3,53.60001224,-93.60005666,1,0,0,response3disk_5,3,4,11.321655,-7.999988675,2.399993598,1,0,0,rectangle_8,-7.999988675,2.399993598,1,0,0,7,-7.999988675,2.399993598,1,0,0,0,0,0,6,1,,,,,,,,,,,,,,,,,,,,,,,,,,,,,,,,,,,,,,,,,,,,,,,,,,,,,,,,,,,,,
,,,,,,,,,,,,,,,,,,,,,,,,,,,,,,,,,,,,,,,,,,5de6d5557544ea070b13d83a,606c0df0803e3e9a766e75ac,2021-04-06_09h30.03.646,Colour_Similarity_Experiment,2020.2.10,Win32,60,6067542a4a25243f4d7d4fcf,16.88955932,16.73737286,16.68500977,16.65834034,16.64870987,16.68500977,,,,,,,,,,,,,,,,,,,5,PF,strong,3,-28.79998899,-92.80000782,1,0,0,response5disk_5,4,3,9.723805,-7.199988663,-1.600006461,1,0,0,rectangle_8,-7.199988663,-1.600006461,1,0,0,7,-7.199988663,-1.600006461,1,0,0,0,1,1,2,1,,,,,,,,,,,,,,,,,,,,,,,,,,,,,,,,,,,,,,,,,,,,,,,,,,,,,,,,,,,,,
,,,,,,,,,,,,,,,,,,,,,,,,,,,,,,,,,,,,,,,,,,5de6d5557544ea070b13d83a,606c0df0803e3e9a766e75ac,2021-04-06_09h30.03.646,Colour_Similarity_Experiment,2020.2.10,Win32,60,6067542a4a25243f4d7d4fcf,16.88955932,16.73737286,16.68500977,16.65834034,16.64870987,16.68500977,,,,,,,,,,,,,,,,,,,3,PF,weak,3,71.20001251,60.79999447,1,0,0,response1disk_5,6,6,4.20909,1.600060296,-0.800006449,1,0,0,rectangle_8,48.80001217,94.39999497,1,0,0,7,4.800011516,-3.200006485,1,0,0,0,2,2,4,1,response1disk_7,7,rectangle_4,,,,,,,,,,,,,,,,,,,,,,,,,,,,,,,,,,,,,,,,,,,,,,,,,,,,,,,,,,
,,,,,,,,,,,,,,,,,,,,,,,,,,,,,,,,,,,,,,,,,,5de6d5557544ea070b13d83a,606c0df0803e3e9a766e75ac,2021-04-06_09h30.03.646,Colour_Similarity_Experiment,2020.2.10,Win32,60,6067542a4a25243f4d7d4fcf,16.88955932,16.73737286,16.68500977,16.65834034,16.64870987,16.68500977,,,,,,,,,,,,,,,,,,,5,PF,strong,3,100.0000129,37.59999412,1,0,0,response1disk_5,8,6,7.905945,8.800011575,3.999993622,1,0,0,rectangle_8,8.800011575,3.999993622,1,0,0,7,8.800011575,3.999993622,1,0,0,0,3,3,0,1,,,,,,,,,,,,,,,,,,,,,,,,,,,,,,,,,,,,,,,,,,,,,,,,,,,,,,,,,,,,,
,,,,,,,,,,,,,,,,,,,,,,,,,,,,,,,,,,,,,,,,,,5de6d5557544ea070b13d83a,606c0df0803e3e9a766e75ac,2021-04-06_09h30.03.646,Colour_Similarity_Experiment,2020.2.10,Win32,60,6067542a4a25243f4d7d4fcf,16.88955932,16.73737286,16.68500977,16.65834034,16.64870987,16.68500977,,,,,,,,,,,,,,,,,,,5,PF,weak,3,58.40001231,-65.60000741,1,0,0,response3disk_5,5,4,6.240685,8.800011575,-2.400006473,1,0,0,rectangle_8,8.800011575,-2.400006473,1,0,0,7,8.800011575,-2.400006473,1,0,0,0,4,4,1,1,,,,,,,,,,,,,,,,,,,,,,,,,,,,,,,,,,,,,,,,,,,,,,,,,,,,,,,,,,,,,
,,,,,,,,,,,,,,,,,,,,,,,,,,,,,,,,,,,,,,,,,,5de6d5557544ea070b13d83a,606c0df0803e3e9a766e75ac,2021-04-06_09h30.03.646,Colour_Similarity_Experiment,2020.2.10,Win32,60,6067542a4a25243f4d7d4fcf,16.88955932,16.73737286,16.68500977,16.65834034,16.64870987,16.68500977,,,,,,,,,,,,,,,,,,,4,PF,weak,3,62.40001237,83.99999481,1,0,0,response1disk_5,7,7,4.375675,-8.799988687,3.999993622,1,0,0,rectangle_8,43.20001209,91.99999493,1,0,0,7,9.600060415,-6.4373E-06,1,0,0,0,5,5,5,1,response1disk_7,7,rectangle_4,,,,,,,,,,,,,,,,,,,,,,,,,,,,,,,,,,,,,,,,,,,,,,,,,,,,,,,,,,
,,,,,,,,,,,,,,,,,,,,,,,,,,,,,,,,,,,,,,,,,,5de6d5557544ea070b13d83a,606c0df0803e3e9a766e75ac,2021-04-06_09h30.03.646,Colour_Similarity_Experiment,2020.2.10,Win32,60,6067542a4a25243f4d7d4fcf,16.88955932,16.73737286,16.68500977,16.65834034,16.64870987,16.68500977,,,,,,,,,,,,,,,,,,,8,PF,strong,3,35.20001197,69.5999946,1,0,0,response1disk_5,1,7,3.196615,13.60006047,0.799993575,1,0,0,rectangle_8,13.60006047,0.799993575,1,0,0,7,13.60006047,0.799993575,1,0,0,0,6,6,3,1,,,,,,,,,,,,,,,,,,,,,,,,,,,,,,,,,,,,,,,,,,,,,,,,,,,,,,,,,,,,,
,,,,,,,,,,,,,,,,,,,,,,,,,,,,,,,,,,,,,,,,,,5de6d5557544ea070b13d83a,606c0df0803e3e9a766e75ac,2021-04-06_09h30.03.646,Colour_Similarity_Experiment,2020.2.10,Win32,60,6067542a4a25243f4d7d4fcf,16.88955932,16.73737286,16.68500977,16.65834034,16.64870987,16.68500977,,,,,,,,,,,,,,,,,,,,PF,strong,3,,,,,,,,3,3.06156,,,,,,,,,,,,,,,,,,,,,,,,,,space,5.127845,6,strong,-34.39994024,-89.6000566,1,0,0,response5disk,7,1,16.00001168,-2.400006473,1,0,0,rectangle,16.00001168,-2.400006473,1,0,0,,4,0.00139,16.00001168,-2.400006473,1,0,0,0,0,0,18,1,0,,,,,,,,,,,,,,,,,,,,,
,,,,,,,,,,,,,,,,,,,,,,,,,,,,,,,,,,,,,,,,,,5de6d5557544ea070b13d83a,606c0df0803e3e9a766e75ac,2021-04-06_09h30.03.646,Colour_Similarity_Experiment,2020.2.10,Win32,60,6067542a4a25243f4d7d4fcf,16.88955932,16.73737286,16.68500977,16.65834034,16.64870987,16.68500977,,,,,,,,,,,,,,,,,,,,PF,strong,3,,,,,,,,6,3.90906,,,,,,,,,,,,,,,,,,,,,,,,,,,,9,strong,81.60001266,51.99999434,1,0,0,response1disk,7,2,-13.59998876,4.799993634,1,0,0,rectangle,-13.59998876,4.799993634,1,0,0,,5,0.00079,-13.59998876,4.799993634,1,0,0,0,1,1,100,1,0,,,,,,,,,,,,,,,,,,,,,
,,,,,,,,,,,,,,,,,,,,,,,,,,,,,,,,,,,,,,,,,,5de6d5557544ea070b13d83a,606c0df0803e3e9a766e75ac,2021-04-06_09h30.03.646,Colour_Similarity_Experiment,2020.2.10,Win32,60,6067542a4a25243f4d7d4fcf,16.88955932,16.73737286,16.68500977,16.65834034,16.64870987,16.68500977,,,,,,,,,,,,,,,,,,,,PF,weak,3,,,,,,,,4,2.87731,,,,,,,,,,,,,,,,,,,,,,,,,,,,6,weak,52.00001222,-89.6000566,1,0,0,response3disk,4,3,11.20001161,5.599993646,1,0,0,rectangle,11.20001161,5.599993646,1,0,0,,3,0.00151,11.20001161,5.599993646,1,0,0,0,2,2,33,1,0,,,,,,,,,,,,,,,,,,,,,
,,,,,,,,,,,,,,,,,,,,,,,,,,,,,,,,,,,,,,,,,,5de6d5557544ea070b13d83a,606c0df0803e3e9a766e75ac,2021-04-06_09h30.03.646,Colour_Similarity_Experiment,2020.2.10,Win32,60,6067542a4a25243f4d7d4fcf,16.88955932,16.73737286,16.68500977,16.65834034,16.64870987,16.68500977,,,,,,,,,,,,,,,,,,,,PF,strong,3,,,,,,,,4,4.242255,,,,,,,,,,,,,,,,,,,,,,,,,,,,1,strong,36.80001199,-88.00000775,1,0,0,response3disk,5,4,-6.399939823,6.399993658,1,0,0,rectangle,-6.399939823,6.399993658,1,0,0,,6,0.00079,-6.399939823,6.399993658,1,0,0,0,3,3,82,1,0,,,,,,,,,,,,,,,,,,,,,
,,,,,,,,,,,,,,,,,,,,,,,,,,,,,,,,,,,,,,,,,,5de6d5557544ea070b13d83a,606c0df0803e3e9a766e75ac,2021-04-06_09h30.03.646,Colour_Similarity_Experiment,2020.2.10,Win32,60,6067542a4a25243f4d7d4fcf,16.88955932,16.73737286,16.68500977,16.65834034,16.64870987,16.68500977,,,,,,,,,,,,,,,,,,,,PF,weak,3,,,,,,,,6,1.96151,,,,,,,,,,,,,,,,,,,,,,,,,,,,3,weak,88.80001277,39.99999416,1,0,0,response1disk,6,5,-3.199988604,0.799993575,1,0,0,rectangle,-3.199988604,0.799993575,1,0,0,,0,0.0012,-3.199988604,0.799993575,1,0,0,0,4,4,47,1,0,,,,,,,,,,,,,,,,,,,,,
,,,,,,,,,,,,,,,,,,,,,,,,,,,,,,,,,,,,,,,,,,5de6d5557544ea070b13d83a,606c0df0803e3e9a766e75ac,2021-04-06_09h30.03.646,Colour_Similarity_Experiment,2020.2.10,Win32,60,6067542a4a25243f4d7d4fcf,16.88955932,16.73737286,16.68500977,16.65834034,16.64870987,16.68500977,,,,,,,,,,,,,,,,,,,,PF,weak,3,,,,,,,,0,3.043515,,,,,,,,,,,,,,,,,,,,,,,,,,,,2,weak,-44.79998922,64.79999453,1,0,0,response7disk,2,6,14.40001166,-1.600006461,1,0,0,rectangle,14.40001166,-1.600006461,1,0,0,,7,0.000775,14.40001166,-1.600006461,1,0,0,0,5,5,14,1,0,,,,,,,,,,,,,,,,,,,,,
,,,,,,,,,,,,,,,,,,,,,,,,,,,,,,,,,,,,,,,,,,5de6d5557544ea070b13d83a,606c0df0803e3e9a766e75ac,2021-04-06_09h30.03.646,Colour_Similarity_Experiment,2020.2.10,Win32,60,6067542a4a25243f4d7d4fcf,16.88955932,16.73737286,16.68500977,16.65834034,16.64870987,16.68500977,,,,,,,,,,,,,,,,,,,,PF,weak,3,,,,,,,,2,6.494005,,,,,,,,,,,,,,,,,,,,,,,,,,,,6,weak,-88.79998988,-48.00000715,1,0,0,response5disk,5,7,-1.59998858,-4.800006509,1,0,0,rectangle,-1.59998858,-4.800006509,1,0,0,,1,0.000775,-1.59998858,-4.800006509,1,0,0,0,6,6,59,1,0,,,,,,,,,,,,,,,,,,,,,
,,,,,,,,,,,,,,,,,,,,,,,,,,,,,,,,,,,,,,,,,,5de6d5557544ea070b13d83a,606c0df0803e3e9a766e75ac,2021-04-06_09h30.03.646,Colour_Similarity_Experiment,2020.2.10,Win32,60,6067542a4a25243f4d7d4fcf,16.88955932,16.73737286,16.68500977,16.65834034,16.64870987,16.68500977,,,,,,,,,,,,,,,,,,,,PF,strong,3,,,,,,,,4,5.265135,,,,,,,,,,,,,,,,,,,,,,,,,,,,3,strong,31.20001191,-100.8000079,1,0,0,response3disk,3,8,4.800011516,-4.000006497,1,0,0,rectangle,4.800011516,-4.000006497,1,0,0,,6,0.00123,4.800011516,-4.000006497,1,0,0,0,7,7,68,1,0,,,,,,,,,,,,,,,,,,,,,
,,,,,,,,,,,,,,,,,,,,,,,,,,,,,,,,,,,,,,,,,,5de6d5557544ea070b13d83a,606c0df0803e3e9a766e75ac,2021-04-06_09h30.03.646,Colour_Similarity_Experiment,2020.2.10,Win32,60,6067542a4a25243f4d7d4fcf,16.88955932,16.73737286,16.68500977,16.65834034,16.64870987,16.68500977,,,,,,,,,,,,,,,,,,,,PF,weak,3,,,,,,,,7,2.04424,,,,,,,,,,,,,,,,,,,,,,,,,,,,7,weak,43.20001209,78.39999473,1,0,0,response1disk,2,9,-2.399939764,3.999993622,1,0,0,rectangle,-2.399939764,3.999993622,1,0,0,,3,0.00086,-2.399939764,3.999993622,1,0,0,0,8,8,32,1,0,,,,,,,,,,,,,,,,,,,,,
,,,,,,,,,,,,,,,,,,,,,,,,,,,,,,,,,,,,,,,,,,5de6d5557544ea070b13d83a,606c0df0803e3e9a766e75ac,2021-04-06_09h30.03.646,Colour_Similarity_Experiment,2020.2.10,Win32,60,6067542a4a25243f4d7d4fcf,16.88955932,16.73737286,16.68500977,16.65834034,16.64870987,16.68500977,,,,,,,,,,,,,,,,,,,,PF,strong,3,,,,,,,,6,7.505745,,,,,,,,,,,,,,,,,,,,,,,,,,,,8,strong,79.20001262,32.79999405,1,0,0,response1disk,6,10,15.20001167,3.999993622,1,0,0,rectangle,15.20001167,3.999993622,1,0,0,,6,0.0014,15.20001167,3.999993622,1,0,0,0,9,9,37,1,0,,,,,,,,,,,,,,,,,,,,,
,,,,,,,,,,,,,,,,,,,,,,,,,,,,,,,,,,,,,,,,,,5de6d5557544ea070b13d83a,606c0df0803e3e9a766e75ac,2021-04-06_09h30.03.646,Colour_Similarity_Experiment,2020.2.10,Win32,60,6067542a4a25243f4d7d4fcf,16.88955932,16.73737286,16.68500977,16.65834034,16.64870987,16.68500977,,,,,,,,,,,,,,,,,,,,PF,weak,3,,,,,,,,5,17.29708,,,,,,,,,,,,,,,,,,,,,,,,,,,,7,weak,107.200013,-43.20000708,1,0,0,response3disk,1,11,-3.999988616,-6.4373E-06,1,0,0,rectangle,-3.999988616,-6.4373E-06,1,0,0,,4,0.000775,-3.999988616,-6.4373E-06,1,0,0,0,10,10,53,1,0,,,,,,,,,,,,,,,,,,,,,
,,,,,,,,,,,,,,,,,,,,,,,,,,,,,,,,,,,,,,,,,,5de6d5557544ea070b13d83a,606c0df0803e3e9a766e75ac,2021-04-06_09h30.03.646,Colour_Similarity_Experiment,2020.2.10,Win32,60,6067542a4a25243f4d7d4fcf,16.88955932,16.73737286,16.68500977,16.65834034,16.64870987,16.68500977,,,,,,,,,,,,,,,,,,,,PF,weak,3,,,,,,,,5,6.024445,,,,,,,,,,,,,,,,,,,,,,,,,,,,1,weak,84.0000127,-32.80000693,1,0,0,response3disk,2,12,8.800011575,-3.200006485,1,0,0,rectangle,8.800011575,-3.200006485,1,0,0,,1,0.00076,8.800011575,-3.200006485,1,0,0,0,11,11,24,1,0,,,,,,,,,,,,,,,,,,,,,
,,,,,,,,,,,,,,,,,,,,,,,,,,,,,,,,,,,,,,,,,,5de6d5557544ea070b13d83a,606c0df0803e3e9a766e75ac,2021-04-06_09h30.03.646,Colour_Similarity_Experiment,2020.2.10,Win32,60,6067542a4a25243f4d7d4fcf,16.88955932,16.73737286,16.68500977,16.65834034,16.64870987,16.68500977,,,,,,,,,,,,,,,,,,,,PF,weak,3,,,,,,,,5,9.836905,,,,,,,,,,,,,,,,,,,,,,,,,,,,8,weak,108.8000131,-52.80000722,1,0,0,response3disk,6,13,4.800011516,-1.600006461,1,0,0,rectangle,42.40001208,86.39999485,1,0,0,7,7,2.032245,6.400011539,2.399993598,1,0,0,0,12,12,161,1,1,response1disk_3,rectangle,,,,,,,,,,,,,,,,,,,
,,,,,,,,,,,,,,,,,,,,,,,,,,,,,,,,,,,,,,,,,,5de6d5557544ea070b13d83a,606c0df0803e3e9a766e75ac,2021-04-06_09h30.03.646,Colour_Similarity_Experiment,2020.2.10,Win32,60,6067542a4a25243f4d7d4fcf,16.88955932,16.73737286,16.68500977,16.65834034,16.64870987,16.68500977,,,,,,,,,,,,,,,,,,,,PF,strong,3,,,,,,,,5,6.37409,,,,,,,,,,,,,,,,,,,,,,,,,,,,1,strong,89.60001278,-31.2000069,1,0,0,response3disk,7,14,1.600060296,1.599993587,1,0,0,rectangle,1.600060296,1.599993587,1,0,0,7,3,0.00077,1.600060296,1.599993587,1,0,0,0,13,13,137,1,0,,,,,,,,,,,,,,,,,,,,,
,,,,,,,,,,,,,,,,,,,,,,,,,,,,,,,,,,,,,,,,,,5de6d5557544ea070b13d83a,606c0df0803e3e9a766e75ac,2021-04-06_09h30.03.646,Colour_Similarity_Experiment,2020.2.10,Win32,60,6067542a4a25243f4d7d4fcf,16.88955932,16.73737286,16.68500977,16.65834034,16.64870987,16.68500977,,,,,,,,,,,,,,,,,,,,PF,strong,3,,,,,,,,7,4.125945,,,,,,,,,,,,,,,,,,,,,,,,,,,,2,strong,36.80001199,59.19997003,1,0,0,response1disk,8,15,11.20001161,-4.800006509,1,0,0,rectangle,11.20001161,-4.800006509,1,0,0,7,3,9.99999E-05,11.20001161,-4.800006509,1,0,0,0,14,14,62,1,0,,,,,,,,,,,,,,,,,,,,,
,,,,,,,,,,,,,,,,,,,,,,,,,,,,,,,,,,,,,,,,,,5de6d5557544ea070b13d83a,606c0df0803e3e9a766e75ac,2021-04-06_09h30.03.646,Colour_Similarity_Experiment,2020.2.10,Win32,60,6067542a4a25243f4d7d4fcf,16.88955932,16.73737286,16.68500977,16.65834034,16.64870987,16.68500977,,,,,,,,,,,,,,,,,,,,PF,weak,3,,,,,,,,6,8.47211,,,,,,,,,,,,,,,,,,,,,,,,,,,,7,weak,109.6000131,32.79999405,1,0,0,response1disk,3,16,13.60006047,-6.400006533,1,0,0,rectangle,13.60006047,-6.400006533,1,0,0,7,1,0.000755,13.60006047,-6.400006533,1,0,0,0,15,15,81,1,0,,,,,,,,,,,,,,,,,,,,,
,,,,,,,,,,,,,,,,,,,,,,,,,,,,,,,,,,,,,,,,,,5de6d5557544ea070b13d83a,606c0df0803e3e9a766e75ac,2021-04-06_09h30.03.646,Colour_Similarity_Experiment,2020.2.10,Win32,60,6067542a4a25243f4d7d4fcf,16.88955932,16.73737286,16.68500977,16.65834034,16.64870987,16.68500977,,,,,,,,,,,,,,,,,,,,PF,strong,3,,,,,,,,3,2.810325,,,,,,,,,,,,,,,,,,,,,,,,,,,,5,strong,-34.39994024,-74.40000755,1,0,0,response5disk,4,17,11.20001161,1.599993587,1,0,0,rectangle,11.20001161,1.599993587,1,0,0,7,0,0.001725,11.20001161,1.599993587,1,0,0,0,16,16,8,1,0,,,,,,,,,,,,,,,,,,,,,
,,,,,,,,,,,,,,,,,,,,,,,,,,,,,,,,,,,,,,,,,,5de6d5557544ea070b13d83a,606c0df0803e3e9a766e75ac,2021-04-06_09h30.03.646,Colour_Similarity_Experiment,2020.2.10,Win32,60,6067542a4a25243f4d7d4fcf,16.88955932,16.73737286,16.68500977,16.65834034,16.64870987,16.68500977,,,,,,,,,,,,,,,,,,,,PF,weak,3,,,,,,,,7,1.84342,,,,,,,,,,,,,,,,,,,,,,,,,,,,1,weak,35.20001197,61.59999448,1,0,0,response1disk,4,18,3.200011492,-0.800006449,1,0,0,rectangle,3.200011492,-0.800006449,1,0,0,7,4,0.00116,3.200011492,-0.800006449,1,0,0,0,17,17,139,1,0,,,,,,,,,,,,,,,,,,,,,
,,,,,,,,,,,,,,,,,,,,,,,,,,,,,,,,,,,,,,,,,,5de6d5557544ea070b13d83a,606c0df0803e3e9a766e75ac,2021-04-06_09h30.03.646,Colour_Similarity_Experiment,2020.2.10,Win32,60,6067542a4a25243f4d7d4fcf,16.88955932,16.73737286,16.68500977,16.65834034,16.64870987,16.68500977,,,,,,,,,,,,,,,,,,,,PF,weak,3,,,,,,,,7,1.795315,,,,,,,,,,,,,,,,,,,,,,,,,,,,2,weak,43.20001209,63.99999452,1,0,0,response1disk,7,19,13.60006047,-8.000006557,1,0,0,rectangle,13.60006047,-8.000006557,1,0,0,7,0,0.001175,13.60006047,-8.000006557,1,0,0,0,18,18,107,1,0,,,,,,,,,,,,,,,,,,,,,
,,,,,,,,,,,,,,,,,,,,,,,,,,,,,,,,,,,,,,,,,,5de6d5557544ea070b13d83a,606c0df0803e3e9a766e75ac,2021-04-06_09h30.03.646,Colour_Similarity_Experiment,2020.2.10,Win32,60,6067542a4a25243f4d7d4fcf,16.88955932,16.73737286,16.68500977,16.65834034,16.64870987,16.68500977,,,,,,,,,,,,,,,,,,,,PF,weak,3,,,,,,,,5,3.37685,,,,,,,,,,,,,,,,,,,,,,,,,,,,1,weak,77.6000126,-55.20000726,1,0,0,response3disk,8,20,14.40001166,-6.4373E-06,1,0,0,rectangle,14.40001166,-6.4373E-06,1,0,0,7,2,0.000745,14.40001166,-6.4373E-06,1,0,0,0,19,19,65,1,0,,,,,,,,,,,,,,,,,,,,,
,,,,,,,,,,,,,,,,,,,,,,,,,,,,,,,,,,,,,,,,,,5de6d5557544ea070b13d83a,606c0df0803e3e9a766e75ac,2021-04-06_09h30.03.646,Colour_Similarity_Experiment,2020.2.10,Win32,60,6067542a4a25243f4d7d4fcf,16.88955932,16.73737286,16.68500977,16.65834034,16.64870987,16.68500977,,,,,,,,,,,,,,,,,,,,PF,strong,3,,,,,,,,6,8.88792,,,,,,,,,,,,,,,,,,,,,,,,,,,,7,strong,84.0000127,36.79999411,1,0,0,response1disk,9,21,13.60006047,-8.800006568,1,0,0,rectangle,13.60006047,-8.800006568,1,0,0,7,7,0.00075,13.60006047,-8.800006568,1,0,0,0,20,20,155,1,0,,,,,,,,,,,,,,,,,,,,,
,,,,,,,,,,,,,,,,,,,,,,,,,,,,,,,,,,,,,,,,,,5de6d5557544ea070b13d83a,606c0df0803e3e9a766e75ac,2021-04-06_09h30.03.646,Colour_Similarity_Experiment,2020.2.10,Win32,60,6067542a4a25243f4d7d4fcf,16.88955932,16.73737286,16.68500977,16.65834034,16.64870987,16.68500977,,,,,,,,,,,,,,,,,,,,PF,weak,3,,,,,,,,7,1.79527,,,,,,,,,,,,,,,,,,,,,,,,,,,,2,weak,52.80001223,89.5999949,1,0,0,response1disk,6,22,18.40001172,-4.800006509,1,0,0,rectangle,18.40001172,-4.800006509,1,0,0,7,3,0.001695,18.40001172,-4.800006509,1,0,0,0,21,21,113,1,0,,,,,,,,,,,,,,,,,,,,,
,,,,,,,,,,,,,,,,,,,,,,,,,,,,,,,,,,,,,,,,,,5de6d5557544ea070b13d83a,606c0df0803e3e9a766e75ac,2021-04-06_09h30.03.646,Colour_Similarity_Experiment,2020.2.10,Win32,60,6067542a4a25243f4d7d4fcf,16.88955932,16.73737286,16.68500977,16.65834034,16.64870987,16.68500977,,,,,,,,,,,,,,,,,,,,PF,weak,3,,,,,,,,1,3.16051,,,,,,,,,,,,,,,,,,,,,,,,,,,,3,weak,-91.99998993,35.19996967,1,0,0,response7disk,3,23,1.600060296,1.599993587,1,0,0,rectangle,1.600060296,1.599993587,1,0,0,7,4,0.00074,1.600060296,1.599993587,1,0,0,0,22,22,4,1,0,,,,,,,,,,,,,,,,,,,,,
,,,,,,,,,,,,,,,,,,,,,,,,,,,,,,,,,,,,,,,,,,5de6d5557544ea070b13d83a,606c0df0803e3e9a766e75ac,2021-04-06_09h30.03.646,Colour_Similarity_Experiment,2020.2.10,Win32,60,6067542a4a25243f4d7d4fcf,16.88955932,16.73737286,16.68500977,16.65834034,16.64870987,16.68500977,,,,,,,,,,,,,,,,,,,,PF,weak,3,,,,,,,,0,1.682165,,,,,,,,,,,,,,,,,,,,,,,,,,,,4,weak,-43.99998921,84.79999483,1,0,0,response7disk,3,24,8.800011575,0.799993575,1,0,0,rectangle,8.800011575,0.799993575,1,0,0,7,1,0.000945,8.800011575,0.799993575,1,0,0,0,23,23,89,1,0,,,,,,,,,,,,,,,,,,,,,
,,,,,,,,,,,,,,,,,,,,,,,,,,,,,,,,,,,,,,,,,,5de6d5557544ea070b13d83a,606c0df0803e3e9a766e75ac,2021-04-06_09h30.03.646,Colour_Similarity_Experiment,2020.2.10,Win32,60,6067542a4a25243f4d7d4fcf,16.88955932,16.73737286,16.68500977,16.65834034,16.64870987,16.68500977,,,,,,,,,,,,,,,,,,,,PF,weak,3,,,,,,,,5,4.441295,,,,,,,,,,,,,,,,,,,,,,,,,,,,2,weak,80.00001264,-45.60000712,1,0,0,response3disk,3,25,9.600060415,-4.000006497,1,0,0,rectangle,9.600060415,-4.000006497,1,0,0,7,6,0.000765,9.600060415,-4.000006497,1,0,0,0,24,24,69,1,0,,,,,,,,,,,,,,,,,,,,,
,,,,,,,,,,,,,,,,,,,,,,,,,,,,,,,,,,,,,,,,,,5de6d5557544ea070b13d83a,606c0df0803e3e9a766e75ac,2021-04-06_09h30.03.646,Colour_Similarity_Experiment,2020.2.10,Win32,60,6067542a4a25243f4d7d4fcf,16.88955932,16.73737286,16.68500977,16.65834034,16.64870987,16.68500977,,,,,,,,,,,,,,,,,,,,PF,strong,3,,,,,,,,6,2.89391,,,,,,,,,,,,,,,,,,,,,,,,,,,,9,strong,109.6000131,37.59999412,1,0,0,response1disk,8,26,9.600060415,1.599993587,1,0,0,rectangle,9.600060415,1.599993587,1,0,0,7,2,0.000755,9.600060415,1.599993587,1,0,0,0,25,25,6,1,0,,,,,,,,,,,,,,,,,,,,,
,,,,,,,,,,,,,,,,,,,,,,,,,,,,,,,,,,,,,,,,,,5de6d5557544ea070b13d83a,606c0df0803e3e9a766e75ac,2021-04-06_09h30.03.646,Colour_Similarity_Experiment,2020.2.10,Win32,60,6067542a4a25243f4d7d4fcf,16.88955932,16.73737286,16.68500977,16.65834034,16.64870987,16.68500977,,,,,,,,,,,,,,,,,,,,PF,strong,3,,,,,,,,3,3.21004,,,,,,,,,,,,,,,,,,,,,,,,,,,,7,strong,-51.99998933,-74.40000755,1,0,0,response5disk,4,27,8.800011575,1.599993587,1,0,0,rectangle,8.800011575,1.599993587,1,0,0,7,5,0.00144,8.800011575,1.599993587,1,0,0,0,26,26,158,1,0,,,,,,,,,,,,,,,,,,,,,
,,,,,,,,,,,,,,,,,,,,,,,,,,,,,,,,,,,,,,,,,,5de6d5557544ea070b13d83a,606c0df0803e3e9a766e75ac,2021-04-06_09h30.03.646,Colour_Similarity_Experiment,2020.2.10,Win32,60,6067542a4a25243f4d7d4fcf,16.88955932,16.73737286,16.68500977,16.65834034,16.64870987,16.68500977,,,,,,,,,,,,,,,,,,,,PF,weak,3,,,,,,,,4,4.242505,,,,,,,,,,,,,,,,,,,,,,,,,,,,2,weak,50.4000122,-104.800008,1,0,0,response3disk,9,28,18.40001172,2.399993598,1,0,0,rectangle,18.40001172,2.399993598,1,0,0,7,4,0.00072,18.40001172,2.399993598,1,0,0,0,27,27,39,1,0,,,,,,,,,,,,,,,,,,,,,
,,,,,,,,,,,,,,,,,,,,,,,,,,,,,,,,,,,,,,,,,,5de6d5557544ea070b13d83a,606c0df0803e3e9a766e75ac,2021-04-06_09h30.03.646,Colour_Similarity_Experiment,2020.2.10,Win32,60,6067542a4a25243f4d7d4fcf,16.88955932,16.73737286,16.68500977,16.65834034,16.64870987,16.68500977,,,,,,,,,,,,,,,,,,,,PF,weak,3,,,,,,,,4,5.174915,,,,,,,,,,,,,,,,,,,,,,,,,,,,7,weak,52.00001222,-92.00000781,1,0,0,response3disk,4,29,20.00001174,11.99999374,1,0,0,rectangle,20.00001174,11.99999374,1,0,0,7,5,0.00074,20.00001174,11.99999374,1,0,0,0,28,28,43,1,0,,,,,,,,,,,,,,,,,,,,,
,,,,,,,,,,,,,,,,,,,,,,,,,,,,,,,,,,,,,,,,,,5de6d5557544ea070b13d83a,606c0df0803e3e9a766e75ac,2021-04-06_09h30.03.646,Colour_Similarity_Experiment,2020.2.10,Win32,60,6067542a4a25243f4d7d4fcf,16.88955932,16.73737286,16.68500977,16.65834034,16.64870987,16.68500977,,,,,,,,,,,,,,,,,,,,PF,weak,3,,,,,,,,0,1.64497,,,,,,,,,,,,,,,,,,,,,,,,,,,,7,weak,-46.39994042,101.5999951,1,0,0,response7disk,7,30,24.80001181,-2.400006473,1,0,0,rectangle,24.80001181,-2.400006473,1,0,0,7,6,0.00077,24.80001181,-2.400006473,1,0,0,0,29,29,51,1,0,,,,,,,,,,,,,,,,,,,,,
,,,,,,,,,,,,,,,,,,,,,,,,,,,,,,,,,,,,,,,,,,5de6d5557544ea070b13d83a,606c0df0803e3e9a766e75ac,2021-04-06_09h30.03.646,Colour_Similarity_Experiment,2020.2.10,Win32,60,6067542a4a25243f4d7d4fcf,16.88955932,16.73737286,16.68500977,16.65834034,16.64870987,16.68500977,,,,,,,,,,,,,,,,,,,,PF,weak,3,,,,,,,,3,2.877235,,,,,,,,,,,,,,,,,,,,,,,,,,,,9,weak,-34.39994024,-99.20000792,1,0,0,response5disk,2,31,8.800011575,3.19999361,1,0,0,rectangle,8.800011575,3.19999361,1,0,0,7,7,0.00103,8.800011575,3.19999361,1,0,0,0,30,30,157,1,0,,,,,,,,,,,,,,,,,,,,,
,,,,,,,,,,,,,,,,,,,,,,,,,,,,,,,,,,,,,,,,,,5de6d5557544ea070b13d83a,606c0df0803e3e9a766e75ac,2021-04-06_09h30.03.646,Colour_Similarity_Experiment,2020.2.10,Win32,60,6067542a4a25243f4d7d4fcf,16.88955932,16.73737286,16.68500977,16.65834034,16.64870987,16.68500977,,,,,,,,,,,,,,,,,,,,PF,weak,3,,,,,,,,4,3.726185,,,,,,,,,,,,,,,,,,,,,,,,,,,,3,weak,54.40001225,-95.20000786,1,0,0,response3disk,5,32,29.60006071,-2.400006473,1,0,0,rectangle,29.60006071,-2.400006473,1,0,0,7,6,0.000995,29.60006071,-2.400006473,1,0,0,0,31,31,66,1,0,,,,,,,,,,,,,,,,,,,,,
,,,,,,,,,,,,,,,,,,,,,,,,,,,,,,,,,,,,,,,,,,5de6d5557544ea070b13d83a,606c0df0803e3e9a766e75ac,2021-04-06_09h30.03.646,Colour_Similarity_Experiment,2020.2.10,Win32,60,6067542a4a25243f4d7d4fcf,16.88955932,16.73737286,16.68500977,16.65834034,16.64870987,16.68500977,,,,,,,,,,,,,,,,,,,,PF,weak,3,,,,,,,,6,2.161515,,,,,,,,,,,,,,,,,,,,,,,,,,,,5,weak,92.00001281,35.19996967,1,0,0,response1disk,2,33,7.200011551,1.599993587,1,0,0,rectangle,7.200011551,1.599993587,1,0,0,7,6,9E-05,7.200011551,1.599993587,1,0,0,0,32,32,129,1,0,,,,,,,,,,,,,,,,,,,,,
,,,,,,,,,,,,,,,,,,,,,,,,,,,,,,,,,,,,,,,,,,5de6d5557544ea070b13d83a,606c0df0803e3e9a766e75ac,2021-04-06_09h30.03.646,Colour_Similarity_Experiment,2020.2.10,Win32,60,6067542a4a25243f4d7d4fcf,16.88955932,16.73737286,16.68500977,16.65834034,16.64870987,16.68500977,,,,,,,,,,,,,,,,,,,,PF,strong,3,,,,,,,,5,3.213625,,,,,,,,,,,,,,,,,,,,,,,,,,,,5,strong,66.40001243,-47.20000714,1,0,0,response3disk,8,34,17.60006053,-1.600006461,1,0,0,rectangle,17.60006053,-1.600006461,1,0,0,7,5,0.00073,17.60006053,-1.600006461,1,0,0,0,33,33,16,1,0,,,,,,,,,,,,,,,,,,,,,
,,,,,,,,,,,,,,,,,,,,,,,,,,,,,,,,,,,,,,,,,,5de6d5557544ea070b13d83a,606c0df0803e3e9a766e75ac,2021-04-06_09h30.03.646,Colour_Similarity_Experiment,2020.2.10,Win32,60,6067542a4a25243f4d7d4fcf,16.88955932,16.73737286,16.68500977,16.65834034,16.64870987,16.68500977,,,,,,,,,,,,,,,,,,,,PF,weak,3,,,,,,,,3,2.477975,,,,,,,,,,,,,,,,,,,,,,,,,,,,5,weak,-48.79998928,-80.80000764,1,0,0,response5disk,5,35,7.200011551,4.799993634,1,0,0,rectangle,7.200011551,4.799993634,1,0,0,7,1,0.00081,7.200011551,4.799993634,1,0,0,0,34,34,94,1,0,,,,,,,,,,,,,,,,,,,,,
,,,,,,,,,,,,,,,,,,,,,,,,,,,,,,,,,,,,,,,,,,5de6d5557544ea070b13d83a,606c0df0803e3e9a766e75ac,2021-04-06_09h30.03.646,Colour_Similarity_Experiment,2020.2.10,Win32,60,6067542a4a25243f4d7d4fcf,16.88955932,16.73737286,16.68500977,16.65834034,16.64870987,16.68500977,,,,,,,,,,,,,,,,,,,,PF,strong,3,,,,,,,,2,2.660775,,,,,,,,,,,,,,,,,,,,,,,,,,,,7,strong,-73.59998965,-39.20000702,1,0,0,response5disk,7,36,25.60006065,-1.600006461,1,0,0,rectangle,25.60006065,-1.600006461,1,0,0,7,2,0.000945,25.60006065,-1.600006461,1,0,0,0,35,35,34,1,0,,,,,,,,,,,,,,,,,,,,,
,,,,,,,,,,,,,,,,,,,,,,,,,,,,,,,,,,,,,,,,,,5de6d5557544ea070b13d83a,606c0df0803e3e9a766e75ac,2021-04-06_09h30.03.646,Colour_Similarity_Experiment,2020.2.10,Win32,60,6067542a4a25243f4d7d4fcf,16.88955932,16.73737286,16.68500977,16.65834034,16.64870987,16.68500977,,,,,,,,,,,,,,,,,,,,PF,weak,3,,,,,,,,1,1.911875,,,,,,,,,,,,,,,,,,,,,,,,,,,,6,weak,-67.99998957,37.59999412,1,0,0,response7disk,6,37,2.40001148,3.19999361,1,0,0,rectangle,2.40001148,3.19999361,1,0,0,7,3,0.0014,2.40001148,3.19999361,1,0,0,0,36,36,0,1,0,,,,,,,,,,,,,,,,,,,,,
,,,,,,,,,,,,,,,,,,,,,,,,,,,,,,,,,,,,,,,,,,5de6d5557544ea070b13d83a,606c0df0803e3e9a766e75ac,2021-04-06_09h30.03.646,Colour_Similarity_Experiment,2020.2.10,Win32,60,6067542a4a25243f4d7d4fcf,16.88955932,16.73737286,16.68500977,16.65834034,16.64870987,16.68500977,,,,,,,,,,,,,,,,,,,,PF,weak,3,,,,,,,,3,2.39452,,,,,,,,,,,,,,,,,,,,,,,,,,,,6,weak,-36.7999891,-81.60005648,1,0,0,response5disk,3,38,23.20001179,0.799993575,1,0,0,rectangle,23.20001179,0.799993575,1,0,0,7,6,0.000875,23.20001179,0.799993575,1,0,0,0,37,37,26,1,0,,,,,,,,,,,,,,,,,,,,,
,,,,,,,,,,,,,,,,,,,,,,,,,,,,,,,,,,,,,,,,,,5de6d5557544ea070b13d83a,606c0df0803e3e9a766e75ac,2021-04-06_09h30.03.646,Colour_Similarity_Experiment,2020.2.10,Win32,60,6067542a4a25243f4d7d4fcf,16.88955932,16.73737286,16.68500977,16.65834034,16.64870987,16.68500977,,,,,,,,,,,,,,,,,,,,PF,strong,3,,,,,,,,3,2.7137,,,,,,,,,,,,,,,,,,,,,,,,,,,,3,strong,-36.7999891,-92.00000781,1,0,0,response5disk,4,39,20.00001174,4.799993634,1,0,0,rectangle,20.00001174,4.799993634,1,0,0,7,6,0.00012,20.00001174,4.799993634,1,0,0,0,38,38,110,1,0,,,,,,,,,,,,,,,,,,,,,
,,,,,,,,,,,,,,,,,,,,,,,,,,,,,,,,,,,,,,,,,,5de6d5557544ea070b13d83a,606c0df0803e3e9a766e75ac,2021-04-06_09h30.03.646,Colour_Similarity_Experiment,2020.2.10,Win32,60,6067542a4a25243f4d7d4fcf,16.88955932,16.73737286,16.68500977,16.65834034,16.64870987,16.68500977,,,,,,,,,,,,,,,,,,,,PF,strong,3,,,,,,,,4,2.347855,,,,,,,,,,,,,,,,,,,,,,,,,,,,8,strong,40.80001205,-86.40000772,1,0,0,response3disk,9,40,24.0000118,6.399993658,1,0,0,rectangle,24.0000118,6.399993658,1,0,0,7,3,0.000835,24.0000118,6.399993658,1,0,0,0,39,39,105,1,0,,,,,,,,,,,,,,,,,,,,,
,,,,,,,,,,,,,,,,,,,,,,,,,,,,,,,,,,,,,,,,,,5de6d5557544ea070b13d83a,606c0df0803e3e9a766e75ac,2021-04-06_09h30.03.646,Colour_Similarity_Experiment,2020.2.10,Win32,60,6067542a4a25243f4d7d4fcf,16.88955932,16.73737286,16.68500977,16.65834034,16.64870987,16.68500977,,,,,,,,,,,,,,,,,,,,PF,weak,3,,,,,,,,4,2.79757,,,,,,,,,,,,,,,,,,,,,,,,,,,,5,weak,64.0000124,-85.60005654,1,0,0,response3disk,7,41,6.400011539,11.19999373,1,0,0,rectangle,6.400011539,11.19999373,1,0,0,7,1,0.00115,6.400011539,11.19999373,1,0,0,0,40,40,146,1,0,,,,,,,,,,,,,,,,,,,,,
,,,,,,,,,,,,,,,,,,,,,,,,,,,,,,,,,,,,,,,,,,5de6d5557544ea070b13d83a,606c0df0803e3e9a766e75ac,2021-04-06_09h30.03.646,Colour_Similarity_Experiment,2020.2.10,Win32,60,6067542a4a25243f4d7d4fcf,16.88955932,16.73737286,16.68500977,16.65834034,16.64870987,16.68500977,,,,,,,,,,,,,,,,,,,,PF,strong,3,,,,,,,,5,2.394105,,,,,,,,,,,,,,,,,,,,,,,,,,,,5,strong,80.00001264,-41.60000706,1,0,0,response3disk,7,42,19.20001173,-1.600006461,1,0,0,rectangle,19.20001173,-1.600006461,1,0,0,7,5,0.000725,19.20001173,-1.600006461,1,0,0,0,41,41,7,1,0,,,,,,,,,,,,,,,,,,,,,
,,,,,,,,,,,,,,,,,,,,,,,,,,,,,,,,,,,,,,,,,,5de6d5557544ea070b13d83a,606c0df0803e3e9a766e75ac,2021-04-06_09h30.03.646,Colour_Similarity_Experiment,2020.2.10,Win32,60,6067542a4a25243f4d7d4fcf,16.88955932,16.73737286,16.68500977,16.65834034,16.64870987,16.68500977,,,,,,,,,,,,,,,,,,,,PF,strong,3,,,,,,,,4,2.24455,,,,,,,,,,,,,,,,,,,,,,,,,,,,6,strong,81.60001266,-88.00000775,1,0,0,response3disk,9,43,21.60006059,-6.4373E-06,1,0,0,rectangle,-42.39994036,110.3999952,1,0,0,0,0,2.53077,1.14441E-05,9.599993706,1,0,0,0,42,42,160,1,1,response7disk_3,rectangle,,,,,,,,,,,,,,,,,,,
,,,,,,,,,,,,,,,,,,,,,,,,,,,,,,,,,,,,,,,,,,5de6d5557544ea070b13d83a,606c0df0803e3e9a766e75ac,2021-04-06_09h30.03.646,Colour_Similarity_Experiment,2020.2.10,Win32,60,6067542a4a25243f4d7d4fcf,16.88955932,16.73737286,16.68500977,16.65834034,16.64870987,16.68500977,,,,,,,,,,,,,,,,,,,,PF,weak,3,,,,,,,,6,3.543195,,,,,,,,,,,,,,,,,,,,,,,,,,,,4,weak,95.20001286,47.19996985,1,0,0,response1disk,2,44,5.600060356,0.799993575,1,0,0,rectangle,5.600060356,0.799993575,1,0,0,0,4,0.001195,5.600060356,0.799993575,1,0,0,0,43,43,108,1,0,,,,,,,,,,,,,,,,,,,,,
,,,,,,,,,,,,,,,,,,,,,,,,,,,,,,,,,,,,,,,,,,5de6d5557544ea070b13d83a,606c0df0803e3e9a766e75ac,2021-04-06_09h30.03.646,Colour_Similarity_Experiment,2020.2.10,Win32,60,6067542a4a25243f4d7d4fcf,16.88955932,16.73737286,16.68500977,16.65834034,16.64870987,16.68500977,,,,,,,,,,,,,,,,,,,,PF,weak,3,,,,,,,,7,1.71158,,,,,,,,,,,,,,,,,,,,,,,,,,,,5,weak,50.4000122,92.79999495,1,0,0,response1disk,1,45,12.80001163,-3.200006485,1,0,0,rectangle,-38.3999403,113.5999953,1,0,0,0,0,1.714785,-1.59998858,3.19999361,1,0,0,0,44,44,159,1,1,response7disk_3,rectangle,,,,,,,,,,,,,,,,,,,
,,,,,,,,,,,,,,,,,,,,,,,,,,,,,,,,,,,,,,,,,,5de6d5557544ea070b13d83a,606c0df0803e3e9a766e75ac,2021-04-06_09h30.03.646,Colour_Similarity_Experiment,2020.2.10,Win32,60,6067542a4a25243f4d7d4fcf,16.88955932,16.73737286,16.68500977,16.65834034,16.64870987,16.68500977,,,,,,,,,,,,,,,,,,,,PF,strong,3,,,,,,,,4,2.51071,,,,,,,,,,,,,,,,,,,,,,,,,,,,9,strong,51.20001221,-111.2000081,1,0,0,response3disk,5,46,19.20001173,6.399993658,1,0,0,rectangle,19.20001173,6.399993658,1,0,0,0,2,0.000825,19.20001173,6.399993658,1,0,0,0,45,45,128,1,0,,,,,,,,,,,,,,,,,,,,,
,,,,,,,,,,,,,,,,,,,,,,,,,,,,,,,,,,,,,,,,,,5de6d5557544ea070b13d83a,606c0df0803e3e9a766e75ac,2021-04-06_09h30.03.646,Colour_Similarity_Experiment,2020.2.10,Win32,60,6067542a4a25243f4d7d4fcf,16.88955932,16.73737286,16.68500977,16.65834034,16.64870987,16.68500977,,,,,,,,,,,,,,,,,,,,PF,strong,3,,,,,,,,2,3.060705,,,,,,,,,,,,,,,,,,,,,,,,,,,,7,strong,-69.59998959,-35.20000696,1,0,0,response5disk,3,47,5.600060356,-6.4373E-06,1,0,0,rectangle,5.600060356,-6.4373E-06,1,0,0,0,7,0.000735,5.600060356,-6.4373E-06,1,0,0,0,46,46,73,1,0,,,,,,,,,,,,,,,,,,,,,
,,,,,,,,,,,,,,,,,,,,,,,,,,,,,,,,,,,,,,,,,,5de6d5557544ea070b13d83a,606c0df0803e3e9a766e75ac,2021-04-06_09h30.03.646,Colour_Similarity_Experiment,2020.2.10,Win32,60,6067542a4a25243f4d7d4fcf,16.88955932,16.73737286,16.68500977,16.65834034,16.64870987,16.68500977,,,,,,,,,,,,,,,,,,,,PF,weak,3,,,,,,,,4,3.47678,,,,,,,,,,,,,,,,,,,,,,,,,,,,6,weak,40.00001204,-82.40000767,1,0,0,response3disk,1,48,25.60006065,-6.4373E-06,1,0,0,rectangle,25.60006065,-6.4373E-06,1,0,0,0,5,0.00142,25.60006065,-6.4373E-06,1,0,0,0,47,47,46,1,0,,,,,,,,,,,,,,,,,,,,,
,,,,,,,,,,,,,,,,,,,,,,,,,,,,,,,,,,,,,,,,,,5de6d5557544ea070b13d83a,606c0df0803e3e9a766e75ac,2021-04-06_09h30.03.646,Colour_Similarity_Experiment,2020.2.10,Win32,60,6067542a4a25243f4d7d4fcf,16.88955932,16.73737286,16.68500977,16.65834034,16.64870987,16.68500977,,,,,,,,,,,,,,,,,,,,PF,weak,3,,,,,,,,3,2.09482,,,,,,,,,,,,,,,,,,,,,,,,,,,,7,weak,-52.79998934,-95.20000786,1,0,0,response5disk,5,49,2.40001148,7.19999367,1,0,0,rectangle,2.40001148,7.19999367,1,0,0,0,6,0.00083,2.40001148,7.19999367,1,0,0,0,48,48,92,1,0,,,,,,,,,,,,,,,,,,,,,
,,,,,,,,,,,,,,,,,,,,,,,,,,,,,,,,,,,,,,,,,,5de6d5557544ea070b13d83a,606c0df0803e3e9a766e75ac,2021-04-06_09h30.03.646,Colour_Similarity_Experiment,2020.2.10,Win32,60,6067542a4a25243f4d7d4fcf,16.88955932,16.73737286,16.68500977,16.65834034,16.64870987,16.68500977,,,,,,,,,,,,,,,,,,,,PF,strong,3,,,,,,,,6,2.71083,,,,,,,,,,,,,,,,,,,,,,,,,,,,4,strong,87.20001274,55.9999944,1,0,0,response1disk,7,50,-11.99998873,-4.000006497,1,0,0,rectangle,-11.99998873,-4.000006497,1,0,0,0,1,0.000735,-11.99998873,-4.000006497,1,0,0,0,49,49,87,1,0,,,,,,,,,,,,,,,,,,,,,
,,,,,,,,,,,,,,,,,,,,,,,,,,,,,,,,,,,,,,,,,,5de6d5557544ea070b13d83a,606c0df0803e3e9a766e75ac,2021-04-06_09h30.03.646,Colour_Similarity_Experiment,2020.2.10,Win32,60,6067542a4a25243f4d7d4fcf,16.88955932,16.73737286,16.68500977,16.65834034,16.64870987,16.68500977,,,,,,,,,,,,,,,,,,,,PF,weak,3,,,,,,,,7,3.226175,,,,,,,,,,,,,,,,,,,,,,,,,,,,9,weak,56.80001229,107.9999952,1,0,0,response1disk,3,51,36.00001198,-0.800006449,1,0,0,rectangle,36.00001198,-0.800006449,1,0,0,0,2,0.000825,36.00001198,-0.800006449,1,0,0,0,50,50,119,1,0,,,,,,,,,,,,,,,,,,,,,
,,,,,,,,,,,,,,,,,,,,,,,,,,,,,,,,,,,,,,,,,,5de6d5557544ea070b13d83a,606c0df0803e3e9a766e75ac,2021-04-06_09h30.03.646,Colour_Similarity_Experiment,2020.2.10,Win32,60,6067542a4a25243f4d7d4fcf,16.88955932,16.73737286,16.68500977,16.65834034,16.64870987,16.68500977,,,,,,,,,,,,,,,,,,,,PF,strong,3,,,,,,,,3,2.27806,,,,,,,,,,,,,,,,,,,,,,,,,,,,8,strong,-39.19998914,-89.6000566,1,0,0,response5disk,1,52,11.20001161,-6.4373E-06,1,0,0,rectangle,11.20001161,-6.4373E-06,1,0,0,0,2,0.0001,11.20001161,-6.4373E-06,1,0,0,0,51,51,20,1,0,,,,,,,,,,,,,,,,,,,,,
,,,,,,,,,,,,,,,,,,,,,,,,,,,,,,,,,,,,,,,,,,5de6d5557544ea070b13d83a,606c0df0803e3e9a766e75ac,2021-04-06_09h30.03.646,Colour_Similarity_Experiment,2020.2.10,Win32,60,6067542a4a25243f4d7d4fcf,16.88955932,16.73737286,16.68500977,16.65834034,16.64870987,16.68500977,,,,,,,,,,,,,,,,,,,,PF,strong,3,,,,,,,,5,2.62732,,,,,,,,,,,,,,,,,,,,,,,,,,,,8,strong,93.60001284,-41.60000706,1,0,0,response3disk,7,53,15.20001167,-6.400006533,1,0,0,rectangle,15.20001167,-6.400006533,1,0,0,0,3,0.001355,15.20001167,-6.400006533,1,0,0,0,52,52,86,1,0,,,,,,,,,,,,,,,,,,,,,
,,,,,,,,,,,,,,,,,,,,,,,,,,,,,,,,,,,,,,,,,,5de6d5557544ea070b13d83a,606c0df0803e3e9a766e75ac,2021-04-06_09h30.03.646,Colour_Similarity_Experiment,2020.2.10,Win32,60,6067542a4a25243f4d7d4fcf,16.88955932,16.73737286,16.68500977,16.65834034,16.64870987,16.68500977,,,,,,,,,,,,,,,,,,,,PF,strong,3,,,,,,,,2,2.11111,,,,,,,,,,,,,,,,,,,,,,,,,,,,3,strong,-75.99998969,-44.00000709,1,0,0,response5disk,2,54,13.60006047,-5.600006521,1,0,0,rectangle,13.60006047,-5.600006521,1,0,0,0,0,0.00109,13.60006047,-5.600006521,1,0,0,0,53,53,93,1,0,,,,,,,,,,,,,,,,,,,,,
,,,,,,,,,,,,,,,,,,,,,,,,,,,,,,,,,,,,,,,,,,5de6d5557544ea070b13d83a,606c0df0803e3e9a766e75ac,2021-04-06_09h30.03.646,Colour_Similarity_Experiment,2020.2.10,Win32,60,6067542a4a25243f4d7d4fcf,16.88955932,16.73737286,16.68500977,16.65834034,16.64870987,16.68500977,,,,,,,,,,,,,,,,,,,,PF,strong,3,,,,,,,,6,2.42764,,,,,,,,,,,,,,,,,,,,,,,,,,,,3,strong,102.400013,54.39999437,1,0,0,response1disk,6,55,1.14441E-05,-6.400006533,1,0,0,rectangle,1.14441E-05,-6.400006533,1,0,0,0,0,0.000115,1.14441E-05,-6.400006533,1,0,0,0,54,54,95,1,0,,,,,,,,,,,,,,,,,,,,,
,,,,,,,,,,,,,,,,,,,,,,,,,,,,,,,,,,,,,,,,,,5de6d5557544ea070b13d83a,606c0df0803e3e9a766e75ac,2021-04-06_09h30.03.646,Colour_Similarity_Experiment,2020.2.10,Win32,60,6067542a4a25243f4d7d4fcf,16.88955932,16.73737286,16.68500977,16.65834034,16.64870987,16.68500977,,,,,,,,,,,,,,,,,,,,PF,strong,3,,,,,,,,5,11.585295,,,,,,,,,,,,,,,,,,,,,,,,,,,,9,strong,103.200013,-58.40000731,1,0,0,response3disk,6,56,-6.399939823,1.599993587,1,0,0,rectangle,-6.399939823,1.599993587,1,0,0,0,6,0.001005,-6.399939823,1.599993587,1,0,0,0,55,55,117,1,0,,,,,,,,,,,,,,,,,,,,,
,,,,,,,,,,,,,,,,,,,,,,,,,,,,,,,,,,,,,,,,,,5de6d5557544ea070b13d83a,606c0df0803e3e9a766e75ac,2021-04-06_09h30.03.646,Colour_Similarity_Experiment,2020.2.10,Win32,60,6067542a4a25243f4d7d4fcf,16.88955932,16.73737286,16.68500977,16.65834034,16.64870987,16.68500977,,,,,,,,,,,,,,,,,,,,PF,weak,3,,,,,,,,7,1.49867,,,,,,,,,,,,,,,,,,,,,,,,,,,,6,weak,49.60006101,92.79999495,1,0,0,response1disk,2,57,-0.799988568,1.599993587,1,0,0,rectangle,-0.799988568,1.599993587,1,0,0,0,6,9.00001E-05,-0.799988568,1.599993587,1,0,0,0,56,56,130,1,0,,,,,,,,,,,,,,,,,,,,,
,,,,,,,,,,,,,,,,,,,,,,,,,,,,,,,,,,,,,,,,,,5de6d5557544ea070b13d83a,606c0df0803e3e9a766e75ac,2021-04-06_09h30.03.646,Colour_Similarity_Experiment,2020.2.10,Win32,60,6067542a4a25243f4d7d4fcf,16.88955932,16.73737286,16.68500977,16.65834034,16.64870987,16.68500977,,,,,,,,,,,,,,,,,,,,PF,weak,3,,,,,,,,7,1.3789,,,,,,,,,,,,,,,,,,,,,,,,,,,,1,weak,52.00001222,91.19997051,1,0,0,response1disk,7,58,15.20001167,2.399993598,1,0,0,rectangle,15.20001167,2.399993598,1,0,0,0,6,0.00021,15.20001167,2.399993598,1,0,0,0,57,57,150,1,0,,,,,,,,,,,,,,,,,,,,,
,,,,,,,,,,,,,,,,,,,,,,,,,,,,,,,,,,,,,,,,,,5de6d5557544ea070b13d83a,606c0df0803e3e9a766e75ac,2021-04-06_09h30.03.646,Colour_Similarity_Experiment,2020.2.10,Win32,60,6067542a4a25243f4d7d4fcf,16.88955932,16.73737286,16.68500977,16.65834034,16.64870987,16.68500977,,,,,,,,,,,,,,,,,,,,PF,weak,3,,,,,,,,4,2.32787,,,,,,,,,,,,,,,,,,,,,,,,,,,,7,weak,41.60006089,-109.6000569,1,0,0,response3disk,8,59,8.800011575,3.999993622,1,0,0,rectangle,8.800011575,3.999993622,1,0,0,0,6,0.00021,8.800011575,3.999993622,1,0,0,0,58,58,140,1,0,,,,,,,,,,,,,,,,,,,,,
,,,,,,,,,,,,,,,,,,,,,,,,,,,,,,,,,,,,,,,,,,5de6d5557544ea070b13d83a,606c0df0803e3e9a766e75ac,2021-04-06_09h30.03.646,Colour_Similarity_Experiment,2020.2.10,Win32,60,6067542a4a25243f4d7d4fcf,16.88955932,16.73737286,16.68500977,16.65834034,16.64870987,16.68500977,,,,,,,,,,,,,,,,,,,,PF,weak,3,,,,,,,,6,3.963565,,,,,,,,,,,,,,,,,,,,,,,,,,,,4,weak,85.60001272,35.19996967,1,0,0,response1disk,7,60,22.40001178,-3.200006485,1,0,0,rectangle,22.40001178,-3.200006485,1,0,0,0,4,0.00103,22.40001178,-3.200006485,1,0,0,0,59,59,38,1,0,,,,,,,,,,,,,,,,,,,,,
,,,,,,,,,,,,,,,,,,,,,,,,,,,,,,,,,,,,,,,,,,5de6d5557544ea070b13d83a,606c0df0803e3e9a766e75ac,2021-04-06_09h30.03.646,Colour_Similarity_Experiment,2020.2.10,Win32,60,6067542a4a25243f4d7d4fcf,16.88955932,16.73737286,16.68500977,16.65834034,16.64870987,16.68500977,,,,,,,,,,,,,,,,,,,,PF,weak,3,,,,,,,,7,1.66546,,,,,,,,,,,,,,,,,,,,,,,,,,,,4,weak,46.40001214,86.39999485,1,0,0,response1disk,8,61,26.40001184,-8.000006557,1,0,0,rectangle,26.40001184,-8.000006557,1,0,0,0,1,0.001405,26.40001184,-8.000006557,1,0,0,0,60,60,124,1,0,,,,,,,,,,,,,,,,,,,,,
,,,,,,,,,,,,,,,,,,,,,,,,,,,,,,,,,,,,,,,,,,5de6d5557544ea070b13d83a,606c0df0803e3e9a766e75ac,2021-04-06_09h30.03.646,Colour_Similarity_Experiment,2020.2.10,Win32,60,6067542a4a25243f4d7d4fcf,16.88955932,16.73737286,16.68500977,16.65834034,16.64870987,16.68500977,,,,,,,,,,,,,,,,,,,,PF,strong,3,,,,,,,,3,2.111125,,,,,,,,,,,,,,,,,,,,,,,,,,,,6,strong,-27.19998896,-100.8000079,1,0,0,response5disk,2,62,9.600060415,-0.800006449,1,0,0,rectangle,9.600060415,-0.800006449,1,0,0,0,1,9.5E-05,9.600060415,-0.800006449,1,0,0,0,61,61,112,1,0,,,,,,,,,,,,,,,,,,,,,
,,,,,,,,,,,,,,,,,,,,,,,,,,,,,,,,,,,,,,,,,,5de6d5557544ea070b13d83a,606c0df0803e3e9a766e75ac,2021-04-06_09h30.03.646,Colour_Similarity_Experiment,2020.2.10,Win32,60,6067542a4a25243f4d7d4fcf,16.88955932,16.73737286,16.68500977,16.65834034,16.64870987,16.68500977,,,,,,,,,,,,,,,,,,,,PF,weak,3,,,,,,,,3,2.543745,,,,,,,,,,,,,,,,,,,,,,,,,,,,9,weak,-39.99998915,-108.8000081,1,0,0,response5disk,8,63,4.000011504,-6.4373E-06,1,0,0,rectangle,4.000011504,-6.4373E-06,1,0,0,0,1,0.00011,4.000011504,-6.4373E-06,1,0,0,0,62,62,67,1,0,,,,,,,,,,,,,,,,,,,,,
,,,,,,,,,,,,,,,,,,,,,,,,,,,,,,,,,,,,,,,,,,5de6d5557544ea070b13d83a,606c0df0803e3e9a766e75ac,2021-04-06_09h30.03.646,Colour_Similarity_Experiment,2020.2.10,Win32,60,6067542a4a25243f4d7d4fcf,16.88955932,16.73737286,16.68500977,16.65834034,16.64870987,16.68500977,,,,,,,,,,,,,,,,,,,,PF,weak,3,,,,,,,,2,2.427375,,,,,,,,,,,,,,,,,,,,,,,,,,,,8,weak,-84.79998982,-39.20000702,1,0,0,response5disk,9,64,3.200011492,7.999993682,1,0,0,rectangle,3.200011492,7.999993682,1,0,0,0,5,0.00128,3.200011492,7.999993682,1,0,0,0,63,63,42,1,0,,,,,,,,,,,,,,,,,,,,,
,,,,,,,,,,,,,,,,,,,,,,,,,,,,,,,,,,,,,,,,,,5de6d5557544ea070b13d83a,606c0df0803e3e9a766e75ac,2021-04-06_09h30.03.646,Colour_Similarity_Experiment,2020.2.10,Win32,60,6067542a4a25243f4d7d4fcf,16.88955932,16.73737286,16.68500977,16.65834034,16.64870987,16.68500977,,,,,,,,,,,,,,,,,,,,PF,strong,3,,,,,,,,3,2.494305,,,,,,,,,,,,,,,,,,,,,,,,,,,,5,strong,-33.59998906,-90.40000778,1,0,0,response5disk,1,65,11.20001161,-3.200006485,1,0,0,rectangle,11.20001161,-3.200006485,1,0,0,0,6,0.00073,11.20001161,-3.200006485,1,0,0,0,64,64,131,1,0,,,,,,,,,,,,,,,,,,,,,
,,,,,,,,,,,,,,,,,,,,,,,,,,,,,,,,,,,,,,,,,,5de6d5557544ea070b13d83a,606c0df0803e3e9a766e75ac,2021-04-06_09h30.03.646,Colour_Similarity_Experiment,2020.2.10,Win32,60,6067542a4a25243f4d7d4fcf,16.88955932,16.73737286,16.68500977,16.65834034,16.64870987,16.68500977,,,,,,,,,,,,,,,,,,,,PF,strong,3,,,,,,,,6,3.35983,,,,,,,,,,,,,,,,,,,,,,,,,,,,2,strong,101.600013,39.19996973,1,0,0,response1disk,6,66,-16.79998881,0.799993575,1,0,0,rectangle,-16.79998881,0.799993575,1,0,0,0,3,0.000725,-16.79998881,0.799993575,1,0,0,0,65,65,40,1,0,,,,,,,,,,,,,,,,,,,,,
,,,,,,,,,,,,,,,,,,,,,,,,,,,,,,,,,,,,,,,,,,5de6d5557544ea070b13d83a,606c0df0803e3e9a766e75ac,2021-04-06_09h30.03.646,Colour_Similarity_Experiment,2020.2.10,Win32,60,6067542a4a25243f4d7d4fcf,16.88955932,16.73737286,16.68500977,16.65834034,16.64870987,16.68500977,,,,,,,,,,,,,,,,,,,,PF,strong,3,,,,,,,,5,11.701955,,,,,,,,,,,,,,,,,,,,,,,,,,,,2,strong,71.20001251,-53.60000724,1,0,0,response3disk,3,67,8.800011575,-7.200006545,1,0,0,rectangle,45.60006095,-108.000008,1,0,0,4,4,2.83016,-10.39993988,4.799993634,1,0,0,0,66,66,104,1,1,response3disk_3,rectangle,,,,,,,,,,,,,,,,,,,
,,,,,,,,,,,,,,,,,,,,,,,,,,,,,,,,,,,,,,,,,,5de6d5557544ea070b13d83a,606c0df0803e3e9a766e75ac,2021-04-06_09h30.03.646,Colour_Similarity_Experiment,2020.2.10,Win32,60,6067542a4a25243f4d7d4fcf,16.88955932,16.73737286,16.68500977,16.65834034,16.64870987,16.68500977,,,,,,,,,,,,,,,,,,,,PF,weak,3,,,,,,,,3,1.744865,,,,,,,,,,,,,,,,,,,,,,,,,,,,1,weak,-32.79998904,-105.6000568,1,0,0,response5disk,9,68,9.600060415,-2.400006473,1,0,0,rectangle,9.600060415,-2.400006473,1,0,0,4,1,0.000835,9.600060415,-2.400006473,1,0,0,0,67,67,15,1,0,,,,,,,,,,,,,,,,,,,,,
,,,,,,,,,,,,,,,,,,,,,,,,,,,,,,,,,,,,,,,,,,5de6d5557544ea070b13d83a,606c0df0803e3e9a766e75ac,2021-04-06_09h30.03.646,Colour_Similarity_Experiment,2020.2.10,Win32,60,6067542a4a25243f4d7d4fcf,16.88955932,16.73737286,16.68500977,16.65834034,16.64870987,16.68500977,,,,,,,,,,,,,,,,,,,,PF,strong,3,,,,,,,,5,2.92704,,,,,,,,,,,,,,,,,,,,,,,,,,,,3,strong,122.4000133,-44.00000709,1,0,0,response3disk,7,69,-9.599988699,6.399993658,1,0,0,rectangle,-9.599988699,6.399993658,1,0,0,4,0,0.00118,-9.599988699,6.399993658,1,0,0,0,68,68,118,1,0,,,,,,,,,,,,,,,,,,,,,
,,,,,,,,,,,,,,,,,,,,,,,,,,,,,,,,,,,,,,,,,,5de6d5557544ea070b13d83a,606c0df0803e3e9a766e75ac,2021-04-06_09h30.03.646,Colour_Similarity_Experiment,2020.2.10,Win32,60,6067542a4a25243f4d7d4fcf,16.88955932,16.73737286,16.68500977,16.65834034,16.64870987,16.68500977,,,,,,,,,,,,,,,,,,,,PF,weak,3,,,,,,,,5,2.810525,,,,,,,,,,,,,,,,,,,,,,,,,,,,3,weak,112.8000131,-35.20000696,1,0,0,response3disk,1,70,12.80001163,-3.200006485,1,0,0,rectangle,12.80001163,-3.200006485,1,0,0,4,5,0.0007,12.80001163,-3.200006485,1,0,0,0,69,69,96,1,0,,,,,,,,,,,,,,,,,,,,,
,,,,,,,,,,,,,,,,,,,,,,,,,,,,,,,,,,,,,,,,,,5de6d5557544ea070b13d83a,606c0df0803e3e9a766e75ac,2021-04-06_09h30.03.646,Colour_Similarity_Experiment,2020.2.10,Win32,60,6067542a4a25243f4d7d4fcf,16.88955932,16.73737286,16.68500977,16.65834034,16.64870987,16.68500977,,,,,,,,,,,,,,,,,,,,PF,weak,3,,,,,,,,3,1.832395,,,,,,,,,,,,,,,,,,,,,,,,,,,,4,weak,-49.5999893,-113.600057,1,0,0,response5disk,6,71,5.600060356,-8.800006568,1,0,0,rectangle,5.600060356,-8.800006568,1,0,0,4,0,0.000715,5.600060356,-8.800006568,1,0,0,0,70,70,120,1,0,,,,,,,,,,,,,,,,,,,,,
,,,,,,,,,,,,,,,,,,,,,,,,,,,,,,,,,,,,,,,,,,5de6d5557544ea070b13d83a,606c0df0803e3e9a766e75ac,2021-04-06_09h30.03.646,Colour_Similarity_Experiment,2020.2.10,Win32,60,6067542a4a25243f4d7d4fcf,16.88955932,16.73737286,16.68500977,16.65834034,16.64870987,16.68500977,,,,,,,,,,,,,,,,,,,,PF,strong,3,,,,,,,,7,7.82242,,,,,,,,,,,,,,,,,,,,,,,,,,,,7,strong,62.40001237,92.79999495,1,0,0,response1disk,1,72,28.80001187,6.399993658,1,0,0,rectangle,28.80001187,6.399993658,1,0,0,4,1,0.00101,28.80001187,6.399993658,1,0,0,0,71,71,132,1,0,,,,,,,,,,,,,,,,,,,,,
,,,,,,,,,,,,,,,,,,,,,,,,,,,,,,,,,,,,,,,,,,5de6d5557544ea070b13d83a,606c0df0803e3e9a766e75ac,2021-04-06_09h30.03.646,Colour_Similarity_Experiment,2020.2.10,Win32,60,6067542a4a25243f4d7d4fcf,16.88955932,16.73737286,16.68500977,16.65834034,16.64870987,16.68500977,,,,,,,,,,,,,,,,,,,,PF,weak,3,,,,,,,,0,2.01133,,,,,,,,,,,,,,,,,,,,,,,,,,,,5,weak,-43.99998921,74.39999467,1,0,0,response7disk,4,73,-4.799988627,-0.800006449,1,0,0,rectangle,-4.799988627,-0.800006449,1,0,0,4,0,0.00153,-4.799988627,-0.800006449,1,0,0,0,72,72,54,1,0,,,,,,,,,,,,,,,,,,,,,
,,,,,,,,,,,,,,,,,,,,,,,,,,,,,,,,,,,,,,,,,,5de6d5557544ea070b13d83a,606c0df0803e3e9a766e75ac,2021-04-06_09h30.03.646,Colour_Similarity_Experiment,2020.2.10,Win32,60,6067542a4a25243f4d7d4fcf,16.88955932,16.73737286,16.68500977,16.65834034,16.64870987,16.68500977,,,,,,,,,,,,,,,,,,,,PF,strong,3,,,,,,,,2,2.24454,,,,,,,,,,,,,,,,,,,,,,,,,,,,2,strong,-78.3999409,-40.80000705,1,0,0,response5disk,7,74,-1.59998858,-4.000006497,1,0,0,rectangle,-1.59998858,-4.000006497,1,0,0,4,0,0.00021,-1.59998858,-4.000006497,1,0,0,0,73,73,63,1,0,,,,,,,,,,,,,,,,,,,,,
,,,,,,,,,,,,,,,,,,,,,,,,,,,,,,,,,,,,,,,,,,5de6d5557544ea070b13d83a,606c0df0803e3e9a766e75ac,2021-04-06_09h30.03.646,Colour_Similarity_Experiment,2020.2.10,Win32,60,6067542a4a25243f4d7d4fcf,16.88955932,16.73737286,16.68500977,16.65834034,16.64870987,16.68500977,,,,,,,,,,,,,,,,,,,,PF,weak,3,,,,,,,,7,1.3118,,,,,,,,,,,,,,,,,,,,,,,,,,,,7,weak,51.20001221,75.19997027,1,0,0,response1disk,9,75,20.00001174,-11.2000066,1,0,0,rectangle,20.00001174,-11.2000066,1,0,0,4,1,0.00137,20.00001174,-11.2000066,1,0,0,0,74,74,10,1,0,,,,,,,,,,,,,,,,,,,,,
,,,,,,,,,,,,,,,,,,,,,,,,,,,,,,,,,,,,,,,,,,5de6d5557544ea070b13d83a,606c0df0803e3e9a766e75ac,2021-04-06_09h30.03.646,Colour_Similarity_Experiment,2020.2.10,Win32,60,6067542a4a25243f4d7d4fcf,16.88955932,16.73737286,16.68500977,16.65834034,16.64870987,16.68500977,,,,,,,,,,,,,,,,,,,,PF,strong,3,,,,,,,,1,2.52742,,,,,,,,,,,,,,,,,,,,,,,,,,,,2,strong,-96.79999,39.19996973,1,0,0,response7disk,5,76,11.20001161,-4.000006497,1,0,0,rectangle,11.20001161,-4.000006497,1,0,0,4,6,0.00077,11.20001161,-4.000006497,1,0,0,0,75,75,80,1,0,,,,,,,,,,,,,,,,,,,,,
,,,,,,,,,,,,,,,,,,,,,,,,,,,,,,,,,,,,,,,,,,5de6d5557544ea070b13d83a,606c0df0803e3e9a766e75ac,2021-04-06_09h30.03.646,Colour_Similarity_Experiment,2020.2.10,Win32,60,6067542a4a25243f4d7d4fcf,16.88955932,16.73737286,16.68500977,16.65834034,16.64870987,16.68500977,,,,,,,,,,,,,,,,,,,,PF,strong,3,,,,,,,,3,2.177765,,,,,,,,,,,,,,,,,,,,,,,,,,,,6,strong,-42.39994036,-84.8000077,1,0,0,response5disk,3,77,9.600060415,-3.200006485,1,0,0,rectangle,9.600060415,-3.200006485,1,0,0,4,0,0.000845,9.600060415,-3.200006485,1,0,0,0,76,76,21,1,0,,,,,,,,,,,,,,,,,,,,,
,,,,,,,,,,,,,,,,,,,,,,,,,,,,,,,,,,,,,,,,,,5de6d5557544ea070b13d83a,606c0df0803e3e9a766e75ac,2021-04-06_09h30.03.646,Colour_Similarity_Experiment,2020.2.10,Win32,60,6067542a4a25243f4d7d4fcf,16.88955932,16.73737286,16.68500977,16.65834034,16.64870987,16.68500977,,,,,,,,,,,,,,,,,,,,PF,weak,3,,,,,,,,7,1.344845,,,,,,,,,,,,,,,,,,,,,,,,,,,,3,weak,43.20001209,80.79999477,1,0,0,response1disk,8,78,20.80001175,1.599993587,1,0,0,rectangle,20.80001175,1.599993587,1,0,0,4,0,9.99999E-05,20.80001175,1.599993587,1,0,0,0,77,77,3,1,0,,,,,,,,,,,,,,,,,,,,,
,,,,,,,,,,,,,,,,,,,,,,,,,,,,,,,,,,,,,,,,,,5de6d5557544ea070b13d83a,606c0df0803e3e9a766e75ac,2021-04-06_09h30.03.646,Colour_Similarity_Experiment,2020.2.10,Win32,60,6067542a4a25243f4d7d4fcf,16.88955932,16.73737286,16.68500977,16.65834034,16.64870987,16.68500977,,,,,,,,,,,,,,,,,,,,PF,weak,3,,,,,,,,5,2.794125,,,,,,,,,,,,,,,,,,,,,,,,,,,,2,weak,98.40001291,-45.60000712,1,0,0,response3disk,4,79,20.00001174,-4.000006497,1,0,0,rectangle,20.00001174,-4.000006497,1,0,0,4,2,0.000735,20.00001174,-4.000006497,1,0,0,0,78,78,127,1,0,,,,,,,,,,,,,,,,,,,,,
,,,,,,,,,,,,,,,,,,,,,,,,,,,,,,,,,,,,,,,,,,5de6d5557544ea070b13d83a,606c0df0803e3e9a766e75ac,2021-04-06_09h30.03.646,Colour_Similarity_Experiment,2020.2.10,Win32,60,6067542a4a25243f4d7d4fcf,16.88955932,16.73737286,16.68500977,16.65834034,16.64870987,16.68500977,,,,,,,,,,,,,,,,,,,,PF,weak,3,,,,,,,,3,2.910215,,,,,,,,,,,,,,,,,,,,,,,,,,,,2,weak,-55.19998938,-100.0000079,1,0,0,response5disk,1,80,7.200011551,-0.800006449,1,0,0,rectangle,7.200011551,-0.800006449,1,0,0,4,5,0.000735,7.200011551,-0.800006449,1,0,0,0,79,79,9,1,0,,,,,,,,,,,,,,,,,,,,,
,,,,,,,,,,,,,,,,,,,,,,,,,,,,,,,,,,,,,,,,,,5de6d5557544ea070b13d83a,606c0df0803e3e9a766e75ac,2021-04-06_09h30.03.646,Colour_Similarity_Experiment,2020.2.10,Win32,60,6067542a4a25243f4d7d4fcf,16.88955932,16.73737286,16.68500977,16.65834034,16.64870987,16.68500977,,,,,,,,,,,,,,,,,,,,PF,strong,3,,,,,,,,2,2.744265,,,,,,,,,,,,,,,,,,,,,,,,,,,,7,strong,-82.39994096,-30.40000689,1,0,0,response5disk,2,81,19.20001173,-8.800006568,1,0,0,rectangle,19.20001173,-8.800006568,1,0,0,4,2,0.000935,19.20001173,-8.800006568,1,0,0,0,80,80,138,1,0,,,,,,,,,,,,,,,,,,,,,
,,,,,,,,,,,,,,,,,,,,,,,,,,,,,,,,,,,,,,,,,,5de6d5557544ea070b13d83a,606c0df0803e3e9a766e75ac,2021-04-06_09h30.03.646,Colour_Similarity_Experiment,2020.2.10,Win32,60,6067542a4a25243f4d7d4fcf,16.88955932,16.73737286,16.68500977,16.65834034,16.64870987,16.68500977,,,,,,,,,,,,,,,,,,,,PF,strong,3,,,,,,,,2,2.97718,,,,,,,,,,,,,,,,,,,,,,,,,,,,2,strong,-87.19998986,-48.00000715,1,0,0,response5disk,4,82,17.60006053,-0.800006449,1,0,0,rectangle,17.60006053,-0.800006449,1,0,0,4,4,0.000725,17.60006053,-0.800006449,1,0,0,0,81,81,145,1,0,,,,,,,,,,,,,,,,,,,,,
,,,,,,,,,,,,,,,,,,,,,,,,,,,,,,,,,,,,,,,,,,5de6d5557544ea070b13d83a,606c0df0803e3e9a766e75ac,2021-04-06_09h30.03.646,Colour_Similarity_Experiment,2020.2.10,Win32,60,6067542a4a25243f4d7d4fcf,16.88955932,16.73737286,16.68500977,16.65834034,16.64870987,16.68500977,,,,,,,,,,,,,,,,,,,,PF,weak,3,,,,,,,,7,1.36541,,,,,,,,,,,,,,,,,,,,,,,,,,,,2,weak,52.80001223,89.5999949,1,0,0,response1disk,8,83,19.20001173,-4.800006509,1,0,0,rectangle,19.20001173,-4.800006509,1,0,0,4,0,0.001555,19.20001173,-4.800006509,1,0,0,0,82,82,52,1,0,,,,,,,,,,,,,,,,,,,,,
,,,,,,,,,,,,,,,,,,,,,,,,,,,,,,,,,,,,,,,,,,5de6d5557544ea070b13d83a,606c0df0803e3e9a766e75ac,2021-04-06_09h30.03.646,Colour_Similarity_Experiment,2020.2.10,Win32,60,6067542a4a25243f4d7d4fcf,16.88955932,16.73737286,16.68500977,16.65834034,16.64870987,16.68500977,,,,,,,,,,,,,,,,,,,,PF,strong,3,,,,,,,,4,3.17666,,,,,,,,,,,,,,,,,,,,,,,,,,,,3,strong,46.40001214,-97.60005672,1,0,0,response3disk,5,84,1.600060296,0.799993575,1,0,0,rectangle,1.600060296,0.799993575,1,0,0,4,6,0.001,1.600060296,0.799993575,1,0,0,0,83,83,101,1,0,,,,,,,,,,,,,,,,,,,,,
,,,,,,,,,,,,,,,,,,,,,,,,,,,,,,,,,,,,,,,,,,5de6d5557544ea070b13d83a,606c0df0803e3e9a766e75ac,2021-04-06_09h30.03.646,Colour_Similarity_Experiment,2020.2.10,Win32,60,6067542a4a25243f4d7d4fcf,16.88955932,16.73737286,16.68500977,16.65834034,16.64870987,16.68500977,,,,,,,,,,,,,,,,,,,,PF,strong,3,,,,,,,,2,1.81139,,,,,,,,,,,,,,,,,,,,,,,,,,,,1,strong,-87.19998986,-47.20000714,1,0,0,response5disk,1,85,9.600060415,-6.4373E-06,1,0,0,rectangle,9.600060415,-6.4373E-06,1,0,0,4,1,0.00073,9.600060415,-6.4373E-06,1,0,0,0,84,84,151,1,0,,,,,,,,,,,,,,,,,,,,,
,,,,,,,,,,,,,,,,,,,,,,,,,,,,,,,,,,,,,,,,,,5de6d5557544ea070b13d83a,606c0df0803e3e9a766e75ac,2021-04-06_09h30.03.646,Colour_Similarity_Experiment,2020.2.10,Win32,60,6067542a4a25243f4d7d4fcf,16.88955932,16.73737286,16.68500977,16.65834034,16.64870987,16.68500977,,,,,,,,,,,,,,,,,,,,PF,strong,3,,,,,,,,4,3.43045,,,,,,,,,,,,,,,,,,,,,,,,,,,,3,strong,46.40001214,-84.00000769,1,0,0,response3disk,1,86,11.20001161,10.39999372,1,0,0,rectangle,11.20001161,10.39999372,1,0,0,4,3,0.001075,11.20001161,10.39999372,1,0,0,0,85,85,125,1,0,,,,,,,,,,,,,,,,,,,,,
,,,,,,,,,,,,,,,,,,,,,,,,,,,,,,,,,,,,,,,,,,5de6d5557544ea070b13d83a,606c0df0803e3e9a766e75ac,2021-04-06_09h30.03.646,Colour_Similarity_Experiment,2020.2.10,Win32,60,6067542a4a25243f4d7d4fcf,16.88955932,16.73737286,16.68500977,16.65834034,16.64870987,16.68500977,,,,,,,,,,,,,,,,,,,,PF,strong,3,,,,,,,,3,1.794675,,,,,,,,,,,,,,,,,,,,,,,,,,,,5,strong,-53.59998935,-94.40000784,1,0,0,response5disk,3,87,6.400011539,3.999993622,1,0,0,rectangle,6.400011539,3.999993622,1,0,0,4,1,0.001275,6.400011539,3.999993622,1,0,0,0,86,86,25,1,0,,,,,,,,,,,,,,,,,,,,,
,,,,,,,,,,,,,,,,,,,,,,,,,,,,,,,,,,,,,,,,,,5de6d5557544ea070b13d83a,606c0df0803e3e9a766e75ac,2021-04-06_09h30.03.646,Colour_Similarity_Experiment,2020.2.10,Win32,60,6067542a4a25243f4d7d4fcf,16.88955932,16.73737286,16.68500977,16.65834034,16.64870987,16.68500977,,,,,,,,,,,,,,,,,,,,PF,strong,3,,,,,,,,4,3.643085,,,,,,,,,,,,,,,,,,,,,,,,,,,,4,strong,31.20001191,-89.6000566,1,0,0,response3disk,4,88,12.00001162,3.999993622,1,0,0,rectangle,12.00001162,3.999993622,1,0,0,4,1,0.00016,12.00001162,3.999993622,1,0,0,0,87,87,84,1,0,,,,,,,,,,,,,,,,,,,,,
,,,,,,,,,,,,,,,,,,,,,,,,,,,,,,,,,,,,,,,,,,5de6d5557544ea070b13d83a,606c0df0803e3e9a766e75ac,2021-04-06_09h30.03.646,Colour_Similarity_Experiment,2020.2.10,Win32,60,6067542a4a25243f4d7d4fcf,16.88955932,16.73737286,16.68500977,16.65834034,16.64870987,16.68500977,,,,,,,,,,,,,,,,,,,,PF,strong,3,,,,,,,,3,3.676615,,,,,,,,,,,,,,,,,,,,,,,,,,,,6,strong,-55.19998938,-101.6000568,1,0,0,response5disk,4,89,4.800011516,3.19999361,1,0,0,rectangle,4.800011516,3.19999361,1,0,0,4,2,0.00074,4.800011516,3.19999361,1,0,0,0,88,88,56,1,0,,,,,,,,,,,,,,,,,,,,,
,,,,,,,,,,,,,,,,,,,,,,,,,,,,,,,,,,,,,,,,,,5de6d5557544ea070b13d83a,606c0df0803e3e9a766e75ac,2021-04-06_09h30.03.646,Colour_Similarity_Experiment,2020.2.10,Win32,60,6067542a4a25243f4d7d4fcf,16.88955932,16.73737286,16.68500977,16.65834034,16.64870987,16.68500977,,,,,,,,,,,,,,,,,,,,PF,strong,3,,,,,,,,4,2.87692,,,,,,,,,,,,,,,,,,,,,,,,,,,,9,strong,84.80001271,-108.8000081,1,0,0,response3disk,3,90,-5.599988639,10.39999372,1,0,0,rectangle,-5.599988639,10.39999372,1,0,0,4,5,0.000765,-5.599988639,10.39999372,1,0,0,0,89,89,141,1,0,,,,,,,,,,,,,,,,,,,,,
,,,,,,,,,,,,,,,,,,,,,,,,,,,,,,,,,,,,,,,,,,5de6d5557544ea070b13d83a,606c0df0803e3e9a766e75ac,2021-04-06_09h30.03.646,Colour_Similarity_Experiment,2020.2.10,Win32,60,6067542a4a25243f4d7d4fcf,16.88955932,16.73737286,16.68500977,16.65834034,16.64870987,16.68500977,,,,,,,,,,,,,,,,,,,,PF,strong,3,,,,,,,,3,1.944305,,,,,,,,,,,,,,,,,,,,,,,,,,,,5,strong,-51.99998933,-92.00000781,1,0,0,response5disk,2,91,-0.799988568,-2.400006473,1,0,0,rectangle,99.20001292,53.59999436,1,0,0,6,6,2.06818,-7.999988675,-4.000006497,1,0,0,0,90,90,55,1,1,response1disk_3,rectangle,,,,,,,,,,,,,,,,,,,
,,,,,,,,,,,,,,,,,,,,,,,,,,,,,,,,,,,,,,,,,,5de6d5557544ea070b13d83a,606c0df0803e3e9a766e75ac,2021-04-06_09h30.03.646,Colour_Similarity_Experiment,2020.2.10,Win32,60,6067542a4a25243f4d7d4fcf,16.88955932,16.73737286,16.68500977,16.65834034,16.64870987,16.68500977,,,,,,,,,,,,,,,,,,,,PF,strong,3,,,,,,,,5,2.6605,,,,,,,,,,,,,,,,,,,,,,,,,,,,2,strong,96.80001289,-46.40000713,1,0,0,response3disk,9,92,7.200011551,-1.600006461,1,0,0,rectangle,7.200011551,-1.600006461,1,0,0,6,4,0.00081,7.200011551,-1.600006461,1,0,0,0,91,91,72,1,0,,,,,,,,,,,,,,,,,,,,,
,,,,,,,,,,,,,,,,,,,,,,,,,,,,,,,,,,,,,,,,,,5de6d5557544ea070b13d83a,606c0df0803e3e9a766e75ac,2021-04-06_09h30.03.646,Colour_Similarity_Experiment,2020.2.10,Win32,60,6067542a4a25243f4d7d4fcf,16.88955932,16.73737286,16.68500977,16.65834034,16.64870987,16.68500977,,,,,,,,,,,,,,,,,,,,PF,strong,3,,,,,,,,4,2.29798,,,,,,,,,,,,,,,,,,,,,,,,,,,,1,strong,67.20001245,-92.80000782,1,0,0,response3disk,3,93,1.14441E-05,-2.400006473,1,0,0,rectangle,1.14441E-05,-2.400006473,1,0,0,6,6,0.000705,1.14441E-05,-2.400006473,1,0,0,0,92,92,99,1,0,,,,,,,,,,,,,,,,,,,,,
,,,,,,,,,,,,,,,,,,,,,,,,,,,,,,,,,,,,,,,,,,5de6d5557544ea070b13d83a,606c0df0803e3e9a766e75ac,2021-04-06_09h30.03.646,Colour_Similarity_Experiment,2020.2.10,Win32,60,6067542a4a25243f4d7d4fcf,16.88955932,16.73737286,16.68500977,16.65834034,16.64870987,16.68500977,,,,,,,,,,,,,,,,,,,,PF,strong,3,,,,,,,,7,3.27701,,,,,,,,,,,,,,,,,,,,,,,,,,,,8,strong,46.40001214,116.7999953,1,0,0,response1disk,5,94,16.00001168,-12.00000662,1,0,0,rectangle,16.00001168,-12.00000662,1,0,0,6,6,9.49999E-05,16.00001168,-12.00000662,1,0,0,0,93,93,152,1,0,,,,,,,,,,,,,,,,,,,,,
,,,,,,,,,,,,,,,,,,,,,,,,,,,,,,,,,,,,,,,,,,5de6d5557544ea070b13d83a,606c0df0803e3e9a766e75ac,2021-04-06_09h30.03.646,Colour_Similarity_Experiment,2020.2.10,Win32,60,6067542a4a25243f4d7d4fcf,16.88955932,16.73737286,16.68500977,16.65834034,16.64870987,16.68500977,,,,,,,,,,,,,,,,,,,,PF,weak,3,,,,,,,,7,1.36157,,,,,,,,,,,,,,,,,,,,,,,,,,,,3,weak,32.00001192,87.19997045,1,0,0,response1disk,7,95,20.80001175,-0.800006449,1,0,0,rectangle,20.80001175,-0.800006449,1,0,0,6,1,0.001155,20.80001175,-0.800006449,1,0,0,0,94,94,41,1,0,,,,,,,,,,,,,,,,,,,,,
,,,,,,,,,,,,,,,,,,,,,,,,,,,,,,,,,,,,,,,,,,5de6d5557544ea070b13d83a,606c0df0803e3e9a766e75ac,2021-04-06_09h30.03.646,Colour_Similarity_Experiment,2020.2.10,Win32,60,6067542a4a25243f4d7d4fcf,16.88955932,16.73737286,16.68500977,16.65834034,16.64870987,16.68500977,,,,,,,,,,,,,,,,,,,,PF,weak,3,,,,,,,,0,1.69483,,,,,,,,,,,,,,,,,,,,,,,,,,,,9,weak,-42.39994036,87.19997045,1,0,0,response7disk,9,96,16.80001169,-4.000006497,1,0,0,rectangle,16.80001169,-4.000006497,1,0,0,6,0,0.001565,16.80001169,-4.000006497,1,0,0,0,95,95,106,1,0,,,,,,,,,,,,,,,,,,,,,
,,,,,,,,,,,,,,,,,,,,,,,,,,,,,,,,,,,,,,,,,,5de6d5557544ea070b13d83a,606c0df0803e3e9a766e75ac,2021-04-06_09h30.03.646,Colour_Similarity_Experiment,2020.2.10,Win32,60,6067542a4a25243f4d7d4fcf,16.88955932,16.73737286,16.68500977,16.65834034,16.64870987,16.68500977,,,,,,,,,,,,,,,,,,,,PF,strong,3,,,,,,,,4,2.794295,,,,,,,,,,,,,,,,,,,,,,,,,,,,5,strong,41.60006089,-97.60005672,1,0,0,response3disk,5,97,0.800011456,-8.000006557,1,0,0,rectangle,0.800011456,-8.000006557,1,0,0,6,0,0.000545,0.800011456,-8.000006557,1,0,0,0,96,96,19,1,0,,,,,,,,,,,,,,,,,,,,,
,,,,,,,,,,,,,,,,,,,,,,,,,,,,,,,,,,,,,,,,,,5de6d5557544ea070b13d83a,606c0df0803e3e9a766e75ac,2021-04-06_09h30.03.646,Colour_Similarity_Experiment,2020.2.10,Win32,60,6067542a4a25243f4d7d4fcf,16.88955932,16.73737286,16.68500977,16.65834034,16.64870987,16.68500977,,,,,,,,,,,,,,,,,,,,PF,strong,3,,,,,,,,3,2.21106,,,,,,,,,,,,,,,,,,,,,,,,,,,,6,strong,-47.19998926,-94.40000784,1,0,0,response5disk,6,98,5.600060356,3.19999361,1,0,0,rectangle,5.600060356,3.19999361,1,0,0,6,7,0.000705,5.600060356,3.19999361,1,0,0,0,97,97,91,1,0,,,,,,,,,,,,,,,,,,,,,
,,,,,,,,,,,,,,,,,,,,,,,,,,,,,,,,,,,,,,,,,,5de6d5557544ea070b13d83a,606c0df0803e3e9a766e75ac,2021-04-06_09h30.03.646,Colour_Similarity_Experiment,2020.2.10,Win32,60,6067542a4a25243f4d7d4fcf,16.88955932,16.73737286,16.68500977,16.65834034,16.64870987,16.68500977,,,,,,,,,,,,,,,,,,,,PF,strong,3,,,,,,,,7,2.01105,,,,,,,,,,,,,,,,,,,,,,,,,,,,1,strong,40.80001205,93.59999496,1,0,0,response1disk,6,99,15.20001167,-6.4373E-06,1,0,0,rectangle,15.20001167,-6.4373E-06,1,0,0,6,5,0.001005,15.20001167,-6.4373E-06,1,0,0,0,98,98,58,1,0,,,,,,,,,,,,,,,,,,,,,
,,,,,,,,,,,,,,,,,,,,,,,,,,,,,,,,,,,,,,,,,,5de6d5557544ea070b13d83a,606c0df0803e3e9a766e75ac,2021-04-06_09h30.03.646,Colour_Similarity_Experiment,2020.2.10,Win32,60,6067542a4a25243f4d7d4fcf,16.88955932,16.73737286,16.68500977,16.65834034,16.64870987,16.68500977,,,,,,,,,,,,,,,,,,,,PF,strong,3,,,,,,,,4,2.810765,,,,,,,,,,,,,,,,,,,,,,,,,,,,1,strong,45.60006095,-85.60005654,1,0,0,response3disk,4,100,6.400011539,-4.800006509,1,0,0,rectangle,6.400011539,-4.800006509,1,0,0,6,7,0.000775,6.400011539,-4.800006509,1,0,0,0,99,99,135,1,0,,,,,,,,,,,,,,,,,,,,,
,,,,,,,,,,,,,,,,,,,,,,,,,,,,,,,,,,,,,,,,,,5de6d5557544ea070b13d83a,606c0df0803e3e9a766e75ac,2021-04-06_09h30.03.646,Colour_Similarity_Experiment,2020.2.10,Win32,60,6067542a4a25243f4d7d4fcf,16.88955932,16.73737286,16.68500977,16.65834034,16.64870987,16.68500977,,,,,,,,,,,,,,,,,,,,PF,weak,3,,,,,,,,2,1.744925,,,,,,,,,,,,,,,,,,,,,,,,,,,,9,weak,-104.7999901,-47.20000714,1,0,0,response5disk,1,101,12.00001162,7.999993682,1,0,0,rectangle,12.00001162,7.999993682,1,0,0,6,6,0.00129,12.00001162,7.999993682,1,0,0,0,100,100,74,1,0,,,,,,,,,,,,,,,,,,,,,
,,,,,,,,,,,,,,,,,,,,,,,,,,,,,,,,,,,,,,,,,,5de6d5557544ea070b13d83a,606c0df0803e3e9a766e75ac,2021-04-06_09h30.03.646,Colour_Similarity_Experiment,2020.2.10,Win32,60,6067542a4a25243f4d7d4fcf,16.88955932,16.73737286,16.68500977,16.65834034,16.64870987,16.68500977,,,,,,,,,,,,,,,,,,,,PF,strong,3,,,,,,,,4,2.593755,,,,,,,,,,,,,,,,,,,,,,,,,,,,4,strong,45.60006095,-96.80000788,1,0,0,response3disk,6,102,8.800011575,3.999993622,1,0,0,rectangle,8.800011575,3.999993622,1,0,0,6,6,9.5E-05,8.800011575,3.999993622,1,0,0,0,101,101,122,1,0,,,,,,,,,,,,,,,,,,,,,
,,,,,,,,,,,,,,,,,,,,,,,,,,,,,,,,,,,,,,,,,,5de6d5557544ea070b13d83a,606c0df0803e3e9a766e75ac,2021-04-06_09h30.03.646,Colour_Similarity_Experiment,2020.2.10,Win32,60,6067542a4a25243f4d7d4fcf,16.88955932,16.73737286,16.68500977,16.65834034,16.64870987,16.68500977,,,,,,,,,,,,,,,,,,,,PF,weak,3,,,,,,,,7,1.21537,,,,,,,,,,,,,,,,,,,,,,,,,,,,1,weak,40.00001204,94.39999497,1,0,0,response1disk,5,103,24.80001181,1.599993587,1,0,0,rectangle,24.80001181,1.599993587,1,0,0,6,4,0.00092,24.80001181,1.599993587,1,0,0,0,102,102,28,1,0,,,,,,,,,,,,,,,,,,,,,
,,,,,,,,,,,,,,,,,,,,,,,,,,,,,,,,,,,,,,,,,,5de6d5557544ea070b13d83a,606c0df0803e3e9a766e75ac,2021-04-06_09h30.03.646,Colour_Similarity_Experiment,2020.2.10,Win32,60,6067542a4a25243f4d7d4fcf,16.88955932,16.73737286,16.68500977,16.65834034,16.64870987,16.68500977,,,,,,,,,,,,,,,,,,,,PF,strong,3,,,,,,,,3,2.44426,,,,,,,,,,,,,,,,,,,,,,,,,,,,7,strong,-30.39994018,-88.80000776,1,0,0,response5disk,5,104,9.600060415,-9.60000658,1,0,0,rectangle,9.600060415,-9.60000658,1,0,0,6,3,0.001005,9.600060415,-9.60000658,1,0,0,0,103,103,156,1,0,,,,,,,,,,,,,,,,,,,,,
,,,,,,,,,,,,,,,,,,,,,,,,,,,,,,,,,,,,,,,,,,5de6d5557544ea070b13d83a,606c0df0803e3e9a766e75ac,2021-04-06_09h30.03.646,Colour_Similarity_Experiment,2020.2.10,Win32,60,6067542a4a25243f4d7d4fcf,16.88955932,16.73737286,16.68500977,16.65834034,16.64870987,16.68500977,,,,,,,,,,,,,,,,,,,,PF,strong,3,,,,,,,,4,2.577285,,,,,,,,,,,,,,,,,,,,,,,,,,,,2,strong,51.20001221,-84.8000077,1,0,0,response3disk,1,105,12.00001162,-4.800006509,1,0,0,rectangle,12.00001162,-4.800006509,1,0,0,6,5,0.000695,12.00001162,-4.800006509,1,0,0,0,104,104,85,1,0,,,,,,,,,,,,,,,,,,,,,
,,,,,,,,,,,,,,,,,,,,,,,,,,,,,,,,,,,,,,,,,,5de6d5557544ea070b13d83a,606c0df0803e3e9a766e75ac,2021-04-06_09h30.03.646,Colour_Similarity_Experiment,2020.2.10,Win32,60,6067542a4a25243f4d7d4fcf,16.88955932,16.73737286,16.68500977,16.65834034,16.64870987,16.68500977,,,,,,,,,,,,,,,,,,,,PF,weak,3,,,,,,,,2,2.64424,,,,,,,,,,,,,,,,,,,,,,,,,,,,5,weak,-82.39994096,-41.60000706,1,0,0,response5disk,6,106,30.4000119,7.19999367,1,0,0,rectangle,30.4000119,7.19999367,1,0,0,6,5,0.00011,30.4000119,7.19999367,1,0,0,0,105,105,103,1,0,,,,,,,,,,,,,,,,,,,,,
,,,,,,,,,,,,,,,,,,,,,,,,,,,,,,,,,,,,,,,,,,5de6d5557544ea070b13d83a,606c0df0803e3e9a766e75ac,2021-04-06_09h30.03.646,Colour_Similarity_Experiment,2020.2.10,Win32,60,6067542a4a25243f4d7d4fcf,16.88955932,16.73737286,16.68500977,16.65834034,16.64870987,16.68500977,,,,,,,,,,,,,,,,,,,,PF,weak,3,,,,,,,,7,1.14558,,,,,,,,,,,,,,,,,,,,,,,,,,,,4,weak,52.80001223,88.79999489,1,0,0,response1disk,1,107,20.80001175,-0.800006449,1,0,0,rectangle,20.80001175,-0.800006449,1,0,0,6,2,0.000715,20.80001175,-0.800006449,1,0,0,0,106,106,115,1,0,,,,,,,,,,,,,,,,,,,,,
,,,,,,,,,,,,,,,,,,,,,,,,,,,,,,,,,,,,,,,,,,5de6d5557544ea070b13d83a,606c0df0803e3e9a766e75ac,2021-04-06_09h30.03.646,Colour_Similarity_Experiment,2020.2.10,Win32,60,6067542a4a25243f4d7d4fcf,16.88955932,16.73737286,16.68500977,16.65834034,16.64870987,16.68500977,,,,,,,,,,,,,,,,,,,,PF,strong,3,,,,,,,,7,1.59475,,,,,,,,,,,,,,,,,,,,,,,,,,,,1,strong,50.4000122,80.79999477,1,0,0,response1disk,2,108,28.00001186,-2.400006473,1,0,0,rectangle,28.00001186,-2.400006473,1,0,0,6,3,0.000995,28.00001186,-2.400006473,1,0,0,0,107,107,2,1,0,,,,,,,,,,,,,,,,,,,,,
,,,,,,,,,,,,,,,,,,,,,,,,,,,,,,,,,,,,,,,,,,5de6d5557544ea070b13d83a,606c0df0803e3e9a766e75ac,2021-04-06_09h30.03.646,Colour_Similarity_Experiment,2020.2.10,Win32,60,6067542a4a25243f4d7d4fcf,16.88955932,16.73737286,16.68500977,16.65834034,16.64870987,16.68500977,,,,,,,,,,,,,,,,,,,,PF,weak,3,,,,,,,,4,3.309965,,,,,,,,,,,,,,,,,,,,,,,,,,,,8,weak,35.20001197,-102.400008,1,0,0,response3disk,1,109,16.00001168,2.399993598,1,0,0,rectangle,16.00001168,2.399993598,1,0,0,6,0,0.00111,16.00001168,2.399993598,1,0,0,0,108,108,57,1,0,,,,,,,,,,,,,,,,,,,,,
,,,,,,,,,,,,,,,,,,,,,,,,,,,,,,,,,,,,,,,,,,5de6d5557544ea070b13d83a,606c0df0803e3e9a766e75ac,2021-04-06_09h30.03.646,Colour_Similarity_Experiment,2020.2.10,Win32,60,6067542a4a25243f4d7d4fcf,16.88955932,16.73737286,16.68500977,16.65834034,16.64870987,16.68500977,,,,,,,,,,,,,,,,,,,,PF,strong,3,,,,,,,,2,2.194455,,,,,,,,,,,,,,,,,,,,,,,,,,,,8,strong,-94.39994113,-60.00000733,1,0,0,response5disk,3,110,16.00001168,-9.60000658,1,0,0,rectangle,16.00001168,-9.60000658,1,0,0,6,6,0.00142,16.00001168,-9.60000658,1,0,0,0,109,109,154,1,0,,,,,,,,,,,,,,,,,,,,,
,,,,,,,,,,,,,,,,,,,,,,,,,,,,,,,,,,,,,,,,,,5de6d5557544ea070b13d83a,606c0df0803e3e9a766e75ac,2021-04-06_09h30.03.646,Colour_Similarity_Experiment,2020.2.10,Win32,60,6067542a4a25243f4d7d4fcf,16.88955932,16.73737286,16.68500977,16.65834034,16.64870987,16.68500977,,,,,,,,,,,,,,,,,,,,PF,weak,3,,,,,,,,7,1.12844,,,,,,,,,,,,,,,,,,,,,,,,,,,,1,weak,54.40001225,77.59999472,1,0,0,response1disk,6,111,19.20001173,-8.000006557,1,0,0,rectangle,19.20001173,-8.000006557,1,0,0,6,5,0.00068,19.20001173,-8.000006557,1,0,0,0,110,110,144,1,0,,,,,,,,,,,,,,,,,,,,,
,,,,,,,,,,,,,,,,,,,,,,,,,,,,,,,,,,,,,,,,,,5de6d5557544ea070b13d83a,606c0df0803e3e9a766e75ac,2021-04-06_09h30.03.646,Colour_Similarity_Experiment,2020.2.10,Win32,60,6067542a4a25243f4d7d4fcf,16.88955932,16.73737286,16.68500977,16.65834034,16.64870987,16.68500977,,,,,,,,,,,,,,,,,,,,PF,weak,3,,,,,,,,7,1.145705,,,,,,,,,,,,,,,,,,,,,,,,,,,,2,weak,49.60006101,86.39999485,1,0,0,response1disk,5,112,20.00001174,-1.600006461,1,0,0,rectangle,20.00001174,-1.600006461,1,0,0,6,0,0.00107,20.00001174,-1.600006461,1,0,0,0,111,111,147,1,0,,,,,,,,,,,,,,,,,,,,,
,,,,,,,,,,,,,,,,,,,,,,,,,,,,,,,,,,,,,,,,,,5de6d5557544ea070b13d83a,606c0df0803e3e9a766e75ac,2021-04-06_09h30.03.646,Colour_Similarity_Experiment,2020.2.10,Win32,60,6067542a4a25243f4d7d4fcf,16.88955932,16.73737286,16.68500977,16.65834034,16.64870987,16.68500977,,,,,,,,,,,,,,,,,,,,PF,weak,3,,,,,,,,7,1.145625,,,,,,,,,,,,,,,,,,,,,,,,,,,,5,weak,42.40001208,83.19997039,1,0,0,response1disk,9,113,21.60006059,-6.4373E-06,1,0,0,rectangle,-98.39994119,46.39999425,1,0,0,1,1,2.114515,9.600060415,-3.200006485,1,0,0,0,112,112,136,1,1,response7disk_3,rectangle,,,,,,,,,,,,,,,,,,,
,,,,,,,,,,,,,,,,,,,,,,,,,,,,,,,,,,,,,,,,,,5de6d5557544ea070b13d83a,606c0df0803e3e9a766e75ac,2021-04-06_09h30.03.646,Colour_Similarity_Experiment,2020.2.10,Win32,60,6067542a4a25243f4d7d4fcf,16.88955932,16.73737286,16.68500977,16.65834034,16.64870987,16.68500977,,,,,,,,,,,,,,,,,,,,PF,strong,3,,,,,,,,6,2.427755,,,,,,,,,,,,,,,,,,,,,,,,,,,,1,strong,79.20001262,36.79999411,1,0,0,response1disk,8,114,18.40001172,-6.400006533,1,0,0,rectangle,18.40001172,-6.400006533,1,0,0,1,0,0.000725,18.40001172,-6.400006533,1,0,0,0,113,113,27,1,0,,,,,,,,,,,,,,,,,,,,,
,,,,,,,,,,,,,,,,,,,,,,,,,,,,,,,,,,,,,,,,,,5de6d5557544ea070b13d83a,606c0df0803e3e9a766e75ac,2021-04-06_09h30.03.646,Colour_Similarity_Experiment,2020.2.10,Win32,60,6067542a4a25243f4d7d4fcf,16.88955932,16.73737286,16.68500977,16.65834034,16.64870987,16.68500977,,,,,,,,,,,,,,,,,,,,PF,weak,3,,,,,,,,7,1.21201,,,,,,,,,,,,,,,,,,,,,,,,,,,,9,weak,46.40001214,75.9999947,1,0,0,response1disk,6,115,22.40001178,-2.400006473,1,0,0,rectangle,22.40001178,-2.400006473,1,0,0,1,3,0.00074,22.40001178,-2.400006473,1,0,0,0,114,114,148,1,0,,,,,,,,,,,,,,,,,,,,,
,,,,,,,,,,,,,,,,,,,,,,,,,,,,,,,,,,,,,,,,,,5de6d5557544ea070b13d83a,606c0df0803e3e9a766e75ac,2021-04-06_09h30.03.646,Colour_Similarity_Experiment,2020.2.10,Win32,60,6067542a4a25243f4d7d4fcf,16.88955932,16.73737286,16.68500977,16.65834034,16.64870987,16.68500977,,,,,,,,,,,,,,,,,,,,PF,weak,3,,,,,,,,3,1.6785,,,,,,,,,,,,,,,,,,,,,,,,,,,,5,weak,-49.5999893,-89.6000566,1,0,0,response5disk,3,116,10.4000116,-4.000006497,1,0,0,rectangle,10.4000116,-4.000006497,1,0,0,1,4,0.000745,10.4000116,-4.000006497,1,0,0,0,115,115,109,1,0,,,,,,,,,,,,,,,,,,,,,
,,,,,,,,,,,,,,,,,,,,,,,,,,,,,,,,,,,,,,,,,,5de6d5557544ea070b13d83a,606c0df0803e3e9a766e75ac,2021-04-06_09h30.03.646,Colour_Similarity_Experiment,2020.2.10,Win32,60,6067542a4a25243f4d7d4fcf,16.88955932,16.73737286,16.68500977,16.65834034,16.64870987,16.68500977,,,,,,,,,,,,,,,,,,,,PF,weak,3,,,,,,,,7,1.17845,,,,,,,,,,,,,,,,,,,,,,,,,,,,9,weak,41.60006089,73.59999466,1,0,0,response1disk,4,117,17.60006053,-2.400006473,1,0,0,rectangle,17.60006053,-2.400006473,1,0,0,1,7,0.00147,17.60006053,-2.400006473,1,0,0,0,116,116,114,1,0,,,,,,,,,,,,,,,,,,,,,
,,,,,,,,,,,,,,,,,,,,,,,,,,,,,,,,,,,,,,,,,,5de6d5557544ea070b13d83a,606c0df0803e3e9a766e75ac,2021-04-06_09h30.03.646,Colour_Similarity_Experiment,2020.2.10,Win32,60,6067542a4a25243f4d7d4fcf,16.88955932,16.73737286,16.68500977,16.65834034,16.64870987,16.68500977,,,,,,,,,,,,,,,,,,,,PF,strong,3,,,,,,,,3,2.92726,,,,,,,,,,,,,,,,,,,,,,,,,,,,4,strong,-47.19998926,-72.00000751,1,0,0,response5disk,3,118,18.40001172,-2.400006473,1,0,0,rectangle,18.40001172,-2.400006473,1,0,0,1,5,0.001085,18.40001172,-2.400006473,1,0,0,0,117,117,77,1,0,,,,,,,,,,,,,,,,,,,,,
,,,,,,,,,,,,,,,,,,,,,,,,,,,,,,,,,,,,,,,,,,5de6d5557544ea070b13d83a,606c0df0803e3e9a766e75ac,2021-04-06_09h30.03.646,Colour_Similarity_Experiment,2020.2.10,Win32,60,6067542a4a25243f4d7d4fcf,16.88955932,16.73737286,16.68500977,16.65834034,16.64870987,16.68500977,,,,,,,,,,,,,,,,,,,,PF,strong,3,,,,,,,,4,2.044415,,,,,,,,,,,,,,,,,,,,,,,,,,,,6,strong,51.20001221,-92.00000781,1,0,0,response3disk,8,119,4.000011504,-0.800006449,1,0,0,rectangle,4.000011504,-0.800006449,1,0,0,1,3,0.00149,4.000011504,-0.800006449,1,0,0,0,118,118,133,1,0,,,,,,,,,,,,,,,,,,,,,
,,,,,,,,,,,,,,,,,,,,,,,,,,,,,,,,,,,,,,,,,,5de6d5557544ea070b13d83a,606c0df0803e3e9a766e75ac,2021-04-06_09h30.03.646,Colour_Similarity_Experiment,2020.2.10,Win32,60,6067542a4a25243f4d7d4fcf,16.88955932,16.73737286,16.68500977,16.65834034,16.64870987,16.68500977,,,,,,,,,,,,,,,,,,,,PF,strong,3,,,,,,,,3,2.57777,,,,,,,,,,,,,,,,,,,,,,,,,,,,8,strong,-31.99998903,-76.00000757,1,0,0,response5disk,8,120,3.200011492,3.999993622,1,0,0,rectangle,3.200011492,3.999993622,1,0,0,1,2,0.0007,3.200011492,3.999993622,1,0,0,0,119,119,48,1,0,,,,,,,,,,,,,,,,,,,,,
,,,,,,,,,,,,,,,,,,,,,,,,,,,,,,,,,,,,,,,,,,5de6d5557544ea070b13d83a,606c0df0803e3e9a766e75ac,2021-04-06_09h30.03.646,Colour_Similarity_Experiment,2020.2.10,Win32,60,6067542a4a25243f4d7d4fcf,16.88955932,16.73737286,16.68500977,16.65834034,16.64870987,16.68500977,,,,,,,,,,,,,,,,,,,,PF,weak,3,,,,,,,,7,1.062,,,,,,,,,,,,,,,,,,,,,,,,,,,,9,weak,33.60006077,76.79999471,1,0,0,response1disk,7,121,17.60006053,-4.800006509,1,0,0,rectangle,17.60006053,-4.800006509,1,0,0,1,1,0.00218,17.60006053,-4.800006509,1,0,0,0,120,120,121,1,0,,,,,,,,,,,,,,,,,,,,,
,,,,,,,,,,,,,,,,,,,,,,,,,,,,,,,,,,,,,,,,,,5de6d5557544ea070b13d83a,606c0df0803e3e9a766e75ac,2021-04-06_09h30.03.646,Colour_Similarity_Experiment,2020.2.10,Win32,60,6067542a4a25243f4d7d4fcf,16.88955932,16.73737286,16.68500977,16.65834034,16.64870987,16.68500977,,,,,,,,,,,,,,,,,,,,PF,weak,3,,,,,,,,7,1.19526,,,,,,,,,,,,,,,,,,,,,,,,,,,,8,weak,42.40001208,92.79999495,1,0,0,response1disk,3,122,14.40001166,4.799993634,1,0,0,rectangle,14.40001166,4.799993634,1,0,0,1,3,0.00083,14.40001166,4.799993634,1,0,0,0,121,121,71,1,0,,,,,,,,,,,,,,,,,,,,,
,,,,,,,,,,,,,,,,,,,,,,,,,,,,,,,,,,,,,,,,,,5de6d5557544ea070b13d83a,606c0df0803e3e9a766e75ac,2021-04-06_09h30.03.646,Colour_Similarity_Experiment,2020.2.10,Win32,60,6067542a4a25243f4d7d4fcf,16.88955932,16.73737286,16.68500977,16.65834034,16.64870987,16.68500977,,,,,,,,,,,,,,,,,,,,PF,weak,3,,,,,,,,7,1.0323,,,,,,,,,,,,,,,,,,,,,,,,,,,,6,weak,48.00001216,95.19997057,1,0,0,response1disk,9,123,17.60006053,7.999993682,1,0,0,rectangle,17.60006053,7.999993682,1,0,0,1,6,0.00079,17.60006053,7.999993682,1,0,0,0,122,122,45,1,0,,,,,,,,,,,,,,,,,,,,,
,,,,,,,,,,,,,,,,,,,,,,,,,,,,,,,,,,,,,,,,,,5de6d5557544ea070b13d83a,606c0df0803e3e9a766e75ac,2021-04-06_09h30.03.646,Colour_Similarity_Experiment,2020.2.10,Win32,60,6067542a4a25243f4d7d4fcf,16.88955932,16.73737286,16.68500977,16.65834034,16.64870987,16.68500977,,,,,,,,,,,,,,,,,,,,PF,weak,3,,,,,,,,1,1.61529,,,,,,,,,,,,,,,,,,,,,,,,,,,,8,weak,-63.99998951,39.99999416,1,0,0,response7disk,8,124,10.4000116,-8.000006557,1,0,0,rectangle,10.4000116,-8.000006557,1,0,0,1,7,0.000795,10.4000116,-8.000006557,1,0,0,0,123,123,153,1,0,,,,,,,,,,,,,,,,,,,,,
,,,,,,,,,,,,,,,,,,,,,,,,,,,,,,,,,,,,,,,,,,5de6d5557544ea070b13d83a,606c0df0803e3e9a766e75ac,2021-04-06_09h30.03.646,Colour_Similarity_Experiment,2020.2.10,Win32,60,6067542a4a25243f4d7d4fcf,16.88955932,16.73737286,16.68500977,16.65834034,16.64870987,16.68500977,,,,,,,,,,,,,,,,,,,,PF,weak,3,,,,,,,,7,1.16563,,,,,,,,,,,,,,,,,,,,,,,,,,,,9,weak,36.00001198,103.9999951,1,0,0,response1disk,5,125,8.800011575,2.399993598,1,0,0,rectangle,8.800011575,2.399993598,1,0,0,1,5,0.001255,8.800011575,2.399993598,1,0,0,0,124,124,134,1,0,,,,,,,,,,,,,,,,,,,,,
,,,,,,,,,,,,,,,,,,,,,,,,,,,,,,,,,,,,,,,,,,5de6d5557544ea070b13d83a,606c0df0803e3e9a766e75ac,2021-04-06_09h30.03.646,Colour_Similarity_Experiment,2020.2.10,Win32,60,6067542a4a25243f4d7d4fcf,16.88955932,16.73737286,16.68500977,16.65834034,16.64870987,16.68500977,,,,,,,,,,,,,,,,,,,,PF,strong,3,,,,,,,,4,2.314385,,,,,,,,,,,,,,,,,,,,,,,,,,,,8,strong,36.00001198,-91.2000078,1,0,0,response3disk,4,126,12.80001163,-9.60000658,1,0,0,rectangle,12.80001163,-9.60000658,1,0,0,1,5,9E-05,12.80001163,-9.60000658,1,0,0,0,125,125,88,1,0,,,,,,,,,,,,,,,,,,,,,
,,,,,,,,,,,,,,,,,,,,,,,,,,,,,,,,,,,,,,,,,,5de6d5557544ea070b13d83a,606c0df0803e3e9a766e75ac,2021-04-06_09h30.03.646,Colour_Similarity_Experiment,2020.2.10,Win32,60,6067542a4a25243f4d7d4fcf,16.88955932,16.73737286,16.68500977,16.65834034,16.64870987,16.68500977,,,,,,,,,,,,,,,,,,,,PF,weak,3,,,,,,,,7,1.1992,,,,,,,,,,,,,,,,,,,,,,,,,,,,8,weak,36.80001199,81.59999478,1,0,0,response1disk,2,127,15.20001167,-0.800006449,1,0,0,rectangle,15.20001167,-0.800006449,1,0,0,1,1,0.0007,15.20001167,-0.800006449,1,0,0,0,126,126,83,1,0,,,,,,,,,,,,,,,,,,,,,
,,,,,,,,,,,,,,,,,,,,,,,,,,,,,,,,,,,,,,,,,,5de6d5557544ea070b13d83a,606c0df0803e3e9a766e75ac,2021-04-06_09h30.03.646,Colour_Similarity_Experiment,2020.2.10,Win32,60,6067542a4a25243f4d7d4fcf,16.88955932,16.73737286,16.68500977,16.65834034,16.64870987,16.68500977,,,,,,,,,,,,,,,,,,,,PF,weak,3,,,,,,,,4,2.081325,,,,,,,,,,,,,,,,,,,,,,,,,,,,3,weak,49.60006101,-96.80000788,1,0,0,response3disk,4,128,-2.399939764,0.799993575,1,0,0,rectangle,-2.399939764,0.799993575,1,0,0,1,2,0.00136,-2.399939764,0.799993575,1,0,0,0,127,127,30,1,0,,,,,,,,,,,,,,,,,,,,,
,,,,,,,,,,,,,,,,,,,,,,,,,,,,,,,,,,,,,,,,,,5de6d5557544ea070b13d83a,606c0df0803e3e9a766e75ac,2021-04-06_09h30.03.646,Colour_Similarity_Experiment,2020.2.10,Win32,60,6067542a4a25243f4d7d4fcf,16.88955932,16.73737286,16.68500977,16.65834034,16.64870987,16.68500977,,,,,,,,,,,,,,,,,,,,PF,strong,3,,,,,,,,7,2.330935,,,,,,,,,,,,,,,,,,,,,,,,,,,,9,strong,35.20001197,103.1999707,1,0,0,response1disk,2,129,4.800011516,0.799993575,1,0,0,rectangle,-91.99998993,43.19996979,1,0,0,1,1,2.11412,1.600060296,-1.600006461,1,0,0,0,128,128,11,1,1,response7disk_3,rectangle,,,,,,,,,,,,,,,,,,,
,,,,,,,,,,,,,,,,,,,,,,,,,,,,,,,,,,,,,,,,,,5de6d5557544ea070b13d83a,606c0df0803e3e9a766e75ac,2021-04-06_09h30.03.646,Colour_Similarity_Experiment,2020.2.10,Win32,60,6067542a4a25243f4d7d4fcf,16.88955932,16.73737286,16.68500977,16.65834034,16.64870987,16.68500977,,,,,,,,,,,,,,,,,,,,PF,strong,3,,,,,,,,5,2.16531,,,,,,,,,,,,,,,,,,,,,,,,,,,,6,strong,121.6000133,-51.2000072,1,0,0,response3disk,1,130,12.00001162,-4.800006509,1,0,0,rectangle,12.00001162,-4.800006509,1,0,0,1,1,0.000105,12.00001162,-4.800006509,1,0,0,0,129,129,5,1,0,,,,,,,,,,,,,,,,,,,,,
,,,,,,,,,,,,,,,,,,,,,,,,,,,,,,,,,,,,,,,,,,5de6d5557544ea070b13d83a,606c0df0803e3e9a766e75ac,2021-04-06_09h30.03.646,Colour_Similarity_Experiment,2020.2.10,Win32,60,6067542a4a25243f4d7d4fcf,16.88955932,16.73737286,16.68500977,16.65834034,16.64870987,16.68500977,,,,,,,,,,,,,,,,,,,,PF,strong,3,,,,,,,,7,1.81142,,,,,,,,,,,,,,,,,,,,,,,,,,,,3,strong,47.20001215,70.39999461,1,0,0,response1disk,9,131,8.800011575,-4.000006497,1,0,0,rectangle,8.800011575,-4.000006497,1,0,0,1,3,0.00105,8.800011575,-4.000006497,1,0,0,0,130,130,143,1,0,,,,,,,,,,,,,,,,,,,,,
,,,,,,,,,,,,,,,,,,,,,,,,,,,,,,,,,,,,,,,,,,5de6d5557544ea070b13d83a,606c0df0803e3e9a766e75ac,2021-04-06_09h30.03.646,Colour_Similarity_Experiment,2020.2.10,Win32,60,6067542a4a25243f4d7d4fcf,16.88955932,16.73737286,16.68500977,16.65834034,16.64870987,16.68500977,,,,,,,,,,,,,,,,,,,,PF,weak,3,,,,,,,,4,2.56048,,,,,,,,,,,,,,,,,,,,,,,,,,,,8,weak,44.0000121,-75.20000756,1,0,0,response3disk,7,132,24.0000118,-9.60000658,1,0,0,rectangle,24.0000118,-9.60000658,1,0,0,1,6,0.00093,24.0000118,-9.60000658,1,0,0,0,131,131,23,1,0,,,,,,,,,,,,,,,,,,,,,
,,,,,,,,,,,,,,,,,,,,,,,,,,,,,,,,,,,,,,,,,,5de6d5557544ea070b13d83a,606c0df0803e3e9a766e75ac,2021-04-06_09h30.03.646,Colour_Similarity_Experiment,2020.2.10,Win32,60,6067542a4a25243f4d7d4fcf,16.88955932,16.73737286,16.68500977,16.65834034,16.64870987,16.68500977,,,,,,,,,,,,,,,,,,,,PF,strong,3,,,,,,,,3,1.71147,,,,,,,,,,,,,,,,,,,,,,,,,,,,4,strong,-35.99998909,-70.40000749,1,0,0,response5disk,5,133,7.200011551,-7.200006545,1,0,0,rectangle,7.200011551,-7.200006545,1,0,0,1,0,0.00123,7.200011551,-7.200006545,1,0,0,0,132,132,116,1,0,,,,,,,,,,,,,,,,,,,,,
,,,,,,,,,,,,,,,,,,,,,,,,,,,,,,,,,,,,,,,,,,5de6d5557544ea070b13d83a,606c0df0803e3e9a766e75ac,2021-04-06_09h30.03.646,Colour_Similarity_Experiment,2020.2.10,Win32,60,6067542a4a25243f4d7d4fcf,16.88955932,16.73737286,16.68500977,16.65834034,16.64870987,16.68500977,,,,,,,,,,,,,,,,,,,,PF,weak,3,,,,,,,,2,1.778095,,,,,,,,,,,,,,,,,,,,,,,,,,,,7,weak,-95.99998999,-47.20000714,1,0,0,response5disk,6,134,-18.39994,-4.800006509,1,0,0,rectangle,-18.39994,-4.800006509,1,0,0,1,4,0.000955,-18.39994,-4.800006509,1,0,0,0,133,133,29,1,0,,,,,,,,,,,,,,,,,,,,,
,,,,,,,,,,,,,,,,,,,,,,,,,,,,,,,,,,,,,,,,,,5de6d5557544ea070b13d83a,606c0df0803e3e9a766e75ac,2021-04-06_09h30.03.646,Colour_Similarity_Experiment,2020.2.10,Win32,60,6067542a4a25243f4d7d4fcf,16.88955932,16.73737286,16.68500977,16.65834034,16.64870987,16.68500977,,,,,,,,,,,,,,,,,,,,PF,weak,3,,,,,,,,7,1.361945,,,,,,,,,,,,,,,,,,,,,,,,,,,,8,weak,46.40001214,104.7999951,1,0,0,response1disk,5,135,17.60006053,0.799993575,1,0,0,rectangle,17.60006053,0.799993575,1,0,0,1,0,0.001215,17.60006053,0.799993575,1,0,0,0,134,134,98,1,0,,,,,,,,,,,,,,,,,,,,,
,,,,,,,,,,,,,,,,,,,,,,,,,,,,,,,,,,,,,,,,,,5de6d5557544ea070b13d83a,606c0df0803e3e9a766e75ac,2021-04-06_09h30.03.646,Colour_Similarity_Experiment,2020.2.10,Win32,60,6067542a4a25243f4d7d4fcf,16.88955932,16.73737286,16.68500977,16.65834034,16.64870987,16.68500977,,,,,,,,,,,,,,,,,,,,PF,strong,3,,,,,,,,4,2.6441,,,,,,,,,,,,,,,,,,,,,,,,,,,,7,strong,36.00001198,-79.20000762,1,0,0,response3disk,6,136,12.00001162,2.399993598,1,0,0,rectangle,12.00001162,2.399993598,1,0,0,1,5,0.00094,12.00001162,2.399993598,1,0,0,0,135,135,31,1,0,,,,,,,,,,,,,,,,,,,,,
,,,,,,,,,,,,,,,,,,,,,,,,,,,,,,,,,,,,,,,,,,5de6d5557544ea070b13d83a,606c0df0803e3e9a766e75ac,2021-04-06_09h30.03.646,Colour_Similarity_Experiment,2020.2.10,Win32,60,6067542a4a25243f4d7d4fcf,16.88955932,16.73737286,16.68500977,16.65834034,16.64870987,16.68500977,,,,,,,,,,,,,,,,,,,,PF,weak,3,,,,,,,,6,1.878145,,,,,,,,,,,,,,,,,,,,,,,,,,,,6,weak,79.20001262,46.39999425,1,0,0,response1disk,8,137,10.4000116,0.799993575,1,0,0,rectangle,10.4000116,0.799993575,1,0,0,1,6,0.00069,10.4000116,0.799993575,1,0,0,0,136,136,64,1,0,,,,,,,,,,,,,,,,,,,,,
,,,,,,,,,,,,,,,,,,,,,,,,,,,,,,,,,,,,,,,,,,5de6d5557544ea070b13d83a,606c0df0803e3e9a766e75ac,2021-04-06_09h30.03.646,Colour_Similarity_Experiment,2020.2.10,Win32,60,6067542a4a25243f4d7d4fcf,16.88955932,16.73737286,16.68500977,16.65834034,16.64870987,16.68500977,,,,,,,,,,,,,,,,,,,,PF,strong,3,,,,,,,,4,2.893385,,,,,,,,,,,,,,,,,,,,,,,,,,,,9,strong,35.20001197,-83.20000768,1,0,0,response3disk,1,138,4.800011516,-3.200006485,1,0,0,rectangle,4.800011516,-3.200006485,1,0,0,1,0,0.000955,4.800011516,-3.200006485,1,0,0,0,137,137,111,1,0,,,,,,,,,,,,,,,,,,,,,
,,,,,,,,,,,,,,,,,,,,,,,,,,,,,,,,,,,,,,,,,,5de6d5557544ea070b13d83a,606c0df0803e3e9a766e75ac,2021-04-06_09h30.03.646,Colour_Similarity_Experiment,2020.2.10,Win32,60,6067542a4a25243f4d7d4fcf,16.88955932,16.73737286,16.68500977,16.65834034,16.64870987,16.68500977,,,,,,,,,,,,,,,,,,,,PF,weak,3,,,,,,,,7,1.2289,,,,,,,,,,,,,,,,,,,,,,,,,,,,3,weak,34.40001196,81.59999478,1,0,0,response1disk,9,139,11.20001161,3.19999361,1,0,0,rectangle,11.20001161,3.19999361,1,0,0,1,6,0.000735,11.20001161,3.19999361,1,0,0,0,138,138,79,1,0,,,,,,,,,,,,,,,,,,,,,
,,,,,,,,,,,,,,,,,,,,,,,,,,,,,,,,,,,,,,,,,,5de6d5557544ea070b13d83a,606c0df0803e3e9a766e75ac,2021-04-06_09h30.03.646,Colour_Similarity_Experiment,2020.2.10,Win32,60,6067542a4a25243f4d7d4fcf,16.88955932,16.73737286,16.68500977,16.65834034,16.64870987,16.68500977,,,,,,,,,,,,,,,,,,,,PF,weak,3,,,,,,,,0,1.261935,,,,,,,,,,,,,,,,,,,,,,,,,,,,4,weak,-46.39994042,90.39999491,1,0,0,response7disk,4,140,4.000011504,3.19999361,1,0,0,rectangle,4.000011504,3.19999361,1,0,0,1,1,0.00129,4.000011504,3.19999361,1,0,0,0,139,139,70,1,0,,,,,,,,,,,,,,,,,,,,,
,,,,,,,,,,,,,,,,,,,,,,,,,,,,,,,,,,,,,,,,,,5de6d5557544ea070b13d83a,606c0df0803e3e9a766e75ac,2021-04-06_09h30.03.646,Colour_Similarity_Experiment,2020.2.10,Win32,60,6067542a4a25243f4d7d4fcf,16.88955932,16.73737286,16.68500977,16.65834034,16.64870987,16.68500977,,,,,,,,,,,,,,,,,,,,PF,strong,3,,,,,,,,4,2.12776,,,,,,,,,,,,,,,,,,,,,,,,,,,,5,strong,44.80001211,-70.40000749,1,0,0,response3disk,9,141,4.800011516,-3.200006485,1,0,0,rectangle,4.800011516,-3.200006485,1,0,0,1,5,0.001035,4.800011516,-3.200006485,1,0,0,0,140,140,61,1,0,,,,,,,,,,,,,,,,,,,,,
,,,,,,,,,,,,,,,,,,,,,,,,,,,,,,,,,,,,,,,,,,5de6d5557544ea070b13d83a,606c0df0803e3e9a766e75ac,2021-04-06_09h30.03.646,Colour_Similarity_Experiment,2020.2.10,Win32,60,6067542a4a25243f4d7d4fcf,16.88955932,16.73737286,16.68500977,16.65834034,16.64870987,16.68500977,,,,,,,,,,,,,,,,,,,,PF,strong,3,,,,,,,,4,2.094525,,,,,,,,,,,,,,,,,,,,,,,,,,,,4,strong,42.40001208,-92.80000782,1,0,0,response3disk,2,142,4.000011504,0.799993575,1,0,0,rectangle,4.000011504,0.799993575,1,0,0,1,5,0.00011,4.000011504,0.799993575,1,0,0,0,141,141,13,1,0,,,,,,,,,,,,,,,,,,,,,
,,,,,,,,,,,,,,,,,,,,,,,,,,,,,,,,,,,,,,,,,,5de6d5557544ea070b13d83a,606c0df0803e3e9a766e75ac,2021-04-06_09h30.03.646,Colour_Similarity_Experiment,2020.2.10,Win32,60,6067542a4a25243f4d7d4fcf,16.88955932,16.73737286,16.68500977,16.65834034,16.64870987,16.68500977,,,,,,,,,,,,,,,,,,,,PF,weak,3,,,,,,,,7,1.17847,,,,,,,,,,,,,,,,,,,,,,,,,,,,8,weak,25.60006065,87.99999487,1,0,0,response1disk,4,143,8.800011575,-2.400006473,1,0,0,rectangle,8.800011575,-2.400006473,1,0,0,1,7,0.000675,8.800011575,-2.400006473,1,0,0,0,142,142,78,1,0,,,,,,,,,,,,,,,,,,,,,
,,,,,,,,,,,,,,,,,,,,,,,,,,,,,,,,,,,,,,,,,,5de6d5557544ea070b13d83a,606c0df0803e3e9a766e75ac,2021-04-06_09h30.03.646,Colour_Similarity_Experiment,2020.2.10,Win32,60,6067542a4a25243f4d7d4fcf,16.88955932,16.73737286,16.68500977,16.65834034,16.64870987,16.68500977,,,,,,,,,,,,,,,,,,,,PF,weak,3,,,,,,,,3,1.57832,,,,,,,,,,,,,,,,,,,,,,,,,,,,3,weak,-50.39994048,-88.80000776,1,0,0,response5disk,2,144,0.800011456,0.799993575,1,0,0,rectangle,91.2000128,-46.40000713,1,0,0,5,5,1.81512,20.80001175,-3.200006485,1,0,0,0,143,143,36,1,1,response3disk_3,rectangle,,,,,,,,,,,,,,,,,,,
,,,,,,,,,,,,,,,,,,,,,,,,,,,,,,,,,,,,,,,,,,5de6d5557544ea070b13d83a,606c0df0803e3e9a766e75ac,2021-04-06_09h30.03.646,Colour_Similarity_Experiment,2020.2.10,Win32,60,6067542a4a25243f4d7d4fcf,16.88955932,16.73737286,16.68500977,16.65834034,16.64870987,16.68500977,,,,,,,,,,,,,,,,,,,,PF,strong,3,,,,,,,,5,2.02793,,,,,,,,,,,,,,,,,,,,,,,,,,,,4,strong,69.60001248,-44.00000709,1,0,0,response3disk,1,145,12.80001163,-6.400006533,1,0,0,rectangle,12.80001163,-6.400006533,1,0,0,5,7,0.00071,12.80001163,-6.400006533,1,0,0,0,144,144,102,1,0,,,,,,,,,,,,,,,,,,,,,
,,,,,,,,,,,,,,,,,,,,,,,,,,,,,,,,,,,,,,,,,,5de6d5557544ea070b13d83a,606c0df0803e3e9a766e75ac,2021-04-06_09h30.03.646,Colour_Similarity_Experiment,2020.2.10,Win32,60,6067542a4a25243f4d7d4fcf,16.88955932,16.73737286,16.68500977,16.65834034,16.64870987,16.68500977,,,,,,,,,,,,,,,,,,,,PF,strong,3,,,,,,,,5,2.281605,,,,,,,,,,,,,,,,,,,,,,,,,,,,9,strong,64.0000124,-40.80000705,1,0,0,response3disk,9,146,12.00001162,-4.000006497,1,0,0,rectangle,12.00001162,-4.000006497,1,0,0,5,4,0.000695,12.00001162,-4.000006497,1,0,0,0,145,145,17,1,0,,,,,,,,,,,,,,,,,,,,,
,,,,,,,,,,,,,,,,,,,,,,,,,,,,,,,,,,,,,,,,,,5de6d5557544ea070b13d83a,606c0df0803e3e9a766e75ac,2021-04-06_09h30.03.646,Colour_Similarity_Experiment,2020.2.10,Win32,60,6067542a4a25243f4d7d4fcf,16.88955932,16.73737286,16.68500977,16.65834034,16.64870987,16.68500977,,,,,,,,,,,,,,,,,,,,PF,strong,3,,,,,,,,5,1.977685,,,,,,,,,,,,,,,,,,,,,,,,,,,,6,strong,60.00001234,-36.80000699,1,0,0,response3disk,5,147,8.000011563,-2.400006473,1,0,0,rectangle,8.000011563,-2.400006473,1,0,0,5,4,0.000115,8.000011563,-2.400006473,1,0,0,0,146,146,126,1,0,,,,,,,,,,,,,,,,,,,,,
,,,,,,,,,,,,,,,,,,,,,,,,,,,,,,,,,,,,,,,,,,5de6d5557544ea070b13d83a,606c0df0803e3e9a766e75ac,2021-04-06_09h30.03.646,Colour_Similarity_Experiment,2020.2.10,Win32,60,6067542a4a25243f4d7d4fcf,16.88955932,16.73737286,16.68500977,16.65834034,16.64870987,16.68500977,,,,,,,,,,,,,,,,,,,,PF,strong,3,,,,,,,,4,1.728365,,,,,,,,,,,,,,,,,,,,,,,,,,,,2,strong,43.20001209,-70.40000749,1,0,0,response3disk,2,148,8.000011563,-4.800006509,1,0,0,rectangle,8.000011563,-4.800006509,1,0,0,5,2,0.000875,8.000011563,-4.800006509,1,0,0,0,147,147,142,1,0,,,,,,,,,,,,,,,,,,,,,
,,,,,,,,,,,,,,,,,,,,,,,,,,,,,,,,,,,,,,,,,,5de6d5557544ea070b13d83a,606c0df0803e3e9a766e75ac,2021-04-06_09h30.03.646,Colour_Similarity_Experiment,2020.2.10,Win32,60,6067542a4a25243f4d7d4fcf,16.88955932,16.73737286,16.68500977,16.65834034,16.64870987,16.68500977,,,,,,,,,,,,,,,,,,,,PF,strong,3,,,,,,,,7,1.68176,,,,,,,,,,,,,,,,,,,,,,,,,,,,4,strong,35.20001197,71.19997021,1,0,0,response1disk,9,149,8.800011575,-0.800006449,1,0,0,rectangle,8.800011575,-0.800006449,1,0,0,5,4,0.00067,8.800011575,-0.800006449,1,0,0,0,148,148,90,1,0,,,,,,,,,,,,,,,,,,,,,
,,,,,,,,,,,,,,,,,,,,,,,,,,,,,,,,,,,,,,,,,,5de6d5557544ea070b13d83a,606c0df0803e3e9a766e75ac,2021-04-06_09h30.03.646,Colour_Similarity_Experiment,2020.2.10,Win32,60,6067542a4a25243f4d7d4fcf,16.88955932,16.73737286,16.68500977,16.65834034,16.64870987,16.68500977,,,,,,,,,,,,,,,,,,,,PF,strong,3,,,,,,,,6,2.37768,,,,,,,,,,,,,,,,,,,,,,,,,,,,5,strong,77.6000126,33.59999406,1,0,0,response1disk,6,150,27.20001185,-0.800006449,1,0,0,rectangle,27.20001185,-0.800006449,1,0,0,5,1,0.001195,27.20001185,-0.800006449,1,0,0,0,149,149,12,1,0,,,,,,,,,,,,,,,,,,,,,
,,,,,,,,,,,,,,,,,,,,,,,,,,,,,,,,,,,,,,,,,,5de6d5557544ea070b13d83a,606c0df0803e3e9a766e75ac,2021-04-06_09h30.03.646,Colour_Similarity_Experiment,2020.2.10,Win32,60,6067542a4a25243f4d7d4fcf,16.88955932,16.73737286,16.68500977,16.65834034,16.64870987,16.68500977,,,,,,,,,,,,,,,,,,,,PF,weak,3,,,,,,,,7,1.095255,,,,,,,,,,,,,,,,,,,,,,,,,,,,4,weak,41.60006089,84.79999483,1,0,0,response1disk,9,151,12.80001163,3.999993622,1,0,0,rectangle,12.80001163,3.999993622,1,0,0,5,5,0.000895,12.80001163,3.999993622,1,0,0,0,150,150,75,1,0,,,,,,,,,,,,,,,,,,,,,
,,,,,,,,,,,,,,,,,,,,,,,,,,,,,,,,,,,,,,,,,,5de6d5557544ea070b13d83a,606c0df0803e3e9a766e75ac,2021-04-06_09h30.03.646,Colour_Similarity_Experiment,2020.2.10,Win32,60,6067542a4a25243f4d7d4fcf,16.88955932,16.73737286,16.68500977,16.65834034,16.64870987,16.68500977,,,,,,,,,,,,,,,,,,,,PF,weak,3,,,,,,,,3,1.6947,,,,,,,,,,,,,,,,,,,,,,,,,,,,1,weak,-45.59998924,-79.20000762,1,0,0,response5disk,1,152,17.60006053,-6.4373E-06,1,0,0,rectangle,-50.39994048,123.199971,1,0,0,0,0,2.04792,4.800011516,7.19999367,1,0,0,0,151,151,76,1,1,response7disk_3,rectangle,,,,,,,,,,,,,,,,,,,
,,,,,,,,,,,,,,,,,,,,,,,,,,,,,,,,,,,,,,,,,,5de6d5557544ea070b13d83a,606c0df0803e3e9a766e75ac,2021-04-06_09h30.03.646,Colour_Similarity_Experiment,2020.2.10,Win32,60,6067542a4a25243f4d7d4fcf,16.88955932,16.73737286,16.68500977,16.65834034,16.64870987,16.68500977,,,,,,,,,,,,,,,,,,,,PF,strong,3,,,,,,,,4,1.8614,,,,,,,,,,,,,,,,,,,,,,,,,,,,1,strong,36.00001198,-80.00000763,1,0,0,response3disk,9,153,6.400011539,-9.60000658,1,0,0,rectangle,6.400011539,-9.60000658,1,0,0,0,4,0.00104,6.400011539,-9.60000658,1,0,0,0,152,152,123,1,0,,,,,,,,,,,,,,,,,,,,,
,,,,,,,,,,,,,,,,,,,,,,,,,,,,,,,,,,,,,,,,,,5de6d5557544ea070b13d83a,606c0df0803e3e9a766e75ac,2021-04-06_09h30.03.646,Colour_Similarity_Experiment,2020.2.10,Win32,60,6067542a4a25243f4d7d4fcf,16.88955932,16.73737286,16.68500977,16.65834034,16.64870987,16.68500977,,,,,,,,,,,,,,,,,,,,PF,weak,3,,,,,,,,7,1.11191,,,,,,,,,,,,,,,,,,,,,,,,,,,,5,weak,45.60006095,79.99999475,1,0,0,response1disk,8,154,16.80001169,-4.800006509,1,0,0,rectangle,16.80001169,-4.800006509,1,0,0,0,4,9.5E-05,16.80001169,-4.800006509,1,0,0,0,153,153,149,1,0,,,,,,,,,,,,,,,,,,,,,
,,,,,,,,,,,,,,,,,,,,,,,,,,,,,,,,,,,,,,,,,,5de6d5557544ea070b13d83a,606c0df0803e3e9a766e75ac,2021-04-06_09h30.03.646,Colour_Similarity_Experiment,2020.2.10,Win32,60,6067542a4a25243f4d7d4fcf,16.88955932,16.73737286,16.68500977,16.65834034,16.64870987,16.68500977,,,,,,,,,,,,,,,,,,,,PF,strong,3,,,,,,,,7,1.865575,,,,,,,,,,,,,,,,,,,,,,,,,,,,3,strong,47.20001215,84.79999483,1,0,0,response1disk,8,155,16.00001168,-6.4373E-06,1,0,0,rectangle,16.00001168,-6.4373E-06,1,0,0,0,6,0.00117,16.00001168,-6.4373E-06,1,0,0,0,154,154,44,1,0,,,,,,,,,,,,,,,,,,,,,
,,,,,,,,,,,,,,,,,,,,,,,,,,,,,,,,,,,,,,,,,,5de6d5557544ea070b13d83a,606c0df0803e3e9a766e75ac,2021-04-06_09h30.03.646,Colour_Similarity_Experiment,2020.2.10,Win32,60,6067542a4a25243f4d7d4fcf,16.88955932,16.73737286,16.68500977,16.65834034,16.64870987,16.68500977,,,,,,,,,,,,,,,,,,,,PF,strong,3,,,,,,,,4,1.878315,,,,,,,,,,,,,,,,,,,,,,,,,,,,8,strong,38.40001202,-89.6000566,1,0,0,response3disk,2,156,3.200011492,2.399993598,1,0,0,rectangle,3.200011492,2.399993598,1,0,0,0,2,0.00141,3.200011492,2.399993598,1,0,0,0,155,155,22,1,0,,,,,,,,,,,,,,,,,,,,,
,,,,,,,,,,,,,,,,,,,,,,,,,,,,,,,,,,,,,,,,,,5de6d5557544ea070b13d83a,606c0df0803e3e9a766e75ac,2021-04-06_09h30.03.646,Colour_Similarity_Experiment,2020.2.10,Win32,60,6067542a4a25243f4d7d4fcf,16.88955932,16.73737286,16.68500977,16.65834034,16.64870987,16.68500977,,,,,,,,,,,,,,,,,,,,PF,weak,3,,,,,,,,7,1.14913,,,,,,,,,,,,,,,,,,,,,,,,,,,,1,weak,52.00001222,96.79999501,1,0,0,response1disk,3,157,12.00001162,-2.400006473,1,0,0,rectangle,12.00001162,-2.400006473,1,0,0,0,1,0.00124,12.00001162,-2.400006473,1,0,0,0,156,156,1,1,0,,,,,,,,,,,,,,,,,,,,,
,,,,,,,,,,,,,,,,,,,,,,,,,,,,,,,,,,,,,,,,,,5de6d5557544ea070b13d83a,606c0df0803e3e9a766e75ac,2021-04-06_09h30.03.646,Colour_Similarity_Experiment,2020.2.10,Win32,60,6067542a4a25243f4d7d4fcf,16.88955932,16.73737286,16.68500977,16.65834034,16.64870987,16.68500977,,,,,,,,,,,,,,,,,,,,PF,weak,3,,,,,,,,3,3.759695,,,,,,,,,,,,,,,,,,,,,,,,,,,,4,weak,-38.3999403,-85.60005654,1,0,0,response5disk,5,158,17.60006053,2.399993598,1,0,0,rectangle,17.60006053,2.399993598,1,0,0,0,5,0.000995,17.60006053,2.399993598,1,0,0,0,157,157,49,1,0,,,,,,,,,,,,,,,,,,,,,
,,,,,,,,,,,,,,,,,,,,,,,,,,,,,,,,,,,,,,,,,,5de6d5557544ea070b13d83a,606c0df0803e3e9a766e75ac,2021-04-06_09h30.03.646,Colour_Similarity_Experiment,2020.2.10,Win32,60,6067542a4a25243f4d7d4fcf,16.88955932,16.73737286,16.68500977,16.65834034,16.64870987,16.68500977,,,,,,,,,,,,,,,,,,,,PF,weak,3,,,,,,,,2,2.044565,,,,,,,,,,,,,,,,,,,,,,,,,,,,6,weak,-97.59999001,-36.80000699,1,0,0,response5disk,7,159,4.800011516,3.19999361,1,0,0,rectangle,4.800011516,3.19999361,1,0,0,0,7,0.00101,4.800011516,3.19999361,1,0,0,0,158,158,50,1,0,,,,,,,,,,,,,,,,,,,,,
,,,,,,,,,,,,,,,,,,,,,,,,,,,,,,,,,,,,,,,,,,5de6d5557544ea070b13d83a,606c0df0803e3e9a766e75ac,2021-04-06_09h30.03.646,Colour_Similarity_Experiment,2020.2.10,Win32,60,6067542a4a25243f4d7d4fcf,16.88955932,16.73737286,16.68500977,16.65834034,16.64870987,16.68500977,,,,,,,,,,,,,,,,,,,,PF,strong,3,,,,,,,,7,1.777995,,,,,,,,,,,,,,,,,,,,,,,,,,,,4,strong,42.40001208,93.59999496,1,0,0,response1disk,8,160,22.40001178,0.799993575,1,0,0,rectangle,22.40001178,0.799993575,1,0,0,0,7,9.49999E-05,22.40001178,0.799993575,1,0,0,0,159,159,35,1,0,,,,,,,,,,,,,,,,,,,,,
,,,,,,,,,,,,,,,,,,,,,,,,,,,,,,,,,,,,,,,,,,5de6d5557544ea070b13d83a,606c0df0803e3e9a766e75ac,2021-04-06_09h30.03.646,Colour_Similarity_Experiment,2020.2.10,Win32,60,6067542a4a25243f4d7d4fcf,16.88955932,16.73737286,16.68500977,16.65834034,16.64870987,16.68500977,,,,,,,,,,,,,,,,,,,,PF,strong,3,,,,,,,,7,1.894685,,,,,,,,,,,,,,,,,,,,,,,,,,,,7,strong,45.60006095,71.19997021,1,0,0,response1disk,8,161,19.20001173,-1.600006461,1,0,0,rectangle,-55.19998938,-101.6000568,1,0,0,3,3,2.197435,17.60006053,-1.600006461,1,0,0,0,160,160,97,1,1,response5disk_3,rectangle,,,,,,,,,,,,,,,,,,,
,,,,,,,,,,,,,,,,,,,,,,,,,,,,,,,,,,,,,,,,,,5de6d5557544ea070b13d83a,606c0df0803e3e9a766e75ac,2021-04-06_09h30.03.646,Colour_Similarity_Experiment,2020.2.10,Win32,60,6067542a4a25243f4d7d4fcf,16.88955932,16.73737286,16.68500977,16.65834034,16.64870987,16.68500977,,,,,,,,,,,,,,,,,,,,PF,strong,3,,,,,,,,3,1.928175,,,,,,,,,,,,,,,,,,,,,,,,,,,,9,strong,-61.59998947,-96.00000787,1,0,0,response5disk,4,162,3.200011492,-4.800006509,1,0,0,rectangle,3.200011492,-4.800006509,1,0,0,3,0,0.00074,3.200011492,-4.800006509,1,0,0,0,161,161,60,1,0,,,,,,,,,,,,,,,,,,,,,
,,,,,,,,,,,,,,,,,,,,,,,,,,,,,,,,,,,,,,,,,,5de6d5557544ea070b13d83a,606c0df0803e3e9a766e75ac,2021-04-06_09h30.03.646,Colour_Similarity_Experiment,2020.2.10,Win32,60,6067542a4a25243f4d7d4fcf,16.88955932,16.73737286,16.68500977,16.65834034,16.64870987,16.68500977,,,,,,,,,,,,,,,,,,,,,,,,,,,,,,,,,,,,,,,,,,,,,,,,,,,,,,,,,,,,,,,,,,,,,,,,,,,,,,,,,,,,,,,,,,,,,,,,0,0,0,0,1,,,,,,,,,,,,,,
,,,,,,,,,,,,,,,,,,,,,,,,,,,,,,,,,,,,,,,,,,5de6d5557544ea070b13d83a,606c0df0803e3e9a766e75ac,2021-04-06_09h30.03.646,Colour_Similarity_Experiment,2020.2.10,Win32,60,6067542a4a25243f4d7d4fcf,16.88955932,16.73737286,16.68500977,16.65834034,16.64870987,16.68500977,,,,,,,,,,,,,,,,,,,,PF,strong,3,,,,,,,,4,2.364535,,,,,,,,,,,,,,,,,,,,,,,,,,,,6,strong,48.00001216,-85.60005654,1,0,0,response3disk,7,163,5.600060356,-6.400006533,1,0,0,rectangle,5.600060356,-6.400006533,1,0,0,3,4,0.00112,5.600060356,-6.400006533,1,0,0,0,0,0,18,1,0,,,,,,,,,,,,,,,,,,,,,
,,,,,,,,,,,,,,,,,,,,,,,,,,,,,,,,,,,,,,,,,,5de6d5557544ea070b13d83a,606c0df0803e3e9a766e75ac,2021-04-06_09h30.03.646,Colour_Similarity_Experiment,2020.2.10,Win32,60,6067542a4a25243f4d7d4fcf,16.88955932,16.73737286,16.68500977,16.65834034,16.64870987,16.68500977,,,,,,,,,,,,,,,,,,,,PF,strong,3,,,,,,,,4,1.531865,,,,,,,,,,,,,,,,,,,,,,,,,,,,9,strong,49.60006101,-84.8000077,1,0,0,response3disk,7,164,9.600060415,-5.600006521,1,0,0,rectangle,9.600060415,-5.600006521,1,0,0,3,5,0.001085,9.600060415,-5.600006521,1,0,0,0,1,1,100,1,0,,,,,,,,,,,,,,,,,,,,,
,,,,,,,,,,,,,,,,,,,,,,,,,,,,,,,,,,,,,,,,,,5de6d5557544ea070b13d83a,606c0df0803e3e9a766e75ac,2021-04-06_09h30.03.646,Colour_Similarity_Experiment,2020.2.10,Win32,60,6067542a4a25243f4d7d4fcf,16.88955932,16.73737286,16.68500977,16.65834034,16.64870987,16.68500977,,,,,,,,,,,,,,,,,,,,PF,weak,3,,,,,,,,4,2.87714,,,,,,,,,,,,,,,,,,,,,,,,,,,,6,weak,43.20001209,-95.20000786,1,0,0,response3disk,4,165,4.800011516,-3.200006485,1,0,0,rectangle,4.800011516,-3.200006485,1,0,0,3,3,0.00091,4.800011516,-3.200006485,1,0,0,0,2,2,33,1,0,,,,,,,,,,,,,,,,,,,,,
,,,,,,,,,,,,,,,,,,,,,,,,,,,,,,,,,,,,,,,,,,5de6d5557544ea070b13d83a,606c0df0803e3e9a766e75ac,2021-04-06_09h30.03.646,Colour_Similarity_Experiment,2020.2.10,Win32,60,6067542a4a25243f4d7d4fcf,16.88955932,16.73737286,16.68500977,16.65834034,16.64870987,16.68500977,,,,,,,,,,,,,,,,,,,,PF,strong,3,,,,,,,,4,2.610565,,,,,,,,,,,,,,,,,,,,,,,,,,,,1,strong,36.00001198,-97.60005672,1,0,0,response3disk,5,166,15.20001167,5.599993646,1,0,0,rectangle,15.20001167,5.599993646,1,0,0,3,6,0.000695,15.20001167,5.599993646,1,0,0,0,3,3,82,1,0,,,,,,,,,,,,,,,,,,,,,
