key_resp.keys,key_resp.rt,key_resp_16.keys,key_resp_16.rt,key_resp_2.keys,key_resp_2.rt,X Scale,ratio_pxpermm,screen_size_x,screen_size_y,testsize,key_resp_3.keys,key_resp_4.keys,key_resp_4.rt,line_size,key_resp_5.keys,key_resp_5.rt,key_resp_6.keys,key_resp_6.rt,key_resp_8.keys,key_resp_8.rt,key_resp_7.keys,key_resp_7.rt,key_resp_12.keys,key_resp_12.rt,key_resp_11.keys,key_resp_11.rt,key_resp_18.keys,key_resp_18.rt,key_resp_21.keys,key_resp_21.rt,key_resp_13.keys,key_resp_13.rt,key_resp_19.keys,key_resp_19.rt,ballposx,viewer_distance,trials.thisRepN,trials.thisTrialN,trials.thisN,trials.thisIndex,trials.ran,participant,session,date,expName,psychopyVersion,OS,frameRate,study_id,realFrameRate1,realFrameRate2,realFrameRate3,realFrameRate4,realFrameRate5,realFrameRate,viewerdistancecm,DVA_to_distance,radius_F,radius_P,r_F,R_P,key_resp_20.keys,key_resp_20.rt,key_resp_14.keys,key_resp_14.rt,key_resp_15.keys,key_resp_15.rt,key_resp_17.keys,key_resp_17.rt,key_resp_9.keys,key_resp_9.rt,key_resp_10.keys,key_resp_10.rt,Colour_1,Ecc,maskCon,mask_frames,mouse_5.x,mouse_5.y,mouse_5.leftButton,mouse_5.midButton,mouse_5.rightButton,mouse_5.clicked_name,Colour_2,similarity,response_time,mouse_10.x,mouse_10.y,mouse_10.leftButton,mouse_10.midButton,mouse_10.rightButton,mouse_10.clicked_name,mouse_7.x,mouse_7.y,mouse_7.leftButton,mouse_7.midButton,mouse_7.rightButton,mouse_7.clicked_name,catchprac,catchnumberprac,mouse_6.x,mouse_6.y,mouse_6.leftButton,mouse_6.midButton,mouse_6.rightButton,mouse_6.clicked_name,duringprac.thisRepN,duringprac.thisTrialN,duringprac.thisN,duringprac.thisIndex,duringprac.ran,key_resp_22.keys,key_resp_22.rt,Colour1,maskCon1,mouse.x,mouse.y,mouse.leftButton,mouse.midButton,mouse.rightButton,mouse.clicked_name,Colour2,trialnumber,mouse_2.x,mouse_2.y,mouse_2.leftButton,mouse_2.midButton,mouse_2.rightButton,mouse_2.clicked_name,mouse_3.x,mouse_3.y,mouse_3.leftButton,mouse_3.midButton,mouse_3.rightButton,catchresponse,catchnumber,response_time_catch,mouse_11.x,mouse_11.y,mouse_11.leftButton,mouse_11.midButton,mouse_11.rightButton,trials_2.thisRepN,trials_2.thisTrialN,trials_2.thisN,trials_2.thisIndex,trials_2.ran,Catch,mouse_3.clicked_name,mouse_11.clicked_name,trials_3.thisRepN,trials_3.thisTrialN,trials_3.thisN,trials_3.thisIndex,trials_3.ran,answer1,rt1,answer2,rt2,answer3,rt3,answer4,rt4,answer5,rt5,answer6,rt6,answer7,rt7
space,8.63575,space,23.43659,space,9.6972,45,4.5,341.3333333,192,1536,,space,32.22009,90,space,32.436595,space,10.60667,space,6.57602,space,7.176375,space,12.31405,space,11.68035,space,12.117795,space,10.34542,space,28.474155,return,4.538625,-55.296,619.8856956,0,0,0,0,1,5e9db6b85484b70db14166bd,606c11c260cc8f86e2668cab,2021-04-06_09h48.19.010,Colour_Similarity_Experiment,2020.2.10,Win32,60,6067542a4a25243f4d7d4fcf,17.07157853,16.68557569,16.67923077,16.67988101,16.68015247,16.68015247,,,,,,,,,,,,,,,,,,,,,,,,,,,,,,,,,,,,,,,,,,,,,,,,,,,,,,,,,,,,,,,,,,,,,,,,,,,,,,,,,,,,,,,,,,,,,,,,,,,,,,,,,,,,,,,,,,
,,,,,,,,,,,,,,,,,,,,,,,,,,,,,,,,,return,4.62454,-66.816,630.548867,1,0,1,0,1,5e9db6b85484b70db14166bd,606c11c260cc8f86e2668cab,2021-04-06_09h48.19.010,Colour_Similarity_Experiment,2020.2.10,Win32,60,6067542a4a25243f4d7d4fcf,17.07157853,16.68557569,16.67923077,16.67988101,16.68015247,16.68015247,,,,,,,,,,,,,,,,,,,,,,,,,,,,,,,,,,,,,,,,,,,,,,,,,,,,,,,,,,,,,,,,,,,,,,,,,,,,,,,,,,,,,,,,,,,,,,,,,,,,,,,,,,,,,,,,,,
,,,,,,,,,,,,,,,,,,,,,,,,,,,,,,,,,return,4.42817,-39.168,604.9572557,2,0,2,0,1,5e9db6b85484b70db14166bd,606c11c260cc8f86e2668cab,2021-04-06_09h48.19.010,Colour_Similarity_Experiment,2020.2.10,Win32,60,6067542a4a25243f4d7d4fcf,17.07157853,16.68557569,16.67923077,16.67988101,16.68015247,16.68015247,,,,,,,,,,,,,,,,,,,,,,,,,,,,,,,,,,,,,,,,,,,,,,,,,,,,,,,,,,,,,,,,,,,,,,,,,,,,,,,,,,,,,,,,,,,,,,,,,,,,,,,,,,,,,,,,,,
,,,,,,,,,,,,,,,,,,,,,,,,,,,,,,,,,return,4.32097,-23.04,590.0288158,3,0,3,0,1,5e9db6b85484b70db14166bd,606c11c260cc8f86e2668cab,2021-04-06_09h48.19.010,Colour_Similarity_Experiment,2020.2.10,Win32,60,6067542a4a25243f4d7d4fcf,17.07157853,16.68557569,16.67923077,16.67988101,16.68015247,16.68015247,,,,,,,,,,,,,,,,,,,,,,,,,,,,,,,,,,,,,,,,,,,,,,,,,,,,,,,,,,,,,,,,,,,,,,,,,,,,,,,,,,,,,,,,,,,,,,,,,,,,,,,,,,,,,,,,,,
,,,,,,,,,,,,,,,,,,,,,,,,,,,,,,,,,return,4.17243,-4.608,572.9677416,4,0,4,0,1,5e9db6b85484b70db14166bd,606c11c260cc8f86e2668cab,2021-04-06_09h48.19.010,Colour_Similarity_Experiment,2020.2.10,Win32,60,6067542a4a25243f4d7d4fcf,17.07157853,16.68557569,16.67923077,16.67988101,16.68015247,16.68015247,,,,,,,,,,,,,,,,,,,,,,,,,,,,,,,,,,,,,,,,,,,,,,,,,,,,,,,,,,,,,,,,,,,,,,,,,,,,,,,,,,,,,,,,,,,,,,,,,,,,,,,,,,,,,,,,,,
,,,,,,,,,,,,,,,,,,,,,,,,,,,,,,,,,,,,,,,,,,5e9db6b85484b70db14166bd,606c11c260cc8f86e2668cab,2021-04-06_09h48.19.010,Colour_Similarity_Experiment,2020.2.10,Win32,60,6067542a4a25243f4d7d4fcf,17.07157853,16.68557569,16.67923077,16.67988101,16.68015247,16.68015247,60,10.47303521,70.69298768,471.2865845,47.12865845,212.078963,space,11.053585,space,47.60543,space,58.2367,space,75.991815,space,5.689595,space,22.602185,6,PF,weak,3,-29.599989,-100.8000079,1,0,0,response5disk_5,3,3,6.132465,-8.799988687,-4.800006509,1,0,0,rectangle_8,116.0000132,-48.80000716,1,0,0,response3disk_7,5,5,3.200011492,-4.800006509,1,0,0,rectangle_4,0,0,0,5,1,,,,,,,,,,,,,,,,,,,,,,,,,,,,,,,,,,,,,,,,,,,,,,,,,,,,,,,,,,
,,,,,,,,,,,,,,,,,,,,,,,,,,,,,,,,,,,,,,,,,,5e9db6b85484b70db14166bd,606c11c260cc8f86e2668cab,2021-04-06_09h48.19.010,Colour_Similarity_Experiment,2020.2.10,Win32,60,6067542a4a25243f4d7d4fcf,17.07157853,16.68557569,16.67923077,16.67988101,16.68015247,16.68015247,,,,,,,,,,,,,,,,,,,8,PF,strong,3,35.20001197,-92.00000781,1,0,0,response3disk_5,2,4,10.32314,-0.799988568,-1.600006461,1,0,0,rectangle_8,96.80001289,-44.00000709,1,0,0,response3disk_7,5,5,-6.399939823,1.599993587,1,0,0,rectangle_4,0,1,1,0,1,,,,,,,,,,,,,,,,,,,,,,,,,,,,,,,,,,,,,,,,,,,,,,,,,,,,,,,,,,
,,,,,,,,,,,,,,,,,,,,,,,,,,,,,,,,,,,,,,,,,,5e9db6b85484b70db14166bd,606c11c260cc8f86e2668cab,2021-04-06_09h48.19.010,Colour_Similarity_Experiment,2020.2.10,Win32,60,6067542a4a25243f4d7d4fcf,17.07157853,16.68557569,16.67923077,16.67988101,16.68015247,16.68015247,,,,,,,,,,,,,,,,,,,4,PF,strong,3,-95.19998997,-50.40000719,1,0,0,response5disk_5,4,2,20.227995,-3.199988604,-6.400006533,1,0,0,rectangle_8,-3.199988604,-6.400006533,1,0,0,,,5,-3.199988604,-6.400006533,1,0,0,,0,2,2,3,1,,,,,,,,,,,,,,,,,,,,,,,,,,,,,,,,,,,,,,,,,,,,,,,,,,,,,,,,,,
,,,,,,,,,,,,,,,,,,,,,,,,,,,,,,,,,,,,,,,,,,5e9db6b85484b70db14166bd,606c11c260cc8f86e2668cab,2021-04-06_09h48.19.010,Colour_Similarity_Experiment,2020.2.10,Win32,60,6067542a4a25243f4d7d4fcf,17.07157853,16.68557569,16.67923077,16.67988101,16.68015247,16.68015247,,,,,,,,,,,,,,,,,,,7,PF,weak,3,-47.99998927,-92.00000781,1,0,0,response5disk_5,8,3,14.856615,-1.59998858,-1.600006461,1,0,0,rectangle_8,-1.59998858,-1.600006461,1,0,0,,,5,-1.59998858,-1.600006461,1,0,0,,0,3,3,6,1,,,,,,,,,,,,,,,,,,,,,,,,,,,,,,,,,,,,,,,,,,,,,,,,,,,,,,,,,,
,,,,,,,,,,,,,,,,,,,,,,,,,,,,,,,,,,,,,,,,,,5e9db6b85484b70db14166bd,606c11c260cc8f86e2668cab,2021-04-06_09h48.19.010,Colour_Similarity_Experiment,2020.2.10,Win32,60,6067542a4a25243f4d7d4fcf,17.07157853,16.68557569,16.67923077,16.67988101,16.68015247,16.68015247,,,,,,,,,,,,,,,,,,,6,PF,weak,3,-86.39994102,-53.60000724,1,0,0,response5disk_5,4,2,11.687565,7.200011551,-2.400006473,1,0,0,rectangle_8,7.200011551,-2.400006473,1,0,0,,,5,7.200011551,-2.400006473,1,0,0,,0,4,4,4,1,,,,,,,,,,,,,,,,,,,,,,,,,,,,,,,,,,,,,,,,,,,,,,,,,,,,,,,,,,
,,,,,,,,,,,,,,,,,,,,,,,,,,,,,,,,,,,,,,,,,,5e9db6b85484b70db14166bd,606c11c260cc8f86e2668cab,2021-04-06_09h48.19.010,Colour_Similarity_Experiment,2020.2.10,Win32,60,6067542a4a25243f4d7d4fcf,17.07157853,16.68557569,16.67923077,16.67988101,16.68015247,16.68015247,,,,,,,,,,,,,,,,,,,4,PF,strong,3,-80.79998976,31.99999404,1,0,0,response7disk_5,5,1,2.9139,4.800011516,-2.400006473,1,0,0,rectangle_8,4.800011516,-2.400006473,1,0,0,,,5,4.800011516,-2.400006473,1,0,0,,0,5,5,2,1,,,,,,,,,,,,,,,,,,,,,,,,,,,,,,,,,,,,,,,,,,,,,,,,,,,,,,,,,,
,,,,,,,,,,,,,,,,,,,,,,,,,,,,,,,,,,,,,,,,,,5e9db6b85484b70db14166bd,606c11c260cc8f86e2668cab,2021-04-06_09h48.19.010,Colour_Similarity_Experiment,2020.2.10,Win32,60,6067542a4a25243f4d7d4fcf,17.07157853,16.68557569,16.67923077,16.67988101,16.68015247,16.68015247,,,,,,,,,,,,,,,,,,,8,PF,weak,3,110.4000131,47.19996985,1,0,0,response1disk_5,3,6,4.36478,0.800011456,-2.400006473,1,0,0,rectangle_8,0.800011456,-2.400006473,1,0,0,,,5,0.800011456,-2.400006473,1,0,0,,0,6,6,1,1,,,,,,,,,,,,,,,,,,,,,,,,,,,,,,,,,,,,,,,,,,,,,,,,,,,,,,,,,,
,,,,,,,,,,,,,,,,,,,,,,,,,,,,,,,,,,,,,,,,,,5e9db6b85484b70db14166bd,606c11c260cc8f86e2668cab,2021-04-06_09h48.19.010,Colour_Similarity_Experiment,2020.2.10,Win32,60,6067542a4a25243f4d7d4fcf,17.07157853,16.68557569,16.67923077,16.67988101,16.68015247,16.68015247,,,,,,,,,,,,,,,,,,,,PF,strong,3,,,,,,,,5,5.44962,,,,,,,,,,,,,,,,,,,,,,,,,,space,6.062195,2,strong,109.6000131,-51.2000072,1,0,0,response3disk,9,1,-3.199988604,-4.800006509,1,0,0,rectangle,-3.199988604,-4.800006509,1,0,0,,7,0.000885,-3.199988604,-4.800006509,1,0,0,0,0,0,72,1,0,,,,,,,,,,,,,,,,,,,,,
,,,,,,,,,,,,,,,,,,,,,,,,,,,,,,,,,,,,,,,,,,5e9db6b85484b70db14166bd,606c11c260cc8f86e2668cab,2021-04-06_09h48.19.010,Colour_Similarity_Experiment,2020.2.10,Win32,60,6067542a4a25243f4d7d4fcf,17.07157853,16.68557569,16.67923077,16.67988101,16.68015247,16.68015247,,,,,,,,,,,,,,,,,,,,PF,strong,3,,,,,,,,3,7.150145,,,,,,,,,,,,,,,,,,,,,,,,,,,,9,strong,-38.3999403,-96.80000788,1,0,0,response5disk,5,2,6.400011539,3.19999361,1,0,0,rectangle,6.400011539,3.19999361,1,0,0,,5,0.00055,6.400011539,3.19999361,1,0,0,0,1,1,128,1,0,,,,,,,,,,,,,,,,,,,,,
,,,,,,,,,,,,,,,,,,,,,,,,,,,,,,,,,,,,,,,,,,5e9db6b85484b70db14166bd,606c11c260cc8f86e2668cab,2021-04-06_09h48.19.010,Colour_Similarity_Experiment,2020.2.10,Win32,60,6067542a4a25243f4d7d4fcf,17.07157853,16.68557569,16.67923077,16.67988101,16.68015247,16.68015247,,,,,,,,,,,,,,,,,,,,PF,strong,3,,,,,,,,6,4.931795,,,,,,,,,,,,,,,,,,,,,,,,,,,,6,strong,100.8000129,41.59999418,1,0,0,response1disk,2,3,-1.59998858,-0.800006449,1,0,0,rectangle,-1.59998858,-0.800006449,1,0,0,,7,0.00076,-1.59998858,-0.800006449,1,0,0,0,2,2,112,1,0,,,,,,,,,,,,,,,,,,,,,
,,,,,,,,,,,,,,,,,,,,,,,,,,,,,,,,,,,,,,,,,,5e9db6b85484b70db14166bd,606c11c260cc8f86e2668cab,2021-04-06_09h48.19.010,Colour_Similarity_Experiment,2020.2.10,Win32,60,6067542a4a25243f4d7d4fcf,17.07157853,16.68557569,16.67923077,16.67988101,16.68015247,16.68015247,,,,,,,,,,,,,,,,,,,,PF,weak,3,,,,,,,,3,5.616185,,,,,,,,,,,,,,,,,,,,,,,,,,,,6,weak,-61.59998947,-91.2000078,1,0,0,response5disk,8,4,1.14441E-05,-4.800006509,1,0,0,rectangle,1.14441E-05,-4.800006509,1,0,0,,5,0.0006,1.14441E-05,-4.800006509,1,0,0,0,3,3,64,1,0,,,,,,,,,,,,,,,,,,,,,
,,,,,,,,,,,,,,,,,,,,,,,,,,,,,,,,,,,,,,,,,,5e9db6b85484b70db14166bd,606c11c260cc8f86e2668cab,2021-04-06_09h48.19.010,Colour_Similarity_Experiment,2020.2.10,Win32,60,6067542a4a25243f4d7d4fcf,17.07157853,16.68557569,16.67923077,16.67988101,16.68015247,16.68015247,,,,,,,,,,,,,,,,,,,,PF,strong,3,,,,,,,,6,6.91606,,,,,,,,,,,,,,,,,,,,,,,,,,,,3,strong,92.00001281,38.39999413,1,0,0,response1disk,7,5,0.800011456,0.799993575,1,0,0,rectangle,0.800011456,0.799993575,1,0,0,,5,7.5E-05,0.800011456,0.799993575,1,0,0,0,4,4,118,1,0,,,,,,,,,,,,,,,,,,,,,
,,,,,,,,,,,,,,,,,,,,,,,,,,,,,,,,,,,,,,,,,,5e9db6b85484b70db14166bd,606c11c260cc8f86e2668cab,2021-04-06_09h48.19.010,Colour_Similarity_Experiment,2020.2.10,Win32,60,6067542a4a25243f4d7d4fcf,17.07157853,16.68557569,16.67923077,16.67988101,16.68015247,16.68015247,,,,,,,,,,,,,,,,,,,,PF,strong,3,,,,,,,,7,8.18473,,,,,,,,,,,,,,,,,,,,,,,,,,,,2,strong,56.00001228,81.59999478,1,0,0,response1disk,7,6,4.000011504,-0.800006449,1,0,0,rectangle,4.000011504,-0.800006449,1,0,0,,7,0.00075,4.000011504,-0.800006449,1,0,0,0,5,5,63,1,0,,,,,,,,,,,,,,,,,,,,,
,,,,,,,,,,,,,,,,,,,,,,,,,,,,,,,,,,,,,,,,,,5e9db6b85484b70db14166bd,606c11c260cc8f86e2668cab,2021-04-06_09h48.19.010,Colour_Similarity_Experiment,2020.2.10,Win32,60,6067542a4a25243f4d7d4fcf,17.07157853,16.68557569,16.67923077,16.67988101,16.68015247,16.68015247,,,,,,,,,,,,,,,,,,,,PF,strong,3,,,,,,,,6,2.34654,,,,,,,,,,,,,,,,,,,,,,,,,,,,6,strong,80.80001265,30.39999402,1,0,0,response1disk,3,7,-1.59998858,-3.200006485,1,0,0,rectangle,-1.59998858,-3.200006485,1,0,0,,0,0.000575,-1.59998858,-3.200006485,1,0,0,0,6,6,21,1,0,,,,,,,,,,,,,,,,,,,,,
,,,,,,,,,,,,,,,,,,,,,,,,,,,,,,,,,,,,,,,,,,5e9db6b85484b70db14166bd,606c11c260cc8f86e2668cab,2021-04-06_09h48.19.010,Colour_Similarity_Experiment,2020.2.10,Win32,60,6067542a4a25243f4d7d4fcf,17.07157853,16.68557569,16.67923077,16.67988101,16.68015247,16.68015247,,,,,,,,,,,,,,,,,,,,PF,weak,3,,,,,,,,2,5.521435,,,,,,,,,,,,,,,,,,,,,,,,,,,,3,weak,-103.1999901,-68.80000746,1,0,0,response5disk,4,8,1.14441E-05,-0.800006449,1,0,0,rectangle,1.14441E-05,-0.800006449,1,0,0,,1,0.000495,1.14441E-05,-0.800006449,1,0,0,0,7,7,30,1,0,,,,,,,,,,,,,,,,,,,,,
,,,,,,,,,,,,,,,,,,,,,,,,,,,,,,,,,,,,,,,,,,5e9db6b85484b70db14166bd,606c11c260cc8f86e2668cab,2021-04-06_09h48.19.010,Colour_Similarity_Experiment,2020.2.10,Win32,60,6067542a4a25243f4d7d4fcf,17.07157853,16.68557569,16.67923077,16.67988101,16.68015247,16.68015247,,,,,,,,,,,,,,,,,,,,PF,strong,3,,,,,,,,5,4.414285,,,,,,,,,,,,,,,,,,,,,,,,,,,,9,strong,100.8000129,-66.40000743,1,0,0,response3disk,3,9,-2.399939764,0.799993575,1,0,0,rectangle,-2.399939764,0.799993575,1,0,0,,3,0.000525,-2.399939764,0.799993575,1,0,0,0,8,8,141,1,0,,,,,,,,,,,,,,,,,,,,,
,,,,,,,,,,,,,,,,,,,,,,,,,,,,,,,,,,,,,,,,,,5e9db6b85484b70db14166bd,606c11c260cc8f86e2668cab,2021-04-06_09h48.19.010,Colour_Similarity_Experiment,2020.2.10,Win32,60,6067542a4a25243f4d7d4fcf,17.07157853,16.68557569,16.67923077,16.67988101,16.68015247,16.68015247,,,,,,,,,,,,,,,,,,,,PF,strong,3,,,,,,,,4,7.83397,,,,,,,,,,,,,,,,,,,,,,,,,,,,2,strong,68.00001246,-92.00000781,1,0,0,response3disk,8,10,1.14441E-05,-0.800006449,1,0,0,rectangle,1.14441E-05,-0.800006449,1,0,0,,0,0.000575,1.14441E-05,-0.800006449,1,0,0,0,9,9,62,1,0,,,,,,,,,,,,,,,,,,,,,
,,,,,,,,,,,,,,,,,,,,,,,,,,,,,,,,,,,,,,,,,,5e9db6b85484b70db14166bd,606c11c260cc8f86e2668cab,2021-04-06_09h48.19.010,Colour_Similarity_Experiment,2020.2.10,Win32,60,6067542a4a25243f4d7d4fcf,17.07157853,16.68557569,16.67923077,16.67988101,16.68015247,16.68015247,,,,,,,,,,,,,,,,,,,,PF,strong,3,,,,,,,,4,3.880985,,,,,,,,,,,,,,,,,,,,,,,,,,,,4,strong,42.40001208,-76.80000758,1,0,0,response3disk,9,11,-3.199988604,-6.4373E-06,1,0,0,rectangle,-3.199988604,-6.4373E-06,1,0,0,,5,0.00075,-3.199988604,-6.4373E-06,1,0,0,0,10,10,90,1,0,,,,,,,,,,,,,,,,,,,,,
,,,,,,,,,,,,,,,,,,,,,,,,,,,,,,,,,,,,,,,,,,5e9db6b85484b70db14166bd,606c11c260cc8f86e2668cab,2021-04-06_09h48.19.010,Colour_Similarity_Experiment,2020.2.10,Win32,60,6067542a4a25243f4d7d4fcf,17.07157853,16.68557569,16.67923077,16.67988101,16.68015247,16.68015247,,,,,,,,,,,,,,,,,,,,PF,weak,3,,,,,,,,0,4.15366,,,,,,,,,,,,,,,,,,,,,,,,,,,,1,weak,-49.5999893,76.79999471,1,0,0,response7disk,1,12,1.14441E-05,-3.200006485,1,0,0,rectangle,101.600013,-52.00000721,1,0,0,5,5,2.685595,2.40001148,-0.800006449,1,0,0,0,11,11,76,1,1,response3disk_3,rectangle,,,,,,,,,,,,,,,,,,,
,,,,,,,,,,,,,,,,,,,,,,,,,,,,,,,,,,,,,,,,,,5e9db6b85484b70db14166bd,606c11c260cc8f86e2668cab,2021-04-06_09h48.19.010,Colour_Similarity_Experiment,2020.2.10,Win32,60,6067542a4a25243f4d7d4fcf,17.07157853,16.68557569,16.67923077,16.67988101,16.68015247,16.68015247,,,,,,,,,,,,,,,,,,,,PF,weak,3,,,,,,,,3,3.580545,,,,,,,,,,,,,,,,,,,,,,,,,,,,3,weak,-67.99998957,-111.2000081,1,0,0,response5disk,1,13,1.14441E-05,-2.400006473,1,0,0,rectangle,1.14441E-05,-2.400006473,1,0,0,5,4,0.00054,1.14441E-05,-2.400006473,1,0,0,0,12,12,96,1,0,,,,,,,,,,,,,,,,,,,,,
,,,,,,,,,,,,,,,,,,,,,,,,,,,,,,,,,,,,,,,,,,5e9db6b85484b70db14166bd,606c11c260cc8f86e2668cab,2021-04-06_09h48.19.010,Colour_Similarity_Experiment,2020.2.10,Win32,60,6067542a4a25243f4d7d4fcf,17.07157853,16.68557569,16.67923077,16.67988101,16.68015247,16.68015247,,,,,,,,,,,,,,,,,,,,PF,weak,3,,,,,,,,5,1.846655,,,,,,,,,,,,,,,,,,,,,,,,,,,,8,weak,87.20001274,-52.80000722,1,0,0,response3disk,3,14,5.600060356,-2.400006473,1,0,0,rectangle,5.600060356,-2.400006473,1,0,0,5,0,0.000575,5.600060356,-2.400006473,1,0,0,0,13,13,71,1,0,,,,,,,,,,,,,,,,,,,,,
,,,,,,,,,,,,,,,,,,,,,,,,,,,,,,,,,,,,,,,,,,5e9db6b85484b70db14166bd,606c11c260cc8f86e2668cab,2021-04-06_09h48.19.010,Colour_Similarity_Experiment,2020.2.10,Win32,60,6067542a4a25243f4d7d4fcf,17.07157853,16.68557569,16.67923077,16.67988101,16.68015247,16.68015247,,,,,,,,,,,,,,,,,,,,PF,strong,3,,,,,,,,3,5.44841,,,,,,,,,,,,,,,,,,,,,,,,,,,,8,strong,-26.39994012,-107.200008,1,0,0,response5disk,2,15,8.800011575,3.19999361,1,0,0,rectangle,8.800011575,3.19999361,1,0,0,5,4,0.000525,8.800011575,3.19999361,1,0,0,0,14,14,22,1,0,,,,,,,,,,,,,,,,,,,,,
,,,,,,,,,,,,,,,,,,,,,,,,,,,,,,,,,,,,,,,,,,5e9db6b85484b70db14166bd,606c11c260cc8f86e2668cab,2021-04-06_09h48.19.010,Colour_Similarity_Experiment,2020.2.10,Win32,60,6067542a4a25243f4d7d4fcf,17.07157853,16.68557569,16.67923077,16.67988101,16.68015247,16.68015247,,,,,,,,,,,,,,,,,,,,PF,strong,3,,,,,,,,2,1.445215,,,,,,,,,,,,,,,,,,,,,,,,,,,,4,strong,-69.59998959,-47.20000714,1,0,0,response5disk,7,16,1.600060296,-2.400006473,1,0,0,rectangle,1.600060296,-2.400006473,1,0,0,5,2,0.00047,1.600060296,-2.400006473,1,0,0,0,15,15,87,1,0,,,,,,,,,,,,,,,,,,,,,
,,,,,,,,,,,,,,,,,,,,,,,,,,,,,,,,,,,,,,,,,,5e9db6b85484b70db14166bd,606c11c260cc8f86e2668cab,2021-04-06_09h48.19.010,Colour_Similarity_Experiment,2020.2.10,Win32,60,6067542a4a25243f4d7d4fcf,17.07157853,16.68557569,16.67923077,16.67988101,16.68015247,16.68015247,,,,,,,,,,,,,,,,,,,,PF,weak,3,,,,,,,,3,5.215085,,,,,,,,,,,,,,,,,,,,,,,,,,,,8,weak,-22.39994006,-121.6000571,1,0,0,response5disk,6,17,-0.799988568,-1.600006461,1,0,0,rectangle,-48.79998928,105.5999951,1,0,0,0,0,2.134955,7.200011551,3.999993622,1,0,0,0,16,16,161,1,1,response7disk_3,rectangle,,,,,,,,,,,,,,,,,,,
,,,,,,,,,,,,,,,,,,,,,,,,,,,,,,,,,,,,,,,,,,5e9db6b85484b70db14166bd,606c11c260cc8f86e2668cab,2021-04-06_09h48.19.010,Colour_Similarity_Experiment,2020.2.10,Win32,60,6067542a4a25243f4d7d4fcf,17.07157853,16.68557569,16.67923077,16.67988101,16.68015247,16.68015247,,,,,,,,,,,,,,,,,,,,PF,strong,3,,,,,,,,3,4.014195,,,,,,,,,,,,,,,,,,,,,,,,,,,,3,strong,-40.79998916,-108.000008,1,0,0,response5disk,8,18,1.14441E-05,-6.400006533,1,0,0,rectangle,1.14441E-05,-6.400006533,1,0,0,0,3,0.00055,1.14441E-05,-6.400006533,1,0,0,0,17,17,44,1,0,,,,,,,,,,,,,,,,,,,,,
,,,,,,,,,,,,,,,,,,,,,,,,,,,,,,,,,,,,,,,,,,5e9db6b85484b70db14166bd,606c11c260cc8f86e2668cab,2021-04-06_09h48.19.010,Colour_Similarity_Experiment,2020.2.10,Win32,60,6067542a4a25243f4d7d4fcf,17.07157853,16.68557569,16.67923077,16.67988101,16.68015247,16.68015247,,,,,,,,,,,,,,,,,,,,PF,strong,3,,,,,,,,4,3.33106,,,,,,,,,,,,,,,,,,,,,,,,,,,,5,strong,32.00001192,-108.8000081,1,0,0,response3disk,1,19,2.40001148,-2.400006473,1,0,0,rectangle,2.40001148,-2.400006473,1,0,0,0,6,0.000575,2.40001148,-2.400006473,1,0,0,0,18,18,131,1,0,,,,,,,,,,,,,,,,,,,,,
,,,,,,,,,,,,,,,,,,,,,,,,,,,,,,,,,,,,,,,,,,5e9db6b85484b70db14166bd,606c11c260cc8f86e2668cab,2021-04-06_09h48.19.010,Colour_Similarity_Experiment,2020.2.10,Win32,60,6067542a4a25243f4d7d4fcf,17.07157853,16.68557569,16.67923077,16.67988101,16.68015247,16.68015247,,,,,,,,,,,,,,,,,,,,PF,strong,3,,,,,,,,3,1.97909,,,,,,,,,,,,,,,,,,,,,,,,,,,,9,strong,-45.59998924,-100.8000079,1,0,0,response5disk,6,20,-0.799988568,-6.400006533,1,0,0,rectangle,-0.799988568,-6.400006533,1,0,0,0,0,0.000525,-0.799988568,-6.400006533,1,0,0,0,19,19,117,1,0,,,,,,,,,,,,,,,,,,,,,
,,,,,,,,,,,,,,,,,,,,,,,,,,,,,,,,,,,,,,,,,,5e9db6b85484b70db14166bd,606c11c260cc8f86e2668cab,2021-04-06_09h48.19.010,Colour_Similarity_Experiment,2020.2.10,Win32,60,6067542a4a25243f4d7d4fcf,17.07157853,16.68557569,16.67923077,16.67988101,16.68015247,16.68015247,,,,,,,,,,,,,,,,,,,,PF,strong,3,,,,,,,,5,2.1129,,,,,,,,,,,,,,,,,,,,,,,,,,,,7,strong,66.40001243,-37.600007,1,0,0,response3disk,2,21,-2.399939764,-4.000006497,1,0,0,rectangle,-2.399939764,-4.000006497,1,0,0,0,0,7.00001E-05,-2.399939764,-4.000006497,1,0,0,0,20,20,138,1,0,,,,,,,,,,,,,,,,,,,,,
,,,,,,,,,,,,,,,,,,,,,,,,,,,,,,,,,,,,,,,,,,5e9db6b85484b70db14166bd,606c11c260cc8f86e2668cab,2021-04-06_09h48.19.010,Colour_Similarity_Experiment,2020.2.10,Win32,60,6067542a4a25243f4d7d4fcf,17.07157853,16.68557569,16.67923077,16.67988101,16.68015247,16.68015247,,,,,,,,,,,,,,,,,,,,PF,weak,3,,,,,,,,3,5.215075,,,,,,,,,,,,,,,,,,,,,,,,,,,,4,weak,-31.19998902,-116.8000082,1,0,0,response5disk,8,22,1.600060296,-4.000006497,1,0,0,rectangle,1.600060296,-4.000006497,1,0,0,0,5,0.00051,1.600060296,-4.000006497,1,0,0,0,21,21,124,1,0,,,,,,,,,,,,,,,,,,,,,
,,,,,,,,,,,,,,,,,,,,,,,,,,,,,,,,,,,,,,,,,,5e9db6b85484b70db14166bd,606c11c260cc8f86e2668cab,2021-04-06_09h48.19.010,Colour_Similarity_Experiment,2020.2.10,Win32,60,6067542a4a25243f4d7d4fcf,17.07157853,16.68557569,16.67923077,16.67988101,16.68015247,16.68015247,,,,,,,,,,,,,,,,,,,,PF,strong,3,,,,,,,,2,2.863495,,,,,,,,,,,,,,,,,,,,,,,,,,,,7,strong,-95.19998997,-36.00000697,1,0,0,response5disk,9,23,1.600060296,-1.600006461,1,0,0,rectangle,1.600060296,-1.600006461,1,0,0,0,6,0.000535,1.600060296,-1.600006461,1,0,0,0,22,22,155,1,0,,,,,,,,,,,,,,,,,,,,,
,,,,,,,,,,,,,,,,,,,,,,,,,,,,,,,,,,,,,,,,,,5e9db6b85484b70db14166bd,606c11c260cc8f86e2668cab,2021-04-06_09h48.19.010,Colour_Similarity_Experiment,2020.2.10,Win32,60,6067542a4a25243f4d7d4fcf,17.07157853,16.68557569,16.67923077,16.67988101,16.68015247,16.68015247,,,,,,,,,,,,,,,,,,,,PF,strong,3,,,,,,,,1,1.29554,,,,,,,,,,,,,,,,,,,,,,,,,,,,4,strong,-72.79998964,30.39999402,1,0,0,response7disk,5,24,5.600060356,-2.400006473,1,0,0,rectangle,5.600060356,-2.400006473,1,0,0,0,0,0.000595,5.600060356,-2.400006473,1,0,0,0,23,23,116,1,0,,,,,,,,,,,,,,,,,,,,,
,,,,,,,,,,,,,,,,,,,,,,,,,,,,,,,,,,,,,,,,,,5e9db6b85484b70db14166bd,606c11c260cc8f86e2668cab,2021-04-06_09h48.19.010,Colour_Similarity_Experiment,2020.2.10,Win32,60,6067542a4a25243f4d7d4fcf,17.07157853,16.68557569,16.67923077,16.67988101,16.68015247,16.68015247,,,,,,,,,,,,,,,,,,,,PF,strong,3,,,,,,,,1,1.578675,,,,,,,,,,,,,,,,,,,,,,,,,,,,2,strong,-99.99999005,54.39999437,1,0,0,response7disk,3,25,1.600060296,3.999993622,1,0,0,rectangle,81.60001266,-47.20000714,1,0,0,5,5,1.884335,-2.399939764,-0.800006449,1,0,0,0,24,24,104,1,1,response3disk_3,rectangle,,,,,,,,,,,,,,,,,,,
,,,,,,,,,,,,,,,,,,,,,,,,,,,,,,,,,,,,,,,,,,5e9db6b85484b70db14166bd,606c11c260cc8f86e2668cab,2021-04-06_09h48.19.010,Colour_Similarity_Experiment,2020.2.10,Win32,60,6067542a4a25243f4d7d4fcf,17.07157853,16.68557569,16.67923077,16.67988101,16.68015247,16.68015247,,,,,,,,,,,,,,,,,,,,PF,weak,3,,,,,,,,2,4.198665,,,,,,,,,,,,,,,,,,,,,,,,,,,,2,weak,-85.59998983,-56.00000727,1,0,0,response5disk,4,26,1.600060296,0.799993575,1,0,0,rectangle,1.600060296,0.799993575,1,0,0,5,5,7E-05,1.600060296,0.799993575,1,0,0,0,25,25,127,1,0,,,,,,,,,,,,,,,,,,,,,
,,,,,,,,,,,,,,,,,,,,,,,,,,,,,,,,,,,,,,,,,,5e9db6b85484b70db14166bd,606c11c260cc8f86e2668cab,2021-04-06_09h48.19.010,Colour_Similarity_Experiment,2020.2.10,Win32,60,6067542a4a25243f4d7d4fcf,17.07157853,16.68557569,16.67923077,16.67988101,16.68015247,16.68015247,,,,,,,,,,,,,,,,,,,,PF,weak,3,,,,,,,,1,1.14516,,,,,,,,,,,,,,,,,,,,,,,,,,,,5,weak,-98.39994119,56.79999441,1,0,0,response7disk,6,27,2.40001148,-0.800006449,1,0,0,rectangle,2.40001148,-0.800006449,1,0,0,5,1,0.00077,2.40001148,-0.800006449,1,0,0,0,26,26,103,1,0,,,,,,,,,,,,,,,,,,,,,
,,,,,,,,,,,,,,,,,,,,,,,,,,,,,,,,,,,,,,,,,,5e9db6b85484b70db14166bd,606c11c260cc8f86e2668cab,2021-04-06_09h48.19.010,Colour_Similarity_Experiment,2020.2.10,Win32,60,6067542a4a25243f4d7d4fcf,17.07157853,16.68557569,16.67923077,16.67988101,16.68015247,16.68015247,,,,,,,,,,,,,,,,,,,,PF,weak,3,,,,,,,,2,1.77874,,,,,,,,,,,,,,,,,,,,,,,,,,,,3,weak,-80.79998976,-56.80000728,1,0,0,response5disk,5,28,1.600060296,-1.600006461,1,0,0,rectangle,1.600060296,-1.600006461,1,0,0,5,1,6.5E-05,1.600060296,-1.600006461,1,0,0,0,27,27,66,1,0,,,,,,,,,,,,,,,,,,,,,
,,,,,,,,,,,,,,,,,,,,,,,,,,,,,,,,,,,,,,,,,,5e9db6b85484b70db14166bd,606c11c260cc8f86e2668cab,2021-04-06_09h48.19.010,Colour_Similarity_Experiment,2020.2.10,Win32,60,6067542a4a25243f4d7d4fcf,17.07157853,16.68557569,16.67923077,16.67988101,16.68015247,16.68015247,,,,,,,,,,,,,,,,,,,,PF,weak,3,,,,,,,,2,1.612275,,,,,,,,,,,,,,,,,,,,,,,,,,,,4,weak,-100.7999901,-62.40000737,1,0,0,response5disk,2,29,-3.199988604,-4.000006497,1,0,0,rectangle,-3.199988604,-4.000006497,1,0,0,5,2,0.00055,-3.199988604,-4.000006497,1,0,0,0,28,28,108,1,0,,,,,,,,,,,,,,,,,,,,,
,,,,,,,,,,,,,,,,,,,,,,,,,,,,,,,,,,,,,,,,,,5e9db6b85484b70db14166bd,606c11c260cc8f86e2668cab,2021-04-06_09h48.19.010,Colour_Similarity_Experiment,2020.2.10,Win32,60,6067542a4a25243f4d7d4fcf,17.07157853,16.68557569,16.67923077,16.67988101,16.68015247,16.68015247,,,,,,,,,,,,,,,,,,,,PF,strong,3,,,,,,,,2,4.53135,,,,,,,,,,,,,,,,,,,,,,,,,,,,3,strong,-88.79998988,-60.80000734,1,0,0,response5disk,9,30,-4.799988627,-4.800006509,1,0,0,rectangle,-4.799988627,-4.800006509,1,0,0,5,3,0.000595,-4.799988627,-4.800006509,1,0,0,0,29,29,143,1,0,,,,,,,,,,,,,,,,,,,,,
,,,,,,,,,,,,,,,,,,,,,,,,,,,,,,,,,,,,,,,,,,5e9db6b85484b70db14166bd,606c11c260cc8f86e2668cab,2021-04-06_09h48.19.010,Colour_Similarity_Experiment,2020.2.10,Win32,60,6067542a4a25243f4d7d4fcf,17.07157853,16.68557569,16.67923077,16.67988101,16.68015247,16.68015247,,,,,,,,,,,,,,,,,,,,PF,strong,3,,,,,,,,1,1.92943,,,,,,,,,,,,,,,,,,,,,,,,,,,,5,strong,-98.39994119,22.3999939,1,0,0,response7disk,3,31,0.800011456,-3.200006485,1,0,0,rectangle,0.800011456,-3.200006485,1,0,0,5,7,0.00056,0.800011456,-3.200006485,1,0,0,0,30,30,25,1,0,,,,,,,,,,,,,,,,,,,,,
,,,,,,,,,,,,,,,,,,,,,,,,,,,,,,,,,,,,,,,,,,5e9db6b85484b70db14166bd,606c11c260cc8f86e2668cab,2021-04-06_09h48.19.010,Colour_Similarity_Experiment,2020.2.10,Win32,60,6067542a4a25243f4d7d4fcf,17.07157853,16.68557569,16.67923077,16.67988101,16.68015247,16.68015247,,,,,,,,,,,,,,,,,,,,PF,strong,3,,,,,,,,1,1.517955,,,,,,,,,,,,,,,,,,,,,,,,,,,,7,strong,-72.79998964,38.39999413,1,0,0,response7disk,6,32,0.800011456,-4.800006509,1,0,0,rectangle,0.800011456,-4.800006509,1,0,0,5,1,0.00053,0.800011456,-4.800006509,1,0,0,0,31,31,31,1,0,,,,,,,,,,,,,,,,,,,,,
,,,,,,,,,,,,,,,,,,,,,,,,,,,,,,,,,,,,,,,,,,5e9db6b85484b70db14166bd,606c11c260cc8f86e2668cab,2021-04-06_09h48.19.010,Colour_Similarity_Experiment,2020.2.10,Win32,60,6067542a4a25243f4d7d4fcf,17.07157853,16.68557569,16.67923077,16.67988101,16.68015247,16.68015247,,,,,,,,,,,,,,,,,,,,PF,weak,3,,,,,,,,0,0.92882,,,,,,,,,,,,,,,,,,,,,,,,,,,,8,weak,-41.59998918,85.59999484,1,0,0,response7disk,8,33,0.800011456,-8.000006557,1,0,0,rectangle,0.800011456,-8.000006557,1,0,0,5,7,0.00115,0.800011456,-8.000006557,1,0,0,0,32,32,153,1,0,,,,,,,,,,,,,,,,,,,,,
,,,,,,,,,,,,,,,,,,,,,,,,,,,,,,,,,,,,,,,,,,5e9db6b85484b70db14166bd,606c11c260cc8f86e2668cab,2021-04-06_09h48.19.010,Colour_Similarity_Experiment,2020.2.10,Win32,60,6067542a4a25243f4d7d4fcf,17.07157853,16.68557569,16.67923077,16.67988101,16.68015247,16.68015247,,,,,,,,,,,,,,,,,,,,PF,weak,3,,,,,,,,1,1.41225,,,,,,,,,,,,,,,,,,,,,,,,,,,,5,weak,-95.19998997,53.59999436,1,0,0,response7disk,3,34,5.600060356,-3.200006485,1,0,0,rectangle,5.600060356,-3.200006485,1,0,0,5,3,0.00055,5.600060356,-3.200006485,1,0,0,0,33,33,109,1,0,,,,,,,,,,,,,,,,,,,,,
,,,,,,,,,,,,,,,,,,,,,,,,,,,,,,,,,,,,,,,,,,5e9db6b85484b70db14166bd,606c11c260cc8f86e2668cab,2021-04-06_09h48.19.010,Colour_Similarity_Experiment,2020.2.10,Win32,60,6067542a4a25243f4d7d4fcf,17.07157853,16.68557569,16.67923077,16.67988101,16.68015247,16.68015247,,,,,,,,,,,,,,,,,,,,PF,weak,3,,,,,,,,1,2.830345,,,,,,,,,,,,,,,,,,,,,,,,,,,,9,weak,-98.39994119,71.19997021,1,0,0,response7disk,8,35,4.000011504,-2.400006473,1,0,0,rectangle,4.000011504,-2.400006473,1,0,0,5,7,0.00071,4.000011504,-2.400006473,1,0,0,0,34,34,67,1,0,,,,,,,,,,,,,,,,,,,,,
,,,,,,,,,,,,,,,,,,,,,,,,,,,,,,,,,,,,,,,,,,5e9db6b85484b70db14166bd,606c11c260cc8f86e2668cab,2021-04-06_09h48.19.010,Colour_Similarity_Experiment,2020.2.10,Win32,60,6067542a4a25243f4d7d4fcf,17.07157853,16.68557569,16.67923077,16.67988101,16.68015247,16.68015247,,,,,,,,,,,,,,,,,,,,PF,weak,3,,,,,,,,6,1.751895,,,,,,,,,,,,,,,,,,,,,,,,,,,,6,weak,93.60001284,43.19996979,1,0,0,response1disk,1,36,-2.399939764,-4.000006497,1,0,0,rectangle,-2.399939764,-4.000006497,1,0,0,5,5,0.00054,-2.399939764,-4.000006497,1,0,0,0,35,35,46,1,0,,,,,,,,,,,,,,,,,,,,,
,,,,,,,,,,,,,,,,,,,,,,,,,,,,,,,,,,,,,,,,,,5e9db6b85484b70db14166bd,606c11c260cc8f86e2668cab,2021-04-06_09h48.19.010,Colour_Similarity_Experiment,2020.2.10,Win32,60,6067542a4a25243f4d7d4fcf,17.07157853,16.68557569,16.67923077,16.67988101,16.68015247,16.68015247,,,,,,,,,,,,,,,,,,,,PF,weak,3,,,,,,,,5,2.597235,,,,,,,,,,,,,,,,,,,,,,,,,,,,9,weak,106.400013,-44.8000071,1,0,0,response3disk,2,37,6.400011539,-1.600006461,1,0,0,rectangle,6.400011539,-1.600006461,1,0,0,5,6,0.00067,6.400011539,-1.600006461,1,0,0,0,36,36,157,1,0,,,,,,,,,,,,,,,,,,,,,
,,,,,,,,,,,,,,,,,,,,,,,,,,,,,,,,,,,,,,,,,,5e9db6b85484b70db14166bd,606c11c260cc8f86e2668cab,2021-04-06_09h48.19.010,Colour_Similarity_Experiment,2020.2.10,Win32,60,6067542a4a25243f4d7d4fcf,17.07157853,16.68557569,16.67923077,16.67988101,16.68015247,16.68015247,,,,,,,,,,,,,,,,,,,,PF,weak,3,,,,,,,,2,2.17973,,,,,,,,,,,,,,,,,,,,,,,,,,,,4,weak,-105.5999901,-49.60000718,1,0,0,response5disk,6,38,2.40001148,-6.4373E-06,1,0,0,rectangle,2.40001148,-6.4373E-06,1,0,0,5,0,0.000555,2.40001148,-6.4373E-06,1,0,0,0,37,37,120,1,0,,,,,,,,,,,,,,,,,,,,,
,,,,,,,,,,,,,,,,,,,,,,,,,,,,,,,,,,,,,,,,,,5e9db6b85484b70db14166bd,606c11c260cc8f86e2668cab,2021-04-06_09h48.19.010,Colour_Similarity_Experiment,2020.2.10,Win32,60,6067542a4a25243f4d7d4fcf,17.07157853,16.68557569,16.67923077,16.67988101,16.68015247,16.68015247,,,,,,,,,,,,,,,,,,,,PF,strong,3,,,,,,,,0,1.079075,,,,,,,,,,,,,,,,,,,,,,,,,,,,6,strong,-42.39994036,104.7999951,1,0,0,response7disk,6,39,1.600060296,-4.000006497,1,0,0,rectangle,1.600060296,-4.000006497,1,0,0,5,2,0.000515,1.600060296,-4.000006497,1,0,0,0,38,38,91,1,0,,,,,,,,,,,,,,,,,,,,,
,,,,,,,,,,,,,,,,,,,,,,,,,,,,,,,,,,,,,,,,,,5e9db6b85484b70db14166bd,606c11c260cc8f86e2668cab,2021-04-06_09h48.19.010,Colour_Similarity_Experiment,2020.2.10,Win32,60,6067542a4a25243f4d7d4fcf,17.07157853,16.68557569,16.67923077,16.67988101,16.68015247,16.68015247,,,,,,,,,,,,,,,,,,,,PF,strong,3,,,,,,,,1,1.312635,,,,,,,,,,,,,,,,,,,,,,,,,,,,6,strong,-103.1999901,46.39999425,1,0,0,response7disk,5,40,4.800011516,-3.200006485,1,0,0,rectangle,4.800011516,-3.200006485,1,0,0,5,0,0.00051,4.800011516,-3.200006485,1,0,0,0,39,39,126,1,0,,,,,,,,,,,,,,,,,,,,,
,,,,,,,,,,,,,,,,,,,,,,,,,,,,,,,,,,,,,,,,,,5e9db6b85484b70db14166bd,606c11c260cc8f86e2668cab,2021-04-06_09h48.19.010,Colour_Similarity_Experiment,2020.2.10,Win32,60,6067542a4a25243f4d7d4fcf,17.07157853,16.68557569,16.67923077,16.67988101,16.68015247,16.68015247,,,,,,,,,,,,,,,,,,,,PF,strong,3,,,,,,,,3,3.71433,,,,,,,,,,,,,,,,,,,,,,,,,,,,2,strong,-24.79998893,-116.8000082,1,0,0,response5disk,1,41,-2.399939764,-0.800006449,1,0,0,rectangle,-2.399939764,-0.800006449,1,0,0,5,2,0.000725,-2.399939764,-0.800006449,1,0,0,0,40,40,85,1,0,,,,,,,,,,,,,,,,,,,,,
,,,,,,,,,,,,,,,,,,,,,,,,,,,,,,,,,,,,,,,,,,5e9db6b85484b70db14166bd,606c11c260cc8f86e2668cab,2021-04-06_09h48.19.010,Colour_Similarity_Experiment,2020.2.10,Win32,60,6067542a4a25243f4d7d4fcf,17.07157853,16.68557569,16.67923077,16.67988101,16.68015247,16.68015247,,,,,,,,,,,,,,,,,,,,PF,weak,3,,,,,,,,2,1.228775,,,,,,,,,,,,,,,,,,,,,,,,,,,,9,weak,-83.99998981,-43.20000708,1,0,0,response5disk,7,42,15.20001167,-1.600006461,1,0,0,rectangle,15.20001167,-1.600006461,1,0,0,5,2,0.0008,15.20001167,-1.600006461,1,0,0,0,41,41,121,1,0,,,,,,,,,,,,,,,,,,,,,
,,,,,,,,,,,,,,,,,,,,,,,,,,,,,,,,,,,,,,,,,,5e9db6b85484b70db14166bd,606c11c260cc8f86e2668cab,2021-04-06_09h48.19.010,Colour_Similarity_Experiment,2020.2.10,Win32,60,6067542a4a25243f4d7d4fcf,17.07157853,16.68557569,16.67923077,16.67988101,16.68015247,16.68015247,,,,,,,,,,,,,,,,,,,,PF,strong,3,,,,,,,,6,2.62988,,,,,,,,,,,,,,,,,,,,,,,,,,,,8,strong,88.00001276,47.99999428,1,0,0,response1disk,4,43,-0.799988568,3.999993622,1,0,0,rectangle,-0.799988568,3.999993622,1,0,0,5,5,0.00052,-0.799988568,3.999993622,1,0,0,0,42,42,88,1,0,,,,,,,,,,,,,,,,,,,,,
,,,,,,,,,,,,,,,,,,,,,,,,,,,,,,,,,,,,,,,,,,5e9db6b85484b70db14166bd,606c11c260cc8f86e2668cab,2021-04-06_09h48.19.010,Colour_Similarity_Experiment,2020.2.10,Win32,60,6067542a4a25243f4d7d4fcf,17.07157853,16.68557569,16.67923077,16.67988101,16.68015247,16.68015247,,,,,,,,,,,,,,,,,,,,PF,strong,3,,,,,,,,3,1.879515,,,,,,,,,,,,,,,,,,,,,,,,,,,,3,strong,-30.39994018,-96.80000788,1,0,0,response5disk,4,44,-4.799988627,-4.000006497,1,0,0,rectangle,-4.799988627,-4.000006497,1,0,0,5,3,0.00076,-4.799988627,-4.000006497,1,0,0,0,43,43,110,1,0,,,,,,,,,,,,,,,,,,,,,
,,,,,,,,,,,,,,,,,,,,,,,,,,,,,,,,,,,,,,,,,,5e9db6b85484b70db14166bd,606c11c260cc8f86e2668cab,2021-04-06_09h48.19.010,Colour_Similarity_Experiment,2020.2.10,Win32,60,6067542a4a25243f4d7d4fcf,17.07157853,16.68557569,16.67923077,16.67988101,16.68015247,16.68015247,,,,,,,,,,,,,,,,,,,,PF,weak,3,,,,,,,,1,1.728715,,,,,,,,,,,,,,,,,,,,,,,,,,,,3,weak,-91.99998993,48.79999429,1,0,0,response7disk,2,45,4.800011516,-5.600006521,1,0,0,rectangle,-99.19999003,-50.40000719,1,0,0,5,2,2.351805,-5.599988639,-1.600006461,1,0,0,0,44,44,36,1,1,response5disk_3,rectangle,,,,,,,,,,,,,,,,,,,
,,,,,,,,,,,,,,,,,,,,,,,,,,,,,,,,,,,,,,,,,,5e9db6b85484b70db14166bd,606c11c260cc8f86e2668cab,2021-04-06_09h48.19.010,Colour_Similarity_Experiment,2020.2.10,Win32,60,6067542a4a25243f4d7d4fcf,17.07157853,16.68557569,16.67923077,16.67988101,16.68015247,16.68015247,,,,,,,,,,,,,,,,,,,,PF,strong,3,,,,,,,,1,1.061925,,,,,,,,,,,,,,,,,,,,,,,,,,,,1,strong,-108.7999902,41.59999418,1,0,0,response7disk,9,46,1.600060296,-7.200006545,1,0,0,rectangle,1.600060296,-7.200006545,1,0,0,5,5,0.000595,1.600060296,-7.200006545,1,0,0,0,45,45,123,1,0,,,,,,,,,,,,,,,,,,,,,
,,,,,,,,,,,,,,,,,,,,,,,,,,,,,,,,,,,,,,,,,,5e9db6b85484b70db14166bd,606c11c260cc8f86e2668cab,2021-04-06_09h48.19.010,Colour_Similarity_Experiment,2020.2.10,Win32,60,6067542a4a25243f4d7d4fcf,17.07157853,16.68557569,16.67923077,16.67988101,16.68015247,16.68015247,,,,,,,,,,,,,,,,,,,,PF,strong,3,,,,,,,,0,1.52917,,,,,,,,,,,,,,,,,,,,,,,,,,,,9,strong,-53.59998935,82.39999479,1,0,0,response7disk,9,47,-7.999988675,-4.000006497,1,0,0,rectangle,-7.999988675,-4.000006497,1,0,0,5,1,0.000615,-7.999988675,-4.000006497,1,0,0,0,46,46,17,1,0,,,,,,,,,,,,,,,,,,,,,
,,,,,,,,,,,,,,,,,,,,,,,,,,,,,,,,,,,,,,,,,,5e9db6b85484b70db14166bd,606c11c260cc8f86e2668cab,2021-04-06_09h48.19.010,Colour_Similarity_Experiment,2020.2.10,Win32,60,6067542a4a25243f4d7d4fcf,17.07157853,16.68557569,16.67923077,16.67988101,16.68015247,16.68015247,,,,,,,,,,,,,,,,,,,,PF,weak,3,,,,,,,,5,3.19724,,,,,,,,,,,,,,,,,,,,,,,,,,,,2,weak,89.60001278,-59.20000732,1,0,0,response3disk,6,48,5.600060356,1.599993587,1,0,0,rectangle,5.600060356,1.599993587,1,0,0,5,3,0.00154,5.600060356,1.599993587,1,0,0,0,47,47,113,1,0,,,,,,,,,,,,,,,,,,,,,
,,,,,,,,,,,,,,,,,,,,,,,,,,,,,,,,,,,,,,,,,,5e9db6b85484b70db14166bd,606c11c260cc8f86e2668cab,2021-04-06_09h48.19.010,Colour_Similarity_Experiment,2020.2.10,Win32,60,6067542a4a25243f4d7d4fcf,17.07157853,16.68557569,16.67923077,16.67988101,16.68015247,16.68015247,,,,,,,,,,,,,,,,,,,,PF,strong,3,,,,,,,,3,1.845475,,,,,,,,,,,,,,,,,,,,,,,,,,,,1,strong,-51.19998932,-104.000008,1,0,0,response5disk,2,49,9.600060415,-1.600006461,1,0,0,rectangle,9.600060415,-1.600006461,1,0,0,5,5,0.000585,9.600060415,-1.600006461,1,0,0,0,48,48,2,1,0,,,,,,,,,,,,,,,,,,,,,
,,,,,,,,,,,,,,,,,,,,,,,,,,,,,,,,,,,,,,,,,,5e9db6b85484b70db14166bd,606c11c260cc8f86e2668cab,2021-04-06_09h48.19.010,Colour_Similarity_Experiment,2020.2.10,Win32,60,6067542a4a25243f4d7d4fcf,17.07157853,16.68557569,16.67923077,16.67988101,16.68015247,16.68015247,,,,,,,,,,,,,,,,,,,,PF,weak,3,,,,,,,,0,3.397095,,,,,,,,,,,,,,,,,,,,,,,,,,,,2,weak,-50.39994048,107.9999952,1,0,0,response7disk,2,50,-7.199988663,-4.000006497,1,0,0,rectangle,-7.199988663,-4.000006497,1,0,0,5,5,6E-05,-7.199988663,-4.000006497,1,0,0,0,49,49,14,1,0,,,,,,,,,,,,,,,,,,,,,
,,,,,,,,,,,,,,,,,,,,,,,,,,,,,,,,,,,,,,,,,,5e9db6b85484b70db14166bd,606c11c260cc8f86e2668cab,2021-04-06_09h48.19.010,Colour_Similarity_Experiment,2020.2.10,Win32,60,6067542a4a25243f4d7d4fcf,17.07157853,16.68557569,16.67923077,16.67988101,16.68015247,16.68015247,,,,,,,,,,,,,,,,,,,,PF,strong,3,,,,,,,,7,2.6461,,,,,,,,,,,,,,,,,,,,,,,,,,,,6,strong,52.80001223,91.19997051,1,0,0,response1disk,1,51,4.800011516,-3.200006485,1,0,0,rectangle,4.800011516,-3.200006485,1,0,0,5,4,0.00059,4.800011516,-3.200006485,1,0,0,0,50,50,5,1,0,,,,,,,,,,,,,,,,,,,,,
,,,,,,,,,,,,,,,,,,,,,,,,,,,,,,,,,,,,,,,,,,5e9db6b85484b70db14166bd,606c11c260cc8f86e2668cab,2021-04-06_09h48.19.010,Colour_Similarity_Experiment,2020.2.10,Win32,60,6067542a4a25243f4d7d4fcf,17.07157853,16.68557569,16.67923077,16.67988101,16.68015247,16.68015247,,,,,,,,,,,,,,,,,,,,PF,weak,3,,,,,,,,4,3.84736,,,,,,,,,,,,,,,,,,,,,,,,,,,,1,weak,36.80001199,-114.4000081,1,0,0,response3disk,3,52,4.000011504,-6.4373E-06,1,0,0,rectangle,4.000011504,-6.4373E-06,1,0,0,5,7,0.00052,4.000011504,-6.4373E-06,1,0,0,0,51,51,1,1,0,,,,,,,,,,,,,,,,,,,,,
,,,,,,,,,,,,,,,,,,,,,,,,,,,,,,,,,,,,,,,,,,5e9db6b85484b70db14166bd,606c11c260cc8f86e2668cab,2021-04-06_09h48.19.010,Colour_Similarity_Experiment,2020.2.10,Win32,60,6067542a4a25243f4d7d4fcf,17.07157853,16.68557569,16.67923077,16.67988101,16.68015247,16.68015247,,,,,,,,,,,,,,,,,,,,PF,weak,3,,,,,,,,3,3.364,,,,,,,,,,,,,,,,,,,,,,,,,,,,9,weak,-74.39994084,-116.0000082,1,0,0,response5disk,6,53,4.000011504,-0.800006449,1,0,0,rectangle,4.000011504,-0.800006449,1,0,0,5,7,6E-05,4.000011504,-0.800006449,1,0,0,0,52,52,148,1,0,,,,,,,,,,,,,,,,,,,,,
,,,,,,,,,,,,,,,,,,,,,,,,,,,,,,,,,,,,,,,,,,5e9db6b85484b70db14166bd,606c11c260cc8f86e2668cab,2021-04-06_09h48.19.010,Colour_Similarity_Experiment,2020.2.10,Win32,60,6067542a4a25243f4d7d4fcf,17.07157853,16.68557569,16.67923077,16.67988101,16.68015247,16.68015247,,,,,,,,,,,,,,,,,,,,PF,weak,3,,,,,,,,7,1.33483,,,,,,,,,,,,,,,,,,,,,,,,,,,,2,weak,63.20001239,90.39999491,1,0,0,response1disk,7,54,8.800011575,-3.200006485,1,0,0,rectangle,8.800011575,-3.200006485,1,0,0,5,2,0.00055,8.800011575,-3.200006485,1,0,0,0,53,53,107,1,0,,,,,,,,,,,,,,,,,,,,,
,,,,,,,,,,,,,,,,,,,,,,,,,,,,,,,,,,,,,,,,,,5e9db6b85484b70db14166bd,606c11c260cc8f86e2668cab,2021-04-06_09h48.19.010,Colour_Similarity_Experiment,2020.2.10,Win32,60,6067542a4a25243f4d7d4fcf,17.07157853,16.68557569,16.67923077,16.67988101,16.68015247,16.68015247,,,,,,,,,,,,,,,,,,,,PF,weak,3,,,,,,,,0,1.195325,,,,,,,,,,,,,,,,,,,,,,,,,,,,9,weak,-29.599989,84.79999483,1,0,0,response7disk,9,55,1.14441E-05,-5.600006521,1,0,0,rectangle,1.14441E-05,-5.600006521,1,0,0,5,2,6.5E-05,1.14441E-05,-5.600006521,1,0,0,0,54,54,106,1,0,,,,,,,,,,,,,,,,,,,,,
,,,,,,,,,,,,,,,,,,,,,,,,,,,,,,,,,,,,,,,,,,5e9db6b85484b70db14166bd,606c11c260cc8f86e2668cab,2021-04-06_09h48.19.010,Colour_Similarity_Experiment,2020.2.10,Win32,60,6067542a4a25243f4d7d4fcf,17.07157853,16.68557569,16.67923077,16.67988101,16.68015247,16.68015247,,,,,,,,,,,,,,,,,,,,PF,strong,3,,,,,,,,0,1.529,,,,,,,,,,,,,,,,,,,,,,,,,,,,2,strong,-35.19998908,84.79999483,1,0,0,response7disk,2,56,-10.39993988,-5.600006521,1,0,0,rectangle,-10.39993988,-5.600006521,1,0,0,5,0,0.00053,-10.39993988,-5.600006521,1,0,0,0,55,55,142,1,0,,,,,,,,,,,,,,,,,,,,,
,,,,,,,,,,,,,,,,,,,,,,,,,,,,,,,,,,,,,,,,,,5e9db6b85484b70db14166bd,606c11c260cc8f86e2668cab,2021-04-06_09h48.19.010,Colour_Similarity_Experiment,2020.2.10,Win32,60,6067542a4a25243f4d7d4fcf,17.07157853,16.68557569,16.67923077,16.67988101,16.68015247,16.68015247,,,,,,,,,,,,,,,,,,,,PF,strong,3,,,,,,,,0,1.62927,,,,,,,,,,,,,,,,,,,,,,,,,,,,9,strong,-29.599989,81.59999478,1,0,0,response7disk,1,57,-0.799988568,-4.800006509,1,0,0,rectangle,-0.799988568,-4.800006509,1,0,0,5,4,0.000655,-0.799988568,-4.800006509,1,0,0,0,56,56,111,1,0,,,,,,,,,,,,,,,,,,,,,
,,,,,,,,,,,,,,,,,,,,,,,,,,,,,,,,,,,,,,,,,,5e9db6b85484b70db14166bd,606c11c260cc8f86e2668cab,2021-04-06_09h48.19.010,Colour_Similarity_Experiment,2020.2.10,Win32,60,6067542a4a25243f4d7d4fcf,17.07157853,16.68557569,16.67923077,16.67988101,16.68015247,16.68015247,,,,,,,,,,,,,,,,,,,,PF,strong,3,,,,,,,,6,2.579955,,,,,,,,,,,,,,,,,,,,,,,,,,,,1,strong,104.000013,58.39999443,1,0,0,response1disk,5,58,3.200011492,1.599993587,1,0,0,rectangle,3.200011492,1.599993587,1,0,0,5,6,0.000675,3.200011492,1.599993587,1,0,0,0,57,57,82,1,0,,,,,,,,,,,,,,,,,,,,,
,,,,,,,,,,,,,,,,,,,,,,,,,,,,,,,,,,,,,,,,,,5e9db6b85484b70db14166bd,606c11c260cc8f86e2668cab,2021-04-06_09h48.19.010,Colour_Similarity_Experiment,2020.2.10,Win32,60,6067542a4a25243f4d7d4fcf,17.07157853,16.68557569,16.67923077,16.67988101,16.68015247,16.68015247,,,,,,,,,,,,,,,,,,,,PF,strong,3,,,,,,,,0,2.646715,,,,,,,,,,,,,,,,,,,,,,,,,,,,4,strong,-37.59998912,99.19997063,1,0,0,response7disk,4,59,4.000011504,-6.4373E-06,1,0,0,rectangle,4.000011504,-6.4373E-06,1,0,0,5,6,6.49999E-05,4.000011504,-6.4373E-06,1,0,0,0,58,58,84,1,0,,,,,,,,,,,,,,,,,,,,,
,,,,,,,,,,,,,,,,,,,,,,,,,,,,,,,,,,,,,,,,,,5e9db6b85484b70db14166bd,606c11c260cc8f86e2668cab,2021-04-06_09h48.19.010,Colour_Similarity_Experiment,2020.2.10,Win32,60,6067542a4a25243f4d7d4fcf,17.07157853,16.68557569,16.67923077,16.67988101,16.68015247,16.68015247,,,,,,,,,,,,,,,,,,,,PF,weak,3,,,,,,,,2,2.98057,,,,,,,,,,,,,,,,,,,,,,,,,,,,1,weak,-97.59999001,-34.40000695,1,0,0,response5disk,7,60,1.14441E-05,1.599993587,1,0,0,rectangle,1.14441E-05,1.599993587,1,0,0,5,2,0.00044,1.14441E-05,1.599993587,1,0,0,0,59,59,150,1,0,,,,,,,,,,,,,,,,,,,,,
,,,,,,,,,,,,,,,,,,,,,,,,,,,,,,,,,,,,,,,,,,5e9db6b85484b70db14166bd,606c11c260cc8f86e2668cab,2021-04-06_09h48.19.010,Colour_Similarity_Experiment,2020.2.10,Win32,60,6067542a4a25243f4d7d4fcf,17.07157853,16.68557569,16.67923077,16.67988101,16.68015247,16.68015247,,,,,,,,,,,,,,,,,,,,PF,weak,3,,,,,,,,3,4.29829,,,,,,,,,,,,,,,,,,,,,,,,,,,,4,weak,-23.99998891,-124.0000083,1,0,0,response5disk,7,61,2.40001148,0.799993575,1,0,0,rectangle,2.40001148,0.799993575,1,0,0,5,0,0.000515,2.40001148,0.799993575,1,0,0,0,60,60,38,1,0,,,,,,,,,,,,,,,,,,,,,
,,,,,,,,,,,,,,,,,,,,,,,,,,,,,,,,,,,,,,,,,,5e9db6b85484b70db14166bd,606c11c260cc8f86e2668cab,2021-04-06_09h48.19.010,Colour_Similarity_Experiment,2020.2.10,Win32,60,6067542a4a25243f4d7d4fcf,17.07157853,16.68557569,16.67923077,16.67988101,16.68015247,16.68015247,,,,,,,,,,,,,,,,,,,,PF,strong,3,,,,,,,,6,1.6288,,,,,,,,,,,,,,,,,,,,,,,,,,,,8,strong,85.60001272,43.19996979,1,0,0,response1disk,3,62,1.14441E-05,0.799993575,1,0,0,rectangle,1.14441E-05,0.799993575,1,0,0,5,3,0.00051,1.14441E-05,0.799993575,1,0,0,0,61,61,154,1,0,,,,,,,,,,,,,,,,,,,,,
,,,,,,,,,,,,,,,,,,,,,,,,,,,,,,,,,,,,,,,,,,5e9db6b85484b70db14166bd,606c11c260cc8f86e2668cab,2021-04-06_09h48.19.010,Colour_Similarity_Experiment,2020.2.10,Win32,60,6067542a4a25243f4d7d4fcf,17.07157853,16.68557569,16.67923077,16.67988101,16.68015247,16.68015247,,,,,,,,,,,,,,,,,,,,PF,weak,3,,,,,,,,1,1.36197,,,,,,,,,,,,,,,,,,,,,,,,,,,,7,weak,-99.99999005,36.79999411,1,0,0,response7disk,6,63,16.80001169,-0.800006449,1,0,0,rectangle,16.80001169,-0.800006449,1,0,0,5,3,6E-05,16.80001169,-0.800006449,1,0,0,0,62,62,29,1,0,,,,,,,,,,,,,,,,,,,,,
,,,,,,,,,,,,,,,,,,,,,,,,,,,,,,,,,,,,,,,,,,5e9db6b85484b70db14166bd,606c11c260cc8f86e2668cab,2021-04-06_09h48.19.010,Colour_Similarity_Experiment,2020.2.10,Win32,60,6067542a4a25243f4d7d4fcf,17.07157853,16.68557569,16.67923077,16.67988101,16.68015247,16.68015247,,,,,,,,,,,,,,,,,,,,PF,strong,3,,,,,,,,6,2.479445,,,,,,,,,,,,,,,,,,,,,,,,,,,,2,strong,105.600013,46.39999425,1,0,0,response1disk,6,64,-2.399939764,-2.400006473,1,0,0,rectangle,-2.399939764,-2.400006473,1,0,0,5,5,0.001165,-2.399939764,-2.400006473,1,0,0,0,63,63,40,1,0,,,,,,,,,,,,,,,,,,,,,
,,,,,,,,,,,,,,,,,,,,,,,,,,,,,,,,,,,,,,,,,,5e9db6b85484b70db14166bd,606c11c260cc8f86e2668cab,2021-04-06_09h48.19.010,Colour_Similarity_Experiment,2020.2.10,Win32,60,6067542a4a25243f4d7d4fcf,17.07157853,16.68557569,16.67923077,16.67988101,16.68015247,16.68015247,,,,,,,,,,,,,,,,,,,,PF,strong,3,,,,,,,,1,1.112535,,,,,,,,,,,,,,,,,,,,,,,,,,,,4,strong,-85.59998983,51.19996991,1,0,0,response7disk,3,65,0.800011456,3.19999361,1,0,0,rectangle,0.800011456,3.19999361,1,0,0,5,2,0.00051,0.800011456,3.19999361,1,0,0,0,64,64,77,1,0,,,,,,,,,,,,,,,,,,,,,
,,,,,,,,,,,,,,,,,,,,,,,,,,,,,,,,,,,,,,,,,,5e9db6b85484b70db14166bd,606c11c260cc8f86e2668cab,2021-04-06_09h48.19.010,Colour_Similarity_Experiment,2020.2.10,Win32,60,6067542a4a25243f4d7d4fcf,17.07157853,16.68557569,16.67923077,16.67988101,16.68015247,16.68015247,,,,,,,,,,,,,,,,,,,,PF,strong,3,,,,,,,,0,1.511675,,,,,,,,,,,,,,,,,,,,,,,,,,,,1,strong,-40.79998916,75.9999947,1,0,0,response7disk,1,66,-1.59998858,-2.400006473,1,0,0,rectangle,-1.59998858,-2.400006473,1,0,0,5,4,0.000535,-1.59998858,-2.400006473,1,0,0,0,65,65,151,1,0,,,,,,,,,,,,,,,,,,,,,
,,,,,,,,,,,,,,,,,,,,,,,,,,,,,,,,,,,,,,,,,,5e9db6b85484b70db14166bd,606c11c260cc8f86e2668cab,2021-04-06_09h48.19.010,Colour_Similarity_Experiment,2020.2.10,Win32,60,6067542a4a25243f4d7d4fcf,17.07157853,16.68557569,16.67923077,16.67988101,16.68015247,16.68015247,,,,,,,,,,,,,,,,,,,,PF,weak,3,,,,,,,,3,1.812975,,,,,,,,,,,,,,,,,,,,,,,,,,,,7,weak,-49.5999893,-119.2000082,1,0,0,response5disk,4,67,11.20001161,0.799993575,1,0,0,rectangle,11.20001161,0.799993575,1,0,0,5,0,0.00066,11.20001161,0.799993575,1,0,0,0,66,66,43,1,0,,,,,,,,,,,,,,,,,,,,,
,,,,,,,,,,,,,,,,,,,,,,,,,,,,,,,,,,,,,,,,,,5e9db6b85484b70db14166bd,606c11c260cc8f86e2668cab,2021-04-06_09h48.19.010,Colour_Similarity_Experiment,2020.2.10,Win32,60,6067542a4a25243f4d7d4fcf,17.07157853,16.68557569,16.67923077,16.67988101,16.68015247,16.68015247,,,,,,,,,,,,,,,,,,,,PF,weak,3,,,,,,,,7,1.412245,,,,,,,,,,,,,,,,,,,,,,,,,,,,7,weak,42.40001208,91.19997051,1,0,0,response1disk,2,68,12.00001162,-4.000006497,1,0,0,rectangle,12.00001162,-4.000006497,1,0,0,5,7,0.000615,12.00001162,-4.000006497,1,0,0,0,67,67,32,1,0,,,,,,,,,,,,,,,,,,,,,
,,,,,,,,,,,,,,,,,,,,,,,,,,,,,,,,,,,,,,,,,,5e9db6b85484b70db14166bd,606c11c260cc8f86e2668cab,2021-04-06_09h48.19.010,Colour_Similarity_Experiment,2020.2.10,Win32,60,6067542a4a25243f4d7d4fcf,17.07157853,16.68557569,16.67923077,16.67988101,16.68015247,16.68015247,,,,,,,,,,,,,,,,,,,,PF,strong,3,,,,,,,,7,1.662225,,,,,,,,,,,,,,,,,,,,,,,,,,,,4,strong,50.4000122,91.99999493,1,0,0,response1disk,8,69,2.40001148,-2.400006473,1,0,0,rectangle,2.40001148,-2.400006473,1,0,0,5,0,0.00052,2.40001148,-2.400006473,1,0,0,0,68,68,35,1,0,,,,,,,,,,,,,,,,,,,,,
,,,,,,,,,,,,,,,,,,,,,,,,,,,,,,,,,,,,,,,,,,5e9db6b85484b70db14166bd,606c11c260cc8f86e2668cab,2021-04-06_09h48.19.010,Colour_Similarity_Experiment,2020.2.10,Win32,60,6067542a4a25243f4d7d4fcf,17.07157853,16.68557569,16.67923077,16.67988101,16.68015247,16.68015247,,,,,,,,,,,,,,,,,,,,PF,weak,3,,,,,,,,3,1.995845,,,,,,,,,,,,,,,,,,,,,,,,,,,,6,weak,-46.39994042,-116.0000082,1,0,0,response5disk,3,70,6.400011539,4.799993634,1,0,0,rectangle,6.400011539,4.799993634,1,0,0,5,7,0.00057,6.400011539,4.799993634,1,0,0,0,69,69,26,1,0,,,,,,,,,,,,,,,,,,,,,
,,,,,,,,,,,,,,,,,,,,,,,,,,,,,,,,,,,,,,,,,,5e9db6b85484b70db14166bd,606c11c260cc8f86e2668cab,2021-04-06_09h48.19.010,Colour_Similarity_Experiment,2020.2.10,Win32,60,6067542a4a25243f4d7d4fcf,17.07157853,16.68557569,16.67923077,16.67988101,16.68015247,16.68015247,,,,,,,,,,,,,,,,,,,,PF,weak,3,,,,,,,,7,1.128325,,,,,,,,,,,,,,,,,,,,,,,,,,,,9,weak,43.20001209,73.59999466,1,0,0,response1disk,4,71,-1.59998858,-8.000006557,1,0,0,rectangle,-1.59998858,-8.000006557,1,0,0,5,4,0.00053,-1.59998858,-8.000006557,1,0,0,0,70,70,114,1,0,,,,,,,,,,,,,,,,,,,,,
,,,,,,,,,,,,,,,,,,,,,,,,,,,,,,,,,,,,,,,,,,5e9db6b85484b70db14166bd,606c11c260cc8f86e2668cab,2021-04-06_09h48.19.010,Colour_Similarity_Experiment,2020.2.10,Win32,60,6067542a4a25243f4d7d4fcf,17.07157853,16.68557569,16.67923077,16.67988101,16.68015247,16.68015247,,,,,,,,,,,,,,,,,,,,PF,weak,3,,,,,,,,6,2.296805,,,,,,,,,,,,,,,,,,,,,,,,,,,,3,weak,99.20001292,47.99999428,1,0,0,response1disk,8,72,-3.199988604,-3.200006485,1,0,0,rectangle,-3.199988604,-3.200006485,1,0,0,5,7,0.00051,-3.199988604,-3.200006485,1,0,0,0,71,71,3,1,0,,,,,,,,,,,,,,,,,,,,,
,,,,,,,,,,,,,,,,,,,,,,,,,,,,,,,,,,,,,,,,,,5e9db6b85484b70db14166bd,606c11c260cc8f86e2668cab,2021-04-06_09h48.19.010,Colour_Similarity_Experiment,2020.2.10,Win32,60,6067542a4a25243f4d7d4fcf,17.07157853,16.68557569,16.67923077,16.67988101,16.68015247,16.68015247,,,,,,,,,,,,,,,,,,,,PF,weak,3,,,,,,,,1,1.29555,,,,,,,,,,,,,,,,,,,,,,,,,,,,1,weak,-111.9999902,40.79999417,1,0,0,response7disk,8,73,1.600060296,-6.400006533,1,0,0,rectangle,1.600060296,-6.400006533,1,0,0,5,4,0.00054,1.600060296,-6.400006533,1,0,0,0,72,72,65,1,0,,,,,,,,,,,,,,,,,,,,,
,,,,,,,,,,,,,,,,,,,,,,,,,,,,,,,,,,,,,,,,,,5e9db6b85484b70db14166bd,606c11c260cc8f86e2668cab,2021-04-06_09h48.19.010,Colour_Similarity_Experiment,2020.2.10,Win32,60,6067542a4a25243f4d7d4fcf,17.07157853,16.68557569,16.67923077,16.67988101,16.68015247,16.68015247,,,,,,,,,,,,,,,,,,,,PF,weak,3,,,,,,,,7,1.07839,,,,,,,,,,,,,,,,,,,,,,,,,,,,7,weak,61.60001236,91.99999493,1,0,0,response1disk,1,74,-4.799988627,-4.000006497,1,0,0,rectangle,-4.799988627,-4.000006497,1,0,0,5,2,0.00054,-4.799988627,-4.000006497,1,0,0,0,73,73,53,1,0,,,,,,,,,,,,,,,,,,,,,
,,,,,,,,,,,,,,,,,,,,,,,,,,,,,,,,,,,,,,,,,,5e9db6b85484b70db14166bd,606c11c260cc8f86e2668cab,2021-04-06_09h48.19.010,Colour_Similarity_Experiment,2020.2.10,Win32,60,6067542a4a25243f4d7d4fcf,17.07157853,16.68557569,16.67923077,16.67988101,16.68015247,16.68015247,,,,,,,,,,,,,,,,,,,,PF,weak,3,,,,,,,,5,2.313365,,,,,,,,,,,,,,,,,,,,,,,,,,,,6,weak,112.8000131,-50.40000719,1,0,0,response3disk,2,75,15.20001167,-1.600006461,1,0,0,rectangle,15.20001167,-1.600006461,1,0,0,5,4,0.00052,15.20001167,-1.600006461,1,0,0,0,74,74,130,1,0,,,,,,,,,,,,,,,,,,,,,
,,,,,,,,,,,,,,,,,,,,,,,,,,,,,,,,,,,,,,,,,,5e9db6b85484b70db14166bd,606c11c260cc8f86e2668cab,2021-04-06_09h48.19.010,Colour_Similarity_Experiment,2020.2.10,Win32,60,6067542a4a25243f4d7d4fcf,17.07157853,16.68557569,16.67923077,16.67988101,16.68015247,16.68015247,,,,,,,,,,,,,,,,,,,,PF,strong,3,,,,,,,,4,2.04654,,,,,,,,,,,,,,,,,,,,,,,,,,,,2,strong,34.40001196,-129.6000572,1,0,0,response3disk,5,76,7.200011551,4.799993634,1,0,0,rectangle,7.200011551,4.799993634,1,0,0,5,3,0.00055,7.200011551,4.799993634,1,0,0,0,75,75,80,1,0,,,,,,,,,,,,,,,,,,,,,
,,,,,,,,,,,,,,,,,,,,,,,,,,,,,,,,,,,,,,,,,,5e9db6b85484b70db14166bd,606c11c260cc8f86e2668cab,2021-04-06_09h48.19.010,Colour_Similarity_Experiment,2020.2.10,Win32,60,6067542a4a25243f4d7d4fcf,17.07157853,16.68557569,16.67923077,16.67988101,16.68015247,16.68015247,,,,,,,,,,,,,,,,,,,,PF,strong,3,,,,,,,,1,1.879185,,,,,,,,,,,,,,,,,,,,,,,,,,,,7,strong,-81.59998977,46.39999425,1,0,0,response7disk,7,77,17.60006053,2.399993598,1,0,0,rectangle,17.60006053,2.399993598,1,0,0,5,6,0.000735,17.60006053,2.399993598,1,0,0,0,76,76,34,1,0,,,,,,,,,,,,,,,,,,,,,
,,,,,,,,,,,,,,,,,,,,,,,,,,,,,,,,,,,,,,,,,,5e9db6b85484b70db14166bd,606c11c260cc8f86e2668cab,2021-04-06_09h48.19.010,Colour_Similarity_Experiment,2020.2.10,Win32,60,6067542a4a25243f4d7d4fcf,17.07157853,16.68557569,16.67923077,16.67988101,16.68015247,16.68015247,,,,,,,,,,,,,,,,,,,,PF,weak,3,,,,,,,,0,0.91191,,,,,,,,,,,,,,,,,,,,,,,,,,,,5,weak,-35.19998908,88.79999489,1,0,0,response7disk,5,78,-4.799988627,-8.800006568,1,0,0,rectangle,-4.799988627,-8.800006568,1,0,0,5,3,0.000535,-4.799988627,-8.800006568,1,0,0,0,77,77,94,1,0,,,,,,,,,,,,,,,,,,,,,
,,,,,,,,,,,,,,,,,,,,,,,,,,,,,,,,,,,,,,,,,,5e9db6b85484b70db14166bd,606c11c260cc8f86e2668cab,2021-04-06_09h48.19.010,Colour_Similarity_Experiment,2020.2.10,Win32,60,6067542a4a25243f4d7d4fcf,17.07157853,16.68557569,16.67923077,16.67988101,16.68015247,16.68015247,,,,,,,,,,,,,,,,,,,,PF,strong,3,,,,,,,,2,4.647915,,,,,,,,,,,,,,,,,,,,,,,,,,,,5,strong,-97.59999001,-70.40000749,1,0,0,response5disk,8,79,10.4000116,-0.800006449,1,0,0,rectangle,10.4000116,-0.800006449,1,0,0,5,2,0.0006,10.4000116,-0.800006449,1,0,0,0,78,78,16,1,0,,,,,,,,,,,,,,,,,,,,,
,,,,,,,,,,,,,,,,,,,,,,,,,,,,,,,,,,,,,,,,,,5e9db6b85484b70db14166bd,606c11c260cc8f86e2668cab,2021-04-06_09h48.19.010,Colour_Similarity_Experiment,2020.2.10,Win32,60,6067542a4a25243f4d7d4fcf,17.07157853,16.68557569,16.67923077,16.67988101,16.68015247,16.68015247,,,,,,,,,,,,,,,,,,,,PF,weak,3,,,,,,,,2,2.295865,,,,,,,,,,,,,,,,,,,,,,,,,,,,1,weak,-97.59999001,-68.80000746,1,0,0,response5disk,2,80,-0.799988568,-5.600006521,1,0,0,rectangle,-0.799988568,-5.600006521,1,0,0,5,2,0.00012,-0.799988568,-5.600006521,1,0,0,0,79,79,24,1,0,,,,,,,,,,,,,,,,,,,,,
,,,,,,,,,,,,,,,,,,,,,,,,,,,,,,,,,,,,,,,,,,5e9db6b85484b70db14166bd,606c11c260cc8f86e2668cab,2021-04-06_09h48.19.010,Colour_Similarity_Experiment,2020.2.10,Win32,60,6067542a4a25243f4d7d4fcf,17.07157853,16.68557569,16.67923077,16.67988101,16.68015247,16.68015247,,,,,,,,,,,,,,,,,,,,PF,weak,3,,,,,,,,1,1.300885,,,,,,,,,,,,,,,,,,,,,,,,,,,,5,weak,-104.7999901,43.99999422,1,0,0,response7disk,4,81,4.000011504,-3.200006485,1,0,0,rectangle,4.000011504,-3.200006485,1,0,0,5,0,0.00058,4.000011504,-3.200006485,1,0,0,0,80,80,54,1,0,,,,,,,,,,,,,,,,,,,,,
,,,,,,,,,,,,,,,,,,,,,,,,,,,,,,,,,,,,,,,,,,5e9db6b85484b70db14166bd,606c11c260cc8f86e2668cab,2021-04-06_09h48.19.010,Colour_Similarity_Experiment,2020.2.10,Win32,60,6067542a4a25243f4d7d4fcf,17.07157853,16.68557569,16.67923077,16.67988101,16.68015247,16.68015247,,,,,,,,,,,,,,,,,,,,PF,weak,3,,,,,,,,4,2.145655,,,,,,,,,,,,,,,,,,,,,,,,,,,,5,weak,63.20001239,-104.800008,1,0,0,response3disk,1,82,17.60006053,1.599993587,1,0,0,rectangle,-46.39994042,-116.8000082,1,0,0,3,3,1.951705,8.800011575,5.599993646,1,0,0,0,81,81,159,1,1,response5disk_3,rectangle,,,,,,,,,,,,,,,,,,,
,,,,,,,,,,,,,,,,,,,,,,,,,,,,,,,,,,,,,,,,,,5e9db6b85484b70db14166bd,606c11c260cc8f86e2668cab,2021-04-06_09h48.19.010,Colour_Similarity_Experiment,2020.2.10,Win32,60,6067542a4a25243f4d7d4fcf,17.07157853,16.68557569,16.67923077,16.67988101,16.68015247,16.68015247,,,,,,,,,,,,,,,,,,,,PF,weak,3,,,,,,,,1,1.895625,,,,,,,,,,,,,,,,,,,,,,,,,,,,1,weak,-99.99999005,36.79999411,1,0,0,response7disk,9,83,8.000011563,-6.4373E-06,1,0,0,rectangle,8.000011563,-6.4373E-06,1,0,0,3,4,0.000615,8.000011563,-6.4373E-06,1,0,0,0,82,82,15,1,0,,,,,,,,,,,,,,,,,,,,,
,,,,,,,,,,,,,,,,,,,,,,,,,,,,,,,,,,,,,,,,,,5e9db6b85484b70db14166bd,606c11c260cc8f86e2668cab,2021-04-06_09h48.19.010,Colour_Similarity_Experiment,2020.2.10,Win32,60,6067542a4a25243f4d7d4fcf,17.07157853,16.68557569,16.67923077,16.67988101,16.68015247,16.68015247,,,,,,,,,,,,,,,,,,,,PF,weak,3,,,,,,,,3,3.347595,,,,,,,,,,,,,,,,,,,,,,,,,,,,5,weak,-27.99998897,-124.0000083,1,0,0,response5disk,8,84,-3.999988616,-5.600006521,1,0,0,rectangle,-3.999988616,-5.600006521,1,0,0,3,0,0.00048,-3.999988616,-5.600006521,1,0,0,0,83,83,149,1,0,,,,,,,,,,,,,,,,,,,,,
,,,,,,,,,,,,,,,,,,,,,,,,,,,,,,,,,,,,,,,,,,5e9db6b85484b70db14166bd,606c11c260cc8f86e2668cab,2021-04-06_09h48.19.010,Colour_Similarity_Experiment,2020.2.10,Win32,60,6067542a4a25243f4d7d4fcf,17.07157853,16.68557569,16.67923077,16.67988101,16.68015247,16.68015247,,,,,,,,,,,,,,,,,,,,PF,strong,3,,,,,,,,2,2.496345,,,,,,,,,,,,,,,,,,,,,,,,,,,,6,strong,-98.39994119,-80.80000764,1,0,0,response5disk,8,85,-2.399939764,-5.600006521,1,0,0,rectangle,-2.399939764,-5.600006521,1,0,0,3,7,0.00052,-2.399939764,-5.600006521,1,0,0,0,84,84,133,1,0,,,,,,,,,,,,,,,,,,,,,
,,,,,,,,,,,,,,,,,,,,,,,,,,,,,,,,,,,,,,,,,,5e9db6b85484b70db14166bd,606c11c260cc8f86e2668cab,2021-04-06_09h48.19.010,Colour_Similarity_Experiment,2020.2.10,Win32,60,6067542a4a25243f4d7d4fcf,17.07157853,16.68557569,16.67923077,16.67988101,16.68015247,16.68015247,,,,,,,,,,,,,,,,,,,,PF,weak,3,,,,,,,,7,1.20078,,,,,,,,,,,,,,,,,,,,,,,,,,,,4,weak,72.00001252,102.3999951,1,0,0,response1disk,1,86,4.800011516,-6.400006533,1,0,0,rectangle,4.800011516,-6.400006533,1,0,0,3,1,0.000585,4.800011516,-6.400006533,1,0,0,0,85,85,115,1,0,,,,,,,,,,,,,,,,,,,,,
,,,,,,,,,,,,,,,,,,,,,,,,,,,,,,,,,,,,,,,,,,5e9db6b85484b70db14166bd,606c11c260cc8f86e2668cab,2021-04-06_09h48.19.010,Colour_Similarity_Experiment,2020.2.10,Win32,60,6067542a4a25243f4d7d4fcf,17.07157853,16.68557569,16.67923077,16.67988101,16.68015247,16.68015247,,,,,,,,,,,,,,,,,,,,PF,strong,3,,,,,,,,1,1.54571,,,,,,,,,,,,,,,,,,,,,,,,,,,,8,strong,-99.19999003,52.79999435,1,0,0,response7disk,9,87,8.000011563,-4.800006509,1,0,0,rectangle,8.000011563,-4.800006509,1,0,0,3,4,0.000765,8.000011563,-4.800006509,1,0,0,0,86,86,105,1,0,,,,,,,,,,,,,,,,,,,,,
,,,,,,,,,,,,,,,,,,,,,,,,,,,,,,,,,,,,,,,,,,5e9db6b85484b70db14166bd,606c11c260cc8f86e2668cab,2021-04-06_09h48.19.010,Colour_Similarity_Experiment,2020.2.10,Win32,60,6067542a4a25243f4d7d4fcf,17.07157853,16.68557569,16.67923077,16.67988101,16.68015247,16.68015247,,,,,,,,,,,,,,,,,,,,PF,weak,3,,,,,,,,3,2.312565,,,,,,,,,,,,,,,,,,,,,,,,,,,,1,weak,-24.79998893,-130.4000084,1,0,0,response5disk,6,88,2.40001148,-4.800006509,1,0,0,rectangle,2.40001148,-4.800006509,1,0,0,3,4,8E-05,2.40001148,-4.800006509,1,0,0,0,87,87,144,1,0,,,,,,,,,,,,,,,,,,,,,
,,,,,,,,,,,,,,,,,,,,,,,,,,,,,,,,,,,,,,,,,,5e9db6b85484b70db14166bd,606c11c260cc8f86e2668cab,2021-04-06_09h48.19.010,Colour_Similarity_Experiment,2020.2.10,Win32,60,6067542a4a25243f4d7d4fcf,17.07157853,16.68557569,16.67923077,16.67988101,16.68015247,16.68015247,,,,,,,,,,,,,,,,,,,,PF,weak,3,,,,,,,,1,1.16209,,,,,,,,,,,,,,,,,,,,,,,,,,,,3,weak,-101.5999901,64.79999453,1,0,0,response7disk,3,89,19.20001173,1.599993587,1,0,0,rectangle,19.20001173,1.599993587,1,0,0,3,6,0.00113,19.20001173,1.599993587,1,0,0,0,88,88,4,1,0,,,,,,,,,,,,,,,,,,,,,
,,,,,,,,,,,,,,,,,,,,,,,,,,,,,,,,,,,,,,,,,,5e9db6b85484b70db14166bd,606c11c260cc8f86e2668cab,2021-04-06_09h48.19.010,Colour_Similarity_Experiment,2020.2.10,Win32,60,6067542a4a25243f4d7d4fcf,17.07157853,16.68557569,16.67923077,16.67988101,16.68015247,16.68015247,,,,,,,,,,,,,,,,,,,,PF,strong,3,,,,,,,,1,1.145095,,,,,,,,,,,,,,,,,,,,,,,,,,,,1,strong,-84.79998982,46.39999425,1,0,0,response7disk,8,90,14.40001166,-4.800006509,1,0,0,rectangle,14.40001166,-4.800006509,1,0,0,3,5,0.000515,14.40001166,-4.800006509,1,0,0,0,89,89,27,1,0,,,,,,,,,,,,,,,,,,,,,
,,,,,,,,,,,,,,,,,,,,,,,,,,,,,,,,,,,,,,,,,,5e9db6b85484b70db14166bd,606c11c260cc8f86e2668cab,2021-04-06_09h48.19.010,Colour_Similarity_Experiment,2020.2.10,Win32,60,6067542a4a25243f4d7d4fcf,17.07157853,16.68557569,16.67923077,16.67988101,16.68015247,16.68015247,,,,,,,,,,,,,,,,,,,,PF,strong,3,,,,,,,,3,1.395395,,,,,,,,,,,,,,,,,,,,,,,,,,,,5,strong,-61.59998947,-99.20000792,1,0,0,response5disk,9,91,20.00001174,3.999993622,1,0,0,rectangle,20.00001174,3.999993622,1,0,0,3,2,0.00055,20.00001174,3.999993622,1,0,0,0,90,90,61,1,0,,,,,,,,,,,,,,,,,,,,,
,,,,,,,,,,,,,,,,,,,,,,,,,,,,,,,,,,,,,,,,,,5e9db6b85484b70db14166bd,606c11c260cc8f86e2668cab,2021-04-06_09h48.19.010,Colour_Similarity_Experiment,2020.2.10,Win32,60,6067542a4a25243f4d7d4fcf,17.07157853,16.68557569,16.67923077,16.67988101,16.68015247,16.68015247,,,,,,,,,,,,,,,,,,,,PF,weak,3,,,,,,,,2,1.078475,,,,,,,,,,,,,,,,,,,,,,,,,,,,5,weak,-79.99998975,-47.20000714,1,0,0,response5disk,7,92,12.00001162,-7.200006545,1,0,0,rectangle,12.00001162,-7.200006545,1,0,0,3,4,0.000545,12.00001162,-7.200006545,1,0,0,0,91,91,146,1,0,,,,,,,,,,,,,,,,,,,,,
,,,,,,,,,,,,,,,,,,,,,,,,,,,,,,,,,,,,,,,,,,5e9db6b85484b70db14166bd,606c11c260cc8f86e2668cab,2021-04-06_09h48.19.010,Colour_Similarity_Experiment,2020.2.10,Win32,60,6067542a4a25243f4d7d4fcf,17.07157853,16.68557569,16.67923077,16.67988101,16.68015247,16.68015247,,,,,,,,,,,,,,,,,,,,PF,weak,3,,,,,,,,1,2.11289,,,,,,,,,,,,,,,,,,,,,,,,,,,,2,weak,-103.9999901,34.39999408,1,0,0,response7disk,1,93,12.80001163,-6.4373E-06,1,0,0,rectangle,12.80001163,-6.4373E-06,1,0,0,3,0,0.000525,12.80001163,-6.4373E-06,1,0,0,0,92,92,9,1,0,,,,,,,,,,,,,,,,,,,,,
,,,,,,,,,,,,,,,,,,,,,,,,,,,,,,,,,,,,,,,,,,5e9db6b85484b70db14166bd,606c11c260cc8f86e2668cab,2021-04-06_09h48.19.010,Colour_Similarity_Experiment,2020.2.10,Win32,60,6067542a4a25243f4d7d4fcf,17.07157853,16.68557569,16.67923077,16.67988101,16.68015247,16.68015247,,,,,,,,,,,,,,,,,,,,PF,strong,3,,,,,,,,3,2.663375,,,,,,,,,,,,,,,,,,,,,,,,,,,,7,strong,-50.39994048,-88.80000776,1,0,0,response5disk,1,94,2.40001148,-6.400006533,1,0,0,rectangle,2.40001148,-6.400006533,1,0,0,3,6,0.000545,2.40001148,-6.400006533,1,0,0,0,93,93,132,1,0,,,,,,,,,,,,,,,,,,,,,
,,,,,,,,,,,,,,,,,,,,,,,,,,,,,,,,,,,,,,,,,,5e9db6b85484b70db14166bd,606c11c260cc8f86e2668cab,2021-04-06_09h48.19.010,Colour_Similarity_Experiment,2020.2.10,Win32,60,6067542a4a25243f4d7d4fcf,17.07157853,16.68557569,16.67923077,16.67988101,16.68015247,16.68015247,,,,,,,,,,,,,,,,,,,,PF,weak,3,,,,,,,,1,1.011995,,,,,,,,,,,,,,,,,,,,,,,,,,,,6,weak,-95.19998997,56.79999441,1,0,0,response7disk,7,95,14.40001166,-8.000006557,1,0,0,rectangle,14.40001166,-8.000006557,1,0,0,3,1,0.000665,14.40001166,-8.000006557,1,0,0,0,94,94,50,1,0,,,,,,,,,,,,,,,,,,,,,
,,,,,,,,,,,,,,,,,,,,,,,,,,,,,,,,,,,,,,,,,,5e9db6b85484b70db14166bd,606c11c260cc8f86e2668cab,2021-04-06_09h48.19.010,Colour_Similarity_Experiment,2020.2.10,Win32,60,6067542a4a25243f4d7d4fcf,17.07157853,16.68557569,16.67923077,16.67988101,16.68015247,16.68015247,,,,,,,,,,,,,,,,,,,,PF,weak,3,,,,,,,,0,0.894905,,,,,,,,,,,,,,,,,,,,,,,,,,,,6,weak,-47.19998926,98.39999503,1,0,0,response7disk,6,96,7.200011551,2.399993598,1,0,0,rectangle,7.200011551,2.399993598,1,0,0,3,7,0.000505,7.200011551,2.399993598,1,0,0,0,95,95,0,1,0,,,,,,,,,,,,,,,,,,,,,
,,,,,,,,,,,,,,,,,,,,,,,,,,,,,,,,,,,,,,,,,,5e9db6b85484b70db14166bd,606c11c260cc8f86e2668cab,2021-04-06_09h48.19.010,Colour_Similarity_Experiment,2020.2.10,Win32,60,6067542a4a25243f4d7d4fcf,17.07157853,16.68557569,16.67923077,16.67988101,16.68015247,16.68015247,,,,,,,,,,,,,,,,,,,,PF,strong,3,,,,,,,,3,1.462015,,,,,,,,,,,,,,,,,,,,,,,,,,,,3,strong,-39.19998914,-108.000008,1,0,0,response5disk,5,97,9.600060415,-2.400006473,1,0,0,rectangle,9.600060415,-2.400006473,1,0,0,3,4,0.00047,9.600060415,-2.400006473,1,0,0,0,96,96,101,1,0,,,,,,,,,,,,,,,,,,,,,
,,,,,,,,,,,,,,,,,,,,,,,,,,,,,,,,,,,,,,,,,,5e9db6b85484b70db14166bd,606c11c260cc8f86e2668cab,2021-04-06_09h48.19.010,Colour_Similarity_Experiment,2020.2.10,Win32,60,6067542a4a25243f4d7d4fcf,17.07157853,16.68557569,16.67923077,16.67988101,16.68015247,16.68015247,,,,,,,,,,,,,,,,,,,,PF,strong,3,,,,,,,,1,1.845995,,,,,,,,,,,,,,,,,,,,,,,,,,,,7,strong,-103.9999901,37.59999412,1,0,0,response7disk,5,98,0.800011456,0.799993575,1,0,0,rectangle,0.800011456,0.799993575,1,0,0,3,1,0.000505,0.800011456,0.799993575,1,0,0,0,97,97,156,1,0,,,,,,,,,,,,,,,,,,,,,
,,,,,,,,,,,,,,,,,,,,,,,,,,,,,,,,,,,,,,,,,,5e9db6b85484b70db14166bd,606c11c260cc8f86e2668cab,2021-04-06_09h48.19.010,Colour_Similarity_Experiment,2020.2.10,Win32,60,6067542a4a25243f4d7d4fcf,17.07157853,16.68557569,16.67923077,16.67988101,16.68015247,16.68015247,,,,,,,,,,,,,,,,,,,,PF,strong,3,,,,,,,,3,1.528865,,,,,,,,,,,,,,,,,,,,,,,,,,,,9,strong,-43.99998921,-108.000008,1,0,0,response5disk,2,99,18.40001172,6.399993658,1,0,0,rectangle,53.60001224,117.5999953,1,0,0,7,7,1.68412,-13.59998876,-4.800006509,1,0,0,0,98,98,11,1,1,response1disk_3,rectangle,,,,,,,,,,,,,,,,,,,
,,,,,,,,,,,,,,,,,,,,,,,,,,,,,,,,,,,,,,,,,,5e9db6b85484b70db14166bd,606c11c260cc8f86e2668cab,2021-04-06_09h48.19.010,Colour_Similarity_Experiment,2020.2.10,Win32,60,6067542a4a25243f4d7d4fcf,17.07157853,16.68557569,16.67923077,16.67988101,16.68015247,16.68015247,,,,,,,,,,,,,,,,,,,,PF,weak,3,,,,,,,,7,2.930275,,,,,,,,,,,,,,,,,,,,,,,,,,,,4,weak,56.80001229,90.39999491,1,0,0,response1disk,9,100,7.200011551,-4.800006509,1,0,0,rectangle,7.200011551,-4.800006509,1,0,0,7,3,0.000565,7.200011551,-4.800006509,1,0,0,0,99,99,75,1,0,,,,,,,,,,,,,,,,,,,,,
,,,,,,,,,,,,,,,,,,,,,,,,,,,,,,,,,,,,,,,,,,5e9db6b85484b70db14166bd,606c11c260cc8f86e2668cab,2021-04-06_09h48.19.010,Colour_Similarity_Experiment,2020.2.10,Win32,60,6067542a4a25243f4d7d4fcf,17.07157853,16.68557569,16.67923077,16.67988101,16.68015247,16.68015247,,,,,,,,,,,,,,,,,,,,PF,strong,3,,,,,,,,3,2.51337,,,,,,,,,,,,,,,,,,,,,,,,,,,,8,strong,-43.1999892,-101.6000568,1,0,0,response5disk,6,101,14.40001166,4.799993634,1,0,0,rectangle,14.40001166,4.799993634,1,0,0,7,5,0.00056,14.40001166,4.799993634,1,0,0,0,100,100,37,1,0,,,,,,,,,,,,,,,,,,,,,
,,,,,,,,,,,,,,,,,,,,,,,,,,,,,,,,,,,,,,,,,,5e9db6b85484b70db14166bd,606c11c260cc8f86e2668cab,2021-04-06_09h48.19.010,Colour_Similarity_Experiment,2020.2.10,Win32,60,6067542a4a25243f4d7d4fcf,17.07157853,16.68557569,16.67923077,16.67988101,16.68015247,16.68015247,,,,,,,,,,,,,,,,,,,,PF,strong,3,,,,,,,,1,1.228395,,,,,,,,,,,,,,,,,,,,,,,,,,,,9,strong,-91.99998993,57.59999442,1,0,0,response7disk,8,102,16.80001169,-6.400006533,1,0,0,rectangle,16.80001169,-6.400006533,1,0,0,7,1,0.000545,16.80001169,-6.400006533,1,0,0,0,101,101,6,1,0,,,,,,,,,,,,,,,,,,,,,
,,,,,,,,,,,,,,,,,,,,,,,,,,,,,,,,,,,,,,,,,,5e9db6b85484b70db14166bd,606c11c260cc8f86e2668cab,2021-04-06_09h48.19.010,Colour_Similarity_Experiment,2020.2.10,Win32,60,6067542a4a25243f4d7d4fcf,17.07157853,16.68557569,16.67923077,16.67988101,16.68015247,16.68015247,,,,,,,,,,,,,,,,,,,,PF,weak,3,,,,,,,,1,1.512575,,,,,,,,,,,,,,,,,,,,,,,,,,,,8,weak,-84.79998982,52.79999435,1,0,0,response7disk,9,103,2.40001148,-6.4373E-06,1,0,0,rectangle,2.40001148,-6.4373E-06,1,0,0,7,0,0.000575,2.40001148,-6.4373E-06,1,0,0,0,102,102,42,1,0,,,,,,,,,,,,,,,,,,,,,
,,,,,,,,,,,,,,,,,,,,,,,,,,,,,,,,,,,,,,,,,,5e9db6b85484b70db14166bd,606c11c260cc8f86e2668cab,2021-04-06_09h48.19.010,Colour_Similarity_Experiment,2020.2.10,Win32,60,6067542a4a25243f4d7d4fcf,17.07157853,16.68557569,16.67923077,16.67988101,16.68015247,16.68015247,,,,,,,,,,,,,,,,,,,,PF,weak,3,,,,,,,,2,1.04537,,,,,,,,,,,,,,,,,,,,,,,,,,,,8,weak,-86.39994102,-56.80000728,1,0,0,response5disk,7,104,16.80001169,-10.40000659,1,0,0,rectangle,16.80001169,-10.40000659,1,0,0,7,7,0.00067,16.80001169,-10.40000659,1,0,0,0,103,103,23,1,0,,,,,,,,,,,,,,,,,,,,,
,,,,,,,,,,,,,,,,,,,,,,,,,,,,,,,,,,,,,,,,,,5e9db6b85484b70db14166bd,606c11c260cc8f86e2668cab,2021-04-06_09h48.19.010,Colour_Similarity_Experiment,2020.2.10,Win32,60,6067542a4a25243f4d7d4fcf,17.07157853,16.68557569,16.67923077,16.67988101,16.68015247,16.68015247,,,,,,,,,,,,,,,,,,,,PF,weak,3,,,,,,,,2,1.279165,,,,,,,,,,,,,,,,,,,,,,,,,,,,2,weak,-89.59998989,-36.80000699,1,0,0,response5disk,9,105,24.80001181,0.799993575,1,0,0,rectangle,24.80001181,0.799993575,1,0,0,7,4,0.000485,24.80001181,0.799993575,1,0,0,0,104,104,39,1,0,,,,,,,,,,,,,,,,,,,,,
,,,,,,,,,,,,,,,,,,,,,,,,,,,,,,,,,,,,,,,,,,5e9db6b85484b70db14166bd,606c11c260cc8f86e2668cab,2021-04-06_09h48.19.010,Colour_Similarity_Experiment,2020.2.10,Win32,60,6067542a4a25243f4d7d4fcf,17.07157853,16.68557569,16.67923077,16.67988101,16.68015247,16.68015247,,,,,,,,,,,,,,,,,,,,PF,weak,3,,,,,,,,1,1.545695,,,,,,,,,,,,,,,,,,,,,,,,,,,,6,weak,-99.99999005,43.99999422,1,0,0,response7disk,5,106,16.80001169,-3.200006485,1,0,0,rectangle,16.80001169,-3.200006485,1,0,0,7,1,0.000545,16.80001169,-3.200006485,1,0,0,0,105,105,59,1,0,,,,,,,,,,,,,,,,,,,,,
,,,,,,,,,,,,,,,,,,,,,,,,,,,,,,,,,,,,,,,,,,5e9db6b85484b70db14166bd,606c11c260cc8f86e2668cab,2021-04-06_09h48.19.010,Colour_Similarity_Experiment,2020.2.10,Win32,60,6067542a4a25243f4d7d4fcf,17.07157853,16.68557569,16.67923077,16.67988101,16.68015247,16.68015247,,,,,,,,,,,,,,,,,,,,PF,weak,3,,,,,,,,2,1.59592,,,,,,,,,,,,,,,,,,,,,,,,,,,,8,weak,-105.5999901,-49.60000718,1,0,0,response5disk,1,107,7.200011551,-1.600006461,1,0,0,rectangle,7.200011551,-1.600006461,1,0,0,7,7,0.00055,7.200011551,-1.600006461,1,0,0,0,106,106,57,1,0,,,,,,,,,,,,,,,,,,,,,
,,,,,,,,,,,,,,,,,,,,,,,,,,,,,,,,,,,,,,,,,,5e9db6b85484b70db14166bd,606c11c260cc8f86e2668cab,2021-04-06_09h48.19.010,Colour_Similarity_Experiment,2020.2.10,Win32,60,6067542a4a25243f4d7d4fcf,17.07157853,16.68557569,16.67923077,16.67988101,16.68015247,16.68015247,,,,,,,,,,,,,,,,,,,,PF,weak,3,,,,,,,,3,2.129815,,,,,,,,,,,,,,,,,,,,,,,,,,,,8,weak,-31.19998902,-122.4000083,1,0,0,response5disk,2,108,12.80001163,-6.4373E-06,1,0,0,rectangle,12.80001163,-6.4373E-06,1,0,0,7,2,0.00054,12.80001163,-6.4373E-06,1,0,0,0,107,107,83,1,0,,,,,,,,,,,,,,,,,,,,,
,,,,,,,,,,,,,,,,,,,,,,,,,,,,,,,,,,,,,,,,,,5e9db6b85484b70db14166bd,606c11c260cc8f86e2668cab,2021-04-06_09h48.19.010,Colour_Similarity_Experiment,2020.2.10,Win32,60,6067542a4a25243f4d7d4fcf,17.07157853,16.68557569,16.67923077,16.67988101,16.68015247,16.68015247,,,,,,,,,,,,,,,,,,,,PF,weak,3,,,,,,,,3,1.262175,,,,,,,,,,,,,,,,,,,,,,,,,,,,6,weak,-35.99998909,-100.0000079,1,0,0,response5disk,9,109,17.60006053,2.399993598,1,0,0,rectangle,17.60006053,2.399993598,1,0,0,7,3,0.00057,17.60006053,2.399993598,1,0,0,0,108,108,45,1,0,,,,,,,,,,,,,,,,,,,,,
,,,,,,,,,,,,,,,,,,,,,,,,,,,,,,,,,,,,,,,,,,5e9db6b85484b70db14166bd,606c11c260cc8f86e2668cab,2021-04-06_09h48.19.010,Colour_Similarity_Experiment,2020.2.10,Win32,60,6067542a4a25243f4d7d4fcf,17.07157853,16.68557569,16.67923077,16.67988101,16.68015247,16.68015247,,,,,,,,,,,,,,,,,,,,PF,weak,3,,,,,,,,7,1.812135,,,,,,,,,,,,,,,,,,,,,,,,,,,,8,weak,64.80001241,99.99999505,1,0,0,response1disk,4,110,6.400011539,-8.000006557,1,0,0,rectangle,6.400011539,-8.000006557,1,0,0,7,3,6E-05,6.400011539,-8.000006557,1,0,0,0,109,109,78,1,0,,,,,,,,,,,,,,,,,,,,,
,,,,,,,,,,,,,,,,,,,,,,,,,,,,,,,,,,,,,,,,,,5e9db6b85484b70db14166bd,606c11c260cc8f86e2668cab,2021-04-06_09h48.19.010,Colour_Similarity_Experiment,2020.2.10,Win32,60,6067542a4a25243f4d7d4fcf,17.07157853,16.68557569,16.67923077,16.67988101,16.68015247,16.68015247,,,,,,,,,,,,,,,,,,,,PF,weak,3,,,,,,,,0,1.009665,,,,,,,,,,,,,,,,,,,,,,,,,,,,7,weak,-32.79998904,87.99999487,1,0,0,response7disk,7,111,-7.999988675,-10.40000659,1,0,0,rectangle,-7.999988675,-10.40000659,1,0,0,7,7,0.000515,-7.999988675,-10.40000659,1,0,0,0,110,110,51,1,0,,,,,,,,,,,,,,,,,,,,,
,,,,,,,,,,,,,,,,,,,,,,,,,,,,,,,,,,,,,,,,,,5e9db6b85484b70db14166bd,606c11c260cc8f86e2668cab,2021-04-06_09h48.19.010,Colour_Similarity_Experiment,2020.2.10,Win32,60,6067542a4a25243f4d7d4fcf,17.07157853,16.68557569,16.67923077,16.67988101,16.68015247,16.68015247,,,,,,,,,,,,,,,,,,,,PF,strong,3,,,,,,,,3,2.17964,,,,,,,,,,,,,,,,,,,,,,,,,,,,4,strong,-29.599989,-126.4000083,1,0,0,response5disk,2,112,17.60006053,5.599993646,1,0,0,rectangle,17.60006053,5.599993646,1,0,0,7,2,0.00056,17.60006053,5.599993646,1,0,0,0,111,111,13,1,0,,,,,,,,,,,,,,,,,,,,,
,,,,,,,,,,,,,,,,,,,,,,,,,,,,,,,,,,,,,,,,,,5e9db6b85484b70db14166bd,606c11c260cc8f86e2668cab,2021-04-06_09h48.19.010,Colour_Similarity_Experiment,2020.2.10,Win32,60,6067542a4a25243f4d7d4fcf,17.07157853,16.68557569,16.67923077,16.67988101,16.68015247,16.68015247,,,,,,,,,,,,,,,,,,,,PF,weak,3,,,,,,,,5,2.49651,,,,,,,,,,,,,,,,,,,,,,,,,,,,5,weak,110.4000131,-41.60000706,1,0,0,response3disk,2,113,7.200011551,-3.200006485,1,0,0,rectangle,7.200011551,-3.200006485,1,0,0,7,6,0.001265,7.200011551,-3.200006485,1,0,0,0,112,112,129,1,0,,,,,,,,,,,,,,,,,,,,,
,,,,,,,,,,,,,,,,,,,,,,,,,,,,,,,,,,,,,,,,,,5e9db6b85484b70db14166bd,606c11c260cc8f86e2668cab,2021-04-06_09h48.19.010,Colour_Similarity_Experiment,2020.2.10,Win32,60,6067542a4a25243f4d7d4fcf,17.07157853,16.68557569,16.67923077,16.67988101,16.68015247,16.68015247,,,,,,,,,,,,,,,,,,,,PF,strong,3,,,,,,,,1,1.54554,,,,,,,,,,,,,,,,,,,,,,,,,,,,5,strong,-77.59998971,43.19996979,1,0,0,response7disk,6,114,13.60006047,-6.400006533,1,0,0,rectangle,13.60006047,-6.400006533,1,0,0,7,5,0.000545,13.60006047,-6.400006533,1,0,0,0,113,113,12,1,0,,,,,,,,,,,,,,,,,,,,,
,,,,,,,,,,,,,,,,,,,,,,,,,,,,,,,,,,,,,,,,,,5e9db6b85484b70db14166bd,606c11c260cc8f86e2668cab,2021-04-06_09h48.19.010,Colour_Similarity_Experiment,2020.2.10,Win32,60,6067542a4a25243f4d7d4fcf,17.07157853,16.68557569,16.67923077,16.67988101,16.68015247,16.68015247,,,,,,,,,,,,,,,,,,,,PF,weak,3,,,,,,,,2,1.562375,,,,,,,,,,,,,,,,,,,,,,,,,,,,2,weak,-82.39994096,-43.20000708,1,0,0,response5disk,3,115,19.20001173,-6.400006533,1,0,0,rectangle,19.20001173,-6.400006533,1,0,0,7,0,0.00054,19.20001173,-6.400006533,1,0,0,0,114,114,69,1,0,,,,,,,,,,,,,,,,,,,,,
,,,,,,,,,,,,,,,,,,,,,,,,,,,,,,,,,,,,,,,,,,5e9db6b85484b70db14166bd,606c11c260cc8f86e2668cab,2021-04-06_09h48.19.010,Colour_Similarity_Experiment,2020.2.10,Win32,60,6067542a4a25243f4d7d4fcf,17.07157853,16.68557569,16.67923077,16.67988101,16.68015247,16.68015247,,,,,,,,,,,,,,,,,,,,PF,strong,3,,,,,,,,3,2.04629,,,,,,,,,,,,,,,,,,,,,,,,,,,,6,strong,-58.3999406,-92.80000782,1,0,0,response5disk,4,116,10.4000116,2.399993598,1,0,0,rectangle,10.4000116,2.399993598,1,0,0,7,5,0.00061,10.4000116,2.399993598,1,0,0,0,115,115,56,1,0,,,,,,,,,,,,,,,,,,,,,
,,,,,,,,,,,,,,,,,,,,,,,,,,,,,,,,,,,,,,,,,,5e9db6b85484b70db14166bd,606c11c260cc8f86e2668cab,2021-04-06_09h48.19.010,Colour_Similarity_Experiment,2020.2.10,Win32,60,6067542a4a25243f4d7d4fcf,17.07157853,16.68557569,16.67923077,16.67988101,16.68015247,16.68015247,,,,,,,,,,,,,,,,,,,,PF,weak,3,,,,,,,,5,4.83177,,,,,,,,,,,,,,,,,,,,,,,,,,,,7,weak,110.4000131,-48.00000715,1,0,0,response3disk,3,117,-3.199988604,-5.600006521,1,0,0,rectangle,-3.199988604,-5.600006521,1,0,0,7,7,0.000565,-3.199988604,-5.600006521,1,0,0,0,116,116,81,1,0,,,,,,,,,,,,,,,,,,,,,
,,,,,,,,,,,,,,,,,,,,,,,,,,,,,,,,,,,,,,,,,,5e9db6b85484b70db14166bd,606c11c260cc8f86e2668cab,2021-04-06_09h48.19.010,Colour_Similarity_Experiment,2020.2.10,Win32,60,6067542a4a25243f4d7d4fcf,17.07157853,16.68557569,16.67923077,16.67988101,16.68015247,16.68015247,,,,,,,,,,,,,,,,,,,,PF,strong,3,,,,,,,,2,1.979555,,,,,,,,,,,,,,,,,,,,,,,,,,,,3,strong,-98.39994119,-60.00000733,1,0,0,response5disk,2,118,22.40001178,2.399993598,1,0,0,rectangle,22.40001178,2.399993598,1,0,0,7,4,0.00049,22.40001178,2.399993598,1,0,0,0,117,117,93,1,0,,,,,,,,,,,,,,,,,,,,,
,,,,,,,,,,,,,,,,,,,,,,,,,,,,,,,,,,,,,,,,,,5e9db6b85484b70db14166bd,606c11c260cc8f86e2668cab,2021-04-06_09h48.19.010,Colour_Similarity_Experiment,2020.2.10,Win32,60,6067542a4a25243f4d7d4fcf,17.07157853,16.68557569,16.67923077,16.67988101,16.68015247,16.68015247,,,,,,,,,,,,,,,,,,,,PF,strong,3,,,,,,,,1,1.179305,,,,,,,,,,,,,,,,,,,,,,,,,,,,5,strong,-86.39994102,50.39999431,1,0,0,response7disk,4,119,0.800011456,-4.800006509,1,0,0,rectangle,0.800011456,-4.800006509,1,0,0,7,2,0.00048,0.800011456,-4.800006509,1,0,0,0,118,118,8,1,0,,,,,,,,,,,,,,,,,,,,,
,,,,,,,,,,,,,,,,,,,,,,,,,,,,,,,,,,,,,,,,,,5e9db6b85484b70db14166bd,606c11c260cc8f86e2668cab,2021-04-06_09h48.19.010,Colour_Similarity_Experiment,2020.2.10,Win32,60,6067542a4a25243f4d7d4fcf,17.07157853,16.68557569,16.67923077,16.67988101,16.68015247,16.68015247,,,,,,,,,,,,,,,,,,,,PF,weak,3,,,,,,,,6,1.645605,,,,,,,,,,,,,,,,,,,,,,,,,,,,9,weak,112.0000131,42.39999419,1,0,0,response1disk,3,120,-3.999988616,-4.000006497,1,0,0,rectangle,-3.999988616,-4.000006497,1,0,0,7,6,0.000495,-3.999988616,-4.000006497,1,0,0,0,119,119,119,1,0,,,,,,,,,,,,,,,,,,,,,
,,,,,,,,,,,,,,,,,,,,,,,,,,,,,,,,,,,,,,,,,,5e9db6b85484b70db14166bd,606c11c260cc8f86e2668cab,2021-04-06_09h48.19.010,Colour_Similarity_Experiment,2020.2.10,Win32,60,6067542a4a25243f4d7d4fcf,17.07157853,16.68557569,16.67923077,16.67988101,16.68015247,16.68015247,,,,,,,,,,,,,,,,,,,,PF,strong,3,,,,,,,,4,4.934865,,,,,,,,,,,,,,,,,,,,,,,,,,,,1,strong,53.60001224,-96.00000787,1,0,0,response3disk,7,121,6.400011539,-2.400006473,1,0,0,rectangle,6.400011539,-2.400006473,1,0,0,7,1,0.000525,6.400011539,-2.400006473,1,0,0,0,120,120,137,1,0,,,,,,,,,,,,,,,,,,,,,
,,,,,,,,,,,,,,,,,,,,,,,,,,,,,,,,,,,,,,,,,,5e9db6b85484b70db14166bd,606c11c260cc8f86e2668cab,2021-04-06_09h48.19.010,Colour_Similarity_Experiment,2020.2.10,Win32,60,6067542a4a25243f4d7d4fcf,17.07157853,16.68557569,16.67923077,16.67988101,16.68015247,16.68015247,,,,,,,,,,,,,,,,,,,,PF,weak,3,,,,,,,,5,2.629985,,,,,,,,,,,,,,,,,,,,,,,,,,,,3,weak,96.00001287,-32.80000693,1,0,0,response3disk,6,122,-4.799988627,1.599993587,1,0,0,rectangle,-4.799988627,1.599993587,1,0,0,7,3,0.00055,-4.799988627,1.599993587,1,0,0,0,121,121,47,1,0,,,,,,,,,,,,,,,,,,,,,
,,,,,,,,,,,,,,,,,,,,,,,,,,,,,,,,,,,,,,,,,,5e9db6b85484b70db14166bd,606c11c260cc8f86e2668cab,2021-04-06_09h48.19.010,Colour_Similarity_Experiment,2020.2.10,Win32,60,6067542a4a25243f4d7d4fcf,17.07157853,16.68557569,16.67923077,16.67988101,16.68015247,16.68015247,,,,,,,,,,,,,,,,,,,,PF,strong,3,,,,,,,,4,2.029185,,,,,,,,,,,,,,,,,,,,,,,,,,,,1,strong,32.00001192,-108.8000081,1,0,0,response3disk,6,123,15.20001167,11.99999374,1,0,0,rectangle,15.20001167,11.99999374,1,0,0,7,2,0.000475,15.20001167,11.99999374,1,0,0,0,122,122,58,1,0,,,,,,,,,,,,,,,,,,,,,
,,,,,,,,,,,,,,,,,,,,,,,,,,,,,,,,,,,,,,,,,,5e9db6b85484b70db14166bd,606c11c260cc8f86e2668cab,2021-04-06_09h48.19.010,Colour_Similarity_Experiment,2020.2.10,Win32,60,6067542a4a25243f4d7d4fcf,17.07157853,16.68557569,16.67923077,16.67988101,16.68015247,16.68015247,,,,,,,,,,,,,,,,,,,,PF,weak,3,,,,,,,,4,2.14638,,,,,,,,,,,,,,,,,,,,,,,,,,,,9,weak,44.0000121,-121.6000571,1,0,0,response3disk,5,124,-0.799988568,-8.800006568,1,0,0,rectangle,-0.799988568,-8.800006568,1,0,0,7,4,0.000485,-0.799988568,-8.800006568,1,0,0,0,123,123,134,1,0,,,,,,,,,,,,,,,,,,,,,
,,,,,,,,,,,,,,,,,,,,,,,,,,,,,,,,,,,,,,,,,,5e9db6b85484b70db14166bd,606c11c260cc8f86e2668cab,2021-04-06_09h48.19.010,Colour_Similarity_Experiment,2020.2.10,Win32,60,6067542a4a25243f4d7d4fcf,17.07157853,16.68557569,16.67923077,16.67988101,16.68015247,16.68015247,,,,,,,,,,,,,,,,,,,,PF,strong,3,,,,,,,,3,1.762285,,,,,,,,,,,,,,,,,,,,,,,,,,,,2,strong,-43.1999892,-119.2000082,1,0,0,response5disk,4,125,12.80001163,-8.000006557,1,0,0,rectangle,12.80001163,-8.000006557,1,0,0,7,3,0.00044,12.80001163,-8.000006557,1,0,0,0,124,124,145,1,0,,,,,,,,,,,,,,,,,,,,,
,,,,,,,,,,,,,,,,,,,,,,,,,,,,,,,,,,,,,,,,,,5e9db6b85484b70db14166bd,606c11c260cc8f86e2668cab,2021-04-06_09h48.19.010,Colour_Similarity_Experiment,2020.2.10,Win32,60,6067542a4a25243f4d7d4fcf,17.07157853,16.68557569,16.67923077,16.67988101,16.68015247,16.68015247,,,,,,,,,,,,,,,,,,,,PF,weak,3,,,,,,,,3,1.46239,,,,,,,,,,,,,,,,,,,,,,,,,,,,2,weak,-65.59998953,-100.8000079,1,0,0,response5disk,8,126,16.00001168,-4.800006509,1,0,0,rectangle,16.00001168,-4.800006509,1,0,0,7,2,0.00053,16.00001168,-4.800006509,1,0,0,0,125,125,52,1,0,,,,,,,,,,,,,,,,,,,,,
,,,,,,,,,,,,,,,,,,,,,,,,,,,,,,,,,,,,,,,,,,5e9db6b85484b70db14166bd,606c11c260cc8f86e2668cab,2021-04-06_09h48.19.010,Colour_Similarity_Experiment,2020.2.10,Win32,60,6067542a4a25243f4d7d4fcf,17.07157853,16.68557569,16.67923077,16.67988101,16.68015247,16.68015247,,,,,,,,,,,,,,,,,,,,PF,strong,3,,,,,,,,1,2.512785,,,,,,,,,,,,,,,,,,,,,,,,,,,,8,strong,-81.59998977,62.39999449,1,0,0,response7disk,8,127,-0.799988568,-8.000006557,1,0,0,rectangle,-0.799988568,-8.000006557,1,0,0,7,1,0.000535,-0.799988568,-8.000006557,1,0,0,0,126,126,48,1,0,,,,,,,,,,,,,,,,,,,,,
,,,,,,,,,,,,,,,,,,,,,,,,,,,,,,,,,,,,,,,,,,5e9db6b85484b70db14166bd,606c11c260cc8f86e2668cab,2021-04-06_09h48.19.010,Colour_Similarity_Experiment,2020.2.10,Win32,60,6067542a4a25243f4d7d4fcf,17.07157853,16.68557569,16.67923077,16.67988101,16.68015247,16.68015247,,,,,,,,,,,,,,,,,,,,PF,weak,3,,,,,,,,2,1.145505,,,,,,,,,,,,,,,,,,,,,,,,,,,,7,weak,-102.3999413,-55.20000726,1,0,0,response5disk,5,128,5.600060356,-1.600006461,1,0,0,rectangle,5.600060356,-1.600006461,1,0,0,7,4,0.00053,5.600060356,-1.600006461,1,0,0,0,127,127,92,1,0,,,,,,,,,,,,,,,,,,,,,
,,,,,,,,,,,,,,,,,,,,,,,,,,,,,,,,,,,,,,,,,,5e9db6b85484b70db14166bd,606c11c260cc8f86e2668cab,2021-04-06_09h48.19.010,Colour_Similarity_Experiment,2020.2.10,Win32,60,6067542a4a25243f4d7d4fcf,17.07157853,16.68557569,16.67923077,16.67988101,16.68015247,16.68015247,,,,,,,,,,,,,,,,,,,,PF,strong,3,,,,,,,,1,1.64618,,,,,,,,,,,,,,,,,,,,,,,,,,,,7,strong,-99.99999005,55.19996997,1,0,0,response7disk,8,129,-3.999988616,-2.400006473,1,0,0,rectangle,46.40001214,-106.400008,1,0,0,4,4,2.06866,-5.599988639,-2.400006473,1,0,0,0,128,128,97,1,1,response3disk_3,rectangle,,,,,,,,,,,,,,,,,,,
,,,,,,,,,,,,,,,,,,,,,,,,,,,,,,,,,,,,,,,,,,5e9db6b85484b70db14166bd,606c11c260cc8f86e2668cab,2021-04-06_09h48.19.010,Colour_Similarity_Experiment,2020.2.10,Win32,60,6067542a4a25243f4d7d4fcf,17.07157853,16.68557569,16.67923077,16.67988101,16.68015247,16.68015247,,,,,,,,,,,,,,,,,,,,PF,strong,3,,,,,,,,7,2.429705,,,,,,,,,,,,,,,,,,,,,,,,,,,,1,strong,64.80001241,102.3999951,1,0,0,response1disk,4,130,3.200011492,-2.400006473,1,0,0,rectangle,3.200011492,-2.400006473,1,0,0,4,5,0.000525,3.200011492,-2.400006473,1,0,0,0,129,129,135,1,0,,,,,,,,,,,,,,,,,,,,,
,,,,,,,,,,,,,,,,,,,,,,,,,,,,,,,,,,,,,,,,,,5e9db6b85484b70db14166bd,606c11c260cc8f86e2668cab,2021-04-06_09h48.19.010,Colour_Similarity_Experiment,2020.2.10,Win32,60,6067542a4a25243f4d7d4fcf,17.07157853,16.68557569,16.67923077,16.67988101,16.68015247,16.68015247,,,,,,,,,,,,,,,,,,,,PF,strong,3,,,,,,,,2,2.86316,,,,,,,,,,,,,,,,,,,,,,,,,,,,5,strong,-86.39994102,-61.60000736,1,0,0,response5disk,7,131,7.200011551,-5.600006521,1,0,0,rectangle,7.200011551,-5.600006521,1,0,0,4,7,0.000475,7.200011551,-5.600006521,1,0,0,0,130,130,7,1,0,,,,,,,,,,,,,,,,,,,,,
,,,,,,,,,,,,,,,,,,,,,,,,,,,,,,,,,,,,,,,,,,5e9db6b85484b70db14166bd,606c11c260cc8f86e2668cab,2021-04-06_09h48.19.010,Colour_Similarity_Experiment,2020.2.10,Win32,60,6067542a4a25243f4d7d4fcf,17.07157853,16.68557569,16.67923077,16.67988101,16.68015247,16.68015247,,,,,,,,,,,,,,,,,,,,PF,weak,3,,,,,,,,6,1.75159,,,,,,,,,,,,,,,,,,,,,,,,,,,,3,weak,108.0000131,51.19996991,1,0,0,response1disk,7,132,17.60006053,-8.800006568,1,0,0,rectangle,17.60006053,-8.800006568,1,0,0,4,0,0.00052,17.60006053,-8.800006568,1,0,0,0,131,131,41,1,0,,,,,,,,,,,,,,,,,,,,,
,,,,,,,,,,,,,,,,,,,,,,,,,,,,,,,,,,,,,,,,,,5e9db6b85484b70db14166bd,606c11c260cc8f86e2668cab,2021-04-06_09h48.19.010,Colour_Similarity_Experiment,2020.2.10,Win32,60,6067542a4a25243f4d7d4fcf,17.07157853,16.68557569,16.67923077,16.67988101,16.68015247,16.68015247,,,,,,,,,,,,,,,,,,,,PF,strong,3,,,,,,,,1,2.162745,,,,,,,,,,,,,,,,,,,,,,,,,,,,6,strong,-99.99999005,39.19996973,1,0,0,response7disk,7,133,5.600060356,-8.000006557,1,0,0,rectangle,5.600060356,-8.000006557,1,0,0,4,6,0.00065,5.600060356,-8.000006557,1,0,0,0,132,132,18,1,0,,,,,,,,,,,,,,,,,,,,,
,,,,,,,,,,,,,,,,,,,,,,,,,,,,,,,,,,,,,,,,,,5e9db6b85484b70db14166bd,606c11c260cc8f86e2668cab,2021-04-06_09h48.19.010,Colour_Similarity_Experiment,2020.2.10,Win32,60,6067542a4a25243f4d7d4fcf,17.07157853,16.68557569,16.67923077,16.67988101,16.68015247,16.68015247,,,,,,,,,,,,,,,,,,,,PF,weak,3,,,,,,,,1,1.17876,,,,,,,,,,,,,,,,,,,,,,,,,,,,4,weak,-81.59998977,55.9999944,1,0,0,response7disk,5,134,5.600060356,-0.800006449,1,0,0,rectangle,5.600060356,-0.800006449,1,0,0,4,3,0.000645,5.600060356,-0.800006449,1,0,0,0,133,133,49,1,0,,,,,,,,,,,,,,,,,,,,,
,,,,,,,,,,,,,,,,,,,,,,,,,,,,,,,,,,,,,,,,,,5e9db6b85484b70db14166bd,606c11c260cc8f86e2668cab,2021-04-06_09h48.19.010,Colour_Similarity_Experiment,2020.2.10,Win32,60,6067542a4a25243f4d7d4fcf,17.07157853,16.68557569,16.67923077,16.67988101,16.68015247,16.68015247,,,,,,,,,,,,,,,,,,,,PF,weak,3,,,,,,,,7,1.128365,,,,,,,,,,,,,,,,,,,,,,,,,,,,1,weak,56.00001228,107.1999707,1,0,0,response1disk,4,135,-2.399939764,3.19999361,1,0,0,rectangle,-2.399939764,3.19999361,1,0,0,4,3,6E-05,-2.399939764,3.19999361,1,0,0,0,134,134,139,1,0,,,,,,,,,,,,,,,,,,,,,
,,,,,,,,,,,,,,,,,,,,,,,,,,,,,,,,,,,,,,,,,,5e9db6b85484b70db14166bd,606c11c260cc8f86e2668cab,2021-04-06_09h48.19.010,Colour_Similarity_Experiment,2020.2.10,Win32,60,6067542a4a25243f4d7d4fcf,17.07157853,16.68557569,16.67923077,16.67988101,16.68015247,16.68015247,,,,,,,,,,,,,,,,,,,,PF,strong,3,,,,,,,,5,1.94592,,,,,,,,,,,,,,,,,,,,,,,,,,,,3,strong,106.400013,-35.20000696,1,0,0,response3disk,6,136,4.800011516,-9.60000658,1,0,0,rectangle,4.800011516,-9.60000658,1,0,0,4,0,0.00063,4.800011516,-9.60000658,1,0,0,0,135,135,95,1,0,,,,,,,,,,,,,,,,,,,,,
,,,,,,,,,,,,,,,,,,,,,,,,,,,,,,,,,,,,,,,,,,5e9db6b85484b70db14166bd,606c11c260cc8f86e2668cab,2021-04-06_09h48.19.010,Colour_Similarity_Experiment,2020.2.10,Win32,60,6067542a4a25243f4d7d4fcf,17.07157853,16.68557569,16.67923077,16.67988101,16.68015247,16.68015247,,,,,,,,,,,,,,,,,,,,PF,weak,3,,,,,,,,1,1.028645,,,,,,,,,,,,,,,,,,,,,,,,,,,,9,weak,-103.9999901,43.19996979,1,0,0,response7disk,1,137,24.80001181,-2.400006473,1,0,0,rectangle,24.80001181,-2.400006473,1,0,0,4,1,0.00057,24.80001181,-2.400006473,1,0,0,0,136,136,74,1,0,,,,,,,,,,,,,,,,,,,,,
,,,,,,,,,,,,,,,,,,,,,,,,,,,,,,,,,,,,,,,,,,5e9db6b85484b70db14166bd,606c11c260cc8f86e2668cab,2021-04-06_09h48.19.010,Colour_Similarity_Experiment,2020.2.10,Win32,60,6067542a4a25243f4d7d4fcf,17.07157853,16.68557569,16.67923077,16.67988101,16.68015247,16.68015247,,,,,,,,,,,,,,,,,,,,PF,weak,3,,,,,,,,0,0.995325,,,,,,,,,,,,,,,,,,,,,,,,,,,,4,weak,-43.99998921,110.3999952,1,0,0,response7disk,4,138,3.200011492,-12.00000662,1,0,0,rectangle,3.200011492,-12.00000662,1,0,0,4,0,0.000865,3.200011492,-12.00000662,1,0,0,0,137,137,70,1,0,,,,,,,,,,,,,,,,,,,,,
,,,,,,,,,,,,,,,,,,,,,,,,,,,,,,,,,,,,,,,,,,5e9db6b85484b70db14166bd,606c11c260cc8f86e2668cab,2021-04-06_09h48.19.010,Colour_Similarity_Experiment,2020.2.10,Win32,60,6067542a4a25243f4d7d4fcf,17.07157853,16.68557569,16.67923077,16.67988101,16.68015247,16.68015247,,,,,,,,,,,,,,,,,,,,PF,weak,3,,,,,,,,2,1.57961,,,,,,,,,,,,,,,,,,,,,,,,,,,,7,weak,-76.7999897,-50.40000719,1,0,0,response5disk,8,139,-1.59998858,-5.600006521,1,0,0,rectangle,-1.59998858,-5.600006521,1,0,0,4,1,0.00048,-1.59998858,-5.600006521,1,0,0,0,138,138,140,1,0,,,,,,,,,,,,,,,,,,,,,
,,,,,,,,,,,,,,,,,,,,,,,,,,,,,,,,,,,,,,,,,,5e9db6b85484b70db14166bd,606c11c260cc8f86e2668cab,2021-04-06_09h48.19.010,Colour_Similarity_Experiment,2020.2.10,Win32,60,6067542a4a25243f4d7d4fcf,17.07157853,16.68557569,16.67923077,16.67988101,16.68015247,16.68015247,,,,,,,,,,,,,,,,,,,,PF,weak,3,,,,,,,,3,1.74571,,,,,,,,,,,,,,,,,,,,,,,,,,,,8,weak,-59.99998945,-106.400008,1,0,0,response5disk,5,140,0.800011456,-5.600006521,1,0,0,rectangle,0.800011456,-5.600006521,1,0,0,4,5,0.000565,0.800011456,-5.600006521,1,0,0,0,139,139,98,1,0,,,,,,,,,,,,,,,,,,,,,
,,,,,,,,,,,,,,,,,,,,,,,,,,,,,,,,,,,,,,,,,,5e9db6b85484b70db14166bd,606c11c260cc8f86e2668cab,2021-04-06_09h48.19.010,Colour_Similarity_Experiment,2020.2.10,Win32,60,6067542a4a25243f4d7d4fcf,17.07157853,16.68557569,16.67923077,16.67988101,16.68015247,16.68015247,,,,,,,,,,,,,,,,,,,,PF,strong,3,,,,,,,,0,0.96164,,,,,,,,,,,,,,,,,,,,,,,,,,,,3,strong,-51.19998932,99.19997063,1,0,0,response7disk,3,141,7.200011551,-4.000006497,1,0,0,rectangle,7.200011551,-4.000006497,1,0,0,4,7,0.000645,7.200011551,-4.000006497,1,0,0,0,140,140,68,1,0,,,,,,,,,,,,,,,,,,,,,
,,,,,,,,,,,,,,,,,,,,,,,,,,,,,,,,,,,,,,,,,,5e9db6b85484b70db14166bd,606c11c260cc8f86e2668cab,2021-04-06_09h48.19.010,Colour_Similarity_Experiment,2020.2.10,Win32,60,6067542a4a25243f4d7d4fcf,17.07157853,16.68557569,16.67923077,16.67988101,16.68015247,16.68015247,,,,,,,,,,,,,,,,,,,,PF,strong,3,,,,,,,,4,2.930085,,,,,,,,,,,,,,,,,,,,,,,,,,,,1,strong,39.20001203,-120.0000082,1,0,0,response3disk,3,142,-3.999988616,-9.60000658,1,0,0,rectangle,-3.999988616,-9.60000658,1,0,0,4,6,0.000525,-3.999988616,-9.60000658,1,0,0,0,141,141,99,1,0,,,,,,,,,,,,,,,,,,,,,
,,,,,,,,,,,,,,,,,,,,,,,,,,,,,,,,,,,,,,,,,,5e9db6b85484b70db14166bd,606c11c260cc8f86e2668cab,2021-04-06_09h48.19.010,Colour_Similarity_Experiment,2020.2.10,Win32,60,6067542a4a25243f4d7d4fcf,17.07157853,16.68557569,16.67923077,16.67988101,16.68015247,16.68015247,,,,,,,,,,,,,,,,,,,,PF,strong,3,,,,,,,,3,1.9852,,,,,,,,,,,,,,,,,,,,,,,,,,,,6,strong,-36.7999891,-103.200008,1,0,0,response5disk,9,143,13.60006047,4.799993634,1,0,0,rectangle,-40.79998916,-103.200008,1,0,0,3,3,1.833805,-4.799988627,-4.000006497,1,0,0,0,142,142,160,1,1,response5disk_3,rectangle,,,,,,,,,,,,,,,,,,,
,,,,,,,,,,,,,,,,,,,,,,,,,,,,,,,,,,,,,,,,,,5e9db6b85484b70db14166bd,606c11c260cc8f86e2668cab,2021-04-06_09h48.19.010,Colour_Similarity_Experiment,2020.2.10,Win32,60,6067542a4a25243f4d7d4fcf,17.07157853,16.68557569,16.67923077,16.67988101,16.68015247,16.68015247,,,,,,,,,,,,,,,,,,,,PF,strong,3,,,,,,,,2,1.46279,,,,,,,,,,,,,,,,,,,,,,,,,,,,7,strong,-95.99998999,-48.00000715,1,0,0,response5disk,4,144,-4.799988627,-6.400006533,1,0,0,rectangle,-4.799988627,-6.400006533,1,0,0,3,5,0.000565,-4.799988627,-6.400006533,1,0,0,0,143,143,158,1,0,,,,,,,,,,,,,,,,,,,,,
,,,,,,,,,,,,,,,,,,,,,,,,,,,,,,,,,,,,,,,,,,5e9db6b85484b70db14166bd,606c11c260cc8f86e2668cab,2021-04-06_09h48.19.010,Colour_Similarity_Experiment,2020.2.10,Win32,60,6067542a4a25243f4d7d4fcf,17.07157853,16.68557569,16.67923077,16.67988101,16.68015247,16.68015247,,,,,,,,,,,,,,,,,,,,PF,strong,3,,,,,,,,3,1.261915,,,,,,,,,,,,,,,,,,,,,,,,,,,,8,strong,-48.79998928,-76.80000758,1,0,0,response5disk,5,145,-3.999988616,-7.200006545,1,0,0,rectangle,-3.999988616,-7.200006545,1,0,0,3,2,0.00049,-3.999988616,-7.200006545,1,0,0,0,144,144,152,1,0,,,,,,,,,,,,,,,,,,,,,
,,,,,,,,,,,,,,,,,,,,,,,,,,,,,,,,,,,,,,,,,,5e9db6b85484b70db14166bd,606c11c260cc8f86e2668cab,2021-04-06_09h48.19.010,Colour_Similarity_Experiment,2020.2.10,Win32,60,6067542a4a25243f4d7d4fcf,17.07157853,16.68557569,16.67923077,16.67988101,16.68015247,16.68015247,,,,,,,,,,,,,,,,,,,,PF,strong,3,,,,,,,,4,2.530095,,,,,,,,,,,,,,,,,,,,,,,,,,,,3,strong,44.0000121,-104.800008,1,0,0,response3disk,1,146,11.20001161,7.19999367,1,0,0,rectangle,11.20001161,7.19999367,1,0,0,3,6,0.000615,11.20001161,7.19999367,1,0,0,0,145,145,125,1,0,,,,,,,,,,,,,,,,,,,,,
,,,,,,,,,,,,,,,,,,,,,,,,,,,,,,,,,,,,,,,,,,5e9db6b85484b70db14166bd,606c11c260cc8f86e2668cab,2021-04-06_09h48.19.010,Colour_Similarity_Experiment,2020.2.10,Win32,60,6067542a4a25243f4d7d4fcf,17.07157853,16.68557569,16.67923077,16.67988101,16.68015247,16.68015247,,,,,,,,,,,,,,,,,,,,PF,weak,3,,,,,,,,1,0.928665,,,,,,,,,,,,,,,,,,,,,,,,,,,,4,weak,-101.5999901,54.39999437,1,0,0,response7disk,3,147,1.600060296,-4.000006497,1,0,0,rectangle,1.600060296,-4.000006497,1,0,0,3,6,6.49999E-05,1.600060296,-4.000006497,1,0,0,0,146,146,89,1,0,,,,,,,,,,,,,,,,,,,,,
,,,,,,,,,,,,,,,,,,,,,,,,,,,,,,,,,,,,,,,,,,5e9db6b85484b70db14166bd,606c11c260cc8f86e2668cab,2021-04-06_09h48.19.010,Colour_Similarity_Experiment,2020.2.10,Win32,60,6067542a4a25243f4d7d4fcf,17.07157853,16.68557569,16.67923077,16.67988101,16.68015247,16.68015247,,,,,,,,,,,,,,,,,,,,PF,strong,3,,,,,,,,0,1.04508,,,,,,,,,,,,,,,,,,,,,,,,,,,,5,strong,-34.39994024,107.1999707,1,0,0,response7disk,5,148,9.600060415,3.999993622,1,0,0,rectangle,9.600060415,3.999993622,1,0,0,3,1,0.000445,9.600060415,3.999993622,1,0,0,0,147,147,19,1,0,,,,,,,,,,,,,,,,,,,,,
,,,,,,,,,,,,,,,,,,,,,,,,,,,,,,,,,,,,,,,,,,5e9db6b85484b70db14166bd,606c11c260cc8f86e2668cab,2021-04-06_09h48.19.010,Colour_Similarity_Experiment,2020.2.10,Win32,60,6067542a4a25243f4d7d4fcf,17.07157853,16.68557569,16.67923077,16.67988101,16.68015247,16.68015247,,,,,,,,,,,,,,,,,,,,PF,weak,3,,,,,,,,6,2.34621,,,,,,,,,,,,,,,,,,,,,,,,,,,,3,weak,116.8000132,30.39999402,1,0,0,response1disk,9,149,8.800011575,3.999993622,1,0,0,rectangle,8.800011575,3.999993622,1,0,0,3,3,0.000595,8.800011575,3.999993622,1,0,0,0,148,148,79,1,0,,,,,,,,,,,,,,,,,,,,,
,,,,,,,,,,,,,,,,,,,,,,,,,,,,,,,,,,,,,,,,,,5e9db6b85484b70db14166bd,606c11c260cc8f86e2668cab,2021-04-06_09h48.19.010,Colour_Similarity_Experiment,2020.2.10,Win32,60,6067542a4a25243f4d7d4fcf,17.07157853,16.68557569,16.67923077,16.67988101,16.68015247,16.68015247,,,,,,,,,,,,,,,,,,,,PF,strong,3,,,,,,,,6,2.279665,,,,,,,,,,,,,,,,,,,,,,,,,,,,5,strong,99.20001292,39.99999416,1,0,0,response1disk,2,150,5.600060356,-4.000006497,1,0,0,rectangle,52.00001222,-110.4000081,1,0,0,4,4,1.768085,-6.399939823,-7.200006545,1,0,0,0,149,149,55,1,1,response3disk_3,rectangle,,,,,,,,,,,,,,,,,,,
,,,,,,,,,,,,,,,,,,,,,,,,,,,,,,,,,,,,,,,,,,5e9db6b85484b70db14166bd,606c11c260cc8f86e2668cab,2021-04-06_09h48.19.010,Colour_Similarity_Experiment,2020.2.10,Win32,60,6067542a4a25243f4d7d4fcf,17.07157853,16.68557569,16.67923077,16.67988101,16.68015247,16.68015247,,,,,,,,,,,,,,,,,,,,PF,strong,3,,,,,,,,1,3.31439,,,,,,,,,,,,,,,,,,,,,,,,,,,,8,strong,-89.59998989,41.59999418,1,0,0,response7disk,7,151,11.20001161,-2.400006473,1,0,0,rectangle,11.20001161,-2.400006473,1,0,0,4,2,0.000615,11.20001161,-2.400006473,1,0,0,0,150,150,86,1,0,,,,,,,,,,,,,,,,,,,,,
,,,,,,,,,,,,,,,,,,,,,,,,,,,,,,,,,,,,,,,,,,5e9db6b85484b70db14166bd,606c11c260cc8f86e2668cab,2021-04-06_09h48.19.010,Colour_Similarity_Experiment,2020.2.10,Win32,60,6067542a4a25243f4d7d4fcf,17.07157853,16.68557569,16.67923077,16.67988101,16.68015247,16.68015247,,,,,,,,,,,,,,,,,,,,PF,weak,3,,,,,,,,1,2.07751,,,,,,,,,,,,,,,,,,,,,,,,,,,,7,weak,-103.1999901,42.39999419,1,0,0,response7disk,9,152,10.4000116,-15.20000666,1,0,0,rectangle,10.4000116,-15.20000666,1,0,0,4,2,0.00078,10.4000116,-15.20000666,1,0,0,0,151,151,10,1,0,,,,,,,,,,,,,,,,,,,,,
,,,,,,,,,,,,,,,,,,,,,,,,,,,,,,,,,,,,,,,,,,5e9db6b85484b70db14166bd,606c11c260cc8f86e2668cab,2021-04-06_09h48.19.010,Colour_Similarity_Experiment,2020.2.10,Win32,60,6067542a4a25243f4d7d4fcf,17.07157853,16.68557569,16.67923077,16.67988101,16.68015247,16.68015247,,,,,,,,,,,,,,,,,,,,PF,strong,3,,,,,,,,5,2.079295,,,,,,,,,,,,,,,,,,,,,,,,,,,,7,strong,86.40001273,-56.00000727,1,0,0,response3disk,3,153,1.14441E-05,0.799993575,1,0,0,rectangle,1.14441E-05,0.799993575,1,0,0,4,0,0.00051,1.14441E-05,0.799993575,1,0,0,0,152,152,73,1,0,,,,,,,,,,,,,,,,,,,,,
,,,,,,,,,,,,,,,,,,,,,,,,,,,,,,,,,,,,,,,,,,5e9db6b85484b70db14166bd,606c11c260cc8f86e2668cab,2021-04-06_09h48.19.010,Colour_Similarity_Experiment,2020.2.10,Win32,60,6067542a4a25243f4d7d4fcf,17.07157853,16.68557569,16.67923077,16.67988101,16.68015247,16.68015247,,,,,,,,,,,,,,,,,,,,PF,weak,3,,,,,,,,7,1.41258,,,,,,,,,,,,,,,,,,,,,,,,,,,,1,weak,55.20001227,93.59999496,1,0,0,response1disk,5,154,6.400011539,-2.400006473,1,0,0,rectangle,6.400011539,-2.400006473,1,0,0,4,6,0.000485,6.400011539,-2.400006473,1,0,0,0,153,153,28,1,0,,,,,,,,,,,,,,,,,,,,,
,,,,,,,,,,,,,,,,,,,,,,,,,,,,,,,,,,,,,,,,,,5e9db6b85484b70db14166bd,606c11c260cc8f86e2668cab,2021-04-06_09h48.19.010,Colour_Similarity_Experiment,2020.2.10,Win32,60,6067542a4a25243f4d7d4fcf,17.07157853,16.68557569,16.67923077,16.67988101,16.68015247,16.68015247,,,,,,,,,,,,,,,,,,,,PF,weak,3,,,,,,,,7,1.212225,,,,,,,,,,,,,,,,,,,,,,,,,,,,5,weak,52.80001223,107.1999707,1,0,0,response1disk,9,155,9.600060415,-7.200006545,1,0,0,rectangle,-93.59998995,-40.00000703,1,0,0,4,2,1.984735,1.600060296,-6.4373E-06,1,0,0,0,154,154,136,1,1,response5disk_3,rectangle,,,,,,,,,,,,,,,,,,,
,,,,,,,,,,,,,,,,,,,,,,,,,,,,,,,,,,,,,,,,,,5e9db6b85484b70db14166bd,606c11c260cc8f86e2668cab,2021-04-06_09h48.19.010,Colour_Similarity_Experiment,2020.2.10,Win32,60,6067542a4a25243f4d7d4fcf,17.07157853,16.68557569,16.67923077,16.67988101,16.68015247,16.68015247,,,,,,,,,,,,,,,,,,,,PF,strong,3,,,,,,,,7,1.07871,,,,,,,,,,,,,,,,,,,,,,,,,,,,9,strong,46.40001214,90.39999491,1,0,0,response1disk,4,156,-4.799988627,-5.600006521,1,0,0,rectangle,-4.799988627,-5.600006521,1,0,0,4,0,0.000515,-4.799988627,-5.600006521,1,0,0,0,155,155,60,1,0,,,,,,,,,,,,,,,,,,,,,
,,,,,,,,,,,,,,,,,,,,,,,,,,,,,,,,,,,,,,,,,,5e9db6b85484b70db14166bd,606c11c260cc8f86e2668cab,2021-04-06_09h48.19.010,Colour_Similarity_Experiment,2020.2.10,Win32,60,6067542a4a25243f4d7d4fcf,17.07157853,16.68557569,16.67923077,16.67988101,16.68015247,16.68015247,,,,,,,,,,,,,,,,,,,,PF,strong,3,,,,,,,,3,2.29698,,,,,,,,,,,,,,,,,,,,,,,,,,,,4,strong,-55.99998939,-100.8000079,1,0,0,response5disk,6,157,9.600060415,-4.800006509,1,0,0,rectangle,9.600060415,-4.800006509,1,0,0,4,7,0.00059,9.600060415,-4.800006509,1,0,0,0,156,156,122,1,0,,,,,,,,,,,,,,,,,,,,,
,,,,,,,,,,,,,,,,,,,,,,,,,,,,,,,,,,,,,,,,,,5e9db6b85484b70db14166bd,606c11c260cc8f86e2668cab,2021-04-06_09h48.19.010,Colour_Similarity_Experiment,2020.2.10,Win32,60,6067542a4a25243f4d7d4fcf,17.07157853,16.68557569,16.67923077,16.67988101,16.68015247,16.68015247,,,,,,,,,,,,,,,,,,,,PF,strong,3,,,,,,,,2,2.01236,,,,,,,,,,,,,,,,,,,,,,,,,,,,9,strong,-95.19998997,-51.2000072,1,0,0,response5disk,7,158,2.40001148,-8.800006568,1,0,0,rectangle,2.40001148,-8.800006568,1,0,0,4,5,0.000565,2.40001148,-8.800006568,1,0,0,0,157,157,100,1,0,,,,,,,,,,,,,,,,,,,,,
,,,,,,,,,,,,,,,,,,,,,,,,,,,,,,,,,,,,,,,,,,5e9db6b85484b70db14166bd,606c11c260cc8f86e2668cab,2021-04-06_09h48.19.010,Colour_Similarity_Experiment,2020.2.10,Win32,60,6067542a4a25243f4d7d4fcf,17.07157853,16.68557569,16.67923077,16.67988101,16.68015247,16.68015247,,,,,,,,,,,,,,,,,,,,PF,weak,3,,,,,,,,6,1.062195,,,,,,,,,,,,,,,,,,,,,,,,,,,,2,weak,91.2000128,39.19996973,1,0,0,response1disk,5,159,15.20001167,-3.200006485,1,0,0,rectangle,15.20001167,-3.200006485,1,0,0,4,1,0.00047,15.20001167,-3.200006485,1,0,0,0,158,158,147,1,0,,,,,,,,,,,,,,,,,,,,,
,,,,,,,,,,,,,,,,,,,,,,,,,,,,,,,,,,,,,,,,,,5e9db6b85484b70db14166bd,606c11c260cc8f86e2668cab,2021-04-06_09h48.19.010,Colour_Similarity_Experiment,2020.2.10,Win32,60,6067542a4a25243f4d7d4fcf,17.07157853,16.68557569,16.67923077,16.67988101,16.68015247,16.68015247,,,,,,,,,,,,,,,,,,,,PF,strong,3,,,,,,,,7,1.128525,,,,,,,,,,,,,,,,,,,,,,,,,,,,4,strong,35.20001197,86.39999485,1,0,0,response1disk,1,160,16.00001168,-8.800006568,1,0,0,rectangle,16.00001168,-8.800006568,1,0,0,4,7,0.000495,16.00001168,-8.800006568,1,0,0,0,159,159,102,1,0,,,,,,,,,,,,,,,,,,,,,
,,,,,,,,,,,,,,,,,,,,,,,,,,,,,,,,,,,,,,,,,,5e9db6b85484b70db14166bd,606c11c260cc8f86e2668cab,2021-04-06_09h48.19.010,Colour_Similarity_Experiment,2020.2.10,Win32,60,6067542a4a25243f4d7d4fcf,17.07157853,16.68557569,16.67923077,16.67988101,16.68015247,16.68015247,,,,,,,,,,,,,,,,,,,,PF,weak,3,,,,,,,,3,2.34655,,,,,,,,,,,,,,,,,,,,,,,,,,,,6,weak,-35.19998908,-108.000008,1,0,0,response5disk,4,161,3.200011492,7.999993682,1,0,0,rectangle,3.200011492,7.999993682,1,0,0,4,3,0.000515,3.200011492,7.999993682,1,0,0,0,160,160,33,1,0,,,,,,,,,,,,,,,,,,,,,
,,,,,,,,,,,,,,,,,,,,,,,,,,,,,,,,,,,,,,,,,,5e9db6b85484b70db14166bd,606c11c260cc8f86e2668cab,2021-04-06_09h48.19.010,Colour_Similarity_Experiment,2020.2.10,Win32,60,6067542a4a25243f4d7d4fcf,17.07157853,16.68557569,16.67923077,16.67988101,16.68015247,16.68015247,,,,,,,,,,,,,,,,,,,,PF,strong,3,,,,,,,,2,2.196175,,,,,,,,,,,,,,,,,,,,,,,,,,,,8,strong,-95.19998997,-36.00000697,1,0,0,response5disk,1,162,-5.599988639,-5.600006521,1,0,0,rectangle,-5.599988639,-5.600006521,1,0,0,4,1,0.00046,-5.599988639,-5.600006521,1,0,0,0,161,161,20,1,0,,,,,,,,,,,,,,,,,,,,,
,,,,,,,,,,,,,,,,,,,,,,,,,,,,,,,,,,,,,,,,,,5e9db6b85484b70db14166bd,606c11c260cc8f86e2668cab,2021-04-06_09h48.19.010,Colour_Similarity_Experiment,2020.2.10,Win32,60,6067542a4a25243f4d7d4fcf,17.07157853,16.68557569,16.67923077,16.67988101,16.68015247,16.68015247,,,,,,,,,,,,,,,,,,,,,,,,,,,,,,,,,,,,,,,,,,,,,,,,,,,,,,,,,,,,,,,,,,,,,,,,,,,,,,,,,,,,,,,,,,,,,,,,0,0,0,0,1,,,,,,,,,,,,,,
,,,,,,,,,,,,,,,,,,,,,,,,,,,,,,,,,,,,,,,,,,5e9db6b85484b70db14166bd,606c11c260cc8f86e2668cab,2021-04-06_09h48.19.010,Colour_Similarity_Experiment,2020.2.10,Win32,60,6067542a4a25243f4d7d4fcf,17.07157853,16.68557569,16.67923077,16.67988101,16.68015247,16.68015247,,,,,,,,,,,,,,,,,,,,PF,strong,3,,,,,,,,4,2.234895,,,,,,,,,,,,,,,,,,,,,,,,,,,,2,strong,68.80001247,-109.6000569,1,0,0,response3disk,9,163,1.600060296,0.799993575,1,0,0,rectangle,1.600060296,0.799993575,1,0,0,4,7,0.00061,1.600060296,0.799993575,1,0,0,0,0,0,72,1,0,,,,,,,,,,,,,,,,,,,,,
,,,,,,,,,,,,,,,,,,,,,,,,,,,,,,,,,,,,,,,,,,5e9db6b85484b70db14166bd,606c11c260cc8f86e2668cab,2021-04-06_09h48.19.010,Colour_Similarity_Experiment,2020.2.10,Win32,60,6067542a4a25243f4d7d4fcf,17.07157853,16.68557569,16.67923077,16.67988101,16.68015247,16.68015247,,,,,,,,,,,,,,,,,,,,PF,strong,3,,,,,,,,3,1.6679,,,,,,,,,,,,,,,,,,,,,,,,,,,,9,strong,-39.19998914,-94.40000784,1,0,0,response5disk,5,164,6.400011539,-1.600006461,1,0,0,rectangle,6.400011539,-1.600006461,1,0,0,4,5,0.000615,6.400011539,-1.600006461,1,0,0,0,1,1,128,1,0,,,,,,,,,,,,,,,,,,,,,
,,,,,,,,,,,,,,,,,,,,,,,,,,,,,,,,,,,,,,,,,,5e9db6b85484b70db14166bd,606c11c260cc8f86e2668cab,2021-04-06_09h48.19.010,Colour_Similarity_Experiment,2020.2.10,Win32,60,6067542a4a25243f4d7d4fcf,17.07157853,16.68557569,16.67923077,16.67988101,16.68015247,16.68015247,,,,,,,,,,,,,,,,,,,,PF,strong,3,,,,,,,,5,1.484515,,,,,,,,,,,,,,,,,,,,,,,,,,,,6,strong,71.20001251,-41.60000706,1,0,0,response3disk,2,165,6.400011539,-6.400006533,1,0,0,rectangle,6.400011539,-6.400006533,1,0,0,4,7,0.00046,6.400011539,-6.400006533,1,0,0,0,2,2,112,1,0,,,,,,,,,,,,,,,,,,,,,
,,,,,,,,,,,,,,,,,,,,,,,,,,,,,,,,,,,,,,,,,,5e9db6b85484b70db14166bd,606c11c260cc8f86e2668cab,2021-04-06_09h48.19.010,Colour_Similarity_Experiment,2020.2.10,Win32,60,6067542a4a25243f4d7d4fcf,17.07157853,16.68557569,16.67923077,16.67988101,16.68015247,16.68015247,,,,,,,,,,,,,,,,,,,,PF,weak,3,,,,,,,,3,1.484815,,,,,,,,,,,,,,,,,,,,,,,,,,,,6,weak,-49.5999893,-105.6000568,1,0,0,response5disk,8,166,-3.199988604,-6.400006533,1,0,0,rectangle,-3.199988604,-6.400006533,1,0,0,4,5,0.000605,-3.199988604,-6.400006533,1,0,0,0,3,3,64,1,0,,,,,,,,,,,,,,,,,,,,,
