key_resp.keys,key_resp.rt,key_resp_16.keys,key_resp_16.rt,key_resp_2.keys,key_resp_2.rt,X Scale,ratio_pxpermm,screen_size_x,screen_size_y,testsize,key_resp_3.keys,key_resp_4.keys,key_resp_4.rt,line_size,key_resp_5.keys,key_resp_5.rt,key_resp_6.keys,key_resp_6.rt,key_resp_8.keys,key_resp_8.rt,key_resp_7.keys,key_resp_7.rt,key_resp_12.keys,key_resp_12.rt,key_resp_11.keys,key_resp_11.rt,key_resp_18.keys,key_resp_18.rt,key_resp_21.keys,key_resp_21.rt,key_resp_13.keys,key_resp_13.rt,key_resp_19.keys,key_resp_19.rt,ballposx,viewer_distance,trials.thisRepN,trials.thisTrialN,trials.thisN,trials.thisIndex,trials.ran,participant,session,date,expName,psychopyVersion,OS,frameRate,study_id,realFrameRate1,realFrameRate2,realFrameRate3,realFrameRate4,realFrameRate5,realFrameRate,viewerdistancecm,DVA_to_distance,radius_F,radius_P,r_F,R_P,key_resp_20.keys,key_resp_20.rt,key_resp_14.keys,key_resp_14.rt,key_resp_15.keys,key_resp_15.rt,key_resp_17.keys,key_resp_17.rt,key_resp_9.keys,key_resp_9.rt,key_resp_10.keys,key_resp_10.rt,Colour_1,Ecc,maskCon,mask_frames,mouse_5.x,mouse_5.y,mouse_5.leftButton,mouse_5.midButton,mouse_5.rightButton,mouse_5.clicked_name,Colour_2,similarity,response_time,mouse_10.x,mouse_10.y,mouse_10.leftButton,mouse_10.midButton,mouse_10.rightButton,mouse_10.clicked_name,mouse_7.x,mouse_7.y,mouse_7.leftButton,mouse_7.midButton,mouse_7.rightButton,catchnumberprac,mouse_6.x,mouse_6.y,mouse_6.leftButton,mouse_6.midButton,mouse_6.rightButton,duringprac.thisRepN,duringprac.thisTrialN,duringprac.thisN,duringprac.thisIndex,duringprac.ran,mouse_7.clicked_name,catchprac,mouse_6.clicked_name,key_resp_22.keys,key_resp_22.rt,Colour1,maskCon1,mouse.x,mouse.y,mouse.leftButton,mouse.midButton,mouse.rightButton,mouse.clicked_name,Colour2,trialnumber,mouse_2.x,mouse_2.y,mouse_2.leftButton,mouse_2.midButton,mouse_2.rightButton,mouse_2.clicked_name,mouse_3.x,mouse_3.y,mouse_3.leftButton,mouse_3.midButton,mouse_3.rightButton,catchresponse,catchnumber,response_time_catch,mouse_11.x,mouse_11.y,mouse_11.leftButton,mouse_11.midButton,mouse_11.rightButton,trials_2.thisRepN,trials_2.thisTrialN,trials_2.thisN,trials_2.thisIndex,trials_2.ran,Catch,mouse_3.clicked_name,mouse_11.clicked_name,trials_3.thisRepN,trials_3.thisTrialN,trials_3.thisN,trials_3.thisIndex,trials_3.ran,answer1,rt1,answer2,rt2,answer3,rt3,answer4,rt4,answer5,rt5,answer6,rt6,answer7,rt7
space,1.869745,space,8.817435,space,5.318215,40.7,4.07,471.7444717,265.3562654,1920,,space,12.459305,81.4,space,10.06747,space,6.23387,space,1.47064,space,4.21069,space,8.184595,space,7.969275,space,13.61823,space,9.069795,space,19.183355,return,3.869085,46.08,738.8241587,0,0,0,0,1,5ed7a7a467a98224295459ff,606cad28fd1999412342b5c2,2021-04-06_19h49.24.718,Colour_Similarity_Experiment,2020.2.10,Win32,60,6067542a4a25243f4d7d4fcf,16.94127706,16.68299057,16.69797727,16.66593333,16.66549519,16.68299057,,,,,,,,,,,,,,,,,,,,,,,,,,,,,,,,,,,,,,,,,,,,,,,,,,,,,,,,,,,,,,,,,,,,,,,,,,,,,,,,,,,,,,,,,,,,,,,,,,,,,,,,,,,,,,,,,,
,,,,,,,,,,,,,,,,,,,,,,,,,,,,,,,,,return,3.8001,60.48,724.0869747,1,0,1,0,1,5ed7a7a467a98224295459ff,606cad28fd1999412342b5c2,2021-04-06_19h49.24.718,Colour_Similarity_Experiment,2020.2.10,Win32,60,6067542a4a25243f4d7d4fcf,16.94127706,16.68299057,16.69797727,16.66593333,16.66549519,16.68299057,,,,,,,,,,,,,,,,,,,,,,,,,,,,,,,,,,,,,,,,,,,,,,,,,,,,,,,,,,,,,,,,,,,,,,,,,,,,,,,,,,,,,,,,,,,,,,,,,,,,,,,,,,,,,,,,,,
,,,,,,,,,,,,,,,,,,,,,,,,,,,,,,,,,return,3.835615,51.84,732.9292851,2,0,2,0,1,5ed7a7a467a98224295459ff,606cad28fd1999412342b5c2,2021-04-06_19h49.24.718,Colour_Similarity_Experiment,2020.2.10,Win32,60,6067542a4a25243f4d7d4fcf,16.94127706,16.68299057,16.69797727,16.66593333,16.66549519,16.68299057,,,,,,,,,,,,,,,,,,,,,,,,,,,,,,,,,,,,,,,,,,,,,,,,,,,,,,,,,,,,,,,,,,,,,,,,,,,,,,,,,,,,,,,,,,,,,,,,,,,,,,,,,,,,,,,,,,
,,,,,,,,,,,,,,,,,,,,,,,,,,,,,,,,,return,3.7498,69.12,715.2446643,3,0,3,0,1,5ed7a7a467a98224295459ff,606cad28fd1999412342b5c2,2021-04-06_19h49.24.718,Colour_Similarity_Experiment,2020.2.10,Win32,60,6067542a4a25243f4d7d4fcf,16.94127706,16.68299057,16.69797727,16.66593333,16.66549519,16.68299057,,,,,,,,,,,,,,,,,,,,,,,,,,,,,,,,,,,,,,,,,,,,,,,,,,,,,,,,,,,,,,,,,,,,,,,,,,,,,,,,,,,,,,,,,,,,,,,,,,,,,,,,,,,,,,,,,,
,,,,,,,,,,,,,,,,,,,,,,,,,,,,,,,,,return,3.81084,57.6,727.0344115,4,0,4,0,1,5ed7a7a467a98224295459ff,606cad28fd1999412342b5c2,2021-04-06_19h49.24.718,Colour_Similarity_Experiment,2020.2.10,Win32,60,6067542a4a25243f4d7d4fcf,16.94127706,16.68299057,16.69797727,16.66593333,16.66549519,16.68299057,,,,,,,,,,,,,,,,,,,,,,,,,,,,,,,,,,,,,,,,,,,,,,,,,,,,,,,,,,,,,,,,,,,,,,,,,,,,,,,,,,,,,,,,,,,,,,,,,,,,,,,,,,,,,,,,,,
,,,,,,,,,,,,,,,,,,,,,,,,,,,,,,,,,,,,,,,,,,5ed7a7a467a98224295459ff,606cad28fd1999412342b5c2,2021-04-06_19h49.24.718,Colour_Similarity_Experiment,2020.2.10,Win32,60,6067542a4a25243f4d7d4fcf,16.94127706,16.68299057,16.69797727,16.66593333,16.66549519,16.68299057,73,12.74219284,77.79108729,518.6072486,51.86072486,233.3732619,space,6.041575,space,73.11789,space,48.748465,space,5.912535,space,2.32172,space,4.78836,1,PF,strong,3,-89,-45,1,0,0,response5disk_5,8,2,16.74859,-4,8,1,0,0,rectangle_8,-4,8,1,0,0,5,-4,8,1,0,0,0,0,0,2,1,,,,,,,,,,,,,,,,,,,,,,,,,,,,,,,,,,,,,,,,,,,,,,,,,,,,,,,,,,,,,
,,,,,,,,,,,,,,,,,,,,,,,,,,,,,,,,,,,,,,,,,,5ed7a7a467a98224295459ff,606cad28fd1999412342b5c2,2021-04-06_19h49.24.718,Colour_Similarity_Experiment,2020.2.10,Win32,60,6067542a4a25243f4d7d4fcf,16.94127706,16.68299057,16.69797727,16.66593333,16.66549519,16.68299057,,,,,,,,,,,,,,,,,,,4,PF,strong,3,60,-111,1,0,0,response3disk_5,8,4,4.27688,7,-5,1,0,0,rectangle_8,7,-5,1,0,0,5,7,-5,1,0,0,0,1,1,3,1,,,,,,,,,,,,,,,,,,,,,,,,,,,,,,,,,,,,,,,,,,,,,,,,,,,,,,,,,,,,,
,,,,,,,,,,,,,,,,,,,,,,,,,,,,,,,,,,,,,,,,,,5ed7a7a467a98224295459ff,606cad28fd1999412342b5c2,2021-04-06_19h49.24.718,Colour_Similarity_Experiment,2020.2.10,Win32,60,6067542a4a25243f4d7d4fcf,16.94127706,16.68299057,16.69797727,16.66593333,16.66549519,16.68299057,,,,,,,,,,,,,,,,,,,5,PF,weak,3,-53,-105,1,0,0,response5disk_5,1,3,5.54217,-9,-9,1,0,0,rectangle_8,127,-77,1,0,0,5,1,4,1,0,0,0,2,2,4,1,response3disk_7,5,rectangle_4,,,,,,,,,,,,,,,,,,,,,,,,,,,,,,,,,,,,,,,,,,,,,,,,,,,,,,,,,,
,,,,,,,,,,,,,,,,,,,,,,,,,,,,,,,,,,,,,,,,,,5ed7a7a467a98224295459ff,606cad28fd1999412342b5c2,2021-04-06_19h49.24.718,Colour_Similarity_Experiment,2020.2.10,Win32,60,6067542a4a25243f4d7d4fcf,16.94127706,16.68299057,16.69797727,16.66593333,16.66549519,16.68299057,,,,,,,,,,,,,,,,,,,2,PF,strong,3,125,-43,1,0,0,response3disk_5,7,5,4.71549,20,9,1,0,0,rectangle_8,20,9,1,0,0,5,20,9,1,0,0,0,3,3,0,1,,,,,,,,,,,,,,,,,,,,,,,,,,,,,,,,,,,,,,,,,,,,,,,,,,,,,,,,,,,,,
,,,,,,,,,,,,,,,,,,,,,,,,,,,,,,,,,,,,,,,,,,5ed7a7a467a98224295459ff,606cad28fd1999412342b5c2,2021-04-06_19h49.24.718,Colour_Similarity_Experiment,2020.2.10,Win32,60,6067542a4a25243f4d7d4fcf,16.94127706,16.68299057,16.69797727,16.66593333,16.66549519,16.68299057,,,,,,,,,,,,,,,,,,,6,PF,weak,3,131,40,1,0,0,response1disk_5,4,6,5.95788,8,-3,1,0,0,rectangle_8,8,-3,1,0,0,5,8,-3,1,0,0,0,4,4,6,1,,,,,,,,,,,,,,,,,,,,,,,,,,,,,,,,,,,,,,,,,,,,,,,,,,,,,,,,,,,,,
,,,,,,,,,,,,,,,,,,,,,,,,,,,,,,,,,,,,,,,,,,5ed7a7a467a98224295459ff,606cad28fd1999412342b5c2,2021-04-06_19h49.24.718,Colour_Similarity_Experiment,2020.2.10,Win32,60,6067542a4a25243f4d7d4fcf,16.94127706,16.68299057,16.69797727,16.66593333,16.66549519,16.68299057,,,,,,,,,,,,,,,,,,,8,PF,weak,3,-52,105,1,0,0,response7disk_5,8,0,2.41645,-13,1,1,0,0,rectangle_8,115,-72,1,0,0,5,-4,3,1,0,0,0,5,5,5,1,response3disk_7,5,rectangle_4,,,,,,,,,,,,,,,,,,,,,,,,,,,,,,,,,,,,,,,,,,,,,,,,,,,,,,,,,,
,,,,,,,,,,,,,,,,,,,,,,,,,,,,,,,,,,,,,,,,,,5ed7a7a467a98224295459ff,606cad28fd1999412342b5c2,2021-04-06_19h49.24.718,Colour_Similarity_Experiment,2020.2.10,Win32,60,6067542a4a25243f4d7d4fcf,16.94127706,16.68299057,16.69797727,16.66593333,16.66549519,16.68299057,,,,,,,,,,,,,,,,,,,3,PF,weak,3,79,105,1,0,0,response1disk_5,8,7,1.883995,12,-10,1,0,0,rectangle_8,12,-10,1,0,0,5,12,-10,1,0,0,0,6,6,1,1,,,,,,,,,,,,,,,,,,,,,,,,,,,,,,,,,,,,,,,,,,,,,,,,,,,,,,,,,,,,,
,,,,,,,,,,,,,,,,,,,,,,,,,,,,,,,,,,,,,,,,,,5ed7a7a467a98224295459ff,606cad28fd1999412342b5c2,2021-04-06_19h49.24.718,Colour_Similarity_Experiment,2020.2.10,Win32,60,6067542a4a25243f4d7d4fcf,16.94127706,16.68299057,16.69797727,16.66593333,16.66549519,16.68299057,,,,,,,,,,,,,,,,,,,,PF,weak,3,,,,,,,,7,2.71423,,,,,,,,,,,,,,,,,,,,,,,,,,space,3.51629,3,weak,46,96,1,0,0,response1disk,7,1,-3,-12,1,0,0,rectangle,-3,-12,1,0,0,,7,0.00126,-3,-12,1,0,0,0,0,0,41,1,0,,,,,,,,,,,,,,,,,,,,,
,,,,,,,,,,,,,,,,,,,,,,,,,,,,,,,,,,,,,,,,,,5ed7a7a467a98224295459ff,606cad28fd1999412342b5c2,2021-04-06_19h49.24.718,Colour_Similarity_Experiment,2020.2.10,Win32,60,6067542a4a25243f4d7d4fcf,16.94127706,16.68299057,16.69797727,16.66593333,16.66549519,16.68299057,,,,,,,,,,,,,,,,,,,,PF,strong,3,,,,,,,,5,3.291965,,,,,,,,,,,,,,,,,,,,,,,,,,,,7,strong,110,-67,1,0,0,response3disk,3,2,-13,3,1,0,0,rectangle,-13,3,1,0,0,,4,0.000745,-13,3,1,0,0,0,1,1,73,1,0,,,,,,,,,,,,,,,,,,,,,
,,,,,,,,,,,,,,,,,,,,,,,,,,,,,,,,,,,,,,,,,,5ed7a7a467a98224295459ff,606cad28fd1999412342b5c2,2021-04-06_19h49.24.718,Colour_Similarity_Experiment,2020.2.10,Win32,60,6067542a4a25243f4d7d4fcf,16.94127706,16.68299057,16.69797727,16.66593333,16.66549519,16.68299057,,,,,,,,,,,,,,,,,,,,PF,weak,3,,,,,,,,4,2.54074,,,,,,,,,,,,,,,,,,,,,,,,,,,,2,weak,77,-109,1,0,0,response3disk,1,3,-9,-1,1,0,0,rectangle,-9,-1,1,0,0,,2,0.00067,-9,-1,1,0,0,0,2,2,9,1,0,,,,,,,,,,,,,,,,,,,,,
,,,,,,,,,,,,,,,,,,,,,,,,,,,,,,,,,,,,,,,,,,5ed7a7a467a98224295459ff,606cad28fd1999412342b5c2,2021-04-06_19h49.24.718,Colour_Similarity_Experiment,2020.2.10,Win32,60,6067542a4a25243f4d7d4fcf,16.94127706,16.68299057,16.69797727,16.66593333,16.66549519,16.68299057,,,,,,,,,,,,,,,,,,,,PF,strong,3,,,,,,,,6,5.193825,,,,,,,,,,,,,,,,,,,,,,,,,,,,1,strong,110,28,1,0,0,response1disk,5,4,-12,-9,1,0,0,rectangle,-12,-9,1,0,0,,2,0.000105,-12,-9,1,0,0,0,3,3,82,1,0,,,,,,,,,,,,,,,,,,,,,
,,,,,,,,,,,,,,,,,,,,,,,,,,,,,,,,,,,,,,,,,,5ed7a7a467a98224295459ff,606cad28fd1999412342b5c2,2021-04-06_19h49.24.718,Colour_Similarity_Experiment,2020.2.10,Win32,60,6067542a4a25243f4d7d4fcf,16.94127706,16.68299057,16.69797727,16.66593333,16.66549519,16.68299057,,,,,,,,,,,,,,,,,,,,PF,strong,3,,,,,,,,3,2.24942,,,,,,,,,,,,,,,,,,,,,,,,,,,,6,strong,-29,-117,1,0,0,response5disk,6,5,9,-2,1,0,0,rectangle,9,-2,1,0,0,,0,0.000705,9,-2,1,0,0,0,4,4,91,1,0,,,,,,,,,,,,,,,,,,,,,
,,,,,,,,,,,,,,,,,,,,,,,,,,,,,,,,,,,,,,,,,,5ed7a7a467a98224295459ff,606cad28fd1999412342b5c2,2021-04-06_19h49.24.718,Colour_Similarity_Experiment,2020.2.10,Win32,60,6067542a4a25243f4d7d4fcf,16.94127706,16.68299057,16.69797727,16.66593333,16.66549519,16.68299057,,,,,,,,,,,,,,,,,,,,PF,weak,3,,,,,,,,6,2.716585,,,,,,,,,,,,,,,,,,,,,,,,,,,,6,weak,113,60,1,0,0,response1disk,9,6,1,-2,1,0,0,rectangle,1,-2,1,0,0,,1,0.0009,1,-2,1,0,0,0,5,5,45,1,0,,,,,,,,,,,,,,,,,,,,,
,,,,,,,,,,,,,,,,,,,,,,,,,,,,,,,,,,,,,,,,,,5ed7a7a467a98224295459ff,606cad28fd1999412342b5c2,2021-04-06_19h49.24.718,Colour_Similarity_Experiment,2020.2.10,Win32,60,6067542a4a25243f4d7d4fcf,16.94127706,16.68299057,16.69797727,16.66593333,16.66549519,16.68299057,,,,,,,,,,,,,,,,,,,,PF,weak,3,,,,,,,,3,3.57593,,,,,,,,,,,,,,,,,,,,,,,,,,,,1,weak,-44,-131,1,0,0,response5disk,1,7,6,-6,1,0,0,rectangle,-62,131,1,0,0,0,0,3.56775,3,-4,1,0,0,0,6,6,76,1,1,response7disk_3,rectangle,,,,,,,,,,,,,,,,,,,
,,,,,,,,,,,,,,,,,,,,,,,,,,,,,,,,,,,,,,,,,,5ed7a7a467a98224295459ff,606cad28fd1999412342b5c2,2021-04-06_19h49.24.718,Colour_Similarity_Experiment,2020.2.10,Win32,60,6067542a4a25243f4d7d4fcf,16.94127706,16.68299057,16.69797727,16.66593333,16.66549519,16.68299057,,,,,,,,,,,,,,,,,,,,PF,weak,3,,,,,,,,2,3.11614,,,,,,,,,,,,,,,,,,,,,,,,,,,,3,weak,-96,-57,1,0,0,response5disk,2,8,-1,5,1,0,0,rectangle,127,-64,1,0,0,5,5,1.80022,-16,-5,1,0,0,0,7,7,36,1,1,response3disk_3,rectangle,,,,,,,,,,,,,,,,,,,
,,,,,,,,,,,,,,,,,,,,,,,,,,,,,,,,,,,,,,,,,,5ed7a7a467a98224295459ff,606cad28fd1999412342b5c2,2021-04-06_19h49.24.718,Colour_Similarity_Experiment,2020.2.10,Win32,60,6067542a4a25243f4d7d4fcf,16.94127706,16.68299057,16.69797727,16.66593333,16.66549519,16.68299057,,,,,,,,,,,,,,,,,,,,PF,weak,3,,,,,,,,5,2.02425,,,,,,,,,,,,,,,,,,,,,,,,,,,,7,weak,78,-57,1,0,0,response3disk,4,9,-5,-4,1,0,0,rectangle,-5,-4,1,0,0,5,1,0.000805,-5,-4,1,0,0,0,8,8,43,1,0,,,,,,,,,,,,,,,,,,,,,
,,,,,,,,,,,,,,,,,,,,,,,,,,,,,,,,,,,,,,,,,,5ed7a7a467a98224295459ff,606cad28fd1999412342b5c2,2021-04-06_19h49.24.718,Colour_Similarity_Experiment,2020.2.10,Win32,60,6067542a4a25243f4d7d4fcf,16.94127706,16.68299057,16.69797727,16.66593333,16.66549519,16.68299057,,,,,,,,,,,,,,,,,,,,PF,weak,3,,,,,,,,6,2.6002,,,,,,,,,,,,,,,,,,,,,,,,,,,,3,weak,97,24,1,0,0,response1disk,9,10,-9,-8,1,0,0,rectangle,-9,-8,1,0,0,5,3,0.000815,-9,-8,1,0,0,0,9,9,79,1,0,,,,,,,,,,,,,,,,,,,,,
,,,,,,,,,,,,,,,,,,,,,,,,,,,,,,,,,,,,,,,,,,5ed7a7a467a98224295459ff,606cad28fd1999412342b5c2,2021-04-06_19h49.24.718,Colour_Similarity_Experiment,2020.2.10,Win32,60,6067542a4a25243f4d7d4fcf,16.94127706,16.68299057,16.69797727,16.66593333,16.66549519,16.68299057,,,,,,,,,,,,,,,,,,,,PF,weak,3,,,,,,,,2,1.90058,,,,,,,,,,,,,,,,,,,,,,,,,,,,4,weak,-88,-64,1,0,0,response5disk,3,11,8,-2,1,0,0,rectangle,8,-2,1,0,0,5,0,0.0007,8,-2,1,0,0,0,10,10,89,1,0,,,,,,,,,,,,,,,,,,,,,
,,,,,,,,,,,,,,,,,,,,,,,,,,,,,,,,,,,,,,,,,,5ed7a7a467a98224295459ff,606cad28fd1999412342b5c2,2021-04-06_19h49.24.718,Colour_Similarity_Experiment,2020.2.10,Win32,60,6067542a4a25243f4d7d4fcf,16.94127706,16.68299057,16.69797727,16.66593333,16.66549519,16.68299057,,,,,,,,,,,,,,,,,,,,PF,strong,3,,,,,,,,6,3.125095,,,,,,,,,,,,,,,,,,,,,,,,,,,,8,strong,104,34,1,0,0,response1disk,5,12,-15,-4,1,0,0,rectangle,-15,-4,1,0,0,5,1,0.00075,-15,-4,1,0,0,0,11,11,152,1,0,,,,,,,,,,,,,,,,,,,,,
,,,,,,,,,,,,,,,,,,,,,,,,,,,,,,,,,,,,,,,,,,5ed7a7a467a98224295459ff,606cad28fd1999412342b5c2,2021-04-06_19h49.24.718,Colour_Similarity_Experiment,2020.2.10,Win32,60,6067542a4a25243f4d7d4fcf,16.94127706,16.68299057,16.69797727,16.66593333,16.66549519,16.68299057,,,,,,,,,,,,,,,,,,,,PF,weak,3,,,,,,,,7,2.50868,,,,,,,,,,,,,,,,,,,,,,,,,,,,9,weak,61,105,1,0,0,response1disk,6,13,-4,-6,1,0,0,rectangle,-4,-6,1,0,0,5,7,0.0007,-4,-6,1,0,0,0,12,12,148,1,0,,,,,,,,,,,,,,,,,,,,,
,,,,,,,,,,,,,,,,,,,,,,,,,,,,,,,,,,,,,,,,,,5ed7a7a467a98224295459ff,606cad28fd1999412342b5c2,2021-04-06_19h49.24.718,Colour_Similarity_Experiment,2020.2.10,Win32,60,6067542a4a25243f4d7d4fcf,16.94127706,16.68299057,16.69797727,16.66593333,16.66549519,16.68299057,,,,,,,,,,,,,,,,,,,,PF,strong,3,,,,,,,,1,1.899845,,,,,,,,,,,,,,,,,,,,,,,,,,,,5,strong,-92,41,1,0,0,response7disk,5,14,-3,5,1,0,0,rectangle,-3,5,1,0,0,5,6,0.00064,-3,5,1,0,0,0,13,13,19,1,0,,,,,,,,,,,,,,,,,,,,,
,,,,,,,,,,,,,,,,,,,,,,,,,,,,,,,,,,,,,,,,,,5ed7a7a467a98224295459ff,606cad28fd1999412342b5c2,2021-04-06_19h49.24.718,Colour_Similarity_Experiment,2020.2.10,Win32,60,6067542a4a25243f4d7d4fcf,16.94127706,16.68299057,16.69797727,16.66593333,16.66549519,16.68299057,,,,,,,,,,,,,,,,,,,,PF,weak,3,,,,,,,,2,2.04283,,,,,,,,,,,,,,,,,,,,,,,,,,,,7,weak,-82,-44,1,0,0,response5disk,6,15,2,-3,1,0,0,rectangle,2,-3,1,0,0,5,3,0.00075,2,-3,1,0,0,0,14,14,29,1,0,,,,,,,,,,,,,,,,,,,,,
,,,,,,,,,,,,,,,,,,,,,,,,,,,,,,,,,,,,,,,,,,5ed7a7a467a98224295459ff,606cad28fd1999412342b5c2,2021-04-06_19h49.24.718,Colour_Similarity_Experiment,2020.2.10,Win32,60,6067542a4a25243f4d7d4fcf,16.94127706,16.68299057,16.69797727,16.66593333,16.66549519,16.68299057,,,,,,,,,,,,,,,,,,,,PF,strong,3,,,,,,,,6,2.000235,,,,,,,,,,,,,,,,,,,,,,,,,,,,8,strong,102,41,1,0,0,response1disk,3,16,-6,-9,1,0,0,rectangle,-6,-9,1,0,0,5,3,0.00018,-6,-9,1,0,0,0,15,15,154,1,0,,,,,,,,,,,,,,,,,,,,,
,,,,,,,,,,,,,,,,,,,,,,,,,,,,,,,,,,,,,,,,,,5ed7a7a467a98224295459ff,606cad28fd1999412342b5c2,2021-04-06_19h49.24.718,Colour_Similarity_Experiment,2020.2.10,Win32,60,6067542a4a25243f4d7d4fcf,16.94127706,16.68299057,16.69797727,16.66593333,16.66549519,16.68299057,,,,,,,,,,,,,,,,,,,,PF,strong,3,,,,,,,,5,2.20051,,,,,,,,,,,,,,,,,,,,,,,,,,,,2,strong,129,-71,1,0,0,response3disk,5,17,2,3,1,0,0,rectangle,2,3,1,0,0,5,5,0.0009,2,3,1,0,0,0,16,16,80,1,0,,,,,,,,,,,,,,,,,,,,,
,,,,,,,,,,,,,,,,,,,,,,,,,,,,,,,,,,,,,,,,,,5ed7a7a467a98224295459ff,606cad28fd1999412342b5c2,2021-04-06_19h49.24.718,Colour_Similarity_Experiment,2020.2.10,Win32,60,6067542a4a25243f4d7d4fcf,16.94127706,16.68299057,16.69797727,16.66593333,16.66549519,16.68299057,,,,,,,,,,,,,,,,,,,,PF,strong,3,,,,,,,,5,2.092075,,,,,,,,,,,,,,,,,,,,,,,,,,,,4,strong,91,-53,1,0,0,response3disk,2,18,-8,2,1,0,0,rectangle,-8,2,1,0,0,5,0,0.0007,-8,2,1,0,0,0,17,17,13,1,0,,,,,,,,,,,,,,,,,,,,,
,,,,,,,,,,,,,,,,,,,,,,,,,,,,,,,,,,,,,,,,,,5ed7a7a467a98224295459ff,606cad28fd1999412342b5c2,2021-04-06_19h49.24.718,Colour_Similarity_Experiment,2020.2.10,Win32,60,6067542a4a25243f4d7d4fcf,16.94127706,16.68299057,16.69797727,16.66593333,16.66549519,16.68299057,,,,,,,,,,,,,,,,,,,,PF,weak,3,,,,,,,,4,2.408155,,,,,,,,,,,,,,,,,,,,,,,,,,,,3,weak,48,-107,1,0,0,response3disk,1,19,0,7,1,0,0,rectangle,0,7,1,0,0,5,4,0.000755,0,7,1,0,0,0,18,18,96,1,0,,,,,,,,,,,,,,,,,,,,,
,,,,,,,,,,,,,,,,,,,,,,,,,,,,,,,,,,,,,,,,,,5ed7a7a467a98224295459ff,606cad28fd1999412342b5c2,2021-04-06_19h49.24.718,Colour_Similarity_Experiment,2020.2.10,Win32,60,6067542a4a25243f4d7d4fcf,16.94127706,16.68299057,16.69797727,16.66593333,16.66549519,16.68299057,,,,,,,,,,,,,,,,,,,,PF,weak,3,,,,,,,,6,1.909685,,,,,,,,,,,,,,,,,,,,,,,,,,,,1,weak,115,63,1,0,0,response1disk,3,20,-1,-6,1,0,0,rectangle,-1,-6,1,0,0,5,6,0.0007,-1,-6,1,0,0,0,19,19,1,1,0,,,,,,,,,,,,,,,,,,,,,
,,,,,,,,,,,,,,,,,,,,,,,,,,,,,,,,,,,,,,,,,,5ed7a7a467a98224295459ff,606cad28fd1999412342b5c2,2021-04-06_19h49.24.718,Colour_Similarity_Experiment,2020.2.10,Win32,60,6067542a4a25243f4d7d4fcf,16.94127706,16.68299057,16.69797727,16.66593333,16.66549519,16.68299057,,,,,,,,,,,,,,,,,,,,PF,strong,3,,,,,,,,5,2.50134,,,,,,,,,,,,,,,,,,,,,,,,,,,,4,strong,99,-44,1,0,0,response3disk,6,21,11,2,1,0,0,rectangle,11,2,1,0,0,5,7,0.00076,11,2,1,0,0,0,20,20,122,1,0,,,,,,,,,,,,,,,,,,,,,
,,,,,,,,,,,,,,,,,,,,,,,,,,,,,,,,,,,,,,,,,,5ed7a7a467a98224295459ff,606cad28fd1999412342b5c2,2021-04-06_19h49.24.718,Colour_Similarity_Experiment,2020.2.10,Win32,60,6067542a4a25243f4d7d4fcf,16.94127706,16.68299057,16.69797727,16.66593333,16.66549519,16.68299057,,,,,,,,,,,,,,,,,,,,PF,weak,3,,,,,,,,6,2.05918,,,,,,,,,,,,,,,,,,,,,,,,,,,,3,weak,113,43,1,0,0,response1disk,8,22,-16,-6,1,0,0,rectangle,-16,-6,1,0,0,5,4,0.000675,-16,-6,1,0,0,0,21,21,3,1,0,,,,,,,,,,,,,,,,,,,,,
,,,,,,,,,,,,,,,,,,,,,,,,,,,,,,,,,,,,,,,,,,5ed7a7a467a98224295459ff,606cad28fd1999412342b5c2,2021-04-06_19h49.24.718,Colour_Similarity_Experiment,2020.2.10,Win32,60,6067542a4a25243f4d7d4fcf,16.94127706,16.68299057,16.69797727,16.66593333,16.66549519,16.68299057,,,,,,,,,,,,,,,,,,,,PF,strong,3,,,,,,,,7,2.47546,,,,,,,,,,,,,,,,,,,,,,,,,,,,2,strong,66,101,1,0,0,response1disk,7,23,4,-3,1,0,0,rectangle,4,-3,1,0,0,5,7,0.0017,4,-3,1,0,0,0,22,22,63,1,0,,,,,,,,,,,,,,,,,,,,,
,,,,,,,,,,,,,,,,,,,,,,,,,,,,,,,,,,,,,,,,,,5ed7a7a467a98224295459ff,606cad28fd1999412342b5c2,2021-04-06_19h49.24.718,Colour_Similarity_Experiment,2020.2.10,Win32,60,6067542a4a25243f4d7d4fcf,16.94127706,16.68299057,16.69797727,16.66593333,16.66549519,16.68299057,,,,,,,,,,,,,,,,,,,,PF,weak,3,,,,,,,,1,2.389835,,,,,,,,,,,,,,,,,,,,,,,,,,,,4,weak,-80,59,1,0,0,response7disk,4,24,5,3,1,0,0,rectangle,5,3,1,0,0,5,7,0.000115,5,3,1,0,0,0,23,23,70,1,0,,,,,,,,,,,,,,,,,,,,,
,,,,,,,,,,,,,,,,,,,,,,,,,,,,,,,,,,,,,,,,,,5ed7a7a467a98224295459ff,606cad28fd1999412342b5c2,2021-04-06_19h49.24.718,Colour_Similarity_Experiment,2020.2.10,Win32,60,6067542a4a25243f4d7d4fcf,16.94127706,16.68299057,16.69797727,16.66593333,16.66549519,16.68299057,,,,,,,,,,,,,,,,,,,,PF,strong,3,,,,,,,,6,1.76368,,,,,,,,,,,,,,,,,,,,,,,,,,,,9,strong,142,36,1,0,0,response1disk,5,25,-4,-6,1,0,0,rectangle,-4,-6,1,0,0,5,2,0.000755,-4,-6,1,0,0,0,24,24,128,1,0,,,,,,,,,,,,,,,,,,,,,
,,,,,,,,,,,,,,,,,,,,,,,,,,,,,,,,,,,,,,,,,,5ed7a7a467a98224295459ff,606cad28fd1999412342b5c2,2021-04-06_19h49.24.718,Colour_Similarity_Experiment,2020.2.10,Win32,60,6067542a4a25243f4d7d4fcf,16.94127706,16.68299057,16.69797727,16.66593333,16.66549519,16.68299057,,,,,,,,,,,,,,,,,,,,PF,strong,3,,,,,,,,3,2.509185,,,,,,,,,,,,,,,,,,,,,,,,,,,,8,strong,-62,-108,1,0,0,response5disk,1,26,15,4,1,0,0,rectangle,15,4,1,0,0,5,0,0.0009,15,4,1,0,0,0,25,25,20,1,0,,,,,,,,,,,,,,,,,,,,,
,,,,,,,,,,,,,,,,,,,,,,,,,,,,,,,,,,,,,,,,,,5ed7a7a467a98224295459ff,606cad28fd1999412342b5c2,2021-04-06_19h49.24.718,Colour_Similarity_Experiment,2020.2.10,Win32,60,6067542a4a25243f4d7d4fcf,16.94127706,16.68299057,16.69797727,16.66593333,16.66549519,16.68299057,,,,,,,,,,,,,,,,,,,,PF,strong,3,,,,,,,,2,2.249835,,,,,,,,,,,,,,,,,,,,,,,,,,,,1,strong,-66,-38,1,0,0,response5disk,1,27,5,0,1,0,0,rectangle,5,0,1,0,0,5,7,0.000695,5,0,1,0,0,0,26,26,151,1,0,,,,,,,,,,,,,,,,,,,,,
,,,,,,,,,,,,,,,,,,,,,,,,,,,,,,,,,,,,,,,,,,5ed7a7a467a98224295459ff,606cad28fd1999412342b5c2,2021-04-06_19h49.24.718,Colour_Similarity_Experiment,2020.2.10,Win32,60,6067542a4a25243f4d7d4fcf,16.94127706,16.68299057,16.69797727,16.66593333,16.66549519,16.68299057,,,,,,,,,,,,,,,,,,,,PF,weak,3,,,,,,,,1,3.001095,,,,,,,,,,,,,,,,,,,,,,,,,,,,9,weak,-106,44,1,0,0,response7disk,9,28,11,-2,1,0,0,rectangle,11,-2,1,0,0,5,6,0.00071,11,-2,1,0,0,0,27,27,106,1,0,,,,,,,,,,,,,,,,,,,,,
,,,,,,,,,,,,,,,,,,,,,,,,,,,,,,,,,,,,,,,,,,5ed7a7a467a98224295459ff,606cad28fd1999412342b5c2,2021-04-06_19h49.24.718,Colour_Similarity_Experiment,2020.2.10,Win32,60,6067542a4a25243f4d7d4fcf,16.94127706,16.68299057,16.69797727,16.66593333,16.66549519,16.68299057,,,,,,,,,,,,,,,,,,,,PF,weak,3,,,,,,,,6,1.783705,,,,,,,,,,,,,,,,,,,,,,,,,,,,2,weak,119,46,1,0,0,response1disk,8,29,-15,-3,1,0,0,rectangle,-15,-3,1,0,0,5,2,0.000695,-15,-3,1,0,0,0,28,28,52,1,0,,,,,,,,,,,,,,,,,,,,,
,,,,,,,,,,,,,,,,,,,,,,,,,,,,,,,,,,,,,,,,,,5ed7a7a467a98224295459ff,606cad28fd1999412342b5c2,2021-04-06_19h49.24.718,Colour_Similarity_Experiment,2020.2.10,Win32,60,6067542a4a25243f4d7d4fcf,16.94127706,16.68299057,16.69797727,16.66593333,16.66549519,16.68299057,,,,,,,,,,,,,,,,,,,,PF,strong,3,,,,,,,,0,2.09632,,,,,,,,,,,,,,,,,,,,,,,,,,,,8,strong,-65,83,1,0,0,response7disk,8,30,-5,-10,1,0,0,rectangle,-5,-10,1,0,0,5,4,0.00071,-5,-10,1,0,0,0,29,29,48,1,0,,,,,,,,,,,,,,,,,,,,,
,,,,,,,,,,,,,,,,,,,,,,,,,,,,,,,,,,,,,,,,,,5ed7a7a467a98224295459ff,606cad28fd1999412342b5c2,2021-04-06_19h49.24.718,Colour_Similarity_Experiment,2020.2.10,Win32,60,6067542a4a25243f4d7d4fcf,16.94127706,16.68299057,16.69797727,16.66593333,16.66549519,16.68299057,,,,,,,,,,,,,,,,,,,,PF,weak,3,,,,,,,,5,2.710275,,,,,,,,,,,,,,,,,,,,,,,,,,,,3,weak,100,-55,1,0,0,response3disk,4,31,-11,3,1,0,0,rectangle,-11,3,1,0,0,5,0,0.00069,-11,3,1,0,0,0,30,30,30,1,0,,,,,,,,,,,,,,,,,,,,,
,,,,,,,,,,,,,,,,,,,,,,,,,,,,,,,,,,,,,,,,,,5ed7a7a467a98224295459ff,606cad28fd1999412342b5c2,2021-04-06_19h49.24.718,Colour_Similarity_Experiment,2020.2.10,Win32,60,6067542a4a25243f4d7d4fcf,16.94127706,16.68299057,16.69797727,16.66593333,16.66549519,16.68299057,,,,,,,,,,,,,,,,,,,,PF,weak,3,,,,,,,,6,1.85775,,,,,,,,,,,,,,,,,,,,,,,,,,,,6,weak,106,38,1,0,0,response1disk,2,32,-11,-8,1,0,0,rectangle,-11,-8,1,0,0,5,7,0.00069,-11,-8,1,0,0,0,31,31,130,1,0,,,,,,,,,,,,,,,,,,,,,
,,,,,,,,,,,,,,,,,,,,,,,,,,,,,,,,,,,,,,,,,,5ed7a7a467a98224295459ff,606cad28fd1999412342b5c2,2021-04-06_19h49.24.718,Colour_Similarity_Experiment,2020.2.10,Win32,60,6067542a4a25243f4d7d4fcf,16.94127706,16.68299057,16.69797727,16.66593333,16.66549519,16.68299057,,,,,,,,,,,,,,,,,,,,PF,strong,3,,,,,,,,2,1.741825,,,,,,,,,,,,,,,,,,,,,,,,,,,,4,strong,-84,-29,1,0,0,response5disk,3,33,-3,1,1,0,0,rectangle,-3,1,1,0,0,5,1,0.00075,-3,1,1,0,0,0,32,32,77,1,0,,,,,,,,,,,,,,,,,,,,,
,,,,,,,,,,,,,,,,,,,,,,,,,,,,,,,,,,,,,,,,,,5ed7a7a467a98224295459ff,606cad28fd1999412342b5c2,2021-04-06_19h49.24.718,Colour_Similarity_Experiment,2020.2.10,Win32,60,6067542a4a25243f4d7d4fcf,16.94127706,16.68299057,16.69797727,16.66593333,16.66549519,16.68299057,,,,,,,,,,,,,,,,,,,,PF,strong,3,,,,,,,,5,1.523995,,,,,,,,,,,,,,,,,,,,,,,,,,,,4,strong,91,-44,1,0,0,response3disk,9,34,1,1,1,0,0,rectangle,1,1,1,0,0,5,3,0.000685,1,1,1,0,0,0,33,33,90,1,0,,,,,,,,,,,,,,,,,,,,,
,,,,,,,,,,,,,,,,,,,,,,,,,,,,,,,,,,,,,,,,,,5ed7a7a467a98224295459ff,606cad28fd1999412342b5c2,2021-04-06_19h49.24.718,Colour_Similarity_Experiment,2020.2.10,Win32,60,6067542a4a25243f4d7d4fcf,16.94127706,16.68299057,16.69797727,16.66593333,16.66549519,16.68299057,,,,,,,,,,,,,,,,,,,,PF,weak,3,,,,,,,,5,2.95713,,,,,,,,,,,,,,,,,,,,,,,,,,,,9,weak,86,-42,1,0,0,response3disk,7,35,-4,2,1,0,0,rectangle,-4,2,1,0,0,5,4,0.00067,-4,2,1,0,0,0,34,34,121,1,0,,,,,,,,,,,,,,,,,,,,,
,,,,,,,,,,,,,,,,,,,,,,,,,,,,,,,,,,,,,,,,,,5ed7a7a467a98224295459ff,606cad28fd1999412342b5c2,2021-04-06_19h49.24.718,Colour_Similarity_Experiment,2020.2.10,Win32,60,6067542a4a25243f4d7d4fcf,16.94127706,16.68299057,16.69797727,16.66593333,16.66549519,16.68299057,,,,,,,,,,,,,,,,,,,,PF,weak,3,,,,,,,,6,1.499465,,,,,,,,,,,,,,,,,,,,,,,,,,,,7,weak,98,27,1,0,0,response1disk,1,36,-3,-13,1,0,0,rectangle,-3,-13,1,0,0,5,5,0.000905,-3,-13,1,0,0,0,35,35,53,1,0,,,,,,,,,,,,,,,,,,,,,
,,,,,,,,,,,,,,,,,,,,,,,,,,,,,,,,,,,,,,,,,,5ed7a7a467a98224295459ff,606cad28fd1999412342b5c2,2021-04-06_19h49.24.718,Colour_Similarity_Experiment,2020.2.10,Win32,60,6067542a4a25243f4d7d4fcf,16.94127706,16.68299057,16.69797727,16.66593333,16.66549519,16.68299057,,,,,,,,,,,,,,,,,,,,PF,strong,3,,,,,,,,7,1.875585,,,,,,,,,,,,,,,,,,,,,,,,,,,,2,strong,65,91,1,0,0,response1disk,8,37,5,-5,1,0,0,rectangle,5,-5,1,0,0,5,0,0.000715,5,-5,1,0,0,0,36,36,62,1,0,,,,,,,,,,,,,,,,,,,,,
,,,,,,,,,,,,,,,,,,,,,,,,,,,,,,,,,,,,,,,,,,5ed7a7a467a98224295459ff,606cad28fd1999412342b5c2,2021-04-06_19h49.24.718,Colour_Similarity_Experiment,2020.2.10,Win32,60,6067542a4a25243f4d7d4fcf,16.94127706,16.68299057,16.69797727,16.66593333,16.66549519,16.68299057,,,,,,,,,,,,,,,,,,,,PF,weak,3,,,,,,,,3,2.40784,,,,,,,,,,,,,,,,,,,,,,,,,,,,7,weak,-61,-86,1,0,0,response5disk,5,38,11,11,1,0,0,rectangle,11,11,1,0,0,5,7,0.000675,11,11,1,0,0,0,37,37,92,1,0,,,,,,,,,,,,,,,,,,,,,
,,,,,,,,,,,,,,,,,,,,,,,,,,,,,,,,,,,,,,,,,,5ed7a7a467a98224295459ff,606cad28fd1999412342b5c2,2021-04-06_19h49.24.718,Colour_Similarity_Experiment,2020.2.10,Win32,60,6067542a4a25243f4d7d4fcf,16.94127706,16.68299057,16.69797727,16.66593333,16.66549519,16.68299057,,,,,,,,,,,,,,,,,,,,PF,weak,3,,,,,,,,5,1.51699,,,,,,,,,,,,,,,,,,,,,,,,,,,,4,weak,84,-45,1,0,0,response3disk,7,39,-10,-1,1,0,0,rectangle,-10,-1,1,0,0,5,5,0.000705,-10,-1,1,0,0,0,38,38,38,1,0,,,,,,,,,,,,,,,,,,,,,
,,,,,,,,,,,,,,,,,,,,,,,,,,,,,,,,,,,,,,,,,,5ed7a7a467a98224295459ff,606cad28fd1999412342b5c2,2021-04-06_19h49.24.718,Colour_Similarity_Experiment,2020.2.10,Win32,60,6067542a4a25243f4d7d4fcf,16.94127706,16.68299057,16.69797727,16.66593333,16.66549519,16.68299057,,,,,,,,,,,,,,,,,,,,PF,strong,3,,,,,,,,6,1.59222,,,,,,,,,,,,,,,,,,,,,,,,,,,,1,strong,111,30,1,0,0,response1disk,6,40,10,-4,1,0,0,rectangle,10,-4,1,0,0,5,0,0.00068,10,-4,1,0,0,0,39,39,58,1,0,,,,,,,,,,,,,,,,,,,,,
,,,,,,,,,,,,,,,,,,,,,,,,,,,,,,,,,,,,,,,,,,5ed7a7a467a98224295459ff,606cad28fd1999412342b5c2,2021-04-06_19h49.24.718,Colour_Similarity_Experiment,2020.2.10,Win32,60,6067542a4a25243f4d7d4fcf,16.94127706,16.68299057,16.69797727,16.66593333,16.66549519,16.68299057,,,,,,,,,,,,,,,,,,,,PF,weak,3,,,,,,,,0,1.335135,,,,,,,,,,,,,,,,,,,,,,,,,,,,5,weak,-49,112,1,0,0,response7disk,5,41,4,-11,1,0,0,rectangle,4,-11,1,0,0,5,1,0.00074,4,-11,1,0,0,0,40,40,94,1,0,,,,,,,,,,,,,,,,,,,,,
,,,,,,,,,,,,,,,,,,,,,,,,,,,,,,,,,,,,,,,,,,5ed7a7a467a98224295459ff,606cad28fd1999412342b5c2,2021-04-06_19h49.24.718,Colour_Similarity_Experiment,2020.2.10,Win32,60,6067542a4a25243f4d7d4fcf,16.94127706,16.68299057,16.69797727,16.66593333,16.66549519,16.68299057,,,,,,,,,,,,,,,,,,,,PF,weak,3,,,,,,,,0,1.79132,,,,,,,,,,,,,,,,,,,,,,,,,,,,7,weak,-47,96,1,0,0,response7disk,7,42,11,-9,1,0,0,rectangle,11,-9,1,0,0,5,1,9.49999E-05,11,-9,1,0,0,0,41,41,51,1,0,,,,,,,,,,,,,,,,,,,,,
,,,,,,,,,,,,,,,,,,,,,,,,,,,,,,,,,,,,,,,,,,5ed7a7a467a98224295459ff,606cad28fd1999412342b5c2,2021-04-06_19h49.24.718,Colour_Similarity_Experiment,2020.2.10,Win32,60,6067542a4a25243f4d7d4fcf,16.94127706,16.68299057,16.69797727,16.66593333,16.66549519,16.68299057,,,,,,,,,,,,,,,,,,,,PF,strong,3,,,,,,,,6,1.6499,,,,,,,,,,,,,,,,,,,,,,,,,,,,3,strong,98,48,1,0,0,response1disk,9,43,-5,-3,1,0,0,rectangle,-5,-3,1,0,0,5,6,0.000725,-5,-3,1,0,0,0,42,42,143,1,0,,,,,,,,,,,,,,,,,,,,,
,,,,,,,,,,,,,,,,,,,,,,,,,,,,,,,,,,,,,,,,,,5ed7a7a467a98224295459ff,606cad28fd1999412342b5c2,2021-04-06_19h49.24.718,Colour_Similarity_Experiment,2020.2.10,Win32,60,6067542a4a25243f4d7d4fcf,16.94127706,16.68299057,16.69797727,16.66593333,16.66549519,16.68299057,,,,,,,,,,,,,,,,,,,,PF,weak,3,,,,,,,,7,2.02526,,,,,,,,,,,,,,,,,,,,,,,,,,,,8,weak,69,79,1,0,0,response1disk,4,44,-9,0,1,0,0,rectangle,-9,0,1,0,0,5,6,0.00014,-9,0,1,0,0,0,43,43,78,1,0,,,,,,,,,,,,,,,,,,,,,
,,,,,,,,,,,,,,,,,,,,,,,,,,,,,,,,,,,,,,,,,,5ed7a7a467a98224295459ff,606cad28fd1999412342b5c2,2021-04-06_19h49.24.718,Colour_Similarity_Experiment,2020.2.10,Win32,60,6067542a4a25243f4d7d4fcf,16.94127706,16.68299057,16.69797727,16.66593333,16.66549519,16.68299057,,,,,,,,,,,,,,,,,,,,PF,weak,3,,,,,,,,7,2.09068,,,,,,,,,,,,,,,,,,,,,,,,,,,,9,weak,64,93,1,0,0,response1disk,4,45,2,-2,1,0,0,rectangle,2,-2,1,0,0,5,3,0.000685,2,-2,1,0,0,0,44,44,114,1,0,,,,,,,,,,,,,,,,,,,,,
,,,,,,,,,,,,,,,,,,,,,,,,,,,,,,,,,,,,,,,,,,5ed7a7a467a98224295459ff,606cad28fd1999412342b5c2,2021-04-06_19h49.24.718,Colour_Similarity_Experiment,2020.2.10,Win32,60,6067542a4a25243f4d7d4fcf,16.94127706,16.68299057,16.69797727,16.66593333,16.66549519,16.68299057,,,,,,,,,,,,,,,,,,,,PF,weak,3,,,,,,,,1,2.4239,,,,,,,,,,,,,,,,,,,,,,,,,,,,8,weak,-79,52,1,0,0,response7disk,9,46,5,1,1,0,0,rectangle,5,1,1,0,0,5,1,0.000765,5,1,1,0,0,0,45,45,42,1,0,,,,,,,,,,,,,,,,,,,,,
,,,,,,,,,,,,,,,,,,,,,,,,,,,,,,,,,,,,,,,,,,5ed7a7a467a98224295459ff,606cad28fd1999412342b5c2,2021-04-06_19h49.24.718,Colour_Similarity_Experiment,2020.2.10,Win32,60,6067542a4a25243f4d7d4fcf,16.94127706,16.68299057,16.69797727,16.66593333,16.66549519,16.68299057,,,,,,,,,,,,,,,,,,,,PF,weak,3,,,,,,,,7,2.03239,,,,,,,,,,,,,,,,,,,,,,,,,,,,5,weak,60,83,1,0,0,response1disk,9,47,8,-1,1,0,0,rectangle,-116,55,1,0,0,1,1,2.317265,7,-2,1,0,0,0,46,46,136,1,1,response7disk_3,rectangle,,,,,,,,,,,,,,,,,,,
,,,,,,,,,,,,,,,,,,,,,,,,,,,,,,,,,,,,,,,,,,5ed7a7a467a98224295459ff,606cad28fd1999412342b5c2,2021-04-06_19h49.24.718,Colour_Similarity_Experiment,2020.2.10,Win32,60,6067542a4a25243f4d7d4fcf,16.94127706,16.68299057,16.69797727,16.66593333,16.66549519,16.68299057,,,,,,,,,,,,,,,,,,,,PF,weak,3,,,,,,,,3,1.46662,,,,,,,,,,,,,,,,,,,,,,,,,,,,5,weak,-40,-79,1,0,0,response5disk,3,48,-4,7,1,0,0,rectangle,-4,7,1,0,0,1,6,0.000775,-4,7,1,0,0,0,47,47,109,1,0,,,,,,,,,,,,,,,,,,,,,
,,,,,,,,,,,,,,,,,,,,,,,,,,,,,,,,,,,,,,,,,,5ed7a7a467a98224295459ff,606cad28fd1999412342b5c2,2021-04-06_19h49.24.718,Colour_Similarity_Experiment,2020.2.10,Win32,60,6067542a4a25243f4d7d4fcf,16.94127706,16.68299057,16.69797727,16.66593333,16.66549519,16.68299057,,,,,,,,,,,,,,,,,,,,PF,weak,3,,,,,,,,1,1.516045,,,,,,,,,,,,,,,,,,,,,,,,,,,,6,weak,-95,61,1,0,0,response7disk,5,49,9,-6,1,0,0,rectangle,9,-6,1,0,0,1,2,0.000675,9,-6,1,0,0,0,48,48,59,1,0,,,,,,,,,,,,,,,,,,,,,
,,,,,,,,,,,,,,,,,,,,,,,,,,,,,,,,,,,,,,,,,,5ed7a7a467a98224295459ff,606cad28fd1999412342b5c2,2021-04-06_19h49.24.718,Colour_Similarity_Experiment,2020.2.10,Win32,60,6067542a4a25243f4d7d4fcf,16.94127706,16.68299057,16.69797727,16.66593333,16.66549519,16.68299057,,,,,,,,,,,,,,,,,,,,PF,strong,3,,,,,,,,6,1.78992,,,,,,,,,,,,,,,,,,,,,,,,,,,,7,strong,96,46,1,0,0,response1disk,9,50,-10,-6,1,0,0,rectangle,-10,-6,1,0,0,1,1,0.000725,-10,-6,1,0,0,0,49,49,155,1,0,,,,,,,,,,,,,,,,,,,,,
,,,,,,,,,,,,,,,,,,,,,,,,,,,,,,,,,,,,,,,,,,5ed7a7a467a98224295459ff,606cad28fd1999412342b5c2,2021-04-06_19h49.24.718,Colour_Similarity_Experiment,2020.2.10,Win32,60,6067542a4a25243f4d7d4fcf,16.94127706,16.68299057,16.69797727,16.66593333,16.66549519,16.68299057,,,,,,,,,,,,,,,,,,,,PF,strong,3,,,,,,,,3,2.52594,,,,,,,,,,,,,,,,,,,,,,,,,,,,1,strong,-64,-82,1,0,0,response5disk,7,51,7,-3,1,0,0,rectangle,7,-3,1,0,0,1,2,0.0007,7,-3,1,0,0,0,50,50,137,1,0,,,,,,,,,,,,,,,,,,,,,
,,,,,,,,,,,,,,,,,,,,,,,,,,,,,,,,,,,,,,,,,,5ed7a7a467a98224295459ff,606cad28fd1999412342b5c2,2021-04-06_19h49.24.718,Colour_Similarity_Experiment,2020.2.10,Win32,60,6067542a4a25243f4d7d4fcf,16.94127706,16.68299057,16.69797727,16.66593333,16.66549519,16.68299057,,,,,,,,,,,,,,,,,,,,PF,weak,3,,,,,,,,3,2.208985,,,,,,,,,,,,,,,,,,,,,,,,,,,,6,weak,-73,-89,1,0,0,response5disk,7,52,0,3,1,0,0,rectangle,0,3,1,0,0,1,3,0.00066,0,3,1,0,0,0,51,51,50,1,0,,,,,,,,,,,,,,,,,,,,,
,,,,,,,,,,,,,,,,,,,,,,,,,,,,,,,,,,,,,,,,,,5ed7a7a467a98224295459ff,606cad28fd1999412342b5c2,2021-04-06_19h49.24.718,Colour_Similarity_Experiment,2020.2.10,Win32,60,6067542a4a25243f4d7d4fcf,16.94127706,16.68299057,16.69797727,16.66593333,16.66549519,16.68299057,,,,,,,,,,,,,,,,,,,,PF,strong,3,,,,,,,,4,2.11744,,,,,,,,,,,,,,,,,,,,,,,,,,,,7,strong,68,-112,1,0,0,response3disk,6,53,-5,-7,1,0,0,rectangle,-5,-7,1,0,0,1,7,0.000735,-5,-7,1,0,0,0,52,52,31,1,0,,,,,,,,,,,,,,,,,,,,,
,,,,,,,,,,,,,,,,,,,,,,,,,,,,,,,,,,,,,,,,,,5ed7a7a467a98224295459ff,606cad28fd1999412342b5c2,2021-04-06_19h49.24.718,Colour_Similarity_Experiment,2020.2.10,Win32,60,6067542a4a25243f4d7d4fcf,16.94127706,16.68299057,16.69797727,16.66593333,16.66549519,16.68299057,,,,,,,,,,,,,,,,,,,,PF,strong,3,,,,,,,,3,2.90926,,,,,,,,,,,,,,,,,,,,,,,,,,,,2,strong,-40,-87,1,0,0,response5disk,2,54,9,-7,1,0,0,rectangle,9,-7,1,0,0,1,0,0.000735,9,-7,1,0,0,0,53,53,142,1,0,,,,,,,,,,,,,,,,,,,,,
,,,,,,,,,,,,,,,,,,,,,,,,,,,,,,,,,,,,,,,,,,5ed7a7a467a98224295459ff,606cad28fd1999412342b5c2,2021-04-06_19h49.24.718,Colour_Similarity_Experiment,2020.2.10,Win32,60,6067542a4a25243f4d7d4fcf,16.94127706,16.68299057,16.69797727,16.66593333,16.66549519,16.68299057,,,,,,,,,,,,,,,,,,,,PF,strong,3,,,,,,,,7,2.06654,,,,,,,,,,,,,,,,,,,,,,,,,,,,3,strong,80,103,1,0,0,response1disk,6,55,12,-8,1,0,0,rectangle,12,-8,1,0,0,1,1,0.00089,12,-8,1,0,0,0,54,54,95,1,0,,,,,,,,,,,,,,,,,,,,,
,,,,,,,,,,,,,,,,,,,,,,,,,,,,,,,,,,,,,,,,,,5ed7a7a467a98224295459ff,606cad28fd1999412342b5c2,2021-04-06_19h49.24.718,Colour_Similarity_Experiment,2020.2.10,Win32,60,6067542a4a25243f4d7d4fcf,16.94127706,16.68299057,16.69797727,16.66593333,16.66549519,16.68299057,,,,,,,,,,,,,,,,,,,,PF,strong,3,,,,,,,,6,2.51091,,,,,,,,,,,,,,,,,,,,,,,,,,,,1,strong,130,43,1,0,0,response1disk,2,56,3,-5,1,0,0,rectangle,3,-5,1,0,0,1,5,0.000745,3,-5,1,0,0,0,55,55,2,1,0,,,,,,,,,,,,,,,,,,,,,
,,,,,,,,,,,,,,,,,,,,,,,,,,,,,,,,,,,,,,,,,,5ed7a7a467a98224295459ff,606cad28fd1999412342b5c2,2021-04-06_19h49.24.718,Colour_Similarity_Experiment,2020.2.10,Win32,60,6067542a4a25243f4d7d4fcf,16.94127706,16.68299057,16.69797727,16.66593333,16.66549519,16.68299057,,,,,,,,,,,,,,,,,,,,PF,weak,3,,,,,,,,6,2.14102,,,,,,,,,,,,,,,,,,,,,,,,,,,,2,weak,122,43,1,0,0,response1disk,5,57,-8,-2,1,0,0,rectangle,-8,-2,1,0,0,1,7,0.000955,-8,-2,1,0,0,0,56,56,147,1,0,,,,,,,,,,,,,,,,,,,,,
,,,,,,,,,,,,,,,,,,,,,,,,,,,,,,,,,,,,,,,,,,5ed7a7a467a98224295459ff,606cad28fd1999412342b5c2,2021-04-06_19h49.24.718,Colour_Similarity_Experiment,2020.2.10,Win32,60,6067542a4a25243f4d7d4fcf,16.94127706,16.68299057,16.69797727,16.66593333,16.66549519,16.68299057,,,,,,,,,,,,,,,,,,,,PF,strong,3,,,,,,,,2,1.906335,,,,,,,,,,,,,,,,,,,,,,,,,,,,3,strong,-78,-37,1,0,0,response5disk,2,58,2,4,1,0,0,rectangle,2,4,1,0,0,1,6,0.000755,2,4,1,0,0,0,57,57,93,1,0,,,,,,,,,,,,,,,,,,,,,
,,,,,,,,,,,,,,,,,,,,,,,,,,,,,,,,,,,,,,,,,,5ed7a7a467a98224295459ff,606cad28fd1999412342b5c2,2021-04-06_19h49.24.718,Colour_Similarity_Experiment,2020.2.10,Win32,60,6067542a4a25243f4d7d4fcf,16.94127706,16.68299057,16.69797727,16.66593333,16.66549519,16.68299057,,,,,,,,,,,,,,,,,,,,PF,weak,3,,,,,,,,3,1.75,,,,,,,,,,,,,,,,,,,,,,,,,,,,8,weak,-50,-88,1,0,0,response5disk,7,59,7,-3,1,0,0,rectangle,7,-3,1,0,0,1,3,0.00082,7,-3,1,0,0,0,58,58,23,1,0,,,,,,,,,,,,,,,,,,,,,
,,,,,,,,,,,,,,,,,,,,,,,,,,,,,,,,,,,,,,,,,,5ed7a7a467a98224295459ff,606cad28fd1999412342b5c2,2021-04-06_19h49.24.718,Colour_Similarity_Experiment,2020.2.10,Win32,60,6067542a4a25243f4d7d4fcf,16.94127706,16.68299057,16.69797727,16.66593333,16.66549519,16.68299057,,,,,,,,,,,,,,,,,,,,PF,weak,3,,,,,,,,6,1.80113,,,,,,,,,,,,,,,,,,,,,,,,,,,,1,weak,91,52,1,0,0,response1disk,6,60,0,-11,1,0,0,rectangle,0,-11,1,0,0,1,5,0.00089,0,-11,1,0,0,0,59,59,144,1,0,,,,,,,,,,,,,,,,,,,,,
,,,,,,,,,,,,,,,,,,,,,,,,,,,,,,,,,,,,,,,,,,5ed7a7a467a98224295459ff,606cad28fd1999412342b5c2,2021-04-06_19h49.24.718,Colour_Similarity_Experiment,2020.2.10,Win32,60,6067542a4a25243f4d7d4fcf,16.94127706,16.68299057,16.69797727,16.66593333,16.66549519,16.68299057,,,,,,,,,,,,,,,,,,,,PF,weak,3,,,,,,,,6,1.90024,,,,,,,,,,,,,,,,,,,,,,,,,,,,9,weak,143,35,1,0,0,response1disk,2,61,11,-6,1,0,0,rectangle,11,-6,1,0,0,1,0,0.000695,11,-6,1,0,0,0,60,60,157,1,0,,,,,,,,,,,,,,,,,,,,,
,,,,,,,,,,,,,,,,,,,,,,,,,,,,,,,,,,,,,,,,,,5ed7a7a467a98224295459ff,606cad28fd1999412342b5c2,2021-04-06_19h49.24.718,Colour_Similarity_Experiment,2020.2.10,Win32,60,6067542a4a25243f4d7d4fcf,16.94127706,16.68299057,16.69797727,16.66593333,16.66549519,16.68299057,,,,,,,,,,,,,,,,,,,,PF,weak,3,,,,,,,,5,2.08986,,,,,,,,,,,,,,,,,,,,,,,,,,,,3,weak,100,-48,1,0,0,response3disk,3,62,-1,1,1,0,0,rectangle,-1,1,1,0,0,1,1,0.000785,-1,1,1,0,0,0,61,61,4,1,0,,,,,,,,,,,,,,,,,,,,,
,,,,,,,,,,,,,,,,,,,,,,,,,,,,,,,,,,,,,,,,,,5ed7a7a467a98224295459ff,606cad28fd1999412342b5c2,2021-04-06_19h49.24.718,Colour_Similarity_Experiment,2020.2.10,Win32,60,6067542a4a25243f4d7d4fcf,16.94127706,16.68299057,16.69797727,16.66593333,16.66549519,16.68299057,,,,,,,,,,,,,,,,,,,,PF,weak,3,,,,,,,,5,2.50766,,,,,,,,,,,,,,,,,,,,,,,,,,,,4,weak,92,-34,1,0,0,response3disk,2,63,-5,6,1,0,0,rectangle,-5,6,1,0,0,1,7,0.00065,-5,6,1,0,0,0,62,62,108,1,0,,,,,,,,,,,,,,,,,,,,,
,,,,,,,,,,,,,,,,,,,,,,,,,,,,,,,,,,,,,,,,,,5ed7a7a467a98224295459ff,606cad28fd1999412342b5c2,2021-04-06_19h49.24.718,Colour_Similarity_Experiment,2020.2.10,Win32,60,6067542a4a25243f4d7d4fcf,16.94127706,16.68299057,16.69797727,16.66593333,16.66549519,16.68299057,,,,,,,,,,,,,,,,,,,,PF,strong,3,,,,,,,,6,2.106865,,,,,,,,,,,,,,,,,,,,,,,,,,,,5,strong,114,73,1,0,0,response1disk,9,64,3,0,1,0,0,rectangle,3,0,1,0,0,1,6,0.00082,3,0,1,0,0,0,63,63,61,1,0,,,,,,,,,,,,,,,,,,,,,
,,,,,,,,,,,,,,,,,,,,,,,,,,,,,,,,,,,,,,,,,,5ed7a7a467a98224295459ff,606cad28fd1999412342b5c2,2021-04-06_19h49.24.718,Colour_Similarity_Experiment,2020.2.10,Win32,60,6067542a4a25243f4d7d4fcf,16.94127706,16.68299057,16.69797727,16.66593333,16.66549519,16.68299057,,,,,,,,,,,,,,,,,,,,PF,weak,3,,,,,,,,0,2.1896,,,,,,,,,,,,,,,,,,,,,,,,,,,,8,weak,-50,116,1,0,0,response7disk,8,65,-1,-1,1,0,0,rectangle,-1,-1,1,0,0,1,0,0.00067,-1,-1,1,0,0,0,64,64,153,1,0,,,,,,,,,,,,,,,,,,,,,
,,,,,,,,,,,,,,,,,,,,,,,,,,,,,,,,,,,,,,,,,,5ed7a7a467a98224295459ff,606cad28fd1999412342b5c2,2021-04-06_19h49.24.718,Colour_Similarity_Experiment,2020.2.10,Win32,60,6067542a4a25243f4d7d4fcf,16.94127706,16.68299057,16.69797727,16.66593333,16.66549519,16.68299057,,,,,,,,,,,,,,,,,,,,PF,strong,3,,,,,,,,6,2.840585,,,,,,,,,,,,,,,,,,,,,,,,,,,,6,strong,96,45,1,0,0,response1disk,3,66,10,-4,1,0,0,rectangle,10,-4,1,0,0,1,1,0.000625,10,-4,1,0,0,0,65,65,21,1,0,,,,,,,,,,,,,,,,,,,,,
,,,,,,,,,,,,,,,,,,,,,,,,,,,,,,,,,,,,,,,,,,5ed7a7a467a98224295459ff,606cad28fd1999412342b5c2,2021-04-06_19h49.24.718,Colour_Similarity_Experiment,2020.2.10,Win32,60,6067542a4a25243f4d7d4fcf,16.94127706,16.68299057,16.69797727,16.66593333,16.66549519,16.68299057,,,,,,,,,,,,,,,,,,,,PF,strong,3,,,,,,,,7,1.63922,,,,,,,,,,,,,,,,,,,,,,,,,,,,8,strong,99,109,1,0,0,response1disk,2,67,-4,-1,1,0,0,rectangle,-4,-1,1,0,0,1,4,0.000725,-4,-1,1,0,0,0,66,66,22,1,0,,,,,,,,,,,,,,,,,,,,,
,,,,,,,,,,,,,,,,,,,,,,,,,,,,,,,,,,,,,,,,,,5ed7a7a467a98224295459ff,606cad28fd1999412342b5c2,2021-04-06_19h49.24.718,Colour_Similarity_Experiment,2020.2.10,Win32,60,6067542a4a25243f4d7d4fcf,16.94127706,16.68299057,16.69797727,16.66593333,16.66549519,16.68299057,,,,,,,,,,,,,,,,,,,,PF,strong,3,,,,,,,,6,2.040585,,,,,,,,,,,,,,,,,,,,,,,,,,,,2,strong,127,34,1,0,0,response1disk,6,68,-1,-4,1,0,0,rectangle,-1,-4,1,0,0,1,2,0.000745,-1,-4,1,0,0,0,67,67,40,1,0,,,,,,,,,,,,,,,,,,,,,
,,,,,,,,,,,,,,,,,,,,,,,,,,,,,,,,,,,,,,,,,,5ed7a7a467a98224295459ff,606cad28fd1999412342b5c2,2021-04-06_19h49.24.718,Colour_Similarity_Experiment,2020.2.10,Win32,60,6067542a4a25243f4d7d4fcf,16.94127706,16.68299057,16.69797727,16.66593333,16.66549519,16.68299057,,,,,,,,,,,,,,,,,,,,PF,strong,3,,,,,,,,7,2.250095,,,,,,,,,,,,,,,,,,,,,,,,,,,,9,strong,87,115,1,0,0,response1disk,2,69,10,0,1,0,0,rectangle,-39,109,1,0,0,0,0,2.184155,9,5,1,0,0,0,68,68,11,1,1,response7disk_3,rectangle,,,,,,,,,,,,,,,,,,,
,,,,,,,,,,,,,,,,,,,,,,,,,,,,,,,,,,,,,,,,,,5ed7a7a467a98224295459ff,606cad28fd1999412342b5c2,2021-04-06_19h49.24.718,Colour_Similarity_Experiment,2020.2.10,Win32,60,6067542a4a25243f4d7d4fcf,16.94127706,16.68299057,16.69797727,16.66593333,16.66549519,16.68299057,,,,,,,,,,,,,,,,,,,,PF,strong,3,,,,,,,,6,1.434045,,,,,,,,,,,,,,,,,,,,,,,,,,,,5,strong,90,42,1,0,0,response1disk,2,70,-8,-7,1,0,0,rectangle,107,-59,1,0,0,5,5,2.049105,-2,3,1,0,0,0,69,69,55,1,1,response3disk_3,rectangle,,,,,,,,,,,,,,,,,,,
,,,,,,,,,,,,,,,,,,,,,,,,,,,,,,,,,,,,,,,,,,5ed7a7a467a98224295459ff,606cad28fd1999412342b5c2,2021-04-06_19h49.24.718,Colour_Similarity_Experiment,2020.2.10,Win32,60,6067542a4a25243f4d7d4fcf,16.94127706,16.68299057,16.69797727,16.66593333,16.66549519,16.68299057,,,,,,,,,,,,,,,,,,,,PF,weak,3,,,,,,,,4,2.199975,,,,,,,,,,,,,,,,,,,,,,,,,,,,8,weak,79,-86,1,0,0,response3disk,1,71,2,-2,1,0,0,rectangle,2,-2,1,0,0,5,3,0.000795,2,-2,1,0,0,0,70,70,57,1,0,,,,,,,,,,,,,,,,,,,,,
,,,,,,,,,,,,,,,,,,,,,,,,,,,,,,,,,,,,,,,,,,5ed7a7a467a98224295459ff,606cad28fd1999412342b5c2,2021-04-06_19h49.24.718,Colour_Similarity_Experiment,2020.2.10,Win32,60,6067542a4a25243f4d7d4fcf,16.94127706,16.68299057,16.69797727,16.66593333,16.66549519,16.68299057,,,,,,,,,,,,,,,,,,,,PF,weak,3,,,,,,,,6,1.54968,,,,,,,,,,,,,,,,,,,,,,,,,,,,3,weak,112,25,1,0,0,response1disk,6,72,-16,-8,1,0,0,rectangle,-16,-8,1,0,0,5,1,0.00088,-16,-8,1,0,0,0,71,71,47,1,0,,,,,,,,,,,,,,,,,,,,,
,,,,,,,,,,,,,,,,,,,,,,,,,,,,,,,,,,,,,,,,,,5ed7a7a467a98224295459ff,606cad28fd1999412342b5c2,2021-04-06_19h49.24.718,Colour_Similarity_Experiment,2020.2.10,Win32,60,6067542a4a25243f4d7d4fcf,16.94127706,16.68299057,16.69797727,16.66593333,16.66549519,16.68299057,,,,,,,,,,,,,,,,,,,,PF,strong,3,,,,,,,,6,2.916605,,,,,,,,,,,,,,,,,,,,,,,,,,,,5,strong,115,50,1,0,0,response1disk,8,73,-6,-1,1,0,0,rectangle,-6,-1,1,0,0,5,6,0.00077,-6,-1,1,0,0,0,72,72,16,1,0,,,,,,,,,,,,,,,,,,,,,
,,,,,,,,,,,,,,,,,,,,,,,,,,,,,,,,,,,,,,,,,,5ed7a7a467a98224295459ff,606cad28fd1999412342b5c2,2021-04-06_19h49.24.718,Colour_Similarity_Experiment,2020.2.10,Win32,60,6067542a4a25243f4d7d4fcf,16.94127706,16.68299057,16.69797727,16.66593333,16.66549519,16.68299057,,,,,,,,,,,,,,,,,,,,PF,strong,3,,,,,,,,3,1.6907,,,,,,,,,,,,,,,,,,,,,,,,,,,,6,strong,-63,-73,1,0,0,response5disk,5,74,3,-9,1,0,0,rectangle,3,-9,1,0,0,5,2,0.001495,3,-9,1,0,0,0,73,73,126,1,0,,,,,,,,,,,,,,,,,,,,,
,,,,,,,,,,,,,,,,,,,,,,,,,,,,,,,,,,,,,,,,,,5ed7a7a467a98224295459ff,606cad28fd1999412342b5c2,2021-04-06_19h49.24.718,Colour_Similarity_Experiment,2020.2.10,Win32,60,6067542a4a25243f4d7d4fcf,16.94127706,16.68299057,16.69797727,16.66593333,16.66549519,16.68299057,,,,,,,,,,,,,,,,,,,,PF,weak,3,,,,,,,,5,2.33252,,,,,,,,,,,,,,,,,,,,,,,,,,,,8,weak,81,-70,1,0,0,response3disk,5,75,-3,-8,1,0,0,rectangle,-3,-8,1,0,0,5,5,0.00069,-3,-8,1,0,0,0,74,74,98,1,0,,,,,,,,,,,,,,,,,,,,,
,,,,,,,,,,,,,,,,,,,,,,,,,,,,,,,,,,,,,,,,,,5ed7a7a467a98224295459ff,606cad28fd1999412342b5c2,2021-04-06_19h49.24.718,Colour_Similarity_Experiment,2020.2.10,Win32,60,6067542a4a25243f4d7d4fcf,16.94127706,16.68299057,16.69797727,16.66593333,16.66549519,16.68299057,,,,,,,,,,,,,,,,,,,,PF,strong,3,,,,,,,,6,2.49246,,,,,,,,,,,,,,,,,,,,,,,,,,,,9,strong,104,30,1,0,0,response1disk,3,76,-5,-9,1,0,0,rectangle,-5,-9,1,0,0,5,1,0.00074,-5,-9,1,0,0,0,75,75,141,1,0,,,,,,,,,,,,,,,,,,,,,
,,,,,,,,,,,,,,,,,,,,,,,,,,,,,,,,,,,,,,,,,,5ed7a7a467a98224295459ff,606cad28fd1999412342b5c2,2021-04-06_19h49.24.718,Colour_Similarity_Experiment,2020.2.10,Win32,60,6067542a4a25243f4d7d4fcf,16.94127706,16.68299057,16.69797727,16.66593333,16.66549519,16.68299057,,,,,,,,,,,,,,,,,,,,PF,strong,3,,,,,,,,7,2.106715,,,,,,,,,,,,,,,,,,,,,,,,,,,,6,strong,76,100,1,0,0,response1disk,2,77,-2,-8,1,0,0,rectangle,-2,-8,1,0,0,5,5,0.00073,-2,-8,1,0,0,0,76,76,112,1,0,,,,,,,,,,,,,,,,,,,,,
,,,,,,,,,,,,,,,,,,,,,,,,,,,,,,,,,,,,,,,,,,5ed7a7a467a98224295459ff,606cad28fd1999412342b5c2,2021-04-06_19h49.24.718,Colour_Similarity_Experiment,2020.2.10,Win32,60,6067542a4a25243f4d7d4fcf,16.94127706,16.68299057,16.69797727,16.66593333,16.66549519,16.68299057,,,,,,,,,,,,,,,,,,,,PF,strong,3,,,,,,,,3,2.184005,,,,,,,,,,,,,,,,,,,,,,,,,,,,4,strong,-32,-90,1,0,0,response5disk,5,78,7,4,1,0,0,rectangle,7,4,1,0,0,5,5,0.000125,7,4,1,0,0,0,77,77,116,1,0,,,,,,,,,,,,,,,,,,,,,
,,,,,,,,,,,,,,,,,,,,,,,,,,,,,,,,,,,,,,,,,,5ed7a7a467a98224295459ff,606cad28fd1999412342b5c2,2021-04-06_19h49.24.718,Colour_Similarity_Experiment,2020.2.10,Win32,60,6067542a4a25243f4d7d4fcf,16.94127706,16.68299057,16.69797727,16.66593333,16.66549519,16.68299057,,,,,,,,,,,,,,,,,,,,PF,weak,3,,,,,,,,6,1.96642,,,,,,,,,,,,,,,,,,,,,,,,,,,,8,weak,123,30,1,0,0,response1disk,2,79,-8,-6,1,0,0,rectangle,-8,-6,1,0,0,5,3,0.000755,-8,-6,1,0,0,0,78,78,83,1,0,,,,,,,,,,,,,,,,,,,,,
,,,,,,,,,,,,,,,,,,,,,,,,,,,,,,,,,,,,,,,,,,5ed7a7a467a98224295459ff,606cad28fd1999412342b5c2,2021-04-06_19h49.24.718,Colour_Similarity_Experiment,2020.2.10,Win32,60,6067542a4a25243f4d7d4fcf,16.94127706,16.68299057,16.69797727,16.66593333,16.66549519,16.68299057,,,,,,,,,,,,,,,,,,,,PF,strong,3,,,,,,,,2,1.459125,,,,,,,,,,,,,,,,,,,,,,,,,,,,3,strong,-80,-53,1,0,0,response5disk,3,80,3,-2,1,0,0,rectangle,3,-2,1,0,0,5,6,0.00071,3,-2,1,0,0,0,79,79,68,1,0,,,,,,,,,,,,,,,,,,,,,
,,,,,,,,,,,,,,,,,,,,,,,,,,,,,,,,,,,,,,,,,,5ed7a7a467a98224295459ff,606cad28fd1999412342b5c2,2021-04-06_19h49.24.718,Colour_Similarity_Experiment,2020.2.10,Win32,60,6067542a4a25243f4d7d4fcf,16.94127706,16.68299057,16.69797727,16.66593333,16.66549519,16.68299057,,,,,,,,,,,,,,,,,,,,PF,weak,3,,,,,,,,1,1.567255,,,,,,,,,,,,,,,,,,,,,,,,,,,,2,weak,-74,38,1,0,0,response7disk,2,81,-4,-2,1,0,0,rectangle,-4,-2,1,0,0,5,5,0.00062,-4,-2,1,0,0,0,80,80,14,1,0,,,,,,,,,,,,,,,,,,,,,
,,,,,,,,,,,,,,,,,,,,,,,,,,,,,,,,,,,,,,,,,,5ed7a7a467a98224295459ff,606cad28fd1999412342b5c2,2021-04-06_19h49.24.718,Colour_Similarity_Experiment,2020.2.10,Win32,60,6067542a4a25243f4d7d4fcf,16.94127706,16.68299057,16.69797727,16.66593333,16.66549519,16.68299057,,,,,,,,,,,,,,,,,,,,PF,strong,3,,,,,,,,1,1.599895,,,,,,,,,,,,,,,,,,,,,,,,,,,,9,strong,-98,42,1,0,0,response7disk,8,82,-12,-3,1,0,0,rectangle,-12,-3,1,0,0,5,0,0.001525,-12,-3,1,0,0,0,81,81,6,1,0,,,,,,,,,,,,,,,,,,,,,
,,,,,,,,,,,,,,,,,,,,,,,,,,,,,,,,,,,,,,,,,,5ed7a7a467a98224295459ff,606cad28fd1999412342b5c2,2021-04-06_19h49.24.718,Colour_Similarity_Experiment,2020.2.10,Win32,60,6067542a4a25243f4d7d4fcf,16.94127706,16.68299057,16.69797727,16.66593333,16.66549519,16.68299057,,,,,,,,,,,,,,,,,,,,PF,weak,3,,,,,,,,4,1.41667,,,,,,,,,,,,,,,,,,,,,,,,,,,,1,weak,41,-67,1,0,0,response3disk,8,83,-1,5,1,0,0,rectangle,-1,5,1,0,0,5,6,0.00078,-1,5,1,0,0,0,82,82,65,1,0,,,,,,,,,,,,,,,,,,,,,
,,,,,,,,,,,,,,,,,,,,,,,,,,,,,,,,,,,,,,,,,,5ed7a7a467a98224295459ff,606cad28fd1999412342b5c2,2021-04-06_19h49.24.718,Colour_Similarity_Experiment,2020.2.10,Win32,60,6067542a4a25243f4d7d4fcf,16.94127706,16.68299057,16.69797727,16.66593333,16.66549519,16.68299057,,,,,,,,,,,,,,,,,,,,PF,weak,3,,,,,,,,6,1.48422,,,,,,,,,,,,,,,,,,,,,,,,,,,,6,weak,128,48,1,0,0,response1disk,4,84,1,-7,1,0,0,rectangle,1,-7,1,0,0,5,4,0.000645,1,-7,1,0,0,0,83,83,33,1,0,,,,,,,,,,,,,,,,,,,,,
,,,,,,,,,,,,,,,,,,,,,,,,,,,,,,,,,,,,,,,,,,5ed7a7a467a98224295459ff,606cad28fd1999412342b5c2,2021-04-06_19h49.24.718,Colour_Similarity_Experiment,2020.2.10,Win32,60,6067542a4a25243f4d7d4fcf,16.94127706,16.68299057,16.69797727,16.66593333,16.66549519,16.68299057,,,,,,,,,,,,,,,,,,,,PF,weak,3,,,,,,,,7,1.925625,,,,,,,,,,,,,,,,,,,,,,,,,,,,7,weak,80,112,1,0,0,response1disk,2,85,-13,2,1,0,0,rectangle,-13,2,1,0,0,5,6,0.000735,-13,2,1,0,0,0,84,84,32,1,0,,,,,,,,,,,,,,,,,,,,,
,,,,,,,,,,,,,,,,,,,,,,,,,,,,,,,,,,,,,,,,,,5ed7a7a467a98224295459ff,606cad28fd1999412342b5c2,2021-04-06_19h49.24.718,Colour_Similarity_Experiment,2020.2.10,Win32,60,6067542a4a25243f4d7d4fcf,16.94127706,16.68299057,16.69797727,16.66593333,16.66549519,16.68299057,,,,,,,,,,,,,,,,,,,,PF,strong,3,,,,,,,,5,2.367455,,,,,,,,,,,,,,,,,,,,,,,,,,,,5,strong,82,-67,1,0,0,response3disk,4,86,-6,0,1,0,0,rectangle,-6,0,1,0,0,5,3,0.00072,-6,0,1,0,0,0,85,85,8,1,0,,,,,,,,,,,,,,,,,,,,,
,,,,,,,,,,,,,,,,,,,,,,,,,,,,,,,,,,,,,,,,,,5ed7a7a467a98224295459ff,606cad28fd1999412342b5c2,2021-04-06_19h49.24.718,Colour_Similarity_Experiment,2020.2.10,Win32,60,6067542a4a25243f4d7d4fcf,16.94127706,16.68299057,16.69797727,16.66593333,16.66549519,16.68299057,,,,,,,,,,,,,,,,,,,,PF,strong,3,,,,,,,,1,1.816095,,,,,,,,,,,,,,,,,,,,,,,,,,,,4,strong,-100,41,1,0,0,response7disk,4,87,-1,-11,1,0,0,rectangle,-1,-11,1,0,0,5,0,0.000985,-1,-11,1,0,0,0,86,86,84,1,0,,,,,,,,,,,,,,,,,,,,,
,,,,,,,,,,,,,,,,,,,,,,,,,,,,,,,,,,,,,,,,,,5ed7a7a467a98224295459ff,606cad28fd1999412342b5c2,2021-04-06_19h49.24.718,Colour_Similarity_Experiment,2020.2.10,Win32,60,6067542a4a25243f4d7d4fcf,16.94127706,16.68299057,16.69797727,16.66593333,16.66549519,16.68299057,,,,,,,,,,,,,,,,,,,,PF,strong,3,,,,,,,,4,2.15937,,,,,,,,,,,,,,,,,,,,,,,,,,,,9,strong,29,-115,1,0,0,response3disk,1,88,-1,-2,1,0,0,rectangle,-1,-2,1,0,0,5,3,0.00069,-1,-2,1,0,0,0,87,87,111,1,0,,,,,,,,,,,,,,,,,,,,,
,,,,,,,,,,,,,,,,,,,,,,,,,,,,,,,,,,,,,,,,,,5ed7a7a467a98224295459ff,606cad28fd1999412342b5c2,2021-04-06_19h49.24.718,Colour_Similarity_Experiment,2020.2.10,Win32,60,6067542a4a25243f4d7d4fcf,16.94127706,16.68299057,16.69797727,16.66593333,16.66549519,16.68299057,,,,,,,,,,,,,,,,,,,,PF,strong,3,,,,,,,,2,1.77418,,,,,,,,,,,,,,,,,,,,,,,,,,,,9,strong,-79,-46,1,0,0,response5disk,9,89,8,2,1,0,0,rectangle,8,2,1,0,0,5,4,0.00072,8,2,1,0,0,0,88,88,17,1,0,,,,,,,,,,,,,,,,,,,,,
,,,,,,,,,,,,,,,,,,,,,,,,,,,,,,,,,,,,,,,,,,5ed7a7a467a98224295459ff,606cad28fd1999412342b5c2,2021-04-06_19h49.24.718,Colour_Similarity_Experiment,2020.2.10,Win32,60,6067542a4a25243f4d7d4fcf,16.94127706,16.68299057,16.69797727,16.66593333,16.66549519,16.68299057,,,,,,,,,,,,,,,,,,,,PF,strong,3,,,,,,,,6,1.81613,,,,,,,,,,,,,,,,,,,,,,,,,,,,9,strong,88,45,1,0,0,response1disk,6,90,-15,-7,1,0,0,rectangle,-15,-7,1,0,0,5,3,0.000625,-15,-7,1,0,0,0,89,89,117,1,0,,,,,,,,,,,,,,,,,,,,,
,,,,,,,,,,,,,,,,,,,,,,,,,,,,,,,,,,,,,,,,,,5ed7a7a467a98224295459ff,606cad28fd1999412342b5c2,2021-04-06_19h49.24.718,Colour_Similarity_Experiment,2020.2.10,Win32,60,6067542a4a25243f4d7d4fcf,16.94127706,16.68299057,16.69797727,16.66593333,16.66549519,16.68299057,,,,,,,,,,,,,,,,,,,,PF,weak,3,,,,,,,,3,1.708885,,,,,,,,,,,,,,,,,,,,,,,,,,,,5,weak,-74,-83,1,0,0,response5disk,7,91,-4,-2,1,0,0,rectangle,-4,-2,1,0,0,5,6,0.00062,-4,-2,1,0,0,0,90,90,146,1,0,,,,,,,,,,,,,,,,,,,,,
,,,,,,,,,,,,,,,,,,,,,,,,,,,,,,,,,,,,,,,,,,5ed7a7a467a98224295459ff,606cad28fd1999412342b5c2,2021-04-06_19h49.24.718,Colour_Similarity_Experiment,2020.2.10,Win32,60,6067542a4a25243f4d7d4fcf,16.94127706,16.68299057,16.69797727,16.66593333,16.66549519,16.68299057,,,,,,,,,,,,,,,,,,,,PF,strong,3,,,,,,,,2,1.75654,,,,,,,,,,,,,,,,,,,,,,,,,,,,1,strong,-89,-54,1,0,0,response5disk,9,92,-3,-6,1,0,0,rectangle,-3,-6,1,0,0,5,3,0.000785,-3,-6,1,0,0,0,91,91,123,1,0,,,,,,,,,,,,,,,,,,,,,
,,,,,,,,,,,,,,,,,,,,,,,,,,,,,,,,,,,,,,,,,,5ed7a7a467a98224295459ff,606cad28fd1999412342b5c2,2021-04-06_19h49.24.718,Colour_Similarity_Experiment,2020.2.10,Win32,60,6067542a4a25243f4d7d4fcf,16.94127706,16.68299057,16.69797727,16.66593333,16.66549519,16.68299057,,,,,,,,,,,,,,,,,,,,PF,strong,3,,,,,,,,3,2.41722,,,,,,,,,,,,,,,,,,,,,,,,,,,,2,strong,-38,-86,1,0,0,response5disk,3,93,11,-2,1,0,0,rectangle,94,60,1,0,0,6,6,2.11731,-9,-2,1,0,0,0,92,92,104,1,1,response1disk_3,rectangle,,,,,,,,,,,,,,,,,,,
,,,,,,,,,,,,,,,,,,,,,,,,,,,,,,,,,,,,,,,,,,5ed7a7a467a98224295459ff,606cad28fd1999412342b5c2,2021-04-06_19h49.24.718,Colour_Similarity_Experiment,2020.2.10,Win32,60,6067542a4a25243f4d7d4fcf,16.94127706,16.68299057,16.69797727,16.66593333,16.66549519,16.68299057,,,,,,,,,,,,,,,,,,,,PF,weak,3,,,,,,,,6,1.190365,,,,,,,,,,,,,,,,,,,,,,,,,,,,1,weak,103,31,1,0,0,response1disk,4,94,-7,-10,1,0,0,rectangle,-7,-10,1,0,0,6,4,0.001075,-7,-10,1,0,0,0,93,93,139,1,0,,,,,,,,,,,,,,,,,,,,,
,,,,,,,,,,,,,,,,,,,,,,,,,,,,,,,,,,,,,,,,,,5ed7a7a467a98224295459ff,606cad28fd1999412342b5c2,2021-04-06_19h49.24.718,Colour_Similarity_Experiment,2020.2.10,Win32,60,6067542a4a25243f4d7d4fcf,16.94127706,16.68299057,16.69797727,16.66593333,16.66549519,16.68299057,,,,,,,,,,,,,,,,,,,,PF,strong,3,,,,,,,,7,1.43967,,,,,,,,,,,,,,,,,,,,,,,,,,,,3,strong,73,100,1,0,0,response1disk,7,95,4,-3,1,0,0,rectangle,4,-3,1,0,0,6,4,0.000135,4,-3,1,0,0,0,94,94,118,1,0,,,,,,,,,,,,,,,,,,,,,
,,,,,,,,,,,,,,,,,,,,,,,,,,,,,,,,,,,,,,,,,,5ed7a7a467a98224295459ff,606cad28fd1999412342b5c2,2021-04-06_19h49.24.718,Colour_Similarity_Experiment,2020.2.10,Win32,60,6067542a4a25243f4d7d4fcf,16.94127706,16.68299057,16.69797727,16.66593333,16.66549519,16.68299057,,,,,,,,,,,,,,,,,,,,PF,weak,3,,,,,,,,4,2.26637,,,,,,,,,,,,,,,,,,,,,,,,,,,,7,weak,38,-101,1,0,0,response3disk,9,96,-4,-2,1,0,0,rectangle,-4,-2,1,0,0,6,0,0.00083,-4,-2,1,0,0,0,95,95,10,1,0,,,,,,,,,,,,,,,,,,,,,
,,,,,,,,,,,,,,,,,,,,,,,,,,,,,,,,,,,,,,,,,,5ed7a7a467a98224295459ff,606cad28fd1999412342b5c2,2021-04-06_19h49.24.718,Colour_Similarity_Experiment,2020.2.10,Win32,60,6067542a4a25243f4d7d4fcf,16.94127706,16.68299057,16.69797727,16.66593333,16.66549519,16.68299057,,,,,,,,,,,,,,,,,,,,PF,weak,3,,,,,,,,6,1.225055,,,,,,,,,,,,,,,,,,,,,,,,,,,,9,weak,109,46,1,0,0,response1disk,5,97,-12,-6,1,0,0,rectangle,-12,-6,1,0,0,6,7,0.00067,-12,-6,1,0,0,0,96,96,134,1,0,,,,,,,,,,,,,,,,,,,,,
,,,,,,,,,,,,,,,,,,,,,,,,,,,,,,,,,,,,,,,,,,5ed7a7a467a98224295459ff,606cad28fd1999412342b5c2,2021-04-06_19h49.24.718,Colour_Similarity_Experiment,2020.2.10,Win32,60,6067542a4a25243f4d7d4fcf,16.94127706,16.68299057,16.69797727,16.66593333,16.66549519,16.68299057,,,,,,,,,,,,,,,,,,,,PF,strong,3,,,,,,,,6,1.472745,,,,,,,,,,,,,,,,,,,,,,,,,,,,8,strong,110,34,1,0,0,response1disk,6,98,1,-7,1,0,0,rectangle,1,-7,1,0,0,6,2,0.000695,1,-7,1,0,0,0,97,97,37,1,0,,,,,,,,,,,,,,,,,,,,,
,,,,,,,,,,,,,,,,,,,,,,,,,,,,,,,,,,,,,,,,,,5ed7a7a467a98224295459ff,606cad28fd1999412342b5c2,2021-04-06_19h49.24.718,Colour_Similarity_Experiment,2020.2.10,Win32,60,6067542a4a25243f4d7d4fcf,16.94127706,16.68299057,16.69797727,16.66593333,16.66549519,16.68299057,,,,,,,,,,,,,,,,,,,,PF,strong,3,,,,,,,,1,1.38292,,,,,,,,,,,,,,,,,,,,,,,,,,,,8,strong,-69,34,1,0,0,response7disk,9,99,1,-11,1,0,0,rectangle,1,-11,1,0,0,6,4,0.00061,1,-11,1,0,0,0,98,98,105,1,0,,,,,,,,,,,,,,,,,,,,,
,,,,,,,,,,,,,,,,,,,,,,,,,,,,,,,,,,,,,,,,,,5ed7a7a467a98224295459ff,606cad28fd1999412342b5c2,2021-04-06_19h49.24.718,Colour_Similarity_Experiment,2020.2.10,Win32,60,6067542a4a25243f4d7d4fcf,16.94127706,16.68299057,16.69797727,16.66593333,16.66549519,16.68299057,,,,,,,,,,,,,,,,,,,,PF,strong,3,,,,,,,,6,1.47399,,,,,,,,,,,,,,,,,,,,,,,,,,,,6,strong,94,46,1,0,0,response1disk,1,100,1,-7,1,0,0,rectangle,1,-7,1,0,0,6,7,0.00077,1,-7,1,0,0,0,99,99,5,1,0,,,,,,,,,,,,,,,,,,,,,
,,,,,,,,,,,,,,,,,,,,,,,,,,,,,,,,,,,,,,,,,,5ed7a7a467a98224295459ff,606cad28fd1999412342b5c2,2021-04-06_19h49.24.718,Colour_Similarity_Experiment,2020.2.10,Win32,60,6067542a4a25243f4d7d4fcf,16.94127706,16.68299057,16.69797727,16.66593333,16.66549519,16.68299057,,,,,,,,,,,,,,,,,,,,PF,weak,3,,,,,,,,7,1.39342,,,,,,,,,,,,,,,,,,,,,,,,,,,,4,weak,63,86,1,0,0,response1disk,8,101,-6,-6,1,0,0,rectangle,-6,-6,1,0,0,6,1,0.00076,-6,-6,1,0,0,0,100,100,124,1,0,,,,,,,,,,,,,,,,,,,,,
,,,,,,,,,,,,,,,,,,,,,,,,,,,,,,,,,,,,,,,,,,5ed7a7a467a98224295459ff,606cad28fd1999412342b5c2,2021-04-06_19h49.24.718,Colour_Similarity_Experiment,2020.2.10,Win32,60,6067542a4a25243f4d7d4fcf,16.94127706,16.68299057,16.69797727,16.66593333,16.66549519,16.68299057,,,,,,,,,,,,,,,,,,,,PF,strong,3,,,,,,,,5,1.334735,,,,,,,,,,,,,,,,,,,,,,,,,,,,3,strong,77,-49,1,0,0,response3disk,5,102,0,-8,1,0,0,rectangle,0,-8,1,0,0,6,7,0.00069,0,-8,1,0,0,0,101,101,101,1,0,,,,,,,,,,,,,,,,,,,,,
,,,,,,,,,,,,,,,,,,,,,,,,,,,,,,,,,,,,,,,,,,5ed7a7a467a98224295459ff,606cad28fd1999412342b5c2,2021-04-06_19h49.24.718,Colour_Similarity_Experiment,2020.2.10,Win32,60,6067542a4a25243f4d7d4fcf,16.94127706,16.68299057,16.69797727,16.66593333,16.66549519,16.68299057,,,,,,,,,,,,,,,,,,,,PF,strong,3,,,,,,,,6,1.292855,,,,,,,,,,,,,,,,,,,,,,,,,,,,1,strong,89,31,1,0,0,response1disk,4,103,-5,-9,1,0,0,rectangle,-5,-9,1,0,0,6,0,0.000855,-5,-9,1,0,0,0,102,102,135,1,0,,,,,,,,,,,,,,,,,,,,,
,,,,,,,,,,,,,,,,,,,,,,,,,,,,,,,,,,,,,,,,,,5ed7a7a467a98224295459ff,606cad28fd1999412342b5c2,2021-04-06_19h49.24.718,Colour_Similarity_Experiment,2020.2.10,Win32,60,6067542a4a25243f4d7d4fcf,16.94127706,16.68299057,16.69797727,16.66593333,16.66549519,16.68299057,,,,,,,,,,,,,,,,,,,,PF,weak,3,,,,,,,,6,2.500255,,,,,,,,,,,,,,,,,,,,,,,,,,,,7,weak,100,51,1,0,0,response1disk,3,104,9,-4,1,0,0,rectangle,9,-4,1,0,0,6,4,0.000685,9,-4,1,0,0,0,103,103,81,1,0,,,,,,,,,,,,,,,,,,,,,
,,,,,,,,,,,,,,,,,,,,,,,,,,,,,,,,,,,,,,,,,,5ed7a7a467a98224295459ff,606cad28fd1999412342b5c2,2021-04-06_19h49.24.718,Colour_Similarity_Experiment,2020.2.10,Win32,60,6067542a4a25243f4d7d4fcf,16.94127706,16.68299057,16.69797727,16.66593333,16.66549519,16.68299057,,,,,,,,,,,,,,,,,,,,PF,weak,3,,,,,,,,6,2.075595,,,,,,,,,,,,,,,,,,,,,,,,,,,,2,weak,80,55,1,0,0,response1disk,6,105,-6,-2,1,0,0,rectangle,-6,-2,1,0,0,6,3,0.001425,-6,-2,1,0,0,0,104,104,113,1,0,,,,,,,,,,,,,,,,,,,,,
,,,,,,,,,,,,,,,,,,,,,,,,,,,,,,,,,,,,,,,,,,5ed7a7a467a98224295459ff,606cad28fd1999412342b5c2,2021-04-06_19h49.24.718,Colour_Similarity_Experiment,2020.2.10,Win32,60,6067542a4a25243f4d7d4fcf,16.94127706,16.68299057,16.69797727,16.66593333,16.66549519,16.68299057,,,,,,,,,,,,,,,,,,,,PF,strong,3,,,,,,,,2,1.56575,,,,,,,,,,,,,,,,,,,,,,,,,,,,7,strong,-88,-53,1,0,0,response5disk,5,106,1,0,1,0,0,rectangle,1,0,1,0,0,6,6,0.000735,1,0,1,0,0,0,105,105,156,1,0,,,,,,,,,,,,,,,,,,,,,
,,,,,,,,,,,,,,,,,,,,,,,,,,,,,,,,,,,,,,,,,,5ed7a7a467a98224295459ff,606cad28fd1999412342b5c2,2021-04-06_19h49.24.718,Colour_Similarity_Experiment,2020.2.10,Win32,60,6067542a4a25243f4d7d4fcf,16.94127706,16.68299057,16.69797727,16.66593333,16.66549519,16.68299057,,,,,,,,,,,,,,,,,,,,PF,strong,3,,,,,,,,4,2.725075,,,,,,,,,,,,,,,,,,,,,,,,,,,,9,strong,42,-102,1,0,0,response3disk,7,107,5,-7,1,0,0,rectangle,5,-7,1,0,0,6,2,0.00066,5,-7,1,0,0,0,106,106,100,1,0,,,,,,,,,,,,,,,,,,,,,
,,,,,,,,,,,,,,,,,,,,,,,,,,,,,,,,,,,,,,,,,,5ed7a7a467a98224295459ff,606cad28fd1999412342b5c2,2021-04-06_19h49.24.718,Colour_Similarity_Experiment,2020.2.10,Win32,60,6067542a4a25243f4d7d4fcf,16.94127706,16.68299057,16.69797727,16.66593333,16.66549519,16.68299057,,,,,,,,,,,,,,,,,,,,PF,weak,3,,,,,,,,6,1.49146,,,,,,,,,,,,,,,,,,,,,,,,,,,,4,weak,118,38,1,0,0,response1disk,9,108,2,-5,1,0,0,rectangle,2,-5,1,0,0,6,7,0.00072,2,-5,1,0,0,0,107,107,75,1,0,,,,,,,,,,,,,,,,,,,,,
,,,,,,,,,,,,,,,,,,,,,,,,,,,,,,,,,,,,,,,,,,5ed7a7a467a98224295459ff,606cad28fd1999412342b5c2,2021-04-06_19h49.24.718,Colour_Similarity_Experiment,2020.2.10,Win32,60,6067542a4a25243f4d7d4fcf,16.94127706,16.68299057,16.69797727,16.66593333,16.66549519,16.68299057,,,,,,,,,,,,,,,,,,,,PF,strong,3,,,,,,,,3,1.541775,,,,,,,,,,,,,,,,,,,,,,,,,,,,6,strong,-74,-108,1,0,0,response5disk,7,109,9,3,1,0,0,rectangle,9,3,1,0,0,6,3,0.000705,9,3,1,0,0,0,108,108,18,1,0,,,,,,,,,,,,,,,,,,,,,
,,,,,,,,,,,,,,,,,,,,,,,,,,,,,,,,,,,,,,,,,,5ed7a7a467a98224295459ff,606cad28fd1999412342b5c2,2021-04-06_19h49.24.718,Colour_Similarity_Experiment,2020.2.10,Win32,60,6067542a4a25243f4d7d4fcf,16.94127706,16.68299057,16.69797727,16.66593333,16.66549519,16.68299057,,,,,,,,,,,,,,,,,,,,PF,strong,3,,,,,,,,5,1.825395,,,,,,,,,,,,,,,,,,,,,,,,,,,,1,strong,50,-38,1,0,0,response3disk,3,110,-1,-6,1,0,0,rectangle,-1,-6,1,0,0,6,4,0.000635,-1,-6,1,0,0,0,109,109,99,1,0,,,,,,,,,,,,,,,,,,,,,
,,,,,,,,,,,,,,,,,,,,,,,,,,,,,,,,,,,,,,,,,,5ed7a7a467a98224295459ff,606cad28fd1999412342b5c2,2021-04-06_19h49.24.718,Colour_Similarity_Experiment,2020.2.10,Win32,60,6067542a4a25243f4d7d4fcf,16.94127706,16.68299057,16.69797727,16.66593333,16.66549519,16.68299057,,,,,,,,,,,,,,,,,,,,PF,weak,3,,,,,,,,6,1.40913,,,,,,,,,,,,,,,,,,,,,,,,,,,,5,weak,86,50,1,0,0,response1disk,2,111,-8,-8,1,0,0,rectangle,-8,-8,1,0,0,6,2,0.000665,-8,-8,1,0,0,0,110,110,129,1,0,,,,,,,,,,,,,,,,,,,,,
,,,,,,,,,,,,,,,,,,,,,,,,,,,,,,,,,,,,,,,,,,5ed7a7a467a98224295459ff,606cad28fd1999412342b5c2,2021-04-06_19h49.24.718,Colour_Similarity_Experiment,2020.2.10,Win32,60,6067542a4a25243f4d7d4fcf,16.94127706,16.68299057,16.69797727,16.66593333,16.66549519,16.68299057,,,,,,,,,,,,,,,,,,,,PF,strong,3,,,,,,,,4,2.849725,,,,,,,,,,,,,,,,,,,,,,,,,,,,6,strong,59,-93,1,0,0,response3disk,4,112,-5,-11,1,0,0,rectangle,-5,-11,1,0,0,6,4,0.00061,-5,-11,1,0,0,0,111,111,56,1,0,,,,,,,,,,,,,,,,,,,,,
,,,,,,,,,,,,,,,,,,,,,,,,,,,,,,,,,,,,,,,,,,5ed7a7a467a98224295459ff,606cad28fd1999412342b5c2,2021-04-06_19h49.24.718,Colour_Similarity_Experiment,2020.2.10,Win32,60,6067542a4a25243f4d7d4fcf,16.94127706,16.68299057,16.69797727,16.66593333,16.66549519,16.68299057,,,,,,,,,,,,,,,,,,,,PF,weak,3,,,,,,,,2,2.52471,,,,,,,,,,,,,,,,,,,,,,,,,,,,1,weak,-124,-39,1,0,0,response5disk,9,113,-28,4,1,0,0,rectangle,-28,4,1,0,0,6,0,0.000655,-28,4,1,0,0,0,112,112,15,1,0,,,,,,,,,,,,,,,,,,,,,
,,,,,,,,,,,,,,,,,,,,,,,,,,,,,,,,,,,,,,,,,,5ed7a7a467a98224295459ff,606cad28fd1999412342b5c2,2021-04-06_19h49.24.718,Colour_Similarity_Experiment,2020.2.10,Win32,60,6067542a4a25243f4d7d4fcf,16.94127706,16.68299057,16.69797727,16.66593333,16.66549519,16.68299057,,,,,,,,,,,,,,,,,,,,PF,strong,3,,,,,,,,6,1.44891,,,,,,,,,,,,,,,,,,,,,,,,,,,,3,strong,106,39,1,0,0,response1disk,1,114,-21,-13,1,0,0,rectangle,-21,-13,1,0,0,6,0,0.000105,-21,-13,1,0,0,0,113,113,125,1,0,,,,,,,,,,,,,,,,,,,,,
,,,,,,,,,,,,,,,,,,,,,,,,,,,,,,,,,,,,,,,,,,5ed7a7a467a98224295459ff,606cad28fd1999412342b5c2,2021-04-06_19h49.24.718,Colour_Similarity_Experiment,2020.2.10,Win32,60,6067542a4a25243f4d7d4fcf,16.94127706,16.68299057,16.69797727,16.66593333,16.66549519,16.68299057,,,,,,,,,,,,,,,,,,,,PF,weak,3,,,,,,,,2,2.0599,,,,,,,,,,,,,,,,,,,,,,,,,,,,5,weak,-118,-31,1,0,0,response5disk,6,115,-12,3,1,0,0,rectangle,-12,3,1,0,0,6,5,0.00065,-12,3,1,0,0,0,114,114,103,1,0,,,,,,,,,,,,,,,,,,,,,
,,,,,,,,,,,,,,,,,,,,,,,,,,,,,,,,,,,,,,,,,,5ed7a7a467a98224295459ff,606cad28fd1999412342b5c2,2021-04-06_19h49.24.718,Colour_Similarity_Experiment,2020.2.10,Win32,60,6067542a4a25243f4d7d4fcf,16.94127706,16.68299057,16.69797727,16.66593333,16.66549519,16.68299057,,,,,,,,,,,,,,,,,,,,PF,weak,3,,,,,,,,2,2.05032,,,,,,,,,,,,,,,,,,,,,,,,,,,,6,weak,-102,-40,1,0,0,response5disk,6,116,-5,2,1,0,0,rectangle,-5,2,1,0,0,6,3,0.00071,-5,2,1,0,0,0,115,115,0,1,0,,,,,,,,,,,,,,,,,,,,,
,,,,,,,,,,,,,,,,,,,,,,,,,,,,,,,,,,,,,,,,,,5ed7a7a467a98224295459ff,606cad28fd1999412342b5c2,2021-04-06_19h49.24.718,Colour_Similarity_Experiment,2020.2.10,Win32,60,6067542a4a25243f4d7d4fcf,16.94127706,16.68299057,16.69797727,16.66593333,16.66549519,16.68299057,,,,,,,,,,,,,,,,,,,,PF,weak,3,,,,,,,,5,2.475215,,,,,,,,,,,,,,,,,,,,,,,,,,,,1,weak,77,-39,1,0,0,response3disk,7,117,6,-6,1,0,0,rectangle,6,-6,1,0,0,6,4,0.000835,6,-6,1,0,0,0,116,116,150,1,0,,,,,,,,,,,,,,,,,,,,,
,,,,,,,,,,,,,,,,,,,,,,,,,,,,,,,,,,,,,,,,,,5ed7a7a467a98224295459ff,606cad28fd1999412342b5c2,2021-04-06_19h49.24.718,Colour_Similarity_Experiment,2020.2.10,Win32,60,6067542a4a25243f4d7d4fcf,16.94127706,16.68299057,16.69797727,16.66593333,16.66549519,16.68299057,,,,,,,,,,,,,,,,,,,,PF,strong,3,,,,,,,,6,1.823565,,,,,,,,,,,,,,,,,,,,,,,,,,,,2,strong,101,43,1,0,0,response1disk,9,118,4,-7,1,0,0,rectangle,4,-7,1,0,0,6,6,0.000695,4,-7,1,0,0,0,117,117,72,1,0,,,,,,,,,,,,,,,,,,,,,
,,,,,,,,,,,,,,,,,,,,,,,,,,,,,,,,,,,,,,,,,,5ed7a7a467a98224295459ff,606cad28fd1999412342b5c2,2021-04-06_19h49.24.718,Colour_Similarity_Experiment,2020.2.10,Win32,60,6067542a4a25243f4d7d4fcf,16.94127706,16.68299057,16.69797727,16.66593333,16.66549519,16.68299057,,,,,,,,,,,,,,,,,,,,PF,weak,3,,,,,,,,6,2.06472,,,,,,,,,,,,,,,,,,,,,,,,,,,,3,weak,93,48,1,0,0,response1disk,5,119,2,-4,1,0,0,rectangle,2,-4,1,0,0,6,1,0.00217,2,-4,1,0,0,0,118,118,66,1,0,,,,,,,,,,,,,,,,,,,,,
,,,,,,,,,,,,,,,,,,,,,,,,,,,,,,,,,,,,,,,,,,5ed7a7a467a98224295459ff,606cad28fd1999412342b5c2,2021-04-06_19h49.24.718,Colour_Similarity_Experiment,2020.2.10,Win32,60,6067542a4a25243f4d7d4fcf,16.94127706,16.68299057,16.69797727,16.66593333,16.66549519,16.68299057,,,,,,,,,,,,,,,,,,,,PF,strong,3,,,,,,,,5,2.449515,,,,,,,,,,,,,,,,,,,,,,,,,,,,7,strong,77,-49,1,0,0,response3disk,1,120,-5,5,1,0,0,rectangle,-5,5,1,0,0,6,2,0.00072,-5,5,1,0,0,0,119,119,132,1,0,,,,,,,,,,,,,,,,,,,,,
,,,,,,,,,,,,,,,,,,,,,,,,,,,,,,,,,,,,,,,,,,5ed7a7a467a98224295459ff,606cad28fd1999412342b5c2,2021-04-06_19h49.24.718,Colour_Similarity_Experiment,2020.2.10,Win32,60,6067542a4a25243f4d7d4fcf,16.94127706,16.68299057,16.69797727,16.66593333,16.66549519,16.68299057,,,,,,,,,,,,,,,,,,,,PF,strong,3,,,,,,,,3,1.72398,,,,,,,,,,,,,,,,,,,,,,,,,,,,5,strong,-55,-90,1,0,0,response5disk,6,121,5,-5,1,0,0,rectangle,5,-5,1,0,0,6,1,0.000795,5,-5,1,0,0,0,120,120,12,1,0,,,,,,,,,,,,,,,,,,,,,
,,,,,,,,,,,,,,,,,,,,,,,,,,,,,,,,,,,,,,,,,,5ed7a7a467a98224295459ff,606cad28fd1999412342b5c2,2021-04-06_19h49.24.718,Colour_Similarity_Experiment,2020.2.10,Win32,60,6067542a4a25243f4d7d4fcf,16.94127706,16.68299057,16.69797727,16.66593333,16.66549519,16.68299057,,,,,,,,,,,,,,,,,,,,PF,strong,3,,,,,,,,5,1.49244,,,,,,,,,,,,,,,,,,,,,,,,,,,,9,strong,121,-53,1,0,0,response3disk,4,122,3,-3,1,0,0,rectangle,3,-3,1,0,0,6,1,9E-05,3,-3,1,0,0,0,121,121,60,1,0,,,,,,,,,,,,,,,,,,,,,
,,,,,,,,,,,,,,,,,,,,,,,,,,,,,,,,,,,,,,,,,,5ed7a7a467a98224295459ff,606cad28fd1999412342b5c2,2021-04-06_19h49.24.718,Colour_Similarity_Experiment,2020.2.10,Win32,60,6067542a4a25243f4d7d4fcf,16.94127706,16.68299057,16.69797727,16.66593333,16.66549519,16.68299057,,,,,,,,,,,,,,,,,,,,PF,strong,3,,,,,,,,3,2.01622,,,,,,,,,,,,,,,,,,,,,,,,,,,,7,strong,-52,-102,1,0,0,response5disk,7,123,5,-7,1,0,0,rectangle,5,-7,1,0,0,6,3,0.00076,5,-7,1,0,0,0,122,122,34,1,0,,,,,,,,,,,,,,,,,,,,,
,,,,,,,,,,,,,,,,,,,,,,,,,,,,,,,,,,,,,,,,,,5ed7a7a467a98224295459ff,606cad28fd1999412342b5c2,2021-04-06_19h49.24.718,Colour_Similarity_Experiment,2020.2.10,Win32,60,6067542a4a25243f4d7d4fcf,16.94127706,16.68299057,16.69797727,16.66593333,16.66549519,16.68299057,,,,,,,,,,,,,,,,,,,,PF,weak,3,,,,,,,,5,1.442685,,,,,,,,,,,,,,,,,,,,,,,,,,,,6,weak,91,-36,1,0,0,response3disk,8,124,16,-2,1,0,0,rectangle,16,-2,1,0,0,6,0,0.000725,16,-2,1,0,0,0,123,123,64,1,0,,,,,,,,,,,,,,,,,,,,,
,,,,,,,,,,,,,,,,,,,,,,,,,,,,,,,,,,,,,,,,,,5ed7a7a467a98224295459ff,606cad28fd1999412342b5c2,2021-04-06_19h49.24.718,Colour_Similarity_Experiment,2020.2.10,Win32,60,6067542a4a25243f4d7d4fcf,16.94127706,16.68299057,16.69797727,16.66593333,16.66549519,16.68299057,,,,,,,,,,,,,,,,,,,,PF,strong,3,,,,,,,,5,2.665975,,,,,,,,,,,,,,,,,,,,,,,,,,,,5,strong,110,-34,1,0,0,response3disk,1,125,-22,5,1,0,0,rectangle,-22,5,1,0,0,6,5,0.00069,-22,5,1,0,0,0,124,124,131,1,0,,,,,,,,,,,,,,,,,,,,,
,,,,,,,,,,,,,,,,,,,,,,,,,,,,,,,,,,,,,,,,,,5ed7a7a467a98224295459ff,606cad28fd1999412342b5c2,2021-04-06_19h49.24.718,Colour_Similarity_Experiment,2020.2.10,Win32,60,6067542a4a25243f4d7d4fcf,16.94127706,16.68299057,16.69797727,16.66593333,16.66549519,16.68299057,,,,,,,,,,,,,,,,,,,,PF,strong,3,,,,,,,,4,1.41565,,,,,,,,,,,,,,,,,,,,,,,,,,,,5,strong,57,-111,1,0,0,response3disk,3,126,10,-19,1,0,0,rectangle,10,-19,1,0,0,6,7,0.000745,10,-19,1,0,0,0,125,125,25,1,0,,,,,,,,,,,,,,,,,,,,,
,,,,,,,,,,,,,,,,,,,,,,,,,,,,,,,,,,,,,,,,,,5ed7a7a467a98224295459ff,606cad28fd1999412342b5c2,2021-04-06_19h49.24.718,Colour_Similarity_Experiment,2020.2.10,Win32,60,6067542a4a25243f4d7d4fcf,16.94127706,16.68299057,16.69797727,16.66593333,16.66549519,16.68299057,,,,,,,,,,,,,,,,,,,,PF,weak,3,,,,,,,,6,1.29003,,,,,,,,,,,,,,,,,,,,,,,,,,,,2,weak,127,44,1,0,0,response1disk,7,127,-2,-6,1,0,0,rectangle,-2,-6,1,0,0,6,6,0.00062,-2,-6,1,0,0,0,126,126,107,1,0,,,,,,,,,,,,,,,,,,,,,
,,,,,,,,,,,,,,,,,,,,,,,,,,,,,,,,,,,,,,,,,,5ed7a7a467a98224295459ff,606cad28fd1999412342b5c2,2021-04-06_19h49.24.718,Colour_Similarity_Experiment,2020.2.10,Win32,60,6067542a4a25243f4d7d4fcf,16.94127706,16.68299057,16.69797727,16.66593333,16.66549519,16.68299057,,,,,,,,,,,,,,,,,,,,PF,strong,3,,,,,,,,5,1.533145,,,,,,,,,,,,,,,,,,,,,,,,,,,,7,strong,96,-39,1,0,0,response3disk,4,128,-3,3,1,0,0,rectangle,-3,3,1,0,0,6,5,0.000635,-3,3,1,0,0,0,127,127,158,1,0,,,,,,,,,,,,,,,,,,,,,
,,,,,,,,,,,,,,,,,,,,,,,,,,,,,,,,,,,,,,,,,,5ed7a7a467a98224295459ff,606cad28fd1999412342b5c2,2021-04-06_19h49.24.718,Colour_Similarity_Experiment,2020.2.10,Win32,60,6067542a4a25243f4d7d4fcf,16.94127706,16.68299057,16.69797727,16.66593333,16.66549519,16.68299057,,,,,,,,,,,,,,,,,,,,PF,strong,3,,,,,,,,6,1.953365,,,,,,,,,,,,,,,,,,,,,,,,,,,,3,strong,91,70,1,0,0,response1disk,8,129,4,-3,1,0,0,rectangle,4,-3,1,0,0,6,7,0.000585,4,-3,1,0,0,0,128,128,44,1,0,,,,,,,,,,,,,,,,,,,,,
,,,,,,,,,,,,,,,,,,,,,,,,,,,,,,,,,,,,,,,,,,5ed7a7a467a98224295459ff,606cad28fd1999412342b5c2,2021-04-06_19h49.24.718,Colour_Similarity_Experiment,2020.2.10,Win32,60,6067542a4a25243f4d7d4fcf,16.94127706,16.68299057,16.69797727,16.66593333,16.66549519,16.68299057,,,,,,,,,,,,,,,,,,,,PF,weak,3,,,,,,,,4,1.413805,,,,,,,,,,,,,,,,,,,,,,,,,,,,9,weak,43,-90,1,0,0,response3disk,1,130,-17,-1,1,0,0,rectangle,-17,-1,1,0,0,6,0,0.00073,-17,-1,1,0,0,0,129,129,74,1,0,,,,,,,,,,,,,,,,,,,,,
,,,,,,,,,,,,,,,,,,,,,,,,,,,,,,,,,,,,,,,,,,5ed7a7a467a98224295459ff,606cad28fd1999412342b5c2,2021-04-06_19h49.24.718,Colour_Similarity_Experiment,2020.2.10,Win32,60,6067542a4a25243f4d7d4fcf,16.94127706,16.68299057,16.69797727,16.66593333,16.66549519,16.68299057,,,,,,,,,,,,,,,,,,,,PF,strong,3,,,,,,,,3,1.21695,,,,,,,,,,,,,,,,,,,,,,,,,,,,5,strong,-53,-89,1,0,0,response5disk,7,131,18,11,1,0,0,rectangle,18,11,1,0,0,6,0,0.00015,18,11,1,0,0,0,130,130,7,1,0,,,,,,,,,,,,,,,,,,,,,
,,,,,,,,,,,,,,,,,,,,,,,,,,,,,,,,,,,,,,,,,,5ed7a7a467a98224295459ff,606cad28fd1999412342b5c2,2021-04-06_19h49.24.718,Colour_Similarity_Experiment,2020.2.10,Win32,60,6067542a4a25243f4d7d4fcf,16.94127706,16.68299057,16.69797727,16.66593333,16.66549519,16.68299057,,,,,,,,,,,,,,,,,,,,PF,weak,3,,,,,,,,6,1.143125,,,,,,,,,,,,,,,,,,,,,,,,,,,,5,weak,92,45,1,0,0,response1disk,1,132,-3,-12,1,0,0,rectangle,-130,38,1,0,0,1,1,1.933365,-1,3,1,0,0,0,131,131,159,1,1,response7disk_3,rectangle,,,,,,,,,,,,,,,,,,,
,,,,,,,,,,,,,,,,,,,,,,,,,,,,,,,,,,,,,,,,,,5ed7a7a467a98224295459ff,606cad28fd1999412342b5c2,2021-04-06_19h49.24.718,Colour_Similarity_Experiment,2020.2.10,Win32,60,6067542a4a25243f4d7d4fcf,16.94127706,16.68299057,16.69797727,16.66593333,16.66549519,16.68299057,,,,,,,,,,,,,,,,,,,,PF,strong,3,,,,,,,,4,1.58294,,,,,,,,,,,,,,,,,,,,,,,,,,,,6,strong,40,-120,1,0,0,response3disk,8,133,-16,-5,1,0,0,rectangle,-16,-5,1,0,0,1,1,0.0001,-16,-5,1,0,0,0,132,132,133,1,0,,,,,,,,,,,,,,,,,,,,,
,,,,,,,,,,,,,,,,,,,,,,,,,,,,,,,,,,,,,,,,,,5ed7a7a467a98224295459ff,606cad28fd1999412342b5c2,2021-04-06_19h49.24.718,Colour_Similarity_Experiment,2020.2.10,Win32,60,6067542a4a25243f4d7d4fcf,16.94127706,16.68299057,16.69797727,16.66593333,16.66549519,16.68299057,,,,,,,,,,,,,,,,,,,,PF,weak,3,,,,,,,,6,1.409095,,,,,,,,,,,,,,,,,,,,,,,,,,,,1,weak,119,38,1,0,0,response1disk,2,134,-1,-3,1,0,0,rectangle,-1,-3,1,0,0,1,4,0.000935,-1,-3,1,0,0,0,133,133,24,1,0,,,,,,,,,,,,,,,,,,,,,
,,,,,,,,,,,,,,,,,,,,,,,,,,,,,,,,,,,,,,,,,,5ed7a7a467a98224295459ff,606cad28fd1999412342b5c2,2021-04-06_19h49.24.718,Colour_Similarity_Experiment,2020.2.10,Win32,60,6067542a4a25243f4d7d4fcf,16.94127706,16.68299057,16.69797727,16.66593333,16.66549519,16.68299057,,,,,,,,,,,,,,,,,,,,PF,strong,3,,,,,,,,6,1.85633,,,,,,,,,,,,,,,,,,,,,,,,,,,,8,strong,91,55,1,0,0,response1disk,4,135,13,-10,1,0,0,rectangle,13,-10,1,0,0,1,4,0.0001,13,-10,1,0,0,0,134,134,88,1,0,,,,,,,,,,,,,,,,,,,,,
,,,,,,,,,,,,,,,,,,,,,,,,,,,,,,,,,,,,,,,,,,5ed7a7a467a98224295459ff,606cad28fd1999412342b5c2,2021-04-06_19h49.24.718,Colour_Similarity_Experiment,2020.2.10,Win32,60,6067542a4a25243f4d7d4fcf,16.94127706,16.68299057,16.69797727,16.66593333,16.66549519,16.68299057,,,,,,,,,,,,,,,,,,,,PF,strong,3,,,,,,,,5,3.488975,,,,,,,,,,,,,,,,,,,,,,,,,,,,4,strong,103,-39,1,0,0,response3disk,8,136,-3,0,1,0,0,rectangle,-3,0,1,0,0,1,7,0.00082,-3,0,1,0,0,0,135,135,35,1,0,,,,,,,,,,,,,,,,,,,,,
,,,,,,,,,,,,,,,,,,,,,,,,,,,,,,,,,,,,,,,,,,5ed7a7a467a98224295459ff,606cad28fd1999412342b5c2,2021-04-06_19h49.24.718,Colour_Similarity_Experiment,2020.2.10,Win32,60,6067542a4a25243f4d7d4fcf,16.94127706,16.68299057,16.69797727,16.66593333,16.66549519,16.68299057,,,,,,,,,,,,,,,,,,,,PF,weak,3,,,,,,,,6,1.066385,,,,,,,,,,,,,,,,,,,,,,,,,,,,4,weak,100,36,1,0,0,response1disk,1,137,5,-5,1,0,0,rectangle,5,-5,1,0,0,1,6,0.00074,5,-5,1,0,0,0,136,136,115,1,0,,,,,,,,,,,,,,,,,,,,,
,,,,,,,,,,,,,,,,,,,,,,,,,,,,,,,,,,,,,,,,,,5ed7a7a467a98224295459ff,606cad28fd1999412342b5c2,2021-04-06_19h49.24.718,Colour_Similarity_Experiment,2020.2.10,Win32,60,6067542a4a25243f4d7d4fcf,16.94127706,16.68299057,16.69797727,16.66593333,16.66549519,16.68299057,,,,,,,,,,,,,,,,,,,,PF,strong,3,,,,,,,,4,1.67559,,,,,,,,,,,,,,,,,,,,,,,,,,,,3,strong,30,-72,1,0,0,response3disk,4,138,7,2,1,0,0,rectangle,7,2,1,0,0,1,7,0.00073,7,2,1,0,0,0,137,137,110,1,0,,,,,,,,,,,,,,,,,,,,,
,,,,,,,,,,,,,,,,,,,,,,,,,,,,,,,,,,,,,,,,,,5ed7a7a467a98224295459ff,606cad28fd1999412342b5c2,2021-04-06_19h49.24.718,Colour_Similarity_Experiment,2020.2.10,Win32,60,6067542a4a25243f4d7d4fcf,16.94127706,16.68299057,16.69797727,16.66593333,16.66549519,16.68299057,,,,,,,,,,,,,,,,,,,,PF,weak,3,,,,,,,,5,1.690335,,,,,,,,,,,,,,,,,,,,,,,,,,,,5,weak,112,-51,1,0,0,response3disk,8,139,0,3,1,0,0,rectangle,0,3,1,0,0,1,5,0.0007,0,3,1,0,0,0,138,138,149,1,0,,,,,,,,,,,,,,,,,,,,,
,,,,,,,,,,,,,,,,,,,,,,,,,,,,,,,,,,,,,,,,,,5ed7a7a467a98224295459ff,606cad28fd1999412342b5c2,2021-04-06_19h49.24.718,Colour_Similarity_Experiment,2020.2.10,Win32,60,6067542a4a25243f4d7d4fcf,16.94127706,16.68299057,16.69797727,16.66593333,16.66549519,16.68299057,,,,,,,,,,,,,,,,,,,,PF,strong,3,,,,,,,,3,1.599455,,,,,,,,,,,,,,,,,,,,,,,,,,,,7,strong,-57,-68,1,0,0,response5disk,8,140,-5,1,1,0,0,rectangle,-56,-105,1,0,0,3,3,2.032855,12,1,1,0,0,0,139,139,97,1,1,response5disk_3,rectangle,,,,,,,,,,,,,,,,,,,
,,,,,,,,,,,,,,,,,,,,,,,,,,,,,,,,,,,,,,,,,,5ed7a7a467a98224295459ff,606cad28fd1999412342b5c2,2021-04-06_19h49.24.718,Colour_Similarity_Experiment,2020.2.10,Win32,60,6067542a4a25243f4d7d4fcf,16.94127706,16.68299057,16.69797727,16.66593333,16.66549519,16.68299057,,,,,,,,,,,,,,,,,,,,PF,weak,3,,,,,,,,4,1.4166,,,,,,,,,,,,,,,,,,,,,,,,,,,,2,weak,38,-76,1,0,0,response3disk,9,141,3,-7,1,0,0,rectangle,3,-7,1,0,0,3,2,0.000695,3,-7,1,0,0,0,140,140,39,1,0,,,,,,,,,,,,,,,,,,,,,
,,,,,,,,,,,,,,,,,,,,,,,,,,,,,,,,,,,,,,,,,,5ed7a7a467a98224295459ff,606cad28fd1999412342b5c2,2021-04-06_19h49.24.718,Colour_Similarity_Experiment,2020.2.10,Win32,60,6067542a4a25243f4d7d4fcf,16.94127706,16.68299057,16.69797727,16.66593333,16.66549519,16.68299057,,,,,,,,,,,,,,,,,,,,PF,strong,3,,,,,,,,5,1.53211,,,,,,,,,,,,,,,,,,,,,,,,,,,,2,strong,119,-41,1,0,0,response3disk,4,142,-4,0,1,0,0,rectangle,-4,0,1,0,0,3,1,0.000595,-4,0,1,0,0,0,141,141,145,1,0,,,,,,,,,,,,,,,,,,,,,
,,,,,,,,,,,,,,,,,,,,,,,,,,,,,,,,,,,,,,,,,,5ed7a7a467a98224295459ff,606cad28fd1999412342b5c2,2021-04-06_19h49.24.718,Colour_Similarity_Experiment,2020.2.10,Win32,60,6067542a4a25243f4d7d4fcf,16.94127706,16.68299057,16.69797727,16.66593333,16.66549519,16.68299057,,,,,,,,,,,,,,,,,,,,PF,strong,3,,,,,,,,5,1.640325,,,,,,,,,,,,,,,,,,,,,,,,,,,,4,strong,101,-36,1,0,0,response3disk,7,143,4,0,1,0,0,rectangle,4,0,1,0,0,3,5,0.000695,4,0,1,0,0,0,142,142,87,1,0,,,,,,,,,,,,,,,,,,,,,
,,,,,,,,,,,,,,,,,,,,,,,,,,,,,,,,,,,,,,,,,,5ed7a7a467a98224295459ff,606cad28fd1999412342b5c2,2021-04-06_19h49.24.718,Colour_Similarity_Experiment,2020.2.10,Win32,60,6067542a4a25243f4d7d4fcf,16.94127706,16.68299057,16.69797727,16.66593333,16.66549519,16.68299057,,,,,,,,,,,,,,,,,,,,PF,strong,3,,,,,,,,4,1.972595,,,,,,,,,,,,,,,,,,,,,,,,,,,,1,strong,35,-95,1,0,0,response3disk,8,144,11,-12,1,0,0,rectangle,11,-12,1,0,0,3,3,0.000915,11,-12,1,0,0,0,143,143,27,1,0,,,,,,,,,,,,,,,,,,,,,
,,,,,,,,,,,,,,,,,,,,,,,,,,,,,,,,,,,,,,,,,,5ed7a7a467a98224295459ff,606cad28fd1999412342b5c2,2021-04-06_19h49.24.718,Colour_Similarity_Experiment,2020.2.10,Win32,60,6067542a4a25243f4d7d4fcf,16.94127706,16.68299057,16.69797727,16.66593333,16.66549519,16.68299057,,,,,,,,,,,,,,,,,,,,PF,weak,3,,,,,,,,4,1.689535,,,,,,,,,,,,,,,,,,,,,,,,,,,,4,weak,31,-89,1,0,0,response3disk,5,145,-7,-9,1,0,0,rectangle,-7,-9,1,0,0,3,1,0.001625,-7,-9,1,0,0,0,144,144,49,1,0,,,,,,,,,,,,,,,,,,,,,
,,,,,,,,,,,,,,,,,,,,,,,,,,,,,,,,,,,,,,,,,,5ed7a7a467a98224295459ff,606cad28fd1999412342b5c2,2021-04-06_19h49.24.718,Colour_Similarity_Experiment,2020.2.10,Win32,60,6067542a4a25243f4d7d4fcf,16.94127706,16.68299057,16.69797727,16.66593333,16.66549519,16.68299057,,,,,,,,,,,,,,,,,,,,PF,weak,3,,,,,,,,6,1.0726,,,,,,,,,,,,,,,,,,,,,,,,,,,,1,weak,98,55,1,0,0,response1disk,5,146,-8,-8,1,0,0,rectangle,-8,-8,1,0,0,3,4,0.000765,-8,-8,1,0,0,0,145,145,28,1,0,,,,,,,,,,,,,,,,,,,,,
,,,,,,,,,,,,,,,,,,,,,,,,,,,,,,,,,,,,,,,,,,5ed7a7a467a98224295459ff,606cad28fd1999412342b5c2,2021-04-06_19h49.24.718,Colour_Similarity_Experiment,2020.2.10,Win32,60,6067542a4a25243f4d7d4fcf,16.94127706,16.68299057,16.69797727,16.66593333,16.66549519,16.68299057,,,,,,,,,,,,,,,,,,,,PF,weak,3,,,,,,,,3,1.339405,,,,,,,,,,,,,,,,,,,,,,,,,,,,2,weak,-40,-87,1,0,0,response5disk,3,147,11,-7,1,0,0,rectangle,11,-7,1,0,0,3,6,0.00083,11,-7,1,0,0,0,146,146,69,1,0,,,,,,,,,,,,,,,,,,,,,
,,,,,,,,,,,,,,,,,,,,,,,,,,,,,,,,,,,,,,,,,,5ed7a7a467a98224295459ff,606cad28fd1999412342b5c2,2021-04-06_19h49.24.718,Colour_Similarity_Experiment,2020.2.10,Win32,60,6067542a4a25243f4d7d4fcf,16.94127706,16.68299057,16.69797727,16.66593333,16.66549519,16.68299057,,,,,,,,,,,,,,,,,,,,PF,strong,3,,,,,,,,4,1.9097,,,,,,,,,,,,,,,,,,,,,,,,,,,,8,strong,52,-79,1,0,0,response3disk,7,148,2,-8,1,0,0,rectangle,2,-8,1,0,0,3,5,0.000725,2,-8,1,0,0,0,147,147,86,1,0,,,,,,,,,,,,,,,,,,,,,
,,,,,,,,,,,,,,,,,,,,,,,,,,,,,,,,,,,,,,,,,,5ed7a7a467a98224295459ff,606cad28fd1999412342b5c2,2021-04-06_19h49.24.718,Colour_Similarity_Experiment,2020.2.10,Win32,60,6067542a4a25243f4d7d4fcf,16.94127706,16.68299057,16.69797727,16.66593333,16.66549519,16.68299057,,,,,,,,,,,,,,,,,,,,PF,strong,3,,,,,,,,6,1.509035,,,,,,,,,,,,,,,,,,,,,,,,,,,,7,strong,99,36,1,0,0,response1disk,2,149,0,-8,1,0,0,rectangle,0,-8,1,0,0,3,7,0.00065,0,-8,1,0,0,0,148,148,138,1,0,,,,,,,,,,,,,,,,,,,,,
,,,,,,,,,,,,,,,,,,,,,,,,,,,,,,,,,,,,,,,,,,5ed7a7a467a98224295459ff,606cad28fd1999412342b5c2,2021-04-06_19h49.24.718,Colour_Similarity_Experiment,2020.2.10,Win32,60,6067542a4a25243f4d7d4fcf,16.94127706,16.68299057,16.69797727,16.66593333,16.66549519,16.68299057,,,,,,,,,,,,,,,,,,,,PF,weak,3,,,,,,,,6,1.70798,,,,,,,,,,,,,,,,,,,,,,,,,,,,6,weak,96,46,1,0,0,response1disk,1,150,5,-8,1,0,0,rectangle,5,-8,1,0,0,3,7,9.5E-05,5,-8,1,0,0,0,149,149,46,1,0,,,,,,,,,,,,,,,,,,,,,
,,,,,,,,,,,,,,,,,,,,,,,,,,,,,,,,,,,,,,,,,,5ed7a7a467a98224295459ff,606cad28fd1999412342b5c2,2021-04-06_19h49.24.718,Colour_Similarity_Experiment,2020.2.10,Win32,60,6067542a4a25243f4d7d4fcf,16.94127706,16.68299057,16.69797727,16.66593333,16.66549519,16.68299057,,,,,,,,,,,,,,,,,,,,PF,weak,3,,,,,,,,5,2.02263,,,,,,,,,,,,,,,,,,,,,,,,,,,,2,weak,97,-67,1,0,0,response3disk,4,151,0,-9,1,0,0,rectangle,0,-9,1,0,0,3,4,0.000685,0,-9,1,0,0,0,150,150,127,1,0,,,,,,,,,,,,,,,,,,,,,
,,,,,,,,,,,,,,,,,,,,,,,,,,,,,,,,,,,,,,,,,,5ed7a7a467a98224295459ff,606cad28fd1999412342b5c2,2021-04-06_19h49.24.718,Colour_Similarity_Experiment,2020.2.10,Win32,60,6067542a4a25243f4d7d4fcf,16.94127706,16.68299057,16.69797727,16.66593333,16.66549519,16.68299057,,,,,,,,,,,,,,,,,,,,PF,weak,3,,,,,,,,6,1.422495,,,,,,,,,,,,,,,,,,,,,,,,,,,,6,weak,97,46,1,0,0,response1disk,3,152,6,-11,1,0,0,rectangle,6,-11,1,0,0,3,4,9.49999E-05,6,-11,1,0,0,0,151,151,26,1,0,,,,,,,,,,,,,,,,,,,,,
,,,,,,,,,,,,,,,,,,,,,,,,,,,,,,,,,,,,,,,,,,5ed7a7a467a98224295459ff,606cad28fd1999412342b5c2,2021-04-06_19h49.24.718,Colour_Similarity_Experiment,2020.2.10,Win32,60,6067542a4a25243f4d7d4fcf,16.94127706,16.68299057,16.69797727,16.66593333,16.66549519,16.68299057,,,,,,,,,,,,,,,,,,,,PF,weak,3,,,,,,,,6,1.173145,,,,,,,,,,,,,,,,,,,,,,,,,,,,9,weak,105,43,1,0,0,response1disk,3,153,-1,-6,1,0,0,rectangle,-1,-6,1,0,0,3,1,0.00069,-1,-6,1,0,0,0,152,152,119,1,0,,,,,,,,,,,,,,,,,,,,,
,,,,,,,,,,,,,,,,,,,,,,,,,,,,,,,,,,,,,,,,,,5ed7a7a467a98224295459ff,606cad28fd1999412342b5c2,2021-04-06_19h49.24.718,Colour_Similarity_Experiment,2020.2.10,Win32,60,6067542a4a25243f4d7d4fcf,16.94127706,16.68299057,16.69797727,16.66593333,16.66549519,16.68299057,,,,,,,,,,,,,,,,,,,,PF,strong,3,,,,,,,,5,1.55007,,,,,,,,,,,,,,,,,,,,,,,,,,,,6,strong,91,-73,1,0,0,response3disk,9,154,-9,-4,1,0,0,rectangle,-67,32,1,0,0,1,1,1.45142,3,-9,1,0,0,0,153,153,160,1,1,response7disk_3,rectangle,,,,,,,,,,,,,,,,,,,
,,,,,,,,,,,,,,,,,,,,,,,,,,,,,,,,,,,,,,,,,,5ed7a7a467a98224295459ff,606cad28fd1999412342b5c2,2021-04-06_19h49.24.718,Colour_Similarity_Experiment,2020.2.10,Win32,60,6067542a4a25243f4d7d4fcf,16.94127706,16.68299057,16.69797727,16.66593333,16.66549519,16.68299057,,,,,,,,,,,,,,,,,,,,PF,weak,3,,,,,,,,5,1.226885,,,,,,,,,,,,,,,,,,,,,,,,,,,,5,weak,107,-44,1,0,0,response3disk,4,155,2,1,1,0,0,rectangle,2,1,1,0,0,1,3,0.000635,2,1,1,0,0,0,154,154,54,1,0,,,,,,,,,,,,,,,,,,,,,
,,,,,,,,,,,,,,,,,,,,,,,,,,,,,,,,,,,,,,,,,,5ed7a7a467a98224295459ff,606cad28fd1999412342b5c2,2021-04-06_19h49.24.718,Colour_Similarity_Experiment,2020.2.10,Win32,60,6067542a4a25243f4d7d4fcf,16.94127706,16.68299057,16.69797727,16.66593333,16.66549519,16.68299057,,,,,,,,,,,,,,,,,,,,PF,weak,3,,,,,,,,2,1.42286,,,,,,,,,,,,,,,,,,,,,,,,,,,,9,weak,-93,-55,1,0,0,response5disk,8,156,-9,-5,1,0,0,rectangle,-9,-5,1,0,0,1,4,0.000745,-9,-5,1,0,0,0,155,155,67,1,0,,,,,,,,,,,,,,,,,,,,,
,,,,,,,,,,,,,,,,,,,,,,,,,,,,,,,,,,,,,,,,,,5ed7a7a467a98224295459ff,606cad28fd1999412342b5c2,2021-04-06_19h49.24.718,Colour_Similarity_Experiment,2020.2.10,Win32,60,6067542a4a25243f4d7d4fcf,16.94127706,16.68299057,16.69797727,16.66593333,16.66549519,16.68299057,,,,,,,,,,,,,,,,,,,,PF,weak,3,,,,,,,,4,1.49884,,,,,,,,,,,,,,,,,,,,,,,,,,,,4,weak,63,-90,1,0,0,response3disk,6,157,-2,-10,1,0,0,rectangle,-2,-10,1,0,0,1,7,0.00083,-2,-10,1,0,0,0,156,156,120,1,0,,,,,,,,,,,,,,,,,,,,,
,,,,,,,,,,,,,,,,,,,,,,,,,,,,,,,,,,,,,,,,,,5ed7a7a467a98224295459ff,606cad28fd1999412342b5c2,2021-04-06_19h49.24.718,Colour_Similarity_Experiment,2020.2.10,Win32,60,6067542a4a25243f4d7d4fcf,16.94127706,16.68299057,16.69797727,16.66593333,16.66549519,16.68299057,,,,,,,,,,,,,,,,,,,,PF,weak,3,,,,,,,,5,1.632895,,,,,,,,,,,,,,,,,,,,,,,,,,,,8,weak,102,-33,1,0,0,response3disk,6,158,-4,-4,1,0,0,rectangle,-89,46,1,0,0,1,1,1.76641,0,-7,1,0,0,0,157,157,161,1,1,response7disk_3,rectangle,,,,,,,,,,,,,,,,,,,
,,,,,,,,,,,,,,,,,,,,,,,,,,,,,,,,,,,,,,,,,,5ed7a7a467a98224295459ff,606cad28fd1999412342b5c2,2021-04-06_19h49.24.718,Colour_Similarity_Experiment,2020.2.10,Win32,60,6067542a4a25243f4d7d4fcf,16.94127706,16.68299057,16.69797727,16.66593333,16.66549519,16.68299057,,,,,,,,,,,,,,,,,,,,PF,weak,3,,,,,,,,6,1.274235,,,,,,,,,,,,,,,,,,,,,,,,,,,,8,weak,107,36,1,0,0,response1disk,3,159,0,-6,1,0,0,rectangle,0,-6,1,0,0,1,6,0.00067,0,-6,1,0,0,0,158,158,71,1,0,,,,,,,,,,,,,,,,,,,,,
,,,,,,,,,,,,,,,,,,,,,,,,,,,,,,,,,,,,,,,,,,5ed7a7a467a98224295459ff,606cad28fd1999412342b5c2,2021-04-06_19h49.24.718,Colour_Similarity_Experiment,2020.2.10,Win32,60,6067542a4a25243f4d7d4fcf,16.94127706,16.68299057,16.69797727,16.66593333,16.66549519,16.68299057,,,,,,,,,,,,,,,,,,,,PF,strong,3,,,,,,,,5,1.57262,,,,,,,,,,,,,,,,,,,,,,,,,,,,2,strong,104,-43,1,0,0,response3disk,1,160,-2,-1,1,0,0,rectangle,-2,-1,1,0,0,1,0,0.000925,-2,-1,1,0,0,0,159,159,85,1,0,,,,,,,,,,,,,,,,,,,,,
,,,,,,,,,,,,,,,,,,,,,,,,,,,,,,,,,,,,,,,,,,5ed7a7a467a98224295459ff,606cad28fd1999412342b5c2,2021-04-06_19h49.24.718,Colour_Similarity_Experiment,2020.2.10,Win32,60,6067542a4a25243f4d7d4fcf,16.94127706,16.68299057,16.69797727,16.66593333,16.66549519,16.68299057,,,,,,,,,,,,,,,,,,,,PF,weak,3,,,,,,,,3,2.150635,,,,,,,,,,,,,,,,,,,,,,,,,,,,7,weak,-45,-103,1,0,0,response5disk,8,161,-10,-11,1,0,0,rectangle,-10,-11,1,0,0,1,0,9E-05,-10,-11,1,0,0,0,160,160,140,1,0,,,,,,,,,,,,,,,,,,,,,
,,,,,,,,,,,,,,,,,,,,,,,,,,,,,,,,,,,,,,,,,,5ed7a7a467a98224295459ff,606cad28fd1999412342b5c2,2021-04-06_19h49.24.718,Colour_Similarity_Experiment,2020.2.10,Win32,60,6067542a4a25243f4d7d4fcf,16.94127706,16.68299057,16.69797727,16.66593333,16.66549519,16.68299057,,,,,,,,,,,,,,,,,,,,PF,strong,3,,,,,,,,6,1.192265,,,,,,,,,,,,,,,,,,,,,,,,,,,,4,strong,96,50,1,0,0,response1disk,1,162,-3,-4,1,0,0,rectangle,-3,-4,1,0,0,1,1,0.000675,-3,-4,1,0,0,0,161,161,102,1,0,,,,,,,,,,,,,,,,,,,,,
,,,,,,,,,,,,,,,,,,,,,,,,,,,,,,,,,,,,,,,,,,5ed7a7a467a98224295459ff,606cad28fd1999412342b5c2,2021-04-06_19h49.24.718,Colour_Similarity_Experiment,2020.2.10,Win32,60,6067542a4a25243f4d7d4fcf,16.94127706,16.68299057,16.69797727,16.66593333,16.66549519,16.68299057,,,,,,,,,,,,,,,,,,,,,,,,,,,,,,,,,,,,,,,,,,,,,,,,,,,,,,,,,,,,,,,,,,,,,,,,,,,,,,,,,,,,,,,,,,,,,,,,0,0,0,0,1,,,,,,,,,,,,,,
,,,,,,,,,,,,,,,,,,,,,,,,,,,,,,,,,,,,,,,,,,5ed7a7a467a98224295459ff,606cad28fd1999412342b5c2,2021-04-06_19h49.24.718,Colour_Similarity_Experiment,2020.2.10,Win32,60,6067542a4a25243f4d7d4fcf,16.94127706,16.68299057,16.69797727,16.66593333,16.66549519,16.68299057,,,,,,,,,,,,,,,,,,,,PF,weak,3,,,,,,,,6,1.1253,,,,,,,,,,,,,,,,,,,,,,,,,,,,3,weak,118,27,1,0,0,response1disk,7,163,-4,-10,1,0,0,rectangle,-4,-10,1,0,0,1,7,0.00087,-4,-10,1,0,0,0,0,0,41,1,0,,,,,,,,,,,,,,,,,,,,,
,,,,,,,,,,,,,,,,,,,,,,,,,,,,,,,,,,,,,,,,,,5ed7a7a467a98224295459ff,606cad28fd1999412342b5c2,2021-04-06_19h49.24.718,Colour_Similarity_Experiment,2020.2.10,Win32,60,6067542a4a25243f4d7d4fcf,16.94127706,16.68299057,16.69797727,16.66593333,16.66549519,16.68299057,,,,,,,,,,,,,,,,,,,,PF,strong,3,,,,,,,,6,1.81386,,,,,,,,,,,,,,,,,,,,,,,,,,,,7,strong,89,53,1,0,0,response1disk,3,164,11,-7,1,0,0,rectangle,11,-7,1,0,0,1,4,0.00074,11,-7,1,0,0,0,1,1,73,1,0,,,,,,,,,,,,,,,,,,,,,
,,,,,,,,,,,,,,,,,,,,,,,,,,,,,,,,,,,,,,,,,,5ed7a7a467a98224295459ff,606cad28fd1999412342b5c2,2021-04-06_19h49.24.718,Colour_Similarity_Experiment,2020.2.10,Win32,60,6067542a4a25243f4d7d4fcf,16.94127706,16.68299057,16.69797727,16.66593333,16.66549519,16.68299057,,,,,,,,,,,,,,,,,,,,PF,weak,3,,,,,,,,4,1.36795,,,,,,,,,,,,,,,,,,,,,,,,,,,,2,weak,49,-81,1,0,0,response3disk,1,165,-3,-1,1,0,0,rectangle,-3,-1,1,0,0,1,2,0.00064,-3,-1,1,0,0,0,2,2,9,1,0,,,,,,,,,,,,,,,,,,,,,
,,,,,,,,,,,,,,,,,,,,,,,,,,,,,,,,,,,,,,,,,,5ed7a7a467a98224295459ff,606cad28fd1999412342b5c2,2021-04-06_19h49.24.718,Colour_Similarity_Experiment,2020.2.10,Win32,60,6067542a4a25243f4d7d4fcf,16.94127706,16.68299057,16.69797727,16.66593333,16.66549519,16.68299057,,,,,,,,,,,,,,,,,,,,PF,strong,3,,,,,,,,5,3.39059,,,,,,,,,,,,,,,,,,,,,,,,,,,,1,strong,90,-28,1,0,0,response3disk,5,166,19,0,1,0,0,rectangle,19,0,1,0,0,1,2,0.00013,19,0,1,0,0,0,3,3,82,1,0,,,,,,,,,,,,,,,,,,,,,
,,,,,,,,,,,,,,,,,,,,,,,,,,,,,,,,,,,,,,,,,,5ed7a7a467a98224295459ff,606cad28fd1999412342b5c2,2021-04-06_19h49.24.718,Colour_Similarity_Experiment,2020.2.10,Win32,60,6067542a4a25243f4d7d4fcf,16.94127706,16.68299057,16.69797727,16.66593333,16.66549519,16.68299057,,,,,,,,,,,,,,,,,,,,PF,strong,3,,,,,,,,2,1.697895,,,,,,,,,,,,,,,,,,,,,,,,,,,,6,strong,-90,-71,1,0,0,response5disk,6,167,4,1,1,0,0,rectangle,4,1,1,0,0,1,0,0.00057,4,1,1,0,0,0,4,4,91,1,0,,,,,,,,,,,,,,,,,,,,,
,,,,,,,,,,,,,,,,,,,,,,,,,,,,,,,,,,,,,,,,,,5ed7a7a467a98224295459ff,606cad28fd1999412342b5c2,2021-04-06_19h49.24.718,Colour_Similarity_Experiment,2020.2.10,Win32,60,6067542a4a25243f4d7d4fcf,16.94127706,16.68299057,16.69797727,16.66593333,16.66549519,16.68299057,,,,,,,,,,,,,,,,,,,,PF,weak,3,,,,,,,,6,1.466285,,,,,,,,,,,,,,,,,,,,,,,,,,,,6,weak,89,34,1,0,0,response1disk,9,168,-5,-3,1,0,0,rectangle,-5,-3,1,0,0,1,1,0.00061,-5,-3,1,0,0,0,5,5,45,1,0,,,,,,,,,,,,,,,,,,,,,
,,,,,,,,,,,,,,,,,,,,,,,,,,,,,,,,,,,,,,,,,,5ed7a7a467a98224295459ff,606cad28fd1999412342b5c2,2021-04-06_19h49.24.718,Colour_Similarity_Experiment,2020.2.10,Win32,60,6067542a4a25243f4d7d4fcf,16.94127706,16.68299057,16.69797727,16.66593333,16.66549519,16.68299057,,,,,,,,,,,,,,,,,,,,PF,weak,3,,,,,,,,2,1.607165,,,,,,,,,,,,,,,,,,,,,,,,,,,,1,weak,-106,-54,1,0,0,response5disk,1,169,-3,-5,1,0,0,rectangle,-44,123,1,0,0,0,0,1.765115,-9,-1,1,0,0,0,6,6,76,1,1,response7disk_3,rectangle,,,,,,,,,,,,,,,,,,,
,,,,,,,,,,,,,,,,,,,,,,,,,,,,,,,,,,,,,,,,,,5ed7a7a467a98224295459ff,606cad28fd1999412342b5c2,2021-04-06_19h49.24.718,Colour_Similarity_Experiment,2020.2.10,Win32,60,6067542a4a25243f4d7d4fcf,16.94127706,16.68299057,16.69797727,16.66593333,16.66549519,16.68299057,,,,,,,,,,,,,,,,,,,,PF,weak,3,,,,,,,,2,1.32619,,,,,,,,,,,,,,,,,,,,,,,,,,,,3,weak,-101,-46,1,0,0,response5disk,2,170,22,-5,1,0,0,rectangle,113,-55,1,0,0,5,5,1.59353,-17,-3,1,0,0,0,7,7,36,1,1,response3disk_3,rectangle,,,,,,,,,,,,,,,,,,,
,,,,,,,,,,,,,,,,,,,,,,,,,,,,,,,,,,,,,,,,,,5ed7a7a467a98224295459ff,606cad28fd1999412342b5c2,2021-04-06_19h49.24.718,Colour_Similarity_Experiment,2020.2.10,Win32,60,6067542a4a25243f4d7d4fcf,16.94127706,16.68299057,16.69797727,16.66593333,16.66549519,16.68299057,,,,,,,,,,,,,,,,,,,,PF,weak,3,,,,,,,,6,1.206935,,,,,,,,,,,,,,,,,,,,,,,,,,,,7,weak,97,28,1,0,0,response1disk,4,171,-8,-5,1,0,0,rectangle,-8,-5,1,0,0,5,1,0.000725,-8,-5,1,0,0,0,8,8,43,1,0,,,,,,,,,,,,,,,,,,,,,
,,,,,,,,,,,,,,,,,,,,,,,,,,,,,,,,,,,,,,,,,,5ed7a7a467a98224295459ff,606cad28fd1999412342b5c2,2021-04-06_19h49.24.718,Colour_Similarity_Experiment,2020.2.10,Win32,60,6067542a4a25243f4d7d4fcf,16.94127706,16.68299057,16.69797727,16.66593333,16.66549519,16.68299057,,,,,,,,,,,,,,,,,,,,PF,weak,3,,,,,,,,6,1.10499,,,,,,,,,,,,,,,,,,,,,,,,,,,,3,weak,103,35,1,0,0,response1disk,9,172,-4,-4,1,0,0,rectangle,-4,-4,1,0,0,5,3,0.000815,-4,-4,1,0,0,0,9,9,79,1,0,,,,,,,,,,,,,,,,,,,,,
,,,,,,,,,,,,,,,,,,,,,,,,,,,,,,,,,,,,,,,,,,5ed7a7a467a98224295459ff,606cad28fd1999412342b5c2,2021-04-06_19h49.24.718,Colour_Similarity_Experiment,2020.2.10,Win32,60,6067542a4a25243f4d7d4fcf,16.94127706,16.68299057,16.69797727,16.66593333,16.66549519,16.68299057,,,,,,,,,,,,,,,,,,,,PF,weak,3,,,,,,,,2,0.9723,,,,,,,,,,,,,,,,,,,,,,,,,,,,4,weak,-85,-53,1,0,0,response5disk,3,173,9,-1,1,0,0,rectangle,9,-1,1,0,0,5,0,0.000725,9,-1,1,0,0,0,10,10,89,1,0,,,,,,,,,,,,,,,,,,,,,
,,,,,,,,,,,,,,,,,,,,,,,,,,,,,,,,,,,,,,,,,,5ed7a7a467a98224295459ff,606cad28fd1999412342b5c2,2021-04-06_19h49.24.718,Colour_Similarity_Experiment,2020.2.10,Win32,60,6067542a4a25243f4d7d4fcf,16.94127706,16.68299057,16.69797727,16.66593333,16.66549519,16.68299057,,,,,,,,,,,,,,,,,,,,PF,strong,3,,,,,,,,4,1.6995,,,,,,,,,,,,,,,,,,,,,,,,,,,,8,strong,65,-71,1,0,0,response3disk,5,174,-8,2,1,0,0,rectangle,-8,2,1,0,0,5,1,0.000765,-8,2,1,0,0,0,11,11,152,1,0,,,,,,,,,,,,,,,,,,,,,
,,,,,,,,,,,,,,,,,,,,,,,,,,,,,,,,,,,,,,,,,,5ed7a7a467a98224295459ff,606cad28fd1999412342b5c2,2021-04-06_19h49.24.718,Colour_Similarity_Experiment,2020.2.10,Win32,60,6067542a4a25243f4d7d4fcf,16.94127706,16.68299057,16.69797727,16.66593333,16.66549519,16.68299057,,,,,,,,,,,,,,,,,,,,PF,weak,3,,,,,,,,4,1.60645,,,,,,,,,,,,,,,,,,,,,,,,,,,,9,weak,31,-74,1,0,0,response3disk,6,175,2,-14,1,0,0,rectangle,2,-14,1,0,0,5,7,0.000805,2,-14,1,0,0,0,12,12,148,1,0,,,,,,,,,,,,,,,,,,,,,
,,,,,,,,,,,,,,,,,,,,,,,,,,,,,,,,,,,,,,,,,,5ed7a7a467a98224295459ff,606cad28fd1999412342b5c2,2021-04-06_19h49.24.718,Colour_Similarity_Experiment,2020.2.10,Win32,60,6067542a4a25243f4d7d4fcf,16.94127706,16.68299057,16.69797727,16.66593333,16.66549519,16.68299057,,,,,,,,,,,,,,,,,,,,PF,strong,3,,,,,,,,2,1.09926,,,,,,,,,,,,,,,,,,,,,,,,,,,,5,strong,-104,-41,1,0,0,response5disk,5,176,-2,-8,1,0,0,rectangle,-2,-8,1,0,0,5,6,0.000675,-2,-8,1,0,0,0,13,13,19,1,0,,,,,,,,,,,,,,,,,,,,,
,,,,,,,,,,,,,,,,,,,,,,,,,,,,,,,,,,,,,,,,,,5ed7a7a467a98224295459ff,606cad28fd1999412342b5c2,2021-04-06_19h49.24.718,Colour_Similarity_Experiment,2020.2.10,Win32,60,6067542a4a25243f4d7d4fcf,16.94127706,16.68299057,16.69797727,16.66593333,16.66549519,16.68299057,,,,,,,,,,,,,,,,,,,,PF,weak,3,,,,,,,,3,1.07343,,,,,,,,,,,,,,,,,,,,,,,,,,,,7,weak,-51,-83,1,0,0,response5disk,6,177,11,-5,1,0,0,rectangle,11,-5,1,0,0,5,3,0.00081,11,-5,1,0,0,0,14,14,29,1,0,,,,,,,,,,,,,,,,,,,,,
,,,,,,,,,,,,,,,,,,,,,,,,,,,,,,,,,,,,,,,,,,5ed7a7a467a98224295459ff,606cad28fd1999412342b5c2,2021-04-06_19h49.24.718,Colour_Similarity_Experiment,2020.2.10,Win32,60,6067542a4a25243f4d7d4fcf,16.94127706,16.68299057,16.69797727,16.66593333,16.66549519,16.68299057,,,,,,,,,,,,,,,,,,,,PF,strong,3,,,,,,,,6,1.07558,,,,,,,,,,,,,,,,,,,,,,,,,,,,8,strong,91,47,1,0,0,response1disk,3,178,-1,-7,1,0,0,rectangle,-1,-7,1,0,0,5,3,0.000115,-1,-7,1,0,0,0,15,15,154,1,0,,,,,,,,,,,,,,,,,,,,,
,,,,,,,,,,,,,,,,,,,,,,,,,,,,,,,,,,,,,,,,,,5ed7a7a467a98224295459ff,606cad28fd1999412342b5c2,2021-04-06_19h49.24.718,Colour_Similarity_Experiment,2020.2.10,Win32,60,6067542a4a25243f4d7d4fcf,16.94127706,16.68299057,16.69797727,16.66593333,16.66549519,16.68299057,,,,,,,,,,,,,,,,,,,,PF,strong,3,,,,,,,,5,1.59012,,,,,,,,,,,,,,,,,,,,,,,,,,,,2,strong,73,-38,1,0,0,response3disk,5,179,5,-1,1,0,0,rectangle,5,-1,1,0,0,5,5,0.000715,5,-1,1,0,0,0,16,16,80,1,0,,,,,,,,,,,,,,,,,,,,,
,,,,,,,,,,,,,,,,,,,,,,,,,,,,,,,,,,,,,,,,,,5ed7a7a467a98224295459ff,606cad28fd1999412342b5c2,2021-04-06_19h49.24.718,Colour_Similarity_Experiment,2020.2.10,Win32,60,6067542a4a25243f4d7d4fcf,16.94127706,16.68299057,16.69797727,16.66593333,16.66549519,16.68299057,,,,,,,,,,,,,,,,,,,,PF,strong,3,,,,,,,,5,1.78959,,,,,,,,,,,,,,,,,,,,,,,,,,,,4,strong,108,-45,1,0,0,response3disk,2,180,1,-4,1,0,0,rectangle,1,-4,1,0,0,5,0,0.000585,1,-4,1,0,0,0,17,17,13,1,0,,,,,,,,,,,,,,,,,,,,,
,,,,,,,,,,,,,,,,,,,,,,,,,,,,,,,,,,,,,,,,,,5ed7a7a467a98224295459ff,606cad28fd1999412342b5c2,2021-04-06_19h49.24.718,Colour_Similarity_Experiment,2020.2.10,Win32,60,6067542a4a25243f4d7d4fcf,16.94127706,16.68299057,16.69797727,16.66593333,16.66549519,16.68299057,,,,,,,,,,,,,,,,,,,,PF,weak,3,,,,,,,,6,1.006795,,,,,,,,,,,,,,,,,,,,,,,,,,,,3,weak,104,33,1,0,0,response1disk,1,181,7,1,1,0,0,rectangle,7,1,1,0,0,5,4,0.000805,7,1,1,0,0,0,18,18,96,1,0,,,,,,,,,,,,,,,,,,,,,
,,,,,,,,,,,,,,,,,,,,,,,,,,,,,,,,,,,,,,,,,,5ed7a7a467a98224295459ff,606cad28fd1999412342b5c2,2021-04-06_19h49.24.718,Colour_Similarity_Experiment,2020.2.10,Win32,60,6067542a4a25243f4d7d4fcf,16.94127706,16.68299057,16.69797727,16.66593333,16.66549519,16.68299057,,,,,,,,,,,,,,,,,,,,PF,weak,3,,,,,,,,5,1.28881,,,,,,,,,,,,,,,,,,,,,,,,,,,,1,weak,90,-34,1,0,0,response3disk,3,182,11,1,1,0,0,rectangle,11,1,1,0,0,5,6,0.00061,11,1,1,0,0,0,19,19,1,1,0,,,,,,,,,,,,,,,,,,,,,
,,,,,,,,,,,,,,,,,,,,,,,,,,,,,,,,,,,,,,,,,,5ed7a7a467a98224295459ff,606cad28fd1999412342b5c2,2021-04-06_19h49.24.718,Colour_Similarity_Experiment,2020.2.10,Win32,60,6067542a4a25243f4d7d4fcf,16.94127706,16.68299057,16.69797727,16.66593333,16.66549519,16.68299057,,,,,,,,,,,,,,,,,,,,PF,strong,3,,,,,,,,5,1.64558,,,,,,,,,,,,,,,,,,,,,,,,,,,,4,strong,104,-35,1,0,0,response3disk,6,183,1,8,1,0,0,rectangle,1,8,1,0,0,5,7,0.00087,1,8,1,0,0,0,20,20,122,1,0,,,,,,,,,,,,,,,,,,,,,
,,,,,,,,,,,,,,,,,,,,,,,,,,,,,,,,,,,,,,,,,,5ed7a7a467a98224295459ff,606cad28fd1999412342b5c2,2021-04-06_19h49.24.718,Colour_Similarity_Experiment,2020.2.10,Win32,60,6067542a4a25243f4d7d4fcf,16.94127706,16.68299057,16.69797727,16.66593333,16.66549519,16.68299057,,,,,,,,,,,,,,,,,,,,PF,weak,3,,,,,,,,7,1.766125,,,,,,,,,,,,,,,,,,,,,,,,,,,,3,weak,64,85,1,0,0,response1disk,8,184,7,-1,1,0,0,rectangle,7,-1,1,0,0,5,4,0.000565,7,-1,1,0,0,0,21,21,3,1,0,,,,,,,,,,,,,,,,,,,,,
,,,,,,,,,,,,,,,,,,,,,,,,,,,,,,,,,,,,,,,,,,5ed7a7a467a98224295459ff,606cad28fd1999412342b5c2,2021-04-06_19h49.24.718,Colour_Similarity_Experiment,2020.2.10,Win32,60,6067542a4a25243f4d7d4fcf,16.94127706,16.68299057,16.69797727,16.66593333,16.66549519,16.68299057,,,,,,,,,,,,,,,,,,,,PF,strong,3,,,,,,,,7,1.592405,,,,,,,,,,,,,,,,,,,,,,,,,,,,2,strong,61,81,1,0,0,response1disk,7,185,-4,-5,1,0,0,rectangle,-4,-5,1,0,0,5,7,0.00107,-4,-5,1,0,0,0,22,22,63,1,0,,,,,,,,,,,,,,,,,,,,,
,,,,,,,,,,,,,,,,,,,,,,,,,,,,,,,,,,,,,,,,,,5ed7a7a467a98224295459ff,606cad28fd1999412342b5c2,2021-04-06_19h49.24.718,Colour_Similarity_Experiment,2020.2.10,Win32,60,6067542a4a25243f4d7d4fcf,16.94127706,16.68299057,16.69797727,16.66593333,16.66549519,16.68299057,,,,,,,,,,,,,,,,,,,,PF,weak,3,,,,,,,,1,1.18841,,,,,,,,,,,,,,,,,,,,,,,,,,,,4,weak,-96,56,1,0,0,response7disk,4,186,-5,2,1,0,0,rectangle,-5,2,1,0,0,5,7,0.000145,-5,2,1,0,0,0,23,23,70,1,0,,,,,,,,,,,,,,,,,,,,,
,,,,,,,,,,,,,,,,,,,,,,,,,,,,,,,,,,,,,,,,,,5ed7a7a467a98224295459ff,606cad28fd1999412342b5c2,2021-04-06_19h49.24.718,Colour_Similarity_Experiment,2020.2.10,Win32,60,6067542a4a25243f4d7d4fcf,16.94127706,16.68299057,16.69797727,16.66593333,16.66549519,16.68299057,,,,,,,,,,,,,,,,,,,,PF,strong,3,,,,,,,,4,1.66678,,,,,,,,,,,,,,,,,,,,,,,,,,,,9,strong,39,-98,1,0,0,response3disk,5,187,-2,10,1,0,0,rectangle,-2,10,1,0,0,5,2,0.000815,-2,10,1,0,0,0,24,24,128,1,0,,,,,,,,,,,,,,,,,,,,,
,,,,,,,,,,,,,,,,,,,,,,,,,,,,,,,,,,,,,,,,,,5ed7a7a467a98224295459ff,606cad28fd1999412342b5c2,2021-04-06_19h49.24.718,Colour_Similarity_Experiment,2020.2.10,Win32,60,6067542a4a25243f4d7d4fcf,16.94127706,16.68299057,16.69797727,16.66593333,16.66549519,16.68299057,,,,,,,,,,,,,,,,,,,,PF,strong,3,,,,,,,,4,2.622755,,,,,,,,,,,,,,,,,,,,,,,,,,,,8,strong,41,-118,1,0,0,response3disk,1,188,-6,7,1,0,0,rectangle,-6,7,1,0,0,5,0,0.000655,-6,7,1,0,0,0,25,25,20,1,0,,,,,,,,,,,,,,,,,,,,,
,,,,,,,,,,,,,,,,,,,,,,,,,,,,,,,,,,,,,,,,,,5ed7a7a467a98224295459ff,606cad28fd1999412342b5c2,2021-04-06_19h49.24.718,Colour_Similarity_Experiment,2020.2.10,Win32,60,6067542a4a25243f4d7d4fcf,16.94127706,16.68299057,16.69797727,16.66593333,16.66549519,16.68299057,,,,,,,,,,,,,,,,,,,,PF,strong,3,,,,,,,,2,1.483525,,,,,,,,,,,,,,,,,,,,,,,,,,,,1,strong,-71,-56,1,0,0,response5disk,1,189,11,3,1,0,0,rectangle,11,3,1,0,0,5,7,0.000805,11,3,1,0,0,0,26,26,151,1,0,,,,,,,,,,,,,,,,,,,,,
,,,,,,,,,,,,,,,,,,,,,,,,,,,,,,,,,,,,,,,,,,5ed7a7a467a98224295459ff,606cad28fd1999412342b5c2,2021-04-06_19h49.24.718,Colour_Similarity_Experiment,2020.2.10,Win32,60,6067542a4a25243f4d7d4fcf,16.94127706,16.68299057,16.69797727,16.66593333,16.66549519,16.68299057,,,,,,,,,,,,,,,,,,,,PF,weak,3,,,,,,,,0,1.58938,,,,,,,,,,,,,,,,,,,,,,,,,,,,9,weak,-52,89,1,0,0,response7disk,9,190,4,-12,1,0,0,rectangle,4,-12,1,0,0,5,6,0.00083,4,-12,1,0,0,0,27,27,106,1,0,,,,,,,,,,,,,,,,,,,,,
,,,,,,,,,,,,,,,,,,,,,,,,,,,,,,,,,,,,,,,,,,5ed7a7a467a98224295459ff,606cad28fd1999412342b5c2,2021-04-06_19h49.24.718,Colour_Similarity_Experiment,2020.2.10,Win32,60,6067542a4a25243f4d7d4fcf,16.94127706,16.68299057,16.69797727,16.66593333,16.66549519,16.68299057,,,,,,,,,,,,,,,,,,,,PF,weak,3,,,,,,,,4,1.847185,,,,,,,,,,,,,,,,,,,,,,,,,,,,2,weak,56,-82,1,0,0,response3disk,8,191,-2,-7,1,0,0,rectangle,-2,-7,1,0,0,5,2,0.0007,-2,-7,1,0,0,0,28,28,52,1,0,,,,,,,,,,,,,,,,,,,,,
,,,,,,,,,,,,,,,,,,,,,,,,,,,,,,,,,,,,,,,,,,5ed7a7a467a98224295459ff,606cad28fd1999412342b5c2,2021-04-06_19h49.24.718,Colour_Similarity_Experiment,2020.2.10,Win32,60,6067542a4a25243f4d7d4fcf,16.94127706,16.68299057,16.69797727,16.66593333,16.66549519,16.68299057,,,,,,,,,,,,,,,,,,,,PF,strong,3,,,,,,,,1,1.156665,,,,,,,,,,,,,,,,,,,,,,,,,,,,8,strong,-89,38,1,0,0,response7disk,8,192,-15,5,1,0,0,rectangle,-15,5,1,0,0,5,4,0.000775,-15,5,1,0,0,0,29,29,48,1,0,,,,,,,,,,,,,,,,,,,,,
,,,,,,,,,,,,,,,,,,,,,,,,,,,,,,,,,,,,,,,,,,5ed7a7a467a98224295459ff,606cad28fd1999412342b5c2,2021-04-06_19h49.24.718,Colour_Similarity_Experiment,2020.2.10,Win32,60,6067542a4a25243f4d7d4fcf,16.94127706,16.68299057,16.69797727,16.66593333,16.66549519,16.68299057,,,,,,,,,,,,,,,,,,,,PF,weak,3,,,,,,,,5,2.405255,,,,,,,,,,,,,,,,,,,,,,,,,,,,3,weak,99,-70,1,0,0,response3disk,4,193,-10,-12,1,0,0,rectangle,-10,-12,1,0,0,5,0,0.00066,-10,-12,1,0,0,0,30,30,30,1,0,,,,,,,,,,,,,,,,,,,,,
,,,,,,,,,,,,,,,,,,,,,,,,,,,,,,,,,,,,,,,,,,5ed7a7a467a98224295459ff,606cad28fd1999412342b5c2,2021-04-06_19h49.24.718,Colour_Similarity_Experiment,2020.2.10,Win32,60,6067542a4a25243f4d7d4fcf,16.94127706,16.68299057,16.69797727,16.66593333,16.66549519,16.68299057,,,,,,,,,,,,,,,,,,,,PF,weak,3,,,,,,,,6,0.950365,,,,,,,,,,,,,,,,,,,,,,,,,,,,6,weak,100,47,1,0,0,response1disk,2,194,3,1,1,0,0,rectangle,3,1,1,0,0,5,7,0.00069,3,1,1,0,0,0,31,31,130,1,0,,,,,,,,,,,,,,,,,,,,,
