key_resp.keys,key_resp.rt,key_resp_16.keys,key_resp_16.rt,key_resp_2.keys,key_resp_2.rt,X Scale,ratio_pxpermm,screen_size_x,screen_size_y,testsize,key_resp_3.keys,key_resp_4.keys,key_resp_4.rt,line_size,key_resp_5.keys,key_resp_5.rt,key_resp_6.keys,key_resp_6.rt,key_resp_8.keys,key_resp_8.rt,key_resp_7.keys,key_resp_7.rt,key_resp_12.keys,key_resp_12.rt,key_resp_11.keys,key_resp_11.rt,key_resp_18.keys,key_resp_18.rt,key_resp_21.keys,key_resp_21.rt,key_resp_13.keys,key_resp_13.rt,key_resp_19.keys,key_resp_19.rt,ballposx,viewer_distance,trials.thisRepN,trials.thisTrialN,trials.thisN,trials.thisIndex,trials.ran,participant,session,date,expName,psychopyVersion,OS,frameRate,study_id,realFrameRate1,realFrameRate2,realFrameRate3,realFrameRate4,realFrameRate5,realFrameRate,viewerdistancecm,DVA_to_distance,radius_F,radius_P,r_F,R_P,key_resp_20.keys,key_resp_20.rt,key_resp_14.keys,key_resp_14.rt,key_resp_15.keys,key_resp_15.rt,key_resp_17.keys,key_resp_17.rt,key_resp_9.keys,key_resp_9.rt,key_resp_10.keys,key_resp_10.rt,Colour_1,Ecc,maskCon,mask_frames,mouse_5.x,mouse_5.y,mouse_5.leftButton,mouse_5.midButton,mouse_5.rightButton,mouse_5.clicked_name,Colour_2,similarity,response_time,mouse_10.x,mouse_10.y,mouse_10.leftButton,mouse_10.midButton,mouse_10.rightButton,mouse_10.clicked_name,mouse_7.x,mouse_7.y,mouse_7.leftButton,mouse_7.midButton,mouse_7.rightButton,catchnumberprac,mouse_6.x,mouse_6.y,mouse_6.leftButton,mouse_6.midButton,mouse_6.rightButton,duringprac.thisRepN,duringprac.thisTrialN,duringprac.thisN,duringprac.thisIndex,duringprac.ran,mouse_7.clicked_name,catchprac,mouse_6.clicked_name,key_resp_22.keys,key_resp_22.rt,Colour1,maskCon1,mouse.x,mouse.y,mouse.leftButton,mouse.midButton,mouse.rightButton,mouse.clicked_name,Colour2,trialnumber,mouse_2.x,mouse_2.y,mouse_2.leftButton,mouse_2.midButton,mouse_2.rightButton,mouse_2.clicked_name,mouse_3.x,mouse_3.y,mouse_3.leftButton,mouse_3.midButton,mouse_3.rightButton,catchresponse,catchnumber,response_time_catch,mouse_11.x,mouse_11.y,mouse_11.leftButton,mouse_11.midButton,mouse_11.rightButton,trials_2.thisRepN,trials_2.thisTrialN,trials_2.thisN,trials_2.thisIndex,trials_2.ran,Catch,mouse_3.clicked_name,mouse_11.clicked_name,trials_3.thisRepN,trials_3.thisTrialN,trials_3.thisN,trials_3.thisIndex,trials_3.ran,answer1,rt1,answer2,rt2,answer3,rt3,answer4,rt4,answer5,rt5,answer6,rt6,answer7,rt7
space,2.513335,space,5.5351,space,164.141825,36.4,3.64,461.5384615,288.4615385,1680,,space,9.683425,72.8,space,11.64963,space,1.665185,space,1.76707,space,3.902835,space,12.609625,space,8.082515,space,8.29698,space,5.683995,space,10.910655,return,6.926735,65.52,694.0032808,0,0,0,0,1,5ee0a607b1d0693f75003f64,606c0d64b01a49e7a3bd900a,2021-04-06_10h27.54.360,Colour_Similarity_Experiment,2020.2.10,Win32,60,6067542a4a25243f4d7d4fcf,16.81172222,17.22981424,24.23146377,31.16889423,30.96061086,24.23146377,,,,,,,,,,,,,,,,,,,,,,,,,,,,,,,,,,,,,,,,,,,,,,,,,,,,,,,,,,,,,,,,,,,,,,,,,,,,,,,,,,,,,,,,,,,,,,,,,,,,,,,,,,,,,,,,,,
,,,,,,,,,,,,,,,,,,,,,,,,,,,,,,,,,return,7.297855,37.8,725.7236524,1,0,1,0,1,5ee0a607b1d0693f75003f64,606c0d64b01a49e7a3bd900a,2021-04-06_10h27.54.360,Colour_Similarity_Experiment,2020.2.10,Win32,60,6067542a4a25243f4d7d4fcf,16.81172222,17.22981424,24.23146377,31.16889423,30.96061086,24.23146377,,,,,,,,,,,,,,,,,,,,,,,,,,,,,,,,,,,,,,,,,,,,,,,,,,,,,,,,,,,,,,,,,,,,,,,,,,,,,,,,,,,,,,,,,,,,,,,,,,,,,,,,,,,,,,,,,,
,,,,,,,,,,,,,,,,,,,,,,,,,,,,,,,,,return,7.22645,42.84,719.9563121,2,0,2,0,1,5ee0a607b1d0693f75003f64,606c0d64b01a49e7a3bd900a,2021-04-06_10h27.54.360,Colour_Similarity_Experiment,2020.2.10,Win32,60,6067542a4a25243f4d7d4fcf,16.81172222,17.22981424,24.23146377,31.16889423,30.96061086,24.23146377,,,,,,,,,,,,,,,,,,,,,,,,,,,,,,,,,,,,,,,,,,,,,,,,,,,,,,,,,,,,,,,,,,,,,,,,,,,,,,,,,,,,,,,,,,,,,,,,,,,,,,,,,,,,,,,,,,
,,,,,,,,,,,,,,,,,,,,,,,,,,,,,,,,,return,7.23511,45.36,717.0726419,3,0,3,0,1,5ee0a607b1d0693f75003f64,606c0d64b01a49e7a3bd900a,2021-04-06_10h27.54.360,Colour_Similarity_Experiment,2020.2.10,Win32,60,6067542a4a25243f4d7d4fcf,16.81172222,17.22981424,24.23146377,31.16889423,30.96061086,24.23146377,,,,,,,,,,,,,,,,,,,,,,,,,,,,,,,,,,,,,,,,,,,,,,,,,,,,,,,,,,,,,,,,,,,,,,,,,,,,,,,,,,,,,,,,,,,,,,,,,,,,,,,,,,,,,,,,,,
,,,,,,,,,,,,,,,,,,,,,,,,,,,,,,,,,return,7.26551,40.32,722.8399822,4,0,4,0,1,5ee0a607b1d0693f75003f64,606c0d64b01a49e7a3bd900a,2021-04-06_10h27.54.360,Colour_Similarity_Experiment,2020.2.10,Win32,60,6067542a4a25243f4d7d4fcf,16.81172222,17.22981424,24.23146377,31.16889423,30.96061086,24.23146377,,,,,,,,,,,,,,,,,,,,,,,,,,,,,,,,,,,,,,,,,,,,,,,,,,,,,,,,,,,,,,,,,,,,,,,,,,,,,,,,,,,,,,,,,,,,,,,,,,,,,,,,,,,,,,,,,,
,,,,,,,,,,,,,,,,,,,,,,,,,,,,,,,,,,,,,,,,,,5ee0a607b1d0693f75003f64,606c0d64b01a49e7a3bd900a,2021-04-06_10h27.54.360,Colour_Similarity_Experiment,2020.2.10,Win32,60,6067542a4a25243f4d7d4fcf,16.81172222,17.22981424,24.23146377,31.16889423,30.96061086,24.23146377,72,12.56764225,68.61932671,457.462178,45.7462178,205.8579801,space,6.994285,space,15.142945,space,62.823655,space,6.91958,space,1.054555,space,4.59335,5,PF,weak,2,-86,-35,1,0,0,response5disk_5,3,2,12.004805,0,-5,1,0,0,rectangle_8,0,-5,1,0,0,0,0,-5,1,0,0,0,0,0,5,1,,,,,,,,,,,,,,,,,,,,,,,,,,,,,,,,,,,,,,,,,,,,,,,,,,,,,,,,,,,,,
,,,,,,,,,,,,,,,,,,,,,,,,,,,,,,,,,,,,,,,,,,5ee0a607b1d0693f75003f64,606c0d64b01a49e7a3bd900a,2021-04-06_10h27.54.360,Colour_Similarity_Experiment,2020.2.10,Win32,60,6067542a4a25243f4d7d4fcf,16.81172222,17.22981424,24.23146377,31.16889423,30.96061086,24.23146377,,,,,,,,,,,,,,,,,,,8,PF,strong,2,-50,-114,1,0,0,response5disk_5,3,3,12.341805,0,-1,1,0,0,rectangle_8,-46,71,1,0,0,0,3,2,1,0,0,0,1,1,3,1,response7disk_7,0,rectangle_4,,,,,,,,,,,,,,,,,,,,,,,,,,,,,,,,,,,,,,,,,,,,,,,,,,,,,,,,,,
,,,,,,,,,,,,,,,,,,,,,,,,,,,,,,,,,,,,,,,,,,5ee0a607b1d0693f75003f64,606c0d64b01a49e7a3bd900a,2021-04-06_10h27.54.360,Colour_Similarity_Experiment,2020.2.10,Win32,60,6067542a4a25243f4d7d4fcf,16.81172222,17.22981424,24.23146377,31.16889423,30.96061086,24.23146377,,,,,,,,,,,,,,,,,,,3,PF,strong,2,40,102,1,0,0,response1disk_5,8,7,2.52053,-1,-4,1,0,0,rectangle_8,-1,-4,1,0,0,0,-1,-4,1,0,0,0,2,2,2,1,,,,,,,,,,,,,,,,,,,,,,,,,,,,,,,,,,,,,,,,,,,,,,,,,,,,,,,,,,,,,
,,,,,,,,,,,,,,,,,,,,,,,,,,,,,,,,,,,,,,,,,,5ee0a607b1d0693f75003f64,606c0d64b01a49e7a3bd900a,2021-04-06_10h27.54.360,Colour_Similarity_Experiment,2020.2.10,Win32,60,6067542a4a25243f4d7d4fcf,16.81172222,17.22981424,24.23146377,31.16889423,30.96061086,24.23146377,,,,,,,,,,,,,,,,,,,6,PF,weak,2,51,113,1,0,0,response1disk_5,4,7,3.04725,-17,-3,1,0,0,rectangle_8,-17,-3,1,0,0,0,-17,-3,1,0,0,0,3,3,1,1,,,,,,,,,,,,,,,,,,,,,,,,,,,,,,,,,,,,,,,,,,,,,,,,,,,,,,,,,,,,,
,,,,,,,,,,,,,,,,,,,,,,,,,,,,,,,,,,,,,,,,,,5ee0a607b1d0693f75003f64,606c0d64b01a49e7a3bd900a,2021-04-06_10h27.54.360,Colour_Similarity_Experiment,2020.2.10,Win32,60,6067542a4a25243f4d7d4fcf,16.81172222,17.22981424,24.23146377,31.16889423,30.96061086,24.23146377,,,,,,,,,,,,,,,,,,,6,PF,weak,2,64,104,1,0,0,response1disk_5,2,7,5.797985,-8,0,1,0,0,rectangle_8,-8,0,1,0,0,0,-8,0,1,0,0,0,4,4,6,1,,,,,,,,,,,,,,,,,,,,,,,,,,,,,,,,,,,,,,,,,,,,,,,,,,,,,,,,,,,,,
,,,,,,,,,,,,,,,,,,,,,,,,,,,,,,,,,,,,,,,,,,5ee0a607b1d0693f75003f64,606c0d64b01a49e7a3bd900a,2021-04-06_10h27.54.360,Colour_Similarity_Experiment,2020.2.10,Win32,60,6067542a4a25243f4d7d4fcf,16.81172222,17.22981424,24.23146377,31.16889423,30.96061086,24.23146377,,,,,,,,,,,,,,,,,,,1,PF,strong,2,44,119,1,0,0,response1disk_5,5,7,2.40036,-25,-12,1,0,0,rectangle_8,-60,115,1,0,0,0,3,-1,1,0,0,0,5,5,0,1,response7disk_7,0,rectangle_4,,,,,,,,,,,,,,,,,,,,,,,,,,,,,,,,,,,,,,,,,,,,,,,,,,,,,,,,,,
,,,,,,,,,,,,,,,,,,,,,,,,,,,,,,,,,,,,,,,,,,5ee0a607b1d0693f75003f64,606c0d64b01a49e7a3bd900a,2021-04-06_10h27.54.360,Colour_Similarity_Experiment,2020.2.10,Win32,60,6067542a4a25243f4d7d4fcf,16.81172222,17.22981424,24.23146377,31.16889423,30.96061086,24.23146377,,,,,,,,,,,,,,,,,,,6,PF,weak,2,-43,-120,1,0,0,response5disk_5,7,3,3.147555,14,1,1,0,0,rectangle_8,14,1,1,0,0,0,14,1,1,0,0,0,6,6,4,1,,,,,,,,,,,,,,,,,,,,,,,,,,,,,,,,,,,,,,,,,,,,,,,,,,,,,,,,,,,,,
,,,,,,,,,,,,,,,,,,,,,,,,,,,,,,,,,,,,,,,,,,5ee0a607b1d0693f75003f64,606c0d64b01a49e7a3bd900a,2021-04-06_10h27.54.360,Colour_Similarity_Experiment,2020.2.10,Win32,60,6067542a4a25243f4d7d4fcf,16.81172222,17.22981424,24.23146377,31.16889423,30.96061086,24.23146377,,,,,,,,,,,,,,,,,,,,PF,weak,2,,,,,,,,7,1.993245,,,,,,,,,,,,,,,,,,,,,,,,,,space,2.877595,6,weak,49,114,1,0,0,response1disk,9,1,1,-4,1,0,0,rectangle,1,-4,1,0,0,,0,0.001795,1,-4,1,0,0,0,0,0,45,1,0,,,,,,,,,,,,,,,,,,,,,
,,,,,,,,,,,,,,,,,,,,,,,,,,,,,,,,,,,,,,,,,,5ee0a607b1d0693f75003f64,606c0d64b01a49e7a3bd900a,2021-04-06_10h27.54.360,Colour_Similarity_Experiment,2020.2.10,Win32,60,6067542a4a25243f4d7d4fcf,16.81172222,17.22981424,24.23146377,31.16889423,30.96061086,24.23146377,,,,,,,,,,,,,,,,,,,,PF,weak,2,,,,,,,,5,2.21176,,,,,,,,,,,,,,,,,,,,,,,,,,,,5,weak,122,-56,1,0,0,response3disk,4,2,3,3,1,0,0,rectangle,3,3,1,0,0,,0,0.00018,3,3,1,0,0,0,1,1,54,1,0,,,,,,,,,,,,,,,,,,,,,
,,,,,,,,,,,,,,,,,,,,,,,,,,,,,,,,,,,,,,,,,,5ee0a607b1d0693f75003f64,606c0d64b01a49e7a3bd900a,2021-04-06_10h27.54.360,Colour_Similarity_Experiment,2020.2.10,Win32,60,6067542a4a25243f4d7d4fcf,16.81172222,17.22981424,24.23146377,31.16889423,30.96061086,24.23146377,,,,,,,,,,,,,,,,,,,,PF,strong,2,,,,,,,,5,2.679355,,,,,,,,,,,,,,,,,,,,,,,,,,,,6,strong,102,-60,1,0,0,response3disk,3,3,2,0,1,0,0,rectangle,2,0,1,0,0,,7,0.00095,2,0,1,0,0,0,2,2,21,1,0,,,,,,,,,,,,,,,,,,,,,
,,,,,,,,,,,,,,,,,,,,,,,,,,,,,,,,,,,,,,,,,,5ee0a607b1d0693f75003f64,606c0d64b01a49e7a3bd900a,2021-04-06_10h27.54.360,Colour_Similarity_Experiment,2020.2.10,Win32,60,6067542a4a25243f4d7d4fcf,16.81172222,17.22981424,24.23146377,31.16889423,30.96061086,24.23146377,,,,,,,,,,,,,,,,,,,,PF,strong,2,,,,,,,,7,1.58791,,,,,,,,,,,,,,,,,,,,,,,,,,,,8,strong,61,106,1,0,0,response1disk,5,4,1,-1,1,0,0,rectangle,1,-1,1,0,0,,7,0.00014,1,-1,1,0,0,0,3,3,152,1,0,,,,,,,,,,,,,,,,,,,,,
,,,,,,,,,,,,,,,,,,,,,,,,,,,,,,,,,,,,,,,,,,5ee0a607b1d0693f75003f64,606c0d64b01a49e7a3bd900a,2021-04-06_10h27.54.360,Colour_Similarity_Experiment,2020.2.10,Win32,60,6067542a4a25243f4d7d4fcf,16.81172222,17.22981424,24.23146377,31.16889423,30.96061086,24.23146377,,,,,,,,,,,,,,,,,,,,PF,strong,2,,,,,,,,6,4.272055,,,,,,,,,,,,,,,,,,,,,,,,,,,,1,strong,105,46,1,0,0,response1disk,4,5,0,1,1,0,0,rectangle,0,1,1,0,0,,7,9E-05,0,1,1,0,0,0,4,4,135,1,0,,,,,,,,,,,,,,,,,,,,,
,,,,,,,,,,,,,,,,,,,,,,,,,,,,,,,,,,,,,,,,,,5ee0a607b1d0693f75003f64,606c0d64b01a49e7a3bd900a,2021-04-06_10h27.54.360,Colour_Similarity_Experiment,2020.2.10,Win32,60,6067542a4a25243f4d7d4fcf,16.81172222,17.22981424,24.23146377,31.16889423,30.96061086,24.23146377,,,,,,,,,,,,,,,,,,,,PF,strong,2,,,,,,,,4,4.11598,,,,,,,,,,,,,,,,,,,,,,,,,,,,7,strong,54,-134,1,0,0,response3disk,5,6,-6,4,1,0,0,rectangle,-6,4,1,0,0,,0,0.00055,-6,4,1,0,0,0,5,5,156,1,0,,,,,,,,,,,,,,,,,,,,,
,,,,,,,,,,,,,,,,,,,,,,,,,,,,,,,,,,,,,,,,,,5ee0a607b1d0693f75003f64,606c0d64b01a49e7a3bd900a,2021-04-06_10h27.54.360,Colour_Similarity_Experiment,2020.2.10,Win32,60,6067542a4a25243f4d7d4fcf,16.81172222,17.22981424,24.23146377,31.16889423,30.96061086,24.23146377,,,,,,,,,,,,,,,,,,,,PF,strong,2,,,,,,,,0,4.271995,,,,,,,,,,,,,,,,,,,,,,,,,,,,8,strong,-67,124,1,0,0,response7disk,8,7,-8,-2,1,0,0,rectangle,-8,-2,1,0,0,,2,0.00062,-8,-2,1,0,0,0,6,6,48,1,0,,,,,,,,,,,,,,,,,,,,,
,,,,,,,,,,,,,,,,,,,,,,,,,,,,,,,,,,,,,,,,,,5ee0a607b1d0693f75003f64,606c0d64b01a49e7a3bd900a,2021-04-06_10h27.54.360,Colour_Similarity_Experiment,2020.2.10,Win32,60,6067542a4a25243f4d7d4fcf,16.81172222,17.22981424,24.23146377,31.16889423,30.96061086,24.23146377,,,,,,,,,,,,,,,,,,,,PF,weak,2,,,,,,,,2,3.78269,,,,,,,,,,,,,,,,,,,,,,,,,,,,5,weak,-113,-41,1,0,0,response5disk,3,8,11,-7,1,0,0,rectangle,11,-7,1,0,0,,4,0.000745,11,-7,1,0,0,0,7,7,109,1,0,,,,,,,,,,,,,,,,,,,,,
,,,,,,,,,,,,,,,,,,,,,,,,,,,,,,,,,,,,,,,,,,5ee0a607b1d0693f75003f64,606c0d64b01a49e7a3bd900a,2021-04-06_10h27.54.360,Colour_Similarity_Experiment,2020.2.10,Win32,60,6067542a4a25243f4d7d4fcf,16.81172222,17.22981424,24.23146377,31.16889423,30.96061086,24.23146377,,,,,,,,,,,,,,,,,,,,PF,strong,2,,,,,,,,1,2.659035,,,,,,,,,,,,,,,,,,,,,,,,,,,,2,strong,-130,55,1,0,0,response7disk,2,9,-17,2,1,0,0,rectangle,-17,2,1,0,0,,4,0.00012,-17,2,1,0,0,0,8,8,142,1,0,,,,,,,,,,,,,,,,,,,,,
,,,,,,,,,,,,,,,,,,,,,,,,,,,,,,,,,,,,,,,,,,5ee0a607b1d0693f75003f64,606c0d64b01a49e7a3bd900a,2021-04-06_10h27.54.360,Colour_Similarity_Experiment,2020.2.10,Win32,60,6067542a4a25243f4d7d4fcf,16.81172222,17.22981424,24.23146377,31.16889423,30.96061086,24.23146377,,,,,,,,,,,,,,,,,,,,PF,weak,2,,,,,,,,7,1.21713,,,,,,,,,,,,,,,,,,,,,,,,,,,,7,weak,43,96,1,0,0,response1disk,8,10,-18,-1,1,0,0,rectangle,-18,-1,1,0,0,,3,0.000495,-18,-1,1,0,0,0,9,9,140,1,0,,,,,,,,,,,,,,,,,,,,,
,,,,,,,,,,,,,,,,,,,,,,,,,,,,,,,,,,,,,,,,,,5ee0a607b1d0693f75003f64,606c0d64b01a49e7a3bd900a,2021-04-06_10h27.54.360,Colour_Similarity_Experiment,2020.2.10,Win32,60,6067542a4a25243f4d7d4fcf,16.81172222,17.22981424,24.23146377,31.16889423,30.96061086,24.23146377,,,,,,,,,,,,,,,,,,,,PF,strong,2,,,,,,,,4,2.548515,,,,,,,,,,,,,,,,,,,,,,,,,,,,9,strong,54,-106,1,0,0,response3disk,1,11,-4,0,1,0,0,rectangle,-4,0,1,0,0,,0,0.00065,-4,0,1,0,0,0,10,10,111,1,0,,,,,,,,,,,,,,,,,,,,,
,,,,,,,,,,,,,,,,,,,,,,,,,,,,,,,,,,,,,,,,,,5ee0a607b1d0693f75003f64,606c0d64b01a49e7a3bd900a,2021-04-06_10h27.54.360,Colour_Similarity_Experiment,2020.2.10,Win32,60,6067542a4a25243f4d7d4fcf,16.81172222,17.22981424,24.23146377,31.16889423,30.96061086,24.23146377,,,,,,,,,,,,,,,,,,,,PF,strong,2,,,,,,,,7,1.15085,,,,,,,,,,,,,,,,,,,,,,,,,,,,3,strong,46,117,1,0,0,response1disk,4,12,3,2,1,0,0,rectangle,3,2,1,0,0,,7,0.000525,3,2,1,0,0,0,11,11,110,1,0,,,,,,,,,,,,,,,,,,,,,
,,,,,,,,,,,,,,,,,,,,,,,,,,,,,,,,,,,,,,,,,,5ee0a607b1d0693f75003f64,606c0d64b01a49e7a3bd900a,2021-04-06_10h27.54.360,Colour_Similarity_Experiment,2020.2.10,Win32,60,6067542a4a25243f4d7d4fcf,16.81172222,17.22981424,24.23146377,31.16889423,30.96061086,24.23146377,,,,,,,,,,,,,,,,,,,,PF,strong,2,,,,,,,,1,2.026675,,,,,,,,,,,,,,,,,,,,,,,,,,,,6,strong,-97,44,1,0,0,response7disk,1,13,-14,-1,1,0,0,rectangle,-14,-1,1,0,0,,1,0.00049,-14,-1,1,0,0,0,12,12,5,1,0,,,,,,,,,,,,,,,,,,,,,
,,,,,,,,,,,,,,,,,,,,,,,,,,,,,,,,,,,,,,,,,,5ee0a607b1d0693f75003f64,606c0d64b01a49e7a3bd900a,2021-04-06_10h27.54.360,Colour_Similarity_Experiment,2020.2.10,Win32,60,6067542a4a25243f4d7d4fcf,16.81172222,17.22981424,24.23146377,31.16889423,30.96061086,24.23146377,,,,,,,,,,,,,,,,,,,,PF,weak,2,,,,,,,,7,0.96909,,,,,,,,,,,,,,,,,,,,,,,,,,,,7,weak,60,108,1,0,0,response1disk,1,14,11,4,1,0,0,rectangle,11,4,1,0,0,,4,0.00066,11,4,1,0,0,0,13,13,53,1,0,,,,,,,,,,,,,,,,,,,,,
,,,,,,,,,,,,,,,,,,,,,,,,,,,,,,,,,,,,,,,,,,5ee0a607b1d0693f75003f64,606c0d64b01a49e7a3bd900a,2021-04-06_10h27.54.360,Colour_Similarity_Experiment,2020.2.10,Win32,60,6067542a4a25243f4d7d4fcf,16.81172222,17.22981424,24.23146377,31.16889423,30.96061086,24.23146377,,,,,,,,,,,,,,,,,,,,PF,weak,2,,,,,,,,0,1.86866,,,,,,,,,,,,,,,,,,,,,,,,,,,,9,weak,-49,138,1,0,0,response7disk,9,15,2,11,1,0,0,rectangle,2,11,1,0,0,,1,0.000625,2,11,1,0,0,0,14,14,106,1,0,,,,,,,,,,,,,,,,,,,,,
,,,,,,,,,,,,,,,,,,,,,,,,,,,,,,,,,,,,,,,,,,5ee0a607b1d0693f75003f64,606c0d64b01a49e7a3bd900a,2021-04-06_10h27.54.360,Colour_Similarity_Experiment,2020.2.10,Win32,60,6067542a4a25243f4d7d4fcf,16.81172222,17.22981424,24.23146377,31.16889423,30.96061086,24.23146377,,,,,,,,,,,,,,,,,,,,PF,strong,2,,,,,,,,7,3.67389,,,,,,,,,,,,,,,,,,,,,,,,,,,,7,strong,50,124,1,0,0,response1disk,4,16,1,3,1,0,0,rectangle,1,3,1,0,0,,2,0.00062,1,3,1,0,0,0,15,15,158,1,0,,,,,,,,,,,,,,,,,,,,,
,,,,,,,,,,,,,,,,,,,,,,,,,,,,,,,,,,,,,,,,,,5ee0a607b1d0693f75003f64,606c0d64b01a49e7a3bd900a,2021-04-06_10h27.54.360,Colour_Similarity_Experiment,2020.2.10,Win32,60,6067542a4a25243f4d7d4fcf,16.81172222,17.22981424,24.23146377,31.16889423,30.96061086,24.23146377,,,,,,,,,,,,,,,,,,,,PF,strong,2,,,,,,,,7,1.24644,,,,,,,,,,,,,,,,,,,,,,,,,,,,2,strong,53,118,1,0,0,response1disk,4,17,-19,11,1,0,0,rectangle,-19,11,1,0,0,,4,0.000485,-19,11,1,0,0,0,16,16,145,1,0,,,,,,,,,,,,,,,,,,,,,
,,,,,,,,,,,,,,,,,,,,,,,,,,,,,,,,,,,,,,,,,,5ee0a607b1d0693f75003f64,606c0d64b01a49e7a3bd900a,2021-04-06_10h27.54.360,Colour_Similarity_Experiment,2020.2.10,Win32,60,6067542a4a25243f4d7d4fcf,16.81172222,17.22981424,24.23146377,31.16889423,30.96061086,24.23146377,,,,,,,,,,,,,,,,,,,,PF,strong,2,,,,,,,,5,2.306855,,,,,,,,,,,,,,,,,,,,,,,,,,,,6,strong,124,-42,1,0,0,response3disk,4,18,10,4,1,0,0,rectangle,10,4,1,0,0,,6,0.000645,10,4,1,0,0,0,17,17,56,1,0,,,,,,,,,,,,,,,,,,,,,
,,,,,,,,,,,,,,,,,,,,,,,,,,,,,,,,,,,,,,,,,,5ee0a607b1d0693f75003f64,606c0d64b01a49e7a3bd900a,2021-04-06_10h27.54.360,Colour_Similarity_Experiment,2020.2.10,Win32,60,6067542a4a25243f4d7d4fcf,16.81172222,17.22981424,24.23146377,31.16889423,30.96061086,24.23146377,,,,,,,,,,,,,,,,,,,,PF,strong,2,,,,,,,,7,1.372665,,,,,,,,,,,,,,,,,,,,,,,,,,,,3,strong,71,108,1,0,0,response1disk,1,19,1,-2,1,0,0,rectangle,1,-2,1,0,0,,0,0.000505,1,-2,1,0,0,0,18,18,125,1,0,,,,,,,,,,,,,,,,,,,,,
,,,,,,,,,,,,,,,,,,,,,,,,,,,,,,,,,,,,,,,,,,5ee0a607b1d0693f75003f64,606c0d64b01a49e7a3bd900a,2021-04-06_10h27.54.360,Colour_Similarity_Experiment,2020.2.10,Win32,60,6067542a4a25243f4d7d4fcf,16.81172222,17.22981424,24.23146377,31.16889423,30.96061086,24.23146377,,,,,,,,,,,,,,,,,,,,PF,strong,2,,,,,,,,4,4.51811,,,,,,,,,,,,,,,,,,,,,,,,,,,,1,strong,70,-114,1,0,0,response3disk,5,20,-2,-1,1,0,0,rectangle,-2,-1,1,0,0,,3,0.000585,-2,-1,1,0,0,0,19,19,82,1,0,,,,,,,,,,,,,,,,,,,,,
,,,,,,,,,,,,,,,,,,,,,,,,,,,,,,,,,,,,,,,,,,5ee0a607b1d0693f75003f64,606c0d64b01a49e7a3bd900a,2021-04-06_10h27.54.360,Colour_Similarity_Experiment,2020.2.10,Win32,60,6067542a4a25243f4d7d4fcf,16.81172222,17.22981424,24.23146377,31.16889423,30.96061086,24.23146377,,,,,,,,,,,,,,,,,,,,PF,weak,2,,,,,,,,0,1.24781,,,,,,,,,,,,,,,,,,,,,,,,,,,,4,weak,-56,134,1,0,0,response7disk,4,21,5,1,1,0,0,rectangle,5,1,1,0,0,,1,0.000515,5,1,1,0,0,0,20,20,70,1,0,,,,,,,,,,,,,,,,,,,,,
,,,,,,,,,,,,,,,,,,,,,,,,,,,,,,,,,,,,,,,,,,5ee0a607b1d0693f75003f64,606c0d64b01a49e7a3bd900a,2021-04-06_10h27.54.360,Colour_Similarity_Experiment,2020.2.10,Win32,60,6067542a4a25243f4d7d4fcf,16.81172222,17.22981424,24.23146377,31.16889423,30.96061086,24.23146377,,,,,,,,,,,,,,,,,,,,PF,weak,2,,,,,,,,7,1.21372,,,,,,,,,,,,,,,,,,,,,,,,,,,,8,weak,64,116,1,0,0,response1disk,3,22,5,-2,1,0,0,rectangle,5,-2,1,0,0,,7,0.000625,5,-2,1,0,0,0,21,21,71,1,0,,,,,,,,,,,,,,,,,,,,,
,,,,,,,,,,,,,,,,,,,,,,,,,,,,,,,,,,,,,,,,,,5ee0a607b1d0693f75003f64,606c0d64b01a49e7a3bd900a,2021-04-06_10h27.54.360,Colour_Similarity_Experiment,2020.2.10,Win32,60,6067542a4a25243f4d7d4fcf,16.81172222,17.22981424,24.23146377,31.16889423,30.96061086,24.23146377,,,,,,,,,,,,,,,,,,,,PF,weak,2,,,,,,,,2,1.80749,,,,,,,,,,,,,,,,,,,,,,,,,,,,5,weak,-117,-46,1,0,0,response5disk,6,23,-8,-3,1,0,0,rectangle,-8,-3,1,0,0,,6,0.00075,-8,-3,1,0,0,0,22,22,103,1,0,,,,,,,,,,,,,,,,,,,,,
,,,,,,,,,,,,,,,,,,,,,,,,,,,,,,,,,,,,,,,,,,5ee0a607b1d0693f75003f64,606c0d64b01a49e7a3bd900a,2021-04-06_10h27.54.360,Colour_Similarity_Experiment,2020.2.10,Win32,60,6067542a4a25243f4d7d4fcf,16.81172222,17.22981424,24.23146377,31.16889423,30.96061086,24.23146377,,,,,,,,,,,,,,,,,,,,PF,strong,2,,,,,,,,7,1.373445,,,,,,,,,,,,,,,,,,,,,,,,,,,,4,strong,54,136,1,0,0,response1disk,8,24,-12,9,1,0,0,rectangle,-12,9,1,0,0,,1,0.0005,-12,9,1,0,0,0,23,23,35,1,0,,,,,,,,,,,,,,,,,,,,,
,,,,,,,,,,,,,,,,,,,,,,,,,,,,,,,,,,,,,,,,,,5ee0a607b1d0693f75003f64,606c0d64b01a49e7a3bd900a,2021-04-06_10h27.54.360,Colour_Similarity_Experiment,2020.2.10,Win32,60,6067542a4a25243f4d7d4fcf,16.81172222,17.22981424,24.23146377,31.16889423,30.96061086,24.23146377,,,,,,,,,,,,,,,,,,,,PF,strong,2,,,,,,,,1,2.40008,,,,,,,,,,,,,,,,,,,,,,,,,,,,6,strong,-114,52,1,0,0,response7disk,9,25,-17,0,1,0,0,rectangle,-100,-44,1,0,0,,2,4.06225,-6,-1,1,0,0,0,24,24,160,1,1,response5disk_3,rectangle,,,,,,,,,,,,,,,,,,,
,,,,,,,,,,,,,,,,,,,,,,,,,,,,,,,,,,,,,,,,,,5ee0a607b1d0693f75003f64,606c0d64b01a49e7a3bd900a,2021-04-06_10h27.54.360,Colour_Similarity_Experiment,2020.2.10,Win32,60,6067542a4a25243f4d7d4fcf,16.81172222,17.22981424,24.23146377,31.16889423,30.96061086,24.23146377,,,,,,,,,,,,,,,,,,,,PF,weak,2,,,,,,,,1,1.840055,,,,,,,,,,,,,,,,,,,,,,,,,,,,3,weak,-120,46,1,0,0,response7disk,2,26,-7,-1,1,0,0,rectangle,49,86,1,0,0,7,7,2.000675,1,-7,1,0,0,0,25,25,36,1,1,response1disk_3,rectangle,,,,,,,,,,,,,,,,,,,
,,,,,,,,,,,,,,,,,,,,,,,,,,,,,,,,,,,,,,,,,,5ee0a607b1d0693f75003f64,606c0d64b01a49e7a3bd900a,2021-04-06_10h27.54.360,Colour_Similarity_Experiment,2020.2.10,Win32,60,6067542a4a25243f4d7d4fcf,16.81172222,17.22981424,24.23146377,31.16889423,30.96061086,24.23146377,,,,,,,,,,,,,,,,,,,,PF,strong,2,,,,,,,,2,3.17349,,,,,,,,,,,,,,,,,,,,,,,,,,,,5,strong,-124,-58,1,0,0,response5disk,5,27,-18,-1,1,0,0,rectangle,-18,-1,1,0,0,7,0,0.000755,-18,-1,1,0,0,0,26,26,19,1,0,,,,,,,,,,,,,,,,,,,,,
,,,,,,,,,,,,,,,,,,,,,,,,,,,,,,,,,,,,,,,,,,5ee0a607b1d0693f75003f64,606c0d64b01a49e7a3bd900a,2021-04-06_10h27.54.360,Colour_Similarity_Experiment,2020.2.10,Win32,60,6067542a4a25243f4d7d4fcf,16.81172222,17.22981424,24.23146377,31.16889423,30.96061086,24.23146377,,,,,,,,,,,,,,,,,,,,PF,weak,2,,,,,,,,3,2.80359,,,,,,,,,,,,,,,,,,,,,,,,,,,,9,weak,-49,-110,1,0,0,response5disk,1,28,-10,0,1,0,0,rectangle,-10,0,1,0,0,7,2,0.00066,-10,0,1,0,0,0,27,27,74,1,0,,,,,,,,,,,,,,,,,,,,,
,,,,,,,,,,,,,,,,,,,,,,,,,,,,,,,,,,,,,,,,,,5ee0a607b1d0693f75003f64,606c0d64b01a49e7a3bd900a,2021-04-06_10h27.54.360,Colour_Similarity_Experiment,2020.2.10,Win32,60,6067542a4a25243f4d7d4fcf,16.81172222,17.22981424,24.23146377,31.16889423,30.96061086,24.23146377,,,,,,,,,,,,,,,,,,,,PF,strong,2,,,,,,,,6,1.715595,,,,,,,,,,,,,,,,,,,,,,,,,,,,1,strong,132,47,1,0,0,response1disk,6,29,-4,1,1,0,0,rectangle,-4,1,1,0,0,7,1,0.000715,-4,1,1,0,0,0,28,28,58,1,0,,,,,,,,,,,,,,,,,,,,,
,,,,,,,,,,,,,,,,,,,,,,,,,,,,,,,,,,,,,,,,,,5ee0a607b1d0693f75003f64,606c0d64b01a49e7a3bd900a,2021-04-06_10h27.54.360,Colour_Similarity_Experiment,2020.2.10,Win32,60,6067542a4a25243f4d7d4fcf,16.81172222,17.22981424,24.23146377,31.16889423,30.96061086,24.23146377,,,,,,,,,,,,,,,,,,,,PF,weak,2,,,,,,,,7,1.31131,,,,,,,,,,,,,,,,,,,,,,,,,,,,8,weak,46,138,1,0,0,response1disk,1,30,-2,0,1,0,0,rectangle,-2,0,1,0,0,7,5,0.001435,-2,0,1,0,0,0,29,29,57,1,0,,,,,,,,,,,,,,,,,,,,,
,,,,,,,,,,,,,,,,,,,,,,,,,,,,,,,,,,,,,,,,,,5ee0a607b1d0693f75003f64,606c0d64b01a49e7a3bd900a,2021-04-06_10h27.54.360,Colour_Similarity_Experiment,2020.2.10,Win32,60,6067542a4a25243f4d7d4fcf,16.81172222,17.22981424,24.23146377,31.16889423,30.96061086,24.23146377,,,,,,,,,,,,,,,,,,,,PF,strong,2,,,,,,,,5,5.143475,,,,,,,,,,,,,,,,,,,,,,,,,,,,8,strong,127,-43,1,0,0,response3disk,4,31,4,4,1,0,0,rectangle,4,4,1,0,0,7,1,0.00061,4,4,1,0,0,0,30,30,88,1,0,,,,,,,,,,,,,,,,,,,,,
,,,,,,,,,,,,,,,,,,,,,,,,,,,,,,,,,,,,,,,,,,5ee0a607b1d0693f75003f64,606c0d64b01a49e7a3bd900a,2021-04-06_10h27.54.360,Colour_Similarity_Experiment,2020.2.10,Win32,60,6067542a4a25243f4d7d4fcf,16.81172222,17.22981424,24.23146377,31.16889423,30.96061086,24.23146377,,,,,,,,,,,,,,,,,,,,PF,weak,2,,,,,,,,7,1.32095,,,,,,,,,,,,,,,,,,,,,,,,,,,,7,weak,53,133,1,0,0,response1disk,3,32,-1,6,1,0,0,rectangle,-1,6,1,0,0,7,6,0.0007,-1,6,1,0,0,0,31,31,81,1,0,,,,,,,,,,,,,,,,,,,,,
,,,,,,,,,,,,,,,,,,,,,,,,,,,,,,,,,,,,,,,,,,5ee0a607b1d0693f75003f64,606c0d64b01a49e7a3bd900a,2021-04-06_10h27.54.360,Colour_Similarity_Experiment,2020.2.10,Win32,60,6067542a4a25243f4d7d4fcf,16.81172222,17.22981424,24.23146377,31.16889423,30.96061086,24.23146377,,,,,,,,,,,,,,,,,,,,PF,strong,2,,,,,,,,7,1.275295,,,,,,,,,,,,,,,,,,,,,,,,,,,,4,strong,48,125,1,0,0,response1disk,1,33,17,-3,1,0,0,rectangle,17,-3,1,0,0,7,1,0.000485,17,-3,1,0,0,0,32,32,102,1,0,,,,,,,,,,,,,,,,,,,,,
,,,,,,,,,,,,,,,,,,,,,,,,,,,,,,,,,,,,,,,,,,5ee0a607b1d0693f75003f64,606c0d64b01a49e7a3bd900a,2021-04-06_10h27.54.360,Colour_Similarity_Experiment,2020.2.10,Win32,60,6067542a4a25243f4d7d4fcf,16.81172222,17.22981424,24.23146377,31.16889423,30.96061086,24.23146377,,,,,,,,,,,,,,,,,,,,PF,strong,2,,,,,,,,7,2.11756,,,,,,,,,,,,,,,,,,,,,,,,,,,,8,strong,46,118,1,0,0,response1disk,6,34,9,0,1,0,0,rectangle,9,0,1,0,0,7,7,0.00069,9,0,1,0,0,0,33,33,37,1,0,,,,,,,,,,,,,,,,,,,,,
,,,,,,,,,,,,,,,,,,,,,,,,,,,,,,,,,,,,,,,,,,5ee0a607b1d0693f75003f64,606c0d64b01a49e7a3bd900a,2021-04-06_10h27.54.360,Colour_Similarity_Experiment,2020.2.10,Win32,60,6067542a4a25243f4d7d4fcf,16.81172222,17.22981424,24.23146377,31.16889423,30.96061086,24.23146377,,,,,,,,,,,,,,,,,,,,PF,strong,2,,,,,,,,7,2.18187,,,,,,,,,,,,,,,,,,,,,,,,,,,,5,strong,52,137,1,0,0,response1disk,1,35,6,16,1,0,0,rectangle,6,16,1,0,0,7,4,0.000625,6,16,1,0,0,0,34,34,131,1,0,,,,,,,,,,,,,,,,,,,,,
,,,,,,,,,,,,,,,,,,,,,,,,,,,,,,,,,,,,,,,,,,5ee0a607b1d0693f75003f64,606c0d64b01a49e7a3bd900a,2021-04-06_10h27.54.360,Colour_Similarity_Experiment,2020.2.10,Win32,60,6067542a4a25243f4d7d4fcf,16.81172222,17.22981424,24.23146377,31.16889423,30.96061086,24.23146377,,,,,,,,,,,,,,,,,,,,PF,weak,2,,,,,,,,7,1.20378,,,,,,,,,,,,,,,,,,,,,,,,,,,,9,weak,44,145,1,0,0,response1disk,3,36,0,6,1,0,0,rectangle,0,6,1,0,0,7,6,0.000505,0,6,1,0,0,0,35,35,119,1,0,,,,,,,,,,,,,,,,,,,,,
,,,,,,,,,,,,,,,,,,,,,,,,,,,,,,,,,,,,,,,,,,5ee0a607b1d0693f75003f64,606c0d64b01a49e7a3bd900a,2021-04-06_10h27.54.360,Colour_Similarity_Experiment,2020.2.10,Win32,60,6067542a4a25243f4d7d4fcf,16.81172222,17.22981424,24.23146377,31.16889423,30.96061086,24.23146377,,,,,,,,,,,,,,,,,,,,PF,strong,2,,,,,,,,4,4.96895,,,,,,,,,,,,,,,,,,,,,,,,,,,,1,strong,51,-126,1,0,0,response3disk,2,37,-6,12,1,0,0,rectangle,-6,12,1,0,0,7,1,0.000585,-6,12,1,0,0,0,36,36,2,1,0,,,,,,,,,,,,,,,,,,,,,
,,,,,,,,,,,,,,,,,,,,,,,,,,,,,,,,,,,,,,,,,,5ee0a607b1d0693f75003f64,606c0d64b01a49e7a3bd900a,2021-04-06_10h27.54.360,Colour_Similarity_Experiment,2020.2.10,Win32,60,6067542a4a25243f4d7d4fcf,16.81172222,17.22981424,24.23146377,31.16889423,30.96061086,24.23146377,,,,,,,,,,,,,,,,,,,,PF,weak,2,,,,,,,,7,1.368975,,,,,,,,,,,,,,,,,,,,,,,,,,,,5,weak,46,132,1,0,0,response1disk,1,38,4,2,1,0,0,rectangle,-115,48,1,0,0,1,1,1.963395,-9,-7,1,0,0,0,37,37,159,1,1,response7disk_3,rectangle,,,,,,,,,,,,,,,,,,,
,,,,,,,,,,,,,,,,,,,,,,,,,,,,,,,,,,,,,,,,,,5ee0a607b1d0693f75003f64,606c0d64b01a49e7a3bd900a,2021-04-06_10h27.54.360,Colour_Similarity_Experiment,2020.2.10,Win32,60,6067542a4a25243f4d7d4fcf,16.81172222,17.22981424,24.23146377,31.16889423,30.96061086,24.23146377,,,,,,,,,,,,,,,,,,,,PF,weak,2,,,,,,,,7,1.27896,,,,,,,,,,,,,,,,,,,,,,,,,,,,3,weak,46,134,1,0,0,response1disk,9,39,-4,-4,1,0,0,rectangle,-4,-4,1,0,0,1,6,0.00065,-4,-4,1,0,0,0,38,38,79,1,0,,,,,,,,,,,,,,,,,,,,,
,,,,,,,,,,,,,,,,,,,,,,,,,,,,,,,,,,,,,,,,,,5ee0a607b1d0693f75003f64,606c0d64b01a49e7a3bd900a,2021-04-06_10h27.54.360,Colour_Similarity_Experiment,2020.2.10,Win32,60,6067542a4a25243f4d7d4fcf,16.81172222,17.22981424,24.23146377,31.16889423,30.96061086,24.23146377,,,,,,,,,,,,,,,,,,,,PF,strong,2,,,,,,,,7,1.21301,,,,,,,,,,,,,,,,,,,,,,,,,,,,9,strong,47,125,1,0,0,response1disk,6,40,5,3,1,0,0,rectangle,5,3,1,0,0,1,2,0.000625,5,3,1,0,0,0,39,39,117,1,0,,,,,,,,,,,,,,,,,,,,,
,,,,,,,,,,,,,,,,,,,,,,,,,,,,,,,,,,,,,,,,,,5ee0a607b1d0693f75003f64,606c0d64b01a49e7a3bd900a,2021-04-06_10h27.54.360,Colour_Similarity_Experiment,2020.2.10,Win32,60,6067542a4a25243f4d7d4fcf,16.81172222,17.22981424,24.23146377,31.16889423,30.96061086,24.23146377,,,,,,,,,,,,,,,,,,,,PF,weak,2,,,,,,,,7,1.156195,,,,,,,,,,,,,,,,,,,,,,,,,,,,3,weak,53,136,1,0,0,response1disk,1,41,-1,8,1,0,0,rectangle,-1,8,1,0,0,1,2,0.000105,-1,8,1,0,0,0,40,40,96,1,0,,,,,,,,,,,,,,,,,,,,,
,,,,,,,,,,,,,,,,,,,,,,,,,,,,,,,,,,,,,,,,,,5ee0a607b1d0693f75003f64,606c0d64b01a49e7a3bd900a,2021-04-06_10h27.54.360,Colour_Similarity_Experiment,2020.2.10,Win32,60,6067542a4a25243f4d7d4fcf,16.81172222,17.22981424,24.23146377,31.16889423,30.96061086,24.23146377,,,,,,,,,,,,,,,,,,,,PF,weak,2,,,,,,,,7,1.179495,,,,,,,,,,,,,,,,,,,,,,,,,,,,9,weak,53,140,1,0,0,response1disk,4,42,8,8,1,0,0,rectangle,8,8,1,0,0,1,0,0.0006,8,8,1,0,0,0,41,41,114,1,0,,,,,,,,,,,,,,,,,,,,,
,,,,,,,,,,,,,,,,,,,,,,,,,,,,,,,,,,,,,,,,,,5ee0a607b1d0693f75003f64,606c0d64b01a49e7a3bd900a,2021-04-06_10h27.54.360,Colour_Similarity_Experiment,2020.2.10,Win32,60,6067542a4a25243f4d7d4fcf,16.81172222,17.22981424,24.23146377,31.16889423,30.96061086,24.23146377,,,,,,,,,,,,,,,,,,,,PF,weak,2,,,,,,,,7,1.31063,,,,,,,,,,,,,,,,,,,,,,,,,,,,7,weak,50,138,1,0,0,response1disk,9,43,-5,5,1,0,0,rectangle,-5,5,1,0,0,1,3,0.000475,-5,5,1,0,0,0,42,42,10,1,0,,,,,,,,,,,,,,,,,,,,,
,,,,,,,,,,,,,,,,,,,,,,,,,,,,,,,,,,,,,,,,,,5ee0a607b1d0693f75003f64,606c0d64b01a49e7a3bd900a,2021-04-06_10h27.54.360,Colour_Similarity_Experiment,2020.2.10,Win32,60,6067542a4a25243f4d7d4fcf,16.81172222,17.22981424,24.23146377,31.16889423,30.96061086,24.23146377,,,,,,,,,,,,,,,,,,,,PF,weak,2,,,,,,,,7,1.18827,,,,,,,,,,,,,,,,,,,,,,,,,,,,2,weak,48,120,1,0,0,response1disk,6,44,7,2,1,0,0,rectangle,7,2,1,0,0,1,3,0.00163,7,2,1,0,0,0,43,43,113,1,0,,,,,,,,,,,,,,,,,,,,,
,,,,,,,,,,,,,,,,,,,,,,,,,,,,,,,,,,,,,,,,,,5ee0a607b1d0693f75003f64,606c0d64b01a49e7a3bd900a,2021-04-06_10h27.54.360,Colour_Similarity_Experiment,2020.2.10,Win32,60,6067542a4a25243f4d7d4fcf,16.81172222,17.22981424,24.23146377,31.16889423,30.96061086,24.23146377,,,,,,,,,,,,,,,,,,,,PF,strong,2,,,,,,,,7,2.165525,,,,,,,,,,,,,,,,,,,,,,,,,,,,9,strong,49,132,1,0,0,response1disk,3,45,-1,0,1,0,0,rectangle,-1,0,1,0,0,1,0,0.00053,-1,0,1,0,0,0,44,44,141,1,0,,,,,,,,,,,,,,,,,,,,,
,,,,,,,,,,,,,,,,,,,,,,,,,,,,,,,,,,,,,,,,,,5ee0a607b1d0693f75003f64,606c0d64b01a49e7a3bd900a,2021-04-06_10h27.54.360,Colour_Similarity_Experiment,2020.2.10,Win32,60,6067542a4a25243f4d7d4fcf,16.81172222,17.22981424,24.23146377,31.16889423,30.96061086,24.23146377,,,,,,,,,,,,,,,,,,,,PF,weak,2,,,,,,,,6,1.475285,,,,,,,,,,,,,,,,,,,,,,,,,,,,6,weak,127,51,1,0,0,response1disk,3,46,1,7,1,0,0,rectangle,1,7,1,0,0,1,3,0.00066,1,7,1,0,0,0,45,45,26,1,0,,,,,,,,,,,,,,,,,,,,,
,,,,,,,,,,,,,,,,,,,,,,,,,,,,,,,,,,,,,,,,,,5ee0a607b1d0693f75003f64,606c0d64b01a49e7a3bd900a,2021-04-06_10h27.54.360,Colour_Similarity_Experiment,2020.2.10,Win32,60,6067542a4a25243f4d7d4fcf,16.81172222,17.22981424,24.23146377,31.16889423,30.96061086,24.23146377,,,,,,,,,,,,,,,,,,,,PF,strong,2,,,,,,,,7,1.12159,,,,,,,,,,,,,,,,,,,,,,,,,,,,4,strong,54,129,1,0,0,response1disk,7,47,3,3,1,0,0,rectangle,3,3,1,0,0,1,5,0.000485,3,3,1,0,0,0,46,46,87,1,0,,,,,,,,,,,,,,,,,,,,,
,,,,,,,,,,,,,,,,,,,,,,,,,,,,,,,,,,,,,,,,,,5ee0a607b1d0693f75003f64,606c0d64b01a49e7a3bd900a,2021-04-06_10h27.54.360,Colour_Similarity_Experiment,2020.2.10,Win32,60,6067542a4a25243f4d7d4fcf,16.81172222,17.22981424,24.23146377,31.16889423,30.96061086,24.23146377,,,,,,,,,,,,,,,,,,,,PF,weak,2,,,,,,,,2,7.00447,,,,,,,,,,,,,,,,,,,,,,,,,,,,9,weak,-105,-55,1,0,0,response5disk,7,48,-1,-3,1,0,0,rectangle,-1,-3,1,0,0,1,0,0.000515,-1,-3,1,0,0,0,47,47,121,1,0,,,,,,,,,,,,,,,,,,,,,
,,,,,,,,,,,,,,,,,,,,,,,,,,,,,,,,,,,,,,,,,,5ee0a607b1d0693f75003f64,606c0d64b01a49e7a3bd900a,2021-04-06_10h27.54.360,Colour_Similarity_Experiment,2020.2.10,Win32,60,6067542a4a25243f4d7d4fcf,16.81172222,17.22981424,24.23146377,31.16889423,30.96061086,24.23146377,,,,,,,,,,,,,,,,,,,,PF,strong,2,,,,,,,,7,1.219845,,,,,,,,,,,,,,,,,,,,,,,,,,,,9,strong,49,120,1,0,0,response1disk,5,49,8,-2,1,0,0,rectangle,8,-2,1,0,0,1,5,0.00068,8,-2,1,0,0,0,48,48,128,1,0,,,,,,,,,,,,,,,,,,,,,
,,,,,,,,,,,,,,,,,,,,,,,,,,,,,,,,,,,,,,,,,,5ee0a607b1d0693f75003f64,606c0d64b01a49e7a3bd900a,2021-04-06_10h27.54.360,Colour_Similarity_Experiment,2020.2.10,Win32,60,6067542a4a25243f4d7d4fcf,16.81172222,17.22981424,24.23146377,31.16889423,30.96061086,24.23146377,,,,,,,,,,,,,,,,,,,,PF,weak,2,,,,,,,,7,1.09247,,,,,,,,,,,,,,,,,,,,,,,,,,,,1,weak,57,135,1,0,0,response1disk,6,50,2,2,1,0,0,rectangle,2,2,1,0,0,1,0,0.00056,2,2,1,0,0,0,49,49,144,1,0,,,,,,,,,,,,,,,,,,,,,
,,,,,,,,,,,,,,,,,,,,,,,,,,,,,,,,,,,,,,,,,,5ee0a607b1d0693f75003f64,606c0d64b01a49e7a3bd900a,2021-04-06_10h27.54.360,Colour_Similarity_Experiment,2020.2.10,Win32,60,6067542a4a25243f4d7d4fcf,16.81172222,17.22981424,24.23146377,31.16889423,30.96061086,24.23146377,,,,,,,,,,,,,,,,,,,,PF,strong,2,,,,,,,,3,3.89561,,,,,,,,,,,,,,,,,,,,,,,,,,,,2,strong,-43,-130,1,0,0,response5disk,3,51,-13,9,1,0,0,rectangle,-42,-119,1,0,0,3,3,2.026965,6,-9,1,0,0,0,50,50,104,1,1,response5disk_3,rectangle,,,,,,,,,,,,,,,,,,,
,,,,,,,,,,,,,,,,,,,,,,,,,,,,,,,,,,,,,,,,,,5ee0a607b1d0693f75003f64,606c0d64b01a49e7a3bd900a,2021-04-06_10h27.54.360,Colour_Similarity_Experiment,2020.2.10,Win32,60,6067542a4a25243f4d7d4fcf,16.81172222,17.22981424,24.23146377,31.16889423,30.96061086,24.23146377,,,,,,,,,,,,,,,,,,,,PF,weak,2,,,,,,,,7,1.212615,,,,,,,,,,,,,,,,,,,,,,,,,,,,6,weak,39,133,1,0,0,response1disk,2,52,-11,3,1,0,0,rectangle,-11,3,1,0,0,3,1,0.00113,-11,3,1,0,0,0,51,51,130,1,0,,,,,,,,,,,,,,,,,,,,,
,,,,,,,,,,,,,,,,,,,,,,,,,,,,,,,,,,,,,,,,,,5ee0a607b1d0693f75003f64,606c0d64b01a49e7a3bd900a,2021-04-06_10h27.54.360,Colour_Similarity_Experiment,2020.2.10,Win32,60,6067542a4a25243f4d7d4fcf,16.81172222,17.22981424,24.23146377,31.16889423,30.96061086,24.23146377,,,,,,,,,,,,,,,,,,,,PF,weak,2,,,,,,,,7,1.24378,,,,,,,,,,,,,,,,,,,,,,,,,,,,1,weak,52,134,1,0,0,response1disk,2,53,9,10,1,0,0,rectangle,9,10,1,0,0,3,5,0.00085,9,10,1,0,0,0,52,52,24,1,0,,,,,,,,,,,,,,,,,,,,,
,,,,,,,,,,,,,,,,,,,,,,,,,,,,,,,,,,,,,,,,,,5ee0a607b1d0693f75003f64,606c0d64b01a49e7a3bd900a,2021-04-06_10h27.54.360,Colour_Similarity_Experiment,2020.2.10,Win32,60,6067542a4a25243f4d7d4fcf,16.81172222,17.22981424,24.23146377,31.16889423,30.96061086,24.23146377,,,,,,,,,,,,,,,,,,,,PF,strong,2,,,,,,,,2,5.110635,,,,,,,,,,,,,,,,,,,,,,,,,,,,2,strong,-100,-43,1,0,0,response5disk,5,54,-1,-5,1,0,0,rectangle,-1,-5,1,0,0,3,3,0.000505,-1,-5,1,0,0,0,53,53,80,1,0,,,,,,,,,,,,,,,,,,,,,
,,,,,,,,,,,,,,,,,,,,,,,,,,,,,,,,,,,,,,,,,,5ee0a607b1d0693f75003f64,606c0d64b01a49e7a3bd900a,2021-04-06_10h27.54.360,Colour_Similarity_Experiment,2020.2.10,Win32,60,6067542a4a25243f4d7d4fcf,16.81172222,17.22981424,24.23146377,31.16889423,30.96061086,24.23146377,,,,,,,,,,,,,,,,,,,,PF,strong,2,,,,,,,,7,1.11934,,,,,,,,,,,,,,,,,,,,,,,,,,,,7,strong,58,129,1,0,0,response1disk,2,55,9,2,1,0,0,rectangle,9,2,1,0,0,3,3,0.000135,9,2,1,0,0,0,54,54,138,1,0,,,,,,,,,,,,,,,,,,,,,
,,,,,,,,,,,,,,,,,,,,,,,,,,,,,,,,,,,,,,,,,,5ee0a607b1d0693f75003f64,606c0d64b01a49e7a3bd900a,2021-04-06_10h27.54.360,Colour_Similarity_Experiment,2020.2.10,Win32,60,6067542a4a25243f4d7d4fcf,16.81172222,17.22981424,24.23146377,31.16889423,30.96061086,24.23146377,,,,,,,,,,,,,,,,,,,,PF,weak,2,,,,,,,,7,1.02966,,,,,,,,,,,,,,,,,,,,,,,,,,,,3,weak,38,132,1,0,0,response1disk,8,56,6,13,1,0,0,rectangle,6,13,1,0,0,3,5,0.00049,6,13,1,0,0,0,55,55,3,1,0,,,,,,,,,,,,,,,,,,,,,
,,,,,,,,,,,,,,,,,,,,,,,,,,,,,,,,,,,,,,,,,,5ee0a607b1d0693f75003f64,606c0d64b01a49e7a3bd900a,2021-04-06_10h27.54.360,Colour_Similarity_Experiment,2020.2.10,Win32,60,6067542a4a25243f4d7d4fcf,16.81172222,17.22981424,24.23146377,31.16889423,30.96061086,24.23146377,,,,,,,,,,,,,,,,,,,,PF,strong,2,,,,,,,,5,3.765665,,,,,,,,,,,,,,,,,,,,,,,,,,,,2,strong,105,-41,1,0,0,response3disk,6,57,-8,13,1,0,0,rectangle,-8,13,1,0,0,3,5,7.5E-05,-8,13,1,0,0,0,56,56,40,1,0,,,,,,,,,,,,,,,,,,,,,
,,,,,,,,,,,,,,,,,,,,,,,,,,,,,,,,,,,,,,,,,,5ee0a607b1d0693f75003f64,606c0d64b01a49e7a3bd900a,2021-04-06_10h27.54.360,Colour_Similarity_Experiment,2020.2.10,Win32,60,6067542a4a25243f4d7d4fcf,16.81172222,17.22981424,24.23146377,31.16889423,30.96061086,24.23146377,,,,,,,,,,,,,,,,,,,,PF,weak,2,,,,,,,,1,2.61701,,,,,,,,,,,,,,,,,,,,,,,,,,,,7,weak,-109,43,1,0,0,response7disk,6,58,-19,6,1,0,0,rectangle,-19,6,1,0,0,3,5,6E-05,-19,6,1,0,0,0,57,57,29,1,0,,,,,,,,,,,,,,,,,,,,,
,,,,,,,,,,,,,,,,,,,,,,,,,,,,,,,,,,,,,,,,,,5ee0a607b1d0693f75003f64,606c0d64b01a49e7a3bd900a,2021-04-06_10h27.54.360,Colour_Similarity_Experiment,2020.2.10,Win32,60,6067542a4a25243f4d7d4fcf,16.81172222,17.22981424,24.23146377,31.16889423,30.96061086,24.23146377,,,,,,,,,,,,,,,,,,,,PF,weak,2,,,,,,,,0,1.281915,,,,,,,,,,,,,,,,,,,,,,,,,,,,7,weak,-49,129,1,0,0,response7disk,7,59,-3,0,1,0,0,rectangle,-3,0,1,0,0,3,7,0.00052,-3,0,1,0,0,0,58,58,51,1,0,,,,,,,,,,,,,,,,,,,,,
,,,,,,,,,,,,,,,,,,,,,,,,,,,,,,,,,,,,,,,,,,5ee0a607b1d0693f75003f64,606c0d64b01a49e7a3bd900a,2021-04-06_10h27.54.360,Colour_Similarity_Experiment,2020.2.10,Win32,60,6067542a4a25243f4d7d4fcf,16.81172222,17.22981424,24.23146377,31.16889423,30.96061086,24.23146377,,,,,,,,,,,,,,,,,,,,PF,weak,2,,,,,,,,7,1.307855,,,,,,,,,,,,,,,,,,,,,,,,,,,,4,weak,55,122,1,0,0,response1disk,2,60,4,3,1,0,0,rectangle,4,3,1,0,0,3,1,0.000765,4,3,1,0,0,0,59,59,108,1,0,,,,,,,,,,,,,,,,,,,,,
,,,,,,,,,,,,,,,,,,,,,,,,,,,,,,,,,,,,,,,,,,5ee0a607b1d0693f75003f64,606c0d64b01a49e7a3bd900a,2021-04-06_10h27.54.360,Colour_Similarity_Experiment,2020.2.10,Win32,60,6067542a4a25243f4d7d4fcf,16.81172222,17.22981424,24.23146377,31.16889423,30.96061086,24.23146377,,,,,,,,,,,,,,,,,,,,PF,strong,2,,,,,,,,7,1.089905,,,,,,,,,,,,,,,,,,,,,,,,,,,,9,strong,59,127,1,0,0,response1disk,4,61,2,-1,1,0,0,rectangle,2,-1,1,0,0,3,0,0.00057,2,-1,1,0,0,0,60,60,60,1,0,,,,,,,,,,,,,,,,,,,,,
,,,,,,,,,,,,,,,,,,,,,,,,,,,,,,,,,,,,,,,,,,5ee0a607b1d0693f75003f64,606c0d64b01a49e7a3bd900a,2021-04-06_10h27.54.360,Colour_Similarity_Experiment,2020.2.10,Win32,60,6067542a4a25243f4d7d4fcf,16.81172222,17.22981424,24.23146377,31.16889423,30.96061086,24.23146377,,,,,,,,,,,,,,,,,,,,PF,strong,2,,,,,,,,5,2.0802,,,,,,,,,,,,,,,,,,,,,,,,,,,,4,strong,91,-37,1,0,0,response3disk,9,62,3,14,1,0,0,rectangle,3,14,1,0,0,3,4,0.000505,3,14,1,0,0,0,61,61,90,1,0,,,,,,,,,,,,,,,,,,,,,
,,,,,,,,,,,,,,,,,,,,,,,,,,,,,,,,,,,,,,,,,,5ee0a607b1d0693f75003f64,606c0d64b01a49e7a3bd900a,2021-04-06_10h27.54.360,Colour_Similarity_Experiment,2020.2.10,Win32,60,6067542a4a25243f4d7d4fcf,16.81172222,17.22981424,24.23146377,31.16889423,30.96061086,24.23146377,,,,,,,,,,,,,,,,,,,,PF,strong,2,,,,,,,,4,2.08928,,,,,,,,,,,,,,,,,,,,,,,,,,,,9,strong,50,-129,1,0,0,response3disk,7,63,-1,3,1,0,0,rectangle,-1,3,1,0,0,3,0,0.000655,-1,3,1,0,0,0,62,62,100,1,0,,,,,,,,,,,,,,,,,,,,,
,,,,,,,,,,,,,,,,,,,,,,,,,,,,,,,,,,,,,,,,,,5ee0a607b1d0693f75003f64,606c0d64b01a49e7a3bd900a,2021-04-06_10h27.54.360,Colour_Similarity_Experiment,2020.2.10,Win32,60,6067542a4a25243f4d7d4fcf,16.81172222,17.22981424,24.23146377,31.16889423,30.96061086,24.23146377,,,,,,,,,,,,,,,,,,,,PF,strong,2,,,,,,,,7,2.108045,,,,,,,,,,,,,,,,,,,,,,,,,,,,2,strong,46,123,1,0,0,response1disk,9,64,-10,3,1,0,0,rectangle,-10,3,1,0,0,3,0,0.00018,-10,3,1,0,0,0,63,63,72,1,0,,,,,,,,,,,,,,,,,,,,,
,,,,,,,,,,,,,,,,,,,,,,,,,,,,,,,,,,,,,,,,,,5ee0a607b1d0693f75003f64,606c0d64b01a49e7a3bd900a,2021-04-06_10h27.54.360,Colour_Similarity_Experiment,2020.2.10,Win32,60,6067542a4a25243f4d7d4fcf,16.81172222,17.22981424,24.23146377,31.16889423,30.96061086,24.23146377,,,,,,,,,,,,,,,,,,,,PF,strong,2,,,,,,,,6,2.623445,,,,,,,,,,,,,,,,,,,,,,,,,,,,7,strong,124,45,1,0,0,response1disk,3,65,35,13,1,0,0,rectangle,35,13,1,0,0,3,3,0.00054,35,13,1,0,0,0,64,64,73,1,0,,,,,,,,,,,,,,,,,,,,,
,,,,,,,,,,,,,,,,,,,,,,,,,,,,,,,,,,,,,,,,,,5ee0a607b1d0693f75003f64,606c0d64b01a49e7a3bd900a,2021-04-06_10h27.54.360,Colour_Similarity_Experiment,2020.2.10,Win32,60,6067542a4a25243f4d7d4fcf,16.81172222,17.22981424,24.23146377,31.16889423,30.96061086,24.23146377,,,,,,,,,,,,,,,,,,,,PF,strong,2,,,,,,,,7,2.276525,,,,,,,,,,,,,,,,,,,,,,,,,,,,1,strong,58,120,1,0,0,response1disk,9,66,3,-1,1,0,0,rectangle,3,-1,1,0,0,3,0,0.00063,3,-1,1,0,0,0,65,65,123,1,0,,,,,,,,,,,,,,,,,,,,,
,,,,,,,,,,,,,,,,,,,,,,,,,,,,,,,,,,,,,,,,,,5ee0a607b1d0693f75003f64,606c0d64b01a49e7a3bd900a,2021-04-06_10h27.54.360,Colour_Similarity_Experiment,2020.2.10,Win32,60,6067542a4a25243f4d7d4fcf,16.81172222,17.22981424,24.23146377,31.16889423,30.96061086,24.23146377,,,,,,,,,,,,,,,,,,,,PF,strong,2,,,,,,,,2,2.74552,,,,,,,,,,,,,,,,,,,,,,,,,,,,9,strong,-104,-42,1,0,0,response5disk,8,67,-11,-9,1,0,0,rectangle,-11,-9,1,0,0,3,4,0.00061,-11,-9,1,0,0,0,66,66,6,1,0,,,,,,,,,,,,,,,,,,,,,
,,,,,,,,,,,,,,,,,,,,,,,,,,,,,,,,,,,,,,,,,,5ee0a607b1d0693f75003f64,606c0d64b01a49e7a3bd900a,2021-04-06_10h27.54.360,Colour_Similarity_Experiment,2020.2.10,Win32,60,6067542a4a25243f4d7d4fcf,16.81172222,17.22981424,24.23146377,31.16889423,30.96061086,24.23146377,,,,,,,,,,,,,,,,,,,,PF,weak,2,,,,,,,,7,1.0303,,,,,,,,,,,,,,,,,,,,,,,,,,,,4,weak,41,127,1,0,0,response1disk,8,68,-16,9,1,0,0,rectangle,-16,9,1,0,0,3,7,0.00067,-16,9,1,0,0,0,67,67,124,1,0,,,,,,,,,,,,,,,,,,,,,
,,,,,,,,,,,,,,,,,,,,,,,,,,,,,,,,,,,,,,,,,,5ee0a607b1d0693f75003f64,606c0d64b01a49e7a3bd900a,2021-04-06_10h27.54.360,Colour_Similarity_Experiment,2020.2.10,Win32,60,6067542a4a25243f4d7d4fcf,16.81172222,17.22981424,24.23146377,31.16889423,30.96061086,24.23146377,,,,,,,,,,,,,,,,,,,,PF,weak,2,,,,,,,,7,1.159015,,,,,,,,,,,,,,,,,,,,,,,,,,,,8,weak,49,130,1,0,0,response1disk,4,69,7,11,1,0,0,rectangle,7,11,1,0,0,3,5,0.00065,7,11,1,0,0,0,68,68,78,1,0,,,,,,,,,,,,,,,,,,,,,
,,,,,,,,,,,,,,,,,,,,,,,,,,,,,,,,,,,,,,,,,,5ee0a607b1d0693f75003f64,606c0d64b01a49e7a3bd900a,2021-04-06_10h27.54.360,Colour_Similarity_Experiment,2020.2.10,Win32,60,6067542a4a25243f4d7d4fcf,16.81172222,17.22981424,24.23146377,31.16889423,30.96061086,24.23146377,,,,,,,,,,,,,,,,,,,,PF,weak,2,,,,,,,,0,1.997175,,,,,,,,,,,,,,,,,,,,,,,,,,,,6,weak,-51,124,1,0,0,response7disk,6,70,7,-5,1,0,0,rectangle,7,-5,1,0,0,3,5,0.00014,7,-5,1,0,0,0,69,69,0,1,0,,,,,,,,,,,,,,,,,,,,,
,,,,,,,,,,,,,,,,,,,,,,,,,,,,,,,,,,,,,,,,,,5ee0a607b1d0693f75003f64,606c0d64b01a49e7a3bd900a,2021-04-06_10h27.54.360,Colour_Similarity_Experiment,2020.2.10,Win32,60,6067542a4a25243f4d7d4fcf,16.81172222,17.22981424,24.23146377,31.16889423,30.96061086,24.23146377,,,,,,,,,,,,,,,,,,,,PF,weak,2,,,,,,,,3,1.803225,,,,,,,,,,,,,,,,,,,,,,,,,,,,6,weak,-43,-121,1,0,0,response5disk,7,71,-7,-3,1,0,0,rectangle,-7,-3,1,0,0,3,1,0.000665,-7,-3,1,0,0,0,70,70,50,1,0,,,,,,,,,,,,,,,,,,,,,
,,,,,,,,,,,,,,,,,,,,,,,,,,,,,,,,,,,,,,,,,,5ee0a607b1d0693f75003f64,606c0d64b01a49e7a3bd900a,2021-04-06_10h27.54.360,Colour_Similarity_Experiment,2020.2.10,Win32,60,6067542a4a25243f4d7d4fcf,16.81172222,17.22981424,24.23146377,31.16889423,30.96061086,24.23146377,,,,,,,,,,,,,,,,,,,,PF,strong,2,,,,,,,,3,3.278935,,,,,,,,,,,,,,,,,,,,,,,,,,,,6,strong,-52,-117,1,0,0,response5disk,5,72,-2,2,1,0,0,rectangle,-2,2,1,0,0,3,3,0.000475,-2,2,1,0,0,0,71,71,126,1,0,,,,,,,,,,,,,,,,,,,,,
,,,,,,,,,,,,,,,,,,,,,,,,,,,,,,,,,,,,,,,,,,5ee0a607b1d0693f75003f64,606c0d64b01a49e7a3bd900a,2021-04-06_10h27.54.360,Colour_Similarity_Experiment,2020.2.10,Win32,60,6067542a4a25243f4d7d4fcf,16.81172222,17.22981424,24.23146377,31.16889423,30.96061086,24.23146377,,,,,,,,,,,,,,,,,,,,PF,weak,2,,,,,,,,7,6.088215,,,,,,,,,,,,,,,,,,,,,,,,,,,,3,weak,60,124,1,0,0,response1disk,7,73,0,14,1,0,0,rectangle,0,14,1,0,0,3,2,0.000585,0,14,1,0,0,0,72,72,41,1,0,,,,,,,,,,,,,,,,,,,,,
,,,,,,,,,,,,,,,,,,,,,,,,,,,,,,,,,,,,,,,,,,5ee0a607b1d0693f75003f64,606c0d64b01a49e7a3bd900a,2021-04-06_10h27.54.360,Colour_Similarity_Experiment,2020.2.10,Win32,60,6067542a4a25243f4d7d4fcf,16.81172222,17.22981424,24.23146377,31.16889423,30.96061086,24.23146377,,,,,,,,,,,,,,,,,,,,PF,strong,2,,,,,,,,7,1.338455,,,,,,,,,,,,,,,,,,,,,,,,,,,,2,strong,32,139,1,0,0,response1disk,8,74,5,2,1,0,0,rectangle,5,2,1,0,0,3,3,0.000575,5,2,1,0,0,0,73,73,62,1,0,,,,,,,,,,,,,,,,,,,,,
,,,,,,,,,,,,,,,,,,,,,,,,,,,,,,,,,,,,,,,,,,5ee0a607b1d0693f75003f64,606c0d64b01a49e7a3bd900a,2021-04-06_10h27.54.360,Colour_Similarity_Experiment,2020.2.10,Win32,60,6067542a4a25243f4d7d4fcf,16.81172222,17.22981424,24.23146377,31.16889423,30.96061086,24.23146377,,,,,,,,,,,,,,,,,,,,PF,strong,2,,,,,,,,4,3.28492,,,,,,,,,,,,,,,,,,,,,,,,,,,,8,strong,68,-117,1,0,0,response3disk,7,75,10,-6,1,0,0,rectangle,10,-6,1,0,0,3,3,0.00012,10,-6,1,0,0,0,74,74,86,1,0,,,,,,,,,,,,,,,,,,,,,
,,,,,,,,,,,,,,,,,,,,,,,,,,,,,,,,,,,,,,,,,,5ee0a607b1d0693f75003f64,606c0d64b01a49e7a3bd900a,2021-04-06_10h27.54.360,Colour_Similarity_Experiment,2020.2.10,Win32,60,6067542a4a25243f4d7d4fcf,16.81172222,17.22981424,24.23146377,31.16889423,30.96061086,24.23146377,,,,,,,,,,,,,,,,,,,,PF,weak,2,,,,,,,,7,1.0588,,,,,,,,,,,,,,,,,,,,,,,,,,,,6,weak,46,115,1,0,0,response1disk,8,76,3,6,1,0,0,rectangle,3,6,1,0,0,3,1,0.00049,3,6,1,0,0,0,75,75,64,1,0,,,,,,,,,,,,,,,,,,,,,
,,,,,,,,,,,,,,,,,,,,,,,,,,,,,,,,,,,,,,,,,,5ee0a607b1d0693f75003f64,606c0d64b01a49e7a3bd900a,2021-04-06_10h27.54.360,Colour_Similarity_Experiment,2020.2.10,Win32,60,6067542a4a25243f4d7d4fcf,16.81172222,17.22981424,24.23146377,31.16889423,30.96061086,24.23146377,,,,,,,,,,,,,,,,,,,,PF,weak,2,,,,,,,,7,0.873765,,,,,,,,,,,,,,,,,,,,,,,,,,,,5,weak,48,132,1,0,0,response1disk,9,77,1,17,1,0,0,rectangle,-39,-114,1,0,0,3,3,2.12272,-5,3,1,0,0,0,76,76,136,1,1,response5disk_3,rectangle,,,,,,,,,,,,,,,,,,,
,,,,,,,,,,,,,,,,,,,,,,,,,,,,,,,,,,,,,,,,,,5ee0a607b1d0693f75003f64,606c0d64b01a49e7a3bd900a,2021-04-06_10h27.54.360,Colour_Similarity_Experiment,2020.2.10,Win32,60,6067542a4a25243f4d7d4fcf,16.81172222,17.22981424,24.23146377,31.16889423,30.96061086,24.23146377,,,,,,,,,,,,,,,,,,,,PF,weak,2,,,,,,,,2,1.93871,,,,,,,,,,,,,,,,,,,,,,,,,,,,8,weak,-109,-52,1,0,0,response5disk,7,78,-3,11,1,0,0,rectangle,-3,11,1,0,0,3,6,0.00064,-3,11,1,0,0,0,77,77,23,1,0,,,,,,,,,,,,,,,,,,,,,
,,,,,,,,,,,,,,,,,,,,,,,,,,,,,,,,,,,,,,,,,,5ee0a607b1d0693f75003f64,606c0d64b01a49e7a3bd900a,2021-04-06_10h27.54.360,Colour_Similarity_Experiment,2020.2.10,Win32,60,6067542a4a25243f4d7d4fcf,16.81172222,17.22981424,24.23146377,31.16889423,30.96061086,24.23146377,,,,,,,,,,,,,,,,,,,,PF,weak,2,,,,,,,,7,1.01735,,,,,,,,,,,,,,,,,,,,,,,,,,,,8,weak,77,127,1,0,0,response1disk,2,79,5,-6,1,0,0,rectangle,5,-6,1,0,0,3,1,0.000585,5,-6,1,0,0,0,78,78,83,1,0,,,,,,,,,,,,,,,,,,,,,
,,,,,,,,,,,,,,,,,,,,,,,,,,,,,,,,,,,,,,,,,,5ee0a607b1d0693f75003f64,606c0d64b01a49e7a3bd900a,2021-04-06_10h27.54.360,Colour_Similarity_Experiment,2020.2.10,Win32,60,6067542a4a25243f4d7d4fcf,16.81172222,17.22981424,24.23146377,31.16889423,30.96061086,24.23146377,,,,,,,,,,,,,,,,,,,,PF,strong,2,,,,,,,,7,1.08957,,,,,,,,,,,,,,,,,,,,,,,,,,,,1,strong,41,120,1,0,0,response1disk,7,80,-10,6,1,0,0,rectangle,-10,6,1,0,0,3,5,0.000595,-10,6,1,0,0,0,79,79,137,1,0,,,,,,,,,,,,,,,,,,,,,
,,,,,,,,,,,,,,,,,,,,,,,,,,,,,,,,,,,,,,,,,,5ee0a607b1d0693f75003f64,606c0d64b01a49e7a3bd900a,2021-04-06_10h27.54.360,Colour_Similarity_Experiment,2020.2.10,Win32,60,6067542a4a25243f4d7d4fcf,16.81172222,17.22981424,24.23146377,31.16889423,30.96061086,24.23146377,,,,,,,,,,,,,,,,,,,,PF,weak,2,,,,,,,,7,1.05995,,,,,,,,,,,,,,,,,,,,,,,,,,,,5,weak,53,122,1,0,0,response1disk,2,81,11,-9,1,0,0,rectangle,11,-9,1,0,0,3,3,0.000555,11,-9,1,0,0,0,80,80,129,1,0,,,,,,,,,,,,,,,,,,,,,
,,,,,,,,,,,,,,,,,,,,,,,,,,,,,,,,,,,,,,,,,,5ee0a607b1d0693f75003f64,606c0d64b01a49e7a3bd900a,2021-04-06_10h27.54.360,Colour_Similarity_Experiment,2020.2.10,Win32,60,6067542a4a25243f4d7d4fcf,16.81172222,17.22981424,24.23146377,31.16889423,30.96061086,24.23146377,,,,,,,,,,,,,,,,,,,,PF,strong,2,,,,,,,,4,2.153295,,,,,,,,,,,,,,,,,,,,,,,,,,,,1,strong,91,-117,1,0,0,response3disk,3,82,25,1,1,0,0,rectangle,25,1,1,0,0,3,1,0.00047,25,1,1,0,0,0,81,81,99,1,0,,,,,,,,,,,,,,,,,,,,,
,,,,,,,,,,,,,,,,,,,,,,,,,,,,,,,,,,,,,,,,,,5ee0a607b1d0693f75003f64,606c0d64b01a49e7a3bd900a,2021-04-06_10h27.54.360,Colour_Similarity_Experiment,2020.2.10,Win32,60,6067542a4a25243f4d7d4fcf,16.81172222,17.22981424,24.23146377,31.16889423,30.96061086,24.23146377,,,,,,,,,,,,,,,,,,,,PF,strong,2,,,,,,,,7,1.748635,,,,,,,,,,,,,,,,,,,,,,,,,,,,5,strong,71,133,1,0,0,response1disk,6,83,17,15,1,0,0,rectangle,17,15,1,0,0,3,6,0.000635,17,15,1,0,0,0,82,82,12,1,0,,,,,,,,,,,,,,,,,,,,,
,,,,,,,,,,,,,,,,,,,,,,,,,,,,,,,,,,,,,,,,,,5ee0a607b1d0693f75003f64,606c0d64b01a49e7a3bd900a,2021-04-06_10h27.54.360,Colour_Similarity_Experiment,2020.2.10,Win32,60,6067542a4a25243f4d7d4fcf,16.81172222,17.22981424,24.23146377,31.16889423,30.96061086,24.23146377,,,,,,,,,,,,,,,,,,,,PF,weak,2,,,,,,,,0,1.090905,,,,,,,,,,,,,,,,,,,,,,,,,,,,5,weak,-48,118,1,0,0,response7disk,5,84,4,9,1,0,0,rectangle,4,9,1,0,0,3,4,0.000555,4,9,1,0,0,0,83,83,94,1,0,,,,,,,,,,,,,,,,,,,,,
,,,,,,,,,,,,,,,,,,,,,,,,,,,,,,,,,,,,,,,,,,5ee0a607b1d0693f75003f64,606c0d64b01a49e7a3bd900a,2021-04-06_10h27.54.360,Colour_Similarity_Experiment,2020.2.10,Win32,60,6067542a4a25243f4d7d4fcf,16.81172222,17.22981424,24.23146377,31.16889423,30.96061086,24.23146377,,,,,,,,,,,,,,,,,,,,PF,weak,2,,,,,,,,0,0.99711,,,,,,,,,,,,,,,,,,,,,,,,,,,,2,weak,-53,125,1,0,0,response7disk,2,85,9,-4,1,0,0,rectangle,9,-4,1,0,0,3,3,0.000615,9,-4,1,0,0,0,84,84,14,1,0,,,,,,,,,,,,,,,,,,,,,
,,,,,,,,,,,,,,,,,,,,,,,,,,,,,,,,,,,,,,,,,,5ee0a607b1d0693f75003f64,606c0d64b01a49e7a3bd900a,2021-04-06_10h27.54.360,Colour_Similarity_Experiment,2020.2.10,Win32,60,6067542a4a25243f4d7d4fcf,16.81172222,17.22981424,24.23146377,31.16889423,30.96061086,24.23146377,,,,,,,,,,,,,,,,,,,,PF,strong,2,,,,,,,,7,1.213255,,,,,,,,,,,,,,,,,,,,,,,,,,,,8,strong,63,118,1,0,0,response1disk,2,86,16,10,1,0,0,rectangle,16,10,1,0,0,3,0,0.000485,16,10,1,0,0,0,85,85,22,1,0,,,,,,,,,,,,,,,,,,,,,
,,,,,,,,,,,,,,,,,,,,,,,,,,,,,,,,,,,,,,,,,,5ee0a607b1d0693f75003f64,606c0d64b01a49e7a3bd900a,2021-04-06_10h27.54.360,Colour_Similarity_Experiment,2020.2.10,Win32,60,6067542a4a25243f4d7d4fcf,16.81172222,17.22981424,24.23146377,31.16889423,30.96061086,24.23146377,,,,,,,,,,,,,,,,,,,,PF,strong,2,,,,,,,,7,1.059245,,,,,,,,,,,,,,,,,,,,,,,,,,,,2,strong,56,102,1,0,0,response1disk,7,87,21,12,1,0,0,rectangle,21,12,1,0,0,3,2,0.00061,21,12,1,0,0,0,86,86,63,1,0,,,,,,,,,,,,,,,,,,,,,
,,,,,,,,,,,,,,,,,,,,,,,,,,,,,,,,,,,,,,,,,,5ee0a607b1d0693f75003f64,606c0d64b01a49e7a3bd900a,2021-04-06_10h27.54.360,Colour_Similarity_Experiment,2020.2.10,Win32,60,6067542a4a25243f4d7d4fcf,16.81172222,17.22981424,24.23146377,31.16889423,30.96061086,24.23146377,,,,,,,,,,,,,,,,,,,,PF,strong,2,,,,,,,,3,3.33624,,,,,,,,,,,,,,,,,,,,,,,,,,,,8,strong,-50,-117,1,0,0,response5disk,9,88,-6,-5,1,0,0,rectangle,-6,-5,1,0,0,3,5,0.00062,-6,-5,1,0,0,0,87,87,105,1,0,,,,,,,,,,,,,,,,,,,,,
,,,,,,,,,,,,,,,,,,,,,,,,,,,,,,,,,,,,,,,,,,5ee0a607b1d0693f75003f64,606c0d64b01a49e7a3bd900a,2021-04-06_10h27.54.360,Colour_Similarity_Experiment,2020.2.10,Win32,60,6067542a4a25243f4d7d4fcf,16.81172222,17.22981424,24.23146377,31.16889423,30.96061086,24.23146377,,,,,,,,,,,,,,,,,,,,PF,strong,2,,,,,,,,3,3.30545,,,,,,,,,,,,,,,,,,,,,,,,,,,,5,strong,-49,-110,1,0,0,response5disk,3,89,-2,4,1,0,0,rectangle,-2,4,1,0,0,3,6,0.001255,-2,4,1,0,0,0,88,88,25,1,0,,,,,,,,,,,,,,,,,,,,,
,,,,,,,,,,,,,,,,,,,,,,,,,,,,,,,,,,,,,,,,,,5ee0a607b1d0693f75003f64,606c0d64b01a49e7a3bd900a,2021-04-06_10h27.54.360,Colour_Similarity_Experiment,2020.2.10,Win32,60,6067542a4a25243f4d7d4fcf,16.81172222,17.22981424,24.23146377,31.16889423,30.96061086,24.23146377,,,,,,,,,,,,,,,,,,,,PF,weak,2,,,,,,,,7,1.061535,,,,,,,,,,,,,,,,,,,,,,,,,,,,1,weak,61,112,1,0,0,response1disk,3,90,6,7,1,0,0,rectangle,6,7,1,0,0,3,7,0.00064,6,7,1,0,0,0,89,89,1,1,0,,,,,,,,,,,,,,,,,,,,,
,,,,,,,,,,,,,,,,,,,,,,,,,,,,,,,,,,,,,,,,,,5ee0a607b1d0693f75003f64,606c0d64b01a49e7a3bd900a,2021-04-06_10h27.54.360,Colour_Similarity_Experiment,2020.2.10,Win32,60,6067542a4a25243f4d7d4fcf,16.81172222,17.22981424,24.23146377,31.16889423,30.96061086,24.23146377,,,,,,,,,,,,,,,,,,,,PF,strong,2,,,,,,,,0,2.298455,,,,,,,,,,,,,,,,,,,,,,,,,,,,1,strong,-52,131,1,0,0,response7disk,1,91,-6,7,1,0,0,rectangle,-6,7,1,0,0,3,5,0.00051,-6,7,1,0,0,0,90,90,151,1,0,,,,,,,,,,,,,,,,,,,,,
,,,,,,,,,,,,,,,,,,,,,,,,,,,,,,,,,,,,,,,,,,5ee0a607b1d0693f75003f64,606c0d64b01a49e7a3bd900a,2021-04-06_10h27.54.360,Colour_Similarity_Experiment,2020.2.10,Win32,60,6067542a4a25243f4d7d4fcf,16.81172222,17.22981424,24.23146377,31.16889423,30.96061086,24.23146377,,,,,,,,,,,,,,,,,,,,PF,strong,2,,,,,,,,1,1.621325,,,,,,,,,,,,,,,,,,,,,,,,,,,,3,strong,-111,56,1,0,0,response7disk,2,92,2,-10,1,0,0,rectangle,2,-10,1,0,0,3,7,0.000615,2,-10,1,0,0,0,91,91,93,1,0,,,,,,,,,,,,,,,,,,,,,
,,,,,,,,,,,,,,,,,,,,,,,,,,,,,,,,,,,,,,,,,,5ee0a607b1d0693f75003f64,606c0d64b01a49e7a3bd900a,2021-04-06_10h27.54.360,Colour_Similarity_Experiment,2020.2.10,Win32,60,6067542a4a25243f4d7d4fcf,16.81172222,17.22981424,24.23146377,31.16889423,30.96061086,24.23146377,,,,,,,,,,,,,,,,,,,,PF,strong,2,,,,,,,,0,2.656725,,,,,,,,,,,,,,,,,,,,,,,,,,,,9,strong,-61,119,1,0,0,response7disk,9,93,-1,3,1,0,0,rectangle,-1,3,1,0,0,3,2,0.00083,-1,3,1,0,0,0,92,92,17,1,0,,,,,,,,,,,,,,,,,,,,,
,,,,,,,,,,,,,,,,,,,,,,,,,,,,,,,,,,,,,,,,,,5ee0a607b1d0693f75003f64,606c0d64b01a49e7a3bd900a,2021-04-06_10h27.54.360,Colour_Similarity_Experiment,2020.2.10,Win32,60,6067542a4a25243f4d7d4fcf,16.81172222,17.22981424,24.23146377,31.16889423,30.96061086,24.23146377,,,,,,,,,,,,,,,,,,,,PF,weak,2,,,,,,,,0,1.42786,,,,,,,,,,,,,,,,,,,,,,,,,,,,1,weak,-51,128,1,0,0,response7disk,1,94,0,-3,1,0,0,rectangle,-136,63,1,0,0,1,1,1.511585,-1,-5,1,0,0,0,93,93,76,1,1,response7disk_3,rectangle,,,,,,,,,,,,,,,,,,,
,,,,,,,,,,,,,,,,,,,,,,,,,,,,,,,,,,,,,,,,,,5ee0a607b1d0693f75003f64,606c0d64b01a49e7a3bd900a,2021-04-06_10h27.54.360,Colour_Similarity_Experiment,2020.2.10,Win32,60,6067542a4a25243f4d7d4fcf,16.81172222,17.22981424,24.23146377,31.16889423,30.96061086,24.23146377,,,,,,,,,,,,,,,,,,,,PF,strong,2,,,,,,,,1,4.83188,,,,,,,,,,,,,,,,,,,,,,,,,,,,6,strong,-105,60,1,0,0,response7disk,6,95,8,-2,1,0,0,rectangle,8,-2,1,0,0,1,7,0.000505,8,-2,1,0,0,0,94,94,91,1,0,,,,,,,,,,,,,,,,,,,,,
,,,,,,,,,,,,,,,,,,,,,,,,,,,,,,,,,,,,,,,,,,5ee0a607b1d0693f75003f64,606c0d64b01a49e7a3bd900a,2021-04-06_10h27.54.360,Colour_Similarity_Experiment,2020.2.10,Win32,60,6067542a4a25243f4d7d4fcf,16.81172222,17.22981424,24.23146377,31.16889423,30.96061086,24.23146377,,,,,,,,,,,,,,,,,,,,PF,weak,2,,,,,,,,7,0.99641,,,,,,,,,,,,,,,,,,,,,,,,,,,,9,weak,52,116,1,0,0,response1disk,5,96,-5,9,1,0,0,rectangle,-5,9,1,0,0,1,4,0.000615,-5,9,1,0,0,0,95,95,134,1,0,,,,,,,,,,,,,,,,,,,,,
,,,,,,,,,,,,,,,,,,,,,,,,,,,,,,,,,,,,,,,,,,5ee0a607b1d0693f75003f64,606c0d64b01a49e7a3bd900a,2021-04-06_10h27.54.360,Colour_Similarity_Experiment,2020.2.10,Win32,60,6067542a4a25243f4d7d4fcf,16.81172222,17.22981424,24.23146377,31.16889423,30.96061086,24.23146377,,,,,,,,,,,,,,,,,,,,PF,strong,2,,,,,,,,2,2.148315,,,,,,,,,,,,,,,,,,,,,,,,,,,,4,strong,-106,-46,1,0,0,response5disk,3,97,2,-10,1,0,0,rectangle,2,-10,1,0,0,1,0,0.000535,2,-10,1,0,0,0,96,96,77,1,0,,,,,,,,,,,,,,,,,,,,,
,,,,,,,,,,,,,,,,,,,,,,,,,,,,,,,,,,,,,,,,,,5ee0a607b1d0693f75003f64,606c0d64b01a49e7a3bd900a,2021-04-06_10h27.54.360,Colour_Similarity_Experiment,2020.2.10,Win32,60,6067542a4a25243f4d7d4fcf,16.81172222,17.22981424,24.23146377,31.16889423,30.96061086,24.23146377,,,,,,,,,,,,,,,,,,,,PF,weak,2,,,,,,,,2,1.648935,,,,,,,,,,,,,,,,,,,,,,,,,,,,4,weak,-91,-43,1,0,0,response5disk,3,98,-11,0,1,0,0,rectangle,-11,0,1,0,0,1,5,0.000465,-11,0,1,0,0,0,97,97,89,1,0,,,,,,,,,,,,,,,,,,,,,
,,,,,,,,,,,,,,,,,,,,,,,,,,,,,,,,,,,,,,,,,,5ee0a607b1d0693f75003f64,606c0d64b01a49e7a3bd900a,2021-04-06_10h27.54.360,Colour_Similarity_Experiment,2020.2.10,Win32,60,6067542a4a25243f4d7d4fcf,16.81172222,17.22981424,24.23146377,31.16889423,30.96061086,24.23146377,,,,,,,,,,,,,,,,,,,,PF,strong,2,,,,,,,,5,2.057825,,,,,,,,,,,,,,,,,,,,,,,,,,,,4,strong,106,-43,1,0,0,response3disk,2,99,18,-1,1,0,0,rectangle,18,-1,1,0,0,1,1,0.00061,18,-1,1,0,0,0,98,98,13,1,0,,,,,,,,,,,,,,,,,,,,,
,,,,,,,,,,,,,,,,,,,,,,,,,,,,,,,,,,,,,,,,,,5ee0a607b1d0693f75003f64,606c0d64b01a49e7a3bd900a,2021-04-06_10h27.54.360,Colour_Similarity_Experiment,2020.2.10,Win32,60,6067542a4a25243f4d7d4fcf,16.81172222,17.22981424,24.23146377,31.16889423,30.96061086,24.23146377,,,,,,,,,,,,,,,,,,,,PF,weak,2,,,,,,,,7,0.842135,,,,,,,,,,,,,,,,,,,,,,,,,,,,1,weak,65,132,1,0,0,response1disk,4,100,25,-4,1,0,0,rectangle,25,-4,1,0,0,1,7,0.000525,25,-4,1,0,0,0,99,99,139,1,0,,,,,,,,,,,,,,,,,,,,,
,,,,,,,,,,,,,,,,,,,,,,,,,,,,,,,,,,,,,,,,,,5ee0a607b1d0693f75003f64,606c0d64b01a49e7a3bd900a,2021-04-06_10h27.54.360,Colour_Similarity_Experiment,2020.2.10,Win32,60,6067542a4a25243f4d7d4fcf,16.81172222,17.22981424,24.23146377,31.16889423,30.96061086,24.23146377,,,,,,,,,,,,,,,,,,,,PF,weak,2,,,,,,,,4,4.985655,,,,,,,,,,,,,,,,,,,,,,,,,,,,4,weak,51,-130,1,0,0,response3disk,5,101,-14,-3,1,0,0,rectangle,-14,-3,1,0,0,1,5,0.00062,-14,-3,1,0,0,0,100,100,49,1,0,,,,,,,,,,,,,,,,,,,,,
,,,,,,,,,,,,,,,,,,,,,,,,,,,,,,,,,,,,,,,,,,5ee0a607b1d0693f75003f64,606c0d64b01a49e7a3bd900a,2021-04-06_10h27.54.360,Colour_Similarity_Experiment,2020.2.10,Win32,60,6067542a4a25243f4d7d4fcf,16.81172222,17.22981424,24.23146377,31.16889423,30.96061086,24.23146377,,,,,,,,,,,,,,,,,,,,PF,weak,2,,,,,,,,0,2.153765,,,,,,,,,,,,,,,,,,,,,,,,,,,,8,weak,-48,133,1,0,0,response7disk,9,102,4,-2,1,0,0,rectangle,4,-2,1,0,0,1,3,0.00212,4,-2,1,0,0,0,101,101,42,1,0,,,,,,,,,,,,,,,,,,,,,
,,,,,,,,,,,,,,,,,,,,,,,,,,,,,,,,,,,,,,,,,,5ee0a607b1d0693f75003f64,606c0d64b01a49e7a3bd900a,2021-04-06_10h27.54.360,Colour_Similarity_Experiment,2020.2.10,Win32,60,6067542a4a25243f4d7d4fcf,16.81172222,17.22981424,24.23146377,31.16889423,30.96061086,24.23146377,,,,,,,,,,,,,,,,,,,,PF,weak,2,,,,,,,,7,1.056525,,,,,,,,,,,,,,,,,,,,,,,,,,,,1,weak,49,126,1,0,0,response1disk,7,103,8,5,1,0,0,rectangle,8,5,1,0,0,1,1,0.00064,8,5,1,0,0,0,102,102,150,1,0,,,,,,,,,,,,,,,,,,,,,
,,,,,,,,,,,,,,,,,,,,,,,,,,,,,,,,,,,,,,,,,,5ee0a607b1d0693f75003f64,606c0d64b01a49e7a3bd900a,2021-04-06_10h27.54.360,Colour_Similarity_Experiment,2020.2.10,Win32,60,6067542a4a25243f4d7d4fcf,16.81172222,17.22981424,24.23146377,31.16889423,30.96061086,24.23146377,,,,,,,,,,,,,,,,,,,,PF,weak,2,,,,,,,,7,1.06245,,,,,,,,,,,,,,,,,,,,,,,,,,,,3,weak,38,139,1,0,0,response1disk,4,104,3,13,1,0,0,rectangle,3,13,1,0,0,1,3,0.000555,3,13,1,0,0,0,103,103,30,1,0,,,,,,,,,,,,,,,,,,,,,
,,,,,,,,,,,,,,,,,,,,,,,,,,,,,,,,,,,,,,,,,,5ee0a607b1d0693f75003f64,606c0d64b01a49e7a3bd900a,2021-04-06_10h27.54.360,Colour_Similarity_Experiment,2020.2.10,Win32,60,6067542a4a25243f4d7d4fcf,16.81172222,17.22981424,24.23146377,31.16889423,30.96061086,24.23146377,,,,,,,,,,,,,,,,,,,,PF,weak,2,,,,,,,,7,1.15215,,,,,,,,,,,,,,,,,,,,,,,,,,,,3,weak,33,127,1,0,0,response1disk,6,105,12,18,1,0,0,rectangle,12,18,1,0,0,1,2,0.00062,12,18,1,0,0,0,104,104,47,1,0,,,,,,,,,,,,,,,,,,,,,
,,,,,,,,,,,,,,,,,,,,,,,,,,,,,,,,,,,,,,,,,,5ee0a607b1d0693f75003f64,606c0d64b01a49e7a3bd900a,2021-04-06_10h27.54.360,Colour_Similarity_Experiment,2020.2.10,Win32,60,6067542a4a25243f4d7d4fcf,16.81172222,17.22981424,24.23146377,31.16889423,30.96061086,24.23146377,,,,,,,,,,,,,,,,,,,,PF,weak,2,,,,,,,,2,2.80083,,,,,,,,,,,,,,,,,,,,,,,,,,,,9,weak,-116,-50,1,0,0,response5disk,8,106,-13,2,1,0,0,rectangle,-13,2,1,0,0,1,3,0.00067,-13,2,1,0,0,0,105,105,67,1,0,,,,,,,,,,,,,,,,,,,,,
,,,,,,,,,,,,,,,,,,,,,,,,,,,,,,,,,,,,,,,,,,5ee0a607b1d0693f75003f64,606c0d64b01a49e7a3bd900a,2021-04-06_10h27.54.360,Colour_Similarity_Experiment,2020.2.10,Win32,60,6067542a4a25243f4d7d4fcf,16.81172222,17.22981424,24.23146377,31.16889423,30.96061086,24.23146377,,,,,,,,,,,,,,,,,,,,PF,strong,2,,,,,,,,5,2.71177,,,,,,,,,,,,,,,,,,,,,,,,,,,,6,strong,108,-53,1,0,0,response3disk,7,107,10,0,1,0,0,rectangle,10,0,1,0,0,1,2,0.00054,10,0,1,0,0,0,106,106,18,1,0,,,,,,,,,,,,,,,,,,,,,
,,,,,,,,,,,,,,,,,,,,,,,,,,,,,,,,,,,,,,,,,,5ee0a607b1d0693f75003f64,606c0d64b01a49e7a3bd900a,2021-04-06_10h27.54.360,Colour_Similarity_Experiment,2020.2.10,Win32,60,6067542a4a25243f4d7d4fcf,16.81172222,17.22981424,24.23146377,31.16889423,30.96061086,24.23146377,,,,,,,,,,,,,,,,,,,,PF,strong,2,,,,,,,,5,1.18907,,,,,,,,,,,,,,,,,,,,,,,,,,,,5,strong,110,-54,1,0,0,response3disk,7,108,11,4,1,0,0,rectangle,11,4,1,0,0,1,7,0.00052,11,4,1,0,0,0,107,107,7,1,0,,,,,,,,,,,,,,,,,,,,,
,,,,,,,,,,,,,,,,,,,,,,,,,,,,,,,,,,,,,,,,,,5ee0a607b1d0693f75003f64,606c0d64b01a49e7a3bd900a,2021-04-06_10h27.54.360,Colour_Similarity_Experiment,2020.2.10,Win32,60,6067542a4a25243f4d7d4fcf,16.81172222,17.22981424,24.23146377,31.16889423,30.96061086,24.23146377,,,,,,,,,,,,,,,,,,,,PF,weak,2,,,,,,,,4,3.621295,,,,,,,,,,,,,,,,,,,,,,,,,,,,7,weak,49,-135,1,0,0,response3disk,5,109,2,-14,1,0,0,rectangle,2,-14,1,0,0,1,6,0.000475,2,-14,1,0,0,0,108,108,92,1,0,,,,,,,,,,,,,,,,,,,,,
,,,,,,,,,,,,,,,,,,,,,,,,,,,,,,,,,,,,,,,,,,5ee0a607b1d0693f75003f64,606c0d64b01a49e7a3bd900a,2021-04-06_10h27.54.360,Colour_Similarity_Experiment,2020.2.10,Win32,60,6067542a4a25243f4d7d4fcf,16.81172222,17.22981424,24.23146377,31.16889423,30.96061086,24.23146377,,,,,,,,,,,,,,,,,,,,PF,weak,2,,,,,,,,7,1.092795,,,,,,,,,,,,,,,,,,,,,,,,,,,,8,weak,49,115,1,0,0,response1disk,6,110,19,-7,1,0,0,rectangle,62,-98,1,0,0,4,4,1.52536,30,-4,1,0,0,0,109,109,161,1,1,response3disk_3,rectangle,,,,,,,,,,,,,,,,,,,
,,,,,,,,,,,,,,,,,,,,,,,,,,,,,,,,,,,,,,,,,,5ee0a607b1d0693f75003f64,606c0d64b01a49e7a3bd900a,2021-04-06_10h27.54.360,Colour_Similarity_Experiment,2020.2.10,Win32,60,6067542a4a25243f4d7d4fcf,16.81172222,17.22981424,24.23146377,31.16889423,30.96061086,24.23146377,,,,,,,,,,,,,,,,,,,,PF,weak,2,,,,,,,,7,0.809385,,,,,,,,,,,,,,,,,,,,,,,,,,,,2,weak,65,130,1,0,0,response1disk,9,111,16,5,1,0,0,rectangle,16,5,1,0,0,4,5,0.000575,16,5,1,0,0,0,110,110,39,1,0,,,,,,,,,,,,,,,,,,,,,
,,,,,,,,,,,,,,,,,,,,,,,,,,,,,,,,,,,,,,,,,,5ee0a607b1d0693f75003f64,606c0d64b01a49e7a3bd900a,2021-04-06_10h27.54.360,Colour_Similarity_Experiment,2020.2.10,Win32,60,6067542a4a25243f4d7d4fcf,16.81172222,17.22981424,24.23146377,31.16889423,30.96061086,24.23146377,,,,,,,,,,,,,,,,,,,,PF,weak,2,,,,,,,,7,0.90732,,,,,,,,,,,,,,,,,,,,,,,,,,,,9,weak,41,128,1,0,0,response1disk,2,112,10,15,1,0,0,rectangle,10,15,1,0,0,4,1,0.000475,10,15,1,0,0,0,111,111,157,1,0,,,,,,,,,,,,,,,,,,,,,
,,,,,,,,,,,,,,,,,,,,,,,,,,,,,,,,,,,,,,,,,,5ee0a607b1d0693f75003f64,606c0d64b01a49e7a3bd900a,2021-04-06_10h27.54.360,Colour_Similarity_Experiment,2020.2.10,Win32,60,6067542a4a25243f4d7d4fcf,16.81172222,17.22981424,24.23146377,31.16889423,30.96061086,24.23146377,,,,,,,,,,,,,,,,,,,,PF,weak,2,,,,,,,,7,0.87158,,,,,,,,,,,,,,,,,,,,,,,,,,,,4,weak,47,111,1,0,0,response1disk,6,113,15,7,1,0,0,rectangle,15,7,1,0,0,4,3,0.0006,15,7,1,0,0,0,112,112,120,1,0,,,,,,,,,,,,,,,,,,,,,
,,,,,,,,,,,,,,,,,,,,,,,,,,,,,,,,,,,,,,,,,,5ee0a607b1d0693f75003f64,606c0d64b01a49e7a3bd900a,2021-04-06_10h27.54.360,Colour_Similarity_Experiment,2020.2.10,Win32,60,6067542a4a25243f4d7d4fcf,16.81172222,17.22981424,24.23146377,31.16889423,30.96061086,24.23146377,,,,,,,,,,,,,,,,,,,,PF,weak,2,,,,,,,,7,0.746785,,,,,,,,,,,,,,,,,,,,,,,,,,,,2,weak,36,87,1,0,0,response1disk,4,114,19,-1,1,0,0,rectangle,19,-1,1,0,0,4,0,0.00062,19,-1,1,0,0,0,113,113,127,1,0,,,,,,,,,,,,,,,,,,,,,
,,,,,,,,,,,,,,,,,,,,,,,,,,,,,,,,,,,,,,,,,,5ee0a607b1d0693f75003f64,606c0d64b01a49e7a3bd900a,2021-04-06_10h27.54.360,Colour_Similarity_Experiment,2020.2.10,Win32,60,6067542a4a25243f4d7d4fcf,16.81172222,17.22981424,24.23146377,31.16889423,30.96061086,24.23146377,,,,,,,,,,,,,,,,,,,,PF,strong,2,,,,,,,,7,0.934985,,,,,,,,,,,,,,,,,,,,,,,,,,,,7,strong,45,113,1,0,0,response1disk,1,115,13,-4,1,0,0,rectangle,13,-4,1,0,0,4,6,0.000455,13,-4,1,0,0,0,114,114,132,1,0,,,,,,,,,,,,,,,,,,,,,
,,,,,,,,,,,,,,,,,,,,,,,,,,,,,,,,,,,,,,,,,,5ee0a607b1d0693f75003f64,606c0d64b01a49e7a3bd900a,2021-04-06_10h27.54.360,Colour_Similarity_Experiment,2020.2.10,Win32,60,6067542a4a25243f4d7d4fcf,16.81172222,17.22981424,24.23146377,31.16889423,30.96061086,24.23146377,,,,,,,,,,,,,,,,,,,,PF,weak,2,,,,,,,,7,1.93912,,,,,,,,,,,,,,,,,,,,,,,,,,,,1,weak,42,101,1,0,0,response1disk,8,116,-6,-10,1,0,0,rectangle,-6,-10,1,0,0,4,2,0.00048,-6,-10,1,0,0,0,115,115,65,1,0,,,,,,,,,,,,,,,,,,,,,
,,,,,,,,,,,,,,,,,,,,,,,,,,,,,,,,,,,,,,,,,,5ee0a607b1d0693f75003f64,606c0d64b01a49e7a3bd900a,2021-04-06_10h27.54.360,Colour_Similarity_Experiment,2020.2.10,Win32,60,6067542a4a25243f4d7d4fcf,16.81172222,17.22981424,24.23146377,31.16889423,30.96061086,24.23146377,,,,,,,,,,,,,,,,,,,,PF,weak,2,,,,,,,,7,0.872545,,,,,,,,,,,,,,,,,,,,,,,,,,,,8,weak,40,113,1,0,0,response1disk,5,117,3,0,1,0,0,rectangle,3,0,1,0,0,4,2,7.5E-05,3,0,1,0,0,0,116,116,98,1,0,,,,,,,,,,,,,,,,,,,,,
,,,,,,,,,,,,,,,,,,,,,,,,,,,,,,,,,,,,,,,,,,5ee0a607b1d0693f75003f64,606c0d64b01a49e7a3bd900a,2021-04-06_10h27.54.360,Colour_Similarity_Experiment,2020.2.10,Win32,60,6067542a4a25243f4d7d4fcf,16.81172222,17.22981424,24.23146377,31.16889423,30.96061086,24.23146377,,,,,,,,,,,,,,,,,,,,PF,strong,2,,,,,,,,7,1.151435,,,,,,,,,,,,,,,,,,,,,,,,,,,,6,strong,41,124,1,0,0,response1disk,8,118,4,5,1,0,0,rectangle,4,5,1,0,0,4,7,0.00049,4,5,1,0,0,0,117,117,133,1,0,,,,,,,,,,,,,,,,,,,,,
,,,,,,,,,,,,,,,,,,,,,,,,,,,,,,,,,,,,,,,,,,5ee0a607b1d0693f75003f64,606c0d64b01a49e7a3bd900a,2021-04-06_10h27.54.360,Colour_Similarity_Experiment,2020.2.10,Win32,60,6067542a4a25243f4d7d4fcf,16.81172222,17.22981424,24.23146377,31.16889423,30.96061086,24.23146377,,,,,,,,,,,,,,,,,,,,PF,weak,2,,,,,,,,7,1.05961,,,,,,,,,,,,,,,,,,,,,,,,,,,,4,weak,53,125,1,0,0,response1disk,9,119,15,-3,1,0,0,rectangle,15,-3,1,0,0,4,7,0.00017,15,-3,1,0,0,0,118,118,75,1,0,,,,,,,,,,,,,,,,,,,,,
,,,,,,,,,,,,,,,,,,,,,,,,,,,,,,,,,,,,,,,,,,5ee0a607b1d0693f75003f64,606c0d64b01a49e7a3bd900a,2021-04-06_10h27.54.360,Colour_Similarity_Experiment,2020.2.10,Win32,60,6067542a4a25243f4d7d4fcf,16.81172222,17.22981424,24.23146377,31.16889423,30.96061086,24.23146377,,,,,,,,,,,,,,,,,,,,PF,weak,2,,,,,,,,2,3.20773,,,,,,,,,,,,,,,,,,,,,,,,,,,,2,weak,-106,-53,1,0,0,response5disk,1,120,-5,0,1,0,0,rectangle,-5,0,1,0,0,4,5,0.00085,-5,0,1,0,0,0,119,119,9,1,0,,,,,,,,,,,,,,,,,,,,,
,,,,,,,,,,,,,,,,,,,,,,,,,,,,,,,,,,,,,,,,,,5ee0a607b1d0693f75003f64,606c0d64b01a49e7a3bd900a,2021-04-06_10h27.54.360,Colour_Similarity_Experiment,2020.2.10,Win32,60,6067542a4a25243f4d7d4fcf,16.81172222,17.22981424,24.23146377,31.16889423,30.96061086,24.23146377,,,,,,,,,,,,,,,,,,,,PF,weak,2,,,,,,,,1,1.951235,,,,,,,,,,,,,,,,,,,,,,,,,,,,8,weak,-112,49,1,0,0,response7disk,8,121,6,-5,1,0,0,rectangle,6,-5,1,0,0,4,0,0.00062,6,-5,1,0,0,0,120,120,153,1,0,,,,,,,,,,,,,,,,,,,,,
,,,,,,,,,,,,,,,,,,,,,,,,,,,,,,,,,,,,,,,,,,5ee0a607b1d0693f75003f64,606c0d64b01a49e7a3bd900a,2021-04-06_10h27.54.360,Colour_Similarity_Experiment,2020.2.10,Win32,60,6067542a4a25243f4d7d4fcf,16.81172222,17.22981424,24.23146377,31.16889423,30.96061086,24.23146377,,,,,,,,,,,,,,,,,,,,PF,weak,2,,,,,,,,7,1.839155,,,,,,,,,,,,,,,,,,,,,,,,,,,,7,weak,42,126,1,0,0,response1disk,2,122,18,4,1,0,0,rectangle,18,4,1,0,0,4,5,0.00049,18,4,1,0,0,0,121,121,32,1,0,,,,,,,,,,,,,,,,,,,,,
,,,,,,,,,,,,,,,,,,,,,,,,,,,,,,,,,,,,,,,,,,5ee0a607b1d0693f75003f64,606c0d64b01a49e7a3bd900a,2021-04-06_10h27.54.360,Colour_Similarity_Experiment,2020.2.10,Win32,60,6067542a4a25243f4d7d4fcf,16.81172222,17.22981424,24.23146377,31.16889423,30.96061086,24.23146377,,,,,,,,,,,,,,,,,,,,PF,strong,2,,,,,,,,7,0.96579,,,,,,,,,,,,,,,,,,,,,,,,,,,,3,strong,67,129,1,0,0,response1disk,7,123,15,9,1,0,0,rectangle,15,9,1,0,0,4,2,0.00059,15,9,1,0,0,0,122,122,118,1,0,,,,,,,,,,,,,,,,,,,,,
,,,,,,,,,,,,,,,,,,,,,,,,,,,,,,,,,,,,,,,,,,5ee0a607b1d0693f75003f64,606c0d64b01a49e7a3bd900a,2021-04-06_10h27.54.360,Colour_Similarity_Experiment,2020.2.10,Win32,60,6067542a4a25243f4d7d4fcf,16.81172222,17.22981424,24.23146377,31.16889423,30.96061086,24.23146377,,,,,,,,,,,,,,,,,,,,PF,strong,2,,,,,,,,7,3.838545,,,,,,,,,,,,,,,,,,,,,,,,,,,,9,strong,48,121,1,0,0,response1disk,2,124,14,-2,1,0,0,rectangle,-92,-63,1,0,0,4,2,1.491705,6,5,1,0,0,0,123,123,11,1,1,response5disk_3,rectangle,,,,,,,,,,,,,,,,,,,
,,,,,,,,,,,,,,,,,,,,,,,,,,,,,,,,,,,,,,,,,,5ee0a607b1d0693f75003f64,606c0d64b01a49e7a3bd900a,2021-04-06_10h27.54.360,Colour_Similarity_Experiment,2020.2.10,Win32,60,6067542a4a25243f4d7d4fcf,16.81172222,17.22981424,24.23146377,31.16889423,30.96061086,24.23146377,,,,,,,,,,,,,,,,,,,,PF,weak,2,,,,,,,,7,1.05974,,,,,,,,,,,,,,,,,,,,,,,,,,,,6,weak,55,145,1,0,0,response1disk,4,125,11,-11,1,0,0,rectangle,11,-11,1,0,0,4,4,0.00068,11,-11,1,0,0,0,124,124,33,1,0,,,,,,,,,,,,,,,,,,,,,
,,,,,,,,,,,,,,,,,,,,,,,,,,,,,,,,,,,,,,,,,,5ee0a607b1d0693f75003f64,606c0d64b01a49e7a3bd900a,2021-04-06_10h27.54.360,Colour_Similarity_Experiment,2020.2.10,Win32,60,6067542a4a25243f4d7d4fcf,16.81172222,17.22981424,24.23146377,31.16889423,30.96061086,24.23146377,,,,,,,,,,,,,,,,,,,,PF,weak,2,,,,,,,,4,2.15114,,,,,,,,,,,,,,,,,,,,,,,,,,,,3,weak,53,-126,1,0,0,response3disk,3,126,4,2,1,0,0,rectangle,4,2,1,0,0,4,3,0.000595,4,2,1,0,0,0,125,125,4,1,0,,,,,,,,,,,,,,,,,,,,,
,,,,,,,,,,,,,,,,,,,,,,,,,,,,,,,,,,,,,,,,,,5ee0a607b1d0693f75003f64,606c0d64b01a49e7a3bd900a,2021-04-06_10h27.54.360,Colour_Similarity_Experiment,2020.2.10,Win32,60,6067542a4a25243f4d7d4fcf,16.81172222,17.22981424,24.23146377,31.16889423,30.96061086,24.23146377,,,,,,,,,,,,,,,,,,,,PF,weak,2,,,,,,,,7,0.96182,,,,,,,,,,,,,,,,,,,,,,,,,,,,2,weak,37,126,1,0,0,response1disk,8,127,0,12,1,0,0,rectangle,0,12,1,0,0,4,3,0.00011,0,12,1,0,0,0,126,126,52,1,0,,,,,,,,,,,,,,,,,,,,,
,,,,,,,,,,,,,,,,,,,,,,,,,,,,,,,,,,,,,,,,,,5ee0a607b1d0693f75003f64,606c0d64b01a49e7a3bd900a,2021-04-06_10h27.54.360,Colour_Similarity_Experiment,2020.2.10,Win32,60,6067542a4a25243f4d7d4fcf,16.81172222,17.22981424,24.23146377,31.16889423,30.96061086,24.23146377,,,,,,,,,,,,,,,,,,,,PF,strong,2,,,,,,,,2,1.90401,,,,,,,,,,,,,,,,,,,,,,,,,,,,3,strong,-100,-48,1,0,0,response5disk,3,128,-13,6,1,0,0,rectangle,-13,6,1,0,0,4,2,0.000605,-13,6,1,0,0,0,127,127,68,1,0,,,,,,,,,,,,,,,,,,,,,
,,,,,,,,,,,,,,,,,,,,,,,,,,,,,,,,,,,,,,,,,,5ee0a607b1d0693f75003f64,606c0d64b01a49e7a3bd900a,2021-04-06_10h27.54.360,Colour_Similarity_Experiment,2020.2.10,Win32,60,6067542a4a25243f4d7d4fcf,16.81172222,17.22981424,24.23146377,31.16889423,30.96061086,24.23146377,,,,,,,,,,,,,,,,,,,,PF,weak,2,,,,,,,,7,0.93674,,,,,,,,,,,,,,,,,,,,,,,,,,,,2,weak,64,120,1,0,0,response1disk,5,129,-6,-6,1,0,0,rectangle,-6,-6,1,0,0,4,2,9E-05,-6,-6,1,0,0,0,128,128,147,1,0,,,,,,,,,,,,,,,,,,,,,
,,,,,,,,,,,,,,,,,,,,,,,,,,,,,,,,,,,,,,,,,,5ee0a607b1d0693f75003f64,606c0d64b01a49e7a3bd900a,2021-04-06_10h27.54.360,Colour_Similarity_Experiment,2020.2.10,Win32,60,6067542a4a25243f4d7d4fcf,16.81172222,17.22981424,24.23146377,31.16889423,30.96061086,24.23146377,,,,,,,,,,,,,,,,,,,,PF,strong,2,,,,,,,,7,0.96717,,,,,,,,,,,,,,,,,,,,,,,,,,,,6,strong,50,117,1,0,0,response1disk,2,130,3,4,1,0,0,rectangle,3,4,1,0,0,4,7,0.00049,3,4,1,0,0,0,129,129,112,1,0,,,,,,,,,,,,,,,,,,,,,
,,,,,,,,,,,,,,,,,,,,,,,,,,,,,,,,,,,,,,,,,,5ee0a607b1d0693f75003f64,606c0d64b01a49e7a3bd900a,2021-04-06_10h27.54.360,Colour_Similarity_Experiment,2020.2.10,Win32,60,6067542a4a25243f4d7d4fcf,16.81172222,17.22981424,24.23146377,31.16889423,30.96061086,24.23146377,,,,,,,,,,,,,,,,,,,,PF,strong,2,,,,,,,,3,2.59111,,,,,,,,,,,,,,,,,,,,,,,,,,,,7,strong,-50,-124,1,0,0,response5disk,6,131,-14,-16,1,0,0,rectangle,-14,-16,1,0,0,4,7,0.0002,-14,-16,1,0,0,0,130,130,31,1,0,,,,,,,,,,,,,,,,,,,,,
,,,,,,,,,,,,,,,,,,,,,,,,,,,,,,,,,,,,,,,,,,5ee0a607b1d0693f75003f64,606c0d64b01a49e7a3bd900a,2021-04-06_10h27.54.360,Colour_Similarity_Experiment,2020.2.10,Win32,60,6067542a4a25243f4d7d4fcf,16.81172222,17.22981424,24.23146377,31.16889423,30.96061086,24.23146377,,,,,,,,,,,,,,,,,,,,PF,weak,2,,,,,,,,7,0.872705,,,,,,,,,,,,,,,,,,,,,,,,,,,,6,weak,67,146,1,0,0,response1disk,1,132,16,-6,1,0,0,rectangle,16,-6,1,0,0,4,1,0.000675,16,-6,1,0,0,0,131,131,46,1,0,,,,,,,,,,,,,,,,,,,,,
,,,,,,,,,,,,,,,,,,,,,,,,,,,,,,,,,,,,,,,,,,5ee0a607b1d0693f75003f64,606c0d64b01a49e7a3bd900a,2021-04-06_10h27.54.360,Colour_Similarity_Experiment,2020.2.10,Win32,60,6067542a4a25243f4d7d4fcf,16.81172222,17.22981424,24.23146377,31.16889423,30.96061086,24.23146377,,,,,,,,,,,,,,,,,,,,PF,weak,2,,,,,,,,1,2.31051,,,,,,,,,,,,,,,,,,,,,,,,,,,,6,weak,-107,48,1,0,0,response7disk,5,133,-16,3,1,0,0,rectangle,-16,3,1,0,0,4,3,0.00056,-16,3,1,0,0,0,132,132,59,1,0,,,,,,,,,,,,,,,,,,,,,
,,,,,,,,,,,,,,,,,,,,,,,,,,,,,,,,,,,,,,,,,,5ee0a607b1d0693f75003f64,606c0d64b01a49e7a3bd900a,2021-04-06_10h27.54.360,Colour_Similarity_Experiment,2020.2.10,Win32,60,6067542a4a25243f4d7d4fcf,16.81172222,17.22981424,24.23146377,31.16889423,30.96061086,24.23146377,,,,,,,,,,,,,,,,,,,,PF,weak,2,,,,,,,,5,2.43163,,,,,,,,,,,,,,,,,,,,,,,,,,,,2,weak,110,-49,1,0,0,response3disk,3,134,23,-3,1,0,0,rectangle,23,-3,1,0,0,4,1,0.000645,23,-3,1,0,0,0,133,133,69,1,0,,,,,,,,,,,,,,,,,,,,,
,,,,,,,,,,,,,,,,,,,,,,,,,,,,,,,,,,,,,,,,,,5ee0a607b1d0693f75003f64,606c0d64b01a49e7a3bd900a,2021-04-06_10h27.54.360,Colour_Similarity_Experiment,2020.2.10,Win32,60,6067542a4a25243f4d7d4fcf,16.81172222,17.22981424,24.23146377,31.16889423,30.96061086,24.23146377,,,,,,,,,,,,,,,,,,,,PF,strong,2,,,,,,,,7,1.18289,,,,,,,,,,,,,,,,,,,,,,,,,,,,5,strong,57,126,1,0,0,response1disk,2,135,-9,14,1,0,0,rectangle,45,-99,1,0,0,4,4,1.18813,1,-1,1,0,0,0,134,134,55,1,1,response3disk_3,rectangle,,,,,,,,,,,,,,,,,,,
,,,,,,,,,,,,,,,,,,,,,,,,,,,,,,,,,,,,,,,,,,5ee0a607b1d0693f75003f64,606c0d64b01a49e7a3bd900a,2021-04-06_10h27.54.360,Colour_Similarity_Experiment,2020.2.10,Win32,60,6067542a4a25243f4d7d4fcf,16.81172222,17.22981424,24.23146377,31.16889423,30.96061086,24.23146377,,,,,,,,,,,,,,,,,,,,PF,strong,2,,,,,,,,7,0.99647,,,,,,,,,,,,,,,,,,,,,,,,,,,,3,strong,57,117,1,0,0,response1disk,8,136,11,5,1,0,0,rectangle,11,5,1,0,0,4,7,0.0005,11,5,1,0,0,0,135,135,44,1,0,,,,,,,,,,,,,,,,,,,,,
,,,,,,,,,,,,,,,,,,,,,,,,,,,,,,,,,,,,,,,,,,5ee0a607b1d0693f75003f64,606c0d64b01a49e7a3bd900a,2021-04-06_10h27.54.360,Colour_Similarity_Experiment,2020.2.10,Win32,60,6067542a4a25243f4d7d4fcf,16.81172222,17.22981424,24.23146377,31.16889423,30.96061086,24.23146377,,,,,,,,,,,,,,,,,,,,PF,strong,2,,,,,,,,7,1.854,,,,,,,,,,,,,,,,,,,,,,,,,,,,5,strong,51,127,1,0,0,response1disk,4,137,13,17,1,0,0,rectangle,13,17,1,0,0,4,4,0.000475,13,17,1,0,0,0,136,136,8,1,0,,,,,,,,,,,,,,,,,,,,,
,,,,,,,,,,,,,,,,,,,,,,,,,,,,,,,,,,,,,,,,,,5ee0a607b1d0693f75003f64,606c0d64b01a49e7a3bd900a,2021-04-06_10h27.54.360,Colour_Similarity_Experiment,2020.2.10,Win32,60,6067542a4a25243f4d7d4fcf,16.81172222,17.22981424,24.23146377,31.16889423,30.96061086,24.23146377,,,,,,,,,,,,,,,,,,,,PF,strong,2,,,,,,,,7,1.277375,,,,,,,,,,,,,,,,,,,,,,,,,,,,5,strong,54,131,1,0,0,response1disk,9,138,8,8,1,0,0,rectangle,8,8,1,0,0,4,1,0.00098,8,8,1,0,0,0,137,137,61,1,0,,,,,,,,,,,,,,,,,,,,,
,,,,,,,,,,,,,,,,,,,,,,,,,,,,,,,,,,,,,,,,,,5ee0a607b1d0693f75003f64,606c0d64b01a49e7a3bd900a,2021-04-06_10h27.54.360,Colour_Similarity_Experiment,2020.2.10,Win32,60,6067542a4a25243f4d7d4fcf,16.81172222,17.22981424,24.23146377,31.16889423,30.96061086,24.23146377,,,,,,,,,,,,,,,,,,,,PF,strong,2,,,,,,,,7,1.203595,,,,,,,,,,,,,,,,,,,,,,,,,,,,8,strong,60,129,1,0,0,response1disk,3,139,8,10,1,0,0,rectangle,8,10,1,0,0,4,5,0.00061,8,10,1,0,0,0,138,138,154,1,0,,,,,,,,,,,,,,,,,,,,,
,,,,,,,,,,,,,,,,,,,,,,,,,,,,,,,,,,,,,,,,,,5ee0a607b1d0693f75003f64,606c0d64b01a49e7a3bd900a,2021-04-06_10h27.54.360,Colour_Similarity_Experiment,2020.2.10,Win32,60,6067542a4a25243f4d7d4fcf,16.81172222,17.22981424,24.23146377,31.16889423,30.96061086,24.23146377,,,,,,,,,,,,,,,,,,,,PF,strong,2,,,,,,,,6,1.43214,,,,,,,,,,,,,,,,,,,,,,,,,,,,5,strong,85,51,1,0,0,response1disk,8,140,29,1,1,0,0,rectangle,29,1,1,0,0,4,7,0.00085,29,1,1,0,0,0,139,139,16,1,0,,,,,,,,,,,,,,,,,,,,,
,,,,,,,,,,,,,,,,,,,,,,,,,,,,,,,,,,,,,,,,,,5ee0a607b1d0693f75003f64,606c0d64b01a49e7a3bd900a,2021-04-06_10h27.54.360,Colour_Similarity_Experiment,2020.2.10,Win32,60,6067542a4a25243f4d7d4fcf,16.81172222,17.22981424,24.23146377,31.16889423,30.96061086,24.23146377,,,,,,,,,,,,,,,,,,,,PF,strong,2,,,,,,,,6,3.12115,,,,,,,,,,,,,,,,,,,,,,,,,,,,4,strong,124,54,1,0,0,response1disk,5,141,-5,-5,1,0,0,rectangle,-5,-5,1,0,0,4,6,0.000525,-5,-5,1,0,0,0,140,140,116,1,0,,,,,,,,,,,,,,,,,,,,,
,,,,,,,,,,,,,,,,,,,,,,,,,,,,,,,,,,,,,,,,,,5ee0a607b1d0693f75003f64,606c0d64b01a49e7a3bd900a,2021-04-06_10h27.54.360,Colour_Similarity_Experiment,2020.2.10,Win32,60,6067542a4a25243f4d7d4fcf,16.81172222,17.22981424,24.23146377,31.16889423,30.96061086,24.23146377,,,,,,,,,,,,,,,,,,,,PF,weak,2,,,,,,,,5,2.246235,,,,,,,,,,,,,,,,,,,,,,,,,,,,1,weak,103,-41,1,0,0,response3disk,9,142,21,4,1,0,0,rectangle,21,4,1,0,0,4,5,0.000525,21,4,1,0,0,0,141,141,15,1,0,,,,,,,,,,,,,,,,,,,,,
,,,,,,,,,,,,,,,,,,,,,,,,,,,,,,,,,,,,,,,,,,5ee0a607b1d0693f75003f64,606c0d64b01a49e7a3bd900a,2021-04-06_10h27.54.360,Colour_Similarity_Experiment,2020.2.10,Win32,60,6067542a4a25243f4d7d4fcf,16.81172222,17.22981424,24.23146377,31.16889423,30.96061086,24.23146377,,,,,,,,,,,,,,,,,,,,PF,strong,2,,,,,,,,7,1.651645,,,,,,,,,,,,,,,,,,,,,,,,,,,,4,strong,50,125,1,0,0,response1disk,6,143,25,-2,1,0,0,rectangle,25,-2,1,0,0,4,2,0.0005,25,-2,1,0,0,0,142,142,122,1,0,,,,,,,,,,,,,,,,,,,,,
,,,,,,,,,,,,,,,,,,,,,,,,,,,,,,,,,,,,,,,,,,5ee0a607b1d0693f75003f64,606c0d64b01a49e7a3bd900a,2021-04-06_10h27.54.360,Colour_Similarity_Experiment,2020.2.10,Win32,60,6067542a4a25243f4d7d4fcf,16.81172222,17.22981424,24.23146377,31.16889423,30.96061086,24.23146377,,,,,,,,,,,,,,,,,,,,PF,weak,2,,,,,,,,7,0.99562,,,,,,,,,,,,,,,,,,,,,,,,,,,,9,weak,63,131,1,0,0,response1disk,6,144,1,-7,1,0,0,rectangle,1,-7,1,0,0,4,3,0.000455,1,-7,1,0,0,0,143,143,148,1,0,,,,,,,,,,,,,,,,,,,,,
,,,,,,,,,,,,,,,,,,,,,,,,,,,,,,,,,,,,,,,,,,5ee0a607b1d0693f75003f64,606c0d64b01a49e7a3bd900a,2021-04-06_10h27.54.360,Colour_Similarity_Experiment,2020.2.10,Win32,60,6067542a4a25243f4d7d4fcf,16.81172222,17.22981424,24.23146377,31.16889423,30.96061086,24.23146377,,,,,,,,,,,,,,,,,,,,PF,weak,2,,,,,,,,7,1.41048,,,,,,,,,,,,,,,,,,,,,,,,,,,,4,weak,73,120,1,0,0,response1disk,1,145,23,7,1,0,0,rectangle,23,7,1,0,0,4,2,0.000445,23,7,1,0,0,0,144,144,115,1,0,,,,,,,,,,,,,,,,,,,,,
,,,,,,,,,,,,,,,,,,,,,,,,,,,,,,,,,,,,,,,,,,5ee0a607b1d0693f75003f64,606c0d64b01a49e7a3bd900a,2021-04-06_10h27.54.360,Colour_Similarity_Experiment,2020.2.10,Win32,60,6067542a4a25243f4d7d4fcf,16.81172222,17.22981424,24.23146377,31.16889423,30.96061086,24.23146377,,,,,,,,,,,,,,,,,,,,PF,weak,2,,,,,,,,6,1.74617,,,,,,,,,,,,,,,,,,,,,,,,,,,,5,weak,119,62,1,0,0,response1disk,7,146,1,2,1,0,0,rectangle,1,2,1,0,0,4,4,0.000675,1,2,1,0,0,0,145,145,146,1,0,,,,,,,,,,,,,,,,,,,,,
,,,,,,,,,,,,,,,,,,,,,,,,,,,,,,,,,,,,,,,,,,5ee0a607b1d0693f75003f64,606c0d64b01a49e7a3bd900a,2021-04-06_10h27.54.360,Colour_Similarity_Experiment,2020.2.10,Win32,60,6067542a4a25243f4d7d4fcf,16.81172222,17.22981424,24.23146377,31.16889423,30.96061086,24.23146377,,,,,,,,,,,,,,,,,,,,PF,strong,2,,,,,,,,6,1.185115,,,,,,,,,,,,,,,,,,,,,,,,,,,,8,strong,120,61,1,0,0,response1disk,1,147,20,2,1,0,0,rectangle,20,2,1,0,0,4,3,0.00073,20,2,1,0,0,0,146,146,20,1,0,,,,,,,,,,,,,,,,,,,,,
,,,,,,,,,,,,,,,,,,,,,,,,,,,,,,,,,,,,,,,,,,5ee0a607b1d0693f75003f64,606c0d64b01a49e7a3bd900a,2021-04-06_10h27.54.360,Colour_Similarity_Experiment,2020.2.10,Win32,60,6067542a4a25243f4d7d4fcf,16.81172222,17.22981424,24.23146377,31.16889423,30.96061086,24.23146377,,,,,,,,,,,,,,,,,,,,PF,weak,2,,,,,,,,7,1.93459,,,,,,,,,,,,,,,,,,,,,,,,,,,,5,weak,52,130,1,0,0,response1disk,8,148,-4,3,1,0,0,rectangle,-4,3,1,0,0,4,2,0.00056,-4,3,1,0,0,0,147,147,149,1,0,,,,,,,,,,,,,,,,,,,,,
,,,,,,,,,,,,,,,,,,,,,,,,,,,,,,,,,,,,,,,,,,5ee0a607b1d0693f75003f64,606c0d64b01a49e7a3bd900a,2021-04-06_10h27.54.360,Colour_Similarity_Experiment,2020.2.10,Win32,60,6067542a4a25243f4d7d4fcf,16.81172222,17.22981424,24.23146377,31.16889423,30.96061086,24.23146377,,,,,,,,,,,,,,,,,,,,PF,strong,2,,,,,,,,7,3.155795,,,,,,,,,,,,,,,,,,,,,,,,,,,,3,strong,70,120,1,0,0,response1disk,9,149,11,-1,1,0,0,rectangle,11,-1,1,0,0,4,0,0.000495,11,-1,1,0,0,0,148,148,143,1,0,,,,,,,,,,,,,,,,,,,,,
,,,,,,,,,,,,,,,,,,,,,,,,,,,,,,,,,,,,,,,,,,5ee0a607b1d0693f75003f64,606c0d64b01a49e7a3bd900a,2021-04-06_10h27.54.360,Colour_Similarity_Experiment,2020.2.10,Win32,60,6067542a4a25243f4d7d4fcf,16.81172222,17.22981424,24.23146377,31.16889423,30.96061086,24.23146377,,,,,,,,,,,,,,,,,,,,PF,weak,2,,,,,,,,7,0.996445,,,,,,,,,,,,,,,,,,,,,,,,,,,,4,weak,40,113,1,0,0,response1disk,7,150,18,6,1,0,0,rectangle,18,6,1,0,0,4,4,0.00044,18,6,1,0,0,0,149,149,38,1,0,,,,,,,,,,,,,,,,,,,,,
,,,,,,,,,,,,,,,,,,,,,,,,,,,,,,,,,,,,,,,,,,5ee0a607b1d0693f75003f64,606c0d64b01a49e7a3bd900a,2021-04-06_10h27.54.360,Colour_Similarity_Experiment,2020.2.10,Win32,60,6067542a4a25243f4d7d4fcf,16.81172222,17.22981424,24.23146377,31.16889423,30.96061086,24.23146377,,,,,,,,,,,,,,,,,,,,PF,strong,2,,,,,,,,7,1.185595,,,,,,,,,,,,,,,,,,,,,,,,,,,,7,strong,58,133,1,0,0,response1disk,9,151,13,1,1,0,0,rectangle,13,1,1,0,0,4,2,0.00079,13,1,1,0,0,0,150,150,155,1,0,,,,,,,,,,,,,,,,,,,,,
,,,,,,,,,,,,,,,,,,,,,,,,,,,,,,,,,,,,,,,,,,5ee0a607b1d0693f75003f64,606c0d64b01a49e7a3bd900a,2021-04-06_10h27.54.360,Colour_Similarity_Experiment,2020.2.10,Win32,60,6067542a4a25243f4d7d4fcf,16.81172222,17.22981424,24.23146377,31.16889423,30.96061086,24.23146377,,,,,,,,,,,,,,,,,,,,PF,weak,2,,,,,,,,7,0.843785,,,,,,,,,,,,,,,,,,,,,,,,,,,,3,weak,48,127,1,0,0,response1disk,5,152,14,5,1,0,0,rectangle,14,5,1,0,0,4,0,0.000465,14,5,1,0,0,0,151,151,66,1,0,,,,,,,,,,,,,,,,,,,,,
,,,,,,,,,,,,,,,,,,,,,,,,,,,,,,,,,,,,,,,,,,5ee0a607b1d0693f75003f64,606c0d64b01a49e7a3bd900a,2021-04-06_10h27.54.360,Colour_Similarity_Experiment,2020.2.10,Win32,60,6067542a4a25243f4d7d4fcf,16.81172222,17.22981424,24.23146377,31.16889423,30.96061086,24.23146377,,,,,,,,,,,,,,,,,,,,PF,weak,2,,,,,,,,7,1.03744,,,,,,,,,,,,,,,,,,,,,,,,,,,,7,weak,52,113,1,0,0,response1disk,4,153,12,-5,1,0,0,rectangle,12,-5,1,0,0,4,2,0.00061,12,-5,1,0,0,0,152,152,43,1,0,,,,,,,,,,,,,,,,,,,,,
,,,,,,,,,,,,,,,,,,,,,,,,,,,,,,,,,,,,,,,,,,5ee0a607b1d0693f75003f64,606c0d64b01a49e7a3bd900a,2021-04-06_10h27.54.360,Colour_Similarity_Experiment,2020.2.10,Win32,60,6067542a4a25243f4d7d4fcf,16.81172222,17.22981424,24.23146377,31.16889423,30.96061086,24.23146377,,,,,,,,,,,,,,,,,,,,PF,weak,2,,,,,,,,7,0.78073,,,,,,,,,,,,,,,,,,,,,,,,,,,,2,weak,68,122,1,0,0,response1disk,7,154,9,-14,1,0,0,rectangle,9,-14,1,0,0,4,1,0.000665,9,-14,1,0,0,0,153,153,107,1,0,,,,,,,,,,,,,,,,,,,,,
,,,,,,,,,,,,,,,,,,,,,,,,,,,,,,,,,,,,,,,,,,5ee0a607b1d0693f75003f64,606c0d64b01a49e7a3bd900a,2021-04-06_10h27.54.360,Colour_Similarity_Experiment,2020.2.10,Win32,60,6067542a4a25243f4d7d4fcf,16.81172222,17.22981424,24.23146377,31.16889423,30.96061086,24.23146377,,,,,,,,,,,,,,,,,,,,PF,strong,2,,,,,,,,7,0.907145,,,,,,,,,,,,,,,,,,,,,,,,,,,,3,strong,52,117,1,0,0,response1disk,6,155,1,11,1,0,0,rectangle,1,11,1,0,0,4,2,0.000655,1,11,1,0,0,0,154,154,95,1,0,,,,,,,,,,,,,,,,,,,,,
,,,,,,,,,,,,,,,,,,,,,,,,,,,,,,,,,,,,,,,,,,5ee0a607b1d0693f75003f64,606c0d64b01a49e7a3bd900a,2021-04-06_10h27.54.360,Colour_Similarity_Experiment,2020.2.10,Win32,60,6067542a4a25243f4d7d4fcf,16.81172222,17.22981424,24.23146377,31.16889423,30.96061086,24.23146377,,,,,,,,,,,,,,,,,,,,PF,strong,2,,,,,,,,7,0.90421,,,,,,,,,,,,,,,,,,,,,,,,,,,,3,strong,51,148,1,0,0,response1disk,5,156,-8,12,1,0,0,rectangle,-8,12,1,0,0,4,1,0.00043,-8,12,1,0,0,0,155,155,101,1,0,,,,,,,,,,,,,,,,,,,,,
,,,,,,,,,,,,,,,,,,,,,,,,,,,,,,,,,,,,,,,,,,5ee0a607b1d0693f75003f64,606c0d64b01a49e7a3bd900a,2021-04-06_10h27.54.360,Colour_Similarity_Experiment,2020.2.10,Win32,60,6067542a4a25243f4d7d4fcf,16.81172222,17.22981424,24.23146377,31.16889423,30.96061086,24.23146377,,,,,,,,,,,,,,,,,,,,PF,strong,2,,,,,,,,6,1.277275,,,,,,,,,,,,,,,,,,,,,,,,,,,,2,strong,142,40,1,0,0,response1disk,1,157,6,-4,1,0,0,rectangle,6,-4,1,0,0,4,3,0.00048,6,-4,1,0,0,0,156,156,85,1,0,,,,,,,,,,,,,,,,,,,,,
,,,,,,,,,,,,,,,,,,,,,,,,,,,,,,,,,,,,,,,,,,5ee0a607b1d0693f75003f64,606c0d64b01a49e7a3bd900a,2021-04-06_10h27.54.360,Colour_Similarity_Experiment,2020.2.10,Win32,60,6067542a4a25243f4d7d4fcf,16.81172222,17.22981424,24.23146377,31.16889423,30.96061086,24.23146377,,,,,,,,,,,,,,,,,,,,PF,strong,2,,,,,,,,7,0.841875,,,,,,,,,,,,,,,,,,,,,,,,,,,,1,strong,44,122,1,0,0,response1disk,8,158,3,-1,1,0,0,rectangle,3,-1,1,0,0,4,1,0.002275,3,-1,1,0,0,0,157,157,27,1,0,,,,,,,,,,,,,,,,,,,,,
,,,,,,,,,,,,,,,,,,,,,,,,,,,,,,,,,,,,,,,,,,5ee0a607b1d0693f75003f64,606c0d64b01a49e7a3bd900a,2021-04-06_10h27.54.360,Colour_Similarity_Experiment,2020.2.10,Win32,60,6067542a4a25243f4d7d4fcf,16.81172222,17.22981424,24.23146377,31.16889423,30.96061086,24.23146377,,,,,,,,,,,,,,,,,,,,PF,strong,2,,,,,,,,5,2.586015,,,,,,,,,,,,,,,,,,,,,,,,,,,,7,strong,133,-43,1,0,0,response3disk,8,159,8,9,1,0,0,rectangle,56,129,1,0,0,7,7,3.33574,5,0,1,0,0,0,158,158,97,1,1,response1disk_3,rectangle,,,,,,,,,,,,,,,,,,,
,,,,,,,,,,,,,,,,,,,,,,,,,,,,,,,,,,,,,,,,,,5ee0a607b1d0693f75003f64,606c0d64b01a49e7a3bd900a,2021-04-06_10h27.54.360,Colour_Similarity_Experiment,2020.2.10,Win32,60,6067542a4a25243f4d7d4fcf,16.81172222,17.22981424,24.23146377,31.16889423,30.96061086,24.23146377,,,,,,,,,,,,,,,,,,,,PF,strong,2,,,,,,,,0,1.22007,,,,,,,,,,,,,,,,,,,,,,,,,,,,4,strong,-41,112,1,0,0,response7disk,4,160,10,-4,1,0,0,rectangle,10,-4,1,0,0,7,7,0.000165,10,-4,1,0,0,0,159,159,84,1,0,,,,,,,,,,,,,,,,,,,,,
,,,,,,,,,,,,,,,,,,,,,,,,,,,,,,,,,,,,,,,,,,5ee0a607b1d0693f75003f64,606c0d64b01a49e7a3bd900a,2021-04-06_10h27.54.360,Colour_Similarity_Experiment,2020.2.10,Win32,60,6067542a4a25243f4d7d4fcf,16.81172222,17.22981424,24.23146377,31.16889423,30.96061086,24.23146377,,,,,,,,,,,,,,,,,,,,PF,strong,2,,,,,,,,2,2.903295,,,,,,,,,,,,,,,,,,,,,,,,,,,,7,strong,-106,-44,1,0,0,response5disk,7,161,-13,-1,1,0,0,rectangle,-13,-1,1,0,0,7,7,0.000125,-13,-1,1,0,0,0,160,160,34,1,0,,,,,,,,,,,,,,,,,,,,,
,,,,,,,,,,,,,,,,,,,,,,,,,,,,,,,,,,,,,,,,,,5ee0a607b1d0693f75003f64,606c0d64b01a49e7a3bd900a,2021-04-06_10h27.54.360,Colour_Similarity_Experiment,2020.2.10,Win32,60,6067542a4a25243f4d7d4fcf,16.81172222,17.22981424,24.23146377,31.16889423,30.96061086,24.23146377,,,,,,,,,,,,,,,,,,,,PF,weak,2,,,,,,,,7,1.122895,,,,,,,,,,,,,,,,,,,,,,,,,,,,1,weak,53,117,1,0,0,response1disk,5,162,-3,-5,1,0,0,rectangle,-3,-5,1,0,0,7,0,0.001035,-3,-5,1,0,0,0,161,161,28,1,0,,,,,,,,,,,,,,,,,,,,,
,,,,,,,,,,,,,,,,,,,,,,,,,,,,,,,,,,,,,,,,,,5ee0a607b1d0693f75003f64,606c0d64b01a49e7a3bd900a,2021-04-06_10h27.54.360,Colour_Similarity_Experiment,2020.2.10,Win32,60,6067542a4a25243f4d7d4fcf,16.81172222,17.22981424,24.23146377,31.16889423,30.96061086,24.23146377,,,,,,,,,,,,,,,,,,,,,,,,,,,,,,,,,,,,,,,,,,,,,,,,,,,,,,,,,,,,,,,,,,,,,,,,,,,,,,,,,,,,,,,,,,,,,,,,0,0,0,0,1,,,,,,,,,,,,,,
,,,,,,,,,,,,,,,,,,,,,,,,,,,,,,,,,,,,,,,,,,5ee0a607b1d0693f75003f64,606c0d64b01a49e7a3bd900a,2021-04-06_10h27.54.360,Colour_Similarity_Experiment,2020.2.10,Win32,60,6067542a4a25243f4d7d4fcf,16.81172222,17.22981424,24.23146377,31.16889423,30.96061086,24.23146377,,,,,,,,,,,,,,,,,,,,PF,weak,2,,,,,,,,7,0.903485,,,,,,,,,,,,,,,,,,,,,,,,,,,,6,weak,66,129,1,0,0,response1disk,9,163,23,-1,1,0,0,rectangle,23,-1,1,0,0,7,0,0.000245,23,-1,1,0,0,0,0,0,45,1,0,,,,,,,,,,,,,,,,,,,,,
,,,,,,,,,,,,,,,,,,,,,,,,,,,,,,,,,,,,,,,,,,5ee0a607b1d0693f75003f64,606c0d64b01a49e7a3bd900a,2021-04-06_10h27.54.360,Colour_Similarity_Experiment,2020.2.10,Win32,60,6067542a4a25243f4d7d4fcf,16.81172222,17.22981424,24.23146377,31.16889423,30.96061086,24.23146377,,,,,,,,,,,,,,,,,,,,PF,weak,2,,,,,,,,5,2.367405,,,,,,,,,,,,,,,,,,,,,,,,,,,,5,weak,121,-47,1,0,0,response3disk,4,164,16,3,1,0,0,rectangle,16,3,1,0,0,7,0,0.000165,16,3,1,0,0,0,1,1,54,1,0,,,,,,,,,,,,,,,,,,,,,
,,,,,,,,,,,,,,,,,,,,,,,,,,,,,,,,,,,,,,,,,,5ee0a607b1d0693f75003f64,606c0d64b01a49e7a3bd900a,2021-04-06_10h27.54.360,Colour_Similarity_Experiment,2020.2.10,Win32,60,6067542a4a25243f4d7d4fcf,16.81172222,17.22981424,24.23146377,31.16889423,30.96061086,24.23146377,,,,,,,,,,,,,,,,,,,,PF,strong,2,,,,,,,,5,1.089,,,,,,,,,,,,,,,,,,,,,,,,,,,,6,strong,91,-44,1,0,0,response3disk,3,165,8,-6,1,0,0,rectangle,8,-6,1,0,0,7,7,0.000635,8,-6,1,0,0,0,2,2,21,1,0,,,,,,,,,,,,,,,,,,,,,
,,,,,,,,,,,,,,,,,,,,,,,,,,,,,,,,,,,,,,,,,,5ee0a607b1d0693f75003f64,606c0d64b01a49e7a3bd900a,2021-04-06_10h27.54.360,Colour_Similarity_Experiment,2020.2.10,Win32,60,6067542a4a25243f4d7d4fcf,16.81172222,17.22981424,24.23146377,31.16889423,30.96061086,24.23146377,,,,,,,,,,,,,,,,,,,,PF,strong,2,,,,,,,,2,2.527195,,,,,,,,,,,,,,,,,,,,,,,,,,,,8,strong,-92,-41,1,0,0,response5disk,5,166,7,17,1,0,0,rectangle,7,17,1,0,0,7,7,0.00015,7,17,1,0,0,0,3,3,152,1,0,,,,,,,,,,,,,,,,,,,,,
,,,,,,,,,,,,,,,,,,,,,,,,,,,,,,,,,,,,,,,,,,5ee0a607b1d0693f75003f64,606c0d64b01a49e7a3bd900a,2021-04-06_10h27.54.360,Colour_Similarity_Experiment,2020.2.10,Win32,60,6067542a4a25243f4d7d4fcf,16.81172222,17.22981424,24.23146377,31.16889423,30.96061086,24.23146377,,,,,,,,,,,,,,,,,,,,PF,strong,2,,,,,,,,7,1.824965,,,,,,,,,,,,,,,,,,,,,,,,,,,,1,strong,42,129,1,0,0,response1disk,4,167,-8,-1,1,0,0,rectangle,-8,-1,1,0,0,7,7,0.00012,-8,-1,1,0,0,0,4,4,135,1,0,,,,,,,,,,,,,,,,,,,,,
,,,,,,,,,,,,,,,,,,,,,,,,,,,,,,,,,,,,,,,,,,5ee0a607b1d0693f75003f64,606c0d64b01a49e7a3bd900a,2021-04-06_10h27.54.360,Colour_Similarity_Experiment,2020.2.10,Win32,60,6067542a4a25243f4d7d4fcf,16.81172222,17.22981424,24.23146377,31.16889423,30.96061086,24.23146377,,,,,,,,,,,,,,,,,,,,PF,strong,2,,,,,,,,3,1.89043,,,,,,,,,,,,,,,,,,,,,,,,,,,,7,strong,-39,-92,1,0,0,response5disk,5,168,-1,2,1,0,0,rectangle,-1,2,1,0,0,7,0,0.000625,-1,2,1,0,0,0,5,5,156,1,0,,,,,,,,,,,,,,,,,,,,,
,,,,,,,,,,,,,,,,,,,,,,,,,,,,,,,,,,,,,,,,,,5ee0a607b1d0693f75003f64,606c0d64b01a49e7a3bd900a,2021-04-06_10h27.54.360,Colour_Similarity_Experiment,2020.2.10,Win32,60,6067542a4a25243f4d7d4fcf,16.81172222,17.22981424,24.23146377,31.16889423,30.96061086,24.23146377,,,,,,,,,,,,,,,,,,,,PF,strong,2,,,,,,,,1,1.839355,,,,,,,,,,,,,,,,,,,,,,,,,,,,8,strong,-107,55,1,0,0,response7disk,8,169,22,-4,1,0,0,rectangle,22,-4,1,0,0,7,2,0.000575,22,-4,1,0,0,0,6,6,48,1,0,,,,,,,,,,,,,,,,,,,,,
,,,,,,,,,,,,,,,,,,,,,,,,,,,,,,,,,,,,,,,,,,5ee0a607b1d0693f75003f64,606c0d64b01a49e7a3bd900a,2021-04-06_10h27.54.360,Colour_Similarity_Experiment,2020.2.10,Win32,60,6067542a4a25243f4d7d4fcf,16.81172222,17.22981424,24.23146377,31.16889423,30.96061086,24.23146377,,,,,,,,,,,,,,,,,,,,PF,weak,2,,,,,,,,4,4.41056,,,,,,,,,,,,,,,,,,,,,,,,,,,,5,weak,50,-125,1,0,0,response3disk,3,170,0,-5,1,0,0,rectangle,0,-5,1,0,0,7,4,0.00057,0,-5,1,0,0,0,7,7,109,1,0,,,,,,,,,,,,,,,,,,,,,
,,,,,,,,,,,,,,,,,,,,,,,,,,,,,,,,,,,,,,,,,,5ee0a607b1d0693f75003f64,606c0d64b01a49e7a3bd900a,2021-04-06_10h27.54.360,Colour_Similarity_Experiment,2020.2.10,Win32,60,6067542a4a25243f4d7d4fcf,16.81172222,17.22981424,24.23146377,31.16889423,30.96061086,24.23146377,,,,,,,,,,,,,,,,,,,,PF,strong,2,,,,,,,,1,1.871085,,,,,,,,,,,,,,,,,,,,,,,,,,,,2,strong,-119,52,1,0,0,response7disk,2,171,9,1,1,0,0,rectangle,9,1,1,0,0,7,4,0.000115,9,1,1,0,0,0,8,8,142,1,0,,,,,,,,,,,,,,,,,,,,,
,,,,,,,,,,,,,,,,,,,,,,,,,,,,,,,,,,,,,,,,,,5ee0a607b1d0693f75003f64,606c0d64b01a49e7a3bd900a,2021-04-06_10h27.54.360,Colour_Similarity_Experiment,2020.2.10,Win32,60,6067542a4a25243f4d7d4fcf,16.81172222,17.22981424,24.23146377,31.16889423,30.96061086,24.23146377,,,,,,,,,,,,,,,,,,,,PF,weak,2,,,,,,,,7,1.55667,,,,,,,,,,,,,,,,,,,,,,,,,,,,7,weak,66,114,1,0,0,response1disk,8,172,7,4,1,0,0,rectangle,7,4,1,0,0,7,3,0.000555,7,4,1,0,0,0,9,9,140,1,0,,,,,,,,,,,,,,,,,,,,,
,,,,,,,,,,,,,,,,,,,,,,,,,,,,,,,,,,,,,,,,,,5ee0a607b1d0693f75003f64,606c0d64b01a49e7a3bd900a,2021-04-06_10h27.54.360,Colour_Similarity_Experiment,2020.2.10,Win32,60,6067542a4a25243f4d7d4fcf,16.81172222,17.22981424,24.23146377,31.16889423,30.96061086,24.23146377,,,,,,,,,,,,,,,,,,,,PF,strong,2,,,,,,,,6,2.90273,,,,,,,,,,,,,,,,,,,,,,,,,,,,9,strong,129,51,1,0,0,response1disk,1,173,13,-10,1,0,0,rectangle,13,-10,1,0,0,7,0,0.00146,13,-10,1,0,0,0,10,10,111,1,0,,,,,,,,,,,,,,,,,,,,,
,,,,,,,,,,,,,,,,,,,,,,,,,,,,,,,,,,,,,,,,,,5ee0a607b1d0693f75003f64,606c0d64b01a49e7a3bd900a,2021-04-06_10h27.54.360,Colour_Similarity_Experiment,2020.2.10,Win32,60,6067542a4a25243f4d7d4fcf,16.81172222,17.22981424,24.23146377,31.16889423,30.96061086,24.23146377,,,,,,,,,,,,,,,,,,,,PF,strong,2,,,,,,,,7,1.029565,,,,,,,,,,,,,,,,,,,,,,,,,,,,3,strong,60,113,1,0,0,response1disk,4,174,-5,-3,1,0,0,rectangle,-5,-3,1,0,0,7,7,0.000575,-5,-3,1,0,0,0,11,11,110,1,0,,,,,,,,,,,,,,,,,,,,,
,,,,,,,,,,,,,,,,,,,,,,,,,,,,,,,,,,,,,,,,,,5ee0a607b1d0693f75003f64,606c0d64b01a49e7a3bd900a,2021-04-06_10h27.54.360,Colour_Similarity_Experiment,2020.2.10,Win32,60,6067542a4a25243f4d7d4fcf,16.81172222,17.22981424,24.23146377,31.16889423,30.96061086,24.23146377,,,,,,,,,,,,,,,,,,,,PF,strong,2,,,,,,,,7,0.971095,,,,,,,,,,,,,,,,,,,,,,,,,,,,6,strong,61,98,1,0,0,response1disk,1,175,4,5,1,0,0,rectangle,4,5,1,0,0,7,1,0.00071,4,5,1,0,0,0,12,12,5,1,0,,,,,,,,,,,,,,,,,,,,,
,,,,,,,,,,,,,,,,,,,,,,,,,,,,,,,,,,,,,,,,,,5ee0a607b1d0693f75003f64,606c0d64b01a49e7a3bd900a,2021-04-06_10h27.54.360,Colour_Similarity_Experiment,2020.2.10,Win32,60,6067542a4a25243f4d7d4fcf,16.81172222,17.22981424,24.23146377,31.16889423,30.96061086,24.23146377,,,,,,,,,,,,,,,,,,,,PF,weak,2,,,,,,,,7,0.719095,,,,,,,,,,,,,,,,,,,,,,,,,,,,7,weak,52,112,1,0,0,response1disk,1,176,-22,-7,1,0,0,rectangle,-22,-7,1,0,0,7,4,0.00046,-22,-7,1,0,0,0,13,13,53,1,0,,,,,,,,,,,,,,,,,,,,,
,,,,,,,,,,,,,,,,,,,,,,,,,,,,,,,,,,,,,,,,,,5ee0a607b1d0693f75003f64,606c0d64b01a49e7a3bd900a,2021-04-06_10h27.54.360,Colour_Similarity_Experiment,2020.2.10,Win32,60,6067542a4a25243f4d7d4fcf,16.81172222,17.22981424,24.23146377,31.16889423,30.96061086,24.23146377,,,,,,,,,,,,,,,,,,,,PF,weak,2,,,,,,,,0,1.81554,,,,,,,,,,,,,,,,,,,,,,,,,,,,9,weak,-43,133,1,0,0,response7disk,9,177,-7,10,1,0,0,rectangle,-7,10,1,0,0,7,1,0.000475,-7,10,1,0,0,0,14,14,106,1,0,,,,,,,,,,,,,,,,,,,,,
,,,,,,,,,,,,,,,,,,,,,,,,,,,,,,,,,,,,,,,,,,5ee0a607b1d0693f75003f64,606c0d64b01a49e7a3bd900a,2021-04-06_10h27.54.360,Colour_Similarity_Experiment,2020.2.10,Win32,60,6067542a4a25243f4d7d4fcf,16.81172222,17.22981424,24.23146377,31.16889423,30.96061086,24.23146377,,,,,,,,,,,,,,,,,,,,PF,strong,2,,,,,,,,7,1.86809,,,,,,,,,,,,,,,,,,,,,,,,,,,,7,strong,53,122,1,0,0,response1disk,4,178,13,1,1,0,0,rectangle,13,1,1,0,0,7,2,0.000475,13,1,1,0,0,0,15,15,158,1,0,,,,,,,,,,,,,,,,,,,,,
,,,,,,,,,,,,,,,,,,,,,,,,,,,,,,,,,,,,,,,,,,5ee0a607b1d0693f75003f64,606c0d64b01a49e7a3bd900a,2021-04-06_10h27.54.360,Colour_Similarity_Experiment,2020.2.10,Win32,60,6067542a4a25243f4d7d4fcf,16.81172222,17.22981424,24.23146377,31.16889423,30.96061086,24.23146377,,,,,,,,,,,,,,,,,,,,PF,strong,2,,,,,,,,7,1.15649,,,,,,,,,,,,,,,,,,,,,,,,,,,,2,strong,52,125,1,0,0,response1disk,4,179,15,-12,1,0,0,rectangle,15,-12,1,0,0,7,4,0.000565,15,-12,1,0,0,0,16,16,145,1,0,,,,,,,,,,,,,,,,,,,,,
,,,,,,,,,,,,,,,,,,,,,,,,,,,,,,,,,,,,,,,,,,5ee0a607b1d0693f75003f64,606c0d64b01a49e7a3bd900a,2021-04-06_10h27.54.360,Colour_Similarity_Experiment,2020.2.10,Win32,60,6067542a4a25243f4d7d4fcf,16.81172222,17.22981424,24.23146377,31.16889423,30.96061086,24.23146377,,,,,,,,,,,,,,,,,,,,PF,strong,2,,,,,,,,7,1.339335,,,,,,,,,,,,,,,,,,,,,,,,,,,,6,strong,67,138,1,0,0,response1disk,4,180,14,-14,1,0,0,rectangle,14,-14,1,0,0,7,6,0.00059,14,-14,1,0,0,0,17,17,56,1,0,,,,,,,,,,,,,,,,,,,,,
,,,,,,,,,,,,,,,,,,,,,,,,,,,,,,,,,,,,,,,,,,5ee0a607b1d0693f75003f64,606c0d64b01a49e7a3bd900a,2021-04-06_10h27.54.360,Colour_Similarity_Experiment,2020.2.10,Win32,60,6067542a4a25243f4d7d4fcf,16.81172222,17.22981424,24.23146377,31.16889423,30.96061086,24.23146377,,,,,,,,,,,,,,,,,,,,PF,strong,2,,,,,,,,7,0.870915,,,,,,,,,,,,,,,,,,,,,,,,,,,,3,strong,61,131,1,0,0,response1disk,1,181,11,-2,1,0,0,rectangle,11,-2,1,0,0,7,0,0.00057,11,-2,1,0,0,0,18,18,125,1,0,,,,,,,,,,,,,,,,,,,,,
,,,,,,,,,,,,,,,,,,,,,,,,,,,,,,,,,,,,,,,,,,5ee0a607b1d0693f75003f64,606c0d64b01a49e7a3bd900a,2021-04-06_10h27.54.360,Colour_Similarity_Experiment,2020.2.10,Win32,60,6067542a4a25243f4d7d4fcf,16.81172222,17.22981424,24.23146377,31.16889423,30.96061086,24.23146377,,,,,,,,,,,,,,,,,,,,PF,strong,2,,,,,,,,7,1.154045,,,,,,,,,,,,,,,,,,,,,,,,,,,,1,strong,63,133,1,0,0,response1disk,5,182,-1,3,1,0,0,rectangle,-1,3,1,0,0,7,3,0.000495,-1,3,1,0,0,0,19,19,82,1,0,,,,,,,,,,,,,,,,,,,,,
,,,,,,,,,,,,,,,,,,,,,,,,,,,,,,,,,,,,,,,,,,5ee0a607b1d0693f75003f64,606c0d64b01a49e7a3bd900a,2021-04-06_10h27.54.360,Colour_Similarity_Experiment,2020.2.10,Win32,60,6067542a4a25243f4d7d4fcf,16.81172222,17.22981424,24.23146377,31.16889423,30.96061086,24.23146377,,,,,,,,,,,,,,,,,,,,PF,weak,2,,,,,,,,0,1.2776,,,,,,,,,,,,,,,,,,,,,,,,,,,,4,weak,-38,134,1,0,0,response7disk,4,183,-1,12,1,0,0,rectangle,-1,12,1,0,0,7,1,0.00048,-1,12,1,0,0,0,20,20,70,1,0,,,,,,,,,,,,,,,,,,,,,
,,,,,,,,,,,,,,,,,,,,,,,,,,,,,,,,,,,,,,,,,,5ee0a607b1d0693f75003f64,606c0d64b01a49e7a3bd900a,2021-04-06_10h27.54.360,Colour_Similarity_Experiment,2020.2.10,Win32,60,6067542a4a25243f4d7d4fcf,16.81172222,17.22981424,24.23146377,31.16889423,30.96061086,24.23146377,,,,,,,,,,,,,,,,,,,,PF,weak,2,,,,,,,,7,0.969015,,,,,,,,,,,,,,,,,,,,,,,,,,,,8,weak,52,116,1,0,0,response1disk,3,184,2,-4,1,0,0,rectangle,2,-4,1,0,0,7,7,0.000855,2,-4,1,0,0,0,21,21,71,1,0,,,,,,,,,,,,,,,,,,,,,
,,,,,,,,,,,,,,,,,,,,,,,,,,,,,,,,,,,,,,,,,,5ee0a607b1d0693f75003f64,606c0d64b01a49e7a3bd900a,2021-04-06_10h27.54.360,Colour_Similarity_Experiment,2020.2.10,Win32,60,6067542a4a25243f4d7d4fcf,16.81172222,17.22981424,24.23146377,31.16889423,30.96061086,24.23146377,,,,,,,,,,,,,,,,,,,,PF,weak,2,,,,,,,,2,2.75783,,,,,,,,,,,,,,,,,,,,,,,,,,,,5,weak,-110,-50,1,0,0,response5disk,6,185,-6,4,1,0,0,rectangle,-6,4,1,0,0,7,6,0.00082,-6,4,1,0,0,0,22,22,103,1,0,,,,,,,,,,,,,,,,,,,,,
,,,,,,,,,,,,,,,,,,,,,,,,,,,,,,,,,,,,,,,,,,5ee0a607b1d0693f75003f64,606c0d64b01a49e7a3bd900a,2021-04-06_10h27.54.360,Colour_Similarity_Experiment,2020.2.10,Win32,60,6067542a4a25243f4d7d4fcf,16.81172222,17.22981424,24.23146377,31.16889423,30.96061086,24.23146377,,,,,,,,,,,,,,,,,,,,PF,strong,2,,,,,,,,7,1.074975,,,,,,,,,,,,,,,,,,,,,,,,,,,,4,strong,77,132,1,0,0,response1disk,8,186,-14,-2,1,0,0,rectangle,-14,-2,1,0,0,7,1,0.00068,-14,-2,1,0,0,0,23,23,35,1,0,,,,,,,,,,,,,,,,,,,,,
,,,,,,,,,,,,,,,,,,,,,,,,,,,,,,,,,,,,,,,,,,5ee0a607b1d0693f75003f64,606c0d64b01a49e7a3bd900a,2021-04-06_10h27.54.360,Colour_Similarity_Experiment,2020.2.10,Win32,60,6067542a4a25243f4d7d4fcf,16.81172222,17.22981424,24.23146377,31.16889423,30.96061086,24.23146377,,,,,,,,,,,,,,,,,,,,PF,strong,2,,,,,,,,2,3.87357,,,,,,,,,,,,,,,,,,,,,,,,,,,,6,strong,-104,-41,1,0,0,response5disk,9,187,-24,11,1,0,0,rectangle,-89,-59,1,0,0,7,2,1.802995,2,1,1,0,0,0,24,24,160,1,1,response5disk_3,rectangle,,,,,,,,,,,,,,,,,,,
,,,,,,,,,,,,,,,,,,,,,,,,,,,,,,,,,,,,,,,,,,5ee0a607b1d0693f75003f64,606c0d64b01a49e7a3bd900a,2021-04-06_10h27.54.360,Colour_Similarity_Experiment,2020.2.10,Win32,60,6067542a4a25243f4d7d4fcf,16.81172222,17.22981424,24.23146377,31.16889423,30.96061086,24.23146377,,,,,,,,,,,,,,,,,,,,PF,weak,2,,,,,,,,2,4.339355,,,,,,,,,,,,,,,,,,,,,,,,,,,,3,weak,-105,-59,1,0,0,response5disk,2,188,0,-1,1,0,0,rectangle,53,122,1,0,0,7,7,1.775125,2,0,1,0,0,0,25,25,36,1,1,response1disk_3,rectangle,,,,,,,,,,,,,,,,,,,
,,,,,,,,,,,,,,,,,,,,,,,,,,,,,,,,,,,,,,,,,,5ee0a607b1d0693f75003f64,606c0d64b01a49e7a3bd900a,2021-04-06_10h27.54.360,Colour_Similarity_Experiment,2020.2.10,Win32,60,6067542a4a25243f4d7d4fcf,16.81172222,17.22981424,24.23146377,31.16889423,30.96061086,24.23146377,,,,,,,,,,,,,,,,,,,,PF,strong,2,,,,,,,,1,1.87163,,,,,,,,,,,,,,,,,,,,,,,,,,,,5,strong,-112,55,1,0,0,response7disk,5,189,-13,5,1,0,0,rectangle,-13,5,1,0,0,7,0,0.000495,-13,5,1,0,0,0,26,26,19,1,0,,,,,,,,,,,,,,,,,,,,,
,,,,,,,,,,,,,,,,,,,,,,,,,,,,,,,,,,,,,,,,,,5ee0a607b1d0693f75003f64,606c0d64b01a49e7a3bd900a,2021-04-06_10h27.54.360,Colour_Similarity_Experiment,2020.2.10,Win32,60,6067542a4a25243f4d7d4fcf,16.81172222,17.22981424,24.23146377,31.16889423,30.96061086,24.23146377,,,,,,,,,,,,,,,,,,,,PF,weak,2,,,,,,,,3,2.185355,,,,,,,,,,,,,,,,,,,,,,,,,,,,9,weak,-39,-111,1,0,0,response5disk,1,190,4,4,1,0,0,rectangle,4,4,1,0,0,7,2,0.000635,4,4,1,0,0,0,27,27,74,1,0,,,,,,,,,,,,,,,,,,,,,
,,,,,,,,,,,,,,,,,,,,,,,,,,,,,,,,,,,,,,,,,,5ee0a607b1d0693f75003f64,606c0d64b01a49e7a3bd900a,2021-04-06_10h27.54.360,Colour_Similarity_Experiment,2020.2.10,Win32,60,6067542a4a25243f4d7d4fcf,16.81172222,17.22981424,24.23146377,31.16889423,30.96061086,24.23146377,,,,,,,,,,,,,,,,,,,,PF,strong,2,,,,,,,,7,1.092905,,,,,,,,,,,,,,,,,,,,,,,,,,,,1,strong,59,98,1,0,0,response1disk,6,191,5,5,1,0,0,rectangle,5,5,1,0,0,7,1,0.00048,5,5,1,0,0,0,28,28,58,1,0,,,,,,,,,,,,,,,,,,,,,
,,,,,,,,,,,,,,,,,,,,,,,,,,,,,,,,,,,,,,,,,,5ee0a607b1d0693f75003f64,606c0d64b01a49e7a3bd900a,2021-04-06_10h27.54.360,Colour_Similarity_Experiment,2020.2.10,Win32,60,6067542a4a25243f4d7d4fcf,16.81172222,17.22981424,24.23146377,31.16889423,30.96061086,24.23146377,,,,,,,,,,,,,,,,,,,,PF,weak,2,,,,,,,,7,0.90383,,,,,,,,,,,,,,,,,,,,,,,,,,,,8,weak,50,128,1,0,0,response1disk,1,192,-4,-6,1,0,0,rectangle,-4,-6,1,0,0,7,5,0.00059,-4,-6,1,0,0,0,29,29,57,1,0,,,,,,,,,,,,,,,,,,,,,
,,,,,,,,,,,,,,,,,,,,,,,,,,,,,,,,,,,,,,,,,,5ee0a607b1d0693f75003f64,606c0d64b01a49e7a3bd900a,2021-04-06_10h27.54.360,Colour_Similarity_Experiment,2020.2.10,Win32,60,6067542a4a25243f4d7d4fcf,16.81172222,17.22981424,24.23146377,31.16889423,30.96061086,24.23146377,,,,,,,,,,,,,,,,,,,,PF,strong,2,,,,,,,,7,0.8105,,,,,,,,,,,,,,,,,,,,,,,,,,,,8,strong,43,123,1,0,0,response1disk,4,193,3,12,1,0,0,rectangle,3,12,1,0,0,7,1,0.000575,3,12,1,0,0,0,30,30,88,1,0,,,,,,,,,,,,,,,,,,,,,
,,,,,,,,,,,,,,,,,,,,,,,,,,,,,,,,,,,,,,,,,,5ee0a607b1d0693f75003f64,606c0d64b01a49e7a3bd900a,2021-04-06_10h27.54.360,Colour_Similarity_Experiment,2020.2.10,Win32,60,6067542a4a25243f4d7d4fcf,16.81172222,17.22981424,24.23146377,31.16889423,30.96061086,24.23146377,,,,,,,,,,,,,,,,,,,,PF,weak,2,,,,,,,,7,0.71538,,,,,,,,,,,,,,,,,,,,,,,,,,,,7,weak,56,118,1,0,0,response1disk,3,194,1,7,1,0,0,rectangle,1,7,1,0,0,7,6,0.00063,1,7,1,0,0,0,31,31,81,1,0,,,,,,,,,,,,,,,,,,,,,
