key_resp.keys,key_resp.rt,key_resp_16.keys,key_resp_16.rt,key_resp_2.keys,key_resp_2.rt,X Scale,ratio_pxpermm,screen_size_x,screen_size_y,testsize,key_resp_3.keys,key_resp_4.keys,key_resp_4.rt,line_size,key_resp_5.keys,key_resp_5.rt,key_resp_6.keys,key_resp_6.rt,key_resp_8.keys,key_resp_8.rt,key_resp_7.keys,key_resp_7.rt,key_resp_12.keys,key_resp_12.rt,key_resp_11.keys,key_resp_11.rt,key_resp_18.keys,key_resp_18.rt,key_resp_21.keys,key_resp_21.rt,key_resp_13.keys,key_resp_13.rt,key_resp_19.keys,key_resp_19.rt,ballposx,viewer_distance,trials.thisRepN,trials.thisTrialN,trials.thisN,trials.thisIndex,trials.ran,participant,session,date,expName,psychopyVersion,OS,frameRate,study_id,realFrameRate1,realFrameRate2,realFrameRate3,realFrameRate4,realFrameRate5,realFrameRate,viewerdistancecm,DVA_to_distance,radius_F,radius_P,r_F,R_P,key_resp_20.keys,key_resp_20.rt,key_resp_14.keys,key_resp_14.rt,key_resp_15.keys,key_resp_15.rt,key_resp_17.keys,key_resp_17.rt,key_resp_9.keys,key_resp_9.rt,key_resp_10.keys,key_resp_10.rt,Colour_1,Ecc,maskCon,mask_frames,mouse_5.x,mouse_5.y,mouse_5.leftButton,mouse_5.midButton,mouse_5.rightButton,mouse_5.clicked_name,Colour_2,similarity,response_time,mouse_10.x,mouse_10.y,mouse_10.leftButton,mouse_10.midButton,mouse_10.rightButton,mouse_10.clicked_name,mouse_7.x,mouse_7.y,mouse_7.leftButton,mouse_7.midButton,mouse_7.rightButton,catchnumberprac,mouse_6.x,mouse_6.y,mouse_6.leftButton,mouse_6.midButton,mouse_6.rightButton,duringprac.thisRepN,duringprac.thisTrialN,duringprac.thisN,duringprac.thisIndex,duringprac.ran,mouse_7.clicked_name,mouse_6.clicked_name,key_resp_22.keys,key_resp_22.rt,Colour1,maskCon1,mouse.x,mouse.y,mouse.leftButton,mouse.midButton,mouse.rightButton,mouse.clicked_name,Colour2,trialnumber,mouse_2.x,mouse_2.y,mouse_2.leftButton,mouse_2.midButton,mouse_2.rightButton,mouse_2.clicked_name,mouse_3.x,mouse_3.y,mouse_3.leftButton,mouse_3.midButton,mouse_3.rightButton,catchresponse,catchnumber,response_time_catch,mouse_11.x,mouse_11.y,mouse_11.leftButton,mouse_11.midButton,mouse_11.rightButton,trials_2.thisRepN,trials_2.thisTrialN,trials_2.thisN,trials_2.thisIndex,trials_2.ran,Catch,mouse_3.clicked_name,mouse_11.clicked_name,trials_3.thisRepN,trials_3.thisTrialN,trials_3.thisN,trials_3.thisIndex,trials_3.ran,answer1,rt1,answer2,rt2,answer3,rt3,answer4,rt4,answer5,rt5,answer6,rt6,answer7,rt7
space,2.681465,space,12.267665,space,5.54886,44.7,4.47,572.7069351,322.147651,2560,,space,14.039345,89.4,space,8.7291,space,2.733715,space,2.5814,space,5.855375,space,8.518525,space,7.553315,space,13.217305,space,11.45141,space,13.054695,return,9.68644,-1278.72,2145.754507,0,0,0,0,1,5f2e0553d21e3216a80457b2,606c0d6d674faaea52a59aa4,2021-04-06_02h28.03.825,Colour_Similarity_Experiment,2020.2.10,MacIntel,60,6067542a4a25243f4d7d4fcf,17.18870438,16.66973577,16.66969231,16.66722156,16.66647833,16.66969231,,,,,,,,,,,,,,,,,,,,,,,,,,,,,,,,,,,,,,,,,,,,,,,,,,,,,,,,,,,,,,,,,,,,,,,,,,,,,,,,,,,,,,,,,,,,,,,,,,,,,,,,,,,,,,,,,
,,,,,,,,,,,,,,,,,,,,,,,,,,,,,,,,,return,8.930825,-1102.08,1981.155217,1,0,1,0,1,5f2e0553d21e3216a80457b2,606c0d6d674faaea52a59aa4,2021-04-06_02h28.03.825,Colour_Similarity_Experiment,2020.2.10,MacIntel,60,6067542a4a25243f4d7d4fcf,17.18870438,16.66973577,16.66969231,16.66722156,16.66647833,16.66969231,,,,,,,,,,,,,,,,,,,,,,,,,,,,,,,,,,,,,,,,,,,,,,,,,,,,,,,,,,,,,,,,,,,,,,,,,,,,,,,,,,,,,,,,,,,,,,,,,,,,,,,,,,,,,,,,,
,,,,,,,,,,,,,,,,,,,,,,,,,,,,,,,,,return,8.832475,-1079.04,1959.685745,2,0,2,0,1,5f2e0553d21e3216a80457b2,606c0d6d674faaea52a59aa4,2021-04-06_02h28.03.825,Colour_Similarity_Experiment,2020.2.10,MacIntel,60,6067542a4a25243f4d7d4fcf,17.18870438,16.66973577,16.66969231,16.66722156,16.66647833,16.66969231,,,,,,,,,,,,,,,,,,,,,,,,,,,,,,,,,,,,,,,,,,,,,,,,,,,,,,,,,,,,,,,,,,,,,,,,,,,,,,,,,,,,,,,,,,,,,,,,,,,,,,,,,,,,,,,,,
,,,,,,,,,,,,,,,,,,,,,,,,,,,,,,,,,return,8.332525,-963.84,1852.338382,3,0,3,0,1,5f2e0553d21e3216a80457b2,606c0d6d674faaea52a59aa4,2021-04-06_02h28.03.825,Colour_Similarity_Experiment,2020.2.10,MacIntel,60,6067542a4a25243f4d7d4fcf,17.18870438,16.66973577,16.66969231,16.66722156,16.66647833,16.66969231,,,,,,,,,,,,,,,,,,,,,,,,,,,,,,,,,,,,,,,,,,,,,,,,,,,,,,,,,,,,,,,,,,,,,,,,,,,,,,,,,,,,,,,,,,,,,,,,,,,,,,,,,,,,,,,,,
,,,,,,,,,,,,,,,,,,,,,,,,,,,,,,,,,return,8.801975,-1071.36,1952.529254,4,0,4,0,1,5f2e0553d21e3216a80457b2,606c0d6d674faaea52a59aa4,2021-04-06_02h28.03.825,Colour_Similarity_Experiment,2020.2.10,MacIntel,60,6067542a4a25243f4d7d4fcf,17.18870438,16.66973577,16.66969231,16.66722156,16.66647833,16.66969231,,,,,,,,,,,,,,,,,,,,,,,,,,,,,,,,,,,,,,,,,,,,,,,,,,,,,,,,,,,,,,,,,,,,,,,,,,,,,,,,,,,,,,,,,,,,,,,,,,,,,,,,,,,,,,,,,
,,,,,,,,,,,,,,,,,,,,,,,,,,,,,,,,,,,,,,,,,,5f2e0553d21e3216a80457b2,606c0d6d674faaea52a59aa4,2021-04-06_02h28.03.825,Colour_Similarity_Experiment,2020.2.10,MacIntel,60,6067542a4a25243f4d7d4fcf,17.18870438,16.66973577,16.66969231,16.66722156,16.66647833,16.66969231,196,34.21191502,229.3908902,1529.272602,152.9272602,688.1726707,space,5.65199,space,18.750595,space,35.14216,space,10.28353,space,3.283655,space,4.385285,1,PF,strong,3,126.8867188,59.49609375,1,0,0,response1disk_5,4,6,10.79045,-6.60546875,-7.046875,1,0,0,rectangle_8,-6.60546875,-7.046875,1,0,0,2,-6.60546875,-7.046875,1,0,0,0,0,0,3,1,,,,,,,,,,,,,,,,,,,,,,,,,,,,,,,,,,,,,,,,,,,,,,,,,,,,,,,,,,,,
,,,,,,,,,,,,,,,,,,,,,,,,,,,,,,,,,,,,,,,,,,5f2e0553d21e3216a80457b2,606c0d6d674faaea52a59aa4,2021-04-06_02h28.03.825,Colour_Similarity_Experiment,2020.2.10,MacIntel,60,6067542a4a25243f4d7d4fcf,17.18870438,16.66973577,16.66969231,16.66722156,16.66647833,16.66969231,,,,,,,,,,,,,,,,,,,6,PF,strong,3,112.0039063,-56.55078125,1,0,0,response3disk_5,2,5,18.77934,35.71875,12.234375,1,0,0,rectangle_8,35.71875,12.234375,1,0,0,2,35.71875,12.234375,1,0,0,0,1,1,0,1,,,,,,,,,,,,,,,,,,,,,,,,,,,,,,,,,,,,,,,,,,,,,,,,,,,,,,,,,,,,
,,,,,,,,,,,,,,,,,,,,,,,,,,,,,,,,,,,,,,,,,,5f2e0553d21e3216a80457b2,606c0d6d674faaea52a59aa4,2021-04-06_02h28.03.825,Colour_Similarity_Experiment,2020.2.10,MacIntel,60,6067542a4a25243f4d7d4fcf,17.18870438,16.66973577,16.66969231,16.66722156,16.66647833,16.66969231,,,,,,,,,,,,,,,,,,,5,PF,weak,3,-74.3046875,-61.1015625,1,0,0,response5disk_5,7,2,3.07967,0.55078125,-23.26171875,1,0,0,rectangle_8,0.55078125,-23.26171875,1,0,0,2,0.55078125,-23.26171875,1,0,0,0,2,2,5,1,,,,,,,,,,,,,,,,,,,,,,,,,,,,,,,,,,,,,,,,,,,,,,,,,,,,,,,,,,,,
,,,,,,,,,,,,,,,,,,,,,,,,,,,,,,,,,,,,,,,,,,5f2e0553d21e3216a80457b2,606c0d6d674faaea52a59aa4,2021-04-06_02h28.03.825,Colour_Similarity_Experiment,2020.2.10,MacIntel,60,6067542a4a25243f4d7d4fcf,17.18870438,16.66973577,16.66969231,16.66722156,16.66647833,16.66969231,,,,,,,,,,,,,,,,,,,4,PF,weak,3,-125.2460938,-59.796875,1,0,0,response5disk_5,5,2,1.842235,-18.109375,-1.88671875,1,0,0,rectangle_8,-18.109375,-1.88671875,1,0,0,2,-18.109375,-1.88671875,1,0,0,0,3,3,4,1,,,,,,,,,,,,,,,,,,,,,,,,,,,,,,,,,,,,,,,,,,,,,,,,,,,,,,,,,,,,
,,,,,,,,,,,,,,,,,,,,,,,,,,,,,,,,,,,,,,,,,,5f2e0553d21e3216a80457b2,606c0d6d674faaea52a59aa4,2021-04-06_02h28.03.825,Colour_Similarity_Experiment,2020.2.10,MacIntel,60,6067542a4a25243f4d7d4fcf,17.18870438,16.66973577,16.66969231,16.66722156,16.66647833,16.66969231,,,,,,,,,,,,,,,,,,,5,PF,weak,3,89.3359375,-68.42578125,1,0,0,response3disk_5,1,5,2.182595,21.6171875,5.1796875,1,0,0,rectangle_8,21.6171875,5.1796875,1,0,0,2,21.6171875,5.1796875,1,0,0,0,4,4,6,1,,,,,,,,,,,,,,,,,,,,,,,,,,,,,,,,,,,,,,,,,,,,,,,,,,,,,,,,,,,,
,,,,,,,,,,,,,,,,,,,,,,,,,,,,,,,,,,,,,,,,,,5f2e0553d21e3216a80457b2,606c0d6d674faaea52a59aa4,2021-04-06_02h28.03.825,Colour_Similarity_Experiment,2020.2.10,MacIntel,60,6067542a4a25243f4d7d4fcf,17.18870438,16.66973577,16.66969231,16.66722156,16.66647833,16.66969231,,,,,,,,,,,,,,,,,,,4,PF,strong,3,-41.90234375,-106.0351563,1,0,0,response5disk_5,5,3,1.966695,-38.69140625,10.4921875,1,0,0,rectangle_8,-116.3164063,-51.96875,1,0,0,2,-20.09765625,-13.1953125,1,0,0,0,5,5,2,1,response5disk_7,rectangle_4,,,,,,,,,,,,,,,,,,,,,,,,,,,,,,,,,,,,,,,,,,,,,,,,,,,,,,,,,,
,,,,,,,,,,,,,,,,,,,,,,,,,,,,,,,,,,,,,,,,,,5f2e0553d21e3216a80457b2,606c0d6d674faaea52a59aa4,2021-04-06_02h28.03.825,Colour_Similarity_Experiment,2020.2.10,MacIntel,60,6067542a4a25243f4d7d4fcf,17.18870438,16.66973577,16.66969231,16.66722156,16.66647833,16.66969231,,,,,,,,,,,,,,,,,,,2,PF,weak,3,31.4609375,-132.3476563,1,0,0,response3disk_5,4,4,2.00842,-13.60546875,15.27734375,1,0,0,rectangle_8,-13.60546875,15.27734375,1,0,0,2,-13.60546875,15.27734375,1,0,0,0,6,6,1,1,,,,,,,,,,,,,,,,,,,,,,,,,,,,,,,,,,,,,,,,,,,,,,,,,,,,,,,,,,,,
,,,,,,,,,,,,,,,,,,,,,,,,,,,,,,,,,,,,,,,,,,5f2e0553d21e3216a80457b2,606c0d6d674faaea52a59aa4,2021-04-06_02h28.03.825,Colour_Similarity_Experiment,2020.2.10,MacIntel,60,6067542a4a25243f4d7d4fcf,17.18870438,16.66973577,16.66969231,16.66722156,16.66647833,16.66969231,,,,,,,,,,,,,,,,,,,,PF,strong,3,,,,,,,,6,3.098015,,,,,,,,,,,,,,,,,,,,,,,,,space,2.738405,4,strong,77.80859375,36.80859375,1,0,0,response1disk,1,1,13.390625,2.6875,1,0,0,rectangle,13.390625,2.6875,1,0,0,,3,0.00125,13.390625,2.6875,1,0,0,0,0,0,102,1,0,,,,,,,,,,,,,,,,,,,,,
,,,,,,,,,,,,,,,,,,,,,,,,,,,,,,,,,,,,,,,,,,5f2e0553d21e3216a80457b2,606c0d6d674faaea52a59aa4,2021-04-06_02h28.03.825,Colour_Similarity_Experiment,2020.2.10,MacIntel,60,6067542a4a25243f4d7d4fcf,17.18870438,16.66973577,16.66969231,16.66722156,16.66647833,16.66969231,,,,,,,,,,,,,,,,,,,,PF,weak,3,,,,,,,,6,2.21198,,,,,,,,,,,,,,,,,,,,,,,,,,,1,weak,98.421875,34.8828125,1,0,0,response1disk,4,2,-38.02734375,14.046875,1,0,0,rectangle,-38.02734375,14.046875,1,0,0,,7,0.000825,-38.02734375,14.046875,1,0,0,0,1,1,139,1,0,,,,,,,,,,,,,,,,,,,,,
,,,,,,,,,,,,,,,,,,,,,,,,,,,,,,,,,,,,,,,,,,5f2e0553d21e3216a80457b2,606c0d6d674faaea52a59aa4,2021-04-06_02h28.03.825,Colour_Similarity_Experiment,2020.2.10,MacIntel,60,6067542a4a25243f4d7d4fcf,17.18870438,16.66973577,16.66969231,16.66722156,16.66647833,16.66969231,,,,,,,,,,,,,,,,,,,,PF,strong,3,,,,,,,,3,1.907155,,,,,,,,,,,,,,,,,,,,,,,,,,,5,strong,-54.796875,-127.4609375,1,0,0,response5disk,6,3,30.515625,8.25,1,0,0,rectangle,30.515625,8.25,1,0,0,,7,0.00016,30.515625,8.25,1,0,0,0,2,2,12,1,0,,,,,,,,,,,,,,,,,,,,,
,,,,,,,,,,,,,,,,,,,,,,,,,,,,,,,,,,,,,,,,,,5f2e0553d21e3216a80457b2,606c0d6d674faaea52a59aa4,2021-04-06_02h28.03.825,Colour_Similarity_Experiment,2020.2.10,MacIntel,60,6067542a4a25243f4d7d4fcf,17.18870438,16.66973577,16.66969231,16.66722156,16.66647833,16.66969231,,,,,,,,,,,,,,,,,,,,PF,weak,3,,,,,,,,5,1.4945,,,,,,,,,,,,,,,,,,,,,,,,,,,1,weak,81.6875,-58.234375,1,0,0,response3disk,7,4,19.4375,-15.9140625,1,0,0,rectangle,19.4375,-15.9140625,1,0,0,,7,0.00011,19.4375,-15.9140625,1,0,0,0,3,3,150,1,0,,,,,,,,,,,,,,,,,,,,,
,,,,,,,,,,,,,,,,,,,,,,,,,,,,,,,,,,,,,,,,,,5f2e0553d21e3216a80457b2,606c0d6d674faaea52a59aa4,2021-04-06_02h28.03.825,Colour_Similarity_Experiment,2020.2.10,MacIntel,60,6067542a4a25243f4d7d4fcf,17.18870438,16.66973577,16.66969231,16.66722156,16.66647833,16.66969231,,,,,,,,,,,,,,,,,,,,PF,weak,3,,,,,,,,2,2.942245,,,,,,,,,,,,,,,,,,,,,,,,,,,8,weak,-128.9726563,-92.41796875,1,0,0,response5disk,9,5,20.0703125,-0.80859375,1,0,0,rectangle,20.0703125,-0.80859375,1,0,0,,6,0.00078,20.0703125,-0.80859375,1,0,0,0,4,4,42,1,0,,,,,,,,,,,,,,,,,,,,,
,,,,,,,,,,,,,,,,,,,,,,,,,,,,,,,,,,,,,,,,,,5f2e0553d21e3216a80457b2,606c0d6d674faaea52a59aa4,2021-04-06_02h28.03.825,Colour_Similarity_Experiment,2020.2.10,MacIntel,60,6067542a4a25243f4d7d4fcf,17.18870438,16.66973577,16.66969231,16.66722156,16.66647833,16.66969231,,,,,,,,,,,,,,,,,,,,PF,strong,3,,,,,,,,4,2.160275,,,,,,,,,,,,,,,,,,,,,,,,,,,1,strong,72.68359375,-127.9023438,1,0,0,response3disk,9,6,17.2734375,-18.22265625,1,0,0,rectangle,17.2734375,-18.22265625,1,0,0,,7,0.00078,17.2734375,-18.22265625,1,0,0,0,5,5,123,1,0,,,,,,,,,,,,,,,,,,,,,
,,,,,,,,,,,,,,,,,,,,,,,,,,,,,,,,,,,,,,,,,,5f2e0553d21e3216a80457b2,606c0d6d674faaea52a59aa4,2021-04-06_02h28.03.825,Colour_Similarity_Experiment,2020.2.10,MacIntel,60,6067542a4a25243f4d7d4fcf,17.18870438,16.66973577,16.66969231,16.66722156,16.66647833,16.66969231,,,,,,,,,,,,,,,,,,,,PF,weak,3,,,,,,,,5,1.895015,,,,,,,,,,,,,,,,,,,,,,,,,,,5,weak,103.8789063,-86.34765625,1,0,0,response3disk,9,7,19.44140625,9.859375,1,0,0,rectangle,49.8359375,-94.16796875,1,0,0,4,4,2.76717,0.05078125,1.11328125,1,0,0,0,6,6,136,1,1,response3disk_3,rectangle,,,,,,,,,,,,,,,,,,,
,,,,,,,,,,,,,,,,,,,,,,,,,,,,,,,,,,,,,,,,,,5f2e0553d21e3216a80457b2,606c0d6d674faaea52a59aa4,2021-04-06_02h28.03.825,Colour_Similarity_Experiment,2020.2.10,MacIntel,60,6067542a4a25243f4d7d4fcf,17.18870438,16.66973577,16.66969231,16.66722156,16.66647833,16.66969231,,,,,,,,,,,,,,,,,,,,PF,strong,3,,,,,,,,4,2.11184,,,,,,,,,,,,,,,,,,,,,,,,,,,3,strong,40.8671875,-103.859375,1,0,0,response3disk,9,8,13.453125,-10.80859375,1,0,0,rectangle,13.453125,-10.80859375,1,0,0,4,3,0.000855,13.453125,-10.80859375,1,0,0,0,7,7,143,1,0,,,,,,,,,,,,,,,,,,,,,
,,,,,,,,,,,,,,,,,,,,,,,,,,,,,,,,,,,,,,,,,,5f2e0553d21e3216a80457b2,606c0d6d674faaea52a59aa4,2021-04-06_02h28.03.825,Colour_Similarity_Experiment,2020.2.10,MacIntel,60,6067542a4a25243f4d7d4fcf,17.18870438,16.66973577,16.66969231,16.66722156,16.66647833,16.66969231,,,,,,,,,,,,,,,,,,,,PF,strong,3,,,,,,,,1,1.794545,,,,,,,,,,,,,,,,,,,,,,,,,,,1,strong,-123.5039063,38.5859375,1,0,0,response7disk,7,9,10.14453125,-20.37890625,1,0,0,rectangle,10.14453125,-20.37890625,1,0,0,4,7,0.00091,10.14453125,-20.37890625,1,0,0,0,8,8,137,1,0,,,,,,,,,,,,,,,,,,,,,
,,,,,,,,,,,,,,,,,,,,,,,,,,,,,,,,,,,,,,,,,,5f2e0553d21e3216a80457b2,606c0d6d674faaea52a59aa4,2021-04-06_02h28.03.825,Colour_Similarity_Experiment,2020.2.10,MacIntel,60,6067542a4a25243f4d7d4fcf,17.18870438,16.66973577,16.66969231,16.66722156,16.66647833,16.66969231,,,,,,,,,,,,,,,,,,,,PF,weak,3,,,,,,,,2,1.693245,,,,,,,,,,,,,,,,,,,,,,,,,,,8,weak,-120.4179688,-79.34765625,1,0,0,response5disk,1,10,3.2578125,-13.46484375,1,0,0,rectangle,3.2578125,-13.46484375,1,0,0,4,6,0.00084,3.2578125,-13.46484375,1,0,0,0,9,9,57,1,0,,,,,,,,,,,,,,,,,,,,,
,,,,,,,,,,,,,,,,,,,,,,,,,,,,,,,,,,,,,,,,,,5f2e0553d21e3216a80457b2,606c0d6d674faaea52a59aa4,2021-04-06_02h28.03.825,Colour_Similarity_Experiment,2020.2.10,MacIntel,60,6067542a4a25243f4d7d4fcf,17.18870438,16.66973577,16.66969231,16.66722156,16.66647833,16.66969231,,,,,,,,,,,,,,,,,,,,PF,weak,3,,,,,,,,5,3.378025,,,,,,,,,,,,,,,,,,,,,,,,,,,8,weak,94.5,-80.99609375,1,0,0,response3disk,2,11,-21.05078125,2.1484375,1,0,0,rectangle,-21.05078125,2.1484375,1,0,0,4,1,0.00073,-21.05078125,2.1484375,1,0,0,0,10,10,83,1,0,,,,,,,,,,,,,,,,,,,,,
,,,,,,,,,,,,,,,,,,,,,,,,,,,,,,,,,,,,,,,,,,5f2e0553d21e3216a80457b2,606c0d6d674faaea52a59aa4,2021-04-06_02h28.03.825,Colour_Similarity_Experiment,2020.2.10,MacIntel,60,6067542a4a25243f4d7d4fcf,17.18870438,16.66973577,16.66969231,16.66722156,16.66647833,16.66969231,,,,,,,,,,,,,,,,,,,,PF,weak,3,,,,,,,,2,1.178945,,,,,,,,,,,,,,,,,,,,,,,,,,,6,weak,-94.06640625,-36.421875,1,0,0,response5disk,4,12,-20.73046875,-7.19921875,1,0,0,rectangle,-20.73046875,-7.19921875,1,0,0,4,3,0.000765,-20.73046875,-7.19921875,1,0,0,0,11,11,33,1,0,,,,,,,,,,,,,,,,,,,,,
,,,,,,,,,,,,,,,,,,,,,,,,,,,,,,,,,,,,,,,,,,5f2e0553d21e3216a80457b2,606c0d6d674faaea52a59aa4,2021-04-06_02h28.03.825,Colour_Similarity_Experiment,2020.2.10,MacIntel,60,6067542a4a25243f4d7d4fcf,17.18870438,16.66973577,16.66969231,16.66722156,16.66647833,16.66969231,,,,,,,,,,,,,,,,,,,,PF,weak,3,,,,,,,,5,2.347185,,,,,,,,,,,,,,,,,,,,,,,,,,,8,weak,98.484375,-80.4453125,1,0,0,response3disk,5,13,-14.31640625,8.69140625,1,0,0,rectangle,-14.31640625,8.69140625,1,0,0,4,2,0.000835,-14.31640625,8.69140625,1,0,0,0,12,12,98,1,0,,,,,,,,,,,,,,,,,,,,,
,,,,,,,,,,,,,,,,,,,,,,,,,,,,,,,,,,,,,,,,,,5f2e0553d21e3216a80457b2,606c0d6d674faaea52a59aa4,2021-04-06_02h28.03.825,Colour_Similarity_Experiment,2020.2.10,MacIntel,60,6067542a4a25243f4d7d4fcf,17.18870438,16.66973577,16.66969231,16.66722156,16.66647833,16.66969231,,,,,,,,,,,,,,,,,,,,PF,strong,3,,,,,,,,3,1.678455,,,,,,,,,,,,,,,,,,,,,,,,,,,5,strong,-59.0625,-80.7421875,1,0,0,response5disk,8,14,-20.82421875,-16.6796875,1,0,0,rectangle,-20.82421875,-16.6796875,1,0,0,4,0,0.000855,-20.82421875,-16.6796875,1,0,0,0,13,13,16,1,0,,,,,,,,,,,,,,,,,,,,,
,,,,,,,,,,,,,,,,,,,,,,,,,,,,,,,,,,,,,,,,,,5f2e0553d21e3216a80457b2,606c0d6d674faaea52a59aa4,2021-04-06_02h28.03.825,Colour_Similarity_Experiment,2020.2.10,MacIntel,60,6067542a4a25243f4d7d4fcf,17.18870438,16.66973577,16.66969231,16.66722156,16.66647833,16.66969231,,,,,,,,,,,,,,,,,,,,PF,strong,3,,,,,,,,2,1.828145,,,,,,,,,,,,,,,,,,,,,,,,,,,8,strong,-119.78125,-28.54296875,1,0,0,response5disk,9,15,-26.04296875,-7.03125,1,0,0,rectangle,-26.04296875,-7.03125,1,0,0,4,2,0.00087,-26.04296875,-7.03125,1,0,0,0,14,14,105,1,0,,,,,,,,,,,,,,,,,,,,,
,,,,,,,,,,,,,,,,,,,,,,,,,,,,,,,,,,,,,,,,,,5f2e0553d21e3216a80457b2,606c0d6d674faaea52a59aa4,2021-04-06_02h28.03.825,Colour_Similarity_Experiment,2020.2.10,MacIntel,60,6067542a4a25243f4d7d4fcf,17.18870438,16.66973577,16.66969231,16.66722156,16.66647833,16.66969231,,,,,,,,,,,,,,,,,,,,PF,strong,3,,,,,,,,6,3.143985,,,,,,,,,,,,,,,,,,,,,,,,,,,1,strong,71.26953125,28.65625,1,0,0,response1disk,5,16,-12.80859375,-2.09765625,1,0,0,rectangle,-12.80859375,-2.09765625,1,0,0,4,5,0.00078,-12.80859375,-2.09765625,1,0,0,0,15,15,82,1,0,,,,,,,,,,,,,,,,,,,,,
,,,,,,,,,,,,,,,,,,,,,,,,,,,,,,,,,,,,,,,,,,5f2e0553d21e3216a80457b2,606c0d6d674faaea52a59aa4,2021-04-06_02h28.03.825,Colour_Similarity_Experiment,2020.2.10,MacIntel,60,6067542a4a25243f4d7d4fcf,17.18870438,16.66973577,16.66969231,16.66722156,16.66647833,16.66969231,,,,,,,,,,,,,,,,,,,,PF,weak,3,,,,,,,,1,3.777125,,,,,,,,,,,,,,,,,,,,,,,,,,,4,weak,-128.1953125,35.84765625,1,0,0,response7disk,3,17,2.83984375,13.3359375,1,0,0,rectangle,2.83984375,13.3359375,1,0,0,4,1,0.000765,2.83984375,13.3359375,1,0,0,0,16,16,89,1,0,,,,,,,,,,,,,,,,,,,,,
,,,,,,,,,,,,,,,,,,,,,,,,,,,,,,,,,,,,,,,,,,5f2e0553d21e3216a80457b2,606c0d6d674faaea52a59aa4,2021-04-06_02h28.03.825,Colour_Similarity_Experiment,2020.2.10,MacIntel,60,6067542a4a25243f4d7d4fcf,17.18870438,16.66973577,16.66969231,16.66722156,16.66647833,16.66969231,,,,,,,,,,,,,,,,,,,,PF,strong,3,,,,,,,,4,2.06036,,,,,,,,,,,,,,,,,,,,,,,,,,,2,strong,57.7265625,-111.390625,1,0,0,response3disk,7,18,-23.01171875,11.13671875,1,0,0,rectangle,-23.01171875,11.13671875,1,0,0,4,5,0.00082,-23.01171875,11.13671875,1,0,0,0,17,17,63,1,0,,,,,,,,,,,,,,,,,,,,,
,,,,,,,,,,,,,,,,,,,,,,,,,,,,,,,,,,,,,,,,,,5f2e0553d21e3216a80457b2,606c0d6d674faaea52a59aa4,2021-04-06_02h28.03.825,Colour_Similarity_Experiment,2020.2.10,MacIntel,60,6067542a4a25243f4d7d4fcf,17.18870438,16.66973577,16.66969231,16.66722156,16.66647833,16.66969231,,,,,,,,,,,,,,,,,,,,PF,weak,3,,,,,,,,5,3.61149,,,,,,,,,,,,,,,,,,,,,,,,,,,2,weak,91.14453125,-61.44140625,1,0,0,response3disk,8,19,-27.00390625,0.2890625,1,0,0,rectangle,-27.00390625,0.2890625,1,0,0,4,6,0.000755,-27.00390625,0.2890625,1,0,0,0,18,18,52,1,0,,,,,,,,,,,,,,,,,,,,,
,,,,,,,,,,,,,,,,,,,,,,,,,,,,,,,,,,,,,,,,,,5f2e0553d21e3216a80457b2,606c0d6d674faaea52a59aa4,2021-04-06_02h28.03.825,Colour_Similarity_Experiment,2020.2.10,MacIntel,60,6067542a4a25243f4d7d4fcf,17.18870438,16.66973577,16.66969231,16.66722156,16.66647833,16.66969231,,,,,,,,,,,,,,,,,,,,PF,weak,3,,,,,,,,1,1.145535,,,,,,,,,,,,,,,,,,,,,,,,,,,2,weak,-104.9609375,53.65625,1,0,0,response7disk,2,20,-13.4921875,0.7265625,1,0,0,rectangle,-13.4921875,0.7265625,1,0,0,4,1,0.000725,-13.4921875,0.7265625,1,0,0,0,19,19,14,1,0,,,,,,,,,,,,,,,,,,,,,
,,,,,,,,,,,,,,,,,,,,,,,,,,,,,,,,,,,,,,,,,,5f2e0553d21e3216a80457b2,606c0d6d674faaea52a59aa4,2021-04-06_02h28.03.825,Colour_Similarity_Experiment,2020.2.10,MacIntel,60,6067542a4a25243f4d7d4fcf,17.18870438,16.66973577,16.66969231,16.66722156,16.66647833,16.66969231,,,,,,,,,,,,,,,,,,,,PF,weak,3,,,,,,,,5,1.61106,,,,,,,,,,,,,,,,,,,,,,,,,,,9,weak,75.19921875,-29.37109375,1,0,0,response3disk,4,21,-15.42578125,6.921875,1,0,0,rectangle,-15.42578125,6.921875,1,0,0,4,3,0.000775,-15.42578125,6.921875,1,0,0,0,20,20,114,1,0,,,,,,,,,,,,,,,,,,,,,
,,,,,,,,,,,,,,,,,,,,,,,,,,,,,,,,,,,,,,,,,,5f2e0553d21e3216a80457b2,606c0d6d674faaea52a59aa4,2021-04-06_02h28.03.825,Colour_Similarity_Experiment,2020.2.10,MacIntel,60,6067542a4a25243f4d7d4fcf,17.18870438,16.66973577,16.66969231,16.66722156,16.66647833,16.66969231,,,,,,,,,,,,,,,,,,,,PF,strong,3,,,,,,,,2,1.23901,,,,,,,,,,,,,,,,,,,,,,,,,,,8,strong,-105.3671875,-54.46875,1,0,0,response5disk,1,22,16.9765625,-19.7421875,1,0,0,rectangle,16.9765625,-19.7421875,1,0,0,4,7,0.001305,16.9765625,-19.7421875,1,0,0,0,21,21,20,1,0,,,,,,,,,,,,,,,,,,,,,
,,,,,,,,,,,,,,,,,,,,,,,,,,,,,,,,,,,,,,,,,,5f2e0553d21e3216a80457b2,606c0d6d674faaea52a59aa4,2021-04-06_02h28.03.825,Colour_Similarity_Experiment,2020.2.10,MacIntel,60,6067542a4a25243f4d7d4fcf,17.18870438,16.66973577,16.66969231,16.66722156,16.66647833,16.66969231,,,,,,,,,,,,,,,,,,,,PF,weak,3,,,,,,,,3,1.49166,,,,,,,,,,,,,,,,,,,,,,,,,,,6,weak,-44.6953125,-126.1054688,1,0,0,response5disk,3,23,-13.1796875,-13.34765625,1,0,0,rectangle,-13.1796875,-13.34765625,1,0,0,4,4,0.00087,-13.1796875,-13.34765625,1,0,0,0,22,22,26,1,0,,,,,,,,,,,,,,,,,,,,,
,,,,,,,,,,,,,,,,,,,,,,,,,,,,,,,,,,,,,,,,,,5f2e0553d21e3216a80457b2,606c0d6d674faaea52a59aa4,2021-04-06_02h28.03.825,Colour_Similarity_Experiment,2020.2.10,MacIntel,60,6067542a4a25243f4d7d4fcf,17.18870438,16.66973577,16.66969231,16.66722156,16.66647833,16.66969231,,,,,,,,,,,,,,,,,,,,PF,weak,3,,,,,,,,2,1.677625,,,,,,,,,,,,,,,,,,,,,,,,,,,3,weak,-112.6640625,-45.05859375,1,0,0,response5disk,3,24,13.921875,-2.48828125,1,0,0,rectangle,13.921875,-2.48828125,1,0,0,4,3,0.00079,13.921875,-2.48828125,1,0,0,0,23,23,4,1,0,,,,,,,,,,,,,,,,,,,,,
,,,,,,,,,,,,,,,,,,,,,,,,,,,,,,,,,,,,,,,,,,5f2e0553d21e3216a80457b2,606c0d6d674faaea52a59aa4,2021-04-06_02h28.03.825,Colour_Similarity_Experiment,2020.2.10,MacIntel,60,6067542a4a25243f4d7d4fcf,17.18870438,16.66973577,16.66969231,16.66722156,16.66647833,16.66969231,,,,,,,,,,,,,,,,,,,,PF,weak,3,,,,,,,,6,3.112125,,,,,,,,,,,,,,,,,,,,,,,,,,,4,weak,78.21875,27.015625,1,0,0,response1disk,8,25,8.64453125,11.23828125,1,0,0,rectangle,8.64453125,11.23828125,1,0,0,4,0,0.000635,8.64453125,11.23828125,1,0,0,0,24,24,124,1,0,,,,,,,,,,,,,,,,,,,,,
,,,,,,,,,,,,,,,,,,,,,,,,,,,,,,,,,,,,,,,,,,5f2e0553d21e3216a80457b2,606c0d6d674faaea52a59aa4,2021-04-06_02h28.03.825,Colour_Similarity_Experiment,2020.2.10,MacIntel,60,6067542a4a25243f4d7d4fcf,17.18870438,16.66973577,16.66969231,16.66722156,16.66647833,16.66969231,,,,,,,,,,,,,,,,,,,,PF,strong,3,,,,,,,,1,1.090335,,,,,,,,,,,,,,,,,,,,,,,,,,,4,strong,-106.1796875,56.70703125,1,0,0,response7disk,3,26,10.50390625,0.2578125,1,0,0,rectangle,10.50390625,0.2578125,1,0,0,4,2,0.0008,10.50390625,0.2578125,1,0,0,0,25,25,77,1,0,,,,,,,,,,,,,,,,,,,,,
,,,,,,,,,,,,,,,,,,,,,,,,,,,,,,,,,,,,,,,,,,5f2e0553d21e3216a80457b2,606c0d6d674faaea52a59aa4,2021-04-06_02h28.03.825,Colour_Similarity_Experiment,2020.2.10,MacIntel,60,6067542a4a25243f4d7d4fcf,17.18870438,16.66973577,16.66969231,16.66722156,16.66647833,16.66969231,,,,,,,,,,,,,,,,,,,,PF,weak,3,,,,,,,,3,1.113425,,,,,,,,,,,,,,,,,,,,,,,,,,,7,weak,-73.75390625,-130.8359375,1,0,0,response5disk,4,27,-30.0703125,-18.2890625,1,0,0,rectangle,-30.0703125,-18.2890625,1,0,0,4,4,0.000755,-30.0703125,-18.2890625,1,0,0,0,26,26,43,1,0,,,,,,,,,,,,,,,,,,,,,
,,,,,,,,,,,,,,,,,,,,,,,,,,,,,,,,,,,,,,,,,,5f2e0553d21e3216a80457b2,606c0d6d674faaea52a59aa4,2021-04-06_02h28.03.825,Colour_Similarity_Experiment,2020.2.10,MacIntel,60,6067542a4a25243f4d7d4fcf,17.18870438,16.66973577,16.66969231,16.66722156,16.66647833,16.66969231,,,,,,,,,,,,,,,,,,,,PF,strong,3,,,,,,,,7,1.61032,,,,,,,,,,,,,,,,,,,,,,,,,,,2,strong,22.3828125,58.19921875,1,0,0,response1disk,8,28,-6.9296875,6.2265625,1,0,0,rectangle,-6.9296875,6.2265625,1,0,0,4,4,9.99999E-05,-6.9296875,6.2265625,1,0,0,0,27,27,62,1,0,,,,,,,,,,,,,,,,,,,,,
,,,,,,,,,,,,,,,,,,,,,,,,,,,,,,,,,,,,,,,,,,5f2e0553d21e3216a80457b2,606c0d6d674faaea52a59aa4,2021-04-06_02h28.03.825,Colour_Similarity_Experiment,2020.2.10,MacIntel,60,6067542a4a25243f4d7d4fcf,17.18870438,16.66973577,16.66969231,16.66722156,16.66647833,16.66969231,,,,,,,,,,,,,,,,,,,,PF,strong,3,,,,,,,,1,1.327335,,,,,,,,,,,,,,,,,,,,,,,,,,,4,strong,-71.5546875,55.23046875,1,0,0,response7disk,4,29,-13.29296875,18.16796875,1,0,0,rectangle,-13.29296875,18.16796875,1,0,0,4,2,0.000755,-13.29296875,18.16796875,1,0,0,0,28,28,84,1,0,,,,,,,,,,,,,,,,,,,,,
,,,,,,,,,,,,,,,,,,,,,,,,,,,,,,,,,,,,,,,,,,5f2e0553d21e3216a80457b2,606c0d6d674faaea52a59aa4,2021-04-06_02h28.03.825,Colour_Similarity_Experiment,2020.2.10,MacIntel,60,6067542a4a25243f4d7d4fcf,17.18870438,16.66973577,16.66969231,16.66722156,16.66647833,16.66969231,,,,,,,,,,,,,,,,,,,,PF,weak,3,,,,,,,,3,1.14581,,,,,,,,,,,,,,,,,,,,,,,,,,,5,weak,-43.12890625,-87.18359375,1,0,0,response5disk,7,30,0.96875,11.0546875,1,0,0,rectangle,0.96875,11.0546875,1,0,0,4,3,0.00075,0.96875,11.0546875,1,0,0,0,29,29,146,1,0,,,,,,,,,,,,,,,,,,,,,
,,,,,,,,,,,,,,,,,,,,,,,,,,,,,,,,,,,,,,,,,,5f2e0553d21e3216a80457b2,606c0d6d674faaea52a59aa4,2021-04-06_02h28.03.825,Colour_Similarity_Experiment,2020.2.10,MacIntel,60,6067542a4a25243f4d7d4fcf,17.18870438,16.66973577,16.66969231,16.66722156,16.66647833,16.66969231,,,,,,,,,,,,,,,,,,,,PF,strong,3,,,,,,,,4,3.307955,,,,,,,,,,,,,,,,,,,,,,,,,,,3,strong,47.6171875,-107.6328125,1,0,0,response3disk,1,31,-13.33984375,-2.7734375,1,0,0,rectangle,-13.33984375,-2.7734375,1,0,0,4,5,0.000835,-13.33984375,-2.7734375,1,0,0,0,30,30,125,1,0,,,,,,,,,,,,,,,,,,,,,
,,,,,,,,,,,,,,,,,,,,,,,,,,,,,,,,,,,,,,,,,,5f2e0553d21e3216a80457b2,606c0d6d674faaea52a59aa4,2021-04-06_02h28.03.825,Colour_Similarity_Experiment,2020.2.10,MacIntel,60,6067542a4a25243f4d7d4fcf,17.18870438,16.66973577,16.66969231,16.66722156,16.66647833,16.66969231,,,,,,,,,,,,,,,,,,,,PF,strong,3,,,,,,,,4,2.245255,,,,,,,,,,,,,,,,,,,,,,,,,,,7,strong,48.44921875,-133.703125,1,0,0,response3disk,3,32,-3.56640625,-5.5859375,1,0,0,rectangle,-3.56640625,-5.5859375,1,0,0,4,3,0.000815,-3.56640625,-5.5859375,1,0,0,0,31,31,73,1,0,,,,,,,,,,,,,,,,,,,,,
,,,,,,,,,,,,,,,,,,,,,,,,,,,,,,,,,,,,,,,,,,5f2e0553d21e3216a80457b2,606c0d6d674faaea52a59aa4,2021-04-06_02h28.03.825,Colour_Similarity_Experiment,2020.2.10,MacIntel,60,6067542a4a25243f4d7d4fcf,17.18870438,16.66973577,16.66969231,16.66722156,16.66647833,16.66969231,,,,,,,,,,,,,,,,,,,,PF,strong,3,,,,,,,,3,1.677045,,,,,,,,,,,,,,,,,,,,,,,,,,,9,strong,-50.34375,-119.296875,1,0,0,response5disk,1,33,-9.609375,-15.625,1,0,0,rectangle,-9.609375,-15.625,1,0,0,4,3,0.000105,-9.609375,-15.625,1,0,0,0,32,32,111,1,0,,,,,,,,,,,,,,,,,,,,,
,,,,,,,,,,,,,,,,,,,,,,,,,,,,,,,,,,,,,,,,,,5f2e0553d21e3216a80457b2,606c0d6d674faaea52a59aa4,2021-04-06_02h28.03.825,Colour_Similarity_Experiment,2020.2.10,MacIntel,60,6067542a4a25243f4d7d4fcf,17.18870438,16.66973577,16.66969231,16.66722156,16.66647833,16.66969231,,,,,,,,,,,,,,,,,,,,PF,weak,3,,,,,,,,2,2.55971,,,,,,,,,,,,,,,,,,,,,,,,,,,5,weak,-96.55078125,-42.9375,1,0,0,response5disk,4,34,9.34765625,-13.671875,1,0,0,rectangle,9.34765625,-13.671875,1,0,0,4,7,0.000755,9.34765625,-13.671875,1,0,0,0,33,33,54,1,0,,,,,,,,,,,,,,,,,,,,,
,,,,,,,,,,,,,,,,,,,,,,,,,,,,,,,,,,,,,,,,,,5f2e0553d21e3216a80457b2,606c0d6d674faaea52a59aa4,2021-04-06_02h28.03.825,Colour_Similarity_Experiment,2020.2.10,MacIntel,60,6067542a4a25243f4d7d4fcf,17.18870438,16.66973577,16.66969231,16.66722156,16.66647833,16.66969231,,,,,,,,,,,,,,,,,,,,PF,weak,3,,,,,,,,4,2.763275,,,,,,,,,,,,,,,,,,,,,,,,,,,2,weak,94.19921875,-110.3632813,1,0,0,response3disk,7,35,-8.98046875,0.5390625,1,0,0,rectangle,-8.98046875,0.5390625,1,0,0,4,6,0.000855,-8.98046875,0.5390625,1,0,0,0,34,34,107,1,0,,,,,,,,,,,,,,,,,,,,,
,,,,,,,,,,,,,,,,,,,,,,,,,,,,,,,,,,,,,,,,,,5f2e0553d21e3216a80457b2,606c0d6d674faaea52a59aa4,2021-04-06_02h28.03.825,Colour_Similarity_Experiment,2020.2.10,MacIntel,60,6067542a4a25243f4d7d4fcf,17.18870438,16.66973577,16.66969231,16.66722156,16.66647833,16.66969231,,,,,,,,,,,,,,,,,,,,PF,strong,3,,,,,,,,2,2.173765,,,,,,,,,,,,,,,,,,,,,,,,,,,2,strong,-119.9921875,-68.8359375,1,0,0,response5disk,5,36,-9.34765625,-12.62890625,1,0,0,rectangle,-9.34765625,-12.62890625,1,0,0,4,4,0.00089,-9.34765625,-12.62890625,1,0,0,0,35,35,80,1,0,,,,,,,,,,,,,,,,,,,,,
,,,,,,,,,,,,,,,,,,,,,,,,,,,,,,,,,,,,,,,,,,5f2e0553d21e3216a80457b2,606c0d6d674faaea52a59aa4,2021-04-06_02h28.03.825,Colour_Similarity_Experiment,2020.2.10,MacIntel,60,6067542a4a25243f4d7d4fcf,17.18870438,16.66973577,16.66969231,16.66722156,16.66647833,16.66969231,,,,,,,,,,,,,,,,,,,,PF,weak,3,,,,,,,,3,2.19529,,,,,,,,,,,,,,,,,,,,,,,,,,,8,weak,-37,-91.2109375,1,0,0,response5disk,6,37,-23.98828125,8.703125,1,0,0,rectangle,-138.2773438,-66.06640625,1,0,0,4,2,1.81726,-29.46875,-0.890625,1,0,0,0,36,36,161,1,1,response5disk_3,rectangle,,,,,,,,,,,,,,,,,,,
,,,,,,,,,,,,,,,,,,,,,,,,,,,,,,,,,,,,,,,,,,5f2e0553d21e3216a80457b2,606c0d6d674faaea52a59aa4,2021-04-06_02h28.03.825,Colour_Similarity_Experiment,2020.2.10,MacIntel,60,6067542a4a25243f4d7d4fcf,17.18870438,16.66973577,16.66969231,16.66722156,16.66647833,16.66969231,,,,,,,,,,,,,,,,,,,,PF,weak,3,,,,,,,,2,1.59435,,,,,,,,,,,,,,,,,,,,,,,,,,,6,weak,-88.22265625,-48.1875,1,0,0,response5disk,8,38,-7.3671875,-8.484375,1,0,0,rectangle,-7.3671875,-8.484375,1,0,0,4,4,0.00079,-7.3671875,-8.484375,1,0,0,0,37,37,64,1,0,,,,,,,,,,,,,,,,,,,,,
,,,,,,,,,,,,,,,,,,,,,,,,,,,,,,,,,,,,,,,,,,5f2e0553d21e3216a80457b2,606c0d6d674faaea52a59aa4,2021-04-06_02h28.03.825,Colour_Similarity_Experiment,2020.2.10,MacIntel,60,6067542a4a25243f4d7d4fcf,17.18870438,16.66973577,16.66969231,16.66722156,16.66647833,16.66969231,,,,,,,,,,,,,,,,,,,,PF,weak,3,,,,,,,,1,0.94633,,,,,,,,,,,,,,,,,,,,,,,,,,,8,weak,-85.95703125,29.9453125,1,0,0,response7disk,8,39,-6.82421875,2.48046875,1,0,0,rectangle,-6.82421875,2.48046875,1,0,0,4,6,0.000825,-6.82421875,2.48046875,1,0,0,0,38,38,153,1,0,,,,,,,,,,,,,,,,,,,,,
,,,,,,,,,,,,,,,,,,,,,,,,,,,,,,,,,,,,,,,,,,5f2e0553d21e3216a80457b2,606c0d6d674faaea52a59aa4,2021-04-06_02h28.03.825,Colour_Similarity_Experiment,2020.2.10,MacIntel,60,6067542a4a25243f4d7d4fcf,17.18870438,16.66973577,16.66969231,16.66722156,16.66647833,16.66969231,,,,,,,,,,,,,,,,,,,,PF,strong,3,,,,,,,,3,5.14408,,,,,,,,,,,,,,,,,,,,,,,,,,,7,strong,-64.71875,-78.36328125,1,0,0,response5disk,9,40,-14.99609375,5.44140625,1,0,0,rectangle,-14.99609375,5.44140625,1,0,0,4,5,0.000815,-14.99609375,5.44140625,1,0,0,0,39,39,155,1,0,,,,,,,,,,,,,,,,,,,,,
,,,,,,,,,,,,,,,,,,,,,,,,,,,,,,,,,,,,,,,,,,5f2e0553d21e3216a80457b2,606c0d6d674faaea52a59aa4,2021-04-06_02h28.03.825,Colour_Similarity_Experiment,2020.2.10,MacIntel,60,6067542a4a25243f4d7d4fcf,17.18870438,16.66973577,16.66969231,16.66722156,16.66647833,16.66969231,,,,,,,,,,,,,,,,,,,,PF,strong,3,,,,,,,,4,1.610015,,,,,,,,,,,,,,,,,,,,,,,,,,,9,strong,32.484375,-79.69140625,1,0,0,response3disk,2,41,-1.73828125,-19.56640625,1,0,0,rectangle,80.421875,-112.1835938,1,0,0,4,4,1.800405,26.52734375,-21.6953125,1,0,0,0,40,40,11,1,1,response3disk_3,rectangle,,,,,,,,,,,,,,,,,,,
,,,,,,,,,,,,,,,,,,,,,,,,,,,,,,,,,,,,,,,,,,5f2e0553d21e3216a80457b2,606c0d6d674faaea52a59aa4,2021-04-06_02h28.03.825,Colour_Similarity_Experiment,2020.2.10,MacIntel,60,6067542a4a25243f4d7d4fcf,17.18870438,16.66973577,16.66969231,16.66722156,16.66647833,16.66969231,,,,,,,,,,,,,,,,,,,,PF,weak,3,,,,,,,,0,1.093785,,,,,,,,,,,,,,,,,,,,,,,,,,,7,weak,-47.40625,106.1875,1,0,0,response7disk,7,42,10.80859375,-2.69140625,1,0,0,rectangle,10.80859375,-2.69140625,1,0,0,4,2,0.000775,10.80859375,-2.69140625,1,0,0,0,41,41,51,1,0,,,,,,,,,,,,,,,,,,,,,
,,,,,,,,,,,,,,,,,,,,,,,,,,,,,,,,,,,,,,,,,,5f2e0553d21e3216a80457b2,606c0d6d674faaea52a59aa4,2021-04-06_02h28.03.825,Colour_Similarity_Experiment,2020.2.10,MacIntel,60,6067542a4a25243f4d7d4fcf,17.18870438,16.66973577,16.66969231,16.66722156,16.66647833,16.66969231,,,,,,,,,,,,,,,,,,,,PF,strong,3,,,,,,,,1,1.530655,,,,,,,,,,,,,,,,,,,,,,,,,,,6,strong,-140.8203125,39.9609375,1,0,0,response7disk,7,43,4.33203125,9.49609375,1,0,0,rectangle,4.33203125,9.49609375,1,0,0,4,7,0.000795,4.33203125,9.49609375,1,0,0,0,42,42,18,1,0,,,,,,,,,,,,,,,,,,,,,
,,,,,,,,,,,,,,,,,,,,,,,,,,,,,,,,,,,,,,,,,,5f2e0553d21e3216a80457b2,606c0d6d674faaea52a59aa4,2021-04-06_02h28.03.825,Colour_Similarity_Experiment,2020.2.10,MacIntel,60,6067542a4a25243f4d7d4fcf,17.18870438,16.66973577,16.66969231,16.66722156,16.66647833,16.66969231,,,,,,,,,,,,,,,,,,,,PF,strong,3,,,,,,,,1,3.162565,,,,,,,,,,,,,,,,,,,,,,,,,,,7,strong,-106.2109375,68.2265625,1,0,0,response7disk,7,44,-4.97265625,18.02734375,1,0,0,rectangle,-4.97265625,18.02734375,1,0,0,4,5,0.00083,-4.97265625,18.02734375,1,0,0,0,43,43,34,1,0,,,,,,,,,,,,,,,,,,,,,
,,,,,,,,,,,,,,,,,,,,,,,,,,,,,,,,,,,,,,,,,,5f2e0553d21e3216a80457b2,606c0d6d674faaea52a59aa4,2021-04-06_02h28.03.825,Colour_Similarity_Experiment,2020.2.10,MacIntel,60,6067542a4a25243f4d7d4fcf,17.18870438,16.66973577,16.66969231,16.66722156,16.66647833,16.66969231,,,,,,,,,,,,,,,,,,,,PF,weak,3,,,,,,,,4,1.94263,,,,,,,,,,,,,,,,,,,,,,,,,,,6,weak,57.1328125,-143.3515625,1,0,0,response3disk,9,45,13.9375,2.078125,1,0,0,rectangle,13.9375,2.078125,1,0,0,4,7,0.00078,13.9375,2.078125,1,0,0,0,44,44,45,1,0,,,,,,,,,,,,,,,,,,,,,
,,,,,,,,,,,,,,,,,,,,,,,,,,,,,,,,,,,,,,,,,,5f2e0553d21e3216a80457b2,606c0d6d674faaea52a59aa4,2021-04-06_02h28.03.825,Colour_Similarity_Experiment,2020.2.10,MacIntel,60,6067542a4a25243f4d7d4fcf,17.18870438,16.66973577,16.66969231,16.66722156,16.66647833,16.66969231,,,,,,,,,,,,,,,,,,,,PF,weak,3,,,,,,,,2,1.812305,,,,,,,,,,,,,,,,,,,,,,,,,,,6,weak,-109.6835938,-76.65234375,1,0,0,response5disk,5,46,-25.3203125,-10.7421875,1,0,0,rectangle,-25.3203125,-10.7421875,1,0,0,4,4,0.00073,-25.3203125,-10.7421875,1,0,0,0,45,45,59,1,0,,,,,,,,,,,,,,,,,,,,,
,,,,,,,,,,,,,,,,,,,,,,,,,,,,,,,,,,,,,,,,,,5f2e0553d21e3216a80457b2,606c0d6d674faaea52a59aa4,2021-04-06_02h28.03.825,Colour_Similarity_Experiment,2020.2.10,MacIntel,60,6067542a4a25243f4d7d4fcf,17.18870438,16.66973577,16.66969231,16.66722156,16.66647833,16.66969231,,,,,,,,,,,,,,,,,,,,PF,weak,3,,,,,,,,3,1.26302,,,,,,,,,,,,,,,,,,,,,,,,,,,4,weak,-46.12109375,-86.05859375,1,0,0,response5disk,6,47,-19.046875,3.140625,1,0,0,rectangle,-19.046875,3.140625,1,0,0,4,2,0.00058,-19.046875,3.140625,1,0,0,0,46,46,120,1,0,,,,,,,,,,,,,,,,,,,,,
,,,,,,,,,,,,,,,,,,,,,,,,,,,,,,,,,,,,,,,,,,5f2e0553d21e3216a80457b2,606c0d6d674faaea52a59aa4,2021-04-06_02h28.03.825,Colour_Similarity_Experiment,2020.2.10,MacIntel,60,6067542a4a25243f4d7d4fcf,17.18870438,16.66973577,16.66969231,16.66722156,16.66647833,16.66969231,,,,,,,,,,,,,,,,,,,,PF,strong,3,,,,,,,,6,1.643345,,,,,,,,,,,,,,,,,,,,,,,,,,,9,strong,67.15234375,36.125,1,0,0,response1disk,6,48,-16.484375,-7.75390625,1,0,0,rectangle,-16.484375,-7.75390625,1,0,0,4,3,0.00074,-16.484375,-7.75390625,1,0,0,0,47,47,117,1,0,,,,,,,,,,,,,,,,,,,,,
,,,,,,,,,,,,,,,,,,,,,,,,,,,,,,,,,,,,,,,,,,5f2e0553d21e3216a80457b2,606c0d6d674faaea52a59aa4,2021-04-06_02h28.03.825,Colour_Similarity_Experiment,2020.2.10,MacIntel,60,6067542a4a25243f4d7d4fcf,17.18870438,16.66973577,16.66969231,16.66722156,16.66647833,16.66969231,,,,,,,,,,,,,,,,,,,,PF,weak,3,,,,,,,,3,1.576985,,,,,,,,,,,,,,,,,,,,,,,,,,,3,weak,-55.57421875,-101.5234375,1,0,0,response5disk,6,49,1.15234375,27.90625,1,0,0,rectangle,1.15234375,27.90625,1,0,0,4,6,0.00081,1.15234375,27.90625,1,0,0,0,48,48,47,1,0,,,,,,,,,,,,,,,,,,,,,
,,,,,,,,,,,,,,,,,,,,,,,,,,,,,,,,,,,,,,,,,,5f2e0553d21e3216a80457b2,606c0d6d674faaea52a59aa4,2021-04-06_02h28.03.825,Colour_Similarity_Experiment,2020.2.10,MacIntel,60,6067542a4a25243f4d7d4fcf,17.18870438,16.66973577,16.66969231,16.66722156,16.66647833,16.66969231,,,,,,,,,,,,,,,,,,,,PF,weak,3,,,,,,,,5,1.743595,,,,,,,,,,,,,,,,,,,,,,,,,,,2,weak,99.828125,-40.265625,1,0,0,response3disk,6,50,18.16015625,-4.2734375,1,0,0,rectangle,18.16015625,-4.2734375,1,0,0,4,0,0.00076,18.16015625,-4.2734375,1,0,0,0,49,49,113,1,0,,,,,,,,,,,,,,,,,,,,,
,,,,,,,,,,,,,,,,,,,,,,,,,,,,,,,,,,,,,,,,,,5f2e0553d21e3216a80457b2,606c0d6d674faaea52a59aa4,2021-04-06_02h28.03.825,Colour_Similarity_Experiment,2020.2.10,MacIntel,60,6067542a4a25243f4d7d4fcf,17.18870438,16.66973577,16.66969231,16.66722156,16.66647833,16.66969231,,,,,,,,,,,,,,,,,,,,PF,strong,3,,,,,,,,3,3.863125,,,,,,,,,,,,,,,,,,,,,,,,,,,3,strong,-63.6796875,-99.015625,1,0,0,response5disk,7,51,-37.10546875,-7.73828125,1,0,0,rectangle,-37.10546875,-7.73828125,1,0,0,4,4,0.000795,-37.10546875,-7.73828125,1,0,0,0,50,50,118,1,0,,,,,,,,,,,,,,,,,,,,,
,,,,,,,,,,,,,,,,,,,,,,,,,,,,,,,,,,,,,,,,,,5f2e0553d21e3216a80457b2,606c0d6d674faaea52a59aa4,2021-04-06_02h28.03.825,Colour_Similarity_Experiment,2020.2.10,MacIntel,60,6067542a4a25243f4d7d4fcf,17.18870438,16.66973577,16.66969231,16.66722156,16.66647833,16.66969231,,,,,,,,,,,,,,,,,,,,PF,weak,3,,,,,,,,0,1.111725,,,,,,,,,,,,,,,,,,,,,,,,,,,4,weak,-36.57421875,107.7421875,1,0,0,response7disk,4,52,-16.23046875,1.68359375,1,0,0,rectangle,-16.23046875,1.68359375,1,0,0,4,6,0.00086,-16.23046875,1.68359375,1,0,0,0,51,51,70,1,0,,,,,,,,,,,,,,,,,,,,,
,,,,,,,,,,,,,,,,,,,,,,,,,,,,,,,,,,,,,,,,,,5f2e0553d21e3216a80457b2,606c0d6d674faaea52a59aa4,2021-04-06_02h28.03.825,Colour_Similarity_Experiment,2020.2.10,MacIntel,60,6067542a4a25243f4d7d4fcf,17.18870438,16.66973577,16.66969231,16.66722156,16.66647833,16.66969231,,,,,,,,,,,,,,,,,,,,PF,weak,3,,,,,,,,0,0.82638,,,,,,,,,,,,,,,,,,,,,,,,,,,5,weak,-47.58203125,91.203125,1,0,0,response7disk,5,53,5.21875,15.578125,1,0,0,rectangle,5.21875,15.578125,1,0,0,4,0,0.00075,5.21875,15.578125,1,0,0,0,52,52,94,1,0,,,,,,,,,,,,,,,,,,,,,
,,,,,,,,,,,,,,,,,,,,,,,,,,,,,,,,,,,,,,,,,,5f2e0553d21e3216a80457b2,606c0d6d674faaea52a59aa4,2021-04-06_02h28.03.825,Colour_Similarity_Experiment,2020.2.10,MacIntel,60,6067542a4a25243f4d7d4fcf,17.18870438,16.66973577,16.66969231,16.66722156,16.66647833,16.66969231,,,,,,,,,,,,,,,,,,,,PF,strong,3,,,,,,,,5,2.847,,,,,,,,,,,,,,,,,,,,,,,,,,,6,strong,119,-66.1015625,1,0,0,response3disk,2,54,-32.96875,4.78125,1,0,0,rectangle,-32.96875,4.78125,1,0,0,4,5,0.0008,-32.96875,4.78125,1,0,0,0,53,53,112,1,0,,,,,,,,,,,,,,,,,,,,,
,,,,,,,,,,,,,,,,,,,,,,,,,,,,,,,,,,,,,,,,,,5f2e0553d21e3216a80457b2,606c0d6d674faaea52a59aa4,2021-04-06_02h28.03.825,Colour_Similarity_Experiment,2020.2.10,MacIntel,60,6067542a4a25243f4d7d4fcf,17.18870438,16.66973577,16.66969231,16.66722156,16.66647833,16.66969231,,,,,,,,,,,,,,,,,,,,PF,strong,3,,,,,,,,7,2.090535,,,,,,,,,,,,,,,,,,,,,,,,,,,3,strong,37.87109375,68.06640625,1,0,0,response1disk,5,55,0.92578125,16.87890625,1,0,0,rectangle,0.92578125,16.87890625,1,0,0,4,4,0.000735,0.92578125,16.87890625,1,0,0,0,54,54,101,1,0,,,,,,,,,,,,,,,,,,,,,
,,,,,,,,,,,,,,,,,,,,,,,,,,,,,,,,,,,,,,,,,,5f2e0553d21e3216a80457b2,606c0d6d674faaea52a59aa4,2021-04-06_02h28.03.825,Colour_Similarity_Experiment,2020.2.10,MacIntel,60,6067542a4a25243f4d7d4fcf,17.18870438,16.66973577,16.66969231,16.66722156,16.66647833,16.66969231,,,,,,,,,,,,,,,,,,,,PF,weak,3,,,,,,,,4,4.424095,,,,,,,,,,,,,,,,,,,,,,,,,,,9,weak,66.703125,-114.9882813,1,0,0,response3disk,7,56,4.71484375,-5.515625,1,0,0,rectangle,4.71484375,-5.515625,1,0,0,4,7,0.000745,4.71484375,-5.515625,1,0,0,0,55,55,121,1,0,,,,,,,,,,,,,,,,,,,,,
,,,,,,,,,,,,,,,,,,,,,,,,,,,,,,,,,,,,,,,,,,5f2e0553d21e3216a80457b2,606c0d6d674faaea52a59aa4,2021-04-06_02h28.03.825,Colour_Similarity_Experiment,2020.2.10,MacIntel,60,6067542a4a25243f4d7d4fcf,17.18870438,16.66973577,16.66969231,16.66722156,16.66647833,16.66969231,,,,,,,,,,,,,,,,,,,,PF,strong,3,,,,,,,,7,1.69553,,,,,,,,,,,,,,,,,,,,,,,,,,,5,strong,39.39453125,75.24609375,1,0,0,response1disk,9,57,0.90234375,-11.37890625,1,0,0,rectangle,0.90234375,-11.37890625,1,0,0,4,3,0.00077,0.90234375,-11.37890625,1,0,0,0,56,56,61,1,0,,,,,,,,,,,,,,,,,,,,,
,,,,,,,,,,,,,,,,,,,,,,,,,,,,,,,,,,,,,,,,,,5f2e0553d21e3216a80457b2,606c0d6d674faaea52a59aa4,2021-04-06_02h28.03.825,Colour_Similarity_Experiment,2020.2.10,MacIntel,60,6067542a4a25243f4d7d4fcf,17.18870438,16.66973577,16.66969231,16.66722156,16.66647833,16.66969231,,,,,,,,,,,,,,,,,,,,PF,weak,3,,,,,,,,7,1.11109,,,,,,,,,,,,,,,,,,,,,,,,,,,4,weak,70.14453125,107.4609375,1,0,0,response1disk,9,58,4.8359375,24.1171875,1,0,0,rectangle,4.8359375,24.1171875,1,0,0,4,0,0.000655,4.8359375,24.1171875,1,0,0,0,57,57,75,1,0,,,,,,,,,,,,,,,,,,,,,
,,,,,,,,,,,,,,,,,,,,,,,,,,,,,,,,,,,,,,,,,,5f2e0553d21e3216a80457b2,606c0d6d674faaea52a59aa4,2021-04-06_02h28.03.825,Colour_Similarity_Experiment,2020.2.10,MacIntel,60,6067542a4a25243f4d7d4fcf,17.18870438,16.66973577,16.66969231,16.66722156,16.66647833,16.66969231,,,,,,,,,,,,,,,,,,,,PF,strong,3,,,,,,,,5,2.32675,,,,,,,,,,,,,,,,,,,,,,,,,,,3,strong,131.8007813,-64.18359375,1,0,0,response3disk,2,59,-33.69140625,11.21875,1,0,0,rectangle,-33.69140625,11.21875,1,0,0,4,2,0.00085,-33.69140625,11.21875,1,0,0,0,58,58,93,1,0,,,,,,,,,,,,,,,,,,,,,
,,,,,,,,,,,,,,,,,,,,,,,,,,,,,,,,,,,,,,,,,,5f2e0553d21e3216a80457b2,606c0d6d674faaea52a59aa4,2021-04-06_02h28.03.825,Colour_Similarity_Experiment,2020.2.10,MacIntel,60,6067542a4a25243f4d7d4fcf,17.18870438,16.66973577,16.66969231,16.66722156,16.66647833,16.66969231,,,,,,,,,,,,,,,,,,,,PF,strong,3,,,,,,,,4,3.711335,,,,,,,,,,,,,,,,,,,,,,,,,,,3,strong,77.640625,-104.6171875,1,0,0,response3disk,6,60,37.69921875,-11.23828125,1,0,0,rectangle,37.69921875,-11.23828125,1,0,0,4,3,0.000845,37.69921875,-11.23828125,1,0,0,0,59,59,95,1,0,,,,,,,,,,,,,,,,,,,,,
,,,,,,,,,,,,,,,,,,,,,,,,,,,,,,,,,,,,,,,,,,5f2e0553d21e3216a80457b2,606c0d6d674faaea52a59aa4,2021-04-06_02h28.03.825,Colour_Similarity_Experiment,2020.2.10,MacIntel,60,6067542a4a25243f4d7d4fcf,17.18870438,16.66973577,16.66969231,16.66722156,16.66647833,16.66969231,,,,,,,,,,,,,,,,,,,,PF,weak,3,,,,,,,,3,1.86102,,,,,,,,,,,,,,,,,,,,,,,,,,,2,weak,-56,-127.1132813,1,0,0,response5disk,1,61,-9.0859375,13.83203125,1,0,0,rectangle,-9.0859375,13.83203125,1,0,0,4,3,9.5E-05,-9.0859375,13.83203125,1,0,0,0,60,60,9,1,0,,,,,,,,,,,,,,,,,,,,,
,,,,,,,,,,,,,,,,,,,,,,,,,,,,,,,,,,,,,,,,,,5f2e0553d21e3216a80457b2,606c0d6d674faaea52a59aa4,2021-04-06_02h28.03.825,Colour_Similarity_Experiment,2020.2.10,MacIntel,60,6067542a4a25243f4d7d4fcf,17.18870438,16.66973577,16.66969231,16.66722156,16.66647833,16.66969231,,,,,,,,,,,,,,,,,,,,PF,weak,3,,,,,,,,4,2.359835,,,,,,,,,,,,,,,,,,,,,,,,,,,3,weak,38.85546875,-111.390625,1,0,0,response3disk,2,62,-10.2109375,-4.203125,1,0,0,rectangle,-118.1328125,57.0703125,1,0,0,1,1,1.75162,-28.1953125,8.09765625,1,0,0,0,61,61,36,1,1,response7disk_3,rectangle,,,,,,,,,,,,,,,,,,,
,,,,,,,,,,,,,,,,,,,,,,,,,,,,,,,,,,,,,,,,,,5f2e0553d21e3216a80457b2,606c0d6d674faaea52a59aa4,2021-04-06_02h28.03.825,Colour_Similarity_Experiment,2020.2.10,MacIntel,60,6067542a4a25243f4d7d4fcf,17.18870438,16.66973577,16.66969231,16.66722156,16.66647833,16.66969231,,,,,,,,,,,,,,,,,,,,PF,weak,3,,,,,,,,7,2.826715,,,,,,,,,,,,,,,,,,,,,,,,,,,9,weak,44.43359375,101.28125,1,0,0,response1disk,5,63,-13.5625,-24.1796875,1,0,0,rectangle,-13.5625,-24.1796875,1,0,0,1,3,0.000775,-13.5625,-24.1796875,1,0,0,0,62,62,134,1,0,,,,,,,,,,,,,,,,,,,,,
,,,,,,,,,,,,,,,,,,,,,,,,,,,,,,,,,,,,,,,,,,5f2e0553d21e3216a80457b2,606c0d6d674faaea52a59aa4,2021-04-06_02h28.03.825,Colour_Similarity_Experiment,2020.2.10,MacIntel,60,6067542a4a25243f4d7d4fcf,17.18870438,16.66973577,16.66969231,16.66722156,16.66647833,16.66969231,,,,,,,,,,,,,,,,,,,,PF,strong,3,,,,,,,,5,2.69791,,,,,,,,,,,,,,,,,,,,,,,,,,,7,strong,74.1796875,-40.4296875,1,0,0,response3disk,1,64,-6.9296875,10.96484375,1,0,0,rectangle,-6.9296875,10.96484375,1,0,0,1,1,0.000795,-6.9296875,10.96484375,1,0,0,0,63,63,132,1,0,,,,,,,,,,,,,,,,,,,,,
,,,,,,,,,,,,,,,,,,,,,,,,,,,,,,,,,,,,,,,,,,5f2e0553d21e3216a80457b2,606c0d6d674faaea52a59aa4,2021-04-06_02h28.03.825,Colour_Similarity_Experiment,2020.2.10,MacIntel,60,6067542a4a25243f4d7d4fcf,17.18870438,16.66973577,16.66969231,16.66722156,16.66647833,16.66969231,,,,,,,,,,,,,,,,,,,,PF,weak,3,,,,,,,,7,2.55711,,,,,,,,,,,,,,,,,,,,,,,,,,,3,weak,39.15625,67.91796875,1,0,0,response1disk,9,65,10.48046875,11.328125,1,0,0,rectangle,10.48046875,11.328125,1,0,0,1,5,0.000815,10.48046875,11.328125,1,0,0,0,64,64,79,1,0,,,,,,,,,,,,,,,,,,,,,
,,,,,,,,,,,,,,,,,,,,,,,,,,,,,,,,,,,,,,,,,,5f2e0553d21e3216a80457b2,606c0d6d674faaea52a59aa4,2021-04-06_02h28.03.825,Colour_Similarity_Experiment,2020.2.10,MacIntel,60,6067542a4a25243f4d7d4fcf,17.18870438,16.66973577,16.66969231,16.66722156,16.66647833,16.66969231,,,,,,,,,,,,,,,,,,,,PF,strong,3,,,,,,,,5,2.658195,,,,,,,,,,,,,,,,,,,,,,,,,,,6,strong,84.109375,-52.59375,1,0,0,response3disk,1,66,-6.12109375,-4.62109375,1,0,0,rectangle,-6.12109375,-4.62109375,1,0,0,1,6,0.00079,-6.12109375,-4.62109375,1,0,0,0,65,65,5,1,0,,,,,,,,,,,,,,,,,,,,,
,,,,,,,,,,,,,,,,,,,,,,,,,,,,,,,,,,,,,,,,,,5f2e0553d21e3216a80457b2,606c0d6d674faaea52a59aa4,2021-04-06_02h28.03.825,Colour_Similarity_Experiment,2020.2.10,MacIntel,60,6067542a4a25243f4d7d4fcf,17.18870438,16.66973577,16.66969231,16.66722156,16.66647833,16.66969231,,,,,,,,,,,,,,,,,,,,PF,strong,3,,,,,,,,4,2.79095,,,,,,,,,,,,,,,,,,,,,,,,,,,6,strong,46.92578125,-88.35546875,1,0,0,response3disk,4,67,-22.6875,28.6875,1,0,0,rectangle,-22.6875,28.6875,1,0,0,0,5,0.00074,-22.6875,28.6875,1,0,0,0,66,66,56,1,0,,,,,,,,,,,,,,,,,,,,,
,,,,,,,,,,,,,,,,,,,,,,,,,,,,,,,,,,,,,,,,,,5f2e0553d21e3216a80457b2,606c0d6d674faaea52a59aa4,2021-04-06_02h28.03.825,Colour_Similarity_Experiment,2020.2.10,MacIntel,60,6067542a4a25243f4d7d4fcf,17.18870438,16.66973577,16.66969231,16.66722156,16.66647833,16.66969231,,,,,,,,,,,,,,,,,,,,PF,strong,3,,,,,,,,7,1.611735,,,,,,,,,,,,,,,,,,,,,,,,,,,9,strong,61.5,84.76953125,1,0,0,response1disk,5,68,19.30078125,6.82421875,1,0,0,rectangle,19.30078125,6.82421875,1,0,0,0,1,0.00079,19.30078125,6.82421875,1,0,0,0,67,67,128,1,0,,,,,,,,,,,,,,,,,,,,,
,,,,,,,,,,,,,,,,,,,,,,,,,,,,,,,,,,,,,,,,,,5f2e0553d21e3216a80457b2,606c0d6d674faaea52a59aa4,2021-04-06_02h28.03.825,Colour_Similarity_Experiment,2020.2.10,MacIntel,60,6067542a4a25243f4d7d4fcf,17.18870438,16.66973577,16.66969231,16.66722156,16.66647833,16.66969231,,,,,,,,,,,,,,,,,,,,PF,weak,3,,,,,,,,7,0.92765,,,,,,,,,,,,,,,,,,,,,,,,,,,8,weak,53.65625,81.7578125,1,0,0,response1disk,3,69,11.44140625,11.8828125,1,0,0,rectangle,11.44140625,11.8828125,1,0,0,0,5,0.00077,11.44140625,11.8828125,1,0,0,0,68,68,71,1,0,,,,,,,,,,,,,,,,,,,,,
,,,,,,,,,,,,,,,,,,,,,,,,,,,,,,,,,,,,,,,,,,5f2e0553d21e3216a80457b2,606c0d6d674faaea52a59aa4,2021-04-06_02h28.03.825,Colour_Similarity_Experiment,2020.2.10,MacIntel,60,6067542a4a25243f4d7d4fcf,17.18870438,16.66973577,16.66969231,16.66722156,16.66647833,16.66969231,,,,,,,,,,,,,,,,,,,,PF,weak,3,,,,,,,,6,3.058635,,,,,,,,,,,,,,,,,,,,,,,,,,,6,weak,122.3789063,58.5078125,1,0,0,response1disk,2,70,22.61328125,19.75,1,0,0,rectangle,22.61328125,19.75,1,0,0,6,6,0.000815,22.61328125,19.75,1,0,0,0,69,69,130,1,0,,,,,,,,,,,,,,,,,,,,,
,,,,,,,,,,,,,,,,,,,,,,,,,,,,,,,,,,,,,,,,,,5f2e0553d21e3216a80457b2,606c0d6d674faaea52a59aa4,2021-04-06_02h28.03.825,Colour_Similarity_Experiment,2020.2.10,MacIntel,60,6067542a4a25243f4d7d4fcf,17.18870438,16.66973577,16.66969231,16.66722156,16.66647833,16.66969231,,,,,,,,,,,,,,,,,,,,PF,strong,3,,,,,,,,7,1.39277,,,,,,,,,,,,,,,,,,,,,,,,,,,9,strong,47.359375,67.2265625,1,0,0,response1disk,3,71,11.9765625,-2.07421875,1,0,0,rectangle,11.9765625,-2.07421875,1,0,0,6,0,0.00075,11.9765625,-2.07421875,1,0,0,0,70,70,141,1,0,,,,,,,,,,,,,,,,,,,,,
,,,,,,,,,,,,,,,,,,,,,,,,,,,,,,,,,,,,,,,,,,5f2e0553d21e3216a80457b2,606c0d6d674faaea52a59aa4,2021-04-06_02h28.03.825,Colour_Similarity_Experiment,2020.2.10,MacIntel,60,6067542a4a25243f4d7d4fcf,17.18870438,16.66973577,16.66969231,16.66722156,16.66647833,16.66969231,,,,,,,,,,,,,,,,,,,,PF,strong,3,,,,,,,,3,1.342145,,,,,,,,,,,,,,,,,,,,,,,,,,,5,strong,-46.5078125,-93.48046875,1,0,0,response5disk,3,72,-13.98828125,-8.6484375,1,0,0,rectangle,-13.98828125,-8.6484375,1,0,0,6,7,0.000825,-13.98828125,-8.6484375,1,0,0,0,71,71,25,1,0,,,,,,,,,,,,,,,,,,,,,
,,,,,,,,,,,,,,,,,,,,,,,,,,,,,,,,,,,,,,,,,,5f2e0553d21e3216a80457b2,606c0d6d674faaea52a59aa4,2021-04-06_02h28.03.825,Colour_Similarity_Experiment,2020.2.10,MacIntel,60,6067542a4a25243f4d7d4fcf,17.18870438,16.66973577,16.66969231,16.66722156,16.66647833,16.66969231,,,,,,,,,,,,,,,,,,,,PF,strong,3,,,,,,,,4,1.466195,,,,,,,,,,,,,,,,,,,,,,,,,,,6,strong,47.35546875,-76.25390625,1,0,0,response3disk,5,73,-2.62109375,1.78515625,1,0,0,rectangle,-2.62109375,1.78515625,1,0,0,6,5,0.0008,-2.62109375,1.78515625,1,0,0,0,72,72,126,1,0,,,,,,,,,,,,,,,,,,,,,
,,,,,,,,,,,,,,,,,,,,,,,,,,,,,,,,,,,,,,,,,,5f2e0553d21e3216a80457b2,606c0d6d674faaea52a59aa4,2021-04-06_02h28.03.825,Colour_Similarity_Experiment,2020.2.10,MacIntel,60,6067542a4a25243f4d7d4fcf,17.18870438,16.66973577,16.66969231,16.66722156,16.66647833,16.66969231,,,,,,,,,,,,,,,,,,,,PF,weak,3,,,,,,,,7,1.161415,,,,,,,,,,,,,,,,,,,,,,,,,,,1,weak,49.37109375,64.953125,1,0,0,response1disk,6,74,2.984375,4.38671875,1,0,0,rectangle,2.984375,4.38671875,1,0,0,6,5,0.00011,2.984375,4.38671875,1,0,0,0,73,73,144,1,0,,,,,,,,,,,,,,,,,,,,,
,,,,,,,,,,,,,,,,,,,,,,,,,,,,,,,,,,,,,,,,,,5f2e0553d21e3216a80457b2,606c0d6d674faaea52a59aa4,2021-04-06_02h28.03.825,Colour_Similarity_Experiment,2020.2.10,MacIntel,60,6067542a4a25243f4d7d4fcf,17.18870438,16.66973577,16.66969231,16.66722156,16.66647833,16.66969231,,,,,,,,,,,,,,,,,,,,PF,strong,3,,,,,,,,6,2.62962,,,,,,,,,,,,,,,,,,,,,,,,,,,5,strong,92.828125,41.08203125,1,0,0,response1disk,2,75,-6.1953125,-3.671875,1,0,0,rectangle,47.234375,-137.7304688,1,0,0,4,4,1.367165,7.71875,-4.23046875,1,0,0,0,74,74,55,1,1,response3disk_3,rectangle,,,,,,,,,,,,,,,,,,,
,,,,,,,,,,,,,,,,,,,,,,,,,,,,,,,,,,,,,,,,,,5f2e0553d21e3216a80457b2,606c0d6d674faaea52a59aa4,2021-04-06_02h28.03.825,Colour_Similarity_Experiment,2020.2.10,MacIntel,60,6067542a4a25243f4d7d4fcf,17.18870438,16.66973577,16.66969231,16.66722156,16.66647833,16.66969231,,,,,,,,,,,,,,,,,,,,PF,strong,3,,,,,,,,4,1.72837,,,,,,,,,,,,,,,,,,,,,,,,,,,6,strong,52.16015625,-125.0429688,1,0,0,response3disk,3,76,-33.4140625,1.01171875,1,0,0,rectangle,-33.4140625,1.01171875,1,0,0,4,2,0.00081,-33.4140625,1.01171875,1,0,0,0,75,75,21,1,0,,,,,,,,,,,,,,,,,,,,,
,,,,,,,,,,,,,,,,,,,,,,,,,,,,,,,,,,,,,,,,,,5f2e0553d21e3216a80457b2,606c0d6d674faaea52a59aa4,2021-04-06_02h28.03.825,Colour_Similarity_Experiment,2020.2.10,MacIntel,60,6067542a4a25243f4d7d4fcf,17.18870438,16.66973577,16.66969231,16.66722156,16.66647833,16.66969231,,,,,,,,,,,,,,,,,,,,PF,strong,3,,,,,,,,6,2.079955,,,,,,,,,,,,,,,,,,,,,,,,,,,8,strong,81.95703125,28.10546875,1,0,0,response1disk,2,77,-50.484375,-21.46875,1,0,0,rectangle,-50.484375,-21.46875,1,0,0,4,2,8E-05,-50.484375,-21.46875,1,0,0,0,76,76,22,1,0,,,,,,,,,,,,,,,,,,,,,
,,,,,,,,,,,,,,,,,,,,,,,,,,,,,,,,,,,,,,,,,,5f2e0553d21e3216a80457b2,606c0d6d674faaea52a59aa4,2021-04-06_02h28.03.825,Colour_Similarity_Experiment,2020.2.10,MacIntel,60,6067542a4a25243f4d7d4fcf,17.18870438,16.66973577,16.66969231,16.66722156,16.66647833,16.66969231,,,,,,,,,,,,,,,,,,,,PF,weak,3,,,,,,,,7,1.629575,,,,,,,,,,,,,,,,,,,,,,,,,,,1,weak,47.3125,57.51953125,1,0,0,response1disk,3,78,-6.90234375,7.359375,1,0,0,rectangle,-6.90234375,7.359375,1,0,0,4,1,0.000775,-6.90234375,7.359375,1,0,0,0,77,77,1,1,0,,,,,,,,,,,,,,,,,,,,,
,,,,,,,,,,,,,,,,,,,,,,,,,,,,,,,,,,,,,,,,,,5f2e0553d21e3216a80457b2,606c0d6d674faaea52a59aa4,2021-04-06_02h28.03.825,Colour_Similarity_Experiment,2020.2.10,MacIntel,60,6067542a4a25243f4d7d4fcf,17.18870438,16.66973577,16.66969231,16.66722156,16.66647833,16.66969231,,,,,,,,,,,,,,,,,,,,PF,weak,3,,,,,,,,7,2.52923,,,,,,,,,,,,,,,,,,,,,,,,,,,7,weak,22.01953125,42.5078125,1,0,0,response1disk,2,79,8.3515625,15.0625,1,0,0,rectangle,8.3515625,15.0625,1,0,0,4,1,0.0001,8.3515625,15.0625,1,0,0,0,78,78,32,1,0,,,,,,,,,,,,,,,,,,,,,
,,,,,,,,,,,,,,,,,,,,,,,,,,,,,,,,,,,,,,,,,,5f2e0553d21e3216a80457b2,606c0d6d674faaea52a59aa4,2021-04-06_02h28.03.825,Colour_Similarity_Experiment,2020.2.10,MacIntel,60,6067542a4a25243f4d7d4fcf,17.18870438,16.66973577,16.66969231,16.66722156,16.66647833,16.66969231,,,,,,,,,,,,,,,,,,,,PF,strong,3,,,,,,,,7,1.090215,,,,,,,,,,,,,,,,,,,,,,,,,,,9,strong,39.984375,54.86328125,1,0,0,response1disk,4,80,21.3984375,12.30859375,1,0,0,rectangle,21.3984375,12.30859375,1,0,0,4,2,0.000725,21.3984375,12.30859375,1,0,0,0,79,79,60,1,0,,,,,,,,,,,,,,,,,,,,,
,,,,,,,,,,,,,,,,,,,,,,,,,,,,,,,,,,,,,,,,,,5f2e0553d21e3216a80457b2,606c0d6d674faaea52a59aa4,2021-04-06_02h28.03.825,Colour_Similarity_Experiment,2020.2.10,MacIntel,60,6067542a4a25243f4d7d4fcf,17.18870438,16.66973577,16.66969231,16.66722156,16.66647833,16.66969231,,,,,,,,,,,,,,,,,,,,PF,strong,3,,,,,,,,3,1.54243,,,,,,,,,,,,,,,,,,,,,,,,,,,1,strong,-85.421875,-101.328125,1,0,0,response5disk,8,81,-24.97265625,-7.99609375,1,0,0,rectangle,-24.97265625,-7.99609375,1,0,0,4,3,0.000715,-24.97265625,-7.99609375,1,0,0,0,80,80,27,1,0,,,,,,,,,,,,,,,,,,,,,
,,,,,,,,,,,,,,,,,,,,,,,,,,,,,,,,,,,,,,,,,,5f2e0553d21e3216a80457b2,606c0d6d674faaea52a59aa4,2021-04-06_02h28.03.825,Colour_Similarity_Experiment,2020.2.10,MacIntel,60,6067542a4a25243f4d7d4fcf,17.18870438,16.66973577,16.66969231,16.66722156,16.66647833,16.66969231,,,,,,,,,,,,,,,,,,,,PF,weak,3,,,,,,,,3,1.67509,,,,,,,,,,,,,,,,,,,,,,,,,,,7,weak,-46.7421875,-91.0625,1,0,0,response5disk,5,82,-20.4140625,-6.2421875,1,0,0,rectangle,-20.4140625,-6.2421875,1,0,0,4,6,0.00076,-20.4140625,-6.2421875,1,0,0,0,81,81,92,1,0,,,,,,,,,,,,,,,,,,,,,
,,,,,,,,,,,,,,,,,,,,,,,,,,,,,,,,,,,,,,,,,,5f2e0553d21e3216a80457b2,606c0d6d674faaea52a59aa4,2021-04-06_02h28.03.825,Colour_Similarity_Experiment,2020.2.10,MacIntel,60,6067542a4a25243f4d7d4fcf,17.18870438,16.66973577,16.66969231,16.66722156,16.66647833,16.66969231,,,,,,,,,,,,,,,,,,,,PF,strong,3,,,,,,,,6,1.976165,,,,,,,,,,,,,,,,,,,,,,,,,,,8,strong,100.7265625,38.23046875,1,0,0,response1disk,5,83,-5.55078125,2.609375,1,0,0,rectangle,-5.55078125,2.609375,1,0,0,4,7,0.00076,-5.55078125,2.609375,1,0,0,0,82,82,152,1,0,,,,,,,,,,,,,,,,,,,,,
,,,,,,,,,,,,,,,,,,,,,,,,,,,,,,,,,,,,,,,,,,5f2e0553d21e3216a80457b2,606c0d6d674faaea52a59aa4,2021-04-06_02h28.03.825,Colour_Similarity_Experiment,2020.2.10,MacIntel,60,6067542a4a25243f4d7d4fcf,17.18870438,16.66973577,16.66969231,16.66722156,16.66647833,16.66969231,,,,,,,,,,,,,,,,,,,,PF,weak,3,,,,,,,,1,1.228445,,,,,,,,,,,,,,,,,,,,,,,,,,,9,weak,-82.51953125,40.75,1,0,0,response7disk,8,84,-17.23046875,4.91796875,1,0,0,rectangle,-17.23046875,4.91796875,1,0,0,4,4,0.00072,-17.23046875,4.91796875,1,0,0,0,83,83,67,1,0,,,,,,,,,,,,,,,,,,,,,
,,,,,,,,,,,,,,,,,,,,,,,,,,,,,,,,,,,,,,,,,,5f2e0553d21e3216a80457b2,606c0d6d674faaea52a59aa4,2021-04-06_02h28.03.825,Colour_Similarity_Experiment,2020.2.10,MacIntel,60,6067542a4a25243f4d7d4fcf,17.18870438,16.66973577,16.66969231,16.66722156,16.66647833,16.66969231,,,,,,,,,,,,,,,,,,,,PF,strong,3,,,,,,,,5,2.444025,,,,,,,,,,,,,,,,,,,,,,,,,,,7,strong,103.8046875,-39.88671875,1,0,0,response3disk,2,85,19.078125,-8.39453125,1,0,0,rectangle,19.078125,-8.39453125,1,0,0,4,2,0.000805,19.078125,-8.39453125,1,0,0,0,84,84,138,1,0,,,,,,,,,,,,,,,,,,,,,
,,,,,,,,,,,,,,,,,,,,,,,,,,,,,,,,,,,,,,,,,,5f2e0553d21e3216a80457b2,606c0d6d674faaea52a59aa4,2021-04-06_02h28.03.825,Colour_Similarity_Experiment,2020.2.10,MacIntel,60,6067542a4a25243f4d7d4fcf,17.18870438,16.66973577,16.66969231,16.66722156,16.66647833,16.66969231,,,,,,,,,,,,,,,,,,,,PF,weak,3,,,,,,,,7,1.29274,,,,,,,,,,,,,,,,,,,,,,,,,,,6,weak,41.8359375,62.6875,1,0,0,response1disk,1,86,8.1640625,14.42578125,1,0,0,rectangle,8.1640625,14.42578125,1,0,0,4,5,0.000825,8.1640625,14.42578125,1,0,0,0,85,85,46,1,0,,,,,,,,,,,,,,,,,,,,,
,,,,,,,,,,,,,,,,,,,,,,,,,,,,,,,,,,,,,,,,,,5f2e0553d21e3216a80457b2,606c0d6d674faaea52a59aa4,2021-04-06_02h28.03.825,Colour_Similarity_Experiment,2020.2.10,MacIntel,60,6067542a4a25243f4d7d4fcf,17.18870438,16.66973577,16.66969231,16.66722156,16.66647833,16.66969231,,,,,,,,,,,,,,,,,,,,PF,weak,3,,,,,,,,5,2.65658,,,,,,,,,,,,,,,,,,,,,,,,,,,5,weak,91.62890625,-49.09375,1,0,0,response3disk,2,87,-2.9453125,-4.37890625,1,0,0,rectangle,-2.9453125,-4.37890625,1,0,0,4,4,0.000765,-2.9453125,-4.37890625,1,0,0,0,86,86,129,1,0,,,,,,,,,,,,,,,,,,,,,
,,,,,,,,,,,,,,,,,,,,,,,,,,,,,,,,,,,,,,,,,,5f2e0553d21e3216a80457b2,606c0d6d674faaea52a59aa4,2021-04-06_02h28.03.825,Colour_Similarity_Experiment,2020.2.10,MacIntel,60,6067542a4a25243f4d7d4fcf,17.18870438,16.66973577,16.66969231,16.66722156,16.66647833,16.66969231,,,,,,,,,,,,,,,,,,,,PF,weak,3,,,,,,,,4,1.81189,,,,,,,,,,,,,,,,,,,,,,,,,,,1,weak,31.40234375,-86.48046875,1,0,0,response3disk,8,88,10.9375,-14.015625,1,0,0,rectangle,10.9375,-14.015625,1,0,0,4,3,0.00087,10.9375,-14.015625,1,0,0,0,87,87,65,1,0,,,,,,,,,,,,,,,,,,,,,
,,,,,,,,,,,,,,,,,,,,,,,,,,,,,,,,,,,,,,,,,,5f2e0553d21e3216a80457b2,606c0d6d674faaea52a59aa4,2021-04-06_02h28.03.825,Colour_Similarity_Experiment,2020.2.10,MacIntel,60,6067542a4a25243f4d7d4fcf,17.18870438,16.66973577,16.66969231,16.66722156,16.66647833,16.66969231,,,,,,,,,,,,,,,,,,,,PF,strong,3,,,,,,,,0,1.240225,,,,,,,,,,,,,,,,,,,,,,,,,,,8,strong,-47.07421875,110.1445313,1,0,0,response7disk,8,89,16.74609375,-5.91015625,1,0,0,rectangle,16.74609375,-5.91015625,1,0,0,4,4,0.00103,16.74609375,-5.91015625,1,0,0,0,88,88,48,1,0,,,,,,,,,,,,,,,,,,,,,
,,,,,,,,,,,,,,,,,,,,,,,,,,,,,,,,,,,,,,,,,,5f2e0553d21e3216a80457b2,606c0d6d674faaea52a59aa4,2021-04-06_02h28.03.825,Colour_Similarity_Experiment,2020.2.10,MacIntel,60,6067542a4a25243f4d7d4fcf,17.18870438,16.66973577,16.66969231,16.66722156,16.66647833,16.66969231,,,,,,,,,,,,,,,,,,,,PF,weak,3,,,,,,,,5,1.493765,,,,,,,,,,,,,,,,,,,,,,,,,,,4,weak,102.171875,-52.66796875,1,0,0,response3disk,2,90,30.06640625,0.2578125,1,0,0,rectangle,30.06640625,0.2578125,1,0,0,4,7,0.00082,30.06640625,0.2578125,1,0,0,0,89,89,108,1,0,,,,,,,,,,,,,,,,,,,,,
,,,,,,,,,,,,,,,,,,,,,,,,,,,,,,,,,,,,,,,,,,5f2e0553d21e3216a80457b2,606c0d6d674faaea52a59aa4,2021-04-06_02h28.03.825,Colour_Similarity_Experiment,2020.2.10,MacIntel,60,6067542a4a25243f4d7d4fcf,17.18870438,16.66973577,16.66969231,16.66722156,16.66647833,16.66969231,,,,,,,,,,,,,,,,,,,,PF,strong,3,,,,,,,,6,3.163565,,,,,,,,,,,,,,,,,,,,,,,,,,,9,strong,84.62890625,36.46484375,1,0,0,response1disk,7,91,31.75,-5.125,1,0,0,rectangle,31.75,-5.125,1,0,0,4,6,0.000725,31.75,-5.125,1,0,0,0,90,90,100,1,0,,,,,,,,,,,,,,,,,,,,,
,,,,,,,,,,,,,,,,,,,,,,,,,,,,,,,,,,,,,,,,,,5f2e0553d21e3216a80457b2,606c0d6d674faaea52a59aa4,2021-04-06_02h28.03.825,Colour_Similarity_Experiment,2020.2.10,MacIntel,60,6067542a4a25243f4d7d4fcf,17.18870438,16.66973577,16.66969231,16.66722156,16.66647833,16.66969231,,,,,,,,,,,,,,,,,,,,PF,weak,3,,,,,,,,6,2.066125,,,,,,,,,,,,,,,,,,,,,,,,,,,7,weak,88.3125,29.66796875,1,0,0,response1disk,9,92,4.25390625,-5.05078125,1,0,0,rectangle,4.25390625,-5.05078125,1,0,0,4,4,0.00079,4.25390625,-5.05078125,1,0,0,0,91,91,10,1,0,,,,,,,,,,,,,,,,,,,,,
,,,,,,,,,,,,,,,,,,,,,,,,,,,,,,,,,,,,,,,,,,5f2e0553d21e3216a80457b2,606c0d6d674faaea52a59aa4,2021-04-06_02h28.03.825,Colour_Similarity_Experiment,2020.2.10,MacIntel,60,6067542a4a25243f4d7d4fcf,17.18870438,16.66973577,16.66969231,16.66722156,16.66647833,16.66969231,,,,,,,,,,,,,,,,,,,,PF,weak,3,,,,,,,,7,1.18882,,,,,,,,,,,,,,,,,,,,,,,,,,,1,weak,61.734375,101.65625,1,0,0,response1disk,5,93,35.49609375,16.6015625,1,0,0,rectangle,35.49609375,16.6015625,1,0,0,4,2,0.000745,35.49609375,16.6015625,1,0,0,0,92,92,28,1,0,,,,,,,,,,,,,,,,,,,,,
,,,,,,,,,,,,,,,,,,,,,,,,,,,,,,,,,,,,,,,,,,5f2e0553d21e3216a80457b2,606c0d6d674faaea52a59aa4,2021-04-06_02h28.03.825,Colour_Similarity_Experiment,2020.2.10,MacIntel,60,6067542a4a25243f4d7d4fcf,17.18870438,16.66973577,16.66969231,16.66722156,16.66647833,16.66969231,,,,,,,,,,,,,,,,,,,,PF,strong,3,,,,,,,,3,1.361075,,,,,,,,,,,,,,,,,,,,,,,,,,,4,strong,-39.79296875,-75.21484375,1,0,0,response5disk,6,94,-3.36328125,27.3359375,1,0,0,rectangle,-3.36328125,27.3359375,1,0,0,4,5,0.00071,-3.36328125,27.3359375,1,0,0,0,93,93,122,1,0,,,,,,,,,,,,,,,,,,,,,
,,,,,,,,,,,,,,,,,,,,,,,,,,,,,,,,,,,,,,,,,,5f2e0553d21e3216a80457b2,606c0d6d674faaea52a59aa4,2021-04-06_02h28.03.825,Colour_Similarity_Experiment,2020.2.10,MacIntel,60,6067542a4a25243f4d7d4fcf,17.18870438,16.66973577,16.66969231,16.66722156,16.66647833,16.66969231,,,,,,,,,,,,,,,,,,,,PF,weak,3,,,,,,,,4,1.62725,,,,,,,,,,,,,,,,,,,,,,,,,,,3,weak,49.3671875,-103.1445313,1,0,0,response3disk,7,95,-20.8125,-5.08203125,1,0,0,rectangle,-20.8125,-5.08203125,1,0,0,4,4,0.000755,-20.8125,-5.08203125,1,0,0,0,94,94,41,1,0,,,,,,,,,,,,,,,,,,,,,
,,,,,,,,,,,,,,,,,,,,,,,,,,,,,,,,,,,,,,,,,,5f2e0553d21e3216a80457b2,606c0d6d674faaea52a59aa4,2021-04-06_02h28.03.825,Colour_Similarity_Experiment,2020.2.10,MacIntel,60,6067542a4a25243f4d7d4fcf,17.18870438,16.66973577,16.66969231,16.66722156,16.66647833,16.66969231,,,,,,,,,,,,,,,,,,,,PF,weak,3,,,,,,,,2,1.422925,,,,,,,,,,,,,,,,,,,,,,,,,,,4,weak,-88.51953125,-57.68359375,1,0,0,response5disk,5,96,-14.1171875,-5.12890625,1,0,0,rectangle,-14.1171875,-5.12890625,1,0,0,4,5,0.00082,-14.1171875,-5.12890625,1,0,0,0,95,95,49,1,0,,,,,,,,,,,,,,,,,,,,,
,,,,,,,,,,,,,,,,,,,,,,,,,,,,,,,,,,,,,,,,,,5f2e0553d21e3216a80457b2,606c0d6d674faaea52a59aa4,2021-04-06_02h28.03.825,Colour_Similarity_Experiment,2020.2.10,MacIntel,60,6067542a4a25243f4d7d4fcf,17.18870438,16.66973577,16.66969231,16.66722156,16.66647833,16.66969231,,,,,,,,,,,,,,,,,,,,PF,strong,3,,,,,,,,5,1.710025,,,,,,,,,,,,,,,,,,,,,,,,,,,2,strong,75.35546875,-25.1875,1,0,0,response3disk,1,97,-11.55078125,-5.8203125,1,0,0,rectangle,-11.55078125,-5.8203125,1,0,0,4,7,0.0008,-11.55078125,-5.8203125,1,0,0,0,96,96,85,1,0,,,,,,,,,,,,,,,,,,,,,
,,,,,,,,,,,,,,,,,,,,,,,,,,,,,,,,,,,,,,,,,,5f2e0553d21e3216a80457b2,606c0d6d674faaea52a59aa4,2021-04-06_02h28.03.825,Colour_Similarity_Experiment,2020.2.10,MacIntel,60,6067542a4a25243f4d7d4fcf,17.18870438,16.66973577,16.66969231,16.66722156,16.66647833,16.66969231,,,,,,,,,,,,,,,,,,,,PF,weak,3,,,,,,,,7,1.360665,,,,,,,,,,,,,,,,,,,,,,,,,,,4,weak,38.484375,91.8515625,1,0,0,response1disk,1,98,-0.58203125,-4.5703125,1,0,0,rectangle,-0.58203125,-4.5703125,1,0,0,4,0,0.00072,-0.58203125,-4.5703125,1,0,0,0,97,97,115,1,0,,,,,,,,,,,,,,,,,,,,,
,,,,,,,,,,,,,,,,,,,,,,,,,,,,,,,,,,,,,,,,,,5f2e0553d21e3216a80457b2,606c0d6d674faaea52a59aa4,2021-04-06_02h28.03.825,Colour_Similarity_Experiment,2020.2.10,MacIntel,60,6067542a4a25243f4d7d4fcf,17.18870438,16.66973577,16.66969231,16.66722156,16.66647833,16.66969231,,,,,,,,,,,,,,,,,,,,PF,weak,3,,,,,,,,4,9.32929,,,,,,,,,,,,,,,,,,,,,,,,,,,9,weak,47.67578125,-94.38671875,1,0,0,response3disk,1,99,9.8203125,-24.75390625,1,0,0,rectangle,9.8203125,-24.75390625,1,0,0,4,2,0.000735,9.8203125,-24.75390625,1,0,0,0,98,98,74,1,0,,,,,,,,,,,,,,,,,,,,,
,,,,,,,,,,,,,,,,,,,,,,,,,,,,,,,,,,,,,,,,,,5f2e0553d21e3216a80457b2,606c0d6d674faaea52a59aa4,2021-04-06_02h28.03.825,Colour_Similarity_Experiment,2020.2.10,MacIntel,60,6067542a4a25243f4d7d4fcf,17.18870438,16.66973577,16.66969231,16.66722156,16.66647833,16.66969231,,,,,,,,,,,,,,,,,,,,PF,weak,3,,,,,,,,3,1.660955,,,,,,,,,,,,,,,,,,,,,,,,,,,2,weak,-37.875,-79.3203125,1,0,0,response5disk,4,100,22.56640625,-9.921875,1,0,0,rectangle,22.56640625,-9.921875,1,0,0,4,1,0.00076,22.56640625,-9.921875,1,0,0,0,99,99,127,1,0,,,,,,,,,,,,,,,,,,,,,
,,,,,,,,,,,,,,,,,,,,,,,,,,,,,,,,,,,,,,,,,,5f2e0553d21e3216a80457b2,606c0d6d674faaea52a59aa4,2021-04-06_02h28.03.825,Colour_Similarity_Experiment,2020.2.10,MacIntel,60,6067542a4a25243f4d7d4fcf,17.18870438,16.66973577,16.66969231,16.66722156,16.66647833,16.66969231,,,,,,,,,,,,,,,,,,,,PF,strong,3,,,,,,,,2,1.99686,,,,,,,,,,,,,,,,,,,,,,,,,,,2,strong,-54.734375,-44.1796875,1,0,0,response5disk,2,101,-3.984375,-7.04296875,1,0,0,rectangle,-3.984375,-7.04296875,1,0,0,4,0,0.001585,-3.984375,-7.04296875,1,0,0,0,100,100,142,1,0,,,,,,,,,,,,,,,,,,,,,
,,,,,,,,,,,,,,,,,,,,,,,,,,,,,,,,,,,,,,,,,,5f2e0553d21e3216a80457b2,606c0d6d674faaea52a59aa4,2021-04-06_02h28.03.825,Colour_Similarity_Experiment,2020.2.10,MacIntel,60,6067542a4a25243f4d7d4fcf,17.18870438,16.66973577,16.66969231,16.66722156,16.66647833,16.66969231,,,,,,,,,,,,,,,,,,,,PF,strong,3,,,,,,,,7,1.794995,,,,,,,,,,,,,,,,,,,,,,,,,,,4,strong,58.67578125,109.7890625,1,0,0,response1disk,8,102,13.16796875,1.625,1,0,0,rectangle,13.16796875,1.625,1,0,0,4,7,0.000735,13.16796875,1.625,1,0,0,0,101,101,35,1,0,,,,,,,,,,,,,,,,,,,,,
,,,,,,,,,,,,,,,,,,,,,,,,,,,,,,,,,,,,,,,,,,5f2e0553d21e3216a80457b2,606c0d6d674faaea52a59aa4,2021-04-06_02h28.03.825,Colour_Similarity_Experiment,2020.2.10,MacIntel,60,6067542a4a25243f4d7d4fcf,17.18870438,16.66973577,16.66969231,16.66722156,16.66647833,16.66969231,,,,,,,,,,,,,,,,,,,,PF,weak,3,,,,,,,,7,1.24068,,,,,,,,,,,,,,,,,,,,,,,,,,,9,weak,33.9921875,69.41796875,1,0,0,response1disk,3,103,-1.95703125,5.64453125,1,0,0,rectangle,-1.95703125,5.64453125,1,0,0,4,3,0.00078,-1.95703125,5.64453125,1,0,0,0,102,102,119,1,0,,,,,,,,,,,,,,,,,,,,,
,,,,,,,,,,,,,,,,,,,,,,,,,,,,,,,,,,,,,,,,,,5f2e0553d21e3216a80457b2,606c0d6d674faaea52a59aa4,2021-04-06_02h28.03.825,Colour_Similarity_Experiment,2020.2.10,MacIntel,60,6067542a4a25243f4d7d4fcf,17.18870438,16.66973577,16.66969231,16.66722156,16.66647833,16.66969231,,,,,,,,,,,,,,,,,,,,PF,strong,3,,,,,,,,2,1.623745,,,,,,,,,,,,,,,,,,,,,,,,,,,7,strong,-116.1484375,-68.234375,1,0,0,response5disk,5,104,13.26953125,-4.32421875,1,0,0,rectangle,13.26953125,-4.32421875,1,0,0,4,2,0.000815,13.26953125,-4.32421875,1,0,0,0,103,103,156,1,0,,,,,,,,,,,,,,,,,,,,,
,,,,,,,,,,,,,,,,,,,,,,,,,,,,,,,,,,,,,,,,,,5f2e0553d21e3216a80457b2,606c0d6d674faaea52a59aa4,2021-04-06_02h28.03.825,Colour_Similarity_Experiment,2020.2.10,MacIntel,60,6067542a4a25243f4d7d4fcf,17.18870438,16.66973577,16.66969231,16.66722156,16.66647833,16.66969231,,,,,,,,,,,,,,,,,,,,PF,weak,3,,,,,,,,7,1.27653,,,,,,,,,,,,,,,,,,,,,,,,,,,3,weak,70.37890625,71.5234375,1,0,0,response1disk,8,105,3.26953125,-6.9765625,1,0,0,rectangle,3.26953125,-6.9765625,1,0,0,4,2,0.000105,3.26953125,-6.9765625,1,0,0,0,104,104,3,1,0,,,,,,,,,,,,,,,,,,,,,
,,,,,,,,,,,,,,,,,,,,,,,,,,,,,,,,,,,,,,,,,,5f2e0553d21e3216a80457b2,606c0d6d674faaea52a59aa4,2021-04-06_02h28.03.825,Colour_Similarity_Experiment,2020.2.10,MacIntel,60,6067542a4a25243f4d7d4fcf,17.18870438,16.66973577,16.66969231,16.66722156,16.66647833,16.66969231,,,,,,,,,,,,,,,,,,,,PF,weak,3,,,,,,,,2,1.261785,,,,,,,,,,,,,,,,,,,,,,,,,,,4,weak,-57.00390625,-34.85546875,1,0,0,response5disk,7,106,3.4296875,10.0078125,1,0,0,rectangle,3.4296875,10.0078125,1,0,0,4,2,0.0001,3.4296875,10.0078125,1,0,0,0,105,105,38,1,0,,,,,,,,,,,,,,,,,,,,,
,,,,,,,,,,,,,,,,,,,,,,,,,,,,,,,,,,,,,,,,,,5f2e0553d21e3216a80457b2,606c0d6d674faaea52a59aa4,2021-04-06_02h28.03.825,Colour_Similarity_Experiment,2020.2.10,MacIntel,60,6067542a4a25243f4d7d4fcf,17.18870438,16.66973577,16.66969231,16.66722156,16.66647833,16.66969231,,,,,,,,,,,,,,,,,,,,PF,weak,3,,,,,,,,1,2.542695,,,,,,,,,,,,,,,,,,,,,,,,,,,3,weak,-107.1679688,49.31640625,1,0,0,response7disk,4,107,2.87890625,11.48046875,1,0,0,rectangle,2.87890625,11.48046875,1,0,0,4,1,0.00071,2.87890625,11.48046875,1,0,0,0,106,106,30,1,0,,,,,,,,,,,,,,,,,,,,,
,,,,,,,,,,,,,,,,,,,,,,,,,,,,,,,,,,,,,,,,,,5f2e0553d21e3216a80457b2,606c0d6d674faaea52a59aa4,2021-04-06_02h28.03.825,Colour_Similarity_Experiment,2020.2.10,MacIntel,60,6067542a4a25243f4d7d4fcf,17.18870438,16.66973577,16.66969231,16.66722156,16.66647833,16.66969231,,,,,,,,,,,,,,,,,,,,PF,weak,3,,,,,,,,2,1.328875,,,,,,,,,,,,,,,,,,,,,,,,,,,8,weak,-92.40625,-38.58203125,1,0,0,response5disk,7,108,-0.70703125,1.11328125,1,0,0,rectangle,-0.70703125,1.11328125,1,0,0,4,6,0.00083,-0.70703125,1.11328125,1,0,0,0,107,107,23,1,0,,,,,,,,,,,,,,,,,,,,,
,,,,,,,,,,,,,,,,,,,,,,,,,,,,,,,,,,,,,,,,,,5f2e0553d21e3216a80457b2,606c0d6d674faaea52a59aa4,2021-04-06_02h28.03.825,Colour_Similarity_Experiment,2020.2.10,MacIntel,60,6067542a4a25243f4d7d4fcf,17.18870438,16.66973577,16.66969231,16.66722156,16.66647833,16.66969231,,,,,,,,,,,,,,,,,,,,PF,strong,3,,,,,,,,3,2.079195,,,,,,,,,,,,,,,,,,,,,,,,,,,5,strong,-35.12109375,-82.1484375,1,0,0,response5disk,7,109,-24.28125,17.96875,1,0,0,rectangle,-24.28125,17.96875,1,0,0,4,0,0.00074,-24.28125,17.96875,1,0,0,0,108,108,7,1,0,,,,,,,,,,,,,,,,,,,,,
,,,,,,,,,,,,,,,,,,,,,,,,,,,,,,,,,,,,,,,,,,5f2e0553d21e3216a80457b2,606c0d6d674faaea52a59aa4,2021-04-06_02h28.03.825,Colour_Similarity_Experiment,2020.2.10,MacIntel,60,6067542a4a25243f4d7d4fcf,17.18870438,16.66973577,16.66969231,16.66722156,16.66647833,16.66969231,,,,,,,,,,,,,,,,,,,,PF,strong,3,,,,,,,,6,1.72647,,,,,,,,,,,,,,,,,,,,,,,,,,,2,strong,126.3085938,28.59375,1,0,0,response1disk,9,110,-49.5625,-13.78515625,1,0,0,rectangle,-49.5625,-13.78515625,1,0,0,4,5,0.000695,-49.5625,-13.78515625,1,0,0,0,109,109,72,1,0,,,,,,,,,,,,,,,,,,,,,
,,,,,,,,,,,,,,,,,,,,,,,,,,,,,,,,,,,,,,,,,,5f2e0553d21e3216a80457b2,606c0d6d674faaea52a59aa4,2021-04-06_02h28.03.825,Colour_Similarity_Experiment,2020.2.10,MacIntel,60,6067542a4a25243f4d7d4fcf,17.18870438,16.66973577,16.66969231,16.66722156,16.66647833,16.66969231,,,,,,,,,,,,,,,,,,,,PF,strong,3,,,,,,,,3,1.67682,,,,,,,,,,,,,,,,,,,,,,,,,,,4,strong,-31.796875,-82.3984375,1,0,0,response5disk,7,111,-2.921875,10.875,1,0,0,rectangle,-2.921875,10.875,1,0,0,4,3,0.00069,-2.921875,10.875,1,0,0,0,110,110,87,1,0,,,,,,,,,,,,,,,,,,,,,
,,,,,,,,,,,,,,,,,,,,,,,,,,,,,,,,,,,,,,,,,,5f2e0553d21e3216a80457b2,606c0d6d674faaea52a59aa4,2021-04-06_02h28.03.825,Colour_Similarity_Experiment,2020.2.10,MacIntel,60,6067542a4a25243f4d7d4fcf,17.18870438,16.66973577,16.66969231,16.66722156,16.66647833,16.66969231,,,,,,,,,,,,,,,,,,,,PF,strong,3,,,,,,,,0,2.012075,,,,,,,,,,,,,,,,,,,,,,,,,,,3,strong,-47.875,85.2578125,1,0,0,response7disk,3,112,-22.4453125,-15.4296875,1,0,0,rectangle,-22.4453125,-15.4296875,1,0,0,4,1,0.00076,-22.4453125,-15.4296875,1,0,0,0,111,111,68,1,0,,,,,,,,,,,,,,,,,,,,,
,,,,,,,,,,,,,,,,,,,,,,,,,,,,,,,,,,,,,,,,,,5f2e0553d21e3216a80457b2,606c0d6d674faaea52a59aa4,2021-04-06_02h28.03.825,Colour_Similarity_Experiment,2020.2.10,MacIntel,60,6067542a4a25243f4d7d4fcf,17.18870438,16.66973577,16.66969231,16.66722156,16.66647833,16.66969231,,,,,,,,,,,,,,,,,,,,PF,weak,3,,,,,,,,3,2.627635,,,,,,,,,,,,,,,,,,,,,,,,,,,3,weak,-75.63671875,-98.44921875,1,0,0,response5disk,5,113,-36.8515625,-28.59375,1,0,0,rectangle,-36.8515625,-28.59375,1,0,0,4,2,0.00071,-36.8515625,-28.59375,1,0,0,0,112,112,66,1,0,,,,,,,,,,,,,,,,,,,,,
,,,,,,,,,,,,,,,,,,,,,,,,,,,,,,,,,,,,,,,,,,5f2e0553d21e3216a80457b2,606c0d6d674faaea52a59aa4,2021-04-06_02h28.03.825,Colour_Similarity_Experiment,2020.2.10,MacIntel,60,6067542a4a25243f4d7d4fcf,17.18870438,16.66973577,16.66969231,16.66722156,16.66647833,16.66969231,,,,,,,,,,,,,,,,,,,,PF,weak,3,,,,,,,,1,2.631565,,,,,,,,,,,,,,,,,,,,,,,,,,,5,weak,-123.1054688,41.4453125,1,0,0,response7disk,6,114,3.80078125,-1.8515625,1,0,0,rectangle,3.80078125,-1.8515625,1,0,0,4,1,0.00074,3.80078125,-1.8515625,1,0,0,0,113,113,103,1,0,,,,,,,,,,,,,,,,,,,,,
,,,,,,,,,,,,,,,,,,,,,,,,,,,,,,,,,,,,,,,,,,5f2e0553d21e3216a80457b2,606c0d6d674faaea52a59aa4,2021-04-06_02h28.03.825,Colour_Similarity_Experiment,2020.2.10,MacIntel,60,6067542a4a25243f4d7d4fcf,17.18870438,16.66973577,16.66969231,16.66722156,16.66647833,16.66969231,,,,,,,,,,,,,,,,,,,,PF,weak,3,,,,,,,,0,0.927965,,,,,,,,,,,,,,,,,,,,,,,,,,,9,weak,-40.48828125,105.890625,1,0,0,response7disk,9,115,-19.94140625,12.59765625,1,0,0,rectangle,-19.94140625,12.59765625,1,0,0,4,3,0.00078,-19.94140625,12.59765625,1,0,0,0,114,114,106,1,0,,,,,,,,,,,,,,,,,,,,,
,,,,,,,,,,,,,,,,,,,,,,,,,,,,,,,,,,,,,,,,,,5f2e0553d21e3216a80457b2,606c0d6d674faaea52a59aa4,2021-04-06_02h28.03.825,Colour_Similarity_Experiment,2020.2.10,MacIntel,60,6067542a4a25243f4d7d4fcf,17.18870438,16.66973577,16.66969231,16.66722156,16.66647833,16.66969231,,,,,,,,,,,,,,,,,,,,PF,strong,3,,,,,,,,0,1.16252,,,,,,,,,,,,,,,,,,,,,,,,,,,3,strong,-40.14453125,77.31640625,1,0,0,response7disk,4,116,7.78515625,-4.1328125,1,0,0,rectangle,7.78515625,-4.1328125,1,0,0,4,3,9.5E-05,7.78515625,-4.1328125,1,0,0,0,115,115,110,1,0,,,,,,,,,,,,,,,,,,,,,
,,,,,,,,,,,,,,,,,,,,,,,,,,,,,,,,,,,,,,,,,,5f2e0553d21e3216a80457b2,606c0d6d674faaea52a59aa4,2021-04-06_02h28.03.825,Colour_Similarity_Experiment,2020.2.10,MacIntel,60,6067542a4a25243f4d7d4fcf,17.18870438,16.66973577,16.66969231,16.66722156,16.66647833,16.66969231,,,,,,,,,,,,,,,,,,,,PF,strong,3,,,,,,,,3,2.082245,,,,,,,,,,,,,,,,,,,,,,,,,,,7,strong,-42.43359375,-90.0546875,1,0,0,response5disk,4,117,-10.8203125,19.875,1,0,0,rectangle,-10.8203125,19.875,1,0,0,4,5,0.00075,-10.8203125,19.875,1,0,0,0,116,116,158,1,0,,,,,,,,,,,,,,,,,,,,,
,,,,,,,,,,,,,,,,,,,,,,,,,,,,,,,,,,,,,,,,,,5f2e0553d21e3216a80457b2,606c0d6d674faaea52a59aa4,2021-04-06_02h28.03.825,Colour_Similarity_Experiment,2020.2.10,MacIntel,60,6067542a4a25243f4d7d4fcf,17.18870438,16.66973577,16.66969231,16.66722156,16.66647833,16.66969231,,,,,,,,,,,,,,,,,,,,PF,strong,3,,,,,,,,1,1.263305,,,,,,,,,,,,,,,,,,,,,,,,,,,9,strong,-86.1171875,44.91015625,1,0,0,response7disk,9,118,-4.2890625,11.12890625,1,0,0,rectangle,-4.2890625,11.12890625,1,0,0,4,7,0.00074,-4.2890625,11.12890625,1,0,0,0,117,117,17,1,0,,,,,,,,,,,,,,,,,,,,,
,,,,,,,,,,,,,,,,,,,,,,,,,,,,,,,,,,,,,,,,,,5f2e0553d21e3216a80457b2,606c0d6d674faaea52a59aa4,2021-04-06_02h28.03.825,Colour_Similarity_Experiment,2020.2.10,MacIntel,60,6067542a4a25243f4d7d4fcf,17.18870438,16.66973577,16.66969231,16.66722156,16.66647833,16.66969231,,,,,,,,,,,,,,,,,,,,PF,weak,3,,,,,,,,0,0.77817,,,,,,,,,,,,,,,,,,,,,,,,,,,1,weak,-57.9609375,119.4492188,1,0,0,response7disk,1,119,-11.15234375,21.15234375,1,0,0,rectangle,-89.203125,-43.5390625,1,0,0,4,2,1.550555,-13.5390625,-9.18359375,1,0,0,0,118,118,76,1,1,response5disk_3,rectangle,,,,,,,,,,,,,,,,,,,
,,,,,,,,,,,,,,,,,,,,,,,,,,,,,,,,,,,,,,,,,,5f2e0553d21e3216a80457b2,606c0d6d674faaea52a59aa4,2021-04-06_02h28.03.825,Colour_Similarity_Experiment,2020.2.10,MacIntel,60,6067542a4a25243f4d7d4fcf,17.18870438,16.66973577,16.66969231,16.66722156,16.66647833,16.66969231,,,,,,,,,,,,,,,,,,,,PF,strong,3,,,,,,,,7,1.646285,,,,,,,,,,,,,,,,,,,,,,,,,,,5,strong,58.95703125,65.01171875,1,0,0,response1disk,1,120,29.4453125,-6.38671875,1,0,0,rectangle,29.4453125,-6.38671875,1,0,0,4,7,0.000775,29.4453125,-6.38671875,1,0,0,0,119,119,131,1,0,,,,,,,,,,,,,,,,,,,,,
,,,,,,,,,,,,,,,,,,,,,,,,,,,,,,,,,,,,,,,,,,5f2e0553d21e3216a80457b2,606c0d6d674faaea52a59aa4,2021-04-06_02h28.03.825,Colour_Similarity_Experiment,2020.2.10,MacIntel,60,6067542a4a25243f4d7d4fcf,17.18870438,16.66973577,16.66969231,16.66722156,16.66647833,16.66969231,,,,,,,,,,,,,,,,,,,,PF,strong,3,,,,,,,,2,1.64674,,,,,,,,,,,,,,,,,,,,,,,,,,,2,strong,-117.7226563,-49.5390625,1,0,0,response5disk,3,121,-15.0234375,-4.03515625,1,0,0,rectangle,95.86328125,62.2734375,1,0,0,6,6,2.200355,4.9296875,1.3046875,1,0,0,0,120,120,104,1,1,response1disk_3,rectangle,,,,,,,,,,,,,,,,,,,
,,,,,,,,,,,,,,,,,,,,,,,,,,,,,,,,,,,,,,,,,,5f2e0553d21e3216a80457b2,606c0d6d674faaea52a59aa4,2021-04-06_02h28.03.825,Colour_Similarity_Experiment,2020.2.10,MacIntel,60,6067542a4a25243f4d7d4fcf,17.18870438,16.66973577,16.66969231,16.66722156,16.66647833,16.66969231,,,,,,,,,,,,,,,,,,,,PF,strong,3,,,,,,,,2,1.38179,,,,,,,,,,,,,,,,,,,,,,,,,,,5,strong,-100.1757813,-64.68359375,1,0,0,response5disk,4,122,20.15234375,-6.40234375,1,0,0,rectangle,20.15234375,-6.40234375,1,0,0,6,0,0.000745,20.15234375,-6.40234375,1,0,0,0,121,121,8,1,0,,,,,,,,,,,,,,,,,,,,,
,,,,,,,,,,,,,,,,,,,,,,,,,,,,,,,,,,,,,,,,,,5f2e0553d21e3216a80457b2,606c0d6d674faaea52a59aa4,2021-04-06_02h28.03.825,Colour_Similarity_Experiment,2020.2.10,MacIntel,60,6067542a4a25243f4d7d4fcf,17.18870438,16.66973577,16.66969231,16.66722156,16.66647833,16.66969231,,,,,,,,,,,,,,,,,,,,PF,weak,3,,,,,,,,7,0.977345,,,,,,,,,,,,,,,,,,,,,,,,,,,8,weak,84.99609375,90.3203125,1,0,0,response1disk,4,123,33.640625,-10.25,1,0,0,rectangle,33.640625,-10.25,1,0,0,6,1,0.000855,33.640625,-10.25,1,0,0,0,122,122,78,1,0,,,,,,,,,,,,,,,,,,,,,
,,,,,,,,,,,,,,,,,,,,,,,,,,,,,,,,,,,,,,,,,,5f2e0553d21e3216a80457b2,606c0d6d674faaea52a59aa4,2021-04-06_02h28.03.825,Colour_Similarity_Experiment,2020.2.10,MacIntel,60,6067542a4a25243f4d7d4fcf,17.18870438,16.66973577,16.66969231,16.66722156,16.66647833,16.66969231,,,,,,,,,,,,,,,,,,,,PF,weak,3,,,,,,,,2,1.57692,,,,,,,,,,,,,,,,,,,,,,,,,,,7,weak,-88.0234375,-47.4453125,1,0,0,response5disk,6,124,-13.12890625,1.39453125,1,0,0,rectangle,-13.12890625,1.39453125,1,0,0,6,7,0.00076,-13.12890625,1.39453125,1,0,0,0,123,123,29,1,0,,,,,,,,,,,,,,,,,,,,,
,,,,,,,,,,,,,,,,,,,,,,,,,,,,,,,,,,,,,,,,,,5f2e0553d21e3216a80457b2,606c0d6d674faaea52a59aa4,2021-04-06_02h28.03.825,Colour_Similarity_Experiment,2020.2.10,MacIntel,60,6067542a4a25243f4d7d4fcf,17.18870438,16.66973577,16.66969231,16.66722156,16.66647833,16.66969231,,,,,,,,,,,,,,,,,,,,PF,strong,3,,,,,,,,3,1.38286,,,,,,,,,,,,,,,,,,,,,,,,,,,7,strong,-50.28125,-119.0898438,1,0,0,response5disk,8,125,-12.81640625,-11.16015625,1,0,0,rectangle,41.8125,-120.2382813,1,0,0,4,4,1.385545,14.01953125,-0.19140625,1,0,0,0,124,124,97,1,1,response3disk_3,rectangle,,,,,,,,,,,,,,,,,,,
,,,,,,,,,,,,,,,,,,,,,,,,,,,,,,,,,,,,,,,,,,5f2e0553d21e3216a80457b2,606c0d6d674faaea52a59aa4,2021-04-06_02h28.03.825,Colour_Similarity_Experiment,2020.2.10,MacIntel,60,6067542a4a25243f4d7d4fcf,17.18870438,16.66973577,16.66969231,16.66722156,16.66647833,16.66969231,,,,,,,,,,,,,,,,,,,,PF,strong,3,,,,,,,,1,1.061865,,,,,,,,,,,,,,,,,,,,,,,,,,,5,strong,-151.2890625,62.04296875,1,0,0,response7disk,5,126,8.99609375,17.24609375,1,0,0,rectangle,8.99609375,17.24609375,1,0,0,4,0,0.00074,8.99609375,17.24609375,1,0,0,0,125,125,19,1,0,,,,,,,,,,,,,,,,,,,,,
,,,,,,,,,,,,,,,,,,,,,,,,,,,,,,,,,,,,,,,,,,5f2e0553d21e3216a80457b2,606c0d6d674faaea52a59aa4,2021-04-06_02h28.03.825,Colour_Similarity_Experiment,2020.2.10,MacIntel,60,6067542a4a25243f4d7d4fcf,17.18870438,16.66973577,16.66969231,16.66722156,16.66647833,16.66969231,,,,,,,,,,,,,,,,,,,,PF,strong,3,,,,,,,,2,1.329635,,,,,,,,,,,,,,,,,,,,,,,,,,,9,strong,-111.5585938,-61.03125,1,0,0,response5disk,8,127,-12.33203125,-21.46484375,1,0,0,rectangle,-12.33203125,-21.46484375,1,0,0,4,5,0.000685,-12.33203125,-21.46484375,1,0,0,0,126,126,6,1,0,,,,,,,,,,,,,,,,,,,,,
,,,,,,,,,,,,,,,,,,,,,,,,,,,,,,,,,,,,,,,,,,5f2e0553d21e3216a80457b2,606c0d6d674faaea52a59aa4,2021-04-06_02h28.03.825,Colour_Similarity_Experiment,2020.2.10,MacIntel,60,6067542a4a25243f4d7d4fcf,17.18870438,16.66973577,16.66969231,16.66722156,16.66647833,16.66969231,,,,,,,,,,,,,,,,,,,,PF,strong,3,,,,,,,,2,1.494295,,,,,,,,,,,,,,,,,,,,,,,,,,,6,strong,-62.7578125,-49.11328125,1,0,0,response5disk,6,128,-7.4765625,-8.46875,1,0,0,rectangle,-7.4765625,-8.46875,1,0,0,4,3,0.000715,-7.4765625,-8.46875,1,0,0,0,127,127,91,1,0,,,,,,,,,,,,,,,,,,,,,
,,,,,,,,,,,,,,,,,,,,,,,,,,,,,,,,,,,,,,,,,,5f2e0553d21e3216a80457b2,606c0d6d674faaea52a59aa4,2021-04-06_02h28.03.825,Colour_Similarity_Experiment,2020.2.10,MacIntel,60,6067542a4a25243f4d7d4fcf,17.18870438,16.66973577,16.66969231,16.66722156,16.66647833,16.66969231,,,,,,,,,,,,,,,,,,,,PF,strong,3,,,,,,,,7,1.580715,,,,,,,,,,,,,,,,,,,,,,,,,,,3,strong,72.63671875,94.69921875,1,0,0,response1disk,8,129,28.7734375,26.796875,1,0,0,rectangle,28.7734375,26.796875,1,0,0,6,3,0.0001,28.7734375,26.796875,1,0,0,0,128,128,44,1,0,,,,,,,,,,,,,,,,,,,,,
,,,,,,,,,,,,,,,,,,,,,,,,,,,,,,,,,,,,,,,,,,5f2e0553d21e3216a80457b2,606c0d6d674faaea52a59aa4,2021-04-06_02h28.03.825,Colour_Similarity_Experiment,2020.2.10,MacIntel,60,6067542a4a25243f4d7d4fcf,17.18870438,16.66973577,16.66969231,16.66722156,16.66647833,16.66969231,,,,,,,,,,,,,,,,,,,,PF,weak,3,,,,,,,,7,1.126425,,,,,,,,,,,,,,,,,,,,,,,,,,,5,weak,35.51171875,74.6796875,1,0,0,response1disk,1,130,-11.46484375,-0.87109375,1,0,0,rectangle,124.4882813,-62.48046875,1,0,0,5,5,1.533215,-4.10546875,4.73828125,1,0,0,0,129,129,159,1,1,response3disk_3,rectangle,,,,,,,,,,,,,,,,,,,
,,,,,,,,,,,,,,,,,,,,,,,,,,,,,,,,,,,,,,,,,,5f2e0553d21e3216a80457b2,606c0d6d674faaea52a59aa4,2021-04-06_02h28.03.825,Colour_Similarity_Experiment,2020.2.10,MacIntel,60,6067542a4a25243f4d7d4fcf,17.18870438,16.66973577,16.66969231,16.66722156,16.66647833,16.66969231,,,,,,,,,,,,,,,,,,,,PF,weak,3,,,,,,,,7,1.781155,,,,,,,,,,,,,,,,,,,,,,,,,,,5,weak,53.37109375,67.21875,1,0,0,response1disk,8,131,24.5078125,10.62109375,1,0,0,rectangle,24.5078125,10.62109375,1,0,0,5,3,0.000725,24.5078125,10.62109375,1,0,0,0,130,130,149,1,0,,,,,,,,,,,,,,,,,,,,,
,,,,,,,,,,,,,,,,,,,,,,,,,,,,,,,,,,,,,,,,,,5f2e0553d21e3216a80457b2,606c0d6d674faaea52a59aa4,2021-04-06_02h28.03.825,Colour_Similarity_Experiment,2020.2.10,MacIntel,60,6067542a4a25243f4d7d4fcf,17.18870438,16.66973577,16.66969231,16.66722156,16.66647833,16.66969231,,,,,,,,,,,,,,,,,,,,PF,strong,3,,,,,,,,5,2.244295,,,,,,,,,,,,,,,,,,,,,,,,,,,6,strong,76.39453125,-26.34375,1,0,0,response3disk,9,132,-15.0390625,6.609375,1,0,0,rectangle,56.13671875,84.4453125,1,0,0,7,7,1.74888,-6.62890625,6.94140625,1,0,0,0,131,131,160,1,1,response1disk_3,rectangle,,,,,,,,,,,,,,,,,,,
,,,,,,,,,,,,,,,,,,,,,,,,,,,,,,,,,,,,,,,,,,5f2e0553d21e3216a80457b2,606c0d6d674faaea52a59aa4,2021-04-06_02h28.03.825,Colour_Similarity_Experiment,2020.2.10,MacIntel,60,6067542a4a25243f4d7d4fcf,17.18870438,16.66973577,16.66969231,16.66722156,16.66647833,16.66969231,,,,,,,,,,,,,,,,,,,,PF,weak,3,,,,,,,,7,1.748265,,,,,,,,,,,,,,,,,,,,,,,,,,,9,weak,47.04296875,89.0859375,1,0,0,response1disk,6,133,10.68359375,13.89453125,1,0,0,rectangle,10.68359375,13.89453125,1,0,0,7,6,0.00086,10.68359375,13.89453125,1,0,0,0,132,132,148,1,0,,,,,,,,,,,,,,,,,,,,,
,,,,,,,,,,,,,,,,,,,,,,,,,,,,,,,,,,,,,,,,,,5f2e0553d21e3216a80457b2,606c0d6d674faaea52a59aa4,2021-04-06_02h28.03.825,Colour_Similarity_Experiment,2020.2.10,MacIntel,60,6067542a4a25243f4d7d4fcf,17.18870438,16.66973577,16.66969231,16.66722156,16.66647833,16.66969231,,,,,,,,,,,,,,,,,,,,PF,weak,3,,,,,,,,2,1.52805,,,,,,,,,,,,,,,,,,,,,,,,,,,1,weak,-104.109375,-58.4140625,1,0,0,response5disk,9,134,-5.359375,-3.46484375,1,0,0,rectangle,-5.359375,-3.46484375,1,0,0,7,6,0.000855,-5.359375,-3.46484375,1,0,0,0,133,133,15,1,0,,,,,,,,,,,,,,,,,,,,,
,,,,,,,,,,,,,,,,,,,,,,,,,,,,,,,,,,,,,,,,,,5f2e0553d21e3216a80457b2,606c0d6d674faaea52a59aa4,2021-04-06_02h28.03.825,Colour_Similarity_Experiment,2020.2.10,MacIntel,60,6067542a4a25243f4d7d4fcf,17.18870438,16.66973577,16.66969231,16.66722156,16.66647833,16.66969231,,,,,,,,,,,,,,,,,,,,PF,weak,3,,,,,,,,3,1.08006,,,,,,,,,,,,,,,,,,,,,,,,,,,2,weak,-52.16796875,-108.9609375,1,0,0,response5disk,5,135,7.71875,9.265625,1,0,0,rectangle,7.71875,9.265625,1,0,0,7,1,0.001015,7.71875,9.265625,1,0,0,0,134,134,147,1,0,,,,,,,,,,,,,,,,,,,,,
,,,,,,,,,,,,,,,,,,,,,,,,,,,,,,,,,,,,,,,,,,5f2e0553d21e3216a80457b2,606c0d6d674faaea52a59aa4,2021-04-06_02h28.03.825,Colour_Similarity_Experiment,2020.2.10,MacIntel,60,6067542a4a25243f4d7d4fcf,17.18870438,16.66973577,16.66969231,16.66722156,16.66647833,16.66969231,,,,,,,,,,,,,,,,,,,,PF,weak,3,,,,,,,,5,1.842725,,,,,,,,,,,,,,,,,,,,,,,,,,,3,weak,100.3984375,-33.13671875,1,0,0,response3disk,1,136,12.9609375,1.8046875,1,0,0,rectangle,12.9609375,1.8046875,1,0,0,7,7,0.000795,12.9609375,1.8046875,1,0,0,0,135,135,96,1,0,,,,,,,,,,,,,,,,,,,,,
,,,,,,,,,,,,,,,,,,,,,,,,,,,,,,,,,,,,,,,,,,5f2e0553d21e3216a80457b2,606c0d6d674faaea52a59aa4,2021-04-06_02h28.03.825,Colour_Similarity_Experiment,2020.2.10,MacIntel,60,6067542a4a25243f4d7d4fcf,17.18870438,16.66973577,16.66969231,16.66722156,16.66647833,16.66969231,,,,,,,,,,,,,,,,,,,,PF,strong,3,,,,,,,,2,3.365775,,,,,,,,,,,,,,,,,,,,,,,,,,,4,strong,-84.546875,-50.375,1,0,0,response5disk,5,137,33.83984375,8.05078125,1,0,0,rectangle,33.83984375,8.05078125,1,0,0,7,7,9.00001E-05,33.83984375,8.05078125,1,0,0,0,136,136,116,1,0,,,,,,,,,,,,,,,,,,,,,
,,,,,,,,,,,,,,,,,,,,,,,,,,,,,,,,,,,,,,,,,,5f2e0553d21e3216a80457b2,606c0d6d674faaea52a59aa4,2021-04-06_02h28.03.825,Colour_Similarity_Experiment,2020.2.10,MacIntel,60,6067542a4a25243f4d7d4fcf,17.18870438,16.66973577,16.66969231,16.66722156,16.66647833,16.66969231,,,,,,,,,,,,,,,,,,,,PF,weak,3,,,,,,,,4,2.078775,,,,,,,,,,,,,,,,,,,,,,,,,,,9,weak,77.07421875,-128.8789063,1,0,0,response3disk,2,138,13.98046875,-14.921875,1,0,0,rectangle,13.98046875,-14.921875,1,0,0,7,0,0.000715,13.98046875,-14.921875,1,0,0,0,137,137,157,1,0,,,,,,,,,,,,,,,,,,,,,
,,,,,,,,,,,,,,,,,,,,,,,,,,,,,,,,,,,,,,,,,,5f2e0553d21e3216a80457b2,606c0d6d674faaea52a59aa4,2021-04-06_02h28.03.825,Colour_Similarity_Experiment,2020.2.10,MacIntel,60,6067542a4a25243f4d7d4fcf,17.18870438,16.66973577,16.66969231,16.66722156,16.66647833,16.66969231,,,,,,,,,,,,,,,,,,,,PF,strong,3,,,,,,,,3,5.16762,,,,,,,,,,,,,,,,,,,,,,,,,,,8,strong,-36.33203125,-60.87890625,1,0,0,response5disk,4,139,-18.15625,7.72265625,1,0,0,rectangle,-18.15625,7.72265625,1,0,0,7,5,0.0009,-18.15625,7.72265625,1,0,0,0,138,138,88,1,0,,,,,,,,,,,,,,,,,,,,,
,,,,,,,,,,,,,,,,,,,,,,,,,,,,,,,,,,,,,,,,,,5f2e0553d21e3216a80457b2,606c0d6d674faaea52a59aa4,2021-04-06_02h28.03.825,Colour_Similarity_Experiment,2020.2.10,MacIntel,60,6067542a4a25243f4d7d4fcf,17.18870438,16.66973577,16.66969231,16.66722156,16.66647833,16.66969231,,,,,,,,,,,,,,,,,,,,PF,weak,3,,,,,,,,1,1.02849,,,,,,,,,,,,,,,,,,,,,,,,,,,5,weak,-101.8828125,63.0703125,1,0,0,response7disk,3,140,-27.13671875,-6.03515625,1,0,0,rectangle,-27.13671875,-6.03515625,1,0,0,7,7,0.000725,-27.13671875,-6.03515625,1,0,0,0,139,139,109,1,0,,,,,,,,,,,,,,,,,,,,,
,,,,,,,,,,,,,,,,,,,,,,,,,,,,,,,,,,,,,,,,,,5f2e0553d21e3216a80457b2,606c0d6d674faaea52a59aa4,2021-04-06_02h28.03.825,Colour_Similarity_Experiment,2020.2.10,MacIntel,60,6067542a4a25243f4d7d4fcf,17.18870438,16.66973577,16.66969231,16.66722156,16.66647833,16.66969231,,,,,,,,,,,,,,,,,,,,PF,weak,3,,,,,,,,1,0.981495,,,,,,,,,,,,,,,,,,,,,,,,,,,2,weak,-99.67578125,45.84375,1,0,0,response7disk,3,141,3.875,-21.8203125,1,0,0,rectangle,3.875,-21.8203125,1,0,0,7,4,0.000695,3.875,-21.8203125,1,0,0,0,140,140,69,1,0,,,,,,,,,,,,,,,,,,,,,
,,,,,,,,,,,,,,,,,,,,,,,,,,,,,,,,,,,,,,,,,,5f2e0553d21e3216a80457b2,606c0d6d674faaea52a59aa4,2021-04-06_02h28.03.825,Colour_Similarity_Experiment,2020.2.10,MacIntel,60,6067542a4a25243f4d7d4fcf,17.18870438,16.66973577,16.66969231,16.66722156,16.66647833,16.66969231,,,,,,,,,,,,,,,,,,,,PF,strong,3,,,,,,,,2,2.297035,,,,,,,,,,,,,,,,,,,,,,,,,,,6,strong,-104.6523438,-60.5,1,0,0,response5disk,8,142,-3.31640625,-12.33984375,1,0,0,rectangle,-3.31640625,-12.33984375,1,0,0,7,6,0.000665,-3.31640625,-12.33984375,1,0,0,0,141,141,133,1,0,,,,,,,,,,,,,,,,,,,,,
,,,,,,,,,,,,,,,,,,,,,,,,,,,,,,,,,,,,,,,,,,5f2e0553d21e3216a80457b2,606c0d6d674faaea52a59aa4,2021-04-06_02h28.03.825,Colour_Similarity_Experiment,2020.2.10,MacIntel,60,6067542a4a25243f4d7d4fcf,17.18870438,16.66973577,16.66969231,16.66722156,16.66647833,16.66969231,,,,,,,,,,,,,,,,,,,,PF,strong,3,,,,,,,,3,2.75967,,,,,,,,,,,,,,,,,,,,,,,,,,,4,strong,-72.9453125,-92.73828125,1,0,0,response5disk,2,143,-3.83203125,-3.28515625,1,0,0,rectangle,-3.83203125,-3.28515625,1,0,0,7,1,0.00069,-3.83203125,-3.28515625,1,0,0,0,142,142,13,1,0,,,,,,,,,,,,,,,,,,,,,
,,,,,,,,,,,,,,,,,,,,,,,,,,,,,,,,,,,,,,,,,,5f2e0553d21e3216a80457b2,606c0d6d674faaea52a59aa4,2021-04-06_02h28.03.825,Colour_Similarity_Experiment,2020.2.10,MacIntel,60,6067542a4a25243f4d7d4fcf,17.18870438,16.66973577,16.66969231,16.66722156,16.66647833,16.66969231,,,,,,,,,,,,,,,,,,,,PF,strong,3,,,,,,,,7,1.993665,,,,,,,,,,,,,,,,,,,,,,,,,,,2,strong,41.5546875,71.2734375,1,0,0,response1disk,6,144,4.71484375,-15.921875,1,0,0,rectangle,4.71484375,-15.921875,1,0,0,7,1,9.99999E-05,4.71484375,-15.921875,1,0,0,0,143,143,40,1,0,,,,,,,,,,,,,,,,,,,,,
,,,,,,,,,,,,,,,,,,,,,,,,,,,,,,,,,,,,,,,,,,5f2e0553d21e3216a80457b2,606c0d6d674faaea52a59aa4,2021-04-06_02h28.03.825,Colour_Similarity_Experiment,2020.2.10,MacIntel,60,6067542a4a25243f4d7d4fcf,17.18870438,16.66973577,16.66969231,16.66722156,16.66647833,16.66969231,,,,,,,,,,,,,,,,,,,,PF,weak,3,,,,,,,,7,1.97805,,,,,,,,,,,,,,,,,,,,,,,,,,,2,weak,34.85546875,75.33203125,1,0,0,response1disk,9,145,3.12109375,15.30859375,1,0,0,rectangle,3.12109375,15.30859375,1,0,0,7,1,9.99999E-05,3.12109375,15.30859375,1,0,0,0,144,144,39,1,0,,,,,,,,,,,,,,,,,,,,,
,,,,,,,,,,,,,,,,,,,,,,,,,,,,,,,,,,,,,,,,,,5f2e0553d21e3216a80457b2,606c0d6d674faaea52a59aa4,2021-04-06_02h28.03.825,Colour_Similarity_Experiment,2020.2.10,MacIntel,60,6067542a4a25243f4d7d4fcf,17.18870438,16.66973577,16.66969231,16.66722156,16.66647833,16.66969231,,,,,,,,,,,,,,,,,,,,PF,weak,3,,,,,,,,6,1.45958,,,,,,,,,,,,,,,,,,,,,,,,,,,1,weak,105.1953125,65.3515625,1,0,0,response1disk,2,146,8.1640625,12.58203125,1,0,0,rectangle,8.1640625,12.58203125,1,0,0,7,3,0.0007,8.1640625,12.58203125,1,0,0,0,145,145,24,1,0,,,,,,,,,,,,,,,,,,,,,
,,,,,,,,,,,,,,,,,,,,,,,,,,,,,,,,,,,,,,,,,,5f2e0553d21e3216a80457b2,606c0d6d674faaea52a59aa4,2021-04-06_02h28.03.825,Colour_Similarity_Experiment,2020.2.10,MacIntel,60,6067542a4a25243f4d7d4fcf,17.18870438,16.66973577,16.66969231,16.66722156,16.66647833,16.66969231,,,,,,,,,,,,,,,,,,,,PF,weak,3,,,,,,,,0,1.260205,,,,,,,,,,,,,,,,,,,,,,,,,,,6,weak,-43.62890625,106.1914063,1,0,0,response7disk,6,147,-19.80078125,1.15625,1,0,0,rectangle,-19.80078125,1.15625,1,0,0,7,7,0.00067,-19.80078125,1.15625,1,0,0,0,146,146,0,1,0,,,,,,,,,,,,,,,,,,,,,
,,,,,,,,,,,,,,,,,,,,,,,,,,,,,,,,,,,,,,,,,,5f2e0553d21e3216a80457b2,606c0d6d674faaea52a59aa4,2021-04-06_02h28.03.825,Colour_Similarity_Experiment,2020.2.10,MacIntel,60,6067542a4a25243f4d7d4fcf,17.18870438,16.66973577,16.66969231,16.66722156,16.66647833,16.66969231,,,,,,,,,,,,,,,,,,,,PF,strong,3,,,,,,,,6,2.131795,,,,,,,,,,,,,,,,,,,,,,,,,,,1,strong,68.34765625,31.5625,1,0,0,response1disk,2,148,12.26171875,-16.24609375,1,0,0,rectangle,12.26171875,-16.24609375,1,0,0,7,3,0.000675,12.26171875,-16.24609375,1,0,0,0,147,147,2,1,0,,,,,,,,,,,,,,,,,,,,,
,,,,,,,,,,,,,,,,,,,,,,,,,,,,,,,,,,,,,,,,,,5f2e0553d21e3216a80457b2,606c0d6d674faaea52a59aa4,2021-04-06_02h28.03.825,Colour_Similarity_Experiment,2020.2.10,MacIntel,60,6067542a4a25243f4d7d4fcf,17.18870438,16.66973577,16.66969231,16.66722156,16.66647833,16.66969231,,,,,,,,,,,,,,,,,,,,PF,weak,3,,,,,,,,7,2.69447,,,,,,,,,,,,,,,,,,,,,,,,,,,7,weak,53.83203125,60.546875,1,0,0,response1disk,1,149,32.609375,17.140625,1,0,0,rectangle,32.609375,17.140625,1,0,0,7,1,0.000745,32.609375,17.140625,1,0,0,0,148,148,53,1,0,,,,,,,,,,,,,,,,,,,,,
,,,,,,,,,,,,,,,,,,,,,,,,,,,,,,,,,,,,,,,,,,5f2e0553d21e3216a80457b2,606c0d6d674faaea52a59aa4,2021-04-06_02h28.03.825,Colour_Similarity_Experiment,2020.2.10,MacIntel,60,6067542a4a25243f4d7d4fcf,17.18870438,16.66973577,16.66969231,16.66722156,16.66647833,16.66969231,,,,,,,,,,,,,,,,,,,,PF,strong,3,,,,,,,,5,3.06062,,,,,,,,,,,,,,,,,,,,,,,,,,,8,strong,89.47265625,-36.62890625,1,0,0,response3disk,6,150,-20.98828125,1.08984375,1,0,0,rectangle,-20.98828125,1.08984375,1,0,0,7,1,9.5E-05,-20.98828125,1.08984375,1,0,0,0,149,149,37,1,0,,,,,,,,,,,,,,,,,,,,,
,,,,,,,,,,,,,,,,,,,,,,,,,,,,,,,,,,,,,,,,,,5f2e0553d21e3216a80457b2,606c0d6d674faaea52a59aa4,2021-04-06_02h28.03.825,Colour_Similarity_Experiment,2020.2.10,MacIntel,60,6067542a4a25243f4d7d4fcf,17.18870438,16.66973577,16.66969231,16.66722156,16.66647833,16.66969231,,,,,,,,,,,,,,,,,,,,PF,weak,3,,,,,,,,3,1.44722,,,,,,,,,,,,,,,,,,,,,,,,,,,7,weak,-59.55859375,-121.8125,1,0,0,response5disk,8,151,-18.45703125,-6.78125,1,0,0,rectangle,-18.45703125,-6.78125,1,0,0,7,0,0.000795,-18.45703125,-6.78125,1,0,0,0,150,150,140,1,0,,,,,,,,,,,,,,,,,,,,,
,,,,,,,,,,,,,,,,,,,,,,,,,,,,,,,,,,,,,,,,,,5f2e0553d21e3216a80457b2,606c0d6d674faaea52a59aa4,2021-04-06_02h28.03.825,Colour_Similarity_Experiment,2020.2.10,MacIntel,60,6067542a4a25243f4d7d4fcf,17.18870438,16.66973577,16.66969231,16.66722156,16.66647833,16.66969231,,,,,,,,,,,,,,,,,,,,PF,strong,3,,,,,,,,7,1.54514,,,,,,,,,,,,,,,,,,,,,,,,,,,8,strong,42.73828125,96.56640625,1,0,0,response1disk,3,152,3.75390625,9.7890625,1,0,0,rectangle,3.75390625,9.7890625,1,0,0,7,2,0.00073,3.75390625,9.7890625,1,0,0,0,151,151,154,1,0,,,,,,,,,,,,,,,,,,,,,
,,,,,,,,,,,,,,,,,,,,,,,,,,,,,,,,,,,,,,,,,,5f2e0553d21e3216a80457b2,606c0d6d674faaea52a59aa4,2021-04-06_02h28.03.825,Colour_Similarity_Experiment,2020.2.10,MacIntel,60,6067542a4a25243f4d7d4fcf,17.18870438,16.66973577,16.66969231,16.66722156,16.66647833,16.66969231,,,,,,,,,,,,,,,,,,,,PF,strong,3,,,,,,,,3,1.71583,,,,,,,,,,,,,,,,,,,,,,,,,,,8,strong,-40.9296875,-113.0976563,1,0,0,response5disk,7,153,-4.90625,-14.92578125,1,0,0,rectangle,-4.90625,-14.92578125,1,0,0,7,6,0.00081,-4.90625,-14.92578125,1,0,0,0,152,152,86,1,0,,,,,,,,,,,,,,,,,,,,,
,,,,,,,,,,,,,,,,,,,,,,,,,,,,,,,,,,,,,,,,,,5f2e0553d21e3216a80457b2,606c0d6d674faaea52a59aa4,2021-04-06_02h28.03.825,Colour_Similarity_Experiment,2020.2.10,MacIntel,60,6067542a4a25243f4d7d4fcf,17.18870438,16.66973577,16.66969231,16.66722156,16.66647833,16.66969231,,,,,,,,,,,,,,,,,,,,PF,strong,3,,,,,,,,7,1.928545,,,,,,,,,,,,,,,,,,,,,,,,,,,4,strong,38.96484375,88.41015625,1,0,0,response1disk,9,154,-6.0859375,1.59375,1,0,0,rectangle,-6.0859375,1.59375,1,0,0,7,3,0.00071,-6.0859375,1.59375,1,0,0,0,153,153,90,1,0,,,,,,,,,,,,,,,,,,,,,
,,,,,,,,,,,,,,,,,,,,,,,,,,,,,,,,,,,,,,,,,,5f2e0553d21e3216a80457b2,606c0d6d674faaea52a59aa4,2021-04-06_02h28.03.825,Colour_Similarity_Experiment,2020.2.10,MacIntel,60,6067542a4a25243f4d7d4fcf,17.18870438,16.66973577,16.66969231,16.66722156,16.66647833,16.66969231,,,,,,,,,,,,,,,,,,,,PF,strong,3,,,,,,,,5,2.661655,,,,,,,,,,,,,,,,,,,,,,,,,,,1,strong,112.078125,-62.46484375,1,0,0,response3disk,3,155,-11.86328125,-11.83203125,1,0,0,rectangle,-11.86328125,-11.83203125,1,0,0,7,4,0.00075,-11.86328125,-11.83203125,1,0,0,0,154,154,99,1,0,,,,,,,,,,,,,,,,,,,,,
,,,,,,,,,,,,,,,,,,,,,,,,,,,,,,,,,,,,,,,,,,5f2e0553d21e3216a80457b2,606c0d6d674faaea52a59aa4,2021-04-06_02h28.03.825,Colour_Similarity_Experiment,2020.2.10,MacIntel,60,6067542a4a25243f4d7d4fcf,17.18870438,16.66973577,16.66969231,16.66722156,16.66647833,16.66969231,,,,,,,,,,,,,,,,,,,,PF,strong,3,,,,,,,,2,1.481105,,,,,,,,,,,,,,,,,,,,,,,,,,,7,strong,-93.546875,-42.4609375,1,0,0,response5disk,6,156,-26.4140625,2.4453125,1,0,0,rectangle,-26.4140625,2.4453125,1,0,0,7,1,0.000675,-26.4140625,2.4453125,1,0,0,0,155,155,31,1,0,,,,,,,,,,,,,,,,,,,,,
,,,,,,,,,,,,,,,,,,,,,,,,,,,,,,,,,,,,,,,,,,5f2e0553d21e3216a80457b2,606c0d6d674faaea52a59aa4,2021-04-06_02h28.03.825,Colour_Similarity_Experiment,2020.2.10,MacIntel,60,6067542a4a25243f4d7d4fcf,17.18870438,16.66973577,16.66969231,16.66722156,16.66647833,16.66969231,,,,,,,,,,,,,,,,,,,,PF,strong,3,,,,,,,,7,1.916185,,,,,,,,,,,,,,,,,,,,,,,,,,,1,strong,36.08203125,59.94921875,1,0,0,response1disk,6,157,9.55078125,-0.21875,1,0,0,rectangle,9.55078125,-0.21875,1,0,0,7,6,0.000895,9.55078125,-0.21875,1,0,0,0,156,156,58,1,0,,,,,,,,,,,,,,,,,,,,,
,,,,,,,,,,,,,,,,,,,,,,,,,,,,,,,,,,,,,,,,,,5f2e0553d21e3216a80457b2,606c0d6d674faaea52a59aa4,2021-04-06_02h28.03.825,Colour_Similarity_Experiment,2020.2.10,MacIntel,60,6067542a4a25243f4d7d4fcf,17.18870438,16.66973577,16.66969231,16.66722156,16.66647833,16.66969231,,,,,,,,,,,,,,,,,,,,PF,strong,3,,,,,,,,3,5.52644,,,,,,,,,,,,,,,,,,,,,,,,,,,1,strong,-85.66015625,-101.7851563,1,0,0,response5disk,4,158,-16.01171875,12.48046875,1,0,0,rectangle,-16.01171875,12.48046875,1,0,0,7,2,0.00079,-16.01171875,12.48046875,1,0,0,0,157,157,135,1,0,,,,,,,,,,,,,,,,,,,,,
,,,,,,,,,,,,,,,,,,,,,,,,,,,,,,,,,,,,,,,,,,5f2e0553d21e3216a80457b2,606c0d6d674faaea52a59aa4,2021-04-06_02h28.03.825,Colour_Similarity_Experiment,2020.2.10,MacIntel,60,6067542a4a25243f4d7d4fcf,17.18870438,16.66973577,16.66969231,16.66722156,16.66647833,16.66969231,,,,,,,,,,,,,,,,,,,,PF,strong,3,,,,,,,,2,1.663435,,,,,,,,,,,,,,,,,,,,,,,,,,,1,strong,-108.0273438,-50.84375,1,0,0,response5disk,1,159,13.58984375,8.875,1,0,0,rectangle,13.58984375,8.875,1,0,0,7,5,0.000685,13.58984375,8.875,1,0,0,0,158,158,151,1,0,,,,,,,,,,,,,,,,,,,,,
,,,,,,,,,,,,,,,,,,,,,,,,,,,,,,,,,,,,,,,,,,5f2e0553d21e3216a80457b2,606c0d6d674faaea52a59aa4,2021-04-06_02h28.03.825,Colour_Similarity_Experiment,2020.2.10,MacIntel,60,6067542a4a25243f4d7d4fcf,17.18870438,16.66973577,16.66969231,16.66722156,16.66647833,16.66969231,,,,,,,,,,,,,,,,,,,,PF,weak,3,,,,,,,,1,1.013035,,,,,,,,,,,,,,,,,,,,,,,,,,,6,weak,-116.2539063,64.5625,1,0,0,response7disk,7,160,-30.23046875,-1.640625,1,0,0,rectangle,-30.23046875,-1.640625,1,0,0,7,7,0.00071,-30.23046875,-1.640625,1,0,0,0,159,159,50,1,0,,,,,,,,,,,,,,,,,,,,,
,,,,,,,,,,,,,,,,,,,,,,,,,,,,,,,,,,,,,,,,,,5f2e0553d21e3216a80457b2,606c0d6d674faaea52a59aa4,2021-04-06_02h28.03.825,Colour_Similarity_Experiment,2020.2.10,MacIntel,60,6067542a4a25243f4d7d4fcf,17.18870438,16.66973577,16.66969231,16.66722156,16.66647833,16.66969231,,,,,,,,,,,,,,,,,,,,PF,strong,3,,,,,,,,3,1.327045,,,,,,,,,,,,,,,,,,,,,,,,,,,2,strong,-38.828125,-74.28125,1,0,0,response5disk,4,161,5.9296875,22.3203125,1,0,0,rectangle,5.9296875,22.3203125,1,0,0,7,1,0.00076,5.9296875,22.3203125,1,0,0,0,160,160,145,1,0,,,,,,,,,,,,,,,,,,,,,
,,,,,,,,,,,,,,,,,,,,,,,,,,,,,,,,,,,,,,,,,,5f2e0553d21e3216a80457b2,606c0d6d674faaea52a59aa4,2021-04-06_02h28.03.825,Colour_Similarity_Experiment,2020.2.10,MacIntel,60,6067542a4a25243f4d7d4fcf,17.18870438,16.66973577,16.66969231,16.66722156,16.66647833,16.66969231,,,,,,,,,,,,,,,,,,,,PF,weak,3,,,,,,,,2,2.21298,,,,,,,,,,,,,,,,,,,,,,,,,,,7,weak,-107.625,-70.41796875,1,0,0,response5disk,3,162,-8.90234375,-17.26171875,1,0,0,rectangle,-8.90234375,-17.26171875,1,0,0,7,6,0.000715,-8.90234375,-17.26171875,1,0,0,0,161,161,81,1,0,,,,,,,,,,,,,,,,,,,,,
,,,,,,,,,,,,,,,,,,,,,,,,,,,,,,,,,,,,,,,,,,5f2e0553d21e3216a80457b2,606c0d6d674faaea52a59aa4,2021-04-06_02h28.03.825,Colour_Similarity_Experiment,2020.2.10,MacIntel,60,6067542a4a25243f4d7d4fcf,17.18870438,16.66973577,16.66969231,16.66722156,16.66647833,16.66969231,,,,,,,,,,,,,,,,,,,,,,,,,,,,,,,,,,,,,,,,,,,,,,,,,,,,,,,,,,,,,,,,,,,,,,,,,,,,,,,,,,,,,,,,,,,,,,,0,0,0,0,1,,,,,,,,,,,,,,
,,,,,,,,,,,,,,,,,,,,,,,,,,,,,,,,,,,,,,,,,,5f2e0553d21e3216a80457b2,606c0d6d674faaea52a59aa4,2021-04-06_02h28.03.825,Colour_Similarity_Experiment,2020.2.10,MacIntel,60,6067542a4a25243f4d7d4fcf,17.18870438,16.66973577,16.66969231,16.66722156,16.66647833,16.66969231,,,,,,,,,,,,,,,,,,,,PF,strong,3,,,,,,,,7,1.16048,,,,,,,,,,,,,,,,,,,,,,,,,,,4,strong,75.6484375,108.0664063,1,0,0,response1disk,1,163,-21.37109375,-24.4921875,1,0,0,rectangle,-21.37109375,-24.4921875,1,0,0,3,3,0.00073,-21.37109375,-24.4921875,1,0,0,0,0,0,102,1,0,,,,,,,,,,,,,,,,,,,,,
,,,,,,,,,,,,,,,,,,,,,,,,,,,,,,,,,,,,,,,,,,5f2e0553d21e3216a80457b2,606c0d6d674faaea52a59aa4,2021-04-06_02h28.03.825,Colour_Similarity_Experiment,2020.2.10,MacIntel,60,6067542a4a25243f4d7d4fcf,17.18870438,16.66973577,16.66969231,16.66722156,16.66647833,16.66969231,,,,,,,,,,,,,,,,,,,,PF,weak,3,,,,,,,,7,0.911195,,,,,,,,,,,,,,,,,,,,,,,,,,,1,weak,53.296875,75.2890625,1,0,0,response1disk,4,164,-9.0625,6.22265625,1,0,0,rectangle,-9.0625,6.22265625,1,0,0,3,7,0.000685,-9.0625,6.22265625,1,0,0,0,1,1,139,1,0,,,,,,,,,,,,,,,,,,,,,
,,,,,,,,,,,,,,,,,,,,,,,,,,,,,,,,,,,,,,,,,,5f2e0553d21e3216a80457b2,606c0d6d674faaea52a59aa4,2021-04-06_02h28.03.825,Colour_Similarity_Experiment,2020.2.10,MacIntel,60,6067542a4a25243f4d7d4fcf,17.18870438,16.66973577,16.66969231,16.66722156,16.66647833,16.66969231,,,,,,,,,,,,,,,,,,,,PF,strong,3,,,,,,,,3,1.212785,,,,,,,,,,,,,,,,,,,,,,,,,,,5,strong,-54.484375,-116.7578125,1,0,0,response5disk,6,165,-18.47265625,-10.0234375,1,0,0,rectangle,-18.47265625,-10.0234375,1,0,0,3,7,9.5E-05,-18.47265625,-10.0234375,1,0,0,0,2,2,12,1,0,,,,,,,,,,,,,,,,,,,,,
,,,,,,,,,,,,,,,,,,,,,,,,,,,,,,,,,,,,,,,,,,5f2e0553d21e3216a80457b2,606c0d6d674faaea52a59aa4,2021-04-06_02h28.03.825,Colour_Similarity_Experiment,2020.2.10,MacIntel,60,6067542a4a25243f4d7d4fcf,17.18870438,16.66973577,16.66969231,16.66722156,16.66647833,16.66969231,,,,,,,,,,,,,,,,,,,,PF,weak,3,,,,,,,,2,1.515485,,,,,,,,,,,,,,,,,,,,,,,,,,,1,weak,-101.6640625,-52.953125,1,0,0,response5disk,7,166,14.71484375,-0.62109375,1,0,0,rectangle,14.71484375,-0.62109375,1,0,0,3,7,0.000105,14.71484375,-0.62109375,1,0,0,0,3,3,150,1,0,,,,,,,,,,,,,,,,,,,,,
,,,,,,,,,,,,,,,,,,,,,,,,,,,,,,,,,,,,,,,,,,5f2e0553d21e3216a80457b2,606c0d6d674faaea52a59aa4,2021-04-06_02h28.03.825,Colour_Similarity_Experiment,2020.2.10,MacIntel,60,6067542a4a25243f4d7d4fcf,17.18870438,16.66973577,16.66969231,16.66722156,16.66647833,16.66969231,,,,,,,,,,,,,,,,,,,,PF,weak,3,,,,,,,,2,2.811085,,,,,,,,,,,,,,,,,,,,,,,,,,,8,weak,-98.7109375,-56.89453125,1,0,0,response5disk,9,167,-25.0078125,-19.5234375,1,0,0,rectangle,-25.0078125,-19.5234375,1,0,0,3,6,0.000965,-25.0078125,-19.5234375,1,0,0,0,4,4,42,1,0,,,,,,,,,,,,,,,,,,,,,
,,,,,,,,,,,,,,,,,,,,,,,,,,,,,,,,,,,,,,,,,,5f2e0553d21e3216a80457b2,606c0d6d674faaea52a59aa4,2021-04-06_02h28.03.825,Colour_Similarity_Experiment,2020.2.10,MacIntel,60,6067542a4a25243f4d7d4fcf,17.18870438,16.66973577,16.66969231,16.66722156,16.66647833,16.66969231,,,,,,,,,,,,,,,,,,,,PF,strong,3,,,,,,,,4,1.827845,,,,,,,,,,,,,,,,,,,,,,,,,,,1,strong,84.72265625,-135.6953125,1,0,0,response3disk,9,168,-24.53125,-1.8125,1,0,0,rectangle,-24.53125,-1.8125,1,0,0,3,7,0.000885,-24.53125,-1.8125,1,0,0,0,5,5,123,1,0,,,,,,,,,,,,,,,,,,,,,
