key_resp.keys,key_resp.rt,key_resp_16.keys,key_resp_16.rt,key_resp_2.keys,key_resp_2.rt,X Scale,ratio_pxpermm,screen_size_x,screen_size_y,testsize,key_resp_3.keys,key_resp_4.keys,key_resp_4.rt,line_size,key_resp_5.keys,key_resp_5.rt,key_resp_6.keys,key_resp_6.rt,key_resp_8.keys,key_resp_8.rt,key_resp_7.keys,key_resp_7.rt,key_resp_12.keys,key_resp_12.rt,key_resp_11.keys,key_resp_11.rt,key_resp_18.keys,key_resp_18.rt,key_resp_21.keys,key_resp_21.rt,key_resp_13.keys,key_resp_13.rt,key_resp_19.keys,key_resp_19.rt,ballposx,viewer_distance,trials.thisRepN,trials.thisTrialN,trials.thisN,trials.thisIndex,trials.ran,participant,session,date,expName,psychopyVersion,OS,frameRate,study_id,realFrameRate1,realFrameRate2,realFrameRate3,realFrameRate4,realFrameRate5,realFrameRate,viewerdistancecm,DVA_to_distance,radius_F,radius_P,r_F,R_P,key_resp_20.keys,key_resp_20.rt,key_resp_14.keys,key_resp_14.rt,key_resp_15.keys,key_resp_15.rt,key_resp_17.keys,key_resp_17.rt,key_resp_9.keys,key_resp_9.rt,key_resp_10.keys,key_resp_10.rt,Colour_1,Ecc,maskCon,mask_frames,mouse_5.x,mouse_5.y,mouse_5.leftButton,mouse_5.midButton,mouse_5.rightButton,mouse_5.clicked_name,Colour_2,similarity,response_time,mouse_10.x,mouse_10.y,mouse_10.leftButton,mouse_10.midButton,mouse_10.rightButton,mouse_10.clicked_name,mouse_7.x,mouse_7.y,mouse_7.leftButton,mouse_7.midButton,mouse_7.rightButton,catchnumberprac,mouse_6.x,mouse_6.y,mouse_6.leftButton,mouse_6.midButton,mouse_6.rightButton,duringprac.thisRepN,duringprac.thisTrialN,duringprac.thisN,duringprac.thisIndex,duringprac.ran,mouse_7.clicked_name,catchprac,mouse_6.clicked_name,key_resp_22.keys,key_resp_22.rt,Colour1,maskCon1,mouse.x,mouse.y,mouse.leftButton,mouse.midButton,mouse.rightButton,mouse.clicked_name,Colour2,trialnumber,mouse_2.x,mouse_2.y,mouse_2.leftButton,mouse_2.midButton,mouse_2.rightButton,mouse_2.clicked_name,mouse_3.x,mouse_3.y,mouse_3.leftButton,mouse_3.midButton,mouse_3.rightButton,catchresponse,catchnumber,response_time_catch,mouse_11.x,mouse_11.y,mouse_11.leftButton,mouse_11.midButton,mouse_11.rightButton,trials_2.thisRepN,trials_2.thisTrialN,trials_2.thisN,trials_2.thisIndex,trials_2.ran,Catch,mouse_3.clicked_name,mouse_11.clicked_name,trials_3.thisRepN,trials_3.thisTrialN,trials_3.thisN,trials_3.thisIndex,trials_3.ran,answer1,rt1,answer2,rt2,answer3,rt3,answer4,rt4,answer5,rt5,answer6,rt6,answer7,rt7
space,4.427475,space,35.805175,space,12.110055,43.6,4.36,587.1559633,330.2752294,2560,,space,59.41675,87.2,space,22.918585,space,20.349535,space,13.68211,space,8.57867,space,13.9454,space,43.51888,space,36.779705,space,19.58764,space,37.06218,return,3.617425,122.88,860.8798903,0,0,0,0,1,5f477a85d919ec03cadfaddd,606c0c92e1b1c0b9e4268ab5,2021-04-06_09h24.34.059,Colour_Similarity_Experiment,2020.2.10,MacIntel,60,6067542a4a25243f4d7d4fcf,17.06486807,16.68573091,16.67798349,16.67893378,16.67919064,16.67919064,,,,,,,,,,,,,,,,,,,,,,,,,,,,,,,,,,,,,,,,,,,,,,,,,,,,,,,,,,,,,,,,,,,,,,,,,,,,,,,,,,,,,,,,,,,,,,,,,,,,,,,,,,,,,,,,,,
,,,,,,,,,,,,,,,,,,,,,,,,,,,,,,,,,return,3.441295,165.12,820.5261455,1,0,1,0,1,5f477a85d919ec03cadfaddd,606c0c92e1b1c0b9e4268ab5,2021-04-06_09h24.34.059,Colour_Similarity_Experiment,2020.2.10,MacIntel,60,6067542a4a25243f4d7d4fcf,17.06486807,16.68573091,16.67798349,16.67893378,16.67919064,16.67919064,,,,,,,,,,,,,,,,,,,,,,,,,,,,,,,,,,,,,,,,,,,,,,,,,,,,,,,,,,,,,,,,,,,,,,,,,,,,,,,,,,,,,,,,,,,,,,,,,,,,,,,,,,,,,,,,,,
,,,,,,,,,,,,,,,,,,,,,,,,,,,,,,,,,return,3.13989,234.24,754.4927448,2,0,2,0,1,5f477a85d919ec03cadfaddd,606c0c92e1b1c0b9e4268ab5,2021-04-06_09h24.34.059,Colour_Similarity_Experiment,2020.2.10,MacIntel,60,6067542a4a25243f4d7d4fcf,17.06486807,16.68573091,16.67798349,16.67893378,16.67919064,16.67919064,,,,,,,,,,,,,,,,,,,,,,,,,,,,,,,,,,,,,,,,,,,,,,,,,,,,,,,,,,,,,,,,,,,,,,,,,,,,,,,,,,,,,,,,,,,,,,,,,,,,,,,,,,,,,,,,,,
,,,,,,,,,,,,,,,,,,,,,,,,,,,,,,,,,return,3.23698,211.2,776.5038784,3,0,3,0,1,5f477a85d919ec03cadfaddd,606c0c92e1b1c0b9e4268ab5,2021-04-06_09h24.34.059,Colour_Similarity_Experiment,2020.2.10,MacIntel,60,6067542a4a25243f4d7d4fcf,17.06486807,16.68573091,16.67798349,16.67893378,16.67919064,16.67919064,,,,,,,,,,,,,,,,,,,,,,,,,,,,,,,,,,,,,,,,,,,,,,,,,,,,,,,,,,,,,,,,,,,,,,,,,,,,,,,,,,,,,,,,,,,,,,,,,,,,,,,,,,,,,,,,,,
,,,,,,,,,,,,,,,,,,,,,,,,,,,,,,,,,return,3.19157,222.72,765.4983116,4,0,4,0,1,5f477a85d919ec03cadfaddd,606c0c92e1b1c0b9e4268ab5,2021-04-06_09h24.34.059,Colour_Similarity_Experiment,2020.2.10,MacIntel,60,6067542a4a25243f4d7d4fcf,17.06486807,16.68573091,16.67798349,16.67893378,16.67919064,16.67919064,,,,,,,,,,,,,,,,,,,,,,,,,,,,,,,,,,,,,,,,,,,,,,,,,,,,,,,,,,,,,,,,,,,,,,,,,,,,,,,,,,,,,,,,,,,,,,,,,,,,,,,,,,,,,,,,,,
,,,,,,,,,,,,,,,,,,,,,,,,,,,,,,,,,,,,,,,,,,5f477a85d919ec03cadfaddd,606c0c92e1b1c0b9e4268ab5,2021-04-06_09h24.34.059,Colour_Similarity_Experiment,2020.2.10,MacIntel,60,6067542a4a25243f4d7d4fcf,17.06486807,16.68573091,16.67798349,16.67893378,16.67919064,16.67919064,78,13.61494577,89.04174537,593.6116358,59.36116358,267.1252361,space,4.935305,space,45.03097,space,117.959905,space,17.643035,space,50.87459,space,7.857375,8,PF,strong,3,-58.37890625,143.21875,1,0,0,response7disk_5,1,0,14.2434,-9.42578125,-16.25,1,0,0,rectangle_8,-9.42578125,-16.25,1,0,0,3,-9.42578125,-16.25,1,0,0,0,0,0,0,1,,,,,,,,,,,,,,,,,,,,,,,,,,,,,,,,,,,,,,,,,,,,,,,,,,,,,,,,,,,,,
,,,,,,,,,,,,,,,,,,,,,,,,,,,,,,,,,,,,,,,,,,5f477a85d919ec03cadfaddd,606c0c92e1b1c0b9e4268ab5,2021-04-06_09h24.34.059,Colour_Similarity_Experiment,2020.2.10,MacIntel,60,6067542a4a25243f4d7d4fcf,17.06486807,16.68573091,16.67798349,16.67893378,16.67919064,16.67919064,,,,,,,,,,,,,,,,,,,8,PF,strong,3,-53.46875,133.078125,1,0,0,response7disk_5,3,0,4.419925,2.3359375,-6.16796875,1,0,0,rectangle_8,2.3359375,-6.16796875,1,0,0,3,2.3359375,-6.16796875,1,0,0,0,1,1,2,1,,,,,,,,,,,,,,,,,,,,,,,,,,,,,,,,,,,,,,,,,,,,,,,,,,,,,,,,,,,,,
,,,,,,,,,,,,,,,,,,,,,,,,,,,,,,,,,,,,,,,,,,5f477a85d919ec03cadfaddd,606c0c92e1b1c0b9e4268ab5,2021-04-06_09h24.34.059,Colour_Similarity_Experiment,2020.2.10,MacIntel,60,6067542a4a25243f4d7d4fcf,17.06486807,16.68573091,16.67798349,16.67893378,16.67919064,16.67919064,,,,,,,,,,,,,,,,,,,1,PF,weak,3,178.4023438,45.265625,1,0,0,response1disk_5,6,6,8.55805,-19.19921875,-7.265625,1,0,0,rectangle_8,-19.19921875,-7.265625,1,0,0,3,-19.19921875,-7.265625,1,0,0,0,2,2,6,1,,,,,,,,,,,,,,,,,,,,,,,,,,,,,,,,,,,,,,,,,,,,,,,,,,,,,,,,,,,,,
,,,,,,,,,,,,,,,,,,,,,,,,,,,,,,,,,,,,,,,,,,5f477a85d919ec03cadfaddd,606c0c92e1b1c0b9e4268ab5,2021-04-06_09h24.34.059,Colour_Similarity_Experiment,2020.2.10,MacIntel,60,6067542a4a25243f4d7d4fcf,17.06486807,16.68573091,16.67798349,16.67893378,16.67919064,16.67919064,,,,,,,,,,,,,,,,,,,5,PF,strong,3,-93.0390625,-152.6914063,1,0,0,response5disk_5,4,3,4.687735,8.83203125,-1.30859375,1,0,0,rectangle_8,8.83203125,-1.30859375,1,0,0,3,8.83203125,-1.30859375,1,0,0,0,3,3,3,1,,,,,,,,,,,,,,,,,,,,,,,,,,,,,,,,,,,,,,,,,,,,,,,,,,,,,,,,,,,,,
,,,,,,,,,,,,,,,,,,,,,,,,,,,,,,,,,,,,,,,,,,5f477a85d919ec03cadfaddd,606c0c92e1b1c0b9e4268ab5,2021-04-06_09h24.34.059,Colour_Similarity_Experiment,2020.2.10,MacIntel,60,6067542a4a25243f4d7d4fcf,17.06486807,16.68573091,16.67798349,16.67893378,16.67919064,16.67919064,,,,,,,,,,,,,,,,,,,6,PF,weak,3,186.8515625,66.55078125,1,0,0,response1disk_5,8,6,3.94738,29.06640625,-11.59765625,1,0,0,rectangle_8,29.06640625,-11.59765625,1,0,0,3,29.06640625,-11.59765625,1,0,0,0,4,4,4,1,,,,,,,,,,,,,,,,,,,,,,,,,,,,,,,,,,,,,,,,,,,,,,,,,,,,,,,,,,,,,
,,,,,,,,,,,,,,,,,,,,,,,,,,,,,,,,,,,,,,,,,,5f477a85d919ec03cadfaddd,606c0c92e1b1c0b9e4268ab5,2021-04-06_09h24.34.059,Colour_Similarity_Experiment,2020.2.10,MacIntel,60,6067542a4a25243f4d7d4fcf,17.06486807,16.68573091,16.67798349,16.67893378,16.67919064,16.67919064,,,,,,,,,,,,,,,,,,,2,PF,weak,3,-117.4101563,89.703125,1,0,0,response7disk_5,3,1,4.04755,-2.0625,-10.3046875,1,0,0,rectangle_8,-56.3671875,-164.234375,1,0,0,3,4.83984375,-5.15625,1,0,0,0,5,5,1,1,response5disk_7,3,rectangle_4,,,,,,,,,,,,,,,,,,,,,,,,,,,,,,,,,,,,,,,,,,,,,,,,,,,,,,,,,,
,,,,,,,,,,,,,,,,,,,,,,,,,,,,,,,,,,,,,,,,,,5f477a85d919ec03cadfaddd,606c0c92e1b1c0b9e4268ab5,2021-04-06_09h24.34.059,Colour_Similarity_Experiment,2020.2.10,MacIntel,60,6067542a4a25243f4d7d4fcf,17.06486807,16.68573091,16.67798349,16.67893378,16.67919064,16.67919064,,,,,,,,,,,,,,,,,,,2,PF,weak,3,76.34765625,105.8710938,1,0,0,response1disk_5,6,7,7.40563,-2.625,-7.828125,1,0,0,rectangle_8,-2.625,-7.828125,1,0,0,3,-2.625,-7.828125,1,0,0,0,6,6,5,1,,,,,,,,,,,,,,,,,,,,,,,,,,,,,,,,,,,,,,,,,,,,,,,,,,,,,,,,,,,,,
,,,,,,,,,,,,,,,,,,,,,,,,,,,,,,,,,,,,,,,,,,5f477a85d919ec03cadfaddd,606c0c92e1b1c0b9e4268ab5,2021-04-06_09h24.34.059,Colour_Similarity_Experiment,2020.2.10,MacIntel,60,6067542a4a25243f4d7d4fcf,17.06486807,16.68573091,16.67798349,16.67893378,16.67919064,16.67919064,,,,,,,,,,,,,,,,,,,,PF,strong,3,,,,,,,,4,8.689695,,,,,,,,,,,,,,,,,,,,,,,,,,space,9.28996,3,strong,69.64453125,-161.421875,1,0,0,response3disk,7,1,0.54296875,-4.59765625,1,0,0,rectangle,0.54296875,-4.59765625,1,0,0,,5,0.00157,0.54296875,-4.59765625,1,0,0,0,0,0,118,1,0,,,,,,,,,,,,,,,,,,,,,
,,,,,,,,,,,,,,,,,,,,,,,,,,,,,,,,,,,,,,,,,,5f477a85d919ec03cadfaddd,606c0c92e1b1c0b9e4268ab5,2021-04-06_09h24.34.059,Colour_Similarity_Experiment,2020.2.10,MacIntel,60,6067542a4a25243f4d7d4fcf,17.06486807,16.68573091,16.67798349,16.67893378,16.67919064,16.67919064,,,,,,,,,,,,,,,,,,,,PF,weak,3,,,,,,,,6,4.89241,,,,,,,,,,,,,,,,,,,,,,,,,,,,6,weak,150.2617188,116.2382813,1,0,0,response1disk,1,2,-4.83203125,-4.10546875,1,0,0,rectangle,-4.83203125,-4.10546875,1,0,0,,1,0.001085,-4.83203125,-4.10546875,1,0,0,0,1,1,46,1,0,,,,,,,,,,,,,,,,,,,,,
,,,,,,,,,,,,,,,,,,,,,,,,,,,,,,,,,,,,,,,,,,5f477a85d919ec03cadfaddd,606c0c92e1b1c0b9e4268ab5,2021-04-06_09h24.34.059,Colour_Similarity_Experiment,2020.2.10,MacIntel,60,6067542a4a25243f4d7d4fcf,17.06486807,16.68573091,16.67798349,16.67893378,16.67919064,16.67919064,,,,,,,,,,,,,,,,,,,,PF,strong,3,,,,,,,,0,2.618195,,,,,,,,,,,,,,,,,,,,,,,,,,,,3,strong,-60.05859375,117.1171875,1,0,0,response7disk,3,3,-5.55078125,2.1640625,1,0,0,rectangle,-5.55078125,2.1640625,1,0,0,,0,0.00109,-5.55078125,2.1640625,1,0,0,0,2,2,68,1,0,,,,,,,,,,,,,,,,,,,,,
,,,,,,,,,,,,,,,,,,,,,,,,,,,,,,,,,,,,,,,,,,5f477a85d919ec03cadfaddd,606c0c92e1b1c0b9e4268ab5,2021-04-06_09h24.34.059,Colour_Similarity_Experiment,2020.2.10,MacIntel,60,6067542a4a25243f4d7d4fcf,17.06486807,16.68573091,16.67798349,16.67893378,16.67919064,16.67919064,,,,,,,,,,,,,,,,,,,,PF,weak,3,,,,,,,,7,6.33271,,,,,,,,,,,,,,,,,,,,,,,,,,,,9,weak,131.8867188,142.8710938,1,0,0,response1disk,3,4,-3.91015625,-14.203125,1,0,0,rectangle,-3.91015625,-14.203125,1,0,0,,6,0.00099,-3.91015625,-14.203125,1,0,0,0,3,3,119,1,0,,,,,,,,,,,,,,,,,,,,,
,,,,,,,,,,,,,,,,,,,,,,,,,,,,,,,,,,,,,,,,,,5f477a85d919ec03cadfaddd,606c0c92e1b1c0b9e4268ab5,2021-04-06_09h24.34.059,Colour_Similarity_Experiment,2020.2.10,MacIntel,60,6067542a4a25243f4d7d4fcf,17.06486807,16.68573091,16.67798349,16.67893378,16.67919064,16.67919064,,,,,,,,,,,,,,,,,,,,PF,weak,3,,,,,,,,4,3.918,,,,,,,,,,,,,,,,,,,,,,,,,,,,3,weak,76.99609375,-183.9570313,1,0,0,response3disk,4,5,-9.4296875,-6.33984375,1,0,0,rectangle,-9.4296875,-6.33984375,1,0,0,,6,0.000195,-9.4296875,-6.33984375,1,0,0,0,4,4,30,1,0,,,,,,,,,,,,,,,,,,,,,
,,,,,,,,,,,,,,,,,,,,,,,,,,,,,,,,,,,,,,,,,,5f477a85d919ec03cadfaddd,606c0c92e1b1c0b9e4268ab5,2021-04-06_09h24.34.059,Colour_Similarity_Experiment,2020.2.10,MacIntel,60,6067542a4a25243f4d7d4fcf,17.06486807,16.68573091,16.67798349,16.67893378,16.67919064,16.67919064,,,,,,,,,,,,,,,,,,,,PF,weak,3,,,,,,,,6,5.28524,,,,,,,,,,,,,,,,,,,,,,,,,,,,3,weak,169.8515625,58.1953125,1,0,0,response1disk,9,6,-10.8203125,-20.15625,1,0,0,rectangle,-10.8203125,-20.15625,1,0,0,,1,0.00115,-10.8203125,-20.15625,1,0,0,0,5,5,79,1,0,,,,,,,,,,,,,,,,,,,,,
,,,,,,,,,,,,,,,,,,,,,,,,,,,,,,,,,,,,,,,,,,5f477a85d919ec03cadfaddd,606c0c92e1b1c0b9e4268ab5,2021-04-06_09h24.34.059,Colour_Similarity_Experiment,2020.2.10,MacIntel,60,6067542a4a25243f4d7d4fcf,17.06486807,16.68573091,16.67798349,16.67893378,16.67919064,16.67919064,,,,,,,,,,,,,,,,,,,,PF,strong,3,,,,,,,,6,4.45376,,,,,,,,,,,,,,,,,,,,,,,,,,,,3,strong,185.6914063,68.65625,1,0,0,response1disk,4,7,21.3125,-4.23828125,1,0,0,rectangle,21.3125,-4.23828125,1,0,0,,4,0.001045,21.3125,-4.23828125,1,0,0,0,6,6,110,1,0,,,,,,,,,,,,,,,,,,,,,
,,,,,,,,,,,,,,,,,,,,,,,,,,,,,,,,,,,,,,,,,,5f477a85d919ec03cadfaddd,606c0c92e1b1c0b9e4268ab5,2021-04-06_09h24.34.059,Colour_Similarity_Experiment,2020.2.10,MacIntel,60,6067542a4a25243f4d7d4fcf,17.06486807,16.68573091,16.67798349,16.67893378,16.67919064,16.67919064,,,,,,,,,,,,,,,,,,,,PF,weak,3,,,,,,,,7,3.62517,,,,,,,,,,,,,,,,,,,,,,,,,,,,2,weak,109.1054688,141.453125,1,0,0,response1disk,8,8,-2.1640625,-12.1796875,1,0,0,rectangle,-2.1640625,-12.1796875,1,0,0,,4,0.00021,-2.1640625,-12.1796875,1,0,0,0,7,7,52,1,0,,,,,,,,,,,,,,,,,,,,,
,,,,,,,,,,,,,,,,,,,,,,,,,,,,,,,,,,,,,,,,,,5f477a85d919ec03cadfaddd,606c0c92e1b1c0b9e4268ab5,2021-04-06_09h24.34.059,Colour_Similarity_Experiment,2020.2.10,MacIntel,60,6067542a4a25243f4d7d4fcf,17.06486807,16.68573091,16.67798349,16.67893378,16.67919064,16.67919064,,,,,,,,,,,,,,,,,,,,PF,strong,3,,,,,,,,7,2.200515,,,,,,,,,,,,,,,,,,,,,,,,,,,,8,strong,104.1484375,126.2070313,1,0,0,response1disk,3,9,27.3125,-3.953125,1,0,0,rectangle,27.3125,-3.953125,1,0,0,,2,0.00097,27.3125,-3.953125,1,0,0,0,8,8,154,1,0,,,,,,,,,,,,,,,,,,,,,
,,,,,,,,,,,,,,,,,,,,,,,,,,,,,,,,,,,,,,,,,,5f477a85d919ec03cadfaddd,606c0c92e1b1c0b9e4268ab5,2021-04-06_09h24.34.059,Colour_Similarity_Experiment,2020.2.10,MacIntel,60,6067542a4a25243f4d7d4fcf,17.06486807,16.68573091,16.67798349,16.67893378,16.67919064,16.67919064,,,,,,,,,,,,,,,,,,,,PF,strong,3,,,,,,,,6,3.335805,,,,,,,,,,,,,,,,,,,,,,,,,,,,8,strong,192.8242188,81.5078125,1,0,0,response1disk,1,10,8.25390625,-0.7578125,1,0,0,rectangle,8.25390625,-0.7578125,1,0,0,,1,0.001185,8.25390625,-0.7578125,1,0,0,0,9,9,20,1,0,,,,,,,,,,,,,,,,,,,,,
,,,,,,,,,,,,,,,,,,,,,,,,,,,,,,,,,,,,,,,,,,5f477a85d919ec03cadfaddd,606c0c92e1b1c0b9e4268ab5,2021-04-06_09h24.34.059,Colour_Similarity_Experiment,2020.2.10,MacIntel,60,6067542a4a25243f4d7d4fcf,17.06486807,16.68573091,16.67798349,16.67893378,16.67919064,16.67919064,,,,,,,,,,,,,,,,,,,,PF,strong,3,,,,,,,,1,2.385165,,,,,,,,,,,,,,,,,,,,,,,,,,,,6,strong,-142.859375,54.3828125,1,0,0,response7disk,6,11,12.71875,-14.18359375,1,0,0,rectangle,12.71875,-14.18359375,1,0,0,,7,0.001085,12.71875,-14.18359375,1,0,0,0,10,10,91,1,0,,,,,,,,,,,,,,,,,,,,,
,,,,,,,,,,,,,,,,,,,,,,,,,,,,,,,,,,,,,,,,,,5f477a85d919ec03cadfaddd,606c0c92e1b1c0b9e4268ab5,2021-04-06_09h24.34.059,Colour_Similarity_Experiment,2020.2.10,MacIntel,60,6067542a4a25243f4d7d4fcf,17.06486807,16.68573091,16.67798349,16.67893378,16.67919064,16.67919064,,,,,,,,,,,,,,,,,,,,PF,strong,3,,,,,,,,0,1.61762,,,,,,,,,,,,,,,,,,,,,,,,,,,,8,strong,-92.0078125,132.2070313,1,0,0,response7disk,9,12,-13.0546875,6.55078125,1,0,0,rectangle,-13.0546875,6.55078125,1,0,0,,2,0.00103,-13.0546875,6.55078125,1,0,0,0,11,11,105,1,0,,,,,,,,,,,,,,,,,,,,,
,,,,,,,,,,,,,,,,,,,,,,,,,,,,,,,,,,,,,,,,,,5f477a85d919ec03cadfaddd,606c0c92e1b1c0b9e4268ab5,2021-04-06_09h24.34.059,Colour_Similarity_Experiment,2020.2.10,MacIntel,60,6067542a4a25243f4d7d4fcf,17.06486807,16.68573091,16.67798349,16.67893378,16.67919064,16.67919064,,,,,,,,,,,,,,,,,,,,PF,strong,3,,,,,,,,5,4.602925,,,,,,,,,,,,,,,,,,,,,,,,,,,,2,strong,147.1601563,-113.046875,1,0,0,response3disk,8,13,36.26953125,-8.39453125,1,0,0,rectangle,36.26953125,-8.39453125,1,0,0,,0,0.00107,36.26953125,-8.39453125,1,0,0,0,12,12,62,1,0,,,,,,,,,,,,,,,,,,,,,
,,,,,,,,,,,,,,,,,,,,,,,,,,,,,,,,,,,,,,,,,,5f477a85d919ec03cadfaddd,606c0c92e1b1c0b9e4268ab5,2021-04-06_09h24.34.059,Colour_Similarity_Experiment,2020.2.10,MacIntel,60,6067542a4a25243f4d7d4fcf,17.06486807,16.68573091,16.67798349,16.67893378,16.67919064,16.67919064,,,,,,,,,,,,,,,,,,,,PF,weak,3,,,,,,,,6,7.305805,,,,,,,,,,,,,,,,,,,,,,,,,,,,2,weak,135.4179688,129.4257813,1,0,0,response1disk,1,14,-28.12890625,-16.29296875,1,0,0,rectangle,-28.12890625,-16.29296875,1,0,0,,4,0.0011,-28.12890625,-16.29296875,1,0,0,0,13,13,9,1,0,,,,,,,,,,,,,,,,,,,,,
,,,,,,,,,,,,,,,,,,,,,,,,,,,,,,,,,,,,,,,,,,5f477a85d919ec03cadfaddd,606c0c92e1b1c0b9e4268ab5,2021-04-06_09h24.34.059,Colour_Similarity_Experiment,2020.2.10,MacIntel,60,6067542a4a25243f4d7d4fcf,17.06486807,16.68573091,16.67798349,16.67893378,16.67919064,16.67919064,,,,,,,,,,,,,,,,,,,,PF,weak,3,,,,,,,,7,1.41787,,,,,,,,,,,,,,,,,,,,,,,,,,,,9,weak,70.0234375,154.8828125,1,0,0,response1disk,4,15,3.671875,-3.7890625,1,0,0,rectangle,3.671875,-3.7890625,1,0,0,,0,0.001095,3.671875,-3.7890625,1,0,0,0,14,14,114,1,0,,,,,,,,,,,,,,,,,,,,,
,,,,,,,,,,,,,,,,,,,,,,,,,,,,,,,,,,,,,,,,,,5f477a85d919ec03cadfaddd,606c0c92e1b1c0b9e4268ab5,2021-04-06_09h24.34.059,Colour_Similarity_Experiment,2020.2.10,MacIntel,60,6067542a4a25243f4d7d4fcf,17.06486807,16.68573091,16.67798349,16.67893378,16.67919064,16.67919064,,,,,,,,,,,,,,,,,,,,PF,weak,3,,,,,,,,7,1.28271,,,,,,,,,,,,,,,,,,,,,,,,,,,,3,weak,81.4140625,140.0273438,1,0,0,response1disk,8,16,5.4609375,-13.55078125,1,0,0,rectangle,5.4609375,-13.55078125,1,0,0,,4,0.001635,5.4609375,-13.55078125,1,0,0,0,15,15,3,1,0,,,,,,,,,,,,,,,,,,,,,
,,,,,,,,,,,,,,,,,,,,,,,,,,,,,,,,,,,,,,,,,,5f477a85d919ec03cadfaddd,606c0c92e1b1c0b9e4268ab5,2021-04-06_09h24.34.059,Colour_Similarity_Experiment,2020.2.10,MacIntel,60,6067542a4a25243f4d7d4fcf,17.06486807,16.68573091,16.67798349,16.67893378,16.67919064,16.67919064,,,,,,,,,,,,,,,,,,,,PF,weak,3,,,,,,,,1,6.188695,,,,,,,,,,,,,,,,,,,,,,,,,,,,7,weak,-143.2734375,57.04296875,1,0,0,response7disk,7,17,-29.7578125,-15.21875,1,0,0,rectangle,-29.7578125,-15.21875,1,0,0,,2,0.00111,-29.7578125,-15.21875,1,0,0,0,16,16,51,1,0,,,,,,,,,,,,,,,,,,,,,
,,,,,,,,,,,,,,,,,,,,,,,,,,,,,,,,,,,,,,,,,,5f477a85d919ec03cadfaddd,606c0c92e1b1c0b9e4268ab5,2021-04-06_09h24.34.059,Colour_Similarity_Experiment,2020.2.10,MacIntel,60,6067542a4a25243f4d7d4fcf,17.06486807,16.68573091,16.67798349,16.67893378,16.67919064,16.67919064,,,,,,,,,,,,,,,,,,,,PF,weak,3,,,,,,,,6,2.362515,,,,,,,,,,,,,,,,,,,,,,,,,,,,3,weak,141.1367188,80.37890625,1,0,0,response1disk,6,18,15.03515625,1.59765625,1,0,0,rectangle,15.03515625,1.59765625,1,0,0,,4,0.001825,15.03515625,1.59765625,1,0,0,0,17,17,47,1,0,,,,,,,,,,,,,,,,,,,,,
,,,,,,,,,,,,,,,,,,,,,,,,,,,,,,,,,,,,,,,,,,5f477a85d919ec03cadfaddd,606c0c92e1b1c0b9e4268ab5,2021-04-06_09h24.34.059,Colour_Similarity_Experiment,2020.2.10,MacIntel,60,6067542a4a25243f4d7d4fcf,17.06486807,16.68573091,16.67798349,16.67893378,16.67919064,16.67919064,,,,,,,,,,,,,,,,,,,,PF,strong,3,,,,,,,,6,1.46773,,,,,,,,,,,,,,,,,,,,,,,,,,,,6,strong,132.7382813,60.16796875,1,0,0,response1disk,2,19,19.65625,4.23046875,1,0,0,rectangle,19.65625,4.23046875,1,0,0,,3,0.001045,19.65625,4.23046875,1,0,0,0,18,18,112,1,0,,,,,,,,,,,,,,,,,,,,,
,,,,,,,,,,,,,,,,,,,,,,,,,,,,,,,,,,,,,,,,,,5f477a85d919ec03cadfaddd,606c0c92e1b1c0b9e4268ab5,2021-04-06_09h24.34.059,Colour_Similarity_Experiment,2020.2.10,MacIntel,60,6067542a4a25243f4d7d4fcf,17.06486807,16.68573091,16.67798349,16.67893378,16.67919064,16.67919064,,,,,,,,,,,,,,,,,,,,PF,weak,3,,,,,,,,6,9.54001,,,,,,,,,,,,,,,,,,,,,,,,,,,,5,weak,205.9960938,48.58984375,1,0,0,response1disk,7,20,-12.890625,-1.26171875,1,0,0,rectangle,-12.890625,-1.26171875,1,0,0,,2,0.001065,-12.890625,-1.26171875,1,0,0,0,19,19,146,1,0,,,,,,,,,,,,,,,,,,,,,
,,,,,,,,,,,,,,,,,,,,,,,,,,,,,,,,,,,,,,,,,,5f477a85d919ec03cadfaddd,606c0c92e1b1c0b9e4268ab5,2021-04-06_09h24.34.059,Colour_Similarity_Experiment,2020.2.10,MacIntel,60,6067542a4a25243f4d7d4fcf,17.06486807,16.68573091,16.67798349,16.67893378,16.67919064,16.67919064,,,,,,,,,,,,,,,,,,,,PF,weak,3,,,,,,,,6,1.86761,,,,,,,,,,,,,,,,,,,,,,,,,,,,7,weak,144.1679688,62.9765625,1,0,0,response1disk,4,21,13.47265625,-18.58203125,1,0,0,rectangle,13.47265625,-18.58203125,1,0,0,,5,0.00115,13.47265625,-18.58203125,1,0,0,0,20,20,43,1,0,,,,,,,,,,,,,,,,,,,,,
,,,,,,,,,,,,,,,,,,,,,,,,,,,,,,,,,,,,,,,,,,5f477a85d919ec03cadfaddd,606c0c92e1b1c0b9e4268ab5,2021-04-06_09h24.34.059,Colour_Similarity_Experiment,2020.2.10,MacIntel,60,6067542a4a25243f4d7d4fcf,17.06486807,16.68573091,16.67798349,16.67893378,16.67919064,16.67919064,,,,,,,,,,,,,,,,,,,,PF,weak,3,,,,,,,,7,7.116795,,,,,,,,,,,,,,,,,,,,,,,,,,,,5,weak,91.23828125,103.0820313,1,0,0,response1disk,2,22,-0.9609375,-10.0625,1,0,0,rectangle,-0.9609375,-10.0625,1,0,0,,2,0.00106,-0.9609375,-10.0625,1,0,0,0,21,21,129,1,0,,,,,,,,,,,,,,,,,,,,,
,,,,,,,,,,,,,,,,,,,,,,,,,,,,,,,,,,,,,,,,,,5f477a85d919ec03cadfaddd,606c0c92e1b1c0b9e4268ab5,2021-04-06_09h24.34.059,Colour_Similarity_Experiment,2020.2.10,MacIntel,60,6067542a4a25243f4d7d4fcf,17.06486807,16.68573091,16.67798349,16.67893378,16.67919064,16.67919064,,,,,,,,,,,,,,,,,,,,PF,weak,3,,,,,,,,7,4.46908,,,,,,,,,,,,,,,,,,,,,,,,,,,,8,weak,85.1484375,167.1992188,1,0,0,response1disk,6,23,0.2578125,4.296875,1,0,0,rectangle,55.43359375,-127.8945313,1,0,0,4,4,14.27753,-2.74609375,-1.63671875,1,0,0,0,22,22,161,1,1,response3disk_3,rectangle,,,,,,,,,,,,,,,,,,,
,,,,,,,,,,,,,,,,,,,,,,,,,,,,,,,,,,,,,,,,,,5f477a85d919ec03cadfaddd,606c0c92e1b1c0b9e4268ab5,2021-04-06_09h24.34.059,Colour_Similarity_Experiment,2020.2.10,MacIntel,60,6067542a4a25243f4d7d4fcf,17.06486807,16.68573091,16.67798349,16.67893378,16.67919064,16.67919064,,,,,,,,,,,,,,,,,,,,PF,strong,3,,,,,,,,0,1.96803,,,,,,,,,,,,,,,,,,,,,,,,,,,,7,strong,-95.25390625,150.3164063,1,0,0,response7disk,7,24,-7.0390625,-12.890625,1,0,0,rectangle,-7.0390625,-12.890625,1,0,0,4,4,0.00018,-7.0390625,-12.890625,1,0,0,0,23,23,34,1,0,,,,,,,,,,,,,,,,,,,,,
,,,,,,,,,,,,,,,,,,,,,,,,,,,,,,,,,,,,,,,,,,5f477a85d919ec03cadfaddd,606c0c92e1b1c0b9e4268ab5,2021-04-06_09h24.34.059,Colour_Similarity_Experiment,2020.2.10,MacIntel,60,6067542a4a25243f4d7d4fcf,17.06486807,16.68573091,16.67798349,16.67893378,16.67919064,16.67919064,,,,,,,,,,,,,,,,,,,,PF,weak,3,,,,,,,,7,2.996095,,,,,,,,,,,,,,,,,,,,,,,,,,,,7,weak,72.984375,143.8945313,1,0,0,response1disk,2,25,-18.80859375,-19.875,1,0,0,rectangle,-18.80859375,-19.875,1,0,0,4,7,0.0012,-18.80859375,-19.875,1,0,0,0,24,24,32,1,0,,,,,,,,,,,,,,,,,,,,,
,,,,,,,,,,,,,,,,,,,,,,,,,,,,,,,,,,,,,,,,,,5f477a85d919ec03cadfaddd,606c0c92e1b1c0b9e4268ab5,2021-04-06_09h24.34.059,Colour_Similarity_Experiment,2020.2.10,MacIntel,60,6067542a4a25243f4d7d4fcf,17.06486807,16.68573091,16.67798349,16.67893378,16.67919064,16.67919064,,,,,,,,,,,,,,,,,,,,PF,weak,3,,,,,,,,7,1.657735,,,,,,,,,,,,,,,,,,,,,,,,,,,,5,weak,100.078125,129.5234375,1,0,0,response1disk,9,26,-18.171875,-13.40234375,1,0,0,rectangle,-61.04296875,158.0507813,1,0,0,0,0,5.12003,-2.890625,-10.5234375,1,0,0,0,25,25,136,1,1,response7disk_3,rectangle,,,,,,,,,,,,,,,,,,,
,,,,,,,,,,,,,,,,,,,,,,,,,,,,,,,,,,,,,,,,,,5f477a85d919ec03cadfaddd,606c0c92e1b1c0b9e4268ab5,2021-04-06_09h24.34.059,Colour_Similarity_Experiment,2020.2.10,MacIntel,60,6067542a4a25243f4d7d4fcf,17.06486807,16.68573091,16.67798349,16.67893378,16.67919064,16.67919064,,,,,,,,,,,,,,,,,,,,PF,weak,3,,,,,,,,0,1.216965,,,,,,,,,,,,,,,,,,,,,,,,,,,,4,weak,-55.91796875,137.6484375,1,0,0,response7disk,4,27,-14.4609375,-10.41796875,1,0,0,rectangle,-14.4609375,-10.41796875,1,0,0,0,6,0.001125,-14.4609375,-10.41796875,1,0,0,0,26,26,70,1,0,,,,,,,,,,,,,,,,,,,,,
,,,,,,,,,,,,,,,,,,,,,,,,,,,,,,,,,,,,,,,,,,5f477a85d919ec03cadfaddd,606c0c92e1b1c0b9e4268ab5,2021-04-06_09h24.34.059,Colour_Similarity_Experiment,2020.2.10,MacIntel,60,6067542a4a25243f4d7d4fcf,17.06486807,16.68573091,16.67798349,16.67893378,16.67919064,16.67919064,,,,,,,,,,,,,,,,,,,,PF,weak,3,,,,,,,,7,2.4574,,,,,,,,,,,,,,,,,,,,,,,,,,,,2,weak,72.79296875,143.8710938,1,0,0,response1disk,6,28,1.6640625,-7.3359375,1,0,0,rectangle,1.6640625,-7.3359375,1,0,0,0,1,0.001075,1.6640625,-7.3359375,1,0,0,0,27,27,113,1,0,,,,,,,,,,,,,,,,,,,,,
,,,,,,,,,,,,,,,,,,,,,,,,,,,,,,,,,,,,,,,,,,5f477a85d919ec03cadfaddd,606c0c92e1b1c0b9e4268ab5,2021-04-06_09h24.34.059,Colour_Similarity_Experiment,2020.2.10,MacIntel,60,6067542a4a25243f4d7d4fcf,17.06486807,16.68573091,16.67798349,16.67893378,16.67919064,16.67919064,,,,,,,,,,,,,,,,,,,,PF,weak,3,,,,,,,,5,2.95231,,,,,,,,,,,,,,,,,,,,,,,,,,,,5,weak,170.59375,-103.2109375,1,0,0,response3disk,3,29,18.19140625,-5.54296875,1,0,0,rectangle,18.19140625,-5.54296875,1,0,0,0,2,0.001035,18.19140625,-5.54296875,1,0,0,0,28,28,109,1,0,,,,,,,,,,,,,,,,,,,,,
,,,,,,,,,,,,,,,,,,,,,,,,,,,,,,,,,,,,,,,,,,5f477a85d919ec03cadfaddd,606c0c92e1b1c0b9e4268ab5,2021-04-06_09h24.34.059,Colour_Similarity_Experiment,2020.2.10,MacIntel,60,6067542a4a25243f4d7d4fcf,17.06486807,16.68573091,16.67798349,16.67893378,16.67919064,16.67919064,,,,,,,,,,,,,,,,,,,,PF,strong,3,,,,,,,,7,1.53177,,,,,,,,,,,,,,,,,,,,,,,,,,,,4,strong,75.05078125,141.2890625,1,0,0,response1disk,8,30,30.9921875,4.50390625,1,0,0,rectangle,30.9921875,4.50390625,1,0,0,0,7,0.00115,30.9921875,4.50390625,1,0,0,0,29,29,35,1,0,,,,,,,,,,,,,,,,,,,,,
,,,,,,,,,,,,,,,,,,,,,,,,,,,,,,,,,,,,,,,,,,5f477a85d919ec03cadfaddd,606c0c92e1b1c0b9e4268ab5,2021-04-06_09h24.34.059,Colour_Similarity_Experiment,2020.2.10,MacIntel,60,6067542a4a25243f4d7d4fcf,17.06486807,16.68573091,16.67798349,16.67893378,16.67919064,16.67919064,,,,,,,,,,,,,,,,,,,,PF,weak,3,,,,,,,,4,3.95752,,,,,,,,,,,,,,,,,,,,,,,,,,,,8,weak,46.359375,-171.890625,1,0,0,response3disk,1,31,7.92578125,-5.66796875,1,0,0,rectangle,7.92578125,-5.66796875,1,0,0,0,5,0.001075,7.92578125,-5.66796875,1,0,0,0,30,30,57,1,0,,,,,,,,,,,,,,,,,,,,,
,,,,,,,,,,,,,,,,,,,,,,,,,,,,,,,,,,,,,,,,,,5f477a85d919ec03cadfaddd,606c0c92e1b1c0b9e4268ab5,2021-04-06_09h24.34.059,Colour_Similarity_Experiment,2020.2.10,MacIntel,60,6067542a4a25243f4d7d4fcf,17.06486807,16.68573091,16.67798349,16.67893378,16.67919064,16.67919064,,,,,,,,,,,,,,,,,,,,PF,weak,3,,,,,,,,1,2.59068,,,,,,,,,,,,,,,,,,,,,,,,,,,,3,weak,-145.2890625,51.6328125,1,0,0,response7disk,3,32,-5.42578125,-14.32421875,1,0,0,rectangle,-5.42578125,-14.32421875,1,0,0,0,3,0.00096,-5.42578125,-14.32421875,1,0,0,0,31,31,4,1,0,,,,,,,,,,,,,,,,,,,,,
,,,,,,,,,,,,,,,,,,,,,,,,,,,,,,,,,,,,,,,,,,5f477a85d919ec03cadfaddd,606c0c92e1b1c0b9e4268ab5,2021-04-06_09h24.34.059,Colour_Similarity_Experiment,2020.2.10,MacIntel,60,6067542a4a25243f4d7d4fcf,17.06486807,16.68573091,16.67798349,16.67893378,16.67919064,16.67919064,,,,,,,,,,,,,,,,,,,,PF,weak,3,,,,,,,,6,3.19063,,,,,,,,,,,,,,,,,,,,,,,,,,,,6,weak,136.375,115.5625,1,0,0,response1disk,3,33,11.953125,-8.3828125,1,0,0,rectangle,11.953125,-8.3828125,1,0,0,0,3,0.00018,11.953125,-8.3828125,1,0,0,0,32,32,26,1,0,,,,,,,,,,,,,,,,,,,,,
,,,,,,,,,,,,,,,,,,,,,,,,,,,,,,,,,,,,,,,,,,5f477a85d919ec03cadfaddd,606c0c92e1b1c0b9e4268ab5,2021-04-06_09h24.34.059,Colour_Similarity_Experiment,2020.2.10,MacIntel,60,6067542a4a25243f4d7d4fcf,17.06486807,16.68573091,16.67798349,16.67893378,16.67919064,16.67919064,,,,,,,,,,,,,,,,,,,,PF,weak,3,,,,,,,,1,1.93382,,,,,,,,,,,,,,,,,,,,,,,,,,,,6,weak,-169.203125,59.80859375,1,0,0,response7disk,5,34,-22.8359375,-23.5859375,1,0,0,rectangle,-22.8359375,-23.5859375,1,0,0,0,2,0.001105,-22.8359375,-23.5859375,1,0,0,0,33,33,59,1,0,,,,,,,,,,,,,,,,,,,,,
,,,,,,,,,,,,,,,,,,,,,,,,,,,,,,,,,,,,,,,,,,5f477a85d919ec03cadfaddd,606c0c92e1b1c0b9e4268ab5,2021-04-06_09h24.34.059,Colour_Similarity_Experiment,2020.2.10,MacIntel,60,6067542a4a25243f4d7d4fcf,17.06486807,16.68573091,16.67798349,16.67893378,16.67919064,16.67919064,,,,,,,,,,,,,,,,,,,,PF,strong,3,,,,,,,,7,1.80016,,,,,,,,,,,,,,,,,,,,,,,,,,,,1,strong,57.015625,146.3242188,1,0,0,response1disk,6,35,19.375,5.43359375,1,0,0,rectangle,19.375,5.43359375,1,0,0,0,2,0.00014,19.375,5.43359375,1,0,0,0,34,34,58,1,0,,,,,,,,,,,,,,,,,,,,,
,,,,,,,,,,,,,,,,,,,,,,,,,,,,,,,,,,,,,,,,,,5f477a85d919ec03cadfaddd,606c0c92e1b1c0b9e4268ab5,2021-04-06_09h24.34.059,Colour_Similarity_Experiment,2020.2.10,MacIntel,60,6067542a4a25243f4d7d4fcf,17.06486807,16.68573091,16.67798349,16.67893378,16.67919064,16.67919064,,,,,,,,,,,,,,,,,,,,PF,weak,3,,,,,,,,4,2.418965,,,,,,,,,,,,,,,,,,,,,,,,,,,,5,weak,73.3203125,-178.6796875,1,0,0,response3disk,4,36,42.5859375,-12.74609375,1,0,0,rectangle,42.5859375,-12.74609375,1,0,0,0,4,0.00115,42.5859375,-12.74609375,1,0,0,0,35,35,54,1,0,,,,,,,,,,,,,,,,,,,,,
,,,,,,,,,,,,,,,,,,,,,,,,,,,,,,,,,,,,,,,,,,5f477a85d919ec03cadfaddd,606c0c92e1b1c0b9e4268ab5,2021-04-06_09h24.34.059,Colour_Similarity_Experiment,2020.2.10,MacIntel,60,6067542a4a25243f4d7d4fcf,17.06486807,16.68573091,16.67798349,16.67893378,16.67919064,16.67919064,,,,,,,,,,,,,,,,,,,,PF,strong,3,,,,,,,,2,2.66844,,,,,,,,,,,,,,,,,,,,,,,,,,,,2,strong,-154.2421875,-97.75,1,0,0,response5disk,3,37,-0.37890625,-6.92578125,1,0,0,rectangle,-54.18359375,137.5703125,1,0,0,0,0,3.468155,-8.05859375,-0.95703125,1,0,0,0,36,36,104,1,1,response7disk_3,rectangle,,,,,,,,,,,,,,,,,,,
,,,,,,,,,,,,,,,,,,,,,,,,,,,,,,,,,,,,,,,,,,5f477a85d919ec03cadfaddd,606c0c92e1b1c0b9e4268ab5,2021-04-06_09h24.34.059,Colour_Similarity_Experiment,2020.2.10,MacIntel,60,6067542a4a25243f4d7d4fcf,17.06486807,16.68573091,16.67798349,16.67893378,16.67919064,16.67919064,,,,,,,,,,,,,,,,,,,,PF,strong,3,,,,,,,,5,8.41267,,,,,,,,,,,,,,,,,,,,,,,,,,,,1,strong,149.2851563,-120.6796875,1,0,0,response3disk,9,38,-11.27734375,-9.71875,1,0,0,rectangle,-11.27734375,-9.71875,1,0,0,0,3,0.00109,-11.27734375,-9.71875,1,0,0,0,37,37,123,1,0,,,,,,,,,,,,,,,,,,,,,
,,,,,,,,,,,,,,,,,,,,,,,,,,,,,,,,,,,,,,,,,,5f477a85d919ec03cadfaddd,606c0c92e1b1c0b9e4268ab5,2021-04-06_09h24.34.059,Colour_Similarity_Experiment,2020.2.10,MacIntel,60,6067542a4a25243f4d7d4fcf,17.06486807,16.68573091,16.67798349,16.67893378,16.67919064,16.67919064,,,,,,,,,,,,,,,,,,,,PF,strong,3,,,,,,,,7,1.66744,,,,,,,,,,,,,,,,,,,,,,,,,,,,7,strong,72.09765625,153.4140625,1,0,0,response1disk,1,39,8.96875,-9.4140625,1,0,0,rectangle,8.96875,-9.4140625,1,0,0,0,5,0.0011,8.96875,-9.4140625,1,0,0,0,38,38,132,1,0,,,,,,,,,,,,,,,,,,,,,
,,,,,,,,,,,,,,,,,,,,,,,,,,,,,,,,,,,,,,,,,,5f477a85d919ec03cadfaddd,606c0c92e1b1c0b9e4268ab5,2021-04-06_09h24.34.059,Colour_Similarity_Experiment,2020.2.10,MacIntel,60,6067542a4a25243f4d7d4fcf,17.06486807,16.68573091,16.67798349,16.67893378,16.67919064,16.67919064,,,,,,,,,,,,,,,,,,,,PF,strong,3,,,,,,,,7,1.35112,,,,,,,,,,,,,,,,,,,,,,,,,,,,8,strong,106.4179688,146.8164063,1,0,0,response1disk,6,40,6.046875,-1.03515625,1,0,0,rectangle,6.046875,-1.03515625,1,0,0,0,6,0.00185,6.046875,-1.03515625,1,0,0,0,39,39,37,1,0,,,,,,,,,,,,,,,,,,,,,
,,,,,,,,,,,,,,,,,,,,,,,,,,,,,,,,,,,,,,,,,,5f477a85d919ec03cadfaddd,606c0c92e1b1c0b9e4268ab5,2021-04-06_09h24.34.059,Colour_Similarity_Experiment,2020.2.10,MacIntel,60,6067542a4a25243f4d7d4fcf,17.06486807,16.68573091,16.67798349,16.67893378,16.67919064,16.67919064,,,,,,,,,,,,,,,,,,,,PF,weak,3,,,,,,,,5,4.186735,,,,,,,,,,,,,,,,,,,,,,,,,,,,1,weak,138.5585938,-100.4296875,1,0,0,response3disk,8,41,-3.3984375,-6.046875,1,0,0,rectangle,-3.3984375,-6.046875,1,0,0,0,4,0.00109,-3.3984375,-6.046875,1,0,0,0,40,40,65,1,0,,,,,,,,,,,,,,,,,,,,,
,,,,,,,,,,,,,,,,,,,,,,,,,,,,,,,,,,,,,,,,,,5f477a85d919ec03cadfaddd,606c0c92e1b1c0b9e4268ab5,2021-04-06_09h24.34.059,Colour_Similarity_Experiment,2020.2.10,MacIntel,60,6067542a4a25243f4d7d4fcf,17.06486807,16.68573091,16.67798349,16.67893378,16.67919064,16.67919064,,,,,,,,,,,,,,,,,,,,PF,strong,3,,,,,,,,7,3.108715,,,,,,,,,,,,,,,,,,,,,,,,,,,,3,strong,75.078125,182.3164063,1,0,0,response1disk,9,42,9.78125,-2.91015625,1,0,0,rectangle,9.78125,-2.91015625,1,0,0,0,3,0.001045,9.78125,-2.91015625,1,0,0,0,41,41,143,1,0,,,,,,,,,,,,,,,,,,,,,
,,,,,,,,,,,,,,,,,,,,,,,,,,,,,,,,,,,,,,,,,,5f477a85d919ec03cadfaddd,606c0c92e1b1c0b9e4268ab5,2021-04-06_09h24.34.059,Colour_Similarity_Experiment,2020.2.10,MacIntel,60,6067542a4a25243f4d7d4fcf,17.06486807,16.68573091,16.67798349,16.67893378,16.67919064,16.67919064,,,,,,,,,,,,,,,,,,,,PF,weak,3,,,,,,,,7,2.1024,,,,,,,,,,,,,,,,,,,,,,,,,,,,6,weak,106.3828125,163.34375,1,0,0,response1disk,2,43,4.2734375,8.265625,1,0,0,rectangle,4.2734375,8.265625,1,0,0,0,5,0.00102,4.2734375,8.265625,1,0,0,0,42,42,130,1,0,,,,,,,,,,,,,,,,,,,,,
,,,,,,,,,,,,,,,,,,,,,,,,,,,,,,,,,,,,,,,,,,5f477a85d919ec03cadfaddd,606c0c92e1b1c0b9e4268ab5,2021-04-06_09h24.34.059,Colour_Similarity_Experiment,2020.2.10,MacIntel,60,6067542a4a25243f4d7d4fcf,17.06486807,16.68573091,16.67798349,16.67893378,16.67919064,16.67919064,,,,,,,,,,,,,,,,,,,,PF,strong,3,,,,,,,,0,3.803605,,,,,,,,,,,,,,,,,,,,,,,,,,,,1,strong,-97.078125,127.6679688,1,0,0,response7disk,1,44,9.26171875,-8.984375,1,0,0,rectangle,9.26171875,-8.984375,1,0,0,0,1,0.00103,9.26171875,-8.984375,1,0,0,0,43,43,151,1,0,,,,,,,,,,,,,,,,,,,,,
,,,,,,,,,,,,,,,,,,,,,,,,,,,,,,,,,,,,,,,,,,5f477a85d919ec03cadfaddd,606c0c92e1b1c0b9e4268ab5,2021-04-06_09h24.34.059,Colour_Similarity_Experiment,2020.2.10,MacIntel,60,6067542a4a25243f4d7d4fcf,17.06486807,16.68573091,16.67798349,16.67893378,16.67919064,16.67919064,,,,,,,,,,,,,,,,,,,,PF,weak,3,,,,,,,,0,2.4012,,,,,,,,,,,,,,,,,,,,,,,,,,,,8,weak,-102.0859375,171.1367188,1,0,0,response7disk,8,45,2.9609375,-1.16796875,1,0,0,rectangle,2.9609375,-1.16796875,1,0,0,0,5,0.001145,2.9609375,-1.16796875,1,0,0,0,44,44,153,1,0,,,,,,,,,,,,,,,,,,,,,
,,,,,,,,,,,,,,,,,,,,,,,,,,,,,,,,,,,,,,,,,,5f477a85d919ec03cadfaddd,606c0c92e1b1c0b9e4268ab5,2021-04-06_09h24.34.059,Colour_Similarity_Experiment,2020.2.10,MacIntel,60,6067542a4a25243f4d7d4fcf,17.06486807,16.68573091,16.67798349,16.67893378,16.67919064,16.67919064,,,,,,,,,,,,,,,,,,,,PF,weak,3,,,,,,,,7,1.535295,,,,,,,,,,,,,,,,,,,,,,,,,,,,3,weak,76.8125,143.171875,1,0,0,response1disk,1,46,-21.5390625,8.6796875,1,0,0,rectangle,-21.5390625,8.6796875,1,0,0,0,7,0.00101,-21.5390625,8.6796875,1,0,0,0,45,45,96,1,0,,,,,,,,,,,,,,,,,,,,,
,,,,,,,,,,,,,,,,,,,,,,,,,,,,,,,,,,,,,,,,,,5f477a85d919ec03cadfaddd,606c0c92e1b1c0b9e4268ab5,2021-04-06_09h24.34.059,Colour_Similarity_Experiment,2020.2.10,MacIntel,60,6067542a4a25243f4d7d4fcf,17.06486807,16.68573091,16.67798349,16.67893378,16.67919064,16.67919064,,,,,,,,,,,,,,,,,,,,PF,weak,3,,,,,,,,5,2.28412,,,,,,,,,,,,,,,,,,,,,,,,,,,,3,weak,180.2539063,-112.890625,1,0,0,response3disk,5,47,14.83203125,-11.64453125,1,0,0,rectangle,14.83203125,-11.64453125,1,0,0,0,3,0.001055,14.83203125,-11.64453125,1,0,0,0,46,46,66,1,0,,,,,,,,,,,,,,,,,,,,,
,,,,,,,,,,,,,,,,,,,,,,,,,,,,,,,,,,,,,,,,,,5f477a85d919ec03cadfaddd,606c0c92e1b1c0b9e4268ab5,2021-04-06_09h24.34.059,Colour_Similarity_Experiment,2020.2.10,MacIntel,60,6067542a4a25243f4d7d4fcf,17.06486807,16.68573091,16.67798349,16.67893378,16.67919064,16.67919064,,,,,,,,,,,,,,,,,,,,PF,strong,3,,,,,,,,5,6.099265,,,,,,,,,,,,,,,,,,,,,,,,,,,,1,strong,157.7460938,-93.3046875,1,0,0,response3disk,8,48,35.6171875,-0.78125,1,0,0,rectangle,35.6171875,-0.78125,1,0,0,0,3,0.001395,35.6171875,-0.78125,1,0,0,0,47,47,27,1,0,,,,,,,,,,,,,,,,,,,,,
,,,,,,,,,,,,,,,,,,,,,,,,,,,,,,,,,,,,,,,,,,5f477a85d919ec03cadfaddd,606c0c92e1b1c0b9e4268ab5,2021-04-06_09h24.34.059,Colour_Similarity_Experiment,2020.2.10,MacIntel,60,6067542a4a25243f4d7d4fcf,17.06486807,16.68573091,16.67798349,16.67893378,16.67919064,16.67919064,,,,,,,,,,,,,,,,,,,,PF,strong,3,,,,,,,,5,7.148955,,,,,,,,,,,,,,,,,,,,,,,,,,,,5,strong,184.5234375,-77.26953125,1,0,0,response3disk,7,49,25.265625,-6.78515625,1,0,0,rectangle,25.265625,-6.78515625,1,0,0,0,1,0.00103,25.265625,-6.78515625,1,0,0,0,48,48,7,1,0,,,,,,,,,,,,,,,,,,,,,
,,,,,,,,,,,,,,,,,,,,,,,,,,,,,,,,,,,,,,,,,,5f477a85d919ec03cadfaddd,606c0c92e1b1c0b9e4268ab5,2021-04-06_09h24.34.059,Colour_Similarity_Experiment,2020.2.10,MacIntel,60,6067542a4a25243f4d7d4fcf,17.06486807,16.68573091,16.67798349,16.67893378,16.67919064,16.67919064,,,,,,,,,,,,,,,,,,,,PF,weak,3,,,,,,,,6,6.00484,,,,,,,,,,,,,,,,,,,,,,,,,,,,7,weak,163.3828125,62.37109375,1,0,0,response1disk,5,50,-10.734375,-5.83984375,1,0,0,rectangle,-10.734375,-5.83984375,1,0,0,0,5,0.00101,-10.734375,-5.83984375,1,0,0,0,49,49,92,1,0,,,,,,,,,,,,,,,,,,,,,
,,,,,,,,,,,,,,,,,,,,,,,,,,,,,,,,,,,,,,,,,,5f477a85d919ec03cadfaddd,606c0c92e1b1c0b9e4268ab5,2021-04-06_09h24.34.059,Colour_Similarity_Experiment,2020.2.10,MacIntel,60,6067542a4a25243f4d7d4fcf,17.06486807,16.68573091,16.67798349,16.67893378,16.67919064,16.67919064,,,,,,,,,,,,,,,,,,,,PF,strong,3,,,,,,,,6,4.70324,,,,,,,,,,,,,,,,,,,,,,,,,,,,7,strong,183.109375,55.921875,1,0,0,response1disk,5,51,-20.02734375,7.7109375,1,0,0,rectangle,-20.02734375,7.7109375,1,0,0,0,4,0.001155,-20.02734375,7.7109375,1,0,0,0,50,50,156,1,0,,,,,,,,,,,,,,,,,,,,,
,,,,,,,,,,,,,,,,,,,,,,,,,,,,,,,,,,,,,,,,,,5f477a85d919ec03cadfaddd,606c0c92e1b1c0b9e4268ab5,2021-04-06_09h24.34.059,Colour_Similarity_Experiment,2020.2.10,MacIntel,60,6067542a4a25243f4d7d4fcf,17.06486807,16.68573091,16.67798349,16.67893378,16.67919064,16.67919064,,,,,,,,,,,,,,,,,,,,PF,strong,3,,,,,,,,7,2.37303,,,,,,,,,,,,,,,,,,,,,,,,,,,,3,strong,61.94140625,157.3164063,1,0,0,response1disk,5,52,-9.078125,-3.91015625,1,0,0,rectangle,-9.078125,-3.91015625,1,0,0,0,6,0.001075,-9.078125,-3.91015625,1,0,0,0,51,51,101,1,0,,,,,,,,,,,,,,,,,,,,,
,,,,,,,,,,,,,,,,,,,,,,,,,,,,,,,,,,,,,,,,,,5f477a85d919ec03cadfaddd,606c0c92e1b1c0b9e4268ab5,2021-04-06_09h24.34.059,Colour_Similarity_Experiment,2020.2.10,MacIntel,60,6067542a4a25243f4d7d4fcf,17.06486807,16.68573091,16.67798349,16.67893378,16.67919064,16.67919064,,,,,,,,,,,,,,,,,,,,PF,weak,3,,,,,,,,3,4.60355,,,,,,,,,,,,,,,,,,,,,,,,,,,,7,weak,-101.0898438,-131.6523438,1,0,0,response5disk,6,53,7.33984375,4.2734375,1,0,0,rectangle,7.33984375,4.2734375,1,0,0,0,3,0.001,7.33984375,4.2734375,1,0,0,0,52,52,29,1,0,,,,,,,,,,,,,,,,,,,,,
,,,,,,,,,,,,,,,,,,,,,,,,,,,,,,,,,,,,,,,,,,5f477a85d919ec03cadfaddd,606c0c92e1b1c0b9e4268ab5,2021-04-06_09h24.34.059,Colour_Similarity_Experiment,2020.2.10,MacIntel,60,6067542a4a25243f4d7d4fcf,17.06486807,16.68573091,16.67798349,16.67893378,16.67919064,16.67919064,,,,,,,,,,,,,,,,,,,,PF,weak,3,,,,,,,,6,1.76145,,,,,,,,,,,,,,,,,,,,,,,,,,,,1,weak,151.1757813,137.65625,1,0,0,response1disk,5,54,-8.4296875,-4.796875,1,0,0,rectangle,-8.4296875,-4.796875,1,0,0,0,7,0.001085,-8.4296875,-4.796875,1,0,0,0,53,53,28,1,0,,,,,,,,,,,,,,,,,,,,,
,,,,,,,,,,,,,,,,,,,,,,,,,,,,,,,,,,,,,,,,,,5f477a85d919ec03cadfaddd,606c0c92e1b1c0b9e4268ab5,2021-04-06_09h24.34.059,Colour_Similarity_Experiment,2020.2.10,MacIntel,60,6067542a4a25243f4d7d4fcf,17.06486807,16.68573091,16.67798349,16.67893378,16.67919064,16.67919064,,,,,,,,,,,,,,,,,,,,PF,strong,3,,,,,,,,4,3.7087,,,,,,,,,,,,,,,,,,,,,,,,,,,,4,strong,100.4335938,-138.9609375,1,0,0,response3disk,5,55,-5.32421875,-1.19140625,1,0,0,rectangle,-5.32421875,-1.19140625,1,0,0,0,7,0.000145,-5.32421875,-1.19140625,1,0,0,0,54,54,116,1,0,,,,,,,,,,,,,,,,,,,,,
,,,,,,,,,,,,,,,,,,,,,,,,,,,,,,,,,,,,,,,,,,5f477a85d919ec03cadfaddd,606c0c92e1b1c0b9e4268ab5,2021-04-06_09h24.34.059,Colour_Similarity_Experiment,2020.2.10,MacIntel,60,6067542a4a25243f4d7d4fcf,17.06486807,16.68573091,16.67798349,16.67893378,16.67919064,16.67919064,,,,,,,,,,,,,,,,,,,,PF,weak,3,,,,,,,,7,1.816115,,,,,,,,,,,,,,,,,,,,,,,,,,,,1,weak,84.13671875,168.1132813,1,0,0,response1disk,4,56,-8.71875,3.11328125,1,0,0,rectangle,-8.71875,3.11328125,1,0,0,0,5,0.00106,-8.71875,3.11328125,1,0,0,0,55,55,139,1,0,,,,,,,,,,,,,,,,,,,,,
,,,,,,,,,,,,,,,,,,,,,,,,,,,,,,,,,,,,,,,,,,5f477a85d919ec03cadfaddd,606c0c92e1b1c0b9e4268ab5,2021-04-06_09h24.34.059,Colour_Similarity_Experiment,2020.2.10,MacIntel,60,6067542a4a25243f4d7d4fcf,17.06486807,16.68573091,16.67798349,16.67893378,16.67919064,16.67919064,,,,,,,,,,,,,,,,,,,,PF,weak,3,,,,,,,,4,3.48447,,,,,,,,,,,,,,,,,,,,,,,,,,,,8,weak,51.91015625,-164.3632813,1,0,0,response3disk,7,57,7.8125,-4.9140625,1,0,0,rectangle,7.8125,-4.9140625,1,0,0,0,0,0.001065,7.8125,-4.9140625,1,0,0,0,56,56,23,1,0,,,,,,,,,,,,,,,,,,,,,
,,,,,,,,,,,,,,,,,,,,,,,,,,,,,,,,,,,,,,,,,,5f477a85d919ec03cadfaddd,606c0c92e1b1c0b9e4268ab5,2021-04-06_09h24.34.059,Colour_Similarity_Experiment,2020.2.10,MacIntel,60,6067542a4a25243f4d7d4fcf,17.06486807,16.68573091,16.67798349,16.67893378,16.67919064,16.67919064,,,,,,,,,,,,,,,,,,,,PF,weak,3,,,,,,,,1,3.235345,,,,,,,,,,,,,,,,,,,,,,,,,,,,9,weak,-182.8164063,74.8046875,1,0,0,response7disk,9,58,-19.55859375,-7.16796875,1,0,0,rectangle,-19.55859375,-7.16796875,1,0,0,0,0,0.00013,-19.55859375,-7.16796875,1,0,0,0,57,57,106,1,0,,,,,,,,,,,,,,,,,,,,,
,,,,,,,,,,,,,,,,,,,,,,,,,,,,,,,,,,,,,,,,,,5f477a85d919ec03cadfaddd,606c0c92e1b1c0b9e4268ab5,2021-04-06_09h24.34.059,Colour_Similarity_Experiment,2020.2.10,MacIntel,60,6067542a4a25243f4d7d4fcf,17.06486807,16.68573091,16.67798349,16.67893378,16.67919064,16.67919064,,,,,,,,,,,,,,,,,,,,PF,weak,3,,,,,,,,0,1.233675,,,,,,,,,,,,,,,,,,,,,,,,,,,,2,weak,-118.8125,166.59375,1,0,0,response7disk,2,59,-15.6171875,-1.515625,1,0,0,rectangle,-15.6171875,-1.515625,1,0,0,0,7,0.001,-15.6171875,-1.515625,1,0,0,0,58,58,14,1,0,,,,,,,,,,,,,,,,,,,,,
,,,,,,,,,,,,,,,,,,,,,,,,,,,,,,,,,,,,,,,,,,5f477a85d919ec03cadfaddd,606c0c92e1b1c0b9e4268ab5,2021-04-06_09h24.34.059,Colour_Similarity_Experiment,2020.2.10,MacIntel,60,6067542a4a25243f4d7d4fcf,17.06486807,16.68573091,16.67798349,16.67893378,16.67919064,16.67919064,,,,,,,,,,,,,,,,,,,,PF,strong,3,,,,,,,,1,2.10132,,,,,,,,,,,,,,,,,,,,,,,,,,,,2,strong,-164.4648438,76.26953125,1,0,0,response7disk,2,60,-28.05859375,9.515625,1,0,0,rectangle,-28.05859375,9.515625,1,0,0,0,6,0.001085,-28.05859375,9.515625,1,0,0,0,59,59,142,1,0,,,,,,,,,,,,,,,,,,,,,
,,,,,,,,,,,,,,,,,,,,,,,,,,,,,,,,,,,,,,,,,,5f477a85d919ec03cadfaddd,606c0c92e1b1c0b9e4268ab5,2021-04-06_09h24.34.059,Colour_Similarity_Experiment,2020.2.10,MacIntel,60,6067542a4a25243f4d7d4fcf,17.06486807,16.68573091,16.67798349,16.67893378,16.67919064,16.67919064,,,,,,,,,,,,,,,,,,,,PF,strong,3,,,,,,,,7,2.678975,,,,,,,,,,,,,,,,,,,,,,,,,,,,1,strong,61.7578125,198.3945313,1,0,0,response1disk,2,61,11.3515625,-8.20703125,1,0,0,rectangle,11.3515625,-8.20703125,1,0,0,0,2,0.000985,11.3515625,-8.20703125,1,0,0,0,60,60,2,1,0,,,,,,,,,,,,,,,,,,,,,
,,,,,,,,,,,,,,,,,,,,,,,,,,,,,,,,,,,,,,,,,,5f477a85d919ec03cadfaddd,606c0c92e1b1c0b9e4268ab5,2021-04-06_09h24.34.059,Colour_Similarity_Experiment,2020.2.10,MacIntel,60,6067542a4a25243f4d7d4fcf,17.06486807,16.68573091,16.67798349,16.67893378,16.67919064,16.67919064,,,,,,,,,,,,,,,,,,,,PF,strong,3,,,,,,,,3,4.125525,,,,,,,,,,,,,,,,,,,,,,,,,,,,6,strong,-60.16796875,-171.875,1,0,0,response5disk,5,62,7.46875,-9.63671875,1,0,0,rectangle,7.46875,-9.63671875,1,0,0,0,6,0.001025,7.46875,-9.63671875,1,0,0,0,61,61,126,1,0,,,,,,,,,,,,,,,,,,,,,
,,,,,,,,,,,,,,,,,,,,,,,,,,,,,,,,,,,,,,,,,,5f477a85d919ec03cadfaddd,606c0c92e1b1c0b9e4268ab5,2021-04-06_09h24.34.059,Colour_Similarity_Experiment,2020.2.10,MacIntel,60,6067542a4a25243f4d7d4fcf,17.06486807,16.68573091,16.67798349,16.67893378,16.67919064,16.67919064,,,,,,,,,,,,,,,,,,,,PF,strong,3,,,,,,,,6,1.6344,,,,,,,,,,,,,,,,,,,,,,,,,,,,7,strong,179.2734375,83.3828125,1,0,0,response1disk,4,63,22.38671875,-3.0625,1,0,0,rectangle,22.38671875,-3.0625,1,0,0,0,5,0.001225,22.38671875,-3.0625,1,0,0,0,62,62,158,1,0,,,,,,,,,,,,,,,,,,,,,
,,,,,,,,,,,,,,,,,,,,,,,,,,,,,,,,,,,,,,,,,,5f477a85d919ec03cadfaddd,606c0c92e1b1c0b9e4268ab5,2021-04-06_09h24.34.059,Colour_Similarity_Experiment,2020.2.10,MacIntel,60,6067542a4a25243f4d7d4fcf,17.06486807,16.68573091,16.67798349,16.67893378,16.67919064,16.67919064,,,,,,,,,,,,,,,,,,,,PF,strong,3,,,,,,,,7,1.50118,,,,,,,,,,,,,,,,,,,,,,,,,,,,5,strong,66.59375,166.2695313,1,0,0,response1disk,1,64,3.30078125,-16.609375,1,0,0,rectangle,3.30078125,-16.609375,1,0,0,0,2,0.00113,3.30078125,-16.609375,1,0,0,0,63,63,131,1,0,,,,,,,,,,,,,,,,,,,,,
,,,,,,,,,,,,,,,,,,,,,,,,,,,,,,,,,,,,,,,,,,5f477a85d919ec03cadfaddd,606c0c92e1b1c0b9e4268ab5,2021-04-06_09h24.34.059,Colour_Similarity_Experiment,2020.2.10,MacIntel,60,6067542a4a25243f4d7d4fcf,17.06486807,16.68573091,16.67798349,16.67893378,16.67919064,16.67919064,,,,,,,,,,,,,,,,,,,,PF,strong,3,,,,,,,,7,3.58599,,,,,,,,,,,,,,,,,,,,,,,,,,,,3,strong,76.41796875,146.9960938,1,0,0,response1disk,2,65,-19.7109375,-7.1640625,1,0,0,rectangle,-19.7109375,-7.1640625,1,0,0,0,3,0.0012,-19.7109375,-7.1640625,1,0,0,0,64,64,93,1,0,,,,,,,,,,,,,,,,,,,,,
,,,,,,,,,,,,,,,,,,,,,,,,,,,,,,,,,,,,,,,,,,5f477a85d919ec03cadfaddd,606c0c92e1b1c0b9e4268ab5,2021-04-06_09h24.34.059,Colour_Similarity_Experiment,2020.2.10,MacIntel,60,6067542a4a25243f4d7d4fcf,17.06486807,16.68573091,16.67798349,16.67893378,16.67919064,16.67919064,,,,,,,,,,,,,,,,,,,,PF,strong,3,,,,,,,,2,1.91259,,,,,,,,,,,,,,,,,,,,,,,,,,,,4,strong,-152.0820313,-82.0234375,1,0,0,response5disk,3,66,44.4296875,-1.94140625,1,0,0,rectangle,44.4296875,-1.94140625,1,0,0,0,6,0.001025,44.4296875,-1.94140625,1,0,0,0,65,65,77,1,0,,,,,,,,,,,,,,,,,,,,,
,,,,,,,,,,,,,,,,,,,,,,,,,,,,,,,,,,,,,,,,,,5f477a85d919ec03cadfaddd,606c0c92e1b1c0b9e4268ab5,2021-04-06_09h24.34.059,Colour_Similarity_Experiment,2020.2.10,MacIntel,60,6067542a4a25243f4d7d4fcf,17.06486807,16.68573091,16.67798349,16.67893378,16.67919064,16.67919064,,,,,,,,,,,,,,,,,,,,PF,strong,3,,,,,,,,6,3.535745,,,,,,,,,,,,,,,,,,,,,,,,,,,,6,strong,190.3632813,91.93359375,1,0,0,response1disk,8,67,-22.66015625,0.1484375,1,0,0,rectangle,-22.66015625,0.1484375,1,0,0,0,7,0.00101,-22.66015625,0.1484375,1,0,0,0,66,66,133,1,0,,,,,,,,,,,,,,,,,,,,,
,,,,,,,,,,,,,,,,,,,,,,,,,,,,,,,,,,,,,,,,,,5f477a85d919ec03cadfaddd,606c0c92e1b1c0b9e4268ab5,2021-04-06_09h24.34.059,Colour_Similarity_Experiment,2020.2.10,MacIntel,60,6067542a4a25243f4d7d4fcf,17.06486807,16.68573091,16.67798349,16.67893378,16.67919064,16.67919064,,,,,,,,,,,,,,,,,,,,PF,strong,3,,,,,,,,7,1.80039,,,,,,,,,,,,,,,,,,,,,,,,,,,,4,strong,74.71484375,114.1953125,1,0,0,response1disk,9,68,6.60546875,0.3515625,1,0,0,rectangle,6.60546875,0.3515625,1,0,0,0,2,0.00113,6.60546875,0.3515625,1,0,0,0,67,67,90,1,0,,,,,,,,,,,,,,,,,,,,,
,,,,,,,,,,,,,,,,,,,,,,,,,,,,,,,,,,,,,,,,,,5f477a85d919ec03cadfaddd,606c0c92e1b1c0b9e4268ab5,2021-04-06_09h24.34.059,Colour_Similarity_Experiment,2020.2.10,MacIntel,60,6067542a4a25243f4d7d4fcf,17.06486807,16.68573091,16.67798349,16.67893378,16.67919064,16.67919064,,,,,,,,,,,,,,,,,,,,PF,weak,3,,,,,,,,0,1.89517,,,,,,,,,,,,,,,,,,,,,,,,,,,,1,weak,-64.92578125,136.9882813,1,0,0,response7disk,1,69,-4.015625,2.6484375,1,0,0,rectangle,-176.03125,-79.2109375,1,0,0,0,2,5.10391,7.109375,0.38671875,1,0,0,0,68,68,76,1,1,response5disk_3,rectangle,,,,,,,,,,,,,,,,,,,
,,,,,,,,,,,,,,,,,,,,,,,,,,,,,,,,,,,,,,,,,,5f477a85d919ec03cadfaddd,606c0c92e1b1c0b9e4268ab5,2021-04-06_09h24.34.059,Colour_Similarity_Experiment,2020.2.10,MacIntel,60,6067542a4a25243f4d7d4fcf,17.06486807,16.68573091,16.67798349,16.67893378,16.67919064,16.67919064,,,,,,,,,,,,,,,,,,,,PF,weak,3,,,,,,,,7,1.267625,,,,,,,,,,,,,,,,,,,,,,,,,,,,9,weak,76.78515625,106.2382813,1,0,0,response1disk,5,70,9.8203125,-20.25,1,0,0,rectangle,9.8203125,-20.25,1,0,0,0,5,0.00109,9.8203125,-20.25,1,0,0,0,69,69,134,1,0,,,,,,,,,,,,,,,,,,,,,
,,,,,,,,,,,,,,,,,,,,,,,,,,,,,,,,,,,,,,,,,,5f477a85d919ec03cadfaddd,606c0c92e1b1c0b9e4268ab5,2021-04-06_09h24.34.059,Colour_Similarity_Experiment,2020.2.10,MacIntel,60,6067542a4a25243f4d7d4fcf,17.06486807,16.68573091,16.67798349,16.67893378,16.67919064,16.67919064,,,,,,,,,,,,,,,,,,,,PF,strong,3,,,,,,,,7,3.118815,,,,,,,,,,,,,,,,,,,,,,,,,,,,9,strong,86.57421875,149.96875,1,0,0,response1disk,5,71,15.9609375,-0.29296875,1,0,0,rectangle,15.9609375,-0.29296875,1,0,0,0,5,0.00013,15.9609375,-0.29296875,1,0,0,0,70,70,128,1,0,,,,,,,,,,,,,,,,,,,,,
,,,,,,,,,,,,,,,,,,,,,,,,,,,,,,,,,,,,,,,,,,5f477a85d919ec03cadfaddd,606c0c92e1b1c0b9e4268ab5,2021-04-06_09h24.34.059,Colour_Similarity_Experiment,2020.2.10,MacIntel,60,6067542a4a25243f4d7d4fcf,17.06486807,16.68573091,16.67798349,16.67893378,16.67919064,16.67919064,,,,,,,,,,,,,,,,,,,,PF,strong,3,,,,,,,,4,3.362865,,,,,,,,,,,,,,,,,,,,,,,,,,,,9,strong,97.09765625,-143.9414063,1,0,0,response3disk,7,72,13.32421875,0.19921875,1,0,0,rectangle,13.32421875,0.19921875,1,0,0,0,4,0.000995,13.32421875,0.19921875,1,0,0,0,71,71,100,1,0,,,,,,,,,,,,,,,,,,,,,
,,,,,,,,,,,,,,,,,,,,,,,,,,,,,,,,,,,,,,,,,,5f477a85d919ec03cadfaddd,606c0c92e1b1c0b9e4268ab5,2021-04-06_09h24.34.059,Colour_Similarity_Experiment,2020.2.10,MacIntel,60,6067542a4a25243f4d7d4fcf,17.06486807,16.68573091,16.67798349,16.67893378,16.67919064,16.67919064,,,,,,,,,,,,,,,,,,,,PF,strong,3,,,,,,,,4,3.30311,,,,,,,,,,,,,,,,,,,,,,,,,,,,2,strong,82.70703125,-156.1484375,1,0,0,response3disk,4,73,13.15625,-5.66796875,1,0,0,rectangle,13.15625,-5.66796875,1,0,0,0,6,0.00108,13.15625,-5.66796875,1,0,0,0,72,72,145,1,0,,,,,,,,,,,,,,,,,,,,,
,,,,,,,,,,,,,,,,,,,,,,,,,,,,,,,,,,,,,,,,,,5f477a85d919ec03cadfaddd,606c0c92e1b1c0b9e4268ab5,2021-04-06_09h24.34.059,Colour_Similarity_Experiment,2020.2.10,MacIntel,60,6067542a4a25243f4d7d4fcf,17.06486807,16.68573091,16.67798349,16.67893378,16.67919064,16.67919064,,,,,,,,,,,,,,,,,,,,PF,weak,3,,,,,,,,3,3.05243,,,,,,,,,,,,,,,,,,,,,,,,,,,,1,weak,-66.30859375,-162.09375,1,0,0,response5disk,9,74,-8.3203125,-18.40234375,1,0,0,rectangle,-8.3203125,-18.40234375,1,0,0,0,4,0.00107,-8.3203125,-18.40234375,1,0,0,0,73,73,15,1,0,,,,,,,,,,,,,,,,,,,,,
,,,,,,,,,,,,,,,,,,,,,,,,,,,,,,,,,,,,,,,,,,5f477a85d919ec03cadfaddd,606c0c92e1b1c0b9e4268ab5,2021-04-06_09h24.34.059,Colour_Similarity_Experiment,2020.2.10,MacIntel,60,6067542a4a25243f4d7d4fcf,17.06486807,16.68573091,16.67798349,16.67893378,16.67919064,16.67919064,,,,,,,,,,,,,,,,,,,,PF,strong,3,,,,,,,,7,4.803335,,,,,,,,,,,,,,,,,,,,,,,,,,,,4,strong,100.796875,164.2148438,1,0,0,response1disk,7,75,-1.37890625,0.625,1,0,0,rectangle,-1.37890625,0.625,1,0,0,0,1,0.001215,-1.37890625,0.625,1,0,0,0,74,74,87,1,0,,,,,,,,,,,,,,,,,,,,,
,,,,,,,,,,,,,,,,,,,,,,,,,,,,,,,,,,,,,,,,,,5f477a85d919ec03cadfaddd,606c0c92e1b1c0b9e4268ab5,2021-04-06_09h24.34.059,Colour_Similarity_Experiment,2020.2.10,MacIntel,60,6067542a4a25243f4d7d4fcf,17.06486807,16.68573091,16.67798349,16.67893378,16.67919064,16.67919064,,,,,,,,,,,,,,,,,,,,PF,weak,3,,,,,,,,7,1.645055,,,,,,,,,,,,,,,,,,,,,,,,,,,,1,weak,70.7890625,135.9140625,1,0,0,response1disk,2,76,2.828125,2.265625,1,0,0,rectangle,2.828125,2.265625,1,0,0,0,2,0.00102,2.828125,2.265625,1,0,0,0,75,75,24,1,0,,,,,,,,,,,,,,,,,,,,,
,,,,,,,,,,,,,,,,,,,,,,,,,,,,,,,,,,,,,,,,,,5f477a85d919ec03cadfaddd,606c0c92e1b1c0b9e4268ab5,2021-04-06_09h24.34.059,Colour_Similarity_Experiment,2020.2.10,MacIntel,60,6067542a4a25243f4d7d4fcf,17.06486807,16.68573091,16.67798349,16.67893378,16.67919064,16.67919064,,,,,,,,,,,,,,,,,,,,PF,strong,3,,,,,,,,7,1.367355,,,,,,,,,,,,,,,,,,,,,,,,,,,,3,strong,86.37109375,151.9414063,1,0,0,response1disk,8,77,16.66796875,8.609375,1,0,0,rectangle,16.66796875,8.609375,1,0,0,0,2,0.00016,16.66796875,8.609375,1,0,0,0,76,76,44,1,0,,,,,,,,,,,,,,,,,,,,,
,,,,,,,,,,,,,,,,,,,,,,,,,,,,,,,,,,,,,,,,,,5f477a85d919ec03cadfaddd,606c0c92e1b1c0b9e4268ab5,2021-04-06_09h24.34.059,Colour_Similarity_Experiment,2020.2.10,MacIntel,60,6067542a4a25243f4d7d4fcf,17.06486807,16.68573091,16.67798349,16.67893378,16.67919064,16.67919064,,,,,,,,,,,,,,,,,,,,PF,weak,3,,,,,,,,7,1.784265,,,,,,,,,,,,,,,,,,,,,,,,,,,,8,weak,71.46875,125.7734375,1,0,0,response1disk,5,78,19.87109375,2.05859375,1,0,0,rectangle,19.87109375,2.05859375,1,0,0,0,5,0.0012,19.87109375,2.05859375,1,0,0,0,77,77,98,1,0,,,,,,,,,,,,,,,,,,,,,
,,,,,,,,,,,,,,,,,,,,,,,,,,,,,,,,,,,,,,,,,,5f477a85d919ec03cadfaddd,606c0c92e1b1c0b9e4268ab5,2021-04-06_09h24.34.059,Colour_Similarity_Experiment,2020.2.10,MacIntel,60,6067542a4a25243f4d7d4fcf,17.06486807,16.68573091,16.67798349,16.67893378,16.67919064,16.67919064,,,,,,,,,,,,,,,,,,,,PF,weak,3,,,,,,,,7,1.316805,,,,,,,,,,,,,,,,,,,,,,,,,,,,1,weak,69.38671875,109.2695313,1,0,0,response1disk,3,79,15.41796875,5.1953125,1,0,0,rectangle,15.41796875,5.1953125,1,0,0,0,4,0.001015,15.41796875,5.1953125,1,0,0,0,78,78,1,1,0,,,,,,,,,,,,,,,,,,,,,
,,,,,,,,,,,,,,,,,,,,,,,,,,,,,,,,,,,,,,,,,,5f477a85d919ec03cadfaddd,606c0c92e1b1c0b9e4268ab5,2021-04-06_09h24.34.059,Colour_Similarity_Experiment,2020.2.10,MacIntel,60,6067542a4a25243f4d7d4fcf,17.06486807,16.68573091,16.67798349,16.67893378,16.67919064,16.67919064,,,,,,,,,,,,,,,,,,,,PF,strong,3,,,,,,,,7,1.699975,,,,,,,,,,,,,,,,,,,,,,,,,,,,4,strong,54.53515625,116.453125,1,0,0,response1disk,1,80,0.64453125,3.7421875,1,0,0,rectangle,0.64453125,3.7421875,1,0,0,0,4,0.00022,0.64453125,3.7421875,1,0,0,0,79,79,102,1,0,,,,,,,,,,,,,,,,,,,,,
,,,,,,,,,,,,,,,,,,,,,,,,,,,,,,,,,,,,,,,,,,5f477a85d919ec03cadfaddd,606c0c92e1b1c0b9e4268ab5,2021-04-06_09h24.34.059,Colour_Similarity_Experiment,2020.2.10,MacIntel,60,6067542a4a25243f4d7d4fcf,17.06486807,16.68573091,16.67798349,16.67893378,16.67919064,16.67919064,,,,,,,,,,,,,,,,,,,,PF,weak,3,,,,,,,,4,2.274645,,,,,,,,,,,,,,,,,,,,,,,,,,,,2,weak,103.5039063,-148.4726563,1,0,0,response3disk,4,81,16.4609375,-17.34375,1,0,0,rectangle,16.4609375,-17.34375,1,0,0,0,1,0.001105,16.4609375,-17.34375,1,0,0,0,80,80,127,1,0,,,,,,,,,,,,,,,,,,,,,
,,,,,,,,,,,,,,,,,,,,,,,,,,,,,,,,,,,,,,,,,,5f477a85d919ec03cadfaddd,606c0c92e1b1c0b9e4268ab5,2021-04-06_09h24.34.059,Colour_Similarity_Experiment,2020.2.10,MacIntel,60,6067542a4a25243f4d7d4fcf,17.06486807,16.68573091,16.67798349,16.67893378,16.67919064,16.67919064,,,,,,,,,,,,,,,,,,,,PF,strong,3,,,,,,,,7,4.003825,,,,,,,,,,,,,,,,,,,,,,,,,,,,8,strong,79.73828125,108.1796875,1,0,0,response1disk,5,82,45.421875,-8.359375,1,0,0,rectangle,45.421875,-8.359375,1,0,0,0,5,0.00102,45.421875,-8.359375,1,0,0,0,81,81,152,1,0,,,,,,,,,,,,,,,,,,,,,
,,,,,,,,,,,,,,,,,,,,,,,,,,,,,,,,,,,,,,,,,,5f477a85d919ec03cadfaddd,606c0c92e1b1c0b9e4268ab5,2021-04-06_09h24.34.059,Colour_Similarity_Experiment,2020.2.10,MacIntel,60,6067542a4a25243f4d7d4fcf,17.06486807,16.68573091,16.67798349,16.67893378,16.67919064,16.67919064,,,,,,,,,,,,,,,,,,,,PF,strong,3,,,,,,,,6,4.0193,,,,,,,,,,,,,,,,,,,,,,,,,,,,4,strong,163.3359375,36.609375,1,0,0,response1disk,6,83,-38.66796875,-0.5078125,1,0,0,rectangle,-38.66796875,-0.5078125,1,0,0,0,1,0.001105,-38.66796875,-0.5078125,1,0,0,0,82,82,122,1,0,,,,,,,,,,,,,,,,,,,,,
,,,,,,,,,,,,,,,,,,,,,,,,,,,,,,,,,,,,,,,,,,5f477a85d919ec03cadfaddd,606c0c92e1b1c0b9e4268ab5,2021-04-06_09h24.34.059,Colour_Similarity_Experiment,2020.2.10,MacIntel,60,6067542a4a25243f4d7d4fcf,17.06486807,16.68573091,16.67798349,16.67893378,16.67919064,16.67919064,,,,,,,,,,,,,,,,,,,,PF,weak,3,,,,,,,,7,2.1347,,,,,,,,,,,,,,,,,,,,,,,,,,,,2,weak,115.9609375,136.6132813,1,0,0,response1disk,9,84,18.9375,-11.484375,1,0,0,rectangle,18.9375,-11.484375,1,0,0,0,7,0.00104,18.9375,-11.484375,1,0,0,0,83,83,39,1,0,,,,,,,,,,,,,,,,,,,,,
,,,,,,,,,,,,,,,,,,,,,,,,,,,,,,,,,,,,,,,,,,5f477a85d919ec03cadfaddd,606c0c92e1b1c0b9e4268ab5,2021-04-06_09h24.34.059,Colour_Similarity_Experiment,2020.2.10,MacIntel,60,6067542a4a25243f4d7d4fcf,17.06486807,16.68573091,16.67798349,16.67893378,16.67919064,16.67919064,,,,,,,,,,,,,,,,,,,,PF,strong,3,,,,,,,,6,2.724795,,,,,,,,,,,,,,,,,,,,,,,,,,,,5,strong,186.5078125,69.7890625,1,0,0,response1disk,3,85,20.828125,-15.1015625,1,0,0,rectangle,20.828125,-15.1015625,1,0,0,0,6,0.00179,20.828125,-15.1015625,1,0,0,0,84,84,25,1,0,,,,,,,,,,,,,,,,,,,,,
,,,,,,,,,,,,,,,,,,,,,,,,,,,,,,,,,,,,,,,,,,5f477a85d919ec03cadfaddd,606c0c92e1b1c0b9e4268ab5,2021-04-06_09h24.34.059,Colour_Similarity_Experiment,2020.2.10,MacIntel,60,6067542a4a25243f4d7d4fcf,17.06486807,16.68573091,16.67798349,16.67893378,16.67919064,16.67919064,,,,,,,,,,,,,,,,,,,,PF,strong,3,,,,,,,,2,2.48396,,,,,,,,,,,,,,,,,,,,,,,,,,,,6,strong,-138.7617188,-72.390625,1,0,0,response5disk,7,86,14.75390625,-9.26953125,1,0,0,rectangle,14.75390625,-9.26953125,1,0,0,0,4,0.001045,14.75390625,-9.26953125,1,0,0,0,85,85,18,1,0,,,,,,,,,,,,,,,,,,,,,
,,,,,,,,,,,,,,,,,,,,,,,,,,,,,,,,,,,,,,,,,,5f477a85d919ec03cadfaddd,606c0c92e1b1c0b9e4268ab5,2021-04-06_09h24.34.059,Colour_Similarity_Experiment,2020.2.10,MacIntel,60,6067542a4a25243f4d7d4fcf,17.06486807,16.68573091,16.67798349,16.67893378,16.67919064,16.67919064,,,,,,,,,,,,,,,,,,,,PF,weak,3,,,,,,,,3,1.730135,,,,,,,,,,,,,,,,,,,,,,,,,,,,9,weak,-86.8359375,-142.8945313,1,0,0,response5disk,1,87,-6.9375,-11.26171875,1,0,0,rectangle,-6.9375,-11.26171875,1,0,0,0,1,0.00103,-6.9375,-11.26171875,1,0,0,0,86,86,74,1,0,,,,,,,,,,,,,,,,,,,,,
,,,,,,,,,,,,,,,,,,,,,,,,,,,,,,,,,,,,,,,,,,5f477a85d919ec03cadfaddd,606c0c92e1b1c0b9e4268ab5,2021-04-06_09h24.34.059,Colour_Similarity_Experiment,2020.2.10,MacIntel,60,6067542a4a25243f4d7d4fcf,17.06486807,16.68573091,16.67798349,16.67893378,16.67919064,16.67919064,,,,,,,,,,,,,,,,,,,,PF,weak,3,,,,,,,,7,1.2505,,,,,,,,,,,,,,,,,,,,,,,,,,,,2,weak,58.6484375,160.015625,1,0,0,response1disk,7,88,10.66796875,-4.0546875,1,0,0,rectangle,10.66796875,-4.0546875,1,0,0,0,1,0.000155,10.66796875,-4.0546875,1,0,0,0,87,87,107,1,0,,,,,,,,,,,,,,,,,,,,,
,,,,,,,,,,,,,,,,,,,,,,,,,,,,,,,,,,,,,,,,,,5f477a85d919ec03cadfaddd,606c0c92e1b1c0b9e4268ab5,2021-04-06_09h24.34.059,Colour_Similarity_Experiment,2020.2.10,MacIntel,60,6067542a4a25243f4d7d4fcf,17.06486807,16.68573091,16.67798349,16.67893378,16.67919064,16.67919064,,,,,,,,,,,,,,,,,,,,PF,weak,3,,,,,,,,7,1.334445,,,,,,,,,,,,,,,,,,,,,,,,,,,,2,weak,54.703125,107.0625,1,0,0,response1disk,5,89,37.43359375,11.78125,1,0,0,rectangle,37.43359375,11.78125,1,0,0,0,4,0.00099,37.43359375,11.78125,1,0,0,0,88,88,147,1,0,,,,,,,,,,,,,,,,,,,,,
,,,,,,,,,,,,,,,,,,,,,,,,,,,,,,,,,,,,,,,,,,5f477a85d919ec03cadfaddd,606c0c92e1b1c0b9e4268ab5,2021-04-06_09h24.34.059,Colour_Similarity_Experiment,2020.2.10,MacIntel,60,6067542a4a25243f4d7d4fcf,17.06486807,16.68573091,16.67798349,16.67893378,16.67919064,16.67919064,,,,,,,,,,,,,,,,,,,,PF,weak,3,,,,,,,,7,0.950295,,,,,,,,,,,,,,,,,,,,,,,,,,,,8,weak,71.96875,109.0390625,1,0,0,response1disk,4,90,33.80078125,10.5546875,1,0,0,rectangle,33.80078125,10.5546875,1,0,0,0,1,0.001195,33.80078125,10.5546875,1,0,0,0,89,89,78,1,0,,,,,,,,,,,,,,,,,,,,,
,,,,,,,,,,,,,,,,,,,,,,,,,,,,,,,,,,,,,,,,,,5f477a85d919ec03cadfaddd,606c0c92e1b1c0b9e4268ab5,2021-04-06_09h24.34.059,Colour_Similarity_Experiment,2020.2.10,MacIntel,60,6067542a4a25243f4d7d4fcf,17.06486807,16.68573091,16.67798349,16.67893378,16.67919064,16.67919064,,,,,,,,,,,,,,,,,,,,PF,strong,3,,,,,,,,7,1.58414,,,,,,,,,,,,,,,,,,,,,,,,,,,,5,strong,47.7109375,100.5898438,1,0,0,response1disk,4,91,22.3125,-0.015625,1,0,0,rectangle,22.3125,-0.015625,1,0,0,0,6,0.00099,22.3125,-0.015625,1,0,0,0,90,90,8,1,0,,,,,,,,,,,,,,,,,,,,,
,,,,,,,,,,,,,,,,,,,,,,,,,,,,,,,,,,,,,,,,,,5f477a85d919ec03cadfaddd,606c0c92e1b1c0b9e4268ab5,2021-04-06_09h24.34.059,Colour_Similarity_Experiment,2020.2.10,MacIntel,60,6067542a4a25243f4d7d4fcf,17.06486807,16.68573091,16.67798349,16.67893378,16.67919064,16.67919064,,,,,,,,,,,,,,,,,,,,PF,strong,3,,,,,,,,2,1.517555,,,,,,,,,,,,,,,,,,,,,,,,,,,,7,strong,-131.734375,-70.55078125,1,0,0,response5disk,6,92,29.76953125,4.1015625,1,0,0,rectangle,29.76953125,4.1015625,1,0,0,0,0,0.001025,29.76953125,4.1015625,1,0,0,0,91,91,31,1,0,,,,,,,,,,,,,,,,,,,,,
,,,,,,,,,,,,,,,,,,,,,,,,,,,,,,,,,,,,,,,,,,5f477a85d919ec03cadfaddd,606c0c92e1b1c0b9e4268ab5,2021-04-06_09h24.34.059,Colour_Similarity_Experiment,2020.2.10,MacIntel,60,6067542a4a25243f4d7d4fcf,17.06486807,16.68573091,16.67798349,16.67893378,16.67919064,16.67919064,,,,,,,,,,,,,,,,,,,,PF,weak,3,,,,,,,,7,0.928795,,,,,,,,,,,,,,,,,,,,,,,,,,,,8,weak,70.6328125,133.46875,1,0,0,response1disk,3,93,10.140625,-0.30859375,1,0,0,rectangle,10.140625,-0.30859375,1,0,0,0,7,0.001095,10.140625,-0.30859375,1,0,0,0,92,92,71,1,0,,,,,,,,,,,,,,,,,,,,,
,,,,,,,,,,,,,,,,,,,,,,,,,,,,,,,,,,,,,,,,,,5f477a85d919ec03cadfaddd,606c0c92e1b1c0b9e4268ab5,2021-04-06_09h24.34.059,Colour_Similarity_Experiment,2020.2.10,MacIntel,60,6067542a4a25243f4d7d4fcf,17.06486807,16.68573091,16.67798349,16.67893378,16.67919064,16.67919064,,,,,,,,,,,,,,,,,,,,PF,weak,3,,,,,,,,7,1.05015,,,,,,,,,,,,,,,,,,,,,,,,,,,,7,weak,78.03125,109.453125,1,0,0,response1disk,8,94,19.140625,9.05078125,1,0,0,rectangle,19.140625,9.05078125,1,0,0,0,7,0.000195,19.140625,9.05078125,1,0,0,0,93,93,140,1,0,,,,,,,,,,,,,,,,,,,,,
,,,,,,,,,,,,,,,,,,,,,,,,,,,,,,,,,,,,,,,,,,5f477a85d919ec03cadfaddd,606c0c92e1b1c0b9e4268ab5,2021-04-06_09h24.34.059,Colour_Similarity_Experiment,2020.2.10,MacIntel,60,6067542a4a25243f4d7d4fcf,17.06486807,16.68573091,16.67798349,16.67893378,16.67919064,16.67919064,,,,,,,,,,,,,,,,,,,,PF,strong,3,,,,,,,,1,1.93441,,,,,,,,,,,,,,,,,,,,,,,,,,,,4,strong,-149.6445313,54.4921875,1,0,0,response7disk,4,95,-28.6796875,3.8828125,1,0,0,rectangle,-28.6796875,3.8828125,1,0,0,0,5,0.00102,-28.6796875,3.8828125,1,0,0,0,94,94,84,1,0,,,,,,,,,,,,,,,,,,,,,
,,,,,,,,,,,,,,,,,,,,,,,,,,,,,,,,,,,,,,,,,,5f477a85d919ec03cadfaddd,606c0c92e1b1c0b9e4268ab5,2021-04-06_09h24.34.059,Colour_Similarity_Experiment,2020.2.10,MacIntel,60,6067542a4a25243f4d7d4fcf,17.06486807,16.68573091,16.67798349,16.67893378,16.67919064,16.67919064,,,,,,,,,,,,,,,,,,,,PF,weak,3,,,,,,,,1,1.59001,,,,,,,,,,,,,,,,,,,,,,,,,,,,3,weak,-118.265625,42.25,1,0,0,response7disk,2,96,-12.265625,-4.47265625,1,0,0,rectangle,55.40625,-131.2382813,1,0,0,4,4,5.321245,-9.6640625,-8.578125,1,0,0,0,95,95,36,1,1,response3disk_3,rectangle,,,,,,,,,,,,,,,,,,,
,,,,,,,,,,,,,,,,,,,,,,,,,,,,,,,,,,,,,,,,,,5f477a85d919ec03cadfaddd,606c0c92e1b1c0b9e4268ab5,2021-04-06_09h24.34.059,Colour_Similarity_Experiment,2020.2.10,MacIntel,60,6067542a4a25243f4d7d4fcf,17.06486807,16.68573091,16.67798349,16.67893378,16.67919064,16.67919064,,,,,,,,,,,,,,,,,,,,PF,weak,3,,,,,,,,7,1.60094,,,,,,,,,,,,,,,,,,,,,,,,,,,,4,weak,101.265625,147.6171875,1,0,0,response1disk,1,97,21.73828125,-1.84375,1,0,0,rectangle,21.73828125,-1.84375,1,0,0,4,3,0.001125,21.73828125,-1.84375,1,0,0,0,96,96,115,1,0,,,,,,,,,,,,,,,,,,,,,
,,,,,,,,,,,,,,,,,,,,,,,,,,,,,,,,,,,,,,,,,,5f477a85d919ec03cadfaddd,606c0c92e1b1c0b9e4268ab5,2021-04-06_09h24.34.059,Colour_Similarity_Experiment,2020.2.10,MacIntel,60,6067542a4a25243f4d7d4fcf,17.06486807,16.68573091,16.67798349,16.67893378,16.67919064,16.67919064,,,,,,,,,,,,,,,,,,,,PF,strong,3,,,,,,,,7,2.117375,,,,,,,,,,,,,,,,,,,,,,,,,,,,6,strong,80.5234375,130.9257813,1,0,0,response1disk,4,98,16.99609375,8.50390625,1,0,0,rectangle,16.99609375,8.50390625,1,0,0,4,1,0.001095,16.99609375,8.50390625,1,0,0,0,97,97,56,1,0,,,,,,,,,,,,,,,,,,,,,
,,,,,,,,,,,,,,,,,,,,,,,,,,,,,,,,,,,,,,,,,,5f477a85d919ec03cadfaddd,606c0c92e1b1c0b9e4268ab5,2021-04-06_09h24.34.059,Colour_Similarity_Experiment,2020.2.10,MacIntel,60,6067542a4a25243f4d7d4fcf,17.06486807,16.68573091,16.67798349,16.67893378,16.67919064,16.67919064,,,,,,,,,,,,,,,,,,,,PF,weak,3,,,,,,,,7,2.05764,,,,,,,,,,,,,,,,,,,,,,,,,,,,4,weak,72.671875,114.3359375,1,0,0,response1disk,9,99,19.484375,10.9296875,1,0,0,rectangle,19.484375,10.9296875,1,0,0,4,0,0.00109,19.484375,10.9296875,1,0,0,0,98,98,75,1,0,,,,,,,,,,,,,,,,,,,,,
,,,,,,,,,,,,,,,,,,,,,,,,,,,,,,,,,,,,,,,,,,5f477a85d919ec03cadfaddd,606c0c92e1b1c0b9e4268ab5,2021-04-06_09h24.34.059,Colour_Similarity_Experiment,2020.2.10,MacIntel,60,6067542a4a25243f4d7d4fcf,17.06486807,16.68573091,16.67798349,16.67893378,16.67919064,16.67919064,,,,,,,,,,,,,,,,,,,,PF,strong,3,,,,,,,,7,2.58341,,,,,,,,,,,,,,,,,,,,,,,,,,,,2,strong,75.640625,127.2148438,1,0,0,response1disk,9,100,15.92578125,8.42578125,1,0,0,rectangle,15.92578125,8.42578125,1,0,0,4,3,0.001135,15.92578125,8.42578125,1,0,0,0,99,99,72,1,0,,,,,,,,,,,,,,,,,,,,,
,,,,,,,,,,,,,,,,,,,,,,,,,,,,,,,,,,,,,,,,,,5f477a85d919ec03cadfaddd,606c0c92e1b1c0b9e4268ab5,2021-04-06_09h24.34.059,Colour_Similarity_Experiment,2020.2.10,MacIntel,60,6067542a4a25243f4d7d4fcf,17.06486807,16.68573091,16.67798349,16.67893378,16.67919064,16.67919064,,,,,,,,,,,,,,,,,,,,PF,strong,3,,,,,,,,6,1.37816,,,,,,,,,,,,,,,,,,,,,,,,,,,,3,strong,169.7890625,39.7734375,1,0,0,response1disk,6,101,34.875,2.2109375,1,0,0,rectangle,34.875,2.2109375,1,0,0,4,7,0.00112,34.875,2.2109375,1,0,0,0,100,100,95,1,0,,,,,,,,,,,,,,,,,,,,,
,,,,,,,,,,,,,,,,,,,,,,,,,,,,,,,,,,,,,,,,,,5f477a85d919ec03cadfaddd,606c0c92e1b1c0b9e4268ab5,2021-04-06_09h24.34.059,Colour_Similarity_Experiment,2020.2.10,MacIntel,60,6067542a4a25243f4d7d4fcf,17.06486807,16.68573091,16.67798349,16.67893378,16.67919064,16.67919064,,,,,,,,,,,,,,,,,,,,PF,strong,3,,,,,,,,7,2.10255,,,,,,,,,,,,,,,,,,,,,,,,,,,,9,strong,58.30078125,108.5859375,1,0,0,response1disk,4,102,32.73828125,6.58203125,1,0,0,rectangle,32.73828125,6.58203125,1,0,0,4,1,0.000995,32.73828125,6.58203125,1,0,0,0,101,101,60,1,0,,,,,,,,,,,,,,,,,,,,,
,,,,,,,,,,,,,,,,,,,,,,,,,,,,,,,,,,,,,,,,,,5f477a85d919ec03cadfaddd,606c0c92e1b1c0b9e4268ab5,2021-04-06_09h24.34.059,Colour_Similarity_Experiment,2020.2.10,MacIntel,60,6067542a4a25243f4d7d4fcf,17.06486807,16.68573091,16.67798349,16.67893378,16.67919064,16.67919064,,,,,,,,,,,,,,,,,,,,PF,strong,3,,,,,,,,1,2.117965,,,,,,,,,,,,,,,,,,,,,,,,,,,,9,strong,-109.53125,63.99609375,1,0,0,response7disk,8,103,9.12109375,6.90234375,1,0,0,rectangle,9.12109375,6.90234375,1,0,0,4,0,0.000935,9.12109375,6.90234375,1,0,0,0,102,102,6,1,0,,,,,,,,,,,,,,,,,,,,,
,,,,,,,,,,,,,,,,,,,,,,,,,,,,,,,,,,,,,,,,,,5f477a85d919ec03cadfaddd,606c0c92e1b1c0b9e4268ab5,2021-04-06_09h24.34.059,Colour_Similarity_Experiment,2020.2.10,MacIntel,60,6067542a4a25243f4d7d4fcf,17.06486807,16.68573091,16.67798349,16.67893378,16.67919064,16.67919064,,,,,,,,,,,,,,,,,,,,PF,strong,3,,,,,,,,7,3.485315,,,,,,,,,,,,,,,,,,,,,,,,,,,,7,strong,78.640625,129.4023438,1,0,0,response1disk,2,104,17.265625,-0.9375,1,0,0,rectangle,17.265625,-0.9375,1,0,0,4,2,0.00102,17.265625,-0.9375,1,0,0,0,103,103,138,1,0,,,,,,,,,,,,,,,,,,,,,
,,,,,,,,,,,,,,,,,,,,,,,,,,,,,,,,,,,,,,,,,,5f477a85d919ec03cadfaddd,606c0c92e1b1c0b9e4268ab5,2021-04-06_09h24.34.059,Colour_Similarity_Experiment,2020.2.10,MacIntel,60,6067542a4a25243f4d7d4fcf,17.06486807,16.68573091,16.67798349,16.67893378,16.67919064,16.67919064,,,,,,,,,,,,,,,,,,,,PF,weak,3,,,,,,,,7,1.00031,,,,,,,,,,,,,,,,,,,,,,,,,,,,1,weak,71.60546875,123.890625,1,0,0,response1disk,6,105,36.00390625,-4.109375,1,0,0,rectangle,36.00390625,-4.109375,1,0,0,4,0,0.001105,36.00390625,-4.109375,1,0,0,0,104,104,144,1,0,,,,,,,,,,,,,,,,,,,,,
,,,,,,,,,,,,,,,,,,,,,,,,,,,,,,,,,,,,,,,,,,5f477a85d919ec03cadfaddd,606c0c92e1b1c0b9e4268ab5,2021-04-06_09h24.34.059,Colour_Similarity_Experiment,2020.2.10,MacIntel,60,6067542a4a25243f4d7d4fcf,17.06486807,16.68573091,16.67798349,16.67893378,16.67919064,16.67919064,,,,,,,,,,,,,,,,,,,,PF,weak,3,,,,,,,,0,1.3007,,,,,,,,,,,,,,,,,,,,,,,,,,,,8,weak,-57.82421875,120.7890625,1,0,0,response7disk,9,106,9.84765625,9.37109375,1,0,0,rectangle,9.84765625,9.37109375,1,0,0,4,5,0.00098,9.84765625,9.37109375,1,0,0,0,105,105,42,1,0,,,,,,,,,,,,,,,,,,,,,
,,,,,,,,,,,,,,,,,,,,,,,,,,,,,,,,,,,,,,,,,,5f477a85d919ec03cadfaddd,606c0c92e1b1c0b9e4268ab5,2021-04-06_09h24.34.059,Colour_Similarity_Experiment,2020.2.10,MacIntel,60,6067542a4a25243f4d7d4fcf,17.06486807,16.68573091,16.67798349,16.67893378,16.67919064,16.67919064,,,,,,,,,,,,,,,,,,,,PF,weak,3,,,,,,,,7,1.701145,,,,,,,,,,,,,,,,,,,,,,,,,,,,8,weak,67.56640625,108.8789063,1,0,0,response1disk,2,107,35.2734375,5.265625,1,0,0,rectangle,35.2734375,5.265625,1,0,0,4,5,0.00014,35.2734375,5.265625,1,0,0,0,106,106,83,1,0,,,,,,,,,,,,,,,,,,,,,
,,,,,,,,,,,,,,,,,,,,,,,,,,,,,,,,,,,,,,,,,,5f477a85d919ec03cadfaddd,606c0c92e1b1c0b9e4268ab5,2021-04-06_09h24.34.059,Colour_Similarity_Experiment,2020.2.10,MacIntel,60,6067542a4a25243f4d7d4fcf,17.06486807,16.68573091,16.67798349,16.67893378,16.67919064,16.67919064,,,,,,,,,,,,,,,,,,,,PF,weak,3,,,,,,,,1,1.384415,,,,,,,,,,,,,,,,,,,,,,,,,,,,5,weak,-147.6953125,50.38671875,1,0,0,response7disk,6,108,45.66015625,-13.390625,1,0,0,rectangle,45.66015625,-13.390625,1,0,0,4,2,0.0012,45.66015625,-13.390625,1,0,0,0,107,107,103,1,0,,,,,,,,,,,,,,,,,,,,,
,,,,,,,,,,,,,,,,,,,,,,,,,,,,,,,,,,,,,,,,,,5f477a85d919ec03cadfaddd,606c0c92e1b1c0b9e4268ab5,2021-04-06_09h24.34.059,Colour_Similarity_Experiment,2020.2.10,MacIntel,60,6067542a4a25243f4d7d4fcf,17.06486807,16.68573091,16.67798349,16.67893378,16.67919064,16.67919064,,,,,,,,,,,,,,,,,,,,PF,weak,3,,,,,,,,7,1.717575,,,,,,,,,,,,,,,,,,,,,,,,,,,,6,weak,52.2734375,124.9570313,1,0,0,response1disk,4,109,20.08203125,1.98046875,1,0,0,rectangle,20.08203125,1.98046875,1,0,0,4,5,0.0012,20.08203125,1.98046875,1,0,0,0,108,108,33,1,0,,,,,,,,,,,,,,,,,,,,,
,,,,,,,,,,,,,,,,,,,,,,,,,,,,,,,,,,,,,,,,,,5f477a85d919ec03cadfaddd,606c0c92e1b1c0b9e4268ab5,2021-04-06_09h24.34.059,Colour_Similarity_Experiment,2020.2.10,MacIntel,60,6067542a4a25243f4d7d4fcf,17.06486807,16.68573091,16.67798349,16.67893378,16.67919064,16.67919064,,,,,,,,,,,,,,,,,,,,PF,weak,3,,,,,,,,2,1.81218,,,,,,,,,,,,,,,,,,,,,,,,,,,,4,weak,-137.25,-92.38671875,1,0,0,response5disk,5,110,49.609375,3.4453125,1,0,0,rectangle,49.609375,3.4453125,1,0,0,4,4,0.001095,49.609375,3.4453125,1,0,0,0,109,109,49,1,0,,,,,,,,,,,,,,,,,,,,,
,,,,,,,,,,,,,,,,,,,,,,,,,,,,,,,,,,,,,,,,,,5f477a85d919ec03cadfaddd,606c0c92e1b1c0b9e4268ab5,2021-04-06_09h24.34.059,Colour_Similarity_Experiment,2020.2.10,MacIntel,60,6067542a4a25243f4d7d4fcf,17.06486807,16.68573091,16.67798349,16.67893378,16.67919064,16.67919064,,,,,,,,,,,,,,,,,,,,PF,weak,3,,,,,,,,2,2.101595,,,,,,,,,,,,,,,,,,,,,,,,,,,,4,weak,-112.6328125,-82.328125,1,0,0,response5disk,3,111,-4.53125,-12.9296875,1,0,0,rectangle,-4.53125,-12.9296875,1,0,0,4,4,0.000895,-4.53125,-12.9296875,1,0,0,0,110,110,89,1,0,,,,,,,,,,,,,,,,,,,,,
,,,,,,,,,,,,,,,,,,,,,,,,,,,,,,,,,,,,,,,,,,5f477a85d919ec03cadfaddd,606c0c92e1b1c0b9e4268ab5,2021-04-06_09h24.34.059,Colour_Similarity_Experiment,2020.2.10,MacIntel,60,6067542a4a25243f4d7d4fcf,17.06486807,16.68573091,16.67798349,16.67893378,16.67919064,16.67919064,,,,,,,,,,,,,,,,,,,,PF,strong,3,,,,,,,,7,1.21765,,,,,,,,,,,,,,,,,,,,,,,,,,,,9,strong,78.1640625,117.890625,1,0,0,response1disk,3,112,33.62890625,-23.01953125,1,0,0,rectangle,33.62890625,-23.01953125,1,0,0,4,3,0.00099,33.62890625,-23.01953125,1,0,0,0,111,111,141,1,0,,,,,,,,,,,,,,,,,,,,,
,,,,,,,,,,,,,,,,,,,,,,,,,,,,,,,,,,,,,,,,,,5f477a85d919ec03cadfaddd,606c0c92e1b1c0b9e4268ab5,2021-04-06_09h24.34.059,Colour_Similarity_Experiment,2020.2.10,MacIntel,60,6067542a4a25243f4d7d4fcf,17.06486807,16.68573091,16.67798349,16.67893378,16.67919064,16.67919064,,,,,,,,,,,,,,,,,,,,PF,strong,3,,,,,,,,7,1.700585,,,,,,,,,,,,,,,,,,,,,,,,,,,,6,strong,40.70703125,108.8242188,1,0,0,response1disk,9,113,9.59375,13.5390625,1,0,0,rectangle,170.0351563,-77.98828125,1,0,0,5,5,6.655445,-10.6484375,-7.41796875,1,0,0,0,112,112,160,1,1,response3disk_3,rectangle,,,,,,,,,,,,,,,,,,,
,,,,,,,,,,,,,,,,,,,,,,,,,,,,,,,,,,,,,,,,,,5f477a85d919ec03cadfaddd,606c0c92e1b1c0b9e4268ab5,2021-04-06_09h24.34.059,Colour_Similarity_Experiment,2020.2.10,MacIntel,60,6067542a4a25243f4d7d4fcf,17.06486807,16.68573091,16.67798349,16.67893378,16.67919064,16.67919064,,,,,,,,,,,,,,,,,,,,PF,strong,3,,,,,,,,7,1.073455,,,,,,,,,,,,,,,,,,,,,,,,,,,,6,strong,66.48828125,139.1757813,1,0,0,response1disk,3,114,26.08203125,-5.24609375,1,0,0,rectangle,26.08203125,-5.24609375,1,0,0,5,2,0.001075,26.08203125,-5.24609375,1,0,0,0,113,113,21,1,0,,,,,,,,,,,,,,,,,,,,,
,,,,,,,,,,,,,,,,,,,,,,,,,,,,,,,,,,,,,,,,,,5f477a85d919ec03cadfaddd,606c0c92e1b1c0b9e4268ab5,2021-04-06_09h24.34.059,Colour_Similarity_Experiment,2020.2.10,MacIntel,60,6067542a4a25243f4d7d4fcf,17.06486807,16.68573091,16.67798349,16.67893378,16.67919064,16.67919064,,,,,,,,,,,,,,,,,,,,PF,weak,3,,,,,,,,3,2.53477,,,,,,,,,,,,,,,,,,,,,,,,,,,,6,weak,-94.96484375,-139.4960938,1,0,0,response5disk,7,115,-17.0859375,-6.2734375,1,0,0,rectangle,-17.0859375,-6.2734375,1,0,0,5,7,0.001035,-17.0859375,-6.2734375,1,0,0,0,114,114,50,1,0,,,,,,,,,,,,,,,,,,,,,
,,,,,,,,,,,,,,,,,,,,,,,,,,,,,,,,,,,,,,,,,,5f477a85d919ec03cadfaddd,606c0c92e1b1c0b9e4268ab5,2021-04-06_09h24.34.059,Colour_Similarity_Experiment,2020.2.10,MacIntel,60,6067542a4a25243f4d7d4fcf,17.06486807,16.68573091,16.67798349,16.67893378,16.67919064,16.67919064,,,,,,,,,,,,,,,,,,,,PF,weak,3,,,,,,,,0,1.201135,,,,,,,,,,,,,,,,,,,,,,,,,,,,5,weak,-58.640625,117.8398438,1,0,0,response7disk,5,116,19.4765625,-2.9140625,1,0,0,rectangle,19.4765625,-2.9140625,1,0,0,5,1,0.00108,19.4765625,-2.9140625,1,0,0,0,115,115,94,1,0,,,,,,,,,,,,,,,,,,,,,
,,,,,,,,,,,,,,,,,,,,,,,,,,,,,,,,,,,,,,,,,,5f477a85d919ec03cadfaddd,606c0c92e1b1c0b9e4268ab5,2021-04-06_09h24.34.059,Colour_Similarity_Experiment,2020.2.10,MacIntel,60,6067542a4a25243f4d7d4fcf,17.06486807,16.68573091,16.67798349,16.67893378,16.67919064,16.67919064,,,,,,,,,,,,,,,,,,,,PF,strong,3,,,,,,,,4,2.451265,,,,,,,,,,,,,,,,,,,,,,,,,,,,7,strong,47.21875,-142.6953125,1,0,0,response3disk,3,117,5.56640625,-16.578125,1,0,0,rectangle,5.56640625,-16.578125,1,0,0,5,1,0.00015,5.56640625,-16.578125,1,0,0,0,116,116,73,1,0,,,,,,,,,,,,,,,,,,,,,
,,,,,,,,,,,,,,,,,,,,,,,,,,,,,,,,,,,,,,,,,,5f477a85d919ec03cadfaddd,606c0c92e1b1c0b9e4268ab5,2021-04-06_09h24.34.059,Colour_Similarity_Experiment,2020.2.10,MacIntel,60,6067542a4a25243f4d7d4fcf,17.06486807,16.68573091,16.67798349,16.67893378,16.67919064,16.67919064,,,,,,,,,,,,,,,,,,,,PF,weak,3,,,,,,,,7,1.784675,,,,,,,,,,,,,,,,,,,,,,,,,,,,1,weak,87.79296875,127.6914063,1,0,0,response1disk,7,118,28.96484375,-2.0859375,1,0,0,rectangle,28.96484375,-2.0859375,1,0,0,5,6,0.00099,28.96484375,-2.0859375,1,0,0,0,117,117,150,1,0,,,,,,,,,,,,,,,,,,,,,
,,,,,,,,,,,,,,,,,,,,,,,,,,,,,,,,,,,,,,,,,,5f477a85d919ec03cadfaddd,606c0c92e1b1c0b9e4268ab5,2021-04-06_09h24.34.059,Colour_Similarity_Experiment,2020.2.10,MacIntel,60,6067542a4a25243f4d7d4fcf,17.06486807,16.68573091,16.67798349,16.67893378,16.67919064,16.67919064,,,,,,,,,,,,,,,,,,,,PF,strong,3,,,,,,,,7,0.978465,,,,,,,,,,,,,,,,,,,,,,,,,,,,1,strong,49.73046875,139.125,1,0,0,response1disk,7,119,29.1328125,19,1,0,0,rectangle,29.1328125,19,1,0,0,5,7,0.00117,29.1328125,19,1,0,0,0,118,118,137,1,0,,,,,,,,,,,,,,,,,,,,,
,,,,,,,,,,,,,,,,,,,,,,,,,,,,,,,,,,,,,,,,,,5f477a85d919ec03cadfaddd,606c0c92e1b1c0b9e4268ab5,2021-04-06_09h24.34.059,Colour_Similarity_Experiment,2020.2.10,MacIntel,60,6067542a4a25243f4d7d4fcf,17.06486807,16.68573091,16.67798349,16.67893378,16.67919064,16.67919064,,,,,,,,,,,,,,,,,,,,PF,strong,3,,,,,,,,7,7.738875,,,,,,,,,,,,,,,,,,,,,,,,,,,,8,strong,102.0078125,138.96875,1,0,0,response1disk,7,120,8.08203125,-4.0078125,1,0,0,rectangle,8.08203125,-4.0078125,1,0,0,5,6,0.00109,8.08203125,-4.0078125,1,0,0,0,119,119,86,1,0,,,,,,,,,,,,,,,,,,,,,
,,,,,,,,,,,,,,,,,,,,,,,,,,,,,,,,,,,,,,,,,,5f477a85d919ec03cadfaddd,606c0c92e1b1c0b9e4268ab5,2021-04-06_09h24.34.059,Colour_Similarity_Experiment,2020.2.10,MacIntel,60,6067542a4a25243f4d7d4fcf,17.06486807,16.68573091,16.67798349,16.67893378,16.67919064,16.67919064,,,,,,,,,,,,,,,,,,,,PF,strong,3,,,,,,,,7,1.317815,,,,,,,,,,,,,,,,,,,,,,,,,,,,1,strong,49.546875,118.0429688,1,0,0,response1disk,4,121,7.70703125,-9.54296875,1,0,0,rectangle,7.70703125,-9.54296875,1,0,0,5,0,0.0011,7.70703125,-9.54296875,1,0,0,0,120,120,135,1,0,,,,,,,,,,,,,,,,,,,,,
,,,,,,,,,,,,,,,,,,,,,,,,,,,,,,,,,,,,,,,,,,5f477a85d919ec03cadfaddd,606c0c92e1b1c0b9e4268ab5,2021-04-06_09h24.34.059,Colour_Similarity_Experiment,2020.2.10,MacIntel,60,6067542a4a25243f4d7d4fcf,17.06486807,16.68573091,16.67798349,16.67893378,16.67919064,16.67919064,,,,,,,,,,,,,,,,,,,,PF,weak,3,,,,,,,,1,1.795655,,,,,,,,,,,,,,,,,,,,,,,,,,,,6,weak,-127.0273438,77.55078125,1,0,0,response7disk,6,122,7.5859375,15.625,1,0,0,rectangle,7.5859375,15.625,1,0,0,5,6,0.00112,7.5859375,15.625,1,0,0,0,121,121,0,1,0,,,,,,,,,,,,,,,,,,,,,
,,,,,,,,,,,,,,,,,,,,,,,,,,,,,,,,,,,,,,,,,,5f477a85d919ec03cadfaddd,606c0c92e1b1c0b9e4268ab5,2021-04-06_09h24.34.059,Colour_Similarity_Experiment,2020.2.10,MacIntel,60,6067542a4a25243f4d7d4fcf,17.06486807,16.68573091,16.67798349,16.67893378,16.67919064,16.67919064,,,,,,,,,,,,,,,,,,,,PF,strong,3,,,,,,,,7,15.40803,,,,,,,,,,,,,,,,,,,,,,,,,,,,6,strong,80.77734375,99.98828125,1,0,0,response1disk,1,123,-7.16015625,-12.23046875,1,0,0,rectangle,-7.16015625,-12.23046875,1,0,0,5,7,0.00093,-7.16015625,-12.23046875,1,0,0,0,122,122,5,1,0,,,,,,,,,,,,,,,,,,,,,
,,,,,,,,,,,,,,,,,,,,,,,,,,,,,,,,,,,,,,,,,,5f477a85d919ec03cadfaddd,606c0c92e1b1c0b9e4268ab5,2021-04-06_09h24.34.059,Colour_Similarity_Experiment,2020.2.10,MacIntel,60,6067542a4a25243f4d7d4fcf,17.06486807,16.68573091,16.67798349,16.67893378,16.67919064,16.67919064,,,,,,,,,,,,,,,,,,,,PF,strong,3,,,,,,,,7,2.112215,,,,,,,,,,,,,,,,,,,,,,,,,,,,8,strong,99.875,161.6171875,1,0,0,response1disk,4,124,-10.75390625,-2.23828125,1,0,0,rectangle,-10.75390625,-2.23828125,1,0,0,5,1,0.00104,-10.75390625,-2.23828125,1,0,0,0,123,123,88,1,0,,,,,,,,,,,,,,,,,,,,,
,,,,,,,,,,,,,,,,,,,,,,,,,,,,,,,,,,,,,,,,,,5f477a85d919ec03cadfaddd,606c0c92e1b1c0b9e4268ab5,2021-04-06_09h24.34.059,Colour_Similarity_Experiment,2020.2.10,MacIntel,60,6067542a4a25243f4d7d4fcf,17.06486807,16.68573091,16.67798349,16.67893378,16.67919064,16.67919064,,,,,,,,,,,,,,,,,,,,PF,strong,3,,,,,,,,7,1.66422,,,,,,,,,,,,,,,,,,,,,,,,,,,,7,strong,64.4453125,142.203125,1,0,0,response1disk,8,125,29.66796875,8.61328125,1,0,0,rectangle,-54.7890625,118.359375,1,0,0,0,0,5.80446,-0.234375,-6.62109375,1,0,0,0,124,124,97,1,1,response7disk_3,rectangle,,,,,,,,,,,,,,,,,,,
,,,,,,,,,,,,,,,,,,,,,,,,,,,,,,,,,,,,,,,,,,5f477a85d919ec03cadfaddd,606c0c92e1b1c0b9e4268ab5,2021-04-06_09h24.34.059,Colour_Similarity_Experiment,2020.2.10,MacIntel,60,6067542a4a25243f4d7d4fcf,17.06486807,16.68573091,16.67798349,16.67893378,16.67919064,16.67919064,,,,,,,,,,,,,,,,,,,,PF,strong,3,,,,,,,,7,1.039655,,,,,,,,,,,,,,,,,,,,,,,,,,,,7,strong,59.48046875,169.40625,1,0,0,response1disk,9,126,11.8515625,-8.1015625,1,0,0,rectangle,11.8515625,-8.1015625,1,0,0,0,5,0.00092,11.8515625,-8.1015625,1,0,0,0,125,125,155,1,0,,,,,,,,,,,,,,,,,,,,,
,,,,,,,,,,,,,,,,,,,,,,,,,,,,,,,,,,,,,,,,,,5f477a85d919ec03cadfaddd,606c0c92e1b1c0b9e4268ab5,2021-04-06_09h24.34.059,Colour_Similarity_Experiment,2020.2.10,MacIntel,60,6067542a4a25243f4d7d4fcf,17.06486807,16.68573091,16.67798349,16.67893378,16.67919064,16.67919064,,,,,,,,,,,,,,,,,,,,PF,strong,3,,,,,,,,7,1.745255,,,,,,,,,,,,,,,,,,,,,,,,,,,,2,strong,69.484375,147.6445313,1,0,0,response1disk,5,127,11.5390625,1.06640625,1,0,0,rectangle,11.5390625,1.06640625,1,0,0,0,1,0.001055,11.5390625,1.06640625,1,0,0,0,126,126,80,1,0,,,,,,,,,,,,,,,,,,,,,
,,,,,,,,,,,,,,,,,,,,,,,,,,,,,,,,,,,,,,,,,,5f477a85d919ec03cadfaddd,606c0c92e1b1c0b9e4268ab5,2021-04-06_09h24.34.059,Colour_Similarity_Experiment,2020.2.10,MacIntel,60,6067542a4a25243f4d7d4fcf,17.06486807,16.68573091,16.67798349,16.67893378,16.67919064,16.67919064,,,,,,,,,,,,,,,,,,,,PF,weak,3,,,,,,,,7,1.166675,,,,,,,,,,,,,,,,,,,,,,,,,,,,6,weak,61.83203125,127.7304688,1,0,0,response1disk,9,128,10.84765625,9.94921875,1,0,0,rectangle,10.84765625,9.94921875,1,0,0,0,1,0.00022,10.84765625,9.94921875,1,0,0,0,127,127,45,1,0,,,,,,,,,,,,,,,,,,,,,
,,,,,,,,,,,,,,,,,,,,,,,,,,,,,,,,,,,,,,,,,,5f477a85d919ec03cadfaddd,606c0c92e1b1c0b9e4268ab5,2021-04-06_09h24.34.059,Colour_Similarity_Experiment,2020.2.10,MacIntel,60,6067542a4a25243f4d7d4fcf,17.06486807,16.68573091,16.67798349,16.67893378,16.67919064,16.67919064,,,,,,,,,,,,,,,,,,,,PF,strong,3,,,,,,,,7,11.79139,,,,,,,,,,,,,,,,,,,,,,,,,,,,8,strong,83.16796875,177.9296875,1,0,0,response1disk,2,129,6.9375,-13.96484375,1,0,0,rectangle,6.9375,-13.96484375,1,0,0,0,6,0.00098,6.9375,-13.96484375,1,0,0,0,128,128,22,1,0,,,,,,,,,,,,,,,,,,,,,
,,,,,,,,,,,,,,,,,,,,,,,,,,,,,,,,,,,,,,,,,,5f477a85d919ec03cadfaddd,606c0c92e1b1c0b9e4268ab5,2021-04-06_09h24.34.059,Colour_Similarity_Experiment,2020.2.10,MacIntel,60,6067542a4a25243f4d7d4fcf,17.06486807,16.68573091,16.67798349,16.67893378,16.67919064,16.67919064,,,,,,,,,,,,,,,,,,,,PF,weak,3,,,,,,,,6,1.783805,,,,,,,,,,,,,,,,,,,,,,,,,,,,4,weak,158.0234375,82.58203125,1,0,0,response1disk,2,130,0.51171875,-4.4453125,1,0,0,rectangle,0.51171875,-4.4453125,1,0,0,0,5,0.00125,0.51171875,-4.4453125,1,0,0,0,129,129,108,1,0,,,,,,,,,,,,,,,,,,,,,
,,,,,,,,,,,,,,,,,,,,,,,,,,,,,,,,,,,,,,,,,,5f477a85d919ec03cadfaddd,606c0c92e1b1c0b9e4268ab5,2021-04-06_09h24.34.059,Colour_Similarity_Experiment,2020.2.10,MacIntel,60,6067542a4a25243f4d7d4fcf,17.06486807,16.68573091,16.67798349,16.67893378,16.67919064,16.67919064,,,,,,,,,,,,,,,,,,,,PF,strong,3,,,,,,,,6,1.500285,,,,,,,,,,,,,,,,,,,,,,,,,,,,4,strong,151.8476563,58.16015625,1,0,0,response1disk,2,131,21.5390625,5.39453125,1,0,0,rectangle,21.5390625,5.39453125,1,0,0,0,1,0.00104,21.5390625,5.39453125,1,0,0,0,130,130,13,1,0,,,,,,,,,,,,,,,,,,,,,
,,,,,,,,,,,,,,,,,,,,,,,,,,,,,,,,,,,,,,,,,,5f477a85d919ec03cadfaddd,606c0c92e1b1c0b9e4268ab5,2021-04-06_09h24.34.059,Colour_Similarity_Experiment,2020.2.10,MacIntel,60,6067542a4a25243f4d7d4fcf,17.06486807,16.68573091,16.67798349,16.67893378,16.67919064,16.67919064,,,,,,,,,,,,,,,,,,,,PF,weak,3,,,,,,,,7,1.417755,,,,,,,,,,,,,,,,,,,,,,,,,,,,7,weak,71.4765625,137.671875,1,0,0,response1disk,3,132,10.453125,1.62890625,1,0,0,rectangle,10.453125,1.62890625,1,0,0,0,7,0.001015,10.453125,1.62890625,1,0,0,0,131,131,81,1,0,,,,,,,,,,,,,,,,,,,,,
,,,,,,,,,,,,,,,,,,,,,,,,,,,,,,,,,,,,,,,,,,5f477a85d919ec03cadfaddd,606c0c92e1b1c0b9e4268ab5,2021-04-06_09h24.34.059,Colour_Similarity_Experiment,2020.2.10,MacIntel,60,6067542a4a25243f4d7d4fcf,17.06486807,16.68573091,16.67798349,16.67893378,16.67919064,16.67919064,,,,,,,,,,,,,,,,,,,,PF,strong,3,,,,,,,,7,1.06707,,,,,,,,,,,,,,,,,,,,,,,,,,,,2,strong,67.97265625,118.7929688,1,0,0,response1disk,6,133,19.20703125,6.7734375,1,0,0,rectangle,19.20703125,6.7734375,1,0,0,0,1,0.00107,19.20703125,6.7734375,1,0,0,0,132,132,40,1,0,,,,,,,,,,,,,,,,,,,,,
,,,,,,,,,,,,,,,,,,,,,,,,,,,,,,,,,,,,,,,,,,5f477a85d919ec03cadfaddd,606c0c92e1b1c0b9e4268ab5,2021-04-06_09h24.34.059,Colour_Similarity_Experiment,2020.2.10,MacIntel,60,6067542a4a25243f4d7d4fcf,17.06486807,16.68573091,16.67798349,16.67893378,16.67919064,16.67919064,,,,,,,,,,,,,,,,,,,,PF,strong,3,,,,,,,,7,2.035375,,,,,,,,,,,,,,,,,,,,,,,,,,,,2,strong,68.85546875,133.5859375,1,0,0,response1disk,1,134,12.53515625,-7.31640625,1,0,0,rectangle,12.53515625,-7.31640625,1,0,0,0,1,0.000145,12.53515625,-7.31640625,1,0,0,0,133,133,85,1,0,,,,,,,,,,,,,,,,,,,,,
,,,,,,,,,,,,,,,,,,,,,,,,,,,,,,,,,,,,,,,,,,5f477a85d919ec03cadfaddd,606c0c92e1b1c0b9e4268ab5,2021-04-06_09h24.34.059,Colour_Similarity_Experiment,2020.2.10,MacIntel,60,6067542a4a25243f4d7d4fcf,17.06486807,16.68573091,16.67798349,16.67893378,16.67919064,16.67919064,,,,,,,,,,,,,,,,,,,,PF,strong,3,,,,,,,,7,1.217525,,,,,,,,,,,,,,,,,,,,,,,,,,,,5,strong,52.74609375,86.734375,1,0,0,response1disk,2,135,-12.953125,-2.48046875,1,0,0,rectangle,154.0273438,70.41796875,1,0,0,6,6,3.802395,-14.37109375,-11.00390625,1,0,0,0,134,134,55,1,1,response1disk_3,rectangle,,,,,,,,,,,,,,,,,,,
,,,,,,,,,,,,,,,,,,,,,,,,,,,,,,,,,,,,,,,,,,5f477a85d919ec03cadfaddd,606c0c92e1b1c0b9e4268ab5,2021-04-06_09h24.34.059,Colour_Similarity_Experiment,2020.2.10,MacIntel,60,6067542a4a25243f4d7d4fcf,17.06486807,16.68573091,16.67798349,16.67893378,16.67919064,16.67919064,,,,,,,,,,,,,,,,,,,,PF,weak,3,,,,,,,,7,0.965805,,,,,,,,,,,,,,,,,,,,,,,,,,,,4,weak,87.97265625,118.9179688,1,0,0,response1disk,8,136,14.67578125,4.546875,1,0,0,rectangle,14.67578125,4.546875,1,0,0,6,5,0.001,14.67578125,4.546875,1,0,0,0,135,135,124,1,0,,,,,,,,,,,,,,,,,,,,,
,,,,,,,,,,,,,,,,,,,,,,,,,,,,,,,,,,,,,,,,,,5f477a85d919ec03cadfaddd,606c0c92e1b1c0b9e4268ab5,2021-04-06_09h24.34.059,Colour_Similarity_Experiment,2020.2.10,MacIntel,60,6067542a4a25243f4d7d4fcf,17.06486807,16.68573091,16.67798349,16.67893378,16.67919064,16.67919064,,,,,,,,,,,,,,,,,,,,PF,strong,3,,,,,,,,3,3.969175,,,,,,,,,,,,,,,,,,,,,,,,,,,,5,strong,-40.41015625,-112.9726563,1,0,0,response5disk,6,137,-2.28515625,-6.17578125,1,0,0,rectangle,-2.28515625,-6.17578125,1,0,0,6,3,0.001005,-2.28515625,-6.17578125,1,0,0,0,136,136,12,1,0,,,,,,,,,,,,,,,,,,,,,
,,,,,,,,,,,,,,,,,,,,,,,,,,,,,,,,,,,,,,,,,,5f477a85d919ec03cadfaddd,606c0c92e1b1c0b9e4268ab5,2021-04-06_09h24.34.059,Colour_Similarity_Experiment,2020.2.10,MacIntel,60,6067542a4a25243f4d7d4fcf,17.06486807,16.68573091,16.67798349,16.67893378,16.67919064,16.67919064,,,,,,,,,,,,,,,,,,,,PF,weak,3,,,,,,,,2,1.32819,,,,,,,,,,,,,,,,,,,,,,,,,,,,2,weak,-116.875,-74.20703125,1,0,0,response5disk,3,138,-25.9375,-10.44921875,1,0,0,rectangle,-25.9375,-10.44921875,1,0,0,6,1,0.001135,-25.9375,-10.44921875,1,0,0,0,137,137,69,1,0,,,,,,,,,,,,,,,,,,,,,
,,,,,,,,,,,,,,,,,,,,,,,,,,,,,,,,,,,,,,,,,,5f477a85d919ec03cadfaddd,606c0c92e1b1c0b9e4268ab5,2021-04-06_09h24.34.059,Colour_Similarity_Experiment,2020.2.10,MacIntel,60,6067542a4a25243f4d7d4fcf,17.06486807,16.68573091,16.67798349,16.67893378,16.67919064,16.67919064,,,,,,,,,,,,,,,,,,,,PF,weak,3,,,,,,,,7,1.072245,,,,,,,,,,,,,,,,,,,,,,,,,,,,7,weak,54.24609375,142.65625,1,0,0,response1disk,1,139,18.19921875,1.25,1,0,0,rectangle,18.19921875,1.25,1,0,0,6,4,0.001,18.19921875,1.25,1,0,0,0,138,138,53,1,0,,,,,,,,,,,,,,,,,,,,,
,,,,,,,,,,,,,,,,,,,,,,,,,,,,,,,,,,,,,,,,,,5f477a85d919ec03cadfaddd,606c0c92e1b1c0b9e4268ab5,2021-04-06_09h24.34.059,Colour_Similarity_Experiment,2020.2.10,MacIntel,60,6067542a4a25243f4d7d4fcf,17.06486807,16.68573091,16.67798349,16.67893378,16.67919064,16.67919064,,,,,,,,,,,,,,,,,,,,PF,weak,3,,,,,,,,7,1.04013,,,,,,,,,,,,,,,,,,,,,,,,,,,,3,weak,55.19140625,105.765625,1,0,0,response1disk,7,140,7.6328125,4.8359375,1,0,0,rectangle,7.6328125,4.8359375,1,0,0,6,1,0.002845,7.6328125,4.8359375,1,0,0,0,139,139,41,1,0,,,,,,,,,,,,,,,,,,,,,
,,,,,,,,,,,,,,,,,,,,,,,,,,,,,,,,,,,,,,,,,,5f477a85d919ec03cadfaddd,606c0c92e1b1c0b9e4268ab5,2021-04-06_09h24.34.059,Colour_Similarity_Experiment,2020.2.10,MacIntel,60,6067542a4a25243f4d7d4fcf,17.06486807,16.68573091,16.67798349,16.67893378,16.67919064,16.67919064,,,,,,,,,,,,,,,,,,,,PF,strong,3,,,,,,,,6,7.089955,,,,,,,,,,,,,,,,,,,,,,,,,,,,9,strong,164.8671875,75.625,1,0,0,response1disk,1,141,20.67578125,0.4765625,1,0,0,rectangle,20.67578125,0.4765625,1,0,0,6,6,0.00103,20.67578125,0.4765625,1,0,0,0,140,140,111,1,0,,,,,,,,,,,,,,,,,,,,,
,,,,,,,,,,,,,,,,,,,,,,,,,,,,,,,,,,,,,,,,,,5f477a85d919ec03cadfaddd,606c0c92e1b1c0b9e4268ab5,2021-04-06_09h24.34.059,Colour_Similarity_Experiment,2020.2.10,MacIntel,60,6067542a4a25243f4d7d4fcf,17.06486807,16.68573091,16.67798349,16.67893378,16.67919064,16.67919064,,,,,,,,,,,,,,,,,,,,PF,strong,3,,,,,,,,0,1.41727,,,,,,,,,,,,,,,,,,,,,,,,,,,,8,strong,-99.34765625,112.3984375,1,0,0,response7disk,8,142,-10.76953125,7.63671875,1,0,0,rectangle,-10.76953125,7.63671875,1,0,0,6,1,0.000975,-10.76953125,7.63671875,1,0,0,0,141,141,48,1,0,,,,,,,,,,,,,,,,,,,,,
,,,,,,,,,,,,,,,,,,,,,,,,,,,,,,,,,,,,,,,,,,5f477a85d919ec03cadfaddd,606c0c92e1b1c0b9e4268ab5,2021-04-06_09h24.34.059,Colour_Similarity_Experiment,2020.2.10,MacIntel,60,6067542a4a25243f4d7d4fcf,17.06486807,16.68573091,16.67798349,16.67893378,16.67919064,16.67919064,,,,,,,,,,,,,,,,,,,,PF,weak,3,,,,,,,,7,0.95011,,,,,,,,,,,,,,,,,,,,,,,,,,,,5,weak,49.86328125,115.4140625,1,0,0,response1disk,8,143,8.16796875,0.12109375,1,0,0,rectangle,8.16796875,0.12109375,1,0,0,6,7,0.00104,8.16796875,0.12109375,1,0,0,0,142,142,149,1,0,,,,,,,,,,,,,,,,,,,,,
,,,,,,,,,,,,,,,,,,,,,,,,,,,,,,,,,,,,,,,,,,5f477a85d919ec03cadfaddd,606c0c92e1b1c0b9e4268ab5,2021-04-06_09h24.34.059,Colour_Similarity_Experiment,2020.2.10,MacIntel,60,6067542a4a25243f4d7d4fcf,17.06486807,16.68573091,16.67798349,16.67893378,16.67919064,16.67919064,,,,,,,,,,,,,,,,,,,,PF,strong,3,,,,,,,,7,1.83389,,,,,,,,,,,,,,,,,,,,,,,,,,,,3,strong,64.3984375,99.5,1,0,0,response1disk,1,144,-1.953125,8.6953125,1,0,0,rectangle,-1.953125,8.6953125,1,0,0,6,6,0.000995,-1.953125,8.6953125,1,0,0,0,143,143,125,1,0,,,,,,,,,,,,,,,,,,,,,
,,,,,,,,,,,,,,,,,,,,,,,,,,,,,,,,,,,,,,,,,,5f477a85d919ec03cadfaddd,606c0c92e1b1c0b9e4268ab5,2021-04-06_09h24.34.059,Colour_Similarity_Experiment,2020.2.10,MacIntel,60,6067542a4a25243f4d7d4fcf,17.06486807,16.68573091,16.67798349,16.67893378,16.67919064,16.67919064,,,,,,,,,,,,,,,,,,,,PF,strong,3,,,,,,,,7,2.0023,,,,,,,,,,,,,,,,,,,,,,,,,,,,1,strong,71.82421875,116.7226563,1,0,0,response1disk,3,145,17.56640625,9.3359375,1,0,0,rectangle,17.56640625,9.3359375,1,0,0,6,4,0.00124,17.56640625,9.3359375,1,0,0,0,144,144,99,1,0,,,,,,,,,,,,,,,,,,,,,
,,,,,,,,,,,,,,,,,,,,,,,,,,,,,,,,,,,,,,,,,,5f477a85d919ec03cadfaddd,606c0c92e1b1c0b9e4268ab5,2021-04-06_09h24.34.059,Colour_Similarity_Experiment,2020.2.10,MacIntel,60,6067542a4a25243f4d7d4fcf,17.06486807,16.68573091,16.67798349,16.67893378,16.67919064,16.67919064,,,,,,,,,,,,,,,,,,,,PF,weak,3,,,,,,,,7,1.10085,,,,,,,,,,,,,,,,,,,,,,,,,,,,4,weak,57.984375,129.7226563,1,0,0,response1disk,7,146,1.51171875,-9.12109375,1,0,0,rectangle,1.51171875,-9.12109375,1,0,0,6,7,0.001315,1.51171875,-9.12109375,1,0,0,0,145,145,38,1,0,,,,,,,,,,,,,,,,,,,,,
,,,,,,,,,,,,,,,,,,,,,,,,,,,,,,,,,,,,,,,,,,5f477a85d919ec03cadfaddd,606c0c92e1b1c0b9e4268ab5,2021-04-06_09h24.34.059,Colour_Similarity_Experiment,2020.2.10,MacIntel,60,6067542a4a25243f4d7d4fcf,17.06486807,16.68573091,16.67798349,16.67893378,16.67919064,16.67919064,,,,,,,,,,,,,,,,,,,,PF,strong,3,,,,,,,,1,2.652315,,,,,,,,,,,,,,,,,,,,,,,,,,,,9,strong,-121.0390625,40.58203125,1,0,0,response7disk,9,147,39.94921875,-4.46875,1,0,0,rectangle,39.94921875,-4.46875,1,0,0,6,7,0.00015,39.94921875,-4.46875,1,0,0,0,146,146,17,1,0,,,,,,,,,,,,,,,,,,,,,
,,,,,,,,,,,,,,,,,,,,,,,,,,,,,,,,,,,,,,,,,,5f477a85d919ec03cadfaddd,606c0c92e1b1c0b9e4268ab5,2021-04-06_09h24.34.059,Colour_Similarity_Experiment,2020.2.10,MacIntel,60,6067542a4a25243f4d7d4fcf,17.06486807,16.68573091,16.67798349,16.67893378,16.67919064,16.67919064,,,,,,,,,,,,,,,,,,,,PF,weak,3,,,,,,,,7,0.88358,,,,,,,,,,,,,,,,,,,,,,,,,,,,5,weak,44.7421875,133.7109375,1,0,0,response1disk,1,148,6.22265625,-2.0625,1,0,0,rectangle,68.015625,-150.4492188,1,0,0,4,4,3.21954,-8.1171875,-12.8984375,1,0,0,0,147,147,159,1,1,response3disk_3,rectangle,,,,,,,,,,,,,,,,,,,
,,,,,,,,,,,,,,,,,,,,,,,,,,,,,,,,,,,,,,,,,,5f477a85d919ec03cadfaddd,606c0c92e1b1c0b9e4268ab5,2021-04-06_09h24.34.059,Colour_Similarity_Experiment,2020.2.10,MacIntel,60,6067542a4a25243f4d7d4fcf,17.06486807,16.68573091,16.67798349,16.67893378,16.67919064,16.67919064,,,,,,,,,,,,,,,,,,,,PF,strong,3,,,,,,,,7,0.97394,,,,,,,,,,,,,,,,,,,,,,,,,,,,9,strong,71.6328125,109.828125,1,0,0,response1disk,6,149,2.7265625,-27.91015625,1,0,0,rectangle,2.7265625,-27.91015625,1,0,0,4,0,0.00093,2.7265625,-27.91015625,1,0,0,0,148,148,117,1,0,,,,,,,,,,,,,,,,,,,,,
,,,,,,,,,,,,,,,,,,,,,,,,,,,,,,,,,,,,,,,,,,5f477a85d919ec03cadfaddd,606c0c92e1b1c0b9e4268ab5,2021-04-06_09h24.34.059,Colour_Similarity_Experiment,2020.2.10,MacIntel,60,6067542a4a25243f4d7d4fcf,17.06486807,16.68573091,16.67798349,16.67893378,16.67919064,16.67919064,,,,,,,,,,,,,,,,,,,,PF,strong,3,,,,,,,,7,1.63395,,,,,,,,,,,,,,,,,,,,,,,,,,,,9,strong,44.85546875,95.8046875,1,0,0,response1disk,2,150,7.1640625,6.4140625,1,0,0,rectangle,-138.9101563,54.890625,1,0,0,1,1,6.204975,-2.0234375,7.9921875,1,0,0,0,149,149,11,1,1,response7disk_3,rectangle,,,,,,,,,,,,,,,,,,,
,,,,,,,,,,,,,,,,,,,,,,,,,,,,,,,,,,,,,,,,,,5f477a85d919ec03cadfaddd,606c0c92e1b1c0b9e4268ab5,2021-04-06_09h24.34.059,Colour_Similarity_Experiment,2020.2.10,MacIntel,60,6067542a4a25243f4d7d4fcf,17.06486807,16.68573091,16.67798349,16.67893378,16.67919064,16.67919064,,,,,,,,,,,,,,,,,,,,PF,weak,3,,,,,,,,7,0.83385,,,,,,,,,,,,,,,,,,,,,,,,,,,,7,weak,66.73828125,111.046875,1,0,0,response1disk,9,151,11.37109375,5.87109375,1,0,0,rectangle,11.37109375,5.87109375,1,0,0,1,1,0.000145,11.37109375,5.87109375,1,0,0,0,150,150,10,1,0,,,,,,,,,,,,,,,,,,,,,
,,,,,,,,,,,,,,,,,,,,,,,,,,,,,,,,,,,,,,,,,,5f477a85d919ec03cadfaddd,606c0c92e1b1c0b9e4268ab5,2021-04-06_09h24.34.059,Colour_Similarity_Experiment,2020.2.10,MacIntel,60,6067542a4a25243f4d7d4fcf,17.06486807,16.68573091,16.67798349,16.67893378,16.67919064,16.67919064,,,,,,,,,,,,,,,,,,,,PF,weak,3,,,,,,,,7,1.3334,,,,,,,,,,,,,,,,,,,,,,,,,,,,6,weak,71.83203125,107.484375,1,0,0,response1disk,8,152,19.56640625,4.375,1,0,0,rectangle,19.56640625,4.375,1,0,0,1,6,0.001025,19.56640625,4.375,1,0,0,0,151,151,64,1,0,,,,,,,,,,,,,,,,,,,,,
,,,,,,,,,,,,,,,,,,,,,,,,,,,,,,,,,,,,,,,,,,5f477a85d919ec03cadfaddd,606c0c92e1b1c0b9e4268ab5,2021-04-06_09h24.34.059,Colour_Similarity_Experiment,2020.2.10,MacIntel,60,6067542a4a25243f4d7d4fcf,17.06486807,16.68573091,16.67798349,16.67893378,16.67919064,16.67919064,,,,,,,,,,,,,,,,,,,,PF,weak,3,,,,,,,,7,0.80015,,,,,,,,,,,,,,,,,,,,,,,,,,,,9,weak,53.953125,94.671875,1,0,0,response1disk,2,153,13.234375,-4.94140625,1,0,0,rectangle,13.234375,-4.94140625,1,0,0,1,0,0.000995,13.234375,-4.94140625,1,0,0,0,152,152,157,1,0,,,,,,,,,,,,,,,,,,,,,
,,,,,,,,,,,,,,,,,,,,,,,,,,,,,,,,,,,,,,,,,,5f477a85d919ec03cadfaddd,606c0c92e1b1c0b9e4268ab5,2021-04-06_09h24.34.059,Colour_Similarity_Experiment,2020.2.10,MacIntel,60,6067542a4a25243f4d7d4fcf,17.06486807,16.68573091,16.67798349,16.67893378,16.67919064,16.67919064,,,,,,,,,,,,,,,,,,,,PF,strong,3,,,,,,,,3,2.73538,,,,,,,,,,,,,,,,,,,,,,,,,,,,5,strong,-49.41796875,-92.21484375,1,0,0,response5disk,5,154,-7.984375,2.68359375,1,0,0,rectangle,-7.984375,2.68359375,1,0,0,1,3,0.001095,-7.984375,2.68359375,1,0,0,0,153,153,19,1,0,,,,,,,,,,,,,,,,,,,,,
,,,,,,,,,,,,,,,,,,,,,,,,,,,,,,,,,,,,,,,,,,5f477a85d919ec03cadfaddd,606c0c92e1b1c0b9e4268ab5,2021-04-06_09h24.34.059,Colour_Similarity_Experiment,2020.2.10,MacIntel,60,6067542a4a25243f4d7d4fcf,17.06486807,16.68573091,16.67798349,16.67893378,16.67919064,16.67919064,,,,,,,,,,,,,,,,,,,,PF,strong,3,,,,,,,,7,1.46697,,,,,,,,,,,,,,,,,,,,,,,,,,,,5,strong,49.3125,132.0625,1,0,0,response1disk,8,155,-4.37109375,10.8046875,1,0,0,rectangle,-4.37109375,10.8046875,1,0,0,1,1,0.001075,-4.37109375,10.8046875,1,0,0,0,154,154,16,1,0,,,,,,,,,,,,,,,,,,,,,
,,,,,,,,,,,,,,,,,,,,,,,,,,,,,,,,,,,,,,,,,,5f477a85d919ec03cadfaddd,606c0c92e1b1c0b9e4268ab5,2021-04-06_09h24.34.059,Colour_Similarity_Experiment,2020.2.10,MacIntel,60,6067542a4a25243f4d7d4fcf,17.06486807,16.68573091,16.67798349,16.67893378,16.67919064,16.67919064,,,,,,,,,,,,,,,,,,,,PF,strong,3,,,,,,,,7,3.08566,,,,,,,,,,,,,,,,,,,,,,,,,,,,2,strong,71.76953125,121.8320313,1,0,0,response1disk,7,156,8.4296875,-18.6484375,1,0,0,rectangle,8.4296875,-18.6484375,1,0,0,1,5,0.00097,8.4296875,-18.6484375,1,0,0,0,155,155,63,1,0,,,,,,,,,,,,,,,,,,,,,
,,,,,,,,,,,,,,,,,,,,,,,,,,,,,,,,,,,,,,,,,,5f477a85d919ec03cadfaddd,606c0c92e1b1c0b9e4268ab5,2021-04-06_09h24.34.059,Colour_Similarity_Experiment,2020.2.10,MacIntel,60,6067542a4a25243f4d7d4fcf,17.06486807,16.68573091,16.67798349,16.67893378,16.67919064,16.67919064,,,,,,,,,,,,,,,,,,,,PF,weak,3,,,,,,,,0,2.2184,,,,,,,,,,,,,,,,,,,,,,,,,,,,9,weak,-50.0234375,105.6992188,1,0,0,response7disk,8,157,-16.34375,7.34375,1,0,0,rectangle,-16.34375,7.34375,1,0,0,1,6,0.001075,-16.34375,7.34375,1,0,0,0,156,156,67,1,0,,,,,,,,,,,,,,,,,,,,,
,,,,,,,,,,,,,,,,,,,,,,,,,,,,,,,,,,,,,,,,,,5f477a85d919ec03cadfaddd,606c0c92e1b1c0b9e4268ab5,2021-04-06_09h24.34.059,Colour_Similarity_Experiment,2020.2.10,MacIntel,60,6067542a4a25243f4d7d4fcf,17.06486807,16.68573091,16.67798349,16.67893378,16.67919064,16.67919064,,,,,,,,,,,,,,,,,,,,PF,weak,3,,,,,,,,7,1.167735,,,,,,,,,,,,,,,,,,,,,,,,,,,,4,weak,60.51171875,104.7109375,1,0,0,response1disk,6,158,22.34375,7.97265625,1,0,0,rectangle,22.34375,7.97265625,1,0,0,1,3,0.001065,22.34375,7.97265625,1,0,0,0,157,157,120,1,0,,,,,,,,,,,,,,,,,,,,,
,,,,,,,,,,,,,,,,,,,,,,,,,,,,,,,,,,,,,,,,,,5f477a85d919ec03cadfaddd,606c0c92e1b1c0b9e4268ab5,2021-04-06_09h24.34.059,Colour_Similarity_Experiment,2020.2.10,MacIntel,60,6067542a4a25243f4d7d4fcf,17.06486807,16.68573091,16.67798349,16.67893378,16.67919064,16.67919064,,,,,,,,,,,,,,,,,,,,PF,weak,3,,,,,,,,5,1.857485,,,,,,,,,,,,,,,,,,,,,,,,,,,,9,weak,158.484375,-72.5078125,1,0,0,response3disk,7,159,12.87109375,-11.1328125,1,0,0,rectangle,12.87109375,-11.1328125,1,0,0,1,4,0.00104,12.87109375,-11.1328125,1,0,0,0,158,158,121,1,0,,,,,,,,,,,,,,,,,,,,,
,,,,,,,,,,,,,,,,,,,,,,,,,,,,,,,,,,,,,,,,,,5f477a85d919ec03cadfaddd,606c0c92e1b1c0b9e4268ab5,2021-04-06_09h24.34.059,Colour_Similarity_Experiment,2020.2.10,MacIntel,60,6067542a4a25243f4d7d4fcf,17.06486807,16.68573091,16.67798349,16.67893378,16.67919064,16.67919064,,,,,,,,,,,,,,,,,,,,PF,strong,3,,,,,,,,7,1.13233,,,,,,,,,,,,,,,,,,,,,,,,,,,,1,strong,46.30078125,96.1328125,1,0,0,response1disk,5,160,22.18359375,3.71875,1,0,0,rectangle,22.18359375,3.71875,1,0,0,1,7,0.001045,22.18359375,3.71875,1,0,0,0,159,159,82,1,0,,,,,,,,,,,,,,,,,,,,,
,,,,,,,,,,,,,,,,,,,,,,,,,,,,,,,,,,,,,,,,,,5f477a85d919ec03cadfaddd,606c0c92e1b1c0b9e4268ab5,2021-04-06_09h24.34.059,Colour_Similarity_Experiment,2020.2.10,MacIntel,60,6067542a4a25243f4d7d4fcf,17.06486807,16.68573091,16.67798349,16.67893378,16.67919064,16.67919064,,,,,,,,,,,,,,,,,,,,PF,strong,3,,,,,,,,7,1.550405,,,,,,,,,,,,,,,,,,,,,,,,,,,,5,strong,56.03125,98.4765625,1,0,0,response1disk,9,161,20.80078125,9.546875,1,0,0,rectangle,20.80078125,9.546875,1,0,0,1,0,0.00108,20.80078125,9.546875,1,0,0,0,160,160,61,1,0,,,,,,,,,,,,,,,,,,,,,
,,,,,,,,,,,,,,,,,,,,,,,,,,,,,,,,,,,,,,,,,,5f477a85d919ec03cadfaddd,606c0c92e1b1c0b9e4268ab5,2021-04-06_09h24.34.059,Colour_Similarity_Experiment,2020.2.10,MacIntel,60,6067542a4a25243f4d7d4fcf,17.06486807,16.68573091,16.67798349,16.67893378,16.67919064,16.67919064,,,,,,,,,,,,,,,,,,,,PF,weak,3,,,,,,,,7,1.28349,,,,,,,,,,,,,,,,,,,,,,,,,,,,9,weak,60.6796875,108.6835938,1,0,0,response1disk,6,162,19.02734375,14.53515625,1,0,0,rectangle,19.02734375,14.53515625,1,0,0,1,2,0.00109,19.02734375,14.53515625,1,0,0,0,161,161,148,1,0,,,,,,,,,,,,,,,,,,,,,
,,,,,,,,,,,,,,,,,,,,,,,,,,,,,,,,,,,,,,,,,,5f477a85d919ec03cadfaddd,606c0c92e1b1c0b9e4268ab5,2021-04-06_09h24.34.059,Colour_Similarity_Experiment,2020.2.10,MacIntel,60,6067542a4a25243f4d7d4fcf,17.06486807,16.68573091,16.67798349,16.67893378,16.67919064,16.67919064,,,,,,,,,,,,,,,,,,,,,,,,,,,,,,,,,,,,,,,,,,,,,,,,,,,,,,,,,,,,,,,,,,,,,,,,,,,,,,,,,,,,,,,,,,,,,,,,0,0,0,0,1,,,,,,,,,,,,,,
,,,,,,,,,,,,,,,,,,,,,,,,,,,,,,,,,,,,,,,,,,5f477a85d919ec03cadfaddd,606c0c92e1b1c0b9e4268ab5,2021-04-06_09h24.34.059,Colour_Similarity_Experiment,2020.2.10,MacIntel,60,6067542a4a25243f4d7d4fcf,17.06486807,16.68573091,16.67798349,16.67893378,16.67919064,16.67919064,,,,,,,,,,,,,,,,,,,,PF,strong,3,,,,,,,,7,1.38462,,,,,,,,,,,,,,,,,,,,,,,,,,,,3,strong,48.078125,74,1,0,0,response1disk,7,163,14.34765625,-6.7734375,1,0,0,rectangle,14.34765625,-6.7734375,1,0,0,1,5,0.000925,14.34765625,-6.7734375,1,0,0,0,0,0,118,1,0,,,,,,,,,,,,,,,,,,,,,
,,,,,,,,,,,,,,,,,,,,,,,,,,,,,,,,,,,,,,,,,,5f477a85d919ec03cadfaddd,606c0c92e1b1c0b9e4268ab5,2021-04-06_09h24.34.059,Colour_Similarity_Experiment,2020.2.10,MacIntel,60,6067542a4a25243f4d7d4fcf,17.06486807,16.68573091,16.67798349,16.67893378,16.67919064,16.67919064,,,,,,,,,,,,,,,,,,,,PF,weak,3,,,,,,,,7,2.2175,,,,,,,,,,,,,,,,,,,,,,,,,,,,6,weak,39.65625,90.33984375,1,0,0,response1disk,1,164,6.99609375,4.8046875,1,0,0,rectangle,6.99609375,4.8046875,1,0,0,1,1,0.00103,6.99609375,4.8046875,1,0,0,0,1,1,46,1,0,,,,,,,,,,,,,,,,,,,,,
,,,,,,,,,,,,,,,,,,,,,,,,,,,,,,,,,,,,,,,,,,5f477a85d919ec03cadfaddd,606c0c92e1b1c0b9e4268ab5,2021-04-06_09h24.34.059,Colour_Similarity_Experiment,2020.2.10,MacIntel,60,6067542a4a25243f4d7d4fcf,17.06486807,16.68573091,16.67798349,16.67893378,16.67919064,16.67919064,,,,,,,,,,,,,,,,,,,,PF,strong,3,,,,,,,,2,2.117625,,,,,,,,,,,,,,,,,,,,,,,,,,,,3,strong,-118.6015625,-50.98828125,1,0,0,response5disk,3,165,29.7265625,-1.66015625,1,0,0,rectangle,29.7265625,-1.66015625,1,0,0,1,0,0.00109,29.7265625,-1.66015625,1,0,0,0,2,2,68,1,0,,,,,,,,,,,,,,,,,,,,,
,,,,,,,,,,,,,,,,,,,,,,,,,,,,,,,,,,,,,,,,,,5f477a85d919ec03cadfaddd,606c0c92e1b1c0b9e4268ab5,2021-04-06_09h24.34.059,Colour_Similarity_Experiment,2020.2.10,MacIntel,60,6067542a4a25243f4d7d4fcf,17.06486807,16.68573091,16.67798349,16.67893378,16.67919064,16.67919064,,,,,,,,,,,,,,,,,,,,PF,weak,3,,,,,,,,7,1.750475,,,,,,,,,,,,,,,,,,,,,,,,,,,,9,weak,57.69921875,81.17578125,1,0,0,response1disk,3,166,3.953125,0.546875,1,0,0,rectangle,3.953125,0.546875,1,0,0,1,6,0.00193,3.953125,0.546875,1,0,0,0,3,3,119,1,0,,,,,,,,,,,,,,,,,,,,,
,,,,,,,,,,,,,,,,,,,,,,,,,,,,,,,,,,,,,,,,,,5f477a85d919ec03cadfaddd,606c0c92e1b1c0b9e4268ab5,2021-04-06_09h24.34.059,Colour_Similarity_Experiment,2020.2.10,MacIntel,60,6067542a4a25243f4d7d4fcf,17.06486807,16.68573091,16.67798349,16.67893378,16.67919064,16.67919064,,,,,,,,,,,,,,,,,,,,PF,weak,3,,,,,,,,4,2.217765,,,,,,,,,,,,,,,,,,,,,,,,,,,,3,weak,63.328125,-144.7304688,1,0,0,response3disk,4,167,21.89453125,-17.3984375,1,0,0,rectangle,21.89453125,-17.3984375,1,0,0,1,6,0.000185,21.89453125,-17.3984375,1,0,0,0,4,4,30,1,0,,,,,,,,,,,,,,,,,,,,,
,,,,,,,,,,,,,,,,,,,,,,,,,,,,,,,,,,,,,,,,,,5f477a85d919ec03cadfaddd,606c0c92e1b1c0b9e4268ab5,2021-04-06_09h24.34.059,Colour_Similarity_Experiment,2020.2.10,MacIntel,60,6067542a4a25243f4d7d4fcf,17.06486807,16.68573091,16.67798349,16.67893378,16.67919064,16.67919064,,,,,,,,,,,,,,,,,,,,PF,weak,3,,,,,,,,7,3.16668,,,,,,,,,,,,,,,,,,,,,,,,,,,,3,weak,83.3828125,113.4882813,1,0,0,response1disk,9,168,32.08984375,-2.8984375,1,0,0,rectangle,32.08984375,-2.8984375,1,0,0,1,1,0.001125,32.08984375,-2.8984375,1,0,0,0,5,5,79,1,0,,,,,,,,,,,,,,,,,,,,,
,,,,,,,,,,,,,,,,,,,,,,,,,,,,,,,,,,,,,,,,,,5f477a85d919ec03cadfaddd,606c0c92e1b1c0b9e4268ab5,2021-04-06_09h24.34.059,Colour_Similarity_Experiment,2020.2.10,MacIntel,60,6067542a4a25243f4d7d4fcf,17.06486807,16.68573091,16.67798349,16.67893378,16.67919064,16.67919064,,,,,,,,,,,,,,,,,,,,PF,strong,3,,,,,,,,4,2.10122,,,,,,,,,,,,,,,,,,,,,,,,,,,,3,strong,91.19921875,-126.8671875,1,0,0,response3disk,4,169,19.96875,-9.54296875,1,0,0,rectangle,19.96875,-9.54296875,1,0,0,1,4,0.001755,19.96875,-9.54296875,1,0,0,0,6,6,110,1,0,,,,,,,,,,,,,,,,,,,,,
