key_resp.keys,key_resp.rt,key_resp_16.keys,key_resp_16.rt,key_resp_2.keys,key_resp_2.rt,X Scale,ratio_pxpermm,screen_size_x,screen_size_y,testsize,key_resp_3.keys,key_resp_4.keys,key_resp_4.rt,line_size,key_resp_5.keys,key_resp_5.rt,key_resp_6.keys,key_resp_6.rt,key_resp_8.keys,key_resp_8.rt,key_resp_7.keys,key_resp_7.rt,key_resp_12.keys,key_resp_12.rt,key_resp_11.keys,key_resp_11.rt,key_resp_18.keys,key_resp_18.rt,key_resp_21.keys,key_resp_21.rt,key_resp_13.keys,key_resp_13.rt,key_resp_19.keys,key_resp_19.rt,ballposx,viewer_distance,trials.thisRepN,trials.thisTrialN,trials.thisN,trials.thisIndex,trials.ran,participant,session,date,expName,psychopyVersion,OS,frameRate,study_id,realFrameRate1,realFrameRate2,realFrameRate3,realFrameRate4,realFrameRate5,realFrameRate,viewerdistancecm,DVA_to_distance,radius_F,radius_P,r_F,R_P,key_resp_20.keys,key_resp_20.rt,key_resp_14.keys,key_resp_14.rt,key_resp_15.keys,key_resp_15.rt,key_resp_17.keys,key_resp_17.rt,key_resp_9.keys,key_resp_9.rt,key_resp_10.keys,key_resp_10.rt,Colour_1,Ecc,maskCon,mask_frames,mouse_5.x,mouse_5.y,mouse_5.leftButton,mouse_5.midButton,mouse_5.rightButton,mouse_5.clicked_name,Colour_2,similarity,response_time,mouse_10.x,mouse_10.y,mouse_10.leftButton,mouse_10.midButton,mouse_10.rightButton,mouse_10.clicked_name,mouse_7.x,mouse_7.y,mouse_7.leftButton,mouse_7.midButton,mouse_7.rightButton,catchnumberprac,mouse_6.x,mouse_6.y,mouse_6.leftButton,mouse_6.midButton,mouse_6.rightButton,duringprac.thisRepN,duringprac.thisTrialN,duringprac.thisN,duringprac.thisIndex,duringprac.ran,mouse_7.clicked_name,catchprac,mouse_6.clicked_name,key_resp_22.keys,key_resp_22.rt,Colour1,maskCon1,mouse.x,mouse.y,mouse.leftButton,mouse.midButton,mouse.rightButton,mouse.clicked_name,Colour2,trialnumber,mouse_2.x,mouse_2.y,mouse_2.leftButton,mouse_2.midButton,mouse_2.rightButton,mouse_2.clicked_name,mouse_3.x,mouse_3.y,mouse_3.leftButton,mouse_3.midButton,mouse_3.rightButton,catchresponse,catchnumber,response_time_catch,mouse_11.x,mouse_11.y,mouse_11.leftButton,mouse_11.midButton,mouse_11.rightButton,trials_2.thisRepN,trials_2.thisTrialN,trials_2.thisN,trials_2.thisIndex,trials_2.ran,Catch,mouse_3.clicked_name,mouse_11.clicked_name,trials_3.thisRepN,trials_3.thisTrialN,trials_3.thisN,trials_3.thisIndex,trials_3.ran,answer1,rt1,answer2,rt2,answer3,rt3,answer4,rt4,answer5,rt5,answer6,rt6,answer7,rt7
space,6.07054,space,45.34046,space,14.295075,39.8,3.98,343.2160804,192.9648241,1366,,space,23.76511,79.6,space,27.142945,space,20.799335,space,4.21526,space,7.9362,space,9.77875,space,32.454335,space,28.121815,space,27.128035,space,44.5106,return,10.31719,-751.983,1358.833271,0,0,0,0,1,5f4756db83588013e9e31bfc,606c0d55d433daa165747872,2021-04-06_09h29.10.864,Colour_Similarity_Experiment,2020.2.10,Win32,60,6067542a4a25243f4d7d4fcf,18.38736607,16.78786585,16.77208633,16.82670551,16.71150143,16.78786585,,,,,,,,,,,,,,,,,,,,,,,,,,,,,,,,,,,,,,,,,,,,,,,,,,,,,,,,,,,,,,,,,,,,,,,,,,,,,,,,,,,,,,,,,,,,,,,,,,,,,,,,,,,,,,,,,,
,,,,,,,,,,,,,,,,,,,,,,,,,,,,,,,,,return,9.98951,-717.15,1322.378512,1,0,1,0,1,5f4756db83588013e9e31bfc,606c0d55d433daa165747872,2021-04-06_09h29.10.864,Colour_Similarity_Experiment,2020.2.10,Win32,60,6067542a4a25243f4d7d4fcf,18.38736607,16.78786585,16.77208633,16.82670551,16.71150143,16.78786585,,,,,,,,,,,,,,,,,,,,,,,,,,,,,,,,,,,,,,,,,,,,,,,,,,,,,,,,,,,,,,,,,,,,,,,,,,,,,,,,,,,,,,,,,,,,,,,,,,,,,,,,,,,,,,,,,,
,,,,,,,,,,,,,,,,,,,,,,,,,,,,,,,,,return,10.106815,-729.444,1335.244898,2,0,2,0,1,5f4756db83588013e9e31bfc,606c0d55d433daa165747872,2021-04-06_09h29.10.864,Colour_Similarity_Experiment,2020.2.10,Win32,60,6067542a4a25243f4d7d4fcf,18.38736607,16.78786585,16.77208633,16.82670551,16.71150143,16.78786585,,,,,,,,,,,,,,,,,,,,,,,,,,,,,,,,,,,,,,,,,,,,,,,,,,,,,,,,,,,,,,,,,,,,,,,,,,,,,,,,,,,,,,,,,,,,,,,,,,,,,,,,,,,,,,,,,,
,,,,,,,,,,,,,,,,,,,,,,,,,,,,,,,,,return,9.67358,-678.219,1281.634958,3,0,3,0,1,5f4756db83588013e9e31bfc,606c0d55d433daa165747872,2021-04-06_09h29.10.864,Colour_Similarity_Experiment,2020.2.10,Win32,60,6067542a4a25243f4d7d4fcf,18.38736607,16.78786585,16.77208633,16.82670551,16.71150143,16.78786585,,,,,,,,,,,,,,,,,,,,,,,,,,,,,,,,,,,,,,,,,,,,,,,,,,,,,,,,,,,,,,,,,,,,,,,,,,,,,,,,,,,,,,,,,,,,,,,,,,,,,,,,,,,,,,,,,,
,,,,,,,,,,,,,,,,,,,,,,,,,,,,,,,,,return,9.95133,-713.052,1318.089717,4,0,4,0,1,5f4756db83588013e9e31bfc,606c0d55d433daa165747872,2021-04-06_09h29.10.864,Colour_Similarity_Experiment,2020.2.10,Win32,60,6067542a4a25243f4d7d4fcf,18.38736607,16.78786585,16.77208633,16.82670551,16.71150143,16.78786585,,,,,,,,,,,,,,,,,,,,,,,,,,,,,,,,,,,,,,,,,,,,,,,,,,,,,,,,,,,,,,,,,,,,,,,,,,,,,,,,,,,,,,,,,,,,,,,,,,,,,,,,,,,,,,,,,,
,,,,,,,,,,,,,,,,,,,,,,,,,,,,,,,,,,,,,,,,,,5f4756db83588013e9e31bfc,606c0d55d433daa165747872,2021-04-06_09h29.10.864,Colour_Similarity_Experiment,2020.2.10,Win32,60,6067542a4a25243f4d7d4fcf,18.38736607,16.78786585,16.77208633,16.82670551,16.71150143,16.78786585,132,23.04067747,137.5528445,917.0189631,91.70189631,412.6585334,space,13.925375,space,44.91294,space,78.70061,space,19.64507,space,11.249645,space,9.347745,6,PF,strong,3,80,51,1,0,0,response1disk_5,8,6,11.425805,5,3,1,0,0,rectangle_8,5,3,1,0,0,4,5,3,1,0,0,0,0,0,0,1,,,,,,,,,,,,,,,,,,,,,,,,,,,,,,,,,,,,,,,,,,,,,,,,,,,,,,,,,,,,,
,,,,,,,,,,,,,,,,,,,,,,,,,,,,,,,,,,,,,,,,,,5f4756db83588013e9e31bfc,606c0d55d433daa165747872,2021-04-06_09h29.10.864,Colour_Similarity_Experiment,2020.2.10,Win32,60,6067542a4a25243f4d7d4fcf,18.38736607,16.78786585,16.77208633,16.82670551,16.71150143,16.78786585,,,,,,,,,,,,,,,,,,,7,PF,weak,3,-47,-68,1,0,0,response5disk_5,6,3,7.85685,-7,-5,1,0,0,rectangle_8,30,-61,1,0,0,4,2,-1,1,0,0,0,1,1,4,1,response3disk_7,4,rectangle_4,,,,,,,,,,,,,,,,,,,,,,,,,,,,,,,,,,,,,,,,,,,,,,,,,,,,,,,,,,
,,,,,,,,,,,,,,,,,,,,,,,,,,,,,,,,,,,,,,,,,,5f4756db83588013e9e31bfc,606c0d55d433daa165747872,2021-04-06_09h29.10.864,Colour_Similarity_Experiment,2020.2.10,Win32,60,6067542a4a25243f4d7d4fcf,18.38736607,16.78786585,16.77208633,16.82670551,16.71150143,16.78786585,,,,,,,,,,,,,,,,,,,6,PF,weak,3,-66,-57,1,0,0,response5disk_5,7,2,14.287535,6,3,1,0,0,rectangle_8,6,3,1,0,0,4,6,3,1,0,0,0,2,2,5,1,,,,,,,,,,,,,,,,,,,,,,,,,,,,,,,,,,,,,,,,,,,,,,,,,,,,,,,,,,,,,
,,,,,,,,,,,,,,,,,,,,,,,,,,,,,,,,,,,,,,,,,,5f4756db83588013e9e31bfc,606c0d55d433daa165747872,2021-04-06_09h29.10.864,Colour_Similarity_Experiment,2020.2.10,Win32,60,6067542a4a25243f4d7d4fcf,18.38736607,16.78786585,16.77208633,16.82670551,16.71150143,16.78786585,,,,,,,,,,,,,,,,,,,1,PF,strong,3,-70,-36,1,0,0,response5disk_5,2,2,4.8116,-6,2,1,0,0,rectangle_8,-6,2,1,0,0,4,-6,2,1,0,0,0,3,3,2,1,,,,,,,,,,,,,,,,,,,,,,,,,,,,,,,,,,,,,,,,,,,,,,,,,,,,,,,,,,,,,
,,,,,,,,,,,,,,,,,,,,,,,,,,,,,,,,,,,,,,,,,,5f4756db83588013e9e31bfc,606c0d55d433daa165747872,2021-04-06_09h29.10.864,Colour_Similarity_Experiment,2020.2.10,Win32,60,6067542a4a25243f4d7d4fcf,18.38736607,16.78786585,16.77208633,16.82670551,16.71150143,16.78786585,,,,,,,,,,,,,,,,,,,4,PF,strong,3,70,87,1,0,0,response1disk_5,1,7,4.31787,8,-8,1,0,0,rectangle_8,8,-8,1,0,0,4,8,-8,1,0,0,0,4,4,3,1,,,,,,,,,,,,,,,,,,,,,,,,,,,,,,,,,,,,,,,,,,,,,,,,,,,,,,,,,,,,,
,,,,,,,,,,,,,,,,,,,,,,,,,,,,,,,,,,,,,,,,,,5f4756db83588013e9e31bfc,606c0d55d433daa165747872,2021-04-06_09h29.10.864,Colour_Similarity_Experiment,2020.2.10,Win32,60,6067542a4a25243f4d7d4fcf,18.38736607,16.78786585,16.77208633,16.82670551,16.71150143,16.78786585,,,,,,,,,,,,,,,,,,,8,PF,weak,3,44,89,1,0,0,response1disk_5,4,7,2.445525,-4,-6,1,0,0,rectangle_8,-4,-6,1,0,0,4,-4,-6,1,0,0,0,5,5,6,1,,,,,,,,,,,,,,,,,,,,,,,,,,,,,,,,,,,,,,,,,,,,,,,,,,,,,,,,,,,,,
,,,,,,,,,,,,,,,,,,,,,,,,,,,,,,,,,,,,,,,,,,5f4756db83588013e9e31bfc,606c0d55d433daa165747872,2021-04-06_09h29.10.864,Colour_Similarity_Experiment,2020.2.10,Win32,60,6067542a4a25243f4d7d4fcf,18.38736607,16.78786585,16.77208633,16.82670551,16.71150143,16.78786585,,,,,,,,,,,,,,,,,,,2,PF,weak,3,40,94,1,0,0,response1disk_5,6,7,1.976435,-1,-9,1,0,0,rectangle_8,-1,-9,1,0,0,4,-1,-9,1,0,0,0,6,6,1,1,,,,,,,,,,,,,,,,,,,,,,,,,,,,,,,,,,,,,,,,,,,,,,,,,,,,,,,,,,,,,
,,,,,,,,,,,,,,,,,,,,,,,,,,,,,,,,,,,,,,,,,,5f4756db83588013e9e31bfc,606c0d55d433daa165747872,2021-04-06_09h29.10.864,Colour_Similarity_Experiment,2020.2.10,Win32,60,6067542a4a25243f4d7d4fcf,18.38736607,16.78786585,16.77208633,16.82670551,16.71150143,16.78786585,,,,,,,,,,,,,,,,,,,,PF,strong,3,,,,,,,,0,3.02491,,,,,,,,,,,,,,,,,,,,,,,,,,space,5.013625,9,strong,-29,75,1,0,0,response7disk,9,1,-5,8,1,0,0,rectangle,-5,8,1,0,0,,0,0.0082,-5,8,1,0,0,0,0,0,17,1,0,,,,,,,,,,,,,,,,,,,,,
,,,,,,,,,,,,,,,,,,,,,,,,,,,,,,,,,,,,,,,,,,5f4756db83588013e9e31bfc,606c0d55d433daa165747872,2021-04-06_09h29.10.864,Colour_Similarity_Experiment,2020.2.10,Win32,60,6067542a4a25243f4d7d4fcf,18.38736607,16.78786585,16.77208633,16.82670551,16.71150143,16.78786585,,,,,,,,,,,,,,,,,,,,PF,weak,3,,,,,,,,7,2.151735,,,,,,,,,,,,,,,,,,,,,,,,,,,,1,weak,48,71,1,0,0,response1disk,7,2,14,6,1,0,0,rectangle,14,6,1,0,0,,4,0.004005,14,6,1,0,0,0,1,1,150,1,0,,,,,,,,,,,,,,,,,,,,,
,,,,,,,,,,,,,,,,,,,,,,,,,,,,,,,,,,,,,,,,,,5f4756db83588013e9e31bfc,606c0d55d433daa165747872,2021-04-06_09h29.10.864,Colour_Similarity_Experiment,2020.2.10,Win32,60,6067542a4a25243f4d7d4fcf,18.38736607,16.78786585,16.77208633,16.82670551,16.71150143,16.78786585,,,,,,,,,,,,,,,,,,,,PF,weak,3,,,,,,,,0,2.238725,,,,,,,,,,,,,,,,,,,,,,,,,,,,3,weak,-36,63,1,0,0,response7disk,3,3,-8,12,1,0,0,rectangle,-8,12,1,0,0,,0,0.004285,-8,12,1,0,0,0,2,2,4,1,0,,,,,,,,,,,,,,,,,,,,,
,,,,,,,,,,,,,,,,,,,,,,,,,,,,,,,,,,,,,,,,,,5f4756db83588013e9e31bfc,606c0d55d433daa165747872,2021-04-06_09h29.10.864,Colour_Similarity_Experiment,2020.2.10,Win32,60,6067542a4a25243f4d7d4fcf,18.38736607,16.78786585,16.77208633,16.82670551,16.71150143,16.78786585,,,,,,,,,,,,,,,,,,,,PF,weak,3,,,,,,,,6,3.59287,,,,,,,,,,,,,,,,,,,,,,,,,,,,2,weak,94,30,1,0,0,response1disk,9,4,9,2,1,0,0,rectangle,9,2,1,0,0,,2,0.003125,9,2,1,0,0,0,3,3,39,1,0,,,,,,,,,,,,,,,,,,,,,
,,,,,,,,,,,,,,,,,,,,,,,,,,,,,,,,,,,,,,,,,,5f4756db83588013e9e31bfc,606c0d55d433daa165747872,2021-04-06_09h29.10.864,Colour_Similarity_Experiment,2020.2.10,Win32,60,6067542a4a25243f4d7d4fcf,18.38736607,16.78786585,16.77208633,16.82670551,16.71150143,16.78786585,,,,,,,,,,,,,,,,,,,,PF,weak,3,,,,,,,,7,1.777615,,,,,,,,,,,,,,,,,,,,,,,,,,,,7,weak,49,73,1,0,0,response1disk,2,5,11,-4,1,0,0,rectangle,11,-4,1,0,0,,0,0.004655,11,-4,1,0,0,0,4,4,32,1,0,,,,,,,,,,,,,,,,,,,,,
,,,,,,,,,,,,,,,,,,,,,,,,,,,,,,,,,,,,,,,,,,5f4756db83588013e9e31bfc,606c0d55d433daa165747872,2021-04-06_09h29.10.864,Colour_Similarity_Experiment,2020.2.10,Win32,60,6067542a4a25243f4d7d4fcf,18.38736607,16.78786585,16.77208633,16.82670551,16.71150143,16.78786585,,,,,,,,,,,,,,,,,,,,PF,strong,3,,,,,,,,7,1.66624,,,,,,,,,,,,,,,,,,,,,,,,,,,,9,strong,34,66,1,0,0,response1disk,4,6,3,3,1,0,0,rectangle,3,3,1,0,0,,5,0.00295,3,3,1,0,0,0,5,5,60,1,0,,,,,,,,,,,,,,,,,,,,,
,,,,,,,,,,,,,,,,,,,,,,,,,,,,,,,,,,,,,,,,,,5f4756db83588013e9e31bfc,606c0d55d433daa165747872,2021-04-06_09h29.10.864,Colour_Similarity_Experiment,2020.2.10,Win32,60,6067542a4a25243f4d7d4fcf,18.38736607,16.78786585,16.77208633,16.82670551,16.71150143,16.78786585,,,,,,,,,,,,,,,,,,,,PF,strong,3,,,,,,,,5,3.24531,,,,,,,,,,,,,,,,,,,,,,,,,,,,1,strong,86,-60,1,0,0,response3disk,9,7,20,-9,1,0,0,rectangle,20,-9,1,0,0,,0,0.003515,20,-9,1,0,0,0,6,6,123,1,0,,,,,,,,,,,,,,,,,,,,,
,,,,,,,,,,,,,,,,,,,,,,,,,,,,,,,,,,,,,,,,,,5f4756db83588013e9e31bfc,606c0d55d433daa165747872,2021-04-06_09h29.10.864,Colour_Similarity_Experiment,2020.2.10,Win32,60,6067542a4a25243f4d7d4fcf,18.38736607,16.78786585,16.77208633,16.82670551,16.71150143,16.78786585,,,,,,,,,,,,,,,,,,,,PF,strong,3,,,,,,,,7,2.091285,,,,,,,,,,,,,,,,,,,,,,,,,,,,5,strong,76,101,1,0,0,response1disk,8,8,13,-9,1,0,0,rectangle,13,-9,1,0,0,,0,0.00171,13,-9,1,0,0,0,7,7,16,1,0,,,,,,,,,,,,,,,,,,,,,
,,,,,,,,,,,,,,,,,,,,,,,,,,,,,,,,,,,,,,,,,,5f4756db83588013e9e31bfc,606c0d55d433daa165747872,2021-04-06_09h29.10.864,Colour_Similarity_Experiment,2020.2.10,Win32,60,6067542a4a25243f4d7d4fcf,18.38736607,16.78786585,16.77208633,16.82670551,16.71150143,16.78786585,,,,,,,,,,,,,,,,,,,,PF,weak,3,,,,,,,,7,1.55481,,,,,,,,,,,,,,,,,,,,,,,,,,,,8,weak,44,90,1,0,0,response1disk,4,9,5,3,1,0,0,rectangle,5,3,1,0,0,,7,0.00498,5,3,1,0,0,0,8,8,78,1,0,,,,,,,,,,,,,,,,,,,,,
,,,,,,,,,,,,,,,,,,,,,,,,,,,,,,,,,,,,,,,,,,5f4756db83588013e9e31bfc,606c0d55d433daa165747872,2021-04-06_09h29.10.864,Colour_Similarity_Experiment,2020.2.10,Win32,60,6067542a4a25243f4d7d4fcf,18.38736607,16.78786585,16.77208633,16.82670551,16.71150143,16.78786585,,,,,,,,,,,,,,,,,,,,PF,strong,3,,,,,,,,1,2.737665,,,,,,,,,,,,,,,,,,,,,,,,,,,,5,strong,-62,33,1,0,0,response7disk,5,10,4,-6,1,0,0,rectangle,4,-6,1,0,0,,2,0.00394,4,-6,1,0,0,0,9,9,19,1,0,,,,,,,,,,,,,,,,,,,,,
,,,,,,,,,,,,,,,,,,,,,,,,,,,,,,,,,,,,,,,,,,5f4756db83588013e9e31bfc,606c0d55d433daa165747872,2021-04-06_09h29.10.864,Colour_Similarity_Experiment,2020.2.10,Win32,60,6067542a4a25243f4d7d4fcf,18.38736607,16.78786585,16.77208633,16.82670551,16.71150143,16.78786585,,,,,,,,,,,,,,,,,,,,PF,strong,3,,,,,,,,7,1.8657,,,,,,,,,,,,,,,,,,,,,,,,,,,,8,strong,46,75,1,0,0,response1disk,4,11,11,-3,1,0,0,rectangle,11,-3,1,0,0,,1,0.003435,11,-3,1,0,0,0,10,10,88,1,0,,,,,,,,,,,,,,,,,,,,,
,,,,,,,,,,,,,,,,,,,,,,,,,,,,,,,,,,,,,,,,,,5f4756db83588013e9e31bfc,606c0d55d433daa165747872,2021-04-06_09h29.10.864,Colour_Similarity_Experiment,2020.2.10,Win32,60,6067542a4a25243f4d7d4fcf,18.38736607,16.78786585,16.77208633,16.82670551,16.71150143,16.78786585,,,,,,,,,,,,,,,,,,,,PF,weak,3,,,,,,,,7,1.51195,,,,,,,,,,,,,,,,,,,,,,,,,,,,4,weak,35,88,1,0,0,response1disk,1,12,1,10,1,0,0,rectangle,1,10,1,0,0,,4,0.002705,1,10,1,0,0,0,11,11,115,1,0,,,,,,,,,,,,,,,,,,,,,
,,,,,,,,,,,,,,,,,,,,,,,,,,,,,,,,,,,,,,,,,,5f4756db83588013e9e31bfc,606c0d55d433daa165747872,2021-04-06_09h29.10.864,Colour_Similarity_Experiment,2020.2.10,Win32,60,6067542a4a25243f4d7d4fcf,18.38736607,16.78786585,16.77208633,16.82670551,16.71150143,16.78786585,,,,,,,,,,,,,,,,,,,,PF,weak,3,,,,,,,,7,1.697895,,,,,,,,,,,,,,,,,,,,,,,,,,,,4,weak,63,104,1,0,0,response1disk,2,13,5,-1,1,0,0,rectangle,5,-1,1,0,0,,4,0.00042,5,-1,1,0,0,0,12,12,108,1,0,,,,,,,,,,,,,,,,,,,,,
,,,,,,,,,,,,,,,,,,,,,,,,,,,,,,,,,,,,,,,,,,5f4756db83588013e9e31bfc,606c0d55d433daa165747872,2021-04-06_09h29.10.864,Colour_Similarity_Experiment,2020.2.10,Win32,60,6067542a4a25243f4d7d4fcf,18.38736607,16.78786585,16.77208633,16.82670551,16.71150143,16.78786585,,,,,,,,,,,,,,,,,,,,PF,strong,3,,,,,,,,1,5.25532,,,,,,,,,,,,,,,,,,,,,,,,,,,,5,strong,-78,31,1,0,0,response7disk,4,14,-7,13,1,0,0,rectangle,-7,13,1,0,0,,2,0.00265,-7,13,1,0,0,0,13,13,8,1,0,,,,,,,,,,,,,,,,,,,,,
,,,,,,,,,,,,,,,,,,,,,,,,,,,,,,,,,,,,,,,,,,5f4756db83588013e9e31bfc,606c0d55d433daa165747872,2021-04-06_09h29.10.864,Colour_Similarity_Experiment,2020.2.10,Win32,60,6067542a4a25243f4d7d4fcf,18.38736607,16.78786585,16.77208633,16.82670551,16.71150143,16.78786585,,,,,,,,,,,,,,,,,,,,PF,strong,3,,,,,,,,4,4.2436,,,,,,,,,,,,,,,,,,,,,,,,,,,,3,strong,44,-85,1,0,0,response3disk,1,15,-2,-4,1,0,0,rectangle,-2,-4,1,0,0,,0,0.002835,-2,-4,1,0,0,0,14,14,125,1,0,,,,,,,,,,,,,,,,,,,,,
,,,,,,,,,,,,,,,,,,,,,,,,,,,,,,,,,,,,,,,,,,5f4756db83588013e9e31bfc,606c0d55d433daa165747872,2021-04-06_09h29.10.864,Colour_Similarity_Experiment,2020.2.10,Win32,60,6067542a4a25243f4d7d4fcf,18.38736607,16.78786585,16.77208633,16.82670551,16.71150143,16.78786585,,,,,,,,,,,,,,,,,,,,PF,weak,3,,,,,,,,6,2.4458,,,,,,,,,,,,,,,,,,,,,,,,,,,,7,weak,98,37,1,0,0,response1disk,8,16,3,2,1,0,0,rectangle,3,2,1,0,0,,3,0.00324,3,2,1,0,0,0,15,15,140,1,0,,,,,,,,,,,,,,,,,,,,,
,,,,,,,,,,,,,,,,,,,,,,,,,,,,,,,,,,,,,,,,,,5f4756db83588013e9e31bfc,606c0d55d433daa165747872,2021-04-06_09h29.10.864,Colour_Similarity_Experiment,2020.2.10,Win32,60,6067542a4a25243f4d7d4fcf,18.38736607,16.78786585,16.77208633,16.82670551,16.71150143,16.78786585,,,,,,,,,,,,,,,,,,,,PF,strong,3,,,,,,,,0,2.309765,,,,,,,,,,,,,,,,,,,,,,,,,,,,9,strong,-42,69,1,0,0,response7disk,8,17,-10,7,1,0,0,rectangle,-10,7,1,0,0,,3,0.000425,-10,7,1,0,0,0,16,16,6,1,0,,,,,,,,,,,,,,,,,,,,,
,,,,,,,,,,,,,,,,,,,,,,,,,,,,,,,,,,,,,,,,,,5f4756db83588013e9e31bfc,606c0d55d433daa165747872,2021-04-06_09h29.10.864,Colour_Similarity_Experiment,2020.2.10,Win32,60,6067542a4a25243f4d7d4fcf,18.38736607,16.78786585,16.77208633,16.82670551,16.71150143,16.78786585,,,,,,,,,,,,,,,,,,,,PF,strong,3,,,,,,,,2,2.99328,,,,,,,,,,,,,,,,,,,,,,,,,,,,2,strong,-90,-52,1,0,0,response5disk,3,18,-5,-5,1,0,0,rectangle,32,56,1,0,0,7,7,5.57443,-11,-2,1,0,0,0,17,17,104,1,1,response1disk_3,rectangle,,,,,,,,,,,,,,,,,,,
,,,,,,,,,,,,,,,,,,,,,,,,,,,,,,,,,,,,,,,,,,5f4756db83588013e9e31bfc,606c0d55d433daa165747872,2021-04-06_09h29.10.864,Colour_Similarity_Experiment,2020.2.10,Win32,60,6067542a4a25243f4d7d4fcf,18.38736607,16.78786585,16.77208633,16.82670551,16.71150143,16.78786585,,,,,,,,,,,,,,,,,,,,PF,strong,3,,,,,,,,6,3.03021,,,,,,,,,,,,,,,,,,,,,,,,,,,,1,strong,65,58,1,0,0,response1disk,4,19,-4,1,1,0,0,rectangle,-4,1,1,0,0,7,7,0.001545,-4,1,1,0,0,0,18,18,135,1,0,,,,,,,,,,,,,,,,,,,,,
,,,,,,,,,,,,,,,,,,,,,,,,,,,,,,,,,,,,,,,,,,5f4756db83588013e9e31bfc,606c0d55d433daa165747872,2021-04-06_09h29.10.864,Colour_Similarity_Experiment,2020.2.10,Win32,60,6067542a4a25243f4d7d4fcf,18.38736607,16.78786585,16.77208633,16.82670551,16.71150143,16.78786585,,,,,,,,,,,,,,,,,,,,PF,strong,3,,,,,,,,7,1.63604,,,,,,,,,,,,,,,,,,,,,,,,,,,,4,strong,35,75,1,0,0,response1disk,8,20,-2,0,1,0,0,rectangle,-2,0,1,0,0,7,1,0.00297,-2,0,1,0,0,0,19,19,35,1,0,,,,,,,,,,,,,,,,,,,,,
,,,,,,,,,,,,,,,,,,,,,,,,,,,,,,,,,,,,,,,,,,5f4756db83588013e9e31bfc,606c0d55d433daa165747872,2021-04-06_09h29.10.864,Colour_Similarity_Experiment,2020.2.10,Win32,60,6067542a4a25243f4d7d4fcf,18.38736607,16.78786585,16.77208633,16.82670551,16.71150143,16.78786585,,,,,,,,,,,,,,,,,,,,PF,strong,3,,,,,,,,1,1.940545,,,,,,,,,,,,,,,,,,,,,,,,,,,,3,strong,-63,40,1,0,0,response7disk,2,21,0,10,1,0,0,rectangle,0,10,1,0,0,7,3,0.003135,0,10,1,0,0,0,20,20,93,1,0,,,,,,,,,,,,,,,,,,,,,
,,,,,,,,,,,,,,,,,,,,,,,,,,,,,,,,,,,,,,,,,,5f4756db83588013e9e31bfc,606c0d55d433daa165747872,2021-04-06_09h29.10.864,Colour_Similarity_Experiment,2020.2.10,Win32,60,6067542a4a25243f4d7d4fcf,18.38736607,16.78786585,16.77208633,16.82670551,16.71150143,16.78786585,,,,,,,,,,,,,,,,,,,,PF,weak,3,,,,,,,,7,2.186635,,,,,,,,,,,,,,,,,,,,,,,,,,,,7,weak,46,59,1,0,0,response1disk,4,22,4,10,1,0,0,rectangle,4,10,1,0,0,7,0,0.00412,4,10,1,0,0,0,21,21,43,1,0,,,,,,,,,,,,,,,,,,,,,
,,,,,,,,,,,,,,,,,,,,,,,,,,,,,,,,,,,,,,,,,,5f4756db83588013e9e31bfc,606c0d55d433daa165747872,2021-04-06_09h29.10.864,Colour_Similarity_Experiment,2020.2.10,Win32,60,6067542a4a25243f4d7d4fcf,18.38736607,16.78786585,16.77208633,16.82670551,16.71150143,16.78786585,,,,,,,,,,,,,,,,,,,,PF,strong,3,,,,,,,,0,1.7511,,,,,,,,,,,,,,,,,,,,,,,,,,,,7,strong,-39,105,1,0,0,response7disk,7,23,0,2,1,0,0,rectangle,0,2,1,0,0,7,4,0.002885,0,2,1,0,0,0,22,22,34,1,0,,,,,,,,,,,,,,,,,,,,,
,,,,,,,,,,,,,,,,,,,,,,,,,,,,,,,,,,,,,,,,,,5f4756db83588013e9e31bfc,606c0d55d433daa165747872,2021-04-06_09h29.10.864,Colour_Similarity_Experiment,2020.2.10,Win32,60,6067542a4a25243f4d7d4fcf,18.38736607,16.78786585,16.77208633,16.82670551,16.71150143,16.78786585,,,,,,,,,,,,,,,,,,,,PF,strong,3,,,,,,,,7,2.121675,,,,,,,,,,,,,,,,,,,,,,,,,,,,8,strong,41,89,1,0,0,response1disk,7,24,0,4,1,0,0,rectangle,0,4,1,0,0,7,3,0.007475,0,4,1,0,0,0,23,23,86,1,0,,,,,,,,,,,,,,,,,,,,,
,,,,,,,,,,,,,,,,,,,,,,,,,,,,,,,,,,,,,,,,,,5f4756db83588013e9e31bfc,606c0d55d433daa165747872,2021-04-06_09h29.10.864,Colour_Similarity_Experiment,2020.2.10,Win32,60,6067542a4a25243f4d7d4fcf,18.38736607,16.78786585,16.77208633,16.82670551,16.71150143,16.78786585,,,,,,,,,,,,,,,,,,,,PF,strong,3,,,,,,,,7,1.52051,,,,,,,,,,,,,,,,,,,,,,,,,,,,3,strong,41,69,1,0,0,response1disk,7,25,1,1,1,0,0,rectangle,1,1,1,0,0,7,2,0.01545,1,1,1,0,0,0,24,24,118,1,0,,,,,,,,,,,,,,,,,,,,,
,,,,,,,,,,,,,,,,,,,,,,,,,,,,,,,,,,,,,,,,,,5f4756db83588013e9e31bfc,606c0d55d433daa165747872,2021-04-06_09h29.10.864,Colour_Similarity_Experiment,2020.2.10,Win32,60,6067542a4a25243f4d7d4fcf,18.38736607,16.78786585,16.77208633,16.82670551,16.71150143,16.78786585,,,,,,,,,,,,,,,,,,,,PF,strong,3,,,,,,,,3,2.81512,,,,,,,,,,,,,,,,,,,,,,,,,,,,6,strong,-54,-88,1,0,0,response5disk,4,26,3,-4,1,0,0,rectangle,3,-4,1,0,0,7,4,0.002915,3,-4,1,0,0,0,25,25,56,1,0,,,,,,,,,,,,,,,,,,,,,
,,,,,,,,,,,,,,,,,,,,,,,,,,,,,,,,,,,,,,,,,,5f4756db83588013e9e31bfc,606c0d55d433daa165747872,2021-04-06_09h29.10.864,Colour_Similarity_Experiment,2020.2.10,Win32,60,6067542a4a25243f4d7d4fcf,18.38736607,16.78786585,16.77208633,16.82670551,16.71150143,16.78786585,,,,,,,,,,,,,,,,,,,,PF,weak,3,,,,,,,,7,1.633675,,,,,,,,,,,,,,,,,,,,,,,,,,,,6,weak,47,72,1,0,0,response1disk,2,27,19,5,1,0,0,rectangle,19,5,1,0,0,7,4,0.000725,19,5,1,0,0,0,26,26,130,1,0,,,,,,,,,,,,,,,,,,,,,
,,,,,,,,,,,,,,,,,,,,,,,,,,,,,,,,,,,,,,,,,,5f4756db83588013e9e31bfc,606c0d55d433daa165747872,2021-04-06_09h29.10.864,Colour_Similarity_Experiment,2020.2.10,Win32,60,6067542a4a25243f4d7d4fcf,18.38736607,16.78786585,16.77208633,16.82670551,16.71150143,16.78786585,,,,,,,,,,,,,,,,,,,,PF,strong,3,,,,,,,,6,2.43464,,,,,,,,,,,,,,,,,,,,,,,,,,,,3,strong,93,52,1,0,0,response1disk,6,28,9,2,1,0,0,rectangle,9,2,1,0,0,7,3,0.004545,9,2,1,0,0,0,27,27,95,1,0,,,,,,,,,,,,,,,,,,,,,
,,,,,,,,,,,,,,,,,,,,,,,,,,,,,,,,,,,,,,,,,,5f4756db83588013e9e31bfc,606c0d55d433daa165747872,2021-04-06_09h29.10.864,Colour_Similarity_Experiment,2020.2.10,Win32,60,6067542a4a25243f4d7d4fcf,18.38736607,16.78786585,16.77208633,16.82670551,16.71150143,16.78786585,,,,,,,,,,,,,,,,,,,,PF,weak,3,,,,,,,,0,1.68466,,,,,,,,,,,,,,,,,,,,,,,,,,,,1,weak,-32,59,1,0,0,response7disk,1,29,-5,10,1,0,0,rectangle,96,42,0,0,1,6,6,2.938195,-10,-8,1,0,0,0,28,28,76,1,1,response1disk_3,rectangle,,,,,,,,,,,,,,,,,,,
,,,,,,,,,,,,,,,,,,,,,,,,,,,,,,,,,,,,,,,,,,5f4756db83588013e9e31bfc,606c0d55d433daa165747872,2021-04-06_09h29.10.864,Colour_Similarity_Experiment,2020.2.10,Win32,60,6067542a4a25243f4d7d4fcf,18.38736607,16.78786585,16.77208633,16.82670551,16.71150143,16.78786585,,,,,,,,,,,,,,,,,,,,PF,weak,3,,,,,,,,4,4.750845,,,,,,,,,,,,,,,,,,,,,,,,,,,,4,weak,25,-83,1,0,0,response3disk,9,30,7,-9,1,0,0,rectangle,7,-9,1,0,0,6,6,0.000385,7,-9,1,0,0,0,29,29,75,1,0,,,,,,,,,,,,,,,,,,,,,
,,,,,,,,,,,,,,,,,,,,,,,,,,,,,,,,,,,,,,,,,,5f4756db83588013e9e31bfc,606c0d55d433daa165747872,2021-04-06_09h29.10.864,Colour_Similarity_Experiment,2020.2.10,Win32,60,6067542a4a25243f4d7d4fcf,18.38736607,16.78786585,16.77208633,16.82670551,16.71150143,16.78786585,,,,,,,,,,,,,,,,,,,,PF,strong,3,,,,,,,,6,2.155715,,,,,,,,,,,,,,,,,,,,,,,,,,,,7,strong,97,43,1,0,0,response1disk,8,31,3,-3,1,0,0,rectangle,-88,-46,1,0,0,6,2,2.603255,-4,-3,1,0,0,0,30,30,97,1,1,response5disk_3,rectangle,,,,,,,,,,,,,,,,,,,
,,,,,,,,,,,,,,,,,,,,,,,,,,,,,,,,,,,,,,,,,,5f4756db83588013e9e31bfc,606c0d55d433daa165747872,2021-04-06_09h29.10.864,Colour_Similarity_Experiment,2020.2.10,Win32,60,6067542a4a25243f4d7d4fcf,18.38736607,16.78786585,16.77208633,16.82670551,16.71150143,16.78786585,,,,,,,,,,,,,,,,,,,,PF,strong,3,,,,,,,,6,2.25223,,,,,,,,,,,,,,,,,,,,,,,,,,,,8,strong,86,29,1,0,0,response1disk,6,32,-8,-5,1,0,0,rectangle,-8,-5,1,0,0,6,0,0.00355,-8,-5,1,0,0,0,31,31,37,1,0,,,,,,,,,,,,,,,,,,,,,
,,,,,,,,,,,,,,,,,,,,,,,,,,,,,,,,,,,,,,,,,,5f4756db83588013e9e31bfc,606c0d55d433daa165747872,2021-04-06_09h29.10.864,Colour_Similarity_Experiment,2020.2.10,Win32,60,6067542a4a25243f4d7d4fcf,18.38736607,16.78786585,16.77208633,16.82670551,16.71150143,16.78786585,,,,,,,,,,,,,,,,,,,,PF,weak,3,,,,,,,,4,7.64908,,,,,,,,,,,,,,,,,,,,,,,,,,,,4,weak,46,-70,1,0,0,response3disk,3,33,2,0,1,0,0,rectangle,2,0,1,0,0,6,2,0.00286,2,0,1,0,0,0,32,32,89,1,0,,,,,,,,,,,,,,,,,,,,,
,,,,,,,,,,,,,,,,,,,,,,,,,,,,,,,,,,,,,,,,,,5f4756db83588013e9e31bfc,606c0d55d433daa165747872,2021-04-06_09h29.10.864,Colour_Similarity_Experiment,2020.2.10,Win32,60,6067542a4a25243f4d7d4fcf,18.38736607,16.78786585,16.77208633,16.82670551,16.71150143,16.78786585,,,,,,,,,,,,,,,,,,,,PF,weak,3,,,,,,,,7,2.10047,,,,,,,,,,,,,,,,,,,,,,,,,,,,7,weak,65,84,1,0,0,response1disk,1,34,5,3,1,0,0,rectangle,5,3,1,0,0,6,0,0.00319,5,3,1,0,0,0,33,33,53,1,0,,,,,,,,,,,,,,,,,,,,,
,,,,,,,,,,,,,,,,,,,,,,,,,,,,,,,,,,,,,,,,,,5f4756db83588013e9e31bfc,606c0d55d433daa165747872,2021-04-06_09h29.10.864,Colour_Similarity_Experiment,2020.2.10,Win32,60,6067542a4a25243f4d7d4fcf,18.38736607,16.78786585,16.77208633,16.82670551,16.71150143,16.78786585,,,,,,,,,,,,,,,,,,,,PF,weak,3,,,,,,,,7,1.76113,,,,,,,,,,,,,,,,,,,,,,,,,,,,7,weak,36,59,1,0,0,response1disk,3,35,-1,2,1,0,0,rectangle,-1,2,1,0,0,6,5,0.00407,-1,2,1,0,0,0,34,34,81,1,0,,,,,,,,,,,,,,,,,,,,,
,,,,,,,,,,,,,,,,,,,,,,,,,,,,,,,,,,,,,,,,,,5f4756db83588013e9e31bfc,606c0d55d433daa165747872,2021-04-06_09h29.10.864,Colour_Similarity_Experiment,2020.2.10,Win32,60,6067542a4a25243f4d7d4fcf,18.38736607,16.78786585,16.77208633,16.82670551,16.71150143,16.78786585,,,,,,,,,,,,,,,,,,,,PF,strong,3,,,,,,,,7,1.452265,,,,,,,,,,,,,,,,,,,,,,,,,,,,7,strong,29,83,1,0,0,response1disk,3,36,0,2,1,0,0,rectangle,0,2,1,0,0,6,2,0.00565,0,2,1,0,0,0,35,35,73,1,0,,,,,,,,,,,,,,,,,,,,,
,,,,,,,,,,,,,,,,,,,,,,,,,,,,,,,,,,,,,,,,,,5f4756db83588013e9e31bfc,606c0d55d433daa165747872,2021-04-06_09h29.10.864,Colour_Similarity_Experiment,2020.2.10,Win32,60,6067542a4a25243f4d7d4fcf,18.38736607,16.78786585,16.77208633,16.82670551,16.71150143,16.78786585,,,,,,,,,,,,,,,,,,,,PF,weak,3,,,,,,,,3,3.629045,,,,,,,,,,,,,,,,,,,,,,,,,,,,2,weak,-55,-76,1,0,0,response5disk,3,37,0,3,1,0,0,rectangle,0,3,1,0,0,6,2,0.000865,0,3,1,0,0,0,36,36,69,1,0,,,,,,,,,,,,,,,,,,,,,
,,,,,,,,,,,,,,,,,,,,,,,,,,,,,,,,,,,,,,,,,,5f4756db83588013e9e31bfc,606c0d55d433daa165747872,2021-04-06_09h29.10.864,Colour_Similarity_Experiment,2020.2.10,Win32,60,6067542a4a25243f4d7d4fcf,18.38736607,16.78786585,16.77208633,16.82670551,16.71150143,16.78786585,,,,,,,,,,,,,,,,,,,,PF,weak,3,,,,,,,,6,2.144435,,,,,,,,,,,,,,,,,,,,,,,,,,,,9,weak,73,47,1,0,0,response1disk,4,38,5,-4,1,0,0,rectangle,5,-4,1,0,0,6,7,0.003245,5,-4,1,0,0,0,37,37,114,1,0,,,,,,,,,,,,,,,,,,,,,
,,,,,,,,,,,,,,,,,,,,,,,,,,,,,,,,,,,,,,,,,,5f4756db83588013e9e31bfc,606c0d55d433daa165747872,2021-04-06_09h29.10.864,Colour_Similarity_Experiment,2020.2.10,Win32,60,6067542a4a25243f4d7d4fcf,18.38736607,16.78786585,16.77208633,16.82670551,16.71150143,16.78786585,,,,,,,,,,,,,,,,,,,,PF,weak,3,,,,,,,,0,1.326555,,,,,,,,,,,,,,,,,,,,,,,,,,,,7,weak,-31,86,1,0,0,response7disk,7,39,22,14,1,0,0,rectangle,22,14,1,0,0,6,4,0.00317,22,14,1,0,0,0,38,38,51,1,0,,,,,,,,,,,,,,,,,,,,,
,,,,,,,,,,,,,,,,,,,,,,,,,,,,,,,,,,,,,,,,,,5f4756db83588013e9e31bfc,606c0d55d433daa165747872,2021-04-06_09h29.10.864,Colour_Similarity_Experiment,2020.2.10,Win32,60,6067542a4a25243f4d7d4fcf,18.38736607,16.78786585,16.77208633,16.82670551,16.71150143,16.78786585,,,,,,,,,,,,,,,,,,,,PF,strong,3,,,,,,,,6,3.718155,,,,,,,,,,,,,,,,,,,,,,,,,,,,4,strong,84,56,1,0,0,response1disk,7,40,13,7,1,0,0,rectangle,13,7,1,0,0,6,4,0.000375,13,7,1,0,0,0,39,39,87,1,0,,,,,,,,,,,,,,,,,,,,,
,,,,,,,,,,,,,,,,,,,,,,,,,,,,,,,,,,,,,,,,,,5f4756db83588013e9e31bfc,606c0d55d433daa165747872,2021-04-06_09h29.10.864,Colour_Similarity_Experiment,2020.2.10,Win32,60,6067542a4a25243f4d7d4fcf,18.38736607,16.78786585,16.77208633,16.82670551,16.71150143,16.78786585,,,,,,,,,,,,,,,,,,,,PF,weak,3,,,,,,,,1,1.7864,,,,,,,,,,,,,,,,,,,,,,,,,,,,8,weak,-77,37,1,0,0,response7disk,8,41,5,-9,1,0,0,rectangle,5,-9,1,0,0,6,3,0.003195,5,-9,1,0,0,0,40,40,153,1,0,,,,,,,,,,,,,,,,,,,,,
,,,,,,,,,,,,,,,,,,,,,,,,,,,,,,,,,,,,,,,,,,5f4756db83588013e9e31bfc,606c0d55d433daa165747872,2021-04-06_09h29.10.864,Colour_Similarity_Experiment,2020.2.10,Win32,60,6067542a4a25243f4d7d4fcf,18.38736607,16.78786585,16.77208633,16.82670551,16.71150143,16.78786585,,,,,,,,,,,,,,,,,,,,PF,strong,3,,,,,,,,6,3.85847,,,,,,,,,,,,,,,,,,,,,,,,,,,,4,strong,98,24,1,0,0,response1disk,2,42,-11,1,1,0,0,rectangle,-11,1,1,0,0,6,6,0.00389,-11,1,1,0,0,0,41,41,13,1,0,,,,,,,,,,,,,,,,,,,,,
,,,,,,,,,,,,,,,,,,,,,,,,,,,,,,,,,,,,,,,,,,5f4756db83588013e9e31bfc,606c0d55d433daa165747872,2021-04-06_09h29.10.864,Colour_Similarity_Experiment,2020.2.10,Win32,60,6067542a4a25243f4d7d4fcf,18.38736607,16.78786585,16.77208633,16.82670551,16.71150143,16.78786585,,,,,,,,,,,,,,,,,,,,PF,strong,3,,,,,,,,6,1.965825,,,,,,,,,,,,,,,,,,,,,,,,,,,,2,strong,85,51,1,0,0,response1disk,5,43,2,4,1,0,0,rectangle,2,4,1,0,0,6,0,0.01542,2,4,1,0,0,0,42,42,80,1,0,,,,,,,,,,,,,,,,,,,,,
,,,,,,,,,,,,,,,,,,,,,,,,,,,,,,,,,,,,,,,,,,5f4756db83588013e9e31bfc,606c0d55d433daa165747872,2021-04-06_09h29.10.864,Colour_Similarity_Experiment,2020.2.10,Win32,60,6067542a4a25243f4d7d4fcf,18.38736607,16.78786585,16.77208633,16.82670551,16.71150143,16.78786585,,,,,,,,,,,,,,,,,,,,PF,weak,3,,,,,,,,5,3.812065,,,,,,,,,,,,,,,,,,,,,,,,,,,,9,weak,87,-37,1,0,0,response3disk,1,44,15,-9,1,0,0,rectangle,15,-9,1,0,0,6,5,0.00398,15,-9,1,0,0,0,43,43,74,1,0,,,,,,,,,,,,,,,,,,,,,
,,,,,,,,,,,,,,,,,,,,,,,,,,,,,,,,,,,,,,,,,,5f4756db83588013e9e31bfc,606c0d55d433daa165747872,2021-04-06_09h29.10.864,Colour_Similarity_Experiment,2020.2.10,Win32,60,6067542a4a25243f4d7d4fcf,18.38736607,16.78786585,16.77208633,16.82670551,16.71150143,16.78786585,,,,,,,,,,,,,,,,,,,,PF,weak,3,,,,,,,,6,3.68513,,,,,,,,,,,,,,,,,,,,,,,,,,,,1,weak,75,39,1,0,0,response1disk,9,45,-1,-6,1,0,0,rectangle,-1,-6,1,0,0,6,6,0.003425,-1,-6,1,0,0,0,44,44,15,1,0,,,,,,,,,,,,,,,,,,,,,
,,,,,,,,,,,,,,,,,,,,,,,,,,,,,,,,,,,,,,,,,,5f4756db83588013e9e31bfc,606c0d55d433daa165747872,2021-04-06_09h29.10.864,Colour_Similarity_Experiment,2020.2.10,Win32,60,6067542a4a25243f4d7d4fcf,18.38736607,16.78786585,16.77208633,16.82670551,16.71150143,16.78786585,,,,,,,,,,,,,,,,,,,,PF,weak,3,,,,,,,,0,2.326595,,,,,,,,,,,,,,,,,,,,,,,,,,,,9,weak,-43,83,1,0,0,response7disk,8,46,-5,8,1,0,0,rectangle,-5,8,1,0,0,6,5,0.006665,-5,8,1,0,0,0,45,45,67,1,0,,,,,,,,,,,,,,,,,,,,,
,,,,,,,,,,,,,,,,,,,,,,,,,,,,,,,,,,,,,,,,,,5f4756db83588013e9e31bfc,606c0d55d433daa165747872,2021-04-06_09h29.10.864,Colour_Similarity_Experiment,2020.2.10,Win32,60,6067542a4a25243f4d7d4fcf,18.38736607,16.78786585,16.77208633,16.82670551,16.71150143,16.78786585,,,,,,,,,,,,,,,,,,,,PF,weak,3,,,,,,,,7,1.705165,,,,,,,,,,,,,,,,,,,,,,,,,,,,9,weak,52,96,1,0,0,response1disk,3,47,1,7,1,0,0,rectangle,1,7,1,0,0,6,2,0.003545,1,7,1,0,0,0,46,46,119,1,0,,,,,,,,,,,,,,,,,,,,,
,,,,,,,,,,,,,,,,,,,,,,,,,,,,,,,,,,,,,,,,,,5f4756db83588013e9e31bfc,606c0d55d433daa165747872,2021-04-06_09h29.10.864,Colour_Similarity_Experiment,2020.2.10,Win32,60,6067542a4a25243f4d7d4fcf,18.38736607,16.78786585,16.77208633,16.82670551,16.71150143,16.78786585,,,,,,,,,,,,,,,,,,,,PF,weak,3,,,,,,,,6,1.86817,,,,,,,,,,,,,,,,,,,,,,,,,,,,2,weak,81,54,1,0,0,response1disk,4,48,9,1,1,0,0,rectangle,9,1,1,0,0,6,4,0.0032,9,1,1,0,0,0,47,47,127,1,0,,,,,,,,,,,,,,,,,,,,,
,,,,,,,,,,,,,,,,,,,,,,,,,,,,,,,,,,,,,,,,,,5f4756db83588013e9e31bfc,606c0d55d433daa165747872,2021-04-06_09h29.10.864,Colour_Similarity_Experiment,2020.2.10,Win32,60,6067542a4a25243f4d7d4fcf,18.38736607,16.78786585,16.77208633,16.82670551,16.71150143,16.78786585,,,,,,,,,,,,,,,,,,,,PF,strong,3,,,,,,,,7,1.630385,,,,,,,,,,,,,,,,,,,,,,,,,,,,7,strong,56,107,1,0,0,response1disk,1,49,8,7,1,0,0,rectangle,8,7,1,0,0,6,2,0.003505,8,7,1,0,0,0,48,48,132,1,0,,,,,,,,,,,,,,,,,,,,,
,,,,,,,,,,,,,,,,,,,,,,,,,,,,,,,,,,,,,,,,,,5f4756db83588013e9e31bfc,606c0d55d433daa165747872,2021-04-06_09h29.10.864,Colour_Similarity_Experiment,2020.2.10,Win32,60,6067542a4a25243f4d7d4fcf,18.38736607,16.78786585,16.77208633,16.82670551,16.71150143,16.78786585,,,,,,,,,,,,,,,,,,,,PF,weak,3,,,,,,,,0,1.73202,,,,,,,,,,,,,,,,,,,,,,,,,,,,5,weak,-30,78,1,0,0,response7disk,5,50,7,7,1,0,0,rectangle,7,7,1,0,0,6,6,0.00299,7,7,1,0,0,0,49,49,94,1,0,,,,,,,,,,,,,,,,,,,,,
,,,,,,,,,,,,,,,,,,,,,,,,,,,,,,,,,,,,,,,,,,5f4756db83588013e9e31bfc,606c0d55d433daa165747872,2021-04-06_09h29.10.864,Colour_Similarity_Experiment,2020.2.10,Win32,60,6067542a4a25243f4d7d4fcf,18.38736607,16.78786585,16.77208633,16.82670551,16.71150143,16.78786585,,,,,,,,,,,,,,,,,,,,PF,strong,3,,,,,,,,5,2.967485,,,,,,,,,,,,,,,,,,,,,,,,,,,,8,strong,66,-47,1,0,0,response3disk,1,51,9,-8,1,0,0,rectangle,9,-8,1,0,0,6,4,0.006115,9,-8,1,0,0,0,50,50,20,1,0,,,,,,,,,,,,,,,,,,,,,
,,,,,,,,,,,,,,,,,,,,,,,,,,,,,,,,,,,,,,,,,,5f4756db83588013e9e31bfc,606c0d55d433daa165747872,2021-04-06_09h29.10.864,Colour_Similarity_Experiment,2020.2.10,Win32,60,6067542a4a25243f4d7d4fcf,18.38736607,16.78786585,16.77208633,16.82670551,16.71150143,16.78786585,,,,,,,,,,,,,,,,,,,,PF,strong,3,,,,,,,,7,1.67248,,,,,,,,,,,,,,,,,,,,,,,,,,,,4,strong,40,76,1,0,0,response1disk,1,52,0,-6,1,0,0,rectangle,0,-6,1,0,0,6,4,0.0004,0,-6,1,0,0,0,51,51,102,1,0,,,,,,,,,,,,,,,,,,,,,
,,,,,,,,,,,,,,,,,,,,,,,,,,,,,,,,,,,,,,,,,,5f4756db83588013e9e31bfc,606c0d55d433daa165747872,2021-04-06_09h29.10.864,Colour_Similarity_Experiment,2020.2.10,Win32,60,6067542a4a25243f4d7d4fcf,18.38736607,16.78786585,16.77208633,16.82670551,16.71150143,16.78786585,,,,,,,,,,,,,,,,,,,,PF,strong,3,,,,,,,,7,2.366825,,,,,,,,,,,,,,,,,,,,,,,,,,,,8,strong,48,73,1,0,0,response1disk,5,53,0,2,1,0,0,rectangle,0,2,1,0,0,6,7,0.003015,0,2,1,0,0,0,52,52,152,1,0,,,,,,,,,,,,,,,,,,,,,
,,,,,,,,,,,,,,,,,,,,,,,,,,,,,,,,,,,,,,,,,,5f4756db83588013e9e31bfc,606c0d55d433daa165747872,2021-04-06_09h29.10.864,Colour_Similarity_Experiment,2020.2.10,Win32,60,6067542a4a25243f4d7d4fcf,18.38736607,16.78786585,16.77208633,16.82670551,16.71150143,16.78786585,,,,,,,,,,,,,,,,,,,,PF,strong,3,,,,,,,,6,1.953605,,,,,,,,,,,,,,,,,,,,,,,,,,,,3,strong,83,52,1,0,0,response1disk,5,54,15,11,1,0,0,rectangle,15,11,1,0,0,6,2,0.00284,15,11,1,0,0,0,53,53,101,1,0,,,,,,,,,,,,,,,,,,,,,
,,,,,,,,,,,,,,,,,,,,,,,,,,,,,,,,,,,,,,,,,,5f4756db83588013e9e31bfc,606c0d55d433daa165747872,2021-04-06_09h29.10.864,Colour_Similarity_Experiment,2020.2.10,Win32,60,6067542a4a25243f4d7d4fcf,18.38736607,16.78786585,16.77208633,16.82670551,16.71150143,16.78786585,,,,,,,,,,,,,,,,,,,,PF,weak,3,,,,,,,,7,1.41936,,,,,,,,,,,,,,,,,,,,,,,,,,,,3,weak,57,77,1,0,0,response1disk,9,55,-11,-12,1,0,0,rectangle,-11,-12,1,0,0,6,1,0.00429,-11,-12,1,0,0,0,54,54,79,1,0,,,,,,,,,,,,,,,,,,,,,
,,,,,,,,,,,,,,,,,,,,,,,,,,,,,,,,,,,,,,,,,,5f4756db83588013e9e31bfc,606c0d55d433daa165747872,2021-04-06_09h29.10.864,Colour_Similarity_Experiment,2020.2.10,Win32,60,6067542a4a25243f4d7d4fcf,18.38736607,16.78786585,16.77208633,16.82670551,16.71150143,16.78786585,,,,,,,,,,,,,,,,,,,,PF,strong,3,,,,,,,,7,1.703235,,,,,,,,,,,,,,,,,,,,,,,,,,,,2,strong,54,69,1,0,0,response1disk,6,56,4,-4,1,0,0,rectangle,4,-4,1,0,0,6,0,0.005605,4,-4,1,0,0,0,55,55,40,1,0,,,,,,,,,,,,,,,,,,,,,
,,,,,,,,,,,,,,,,,,,,,,,,,,,,,,,,,,,,,,,,,,5f4756db83588013e9e31bfc,606c0d55d433daa165747872,2021-04-06_09h29.10.864,Colour_Similarity_Experiment,2020.2.10,Win32,60,6067542a4a25243f4d7d4fcf,18.38736607,16.78786585,16.77208633,16.82670551,16.71150143,16.78786585,,,,,,,,,,,,,,,,,,,,PF,strong,3,,,,,,,,1,1.99226,,,,,,,,,,,,,,,,,,,,,,,,,,,,8,strong,-74,22,1,0,0,response7disk,8,57,16,0,1,0,0,rectangle,16,0,1,0,0,6,7,0.007635,16,0,1,0,0,0,56,56,48,1,0,,,,,,,,,,,,,,,,,,,,,
,,,,,,,,,,,,,,,,,,,,,,,,,,,,,,,,,,,,,,,,,,5f4756db83588013e9e31bfc,606c0d55d433daa165747872,2021-04-06_09h29.10.864,Colour_Similarity_Experiment,2020.2.10,Win32,60,6067542a4a25243f4d7d4fcf,18.38736607,16.78786585,16.77208633,16.82670551,16.71150143,16.78786585,,,,,,,,,,,,,,,,,,,,PF,weak,3,,,,,,,,5,2.603615,,,,,,,,,,,,,,,,,,,,,,,,,,,,3,weak,80,-39,1,0,0,response3disk,4,58,7,-5,1,0,0,rectangle,7,-5,1,0,0,6,0,0.0118,7,-5,1,0,0,0,57,57,30,1,0,,,,,,,,,,,,,,,,,,,,,
,,,,,,,,,,,,,,,,,,,,,,,,,,,,,,,,,,,,,,,,,,5f4756db83588013e9e31bfc,606c0d55d433daa165747872,2021-04-06_09h29.10.864,Colour_Similarity_Experiment,2020.2.10,Win32,60,6067542a4a25243f4d7d4fcf,18.38736607,16.78786585,16.77208633,16.82670551,16.71150143,16.78786585,,,,,,,,,,,,,,,,,,,,PF,weak,3,,,,,,,,5,2.683455,,,,,,,,,,,,,,,,,,,,,,,,,,,,2,weak,86,-25,1,0,0,response3disk,5,59,-27,11,1,0,0,rectangle,-27,11,1,0,0,6,3,0.00455,-27,11,1,0,0,0,58,58,147,1,0,,,,,,,,,,,,,,,,,,,,,
,,,,,,,,,,,,,,,,,,,,,,,,,,,,,,,,,,,,,,,,,,5f4756db83588013e9e31bfc,606c0d55d433daa165747872,2021-04-06_09h29.10.864,Colour_Similarity_Experiment,2020.2.10,Win32,60,6067542a4a25243f4d7d4fcf,18.38736607,16.78786585,16.77208633,16.82670551,16.71150143,16.78786585,,,,,,,,,,,,,,,,,,,,PF,weak,3,,,,,,,,5,2.543135,,,,,,,,,,,,,,,,,,,,,,,,,,,,1,weak,100,-25,1,0,0,response3disk,8,60,1,1,1,0,0,rectangle,1,1,1,0,0,6,7,0.00486,1,1,1,0,0,0,59,59,65,1,0,,,,,,,,,,,,,,,,,,,,,
,,,,,,,,,,,,,,,,,,,,,,,,,,,,,,,,,,,,,,,,,,5f4756db83588013e9e31bfc,606c0d55d433daa165747872,2021-04-06_09h29.10.864,Colour_Similarity_Experiment,2020.2.10,Win32,60,6067542a4a25243f4d7d4fcf,18.38736607,16.78786585,16.77208633,16.82670551,16.71150143,16.78786585,,,,,,,,,,,,,,,,,,,,PF,strong,3,,,,,,,,6,1.387885,,,,,,,,,,,,,,,,,,,,,,,,,,,,7,strong,83,49,1,0,0,response1disk,4,61,19,-2,1,0,0,rectangle,19,-2,1,0,0,6,0,0.003635,19,-2,1,0,0,0,60,60,158,1,0,,,,,,,,,,,,,,,,,,,,,
,,,,,,,,,,,,,,,,,,,,,,,,,,,,,,,,,,,,,,,,,,5f4756db83588013e9e31bfc,606c0d55d433daa165747872,2021-04-06_09h29.10.864,Colour_Similarity_Experiment,2020.2.10,Win32,60,6067542a4a25243f4d7d4fcf,18.38736607,16.78786585,16.77208633,16.82670551,16.71150143,16.78786585,,,,,,,,,,,,,,,,,,,,PF,weak,3,,,,,,,,4,2.24956,,,,,,,,,,,,,,,,,,,,,,,,,,,,3,weak,48,-55,1,0,0,response3disk,1,62,-4,11,1,0,0,rectangle,-4,11,1,0,0,6,6,0.004365,-4,11,1,0,0,0,61,61,96,1,0,,,,,,,,,,,,,,,,,,,,,
,,,,,,,,,,,,,,,,,,,,,,,,,,,,,,,,,,,,,,,,,,5f4756db83588013e9e31bfc,606c0d55d433daa165747872,2021-04-06_09h29.10.864,Colour_Similarity_Experiment,2020.2.10,Win32,60,6067542a4a25243f4d7d4fcf,18.38736607,16.78786585,16.77208633,16.82670551,16.71150143,16.78786585,,,,,,,,,,,,,,,,,,,,PF,weak,3,,,,,,,,0,1.95183,,,,,,,,,,,,,,,,,,,,,,,,,,,,8,weak,-48,72,1,0,0,response7disk,9,63,-9,-1,1,0,0,rectangle,-9,-1,1,0,0,6,2,0.003135,-9,-1,1,0,0,0,62,62,42,1,0,,,,,,,,,,,,,,,,,,,,,
,,,,,,,,,,,,,,,,,,,,,,,,,,,,,,,,,,,,,,,,,,5f4756db83588013e9e31bfc,606c0d55d433daa165747872,2021-04-06_09h29.10.864,Colour_Similarity_Experiment,2020.2.10,Win32,60,6067542a4a25243f4d7d4fcf,18.38736607,16.78786585,16.77208633,16.82670551,16.71150143,16.78786585,,,,,,,,,,,,,,,,,,,,PF,weak,3,,,,,,,,0,1.764695,,,,,,,,,,,,,,,,,,,,,,,,,,,,6,weak,-41,74,1,0,0,response7disk,6,64,8,2,1,0,0,rectangle,8,2,1,0,0,6,0,0.003835,8,2,1,0,0,0,63,63,0,1,0,,,,,,,,,,,,,,,,,,,,,
,,,,,,,,,,,,,,,,,,,,,,,,,,,,,,,,,,,,,,,,,,5f4756db83588013e9e31bfc,606c0d55d433daa165747872,2021-04-06_09h29.10.864,Colour_Similarity_Experiment,2020.2.10,Win32,60,6067542a4a25243f4d7d4fcf,18.38736607,16.78786585,16.77208633,16.82670551,16.71150143,16.78786585,,,,,,,,,,,,,,,,,,,,PF,strong,3,,,,,,,,5,2.37901,,,,,,,,,,,,,,,,,,,,,,,,,,,,9,strong,102,-44,1,0,0,response3disk,6,65,7,5,1,0,0,rectangle,7,5,1,0,0,6,5,0.003005,7,5,1,0,0,0,64,64,117,1,0,,,,,,,,,,,,,,,,,,,,,
,,,,,,,,,,,,,,,,,,,,,,,,,,,,,,,,,,,,,,,,,,5f4756db83588013e9e31bfc,606c0d55d433daa165747872,2021-04-06_09h29.10.864,Colour_Similarity_Experiment,2020.2.10,Win32,60,6067542a4a25243f4d7d4fcf,18.38736607,16.78786585,16.77208633,16.82670551,16.71150143,16.78786585,,,,,,,,,,,,,,,,,,,,PF,weak,3,,,,,,,,5,2.18041,,,,,,,,,,,,,,,,,,,,,,,,,,,,6,weak,85,-35,1,0,0,response3disk,9,66,28,7,1,0,0,rectangle,28,7,1,0,0,6,1,0.003935,28,7,1,0,0,0,65,65,45,1,0,,,,,,,,,,,,,,,,,,,,,
,,,,,,,,,,,,,,,,,,,,,,,,,,,,,,,,,,,,,,,,,,5f4756db83588013e9e31bfc,606c0d55d433daa165747872,2021-04-06_09h29.10.864,Colour_Similarity_Experiment,2020.2.10,Win32,60,6067542a4a25243f4d7d4fcf,18.38736607,16.78786585,16.77208633,16.82670551,16.71150143,16.78786585,,,,,,,,,,,,,,,,,,,,PF,strong,3,,,,,,,,6,2.334415,,,,,,,,,,,,,,,,,,,,,,,,,,,,1,strong,87,54,1,0,0,response1disk,5,67,21,2,1,0,0,rectangle,21,2,1,0,0,6,1,0.00055,21,2,1,0,0,0,66,66,82,1,0,,,,,,,,,,,,,,,,,,,,,
,,,,,,,,,,,,,,,,,,,,,,,,,,,,,,,,,,,,,,,,,,5f4756db83588013e9e31bfc,606c0d55d433daa165747872,2021-04-06_09h29.10.864,Colour_Similarity_Experiment,2020.2.10,Win32,60,6067542a4a25243f4d7d4fcf,18.38736607,16.78786585,16.77208633,16.82670551,16.71150143,16.78786585,,,,,,,,,,,,,,,,,,,,PF,strong,3,,,,,,,,6,1.655105,,,,,,,,,,,,,,,,,,,,,,,,,,,,6,strong,74,35,1,0,0,response1disk,1,68,16,1,1,0,0,rectangle,16,1,1,0,0,6,3,0.00468,16,1,1,0,0,0,67,67,5,1,0,,,,,,,,,,,,,,,,,,,,,
,,,,,,,,,,,,,,,,,,,,,,,,,,,,,,,,,,,,,,,,,,5f4756db83588013e9e31bfc,606c0d55d433daa165747872,2021-04-06_09h29.10.864,Colour_Similarity_Experiment,2020.2.10,Win32,60,6067542a4a25243f4d7d4fcf,18.38736607,16.78786585,16.77208633,16.82670551,16.71150143,16.78786585,,,,,,,,,,,,,,,,,,,,PF,strong,3,,,,,,,,5,2.39219,,,,,,,,,,,,,,,,,,,,,,,,,,,,9,strong,71,-39,1,0,0,response3disk,5,69,-11,4,1,0,0,rectangle,-11,4,1,0,0,6,0,0.00361,-11,4,1,0,0,0,68,68,128,1,0,,,,,,,,,,,,,,,,,,,,,
,,,,,,,,,,,,,,,,,,,,,,,,,,,,,,,,,,,,,,,,,,5f4756db83588013e9e31bfc,606c0d55d433daa165747872,2021-04-06_09h29.10.864,Colour_Similarity_Experiment,2020.2.10,Win32,60,6067542a4a25243f4d7d4fcf,18.38736607,16.78786585,16.77208633,16.82670551,16.71150143,16.78786585,,,,,,,,,,,,,,,,,,,,PF,weak,3,,,,,,,,1,2.13342,,,,,,,,,,,,,,,,,,,,,,,,,,,,9,weak,-70,55,1,0,0,response7disk,9,70,6,4,1,0,0,rectangle,6,4,1,0,0,6,7,0.00327,6,4,1,0,0,0,69,69,106,1,0,,,,,,,,,,,,,,,,,,,,,
,,,,,,,,,,,,,,,,,,,,,,,,,,,,,,,,,,,,,,,,,,5f4756db83588013e9e31bfc,606c0d55d433daa165747872,2021-04-06_09h29.10.864,Colour_Similarity_Experiment,2020.2.10,Win32,60,6067542a4a25243f4d7d4fcf,18.38736607,16.78786585,16.77208633,16.82670551,16.71150143,16.78786585,,,,,,,,,,,,,,,,,,,,PF,weak,3,,,,,,,,6,2.05087,,,,,,,,,,,,,,,,,,,,,,,,,,,,5,weak,104,45,1,0,0,response1disk,9,71,6,-3,1,0,0,rectangle,-84,-51,1,0,0,6,2,3.15694,-6,-6,1,0,0,0,70,70,136,1,1,response5disk_3,rectangle,,,,,,,,,,,,,,,,,,,
,,,,,,,,,,,,,,,,,,,,,,,,,,,,,,,,,,,,,,,,,,5f4756db83588013e9e31bfc,606c0d55d433daa165747872,2021-04-06_09h29.10.864,Colour_Similarity_Experiment,2020.2.10,Win32,60,6067542a4a25243f4d7d4fcf,18.38736607,16.78786585,16.77208633,16.82670551,16.71150143,16.78786585,,,,,,,,,,,,,,,,,,,,PF,weak,3,,,,,,,,6,2.977815,,,,,,,,,,,,,,,,,,,,,,,,,,,,8,weak,104,41,1,0,0,response1disk,5,72,-2,4,1,0,0,rectangle,-2,4,1,0,0,6,2,0.00039,-2,4,1,0,0,0,71,71,98,1,0,,,,,,,,,,,,,,,,,,,,,
,,,,,,,,,,,,,,,,,,,,,,,,,,,,,,,,,,,,,,,,,,5f4756db83588013e9e31bfc,606c0d55d433daa165747872,2021-04-06_09h29.10.864,Colour_Similarity_Experiment,2020.2.10,Win32,60,6067542a4a25243f4d7d4fcf,18.38736607,16.78786585,16.77208633,16.82670551,16.71150143,16.78786585,,,,,,,,,,,,,,,,,,,,PF,weak,3,,,,,,,,1,2.474785,,,,,,,,,,,,,,,,,,,,,,,,,,,,5,weak,-73,30,1,0,0,response7disk,7,73,29,-1,1,0,0,rectangle,29,-1,1,0,0,6,2,0.00039,29,-1,1,0,0,0,72,72,146,1,0,,,,,,,,,,,,,,,,,,,,,
,,,,,,,,,,,,,,,,,,,,,,,,,,,,,,,,,,,,,,,,,,5f4756db83588013e9e31bfc,606c0d55d433daa165747872,2021-04-06_09h29.10.864,Colour_Similarity_Experiment,2020.2.10,Win32,60,6067542a4a25243f4d7d4fcf,18.38736607,16.78786585,16.77208633,16.82670551,16.71150143,16.78786585,,,,,,,,,,,,,,,,,,,,PF,strong,3,,,,,,,,5,2.668575,,,,,,,,,,,,,,,,,,,,,,,,,,,,2,strong,77,-32,1,0,0,response3disk,8,74,17,13,1,0,0,rectangle,17,13,1,0,0,6,2,0.000405,17,13,1,0,0,0,73,73,62,1,0,,,,,,,,,,,,,,,,,,,,,
,,,,,,,,,,,,,,,,,,,,,,,,,,,,,,,,,,,,,,,,,,5f4756db83588013e9e31bfc,606c0d55d433daa165747872,2021-04-06_09h29.10.864,Colour_Similarity_Experiment,2020.2.10,Win32,60,6067542a4a25243f4d7d4fcf,18.38736607,16.78786585,16.77208633,16.82670551,16.71150143,16.78786585,,,,,,,,,,,,,,,,,,,,PF,weak,3,,,,,,,,6,1.489085,,,,,,,,,,,,,,,,,,,,,,,,,,,,5,weak,89,45,1,0,0,response1disk,2,75,-6,-5,1,0,0,rectangle,-6,-5,1,0,0,6,5,0.005035,-6,-5,1,0,0,0,74,74,129,1,0,,,,,,,,,,,,,,,,,,,,,
,,,,,,,,,,,,,,,,,,,,,,,,,,,,,,,,,,,,,,,,,,5f4756db83588013e9e31bfc,606c0d55d433daa165747872,2021-04-06_09h29.10.864,Colour_Similarity_Experiment,2020.2.10,Win32,60,6067542a4a25243f4d7d4fcf,18.38736607,16.78786585,16.77208633,16.82670551,16.71150143,16.78786585,,,,,,,,,,,,,,,,,,,,PF,strong,3,,,,,,,,2,3.757905,,,,,,,,,,,,,,,,,,,,,,,,,,,,4,strong,-91,-32,1,0,0,response5disk,3,76,10,2,1,0,0,rectangle,10,2,1,0,0,6,2,0.00341,10,2,1,0,0,0,75,75,77,1,0,,,,,,,,,,,,,,,,,,,,,
,,,,,,,,,,,,,,,,,,,,,,,,,,,,,,,,,,,,,,,,,,5f4756db83588013e9e31bfc,606c0d55d433daa165747872,2021-04-06_09h29.10.864,Colour_Similarity_Experiment,2020.2.10,Win32,60,6067542a4a25243f4d7d4fcf,18.38736607,16.78786585,16.77208633,16.82670551,16.71150143,16.78786585,,,,,,,,,,,,,,,,,,,,PF,weak,3,,,,,,,,1,2.34687,,,,,,,,,,,,,,,,,,,,,,,,,,,,4,weak,-62,30,1,0,0,response7disk,6,77,-13,5,1,0,0,rectangle,-13,5,1,0,0,6,2,0.00038,-13,5,1,0,0,0,76,76,120,1,0,,,,,,,,,,,,,,,,,,,,,
,,,,,,,,,,,,,,,,,,,,,,,,,,,,,,,,,,,,,,,,,,5f4756db83588013e9e31bfc,606c0d55d433daa165747872,2021-04-06_09h29.10.864,Colour_Similarity_Experiment,2020.2.10,Win32,60,6067542a4a25243f4d7d4fcf,18.38736607,16.78786585,16.77208633,16.82670551,16.71150143,16.78786585,,,,,,,,,,,,,,,,,,,,PF,weak,3,,,,,,,,2,3.736905,,,,,,,,,,,,,,,,,,,,,,,,,,,,4,weak,-63,-32,1,0,0,response5disk,5,78,15,3,1,0,0,rectangle,15,3,1,0,0,6,0,0.003005,15,3,1,0,0,0,77,77,49,1,0,,,,,,,,,,,,,,,,,,,,,
,,,,,,,,,,,,,,,,,,,,,,,,,,,,,,,,,,,,,,,,,,5f4756db83588013e9e31bfc,606c0d55d433daa165747872,2021-04-06_09h29.10.864,Colour_Similarity_Experiment,2020.2.10,Win32,60,6067542a4a25243f4d7d4fcf,18.38736607,16.78786585,16.77208633,16.82670551,16.71150143,16.78786585,,,,,,,,,,,,,,,,,,,,PF,strong,3,,,,,,,,6,1.799185,,,,,,,,,,,,,,,,,,,,,,,,,,,,6,strong,86,47,1,0,0,response1disk,9,79,23,6,1,0,0,rectangle,-75,-29,0,0,1,6,2,2.911195,26,8,1,0,0,0,78,78,160,1,1,response5disk_3,rectangle,,,,,,,,,,,,,,,,,,,
,,,,,,,,,,,,,,,,,,,,,,,,,,,,,,,,,,,,,,,,,,5f4756db83588013e9e31bfc,606c0d55d433daa165747872,2021-04-06_09h29.10.864,Colour_Similarity_Experiment,2020.2.10,Win32,60,6067542a4a25243f4d7d4fcf,18.38736607,16.78786585,16.77208633,16.82670551,16.71150143,16.78786585,,,,,,,,,,,,,,,,,,,,PF,weak,3,,,,,,,,5,5.62388,,,,,,,,,,,,,,,,,,,,,,,,,,,,3,weak,55,-23,1,0,0,response3disk,6,80,4,-2,1,0,0,rectangle,4,-2,1,0,0,6,5,0.002635,4,-2,1,0,0,0,79,79,47,1,0,,,,,,,,,,,,,,,,,,,,,
,,,,,,,,,,,,,,,,,,,,,,,,,,,,,,,,,,,,,,,,,,5f4756db83588013e9e31bfc,606c0d55d433daa165747872,2021-04-06_09h29.10.864,Colour_Similarity_Experiment,2020.2.10,Win32,60,6067542a4a25243f4d7d4fcf,18.38736607,16.78786585,16.77208633,16.82670551,16.71150143,16.78786585,,,,,,,,,,,,,,,,,,,,PF,strong,3,,,,,,,,7,1.548205,,,,,,,,,,,,,,,,,,,,,,,,,,,,9,strong,57,96,1,0,0,response1disk,7,81,11,-5,1,0,0,rectangle,11,-5,1,0,0,6,0,0.003175,11,-5,1,0,0,0,80,80,100,1,0,,,,,,,,,,,,,,,,,,,,,
,,,,,,,,,,,,,,,,,,,,,,,,,,,,,,,,,,,,,,,,,,5f4756db83588013e9e31bfc,606c0d55d433daa165747872,2021-04-06_09h29.10.864,Colour_Similarity_Experiment,2020.2.10,Win32,60,6067542a4a25243f4d7d4fcf,18.38736607,16.78786585,16.77208633,16.82670551,16.71150143,16.78786585,,,,,,,,,,,,,,,,,,,,PF,weak,3,,,,,,,,7,1.94265,,,,,,,,,,,,,,,,,,,,,,,,,,,,5,weak,26,108,1,0,0,response1disk,1,82,-4,-5,1,0,0,rectangle,61,-92,1,0,0,4,4,1.9798,3,9,1,0,0,0,81,81,159,1,1,response3disk_3,rectangle,,,,,,,,,,,,,,,,,,,
,,,,,,,,,,,,,,,,,,,,,,,,,,,,,,,,,,,,,,,,,,5f4756db83588013e9e31bfc,606c0d55d433daa165747872,2021-04-06_09h29.10.864,Colour_Similarity_Experiment,2020.2.10,Win32,60,6067542a4a25243f4d7d4fcf,18.38736607,16.78786585,16.77208633,16.82670551,16.71150143,16.78786585,,,,,,,,,,,,,,,,,,,,PF,strong,3,,,,,,,,7,1.66366,,,,,,,,,,,,,,,,,,,,,,,,,,,,5,strong,72,84,1,0,0,response1disk,9,83,-5,10,1,0,0,rectangle,-5,10,1,0,0,4,5,0.00286,-5,10,1,0,0,0,82,82,61,1,0,,,,,,,,,,,,,,,,,,,,,
,,,,,,,,,,,,,,,,,,,,,,,,,,,,,,,,,,,,,,,,,,5f4756db83588013e9e31bfc,606c0d55d433daa165747872,2021-04-06_09h29.10.864,Colour_Similarity_Experiment,2020.2.10,Win32,60,6067542a4a25243f4d7d4fcf,18.38736607,16.78786585,16.77208633,16.82670551,16.71150143,16.78786585,,,,,,,,,,,,,,,,,,,,PF,weak,3,,,,,,,,6,4.003095,,,,,,,,,,,,,,,,,,,,,,,,,,,,2,weak,82,57,1,0,0,response1disk,8,84,0,13,1,0,0,rectangle,0,13,1,0,0,4,1,0.005795,0,13,1,0,0,0,83,83,52,1,0,,,,,,,,,,,,,,,,,,,,,
,,,,,,,,,,,,,,,,,,,,,,,,,,,,,,,,,,,,,,,,,,5f4756db83588013e9e31bfc,606c0d55d433daa165747872,2021-04-06_09h29.10.864,Colour_Similarity_Experiment,2020.2.10,Win32,60,6067542a4a25243f4d7d4fcf,18.38736607,16.78786585,16.77208633,16.82670551,16.71150143,16.78786585,,,,,,,,,,,,,,,,,,,,PF,strong,3,,,,,,,,6,1.657845,,,,,,,,,,,,,,,,,,,,,,,,,,,,4,strong,83,61,1,0,0,response1disk,9,85,7,9,1,0,0,rectangle,7,9,1,0,0,4,4,0.003195,7,9,1,0,0,0,84,84,90,1,0,,,,,,,,,,,,,,,,,,,,,
,,,,,,,,,,,,,,,,,,,,,,,,,,,,,,,,,,,,,,,,,,5f4756db83588013e9e31bfc,606c0d55d433daa165747872,2021-04-06_09h29.10.864,Colour_Similarity_Experiment,2020.2.10,Win32,60,6067542a4a25243f4d7d4fcf,18.38736607,16.78786585,16.77208633,16.82670551,16.71150143,16.78786585,,,,,,,,,,,,,,,,,,,,PF,weak,3,,,,,,,,6,0.95495,,,,,,,,,,,,,,,,,,,,,,,,,,,,3,weak,87,34,1,0,0,response1disk,8,86,16,-11,1,0,0,rectangle,16,-11,1,0,0,4,2,0.006235,16,-11,1,0,0,0,85,85,3,1,0,,,,,,,,,,,,,,,,,,,,,
,,,,,,,,,,,,,,,,,,,,,,,,,,,,,,,,,,,,,,,,,,5f4756db83588013e9e31bfc,606c0d55d433daa165747872,2021-04-06_09h29.10.864,Colour_Similarity_Experiment,2020.2.10,Win32,60,6067542a4a25243f4d7d4fcf,18.38736607,16.78786585,16.77208633,16.82670551,16.71150143,16.78786585,,,,,,,,,,,,,,,,,,,,PF,weak,3,,,,,,,,6,1.91613,,,,,,,,,,,,,,,,,,,,,,,,,,,,6,weak,89,36,1,0,0,response1disk,4,87,16,1,1,0,0,rectangle,16,1,1,0,0,4,0,0.005415,16,1,1,0,0,0,86,86,33,1,0,,,,,,,,,,,,,,,,,,,,,
,,,,,,,,,,,,,,,,,,,,,,,,,,,,,,,,,,,,,,,,,,5f4756db83588013e9e31bfc,606c0d55d433daa165747872,2021-04-06_09h29.10.864,Colour_Similarity_Experiment,2020.2.10,Win32,60,6067542a4a25243f4d7d4fcf,18.38736607,16.78786585,16.77208633,16.82670551,16.71150143,16.78786585,,,,,,,,,,,,,,,,,,,,PF,weak,3,,,,,,,,7,1.627705,,,,,,,,,,,,,,,,,,,,,,,,,,,,1,weak,49,85,1,0,0,response1disk,3,88,-5,-2,1,0,0,rectangle,-5,-2,1,0,0,4,1,0.00372,-5,-2,1,0,0,0,87,87,1,1,0,,,,,,,,,,,,,,,,,,,,,
,,,,,,,,,,,,,,,,,,,,,,,,,,,,,,,,,,,,,,,,,,5f4756db83588013e9e31bfc,606c0d55d433daa165747872,2021-04-06_09h29.10.864,Colour_Similarity_Experiment,2020.2.10,Win32,60,6067542a4a25243f4d7d4fcf,18.38736607,16.78786585,16.77208633,16.82670551,16.71150143,16.78786585,,,,,,,,,,,,,,,,,,,,PF,weak,3,,,,,,,,7,1.052185,,,,,,,,,,,,,,,,,,,,,,,,,,,,9,weak,32,39,1,0,0,response1disk,7,89,8,0,1,0,0,rectangle,8,0,1,0,0,4,3,0.003395,8,0,1,0,0,0,88,88,121,1,0,,,,,,,,,,,,,,,,,,,,,
,,,,,,,,,,,,,,,,,,,,,,,,,,,,,,,,,,,,,,,,,,5f4756db83588013e9e31bfc,606c0d55d433daa165747872,2021-04-06_09h29.10.864,Colour_Similarity_Experiment,2020.2.10,Win32,60,6067542a4a25243f4d7d4fcf,18.38736607,16.78786585,16.77208633,16.82670551,16.71150143,16.78786585,,,,,,,,,,,,,,,,,,,,PF,strong,3,,,,,,,,7,1.143615,,,,,,,,,,,,,,,,,,,,,,,,,,,,1,strong,51,57,1,0,0,response1disk,8,90,-5,1,1,0,0,rectangle,-5,1,1,0,0,4,0,0.02253,-5,1,1,0,0,0,89,89,27,1,0,,,,,,,,,,,,,,,,,,,,,
,,,,,,,,,,,,,,,,,,,,,,,,,,,,,,,,,,,,,,,,,,5f4756db83588013e9e31bfc,606c0d55d433daa165747872,2021-04-06_09h29.10.864,Colour_Similarity_Experiment,2020.2.10,Win32,60,6067542a4a25243f4d7d4fcf,18.38736607,16.78786585,16.77208633,16.82670551,16.71150143,16.78786585,,,,,,,,,,,,,,,,,,,,PF,strong,3,,,,,,,,7,1.189645,,,,,,,,,,,,,,,,,,,,,,,,,,,,9,strong,40,74,1,0,0,response1disk,2,91,3,-5,1,0,0,rectangle,87,26,1,0,0,6,6,2.435295,11,-6,1,0,0,0,90,90,11,1,1,response1disk_3,rectangle,,,,,,,,,,,,,,,,,,,
,,,,,,,,,,,,,,,,,,,,,,,,,,,,,,,,,,,,,,,,,,5f4756db83588013e9e31bfc,606c0d55d433daa165747872,2021-04-06_09h29.10.864,Colour_Similarity_Experiment,2020.2.10,Win32,60,6067542a4a25243f4d7d4fcf,18.38736607,16.78786585,16.77208633,16.82670551,16.71150143,16.78786585,,,,,,,,,,,,,,,,,,,,PF,weak,3,,,,,,,,1,1.711295,,,,,,,,,,,,,,,,,,,,,,,,,,,,7,weak,-66,29,1,0,0,response7disk,6,92,0,9,1,0,0,rectangle,0,9,1,0,0,6,5,0.0061,0,9,1,0,0,0,91,91,29,1,0,,,,,,,,,,,,,,,,,,,,,
,,,,,,,,,,,,,,,,,,,,,,,,,,,,,,,,,,,,,,,,,,5f4756db83588013e9e31bfc,606c0d55d433daa165747872,2021-04-06_09h29.10.864,Colour_Similarity_Experiment,2020.2.10,Win32,60,6067542a4a25243f4d7d4fcf,18.38736607,16.78786585,16.77208633,16.82670551,16.71150143,16.78786585,,,,,,,,,,,,,,,,,,,,PF,weak,3,,,,,,,,6,1.87455,,,,,,,,,,,,,,,,,,,,,,,,,,,,1,weak,104,40,1,0,0,response1disk,5,93,9,8,1,0,0,rectangle,9,8,1,0,0,6,7,0.0031,9,8,1,0,0,0,92,92,28,1,0,,,,,,,,,,,,,,,,,,,,,
,,,,,,,,,,,,,,,,,,,,,,,,,,,,,,,,,,,,,,,,,,5f4756db83588013e9e31bfc,606c0d55d433daa165747872,2021-04-06_09h29.10.864,Colour_Similarity_Experiment,2020.2.10,Win32,60,6067542a4a25243f4d7d4fcf,18.38736607,16.78786585,16.77208633,16.82670551,16.71150143,16.78786585,,,,,,,,,,,,,,,,,,,,PF,strong,3,,,,,,,,0,2.07239,,,,,,,,,,,,,,,,,,,,,,,,,,,,6,strong,-42,73,1,0,0,response7disk,6,94,-19,13,1,0,0,rectangle,-19,13,1,0,0,6,5,0.00596,-19,13,1,0,0,0,93,93,91,1,0,,,,,,,,,,,,,,,,,,,,,
,,,,,,,,,,,,,,,,,,,,,,,,,,,,,,,,,,,,,,,,,,5f4756db83588013e9e31bfc,606c0d55d433daa165747872,2021-04-06_09h29.10.864,Colour_Similarity_Experiment,2020.2.10,Win32,60,6067542a4a25243f4d7d4fcf,18.38736607,16.78786585,16.77208633,16.82670551,16.71150143,16.78786585,,,,,,,,,,,,,,,,,,,,PF,strong,3,,,,,,,,6,1.87504,,,,,,,,,,,,,,,,,,,,,,,,,,,,3,strong,58,36,1,0,0,response1disk,4,95,-7,-5,1,0,0,rectangle,-7,-5,1,0,0,6,0,0.00483,-7,-5,1,0,0,0,94,94,110,1,0,,,,,,,,,,,,,,,,,,,,,
,,,,,,,,,,,,,,,,,,,,,,,,,,,,,,,,,,,,,,,,,,5f4756db83588013e9e31bfc,606c0d55d433daa165747872,2021-04-06_09h29.10.864,Colour_Similarity_Experiment,2020.2.10,Win32,60,6067542a4a25243f4d7d4fcf,18.38736607,16.78786585,16.77208633,16.82670551,16.71150143,16.78786585,,,,,,,,,,,,,,,,,,,,PF,strong,3,,,,,,,,2,2.318325,,,,,,,,,,,,,,,,,,,,,,,,,,,,1,strong,-72,-45,1,0,0,response5disk,2,96,1,-1,1,0,0,rectangle,1,-1,1,0,0,6,6,0.003635,1,-1,1,0,0,0,95,95,2,1,0,,,,,,,,,,,,,,,,,,,,,
,,,,,,,,,,,,,,,,,,,,,,,,,,,,,,,,,,,,,,,,,,5f4756db83588013e9e31bfc,606c0d55d433daa165747872,2021-04-06_09h29.10.864,Colour_Similarity_Experiment,2020.2.10,Win32,60,6067542a4a25243f4d7d4fcf,18.38736607,16.78786585,16.77208633,16.82670551,16.71150143,16.78786585,,,,,,,,,,,,,,,,,,,,PF,strong,3,,,,,,,,5,5.971975,,,,,,,,,,,,,,,,,,,,,,,,,,,,4,strong,84,-23,1,0,0,response3disk,6,97,-5,6,1,0,0,rectangle,-5,6,1,0,0,6,7,0.00472,-5,6,1,0,0,0,96,96,122,1,0,,,,,,,,,,,,,,,,,,,,,
,,,,,,,,,,,,,,,,,,,,,,,,,,,,,,,,,,,,,,,,,,5f4756db83588013e9e31bfc,606c0d55d433daa165747872,2021-04-06_09h29.10.864,Colour_Similarity_Experiment,2020.2.10,Win32,60,6067542a4a25243f4d7d4fcf,18.38736607,16.78786585,16.77208633,16.82670551,16.71150143,16.78786585,,,,,,,,,,,,,,,,,,,,PF,weak,3,,,,,,,,1,1.86572,,,,,,,,,,,,,,,,,,,,,,,,,,,,3,weak,-71,36,1,0,0,response7disk,2,98,15,2,1,0,0,rectangle,78,32,1,0,0,6,6,2.38456,1,3,1,0,0,0,97,97,36,1,1,response1disk_3,rectangle,,,,,,,,,,,,,,,,,,,
,,,,,,,,,,,,,,,,,,,,,,,,,,,,,,,,,,,,,,,,,,5f4756db83588013e9e31bfc,606c0d55d433daa165747872,2021-04-06_09h29.10.864,Colour_Similarity_Experiment,2020.2.10,Win32,60,6067542a4a25243f4d7d4fcf,18.38736607,16.78786585,16.77208633,16.82670551,16.71150143,16.78786585,,,,,,,,,,,,,,,,,,,,PF,weak,3,,,,,,,,1,3.32476,,,,,,,,,,,,,,,,,,,,,,,,,,,,2,weak,-79,46,1,0,0,response7disk,1,99,30,3,1,0,0,rectangle,30,3,1,0,0,6,7,0.002605,30,3,1,0,0,0,98,98,9,1,0,,,,,,,,,,,,,,,,,,,,,
,,,,,,,,,,,,,,,,,,,,,,,,,,,,,,,,,,,,,,,,,,5f4756db83588013e9e31bfc,606c0d55d433daa165747872,2021-04-06_09h29.10.864,Colour_Similarity_Experiment,2020.2.10,Win32,60,6067542a4a25243f4d7d4fcf,18.38736607,16.78786585,16.77208633,16.82670551,16.71150143,16.78786585,,,,,,,,,,,,,,,,,,,,PF,strong,3,,,,,,,,0,1.596915,,,,,,,,,,,,,,,,,,,,,,,,,,,,6,strong,-46,68,1,0,0,response7disk,5,100,0,15,1,0,0,rectangle,0,15,1,0,0,6,1,0.003085,0,15,1,0,0,0,99,99,126,1,0,,,,,,,,,,,,,,,,,,,,,
,,,,,,,,,,,,,,,,,,,,,,,,,,,,,,,,,,,,,,,,,,5f4756db83588013e9e31bfc,606c0d55d433daa165747872,2021-04-06_09h29.10.864,Colour_Similarity_Experiment,2020.2.10,Win32,60,6067542a4a25243f4d7d4fcf,18.38736607,16.78786585,16.77208633,16.82670551,16.71150143,16.78786585,,,,,,,,,,,,,,,,,,,,PF,strong,3,,,,,,,,5,2.973395,,,,,,,,,,,,,,,,,,,,,,,,,,,,6,strong,92,-45,1,0,0,response3disk,2,101,1,-5,1,0,0,rectangle,1,-5,1,0,0,6,3,0.016575,1,-5,1,0,0,0,100,100,112,1,0,,,,,,,,,,,,,,,,,,,,,
,,,,,,,,,,,,,,,,,,,,,,,,,,,,,,,,,,,,,,,,,,5f4756db83588013e9e31bfc,606c0d55d433daa165747872,2021-04-06_09h29.10.864,Colour_Similarity_Experiment,2020.2.10,Win32,60,6067542a4a25243f4d7d4fcf,18.38736607,16.78786585,16.77208633,16.82670551,16.71150143,16.78786585,,,,,,,,,,,,,,,,,,,,PF,strong,3,,,,,,,,6,1.50992,,,,,,,,,,,,,,,,,,,,,,,,,,,,2,strong,64,39,1,0,0,response1disk,4,102,1,-1,1,0,0,rectangle,1,-1,1,0,0,6,7,0.00371,1,-1,1,0,0,0,101,101,145,1,0,,,,,,,,,,,,,,,,,,,,,
,,,,,,,,,,,,,,,,,,,,,,,,,,,,,,,,,,,,,,,,,,5f4756db83588013e9e31bfc,606c0d55d433daa165747872,2021-04-06_09h29.10.864,Colour_Similarity_Experiment,2020.2.10,Win32,60,6067542a4a25243f4d7d4fcf,18.38736607,16.78786585,16.77208633,16.82670551,16.71150143,16.78786585,,,,,,,,,,,,,,,,,,,,PF,weak,3,,,,,,,,2,2.061035,,,,,,,,,,,,,,,,,,,,,,,,,,,,5,weak,-89,-28,1,0,0,response5disk,4,103,-16,0,1,0,0,rectangle,-16,0,1,0,0,6,2,0.00298,-16,0,1,0,0,0,102,102,54,1,0,,,,,,,,,,,,,,,,,,,,,
,,,,,,,,,,,,,,,,,,,,,,,,,,,,,,,,,,,,,,,,,,5f4756db83588013e9e31bfc,606c0d55d433daa165747872,2021-04-06_09h29.10.864,Colour_Similarity_Experiment,2020.2.10,Win32,60,6067542a4a25243f4d7d4fcf,18.38736607,16.78786585,16.77208633,16.82670551,16.71150143,16.78786585,,,,,,,,,,,,,,,,,,,,PF,weak,3,,,,,,,,7,1.518355,,,,,,,,,,,,,,,,,,,,,,,,,,,,6,weak,38,101,1,0,0,response1disk,1,104,-8,-5,1,0,0,rectangle,-8,-5,1,0,0,6,3,0.00517,-8,-5,1,0,0,0,103,103,46,1,0,,,,,,,,,,,,,,,,,,,,,
,,,,,,,,,,,,,,,,,,,,,,,,,,,,,,,,,,,,,,,,,,5f4756db83588013e9e31bfc,606c0d55d433daa165747872,2021-04-06_09h29.10.864,Colour_Similarity_Experiment,2020.2.10,Win32,60,6067542a4a25243f4d7d4fcf,18.38736607,16.78786585,16.77208633,16.82670551,16.71150143,16.78786585,,,,,,,,,,,,,,,,,,,,PF,strong,3,,,,,,,,0,2.292225,,,,,,,,,,,,,,,,,,,,,,,,,,,,2,strong,-28,51,1,0,0,response7disk,2,105,-7,-9,1,0,0,rectangle,-7,-9,1,0,0,6,3,0.00042,-7,-9,1,0,0,0,104,104,142,1,0,,,,,,,,,,,,,,,,,,,,,
,,,,,,,,,,,,,,,,,,,,,,,,,,,,,,,,,,,,,,,,,,5f4756db83588013e9e31bfc,606c0d55d433daa165747872,2021-04-06_09h29.10.864,Colour_Similarity_Experiment,2020.2.10,Win32,60,6067542a4a25243f4d7d4fcf,18.38736607,16.78786585,16.77208633,16.82670551,16.71150143,16.78786585,,,,,,,,,,,,,,,,,,,,PF,strong,3,,,,,,,,0,1.77478,,,,,,,,,,,,,,,,,,,,,,,,,,,,7,strong,-24,60,1,0,0,response7disk,6,106,11,3,1,0,0,rectangle,11,3,1,0,0,6,5,0.007425,11,3,1,0,0,0,105,105,31,1,0,,,,,,,,,,,,,,,,,,,,,
,,,,,,,,,,,,,,,,,,,,,,,,,,,,,,,,,,,,,,,,,,5f4756db83588013e9e31bfc,606c0d55d433daa165747872,2021-04-06_09h29.10.864,Colour_Similarity_Experiment,2020.2.10,Win32,60,6067542a4a25243f4d7d4fcf,18.38736607,16.78786585,16.77208633,16.82670551,16.71150143,16.78786585,,,,,,,,,,,,,,,,,,,,PF,weak,3,,,,,,,,7,1.916935,,,,,,,,,,,,,,,,,,,,,,,,,,,,3,weak,61,77,1,0,0,response1disk,5,107,5,-11,1,0,0,rectangle,5,-11,1,0,0,6,2,0.00325,5,-11,1,0,0,0,106,106,66,1,0,,,,,,,,,,,,,,,,,,,,,
,,,,,,,,,,,,,,,,,,,,,,,,,,,,,,,,,,,,,,,,,,5f4756db83588013e9e31bfc,606c0d55d433daa165747872,2021-04-06_09h29.10.864,Colour_Similarity_Experiment,2020.2.10,Win32,60,6067542a4a25243f4d7d4fcf,18.38736607,16.78786585,16.77208633,16.82670551,16.71150143,16.78786585,,,,,,,,,,,,,,,,,,,,PF,strong,3,,,,,,,,5,3.571135,,,,,,,,,,,,,,,,,,,,,,,,,,,,6,strong,80,-23,1,0,0,response3disk,3,108,-13,10,1,0,0,rectangle,-13,10,1,0,0,6,1,0.004205,-13,10,1,0,0,0,107,107,21,1,0,,,,,,,,,,,,,,,,,,,,,
,,,,,,,,,,,,,,,,,,,,,,,,,,,,,,,,,,,,,,,,,,5f4756db83588013e9e31bfc,606c0d55d433daa165747872,2021-04-06_09h29.10.864,Colour_Similarity_Experiment,2020.2.10,Win32,60,6067542a4a25243f4d7d4fcf,18.38736607,16.78786585,16.77208633,16.82670551,16.71150143,16.78786585,,,,,,,,,,,,,,,,,,,,PF,strong,3,,,,,,,,0,2.439515,,,,,,,,,,,,,,,,,,,,,,,,,,,,8,strong,-57,67,1,0,0,response7disk,9,109,-12,5,1,0,0,rectangle,-12,5,1,0,0,6,7,0.00442,-12,5,1,0,0,0,108,108,105,1,0,,,,,,,,,,,,,,,,,,,,,
,,,,,,,,,,,,,,,,,,,,,,,,,,,,,,,,,,,,,,,,,,5f4756db83588013e9e31bfc,606c0d55d433daa165747872,2021-04-06_09h29.10.864,Colour_Similarity_Experiment,2020.2.10,Win32,60,6067542a4a25243f4d7d4fcf,18.38736607,16.78786585,16.77208633,16.82670551,16.71150143,16.78786585,,,,,,,,,,,,,,,,,,,,PF,weak,3,,,,,,,,6,1.40556,,,,,,,,,,,,,,,,,,,,,,,,,,,,3,weak,83,28,1,0,0,response1disk,7,110,11,-5,1,0,0,rectangle,11,-5,1,0,0,6,2,0.002575,11,-5,1,0,0,0,109,109,41,1,0,,,,,,,,,,,,,,,,,,,,,
,,,,,,,,,,,,,,,,,,,,,,,,,,,,,,,,,,,,,,,,,,5f4756db83588013e9e31bfc,606c0d55d433daa165747872,2021-04-06_09h29.10.864,Colour_Similarity_Experiment,2020.2.10,Win32,60,6067542a4a25243f4d7d4fcf,18.38736607,16.78786585,16.77208633,16.82670551,16.71150143,16.78786585,,,,,,,,,,,,,,,,,,,,PF,weak,3,,,,,,,,0,1.257965,,,,,,,,,,,,,,,,,,,,,,,,,,,,5,weak,-26,65,1,0,0,response7disk,6,111,5,-5,1,0,0,rectangle,5,-5,1,0,0,6,6,0.002935,5,-5,1,0,0,0,110,110,103,1,0,,,,,,,,,,,,,,,,,,,,,
,,,,,,,,,,,,,,,,,,,,,,,,,,,,,,,,,,,,,,,,,,5f4756db83588013e9e31bfc,606c0d55d433daa165747872,2021-04-06_09h29.10.864,Colour_Similarity_Experiment,2020.2.10,Win32,60,6067542a4a25243f4d7d4fcf,18.38736607,16.78786585,16.77208633,16.82670551,16.71150143,16.78786585,,,,,,,,,,,,,,,,,,,,PF,strong,3,,,,,,,,5,2.56961,,,,,,,,,,,,,,,,,,,,,,,,,,,,5,strong,84,-37,1,0,0,response3disk,3,112,-5,1,1,0,0,rectangle,-5,1,1,0,0,6,4,0.002915,-5,1,1,0,0,0,111,111,25,1,0,,,,,,,,,,,,,,,,,,,,,
,,,,,,,,,,,,,,,,,,,,,,,,,,,,,,,,,,,,,,,,,,5f4756db83588013e9e31bfc,606c0d55d433daa165747872,2021-04-06_09h29.10.864,Colour_Similarity_Experiment,2020.2.10,Win32,60,6067542a4a25243f4d7d4fcf,18.38736607,16.78786585,16.77208633,16.82670551,16.71150143,16.78786585,,,,,,,,,,,,,,,,,,,,PF,strong,3,,,,,,,,2,2.27917,,,,,,,,,,,,,,,,,,,,,,,,,,,,2,strong,-100,-40,1,0,0,response5disk,1,113,-14,-1,1,0,0,rectangle,-14,-1,1,0,0,6,4,0.000795,-14,-1,1,0,0,0,112,112,85,1,0,,,,,,,,,,,,,,,,,,,,,
,,,,,,,,,,,,,,,,,,,,,,,,,,,,,,,,,,,,,,,,,,5f4756db83588013e9e31bfc,606c0d55d433daa165747872,2021-04-06_09h29.10.864,Colour_Similarity_Experiment,2020.2.10,Win32,60,6067542a4a25243f4d7d4fcf,18.38736607,16.78786585,16.77208633,16.82670551,16.71150143,16.78786585,,,,,,,,,,,,,,,,,,,,PF,strong,3,,,,,,,,3,2.6867,,,,,,,,,,,,,,,,,,,,,,,,,,,,1,strong,-59,-64,1,0,0,response5disk,3,114,3,6,1,0,0,rectangle,3,6,1,0,0,6,4,0.00039,3,6,1,0,0,0,113,113,99,1,0,,,,,,,,,,,,,,,,,,,,,
,,,,,,,,,,,,,,,,,,,,,,,,,,,,,,,,,,,,,,,,,,5f4756db83588013e9e31bfc,606c0d55d433daa165747872,2021-04-06_09h29.10.864,Colour_Similarity_Experiment,2020.2.10,Win32,60,6067542a4a25243f4d7d4fcf,18.38736607,16.78786585,16.77208633,16.82670551,16.71150143,16.78786585,,,,,,,,,,,,,,,,,,,,PF,strong,3,,,,,,,,3,1.86789,,,,,,,,,,,,,,,,,,,,,,,,,,,,1,strong,-20,-74,1,0,0,response5disk,7,115,-6,-4,1,0,0,rectangle,-6,-4,1,0,0,6,3,0.025295,-6,-4,1,0,0,0,114,114,137,1,0,,,,,,,,,,,,,,,,,,,,,
,,,,,,,,,,,,,,,,,,,,,,,,,,,,,,,,,,,,,,,,,,5f4756db83588013e9e31bfc,606c0d55d433daa165747872,2021-04-06_09h29.10.864,Colour_Similarity_Experiment,2020.2.10,Win32,60,6067542a4a25243f4d7d4fcf,18.38736607,16.78786585,16.77208633,16.82670551,16.71150143,16.78786585,,,,,,,,,,,,,,,,,,,,PF,weak,3,,,,,,,,7,2.45584,,,,,,,,,,,,,,,,,,,,,,,,,,,,2,weak,52,92,1,0,0,response1disk,6,116,4,-8,1,0,0,rectangle,4,-8,1,0,0,6,1,0.00305,4,-8,1,0,0,0,115,115,113,1,0,,,,,,,,,,,,,,,,,,,,,
,,,,,,,,,,,,,,,,,,,,,,,,,,,,,,,,,,,,,,,,,,5f4756db83588013e9e31bfc,606c0d55d433daa165747872,2021-04-06_09h29.10.864,Colour_Similarity_Experiment,2020.2.10,Win32,60,6067542a4a25243f4d7d4fcf,18.38736607,16.78786585,16.77208633,16.82670551,16.71150143,16.78786585,,,,,,,,,,,,,,,,,,,,PF,weak,3,,,,,,,,7,1.42983,,,,,,,,,,,,,,,,,,,,,,,,,,,,4,weak,28,66,1,0,0,response1disk,8,117,7,11,1,0,0,rectangle,7,11,1,0,0,6,4,0.00408,7,11,1,0,0,0,116,116,124,1,0,,,,,,,,,,,,,,,,,,,,,
,,,,,,,,,,,,,,,,,,,,,,,,,,,,,,,,,,,,,,,,,,5f4756db83588013e9e31bfc,606c0d55d433daa165747872,2021-04-06_09h29.10.864,Colour_Similarity_Experiment,2020.2.10,Win32,60,6067542a4a25243f4d7d4fcf,18.38736607,16.78786585,16.77208633,16.82670551,16.71150143,16.78786585,,,,,,,,,,,,,,,,,,,,PF,weak,3,,,,,,,,7,1.735195,,,,,,,,,,,,,,,,,,,,,,,,,,,,8,weak,28,53,1,0,0,response1disk,7,118,3,3,1,0,0,rectangle,3,3,1,0,0,6,6,0.03043,3,3,1,0,0,0,117,117,23,1,0,,,,,,,,,,,,,,,,,,,,,
,,,,,,,,,,,,,,,,,,,,,,,,,,,,,,,,,,,,,,,,,,5f4756db83588013e9e31bfc,606c0d55d433daa165747872,2021-04-06_09h29.10.864,Colour_Similarity_Experiment,2020.2.10,Win32,60,6067542a4a25243f4d7d4fcf,18.38736607,16.78786585,16.77208633,16.82670551,16.71150143,16.78786585,,,,,,,,,,,,,,,,,,,,PF,weak,3,,,,,,,,0,1.22571,,,,,,,,,,,,,,,,,,,,,,,,,,,,2,weak,-32,69,1,0,0,response7disk,2,119,-6,13,1,0,0,rectangle,-6,13,1,0,0,6,0,0.00905,-6,13,1,0,0,0,118,118,14,1,0,,,,,,,,,,,,,,,,,,,,,
,,,,,,,,,,,,,,,,,,,,,,,,,,,,,,,,,,,,,,,,,,5f4756db83588013e9e31bfc,606c0d55d433daa165747872,2021-04-06_09h29.10.864,Colour_Similarity_Experiment,2020.2.10,Win32,60,6067542a4a25243f4d7d4fcf,18.38736607,16.78786585,16.77208633,16.82670551,16.71150143,16.78786585,,,,,,,,,,,,,,,,,,,,PF,weak,3,,,,,,,,7,1.053135,,,,,,,,,,,,,,,,,,,,,,,,,,,,9,weak,38,59,1,0,0,response1disk,5,120,14,5,1,0,0,rectangle,14,5,1,0,0,6,2,0.004535,14,5,1,0,0,0,119,119,134,1,0,,,,,,,,,,,,,,,,,,,,,
,,,,,,,,,,,,,,,,,,,,,,,,,,,,,,,,,,,,,,,,,,5f4756db83588013e9e31bfc,606c0d55d433daa165747872,2021-04-06_09h29.10.864,Colour_Similarity_Experiment,2020.2.10,Win32,60,6067542a4a25243f4d7d4fcf,18.38736607,16.78786585,16.77208633,16.82670551,16.71150143,16.78786585,,,,,,,,,,,,,,,,,,,,PF,weak,3,,,,,,,,7,1.212015,,,,,,,,,,,,,,,,,,,,,,,,,,,,9,weak,46,80,1,0,0,response1disk,6,121,1,13,1,0,0,rectangle,1,13,1,0,0,6,4,0.00307,1,13,1,0,0,0,120,120,148,1,0,,,,,,,,,,,,,,,,,,,,,
,,,,,,,,,,,,,,,,,,,,,,,,,,,,,,,,,,,,,,,,,,5f4756db83588013e9e31bfc,606c0d55d433daa165747872,2021-04-06_09h29.10.864,Colour_Similarity_Experiment,2020.2.10,Win32,60,6067542a4a25243f4d7d4fcf,18.38736607,16.78786585,16.77208633,16.82670551,16.71150143,16.78786585,,,,,,,,,,,,,,,,,,,,PF,strong,3,,,,,,,,6,1.09093,,,,,,,,,,,,,,,,,,,,,,,,,,,,8,strong,58,23,1,0,0,response1disk,2,122,15,3,1,0,0,rectangle,15,3,1,0,0,6,1,0.003835,15,3,1,0,0,0,121,121,22,1,0,,,,,,,,,,,,,,,,,,,,,
,,,,,,,,,,,,,,,,,,,,,,,,,,,,,,,,,,,,,,,,,,5f4756db83588013e9e31bfc,606c0d55d433daa165747872,2021-04-06_09h29.10.864,Colour_Similarity_Experiment,2020.2.10,Win32,60,6067542a4a25243f4d7d4fcf,18.38736607,16.78786585,16.77208633,16.82670551,16.71150143,16.78786585,,,,,,,,,,,,,,,,,,,,PF,weak,3,,,,,,,,1,1.42711,,,,,,,,,,,,,,,,,,,,,,,,,,,,7,weak,-68,31,1,0,0,response7disk,5,123,9,3,1,0,0,rectangle,9,3,1,0,0,6,4,0.00298,9,3,1,0,0,0,122,122,92,1,0,,,,,,,,,,,,,,,,,,,,,
,,,,,,,,,,,,,,,,,,,,,,,,,,,,,,,,,,,,,,,,,,5f4756db83588013e9e31bfc,606c0d55d433daa165747872,2021-04-06_09h29.10.864,Colour_Similarity_Experiment,2020.2.10,Win32,60,6067542a4a25243f4d7d4fcf,18.38736607,16.78786585,16.77208633,16.82670551,16.71150143,16.78786585,,,,,,,,,,,,,,,,,,,,PF,strong,3,,,,,,,,7,1.27513,,,,,,,,,,,,,,,,,,,,,,,,,,,,5,strong,40,61,1,0,0,response1disk,1,124,5,0,1,0,0,rectangle,5,0,1,0,0,6,2,0.006525,5,0,1,0,0,0,123,123,131,1,0,,,,,,,,,,,,,,,,,,,,,
,,,,,,,,,,,,,,,,,,,,,,,,,,,,,,,,,,,,,,,,,,5f4756db83588013e9e31bfc,606c0d55d433daa165747872,2021-04-06_09h29.10.864,Colour_Similarity_Experiment,2020.2.10,Win32,60,6067542a4a25243f4d7d4fcf,18.38736607,16.78786585,16.77208633,16.82670551,16.71150143,16.78786585,,,,,,,,,,,,,,,,,,,,PF,weak,3,,,,,,,,0,1.16928,,,,,,,,,,,,,,,,,,,,,,,,,,,,6,weak,-28,60,1,0,0,response7disk,5,125,-3,10,1,0,0,rectangle,-3,10,1,0,0,6,7,0.003135,-3,10,1,0,0,0,124,124,59,1,0,,,,,,,,,,,,,,,,,,,,,
,,,,,,,,,,,,,,,,,,,,,,,,,,,,,,,,,,,,,,,,,,5f4756db83588013e9e31bfc,606c0d55d433daa165747872,2021-04-06_09h29.10.864,Colour_Similarity_Experiment,2020.2.10,Win32,60,6067542a4a25243f4d7d4fcf,18.38736607,16.78786585,16.77208633,16.82670551,16.71150143,16.78786585,,,,,,,,,,,,,,,,,,,,PF,strong,3,,,,,,,,0,1.19368,,,,,,,,,,,,,,,,,,,,,,,,,,,,4,strong,-43,80,1,0,0,response7disk,4,126,17,-7,1,0,0,rectangle,17,-7,1,0,0,6,0,0.00596,17,-7,1,0,0,0,125,125,84,1,0,,,,,,,,,,,,,,,,,,,,,
,,,,,,,,,,,,,,,,,,,,,,,,,,,,,,,,,,,,,,,,,,5f4756db83588013e9e31bfc,606c0d55d433daa165747872,2021-04-06_09h29.10.864,Colour_Similarity_Experiment,2020.2.10,Win32,60,6067542a4a25243f4d7d4fcf,18.38736607,16.78786585,16.77208633,16.82670551,16.71150143,16.78786585,,,,,,,,,,,,,,,,,,,,PF,weak,3,,,,,,,,7,1.90774,,,,,,,,,,,,,,,,,,,,,,,,,,,,5,weak,36,74,1,0,0,response1disk,8,127,6,8,1,0,0,rectangle,6,8,1,0,0,6,6,0.00596,6,8,1,0,0,0,126,126,149,1,0,,,,,,,,,,,,,,,,,,,,,
,,,,,,,,,,,,,,,,,,,,,,,,,,,,,,,,,,,,,,,,,,5f4756db83588013e9e31bfc,606c0d55d433daa165747872,2021-04-06_09h29.10.864,Colour_Similarity_Experiment,2020.2.10,Win32,60,6067542a4a25243f4d7d4fcf,18.38736607,16.78786585,16.77208633,16.82670551,16.71150143,16.78786585,,,,,,,,,,,,,,,,,,,,PF,strong,3,,,,,,,,7,1.30136,,,,,,,,,,,,,,,,,,,,,,,,,,,,9,strong,46,88,1,0,0,response1disk,1,128,10,-3,1,0,0,rectangle,10,-3,1,0,0,6,5,0.00398,10,-3,1,0,0,0,127,127,111,1,0,,,,,,,,,,,,,,,,,,,,,
,,,,,,,,,,,,,,,,,,,,,,,,,,,,,,,,,,,,,,,,,,5f4756db83588013e9e31bfc,606c0d55d433daa165747872,2021-04-06_09h29.10.864,Colour_Similarity_Experiment,2020.2.10,Win32,60,6067542a4a25243f4d7d4fcf,18.38736607,16.78786585,16.77208633,16.82670551,16.71150143,16.78786585,,,,,,,,,,,,,,,,,,,,PF,weak,3,,,,,,,,6,2.62851,,,,,,,,,,,,,,,,,,,,,,,,,,,,1,weak,85,35,1,0,0,response1disk,4,129,8,-6,1,0,0,rectangle,8,-6,1,0,0,6,2,0.005765,8,-6,1,0,0,0,128,128,139,1,0,,,,,,,,,,,,,,,,,,,,,
,,,,,,,,,,,,,,,,,,,,,,,,,,,,,,,,,,,,,,,,,,5f4756db83588013e9e31bfc,606c0d55d433daa165747872,2021-04-06_09h29.10.864,Colour_Similarity_Experiment,2020.2.10,Win32,60,6067542a4a25243f4d7d4fcf,18.38736607,16.78786585,16.77208633,16.82670551,16.71150143,16.78786585,,,,,,,,,,,,,,,,,,,,PF,weak,3,,,,,,,,1,2.42432,,,,,,,,,,,,,,,,,,,,,,,,,,,,1,weak,-78,28,1,0,0,response7disk,2,130,10,5,1,0,0,rectangle,10,5,1,0,0,6,4,0.00341,10,5,1,0,0,0,129,129,24,1,0,,,,,,,,,,,,,,,,,,,,,
,,,,,,,,,,,,,,,,,,,,,,,,,,,,,,,,,,,,,,,,,,5f4756db83588013e9e31bfc,606c0d55d433daa165747872,2021-04-06_09h29.10.864,Colour_Similarity_Experiment,2020.2.10,Win32,60,6067542a4a25243f4d7d4fcf,18.38736607,16.78786585,16.77208633,16.82670551,16.71150143,16.78786585,,,,,,,,,,,,,,,,,,,,PF,strong,3,,,,,,,,6,2.23654,,,,,,,,,,,,,,,,,,,,,,,,,,,,5,strong,83,56,1,0,0,response1disk,2,131,-1,11,1,0,0,rectangle,42,59,1,0,0,7,7,2.515175,5,2,1,0,0,0,130,130,55,1,1,response1disk_3,rectangle,,,,,,,,,,,,,,,,,,,
,,,,,,,,,,,,,,,,,,,,,,,,,,,,,,,,,,,,,,,,,,5f4756db83588013e9e31bfc,606c0d55d433daa165747872,2021-04-06_09h29.10.864,Colour_Similarity_Experiment,2020.2.10,Win32,60,6067542a4a25243f4d7d4fcf,18.38736607,16.78786585,16.77208633,16.82670551,16.71150143,16.78786585,,,,,,,,,,,,,,,,,,,,PF,weak,3,,,,,,,,4,2.99569,,,,,,,,,,,,,,,,,,,,,,,,,,,,8,weak,45,-85,1,0,0,response3disk,1,132,8,2,1,0,0,rectangle,8,2,1,0,0,7,4,0.002615,8,2,1,0,0,0,131,131,57,1,0,,,,,,,,,,,,,,,,,,,,,
,,,,,,,,,,,,,,,,,,,,,,,,,,,,,,,,,,,,,,,,,,5f4756db83588013e9e31bfc,606c0d55d433daa165747872,2021-04-06_09h29.10.864,Colour_Similarity_Experiment,2020.2.10,Win32,60,6067542a4a25243f4d7d4fcf,18.38736607,16.78786585,16.77208633,16.82670551,16.71150143,16.78786585,,,,,,,,,,,,,,,,,,,,PF,strong,3,,,,,,,,1,1.764475,,,,,,,,,,,,,,,,,,,,,,,,,,,,5,strong,-75,45,1,0,0,response7disk,7,133,1,4,1,0,0,rectangle,1,4,1,0,0,7,3,0.00264,1,4,1,0,0,0,132,132,7,1,0,,,,,,,,,,,,,,,,,,,,,
,,,,,,,,,,,,,,,,,,,,,,,,,,,,,,,,,,,,,,,,,,5f4756db83588013e9e31bfc,606c0d55d433daa165747872,2021-04-06_09h29.10.864,Colour_Similarity_Experiment,2020.2.10,Win32,60,6067542a4a25243f4d7d4fcf,18.38736607,16.78786585,16.77208633,16.82670551,16.71150143,16.78786585,,,,,,,,,,,,,,,,,,,,PF,strong,3,,,,,,,,6,2.7786,,,,,,,,,,,,,,,,,,,,,,,,,,,,6,strong,79,46,1,0,0,response1disk,8,134,1,-10,1,0,0,rectangle,1,-10,1,0,0,7,2,0.00922,1,-10,1,0,0,0,133,133,133,1,0,,,,,,,,,,,,,,,,,,,,,
,,,,,,,,,,,,,,,,,,,,,,,,,,,,,,,,,,,,,,,,,,5f4756db83588013e9e31bfc,606c0d55d433daa165747872,2021-04-06_09h29.10.864,Colour_Similarity_Experiment,2020.2.10,Win32,60,6067542a4a25243f4d7d4fcf,18.38736607,16.78786585,16.77208633,16.82670551,16.71150143,16.78786585,,,,,,,,,,,,,,,,,,,,PF,strong,3,,,,,,,,7,1.508465,,,,,,,,,,,,,,,,,,,,,,,,,,,,3,strong,42,77,1,0,0,response1disk,8,135,15,-4,1,0,0,rectangle,15,-4,1,0,0,7,2,0.00354,15,-4,1,0,0,0,134,134,44,1,0,,,,,,,,,,,,,,,,,,,,,
,,,,,,,,,,,,,,,,,,,,,,,,,,,,,,,,,,,,,,,,,,5f4756db83588013e9e31bfc,606c0d55d433daa165747872,2021-04-06_09h29.10.864,Colour_Similarity_Experiment,2020.2.10,Win32,60,6067542a4a25243f4d7d4fcf,18.38736607,16.78786585,16.77208633,16.82670551,16.71150143,16.78786585,,,,,,,,,,,,,,,,,,,,PF,weak,3,,,,,,,,7,1.307325,,,,,,,,,,,,,,,,,,,,,,,,,,,,2,weak,39,60,1,0,0,response1disk,7,136,0,-13,1,0,0,rectangle,0,-13,1,0,0,7,0,0.00773,0,-13,1,0,0,0,135,135,107,1,0,,,,,,,,,,,,,,,,,,,,,
,,,,,,,,,,,,,,,,,,,,,,,,,,,,,,,,,,,,,,,,,,5f4756db83588013e9e31bfc,606c0d55d433daa165747872,2021-04-06_09h29.10.864,Colour_Similarity_Experiment,2020.2.10,Win32,60,6067542a4a25243f4d7d4fcf,18.38736607,16.78786585,16.77208633,16.82670551,16.71150143,16.78786585,,,,,,,,,,,,,,,,,,,,PF,weak,3,,,,,,,,7,1.133425,,,,,,,,,,,,,,,,,,,,,,,,,,,,7,weak,41,70,1,0,0,response1disk,9,137,5,5,1,0,0,rectangle,5,5,1,0,0,7,3,0.003505,5,5,1,0,0,0,136,136,10,1,0,,,,,,,,,,,,,,,,,,,,,
,,,,,,,,,,,,,,,,,,,,,,,,,,,,,,,,,,,,,,,,,,5f4756db83588013e9e31bfc,606c0d55d433daa165747872,2021-04-06_09h29.10.864,Colour_Similarity_Experiment,2020.2.10,Win32,60,6067542a4a25243f4d7d4fcf,18.38736607,16.78786585,16.77208633,16.82670551,16.71150143,16.78786585,,,,,,,,,,,,,,,,,,,,PF,strong,3,,,,,,,,0,1.11861,,,,,,,,,,,,,,,,,,,,,,,,,,,,5,strong,-37,62,1,0,0,response7disk,6,138,-10,15,1,0,0,rectangle,-10,15,1,0,0,7,3,0.000395,-10,15,1,0,0,0,137,137,12,1,0,,,,,,,,,,,,,,,,,,,,,
,,,,,,,,,,,,,,,,,,,,,,,,,,,,,,,,,,,,,,,,,,5f4756db83588013e9e31bfc,606c0d55d433daa165747872,2021-04-06_09h29.10.864,Colour_Similarity_Experiment,2020.2.10,Win32,60,6067542a4a25243f4d7d4fcf,18.38736607,16.78786585,16.77208633,16.82670551,16.71150143,16.78786585,,,,,,,,,,,,,,,,,,,,PF,strong,3,,,,,,,,0,1.05339,,,,,,,,,,,,,,,,,,,,,,,,,,,,4,strong,-49,85,1,0,0,response7disk,5,139,-3,11,1,0,0,rectangle,-3,11,1,0,0,7,0,0.002555,-3,11,1,0,0,0,138,138,116,1,0,,,,,,,,,,,,,,,,,,,,,
,,,,,,,,,,,,,,,,,,,,,,,,,,,,,,,,,,,,,,,,,,5f4756db83588013e9e31bfc,606c0d55d433daa165747872,2021-04-06_09h29.10.864,Colour_Similarity_Experiment,2020.2.10,Win32,60,6067542a4a25243f4d7d4fcf,18.38736607,16.78786585,16.77208633,16.82670551,16.71150143,16.78786585,,,,,,,,,,,,,,,,,,,,PF,weak,3,,,,,,,,6,2.16718,,,,,,,,,,,,,,,,,,,,,,,,,,,,9,weak,84,36,1,0,0,response1disk,2,140,6,4,1,0,0,rectangle,6,4,1,0,0,7,1,0.004155,6,4,1,0,0,0,139,139,157,1,0,,,,,,,,,,,,,,,,,,,,,
,,,,,,,,,,,,,,,,,,,,,,,,,,,,,,,,,,,,,,,,,,5f4756db83588013e9e31bfc,606c0d55d433daa165747872,2021-04-06_09h29.10.864,Colour_Similarity_Experiment,2020.2.10,Win32,60,6067542a4a25243f4d7d4fcf,18.38736607,16.78786585,16.77208633,16.82670551,16.71150143,16.78786585,,,,,,,,,,,,,,,,,,,,PF,strong,3,,,,,,,,6,1.102045,,,,,,,,,,,,,,,,,,,,,,,,,,,,1,strong,85,47,1,0,0,response1disk,6,141,15,11,1,0,0,rectangle,15,11,1,0,0,7,4,0.005465,15,11,1,0,0,0,140,140,58,1,0,,,,,,,,,,,,,,,,,,,,,
,,,,,,,,,,,,,,,,,,,,,,,,,,,,,,,,,,,,,,,,,,5f4756db83588013e9e31bfc,606c0d55d433daa165747872,2021-04-06_09h29.10.864,Colour_Similarity_Experiment,2020.2.10,Win32,60,6067542a4a25243f4d7d4fcf,18.38736607,16.78786585,16.77208633,16.82670551,16.71150143,16.78786585,,,,,,,,,,,,,,,,,,,,PF,weak,3,,,,,,,,5,3.02844,,,,,,,,,,,,,,,,,,,,,,,,,,,,6,weak,67,-56,1,0,0,response3disk,3,142,7,-1,1,0,0,rectangle,7,-1,1,0,0,7,0,0.00304,7,-1,1,0,0,0,141,141,26,1,0,,,,,,,,,,,,,,,,,,,,,
,,,,,,,,,,,,,,,,,,,,,,,,,,,,,,,,,,,,,,,,,,5f4756db83588013e9e31bfc,606c0d55d433daa165747872,2021-04-06_09h29.10.864,Colour_Similarity_Experiment,2020.2.10,Win32,60,6067542a4a25243f4d7d4fcf,18.38736607,16.78786585,16.77208633,16.82670551,16.71150143,16.78786585,,,,,,,,,,,,,,,,,,,,PF,strong,3,,,,,,,,7,1.584,,,,,,,,,,,,,,,,,,,,,,,,,,,,8,strong,54,73,1,0,0,response1disk,3,143,11,7,1,0,0,rectangle,11,7,1,0,0,7,2,0.004035,11,7,1,0,0,0,142,142,154,1,0,,,,,,,,,,,,,,,,,,,,,
,,,,,,,,,,,,,,,,,,,,,,,,,,,,,,,,,,,,,,,,,,5f4756db83588013e9e31bfc,606c0d55d433daa165747872,2021-04-06_09h29.10.864,Colour_Similarity_Experiment,2020.2.10,Win32,60,6067542a4a25243f4d7d4fcf,18.38736607,16.78786585,16.77208633,16.82670551,16.71150143,16.78786585,,,,,,,,,,,,,,,,,,,,PF,weak,3,,,,,,,,5,2.38621,,,,,,,,,,,,,,,,,,,,,,,,,,,,4,weak,75,-62,1,0,0,response3disk,7,144,6,-2,1,0,0,rectangle,6,-2,1,0,0,7,6,0.006195,6,-2,1,0,0,0,143,143,38,1,0,,,,,,,,,,,,,,,,,,,,,
,,,,,,,,,,,,,,,,,,,,,,,,,,,,,,,,,,,,,,,,,,5f4756db83588013e9e31bfc,606c0d55d433daa165747872,2021-04-06_09h29.10.864,Colour_Similarity_Experiment,2020.2.10,Win32,60,6067542a4a25243f4d7d4fcf,18.38736607,16.78786585,16.77208633,16.82670551,16.71150143,16.78786585,,,,,,,,,,,,,,,,,,,,PF,weak,3,,,,,,,,6,1.42267,,,,,,,,,,,,,,,,,,,,,,,,,,,,6,weak,77,45,1,0,0,response1disk,8,145,5,5,1,0,0,rectangle,5,5,1,0,0,7,3,0.002925,5,5,1,0,0,0,144,144,64,1,0,,,,,,,,,,,,,,,,,,,,,
,,,,,,,,,,,,,,,,,,,,,,,,,,,,,,,,,,,,,,,,,,5f4756db83588013e9e31bfc,606c0d55d433daa165747872,2021-04-06_09h29.10.864,Colour_Similarity_Experiment,2020.2.10,Win32,60,6067542a4a25243f4d7d4fcf,18.38736607,16.78786585,16.77208633,16.82670551,16.71150143,16.78786585,,,,,,,,,,,,,,,,,,,,PF,weak,3,,,,,,,,6,1.098585,,,,,,,,,,,,,,,,,,,,,,,,,,,,1,weak,71,37,1,0,0,response1disk,6,146,-3,5,1,0,0,rectangle,-3,5,1,0,0,7,2,0.0047,-3,5,1,0,0,0,145,145,144,1,0,,,,,,,,,,,,,,,,,,,,,
,,,,,,,,,,,,,,,,,,,,,,,,,,,,,,,,,,,,,,,,,,5f4756db83588013e9e31bfc,606c0d55d433daa165747872,2021-04-06_09h29.10.864,Colour_Similarity_Experiment,2020.2.10,Win32,60,6067542a4a25243f4d7d4fcf,18.38736607,16.78786585,16.77208633,16.82670551,16.71150143,16.78786585,,,,,,,,,,,,,,,,,,,,PF,strong,3,,,,,,,,7,0.951115,,,,,,,,,,,,,,,,,,,,,,,,,,,,2,strong,48,65,1,0,0,response1disk,7,147,11,8,1,0,0,rectangle,11,8,1,0,0,7,1,0.003285,11,8,1,0,0,0,146,146,63,1,0,,,,,,,,,,,,,,,,,,,,,
,,,,,,,,,,,,,,,,,,,,,,,,,,,,,,,,,,,,,,,,,,5f4756db83588013e9e31bfc,606c0d55d433daa165747872,2021-04-06_09h29.10.864,Colour_Similarity_Experiment,2020.2.10,Win32,60,6067542a4a25243f4d7d4fcf,18.38736607,16.78786585,16.77208633,16.82670551,16.71150143,16.78786585,,,,,,,,,,,,,,,,,,,,PF,weak,3,,,,,,,,1,1.622065,,,,,,,,,,,,,,,,,,,,,,,,,,,,6,weak,-64,37,1,0,0,response7disk,7,148,19,11,1,0,0,rectangle,19,11,1,0,0,7,7,0.007325,19,11,1,0,0,0,147,147,50,1,0,,,,,,,,,,,,,,,,,,,,,
,,,,,,,,,,,,,,,,,,,,,,,,,,,,,,,,,,,,,,,,,,5f4756db83588013e9e31bfc,606c0d55d433daa165747872,2021-04-06_09h29.10.864,Colour_Similarity_Experiment,2020.2.10,Win32,60,6067542a4a25243f4d7d4fcf,18.38736607,16.78786585,16.77208633,16.82670551,16.71150143,16.78786585,,,,,,,,,,,,,,,,,,,,PF,weak,3,,,,,,,,7,1.105975,,,,,,,,,,,,,,,,,,,,,,,,,,,,8,weak,48,76,1,0,0,response1disk,2,149,5,2,1,0,0,rectangle,5,2,1,0,0,7,2,0.00308,5,2,1,0,0,0,148,148,83,1,0,,,,,,,,,,,,,,,,,,,,,
,,,,,,,,,,,,,,,,,,,,,,,,,,,,,,,,,,,,,,,,,,5f4756db83588013e9e31bfc,606c0d55d433daa165747872,2021-04-06_09h29.10.864,Colour_Similarity_Experiment,2020.2.10,Win32,60,6067542a4a25243f4d7d4fcf,18.38736607,16.78786585,16.77208633,16.82670551,16.71150143,16.78786585,,,,,,,,,,,,,,,,,,,,PF,strong,3,,,,,,,,7,1.05049,,,,,,,,,,,,,,,,,,,,,,,,,,,,7,strong,40,75,1,0,0,response1disk,2,150,5,3,1,0,0,rectangle,5,3,1,0,0,7,1,0.00689,5,3,1,0,0,0,149,149,138,1,0,,,,,,,,,,,,,,,,,,,,,
,,,,,,,,,,,,,,,,,,,,,,,,,,,,,,,,,,,,,,,,,,5f4756db83588013e9e31bfc,606c0d55d433daa165747872,2021-04-06_09h29.10.864,Colour_Similarity_Experiment,2020.2.10,Win32,60,6067542a4a25243f4d7d4fcf,18.38736607,16.78786585,16.77208633,16.82670551,16.71150143,16.78786585,,,,,,,,,,,,,,,,,,,,PF,weak,3,,,,,,,,7,1.328225,,,,,,,,,,,,,,,,,,,,,,,,,,,,8,weak,39,48,1,0,0,response1disk,3,151,12,7,1,0,0,rectangle,12,7,1,0,0,7,3,0.004605,12,7,1,0,0,0,150,150,71,1,0,,,,,,,,,,,,,,,,,,,,,
,,,,,,,,,,,,,,,,,,,,,,,,,,,,,,,,,,,,,,,,,,5f4756db83588013e9e31bfc,606c0d55d433daa165747872,2021-04-06_09h29.10.864,Colour_Similarity_Experiment,2020.2.10,Win32,60,6067542a4a25243f4d7d4fcf,18.38736607,16.78786585,16.77208633,16.82670551,16.71150143,16.78786585,,,,,,,,,,,,,,,,,,,,PF,strong,3,,,,,,,,5,2.10884,,,,,,,,,,,,,,,,,,,,,,,,,,,,7,strong,63,-19,1,0,0,response3disk,9,152,15,-5,1,0,0,rectangle,15,-5,1,0,0,7,6,0.002535,15,-5,1,0,0,0,151,151,155,1,0,,,,,,,,,,,,,,,,,,,,,
,,,,,,,,,,,,,,,,,,,,,,,,,,,,,,,,,,,,,,,,,,5f4756db83588013e9e31bfc,606c0d55d433daa165747872,2021-04-06_09h29.10.864,Colour_Similarity_Experiment,2020.2.10,Win32,60,6067542a4a25243f4d7d4fcf,18.38736607,16.78786585,16.77208633,16.82670551,16.71150143,16.78786585,,,,,,,,,,,,,,,,,,,,PF,strong,3,,,,,,,,1,1.52274,,,,,,,,,,,,,,,,,,,,,,,,,,,,6,strong,-75,35,1,0,0,response7disk,7,153,-2,9,1,0,0,rectangle,-2,9,1,0,0,7,0,0.004005,-2,9,1,0,0,0,152,152,18,1,0,,,,,,,,,,,,,,,,,,,,,
,,,,,,,,,,,,,,,,,,,,,,,,,,,,,,,,,,,,,,,,,,5f4756db83588013e9e31bfc,606c0d55d433daa165747872,2021-04-06_09h29.10.864,Colour_Similarity_Experiment,2020.2.10,Win32,60,6067542a4a25243f4d7d4fcf,18.38736607,16.78786585,16.77208633,16.82670551,16.71150143,16.78786585,,,,,,,,,,,,,,,,,,,,PF,strong,3,,,,,,,,6,4.2505,,,,,,,,,,,,,,,,,,,,,,,,,,,,9,strong,55,35,1,0,0,response1disk,3,154,-4,4,1,0,0,rectangle,-4,4,1,0,0,7,1,0.00265,-4,4,1,0,0,0,153,153,141,1,0,,,,,,,,,,,,,,,,,,,,,
,,,,,,,,,,,,,,,,,,,,,,,,,,,,,,,,,,,,,,,,,,5f4756db83588013e9e31bfc,606c0d55d433daa165747872,2021-04-06_09h29.10.864,Colour_Similarity_Experiment,2020.2.10,Win32,60,6067542a4a25243f4d7d4fcf,18.38736607,16.78786585,16.77208633,16.82670551,16.71150143,16.78786585,,,,,,,,,,,,,,,,,,,,PF,weak,3,,,,,,,,1,1.36552,,,,,,,,,,,,,,,,,,,,,,,,,,,,4,weak,-75,31,1,0,0,response7disk,4,155,16,1,1,0,0,rectangle,16,1,1,0,0,7,7,0.003575,16,1,1,0,0,0,154,154,70,1,0,,,,,,,,,,,,,,,,,,,,,
,,,,,,,,,,,,,,,,,,,,,,,,,,,,,,,,,,,,,,,,,,5f4756db83588013e9e31bfc,606c0d55d433daa165747872,2021-04-06_09h29.10.864,Colour_Similarity_Experiment,2020.2.10,Win32,60,6067542a4a25243f4d7d4fcf,18.38736607,16.78786585,16.77208633,16.82670551,16.71150143,16.78786585,,,,,,,,,,,,,,,,,,,,PF,weak,3,,,,,,,,4,2.587535,,,,,,,,,,,,,,,,,,,,,,,,,,,,5,weak,46,-71,1,0,0,response3disk,3,156,1,-4,1,0,0,rectangle,1,-4,1,0,0,7,7,0.00075,1,-4,1,0,0,0,155,155,109,1,0,,,,,,,,,,,,,,,,,,,,,
,,,,,,,,,,,,,,,,,,,,,,,,,,,,,,,,,,,,,,,,,,5f4756db83588013e9e31bfc,606c0d55d433daa165747872,2021-04-06_09h29.10.864,Colour_Similarity_Experiment,2020.2.10,Win32,60,6067542a4a25243f4d7d4fcf,18.38736607,16.78786585,16.77208633,16.82670551,16.71150143,16.78786585,,,,,,,,,,,,,,,,,,,,PF,strong,3,,,,,,,,1,3.61512,,,,,,,,,,,,,,,,,,,,,,,,,,,,1,strong,-64,33,1,0,0,response7disk,1,157,29,11,1,0,0,rectangle,29,11,1,0,0,7,1,0.00281,29,11,1,0,0,0,156,156,151,1,0,,,,,,,,,,,,,,,,,,,,,
,,,,,,,,,,,,,,,,,,,,,,,,,,,,,,,,,,,,,,,,,,5f4756db83588013e9e31bfc,606c0d55d433daa165747872,2021-04-06_09h29.10.864,Colour_Similarity_Experiment,2020.2.10,Win32,60,6067542a4a25243f4d7d4fcf,18.38736607,16.78786585,16.77208633,16.82670551,16.71150143,16.78786585,,,,,,,,,,,,,,,,,,,,PF,strong,3,,,,,,,,7,1.353825,,,,,,,,,,,,,,,,,,,,,,,,,,,,2,strong,56,74,1,0,0,response1disk,9,158,5,-8,1,0,0,rectangle,5,-8,1,0,0,7,6,0.002985,5,-8,1,0,0,0,157,157,72,1,0,,,,,,,,,,,,,,,,,,,,,
,,,,,,,,,,,,,,,,,,,,,,,,,,,,,,,,,,,,,,,,,,5f4756db83588013e9e31bfc,606c0d55d433daa165747872,2021-04-06_09h29.10.864,Colour_Similarity_Experiment,2020.2.10,Win32,60,6067542a4a25243f4d7d4fcf,18.38736607,16.78786585,16.77208633,16.82670551,16.71150143,16.78786585,,,,,,,,,,,,,,,,,,,,PF,weak,3,,,,,,,,6,1.151115,,,,,,,,,,,,,,,,,,,,,,,,,,,,8,weak,70,45,1,0,0,response1disk,6,159,-17,-3,1,0,0,rectangle,55,-26,1,0,0,5,5,2.152585,3,-6,1,0,0,0,158,158,161,1,1,response3disk_3,rectangle,,,,,,,,,,,,,,,,,,,
,,,,,,,,,,,,,,,,,,,,,,,,,,,,,,,,,,,,,,,,,,5f4756db83588013e9e31bfc,606c0d55d433daa165747872,2021-04-06_09h29.10.864,Colour_Similarity_Experiment,2020.2.10,Win32,60,6067542a4a25243f4d7d4fcf,18.38736607,16.78786585,16.77208633,16.82670551,16.71150143,16.78786585,,,,,,,,,,,,,,,,,,,,PF,strong,3,,,,,,,,2,1.865125,,,,,,,,,,,,,,,,,,,,,,,,,,,,3,strong,-99,-62,1,0,0,response5disk,3,160,0,-5,1,0,0,rectangle,0,-5,1,0,0,5,4,0.004645,0,-5,1,0,0,0,159,159,68,1,0,,,,,,,,,,,,,,,,,,,,,
,,,,,,,,,,,,,,,,,,,,,,,,,,,,,,,,,,,,,,,,,,5f4756db83588013e9e31bfc,606c0d55d433daa165747872,2021-04-06_09h29.10.864,Colour_Similarity_Experiment,2020.2.10,Win32,60,6067542a4a25243f4d7d4fcf,18.38736607,16.78786585,16.77208633,16.82670551,16.71150143,16.78786585,,,,,,,,,,,,,,,,,,,,PF,strong,3,,,,,,,,1,2.1142,,,,,,,,,,,,,,,,,,,,,,,,,,,,7,strong,-75,33,1,0,0,response7disk,5,161,13,13,1,0,0,rectangle,13,13,1,0,0,5,2,0.003165,13,13,1,0,0,0,160,160,156,1,0,,,,,,,,,,,,,,,,,,,,,
,,,,,,,,,,,,,,,,,,,,,,,,,,,,,,,,,,,,,,,,,,5f4756db83588013e9e31bfc,606c0d55d433daa165747872,2021-04-06_09h29.10.864,Colour_Similarity_Experiment,2020.2.10,Win32,60,6067542a4a25243f4d7d4fcf,18.38736607,16.78786585,16.77208633,16.82670551,16.71150143,16.78786585,,,,,,,,,,,,,,,,,,,,PF,strong,3,,,,,,,,7,1.218725,,,,,,,,,,,,,,,,,,,,,,,,,,,,3,strong,43,82,1,0,0,response1disk,9,162,2,4,1,0,0,rectangle,2,4,1,0,0,5,1,0.00406,2,4,1,0,0,0,161,161,143,1,0,,,,,,,,,,,,,,,,,,,,,
,,,,,,,,,,,,,,,,,,,,,,,,,,,,,,,,,,,,,,,,,,5f4756db83588013e9e31bfc,606c0d55d433daa165747872,2021-04-06_09h29.10.864,Colour_Similarity_Experiment,2020.2.10,Win32,60,6067542a4a25243f4d7d4fcf,18.38736607,16.78786585,16.77208633,16.82670551,16.71150143,16.78786585,,,,,,,,,,,,,,,,,,,,,,,,,,,,,,,,,,,,,,,,,,,,,,,,,,,,,,,,,,,,,,,,,,,,,,,,,,,,,,,,,,,,,,,,,,,,,,,,0,0,0,0,1,,,,,,,,,,,,,,
,,,,,,,,,,,,,,,,,,,,,,,,,,,,,,,,,,,,,,,,,,5f4756db83588013e9e31bfc,606c0d55d433daa165747872,2021-04-06_09h29.10.864,Colour_Similarity_Experiment,2020.2.10,Win32,60,6067542a4a25243f4d7d4fcf,18.38736607,16.78786585,16.77208633,16.82670551,16.71150143,16.78786585,,,,,,,,,,,,,,,,,,,,PF,strong,3,,,,,,,,0,1.095345,,,,,,,,,,,,,,,,,,,,,,,,,,,,9,strong,-40,75,1,0,0,response7disk,9,163,-18,9,1,0,0,rectangle,-18,9,1,0,0,5,0,0.00454,-18,9,1,0,0,0,0,0,17,1,0,,,,,,,,,,,,,,,,,,,,,
,,,,,,,,,,,,,,,,,,,,,,,,,,,,,,,,,,,,,,,,,,5f4756db83588013e9e31bfc,606c0d55d433daa165747872,2021-04-06_09h29.10.864,Colour_Similarity_Experiment,2020.2.10,Win32,60,6067542a4a25243f4d7d4fcf,18.38736607,16.78786585,16.77208633,16.82670551,16.71150143,16.78786585,,,,,,,,,,,,,,,,,,,,PF,weak,3,,,,,,,,7,0.996805,,,,,,,,,,,,,,,,,,,,,,,,,,,,1,weak,35,76,1,0,0,response1disk,7,164,11,7,1,0,0,rectangle,11,7,1,0,0,5,4,0.003805,11,7,1,0,0,0,1,1,150,1,0,,,,,,,,,,,,,,,,,,,,,
,,,,,,,,,,,,,,,,,,,,,,,,,,,,,,,,,,,,,,,,,,5f4756db83588013e9e31bfc,606c0d55d433daa165747872,2021-04-06_09h29.10.864,Colour_Similarity_Experiment,2020.2.10,Win32,60,6067542a4a25243f4d7d4fcf,18.38736607,16.78786585,16.77208633,16.82670551,16.71150143,16.78786585,,,,,,,,,,,,,,,,,,,,PF,weak,3,,,,,,,,0,1.80006,,,,,,,,,,,,,,,,,,,,,,,,,,,,3,weak,-62,72,1,0,0,response7disk,3,165,2,12,1,0,0,rectangle,2,12,1,0,0,5,0,0.003635,2,12,1,0,0,0,2,2,4,1,0,,,,,,,,,,,,,,,,,,,,,
,,,,,,,,,,,,,,,,,,,,,,,,,,,,,,,,,,,,,,,,,,5f4756db83588013e9e31bfc,606c0d55d433daa165747872,2021-04-06_09h29.10.864,Colour_Similarity_Experiment,2020.2.10,Win32,60,6067542a4a25243f4d7d4fcf,18.38736607,16.78786585,16.77208633,16.82670551,16.71150143,16.78786585,,,,,,,,,,,,,,,,,,,,PF,weak,3,,,,,,,,5,1.530935,,,,,,,,,,,,,,,,,,,,,,,,,,,,2,weak,92,-63,1,0,0,response3disk,9,166,-1,-7,1,0,0,rectangle,-1,-7,1,0,0,5,2,0.00801,-1,-7,1,0,0,0,3,3,39,1,0,,,,,,,,,,,,,,,,,,,,,
,,,,,,,,,,,,,,,,,,,,,,,,,,,,,,,,,,,,,,,,,,5f4756db83588013e9e31bfc,606c0d55d433daa165747872,2021-04-06_09h29.10.864,Colour_Similarity_Experiment,2020.2.10,Win32,60,6067542a4a25243f4d7d4fcf,18.38736607,16.78786585,16.77208633,16.82670551,16.71150143,16.78786585,,,,,,,,,,,,,,,,,,,,PF,weak,3,,,,,,,,7,0.92101,,,,,,,,,,,,,,,,,,,,,,,,,,,,7,weak,48,105,1,0,0,response1disk,2,167,-6,7,1,0,0,rectangle,-6,7,1,0,0,5,0,0.003325,-6,7,1,0,0,0,4,4,32,1,0,,,,,,,,,,,,,,,,,,,,,
,,,,,,,,,,,,,,,,,,,,,,,,,,,,,,,,,,,,,,,,,,5f4756db83588013e9e31bfc,606c0d55d433daa165747872,2021-04-06_09h29.10.864,Colour_Similarity_Experiment,2020.2.10,Win32,60,6067542a4a25243f4d7d4fcf,18.38736607,16.78786585,16.77208633,16.82670551,16.71150143,16.78786585,,,,,,,,,,,,,,,,,,,,PF,strong,3,,,,,,,,7,1.14981,,,,,,,,,,,,,,,,,,,,,,,,,,,,9,strong,31,68,1,0,0,response1disk,4,168,3,-4,1,0,0,rectangle,3,-4,1,0,0,5,5,0.002845,3,-4,1,0,0,0,5,5,60,1,0,,,,,,,,,,,,,,,,,,,,,
,,,,,,,,,,,,,,,,,,,,,,,,,,,,,,,,,,,,,,,,,,5f4756db83588013e9e31bfc,606c0d55d433daa165747872,2021-04-06_09h29.10.864,Colour_Similarity_Experiment,2020.2.10,Win32,60,6067542a4a25243f4d7d4fcf,18.38736607,16.78786585,16.77208633,16.82670551,16.71150143,16.78786585,,,,,,,,,,,,,,,,,,,,PF,strong,3,,,,,,,,5,2.607535,,,,,,,,,,,,,,,,,,,,,,,,,,,,1,strong,55,-41,1,0,0,response3disk,9,169,1,-8,1,0,0,rectangle,1,-8,1,0,0,5,0,0.00253,1,-8,1,0,0,0,6,6,123,1,0,,,,,,,,,,,,,,,,,,,,,
,,,,,,,,,,,,,,,,,,,,,,,,,,,,,,,,,,,,,,,,,,5f4756db83588013e9e31bfc,606c0d55d433daa165747872,2021-04-06_09h29.10.864,Colour_Similarity_Experiment,2020.2.10,Win32,60,6067542a4a25243f4d7d4fcf,18.38736607,16.78786585,16.77208633,16.82670551,16.71150143,16.78786585,,,,,,,,,,,,,,,,,,,,PF,strong,3,,,,,,,,5,1.72299,,,,,,,,,,,,,,,,,,,,,,,,,,,,5,strong,82,-29,1,0,0,response3disk,8,170,-2,-6,1,0,0,rectangle,-2,-6,1,0,0,5,0,0.00038,-2,-6,1,0,0,0,7,7,16,1,0,,,,,,,,,,,,,,,,,,,,,
,,,,,,,,,,,,,,,,,,,,,,,,,,,,,,,,,,,,,,,,,,5f4756db83588013e9e31bfc,606c0d55d433daa165747872,2021-04-06_09h29.10.864,Colour_Similarity_Experiment,2020.2.10,Win32,60,6067542a4a25243f4d7d4fcf,18.38736607,16.78786585,16.77208633,16.82670551,16.71150143,16.78786585,,,,,,,,,,,,,,,,,,,,PF,weak,3,,,,,,,,5,1.52952,,,,,,,,,,,,,,,,,,,,,,,,,,,,8,weak,84,-56,1,0,0,response3disk,4,171,-6,6,1,0,0,rectangle,-6,6,1,0,0,5,7,0.003515,-6,6,1,0,0,0,8,8,78,1,0,,,,,,,,,,,,,,,,,,,,,
,,,,,,,,,,,,,,,,,,,,,,,,,,,,,,,,,,,,,,,,,,5f4756db83588013e9e31bfc,606c0d55d433daa165747872,2021-04-06_09h29.10.864,Colour_Similarity_Experiment,2020.2.10,Win32,60,6067542a4a25243f4d7d4fcf,18.38736607,16.78786585,16.77208633,16.82670551,16.71150143,16.78786585,,,,,,,,,,,,,,,,,,,,PF,strong,3,,,,,,,,0,1.94596,,,,,,,,,,,,,,,,,,,,,,,,,,,,5,strong,-42,94,1,0,0,response7disk,5,172,-3,-5,1,0,0,rectangle,-3,-5,1,0,0,5,2,0.0033,-3,-5,1,0,0,0,9,9,19,1,0,,,,,,,,,,,,,,,,,,,,,
,,,,,,,,,,,,,,,,,,,,,,,,,,,,,,,,,,,,,,,,,,5f4756db83588013e9e31bfc,606c0d55d433daa165747872,2021-04-06_09h29.10.864,Colour_Similarity_Experiment,2020.2.10,Win32,60,6067542a4a25243f4d7d4fcf,18.38736607,16.78786585,16.77208633,16.82670551,16.71150143,16.78786585,,,,,,,,,,,,,,,,,,,,PF,strong,3,,,,,,,,6,1.016225,,,,,,,,,,,,,,,,,,,,,,,,,,,,8,strong,71,40,1,0,0,response1disk,4,173,8,7,1,0,0,rectangle,8,7,1,0,0,5,1,0.0024,8,7,1,0,0,0,10,10,88,1,0,,,,,,,,,,,,,,,,,,,,,
,,,,,,,,,,,,,,,,,,,,,,,,,,,,,,,,,,,,,,,,,,5f4756db83588013e9e31bfc,606c0d55d433daa165747872,2021-04-06_09h29.10.864,Colour_Similarity_Experiment,2020.2.10,Win32,60,6067542a4a25243f4d7d4fcf,18.38736607,16.78786585,16.77208633,16.82670551,16.71150143,16.78786585,,,,,,,,,,,,,,,,,,,,PF,weak,3,,,,,,,,7,1.61861,,,,,,,,,,,,,,,,,,,,,,,,,,,,4,weak,27,57,1,0,0,response1disk,1,174,-1,-8,1,0,0,rectangle,-1,-8,1,0,0,5,4,0.005395,-1,-8,1,0,0,0,11,11,115,1,0,,,,,,,,,,,,,,,,,,,,,
,,,,,,,,,,,,,,,,,,,,,,,,,,,,,,,,,,,,,,,,,,5f4756db83588013e9e31bfc,606c0d55d433daa165747872,2021-04-06_09h29.10.864,Colour_Similarity_Experiment,2020.2.10,Win32,60,6067542a4a25243f4d7d4fcf,18.38736607,16.78786585,16.77208633,16.82670551,16.71150143,16.78786585,,,,,,,,,,,,,,,,,,,,PF,weak,3,,,,,,,,7,1.009465,,,,,,,,,,,,,,,,,,,,,,,,,,,,4,weak,39,55,1,0,0,response1disk,2,175,7,2,1,0,0,rectangle,7,2,1,0,0,5,4,0.00068,7,2,1,0,0,0,12,12,108,1,0,,,,,,,,,,,,,,,,,,,,,
,,,,,,,,,,,,,,,,,,,,,,,,,,,,,,,,,,,,,,,,,,5f4756db83588013e9e31bfc,606c0d55d433daa165747872,2021-04-06_09h29.10.864,Colour_Similarity_Experiment,2020.2.10,Win32,60,6067542a4a25243f4d7d4fcf,18.38736607,16.78786585,16.77208633,16.82670551,16.71150143,16.78786585,,,,,,,,,,,,,,,,,,,,PF,strong,3,,,,,,,,1,1.517375,,,,,,,,,,,,,,,,,,,,,,,,,,,,5,strong,-70,47,1,0,0,response7disk,4,176,-1,15,1,0,0,rectangle,-1,15,1,0,0,5,2,0.006335,-1,15,1,0,0,0,13,13,8,1,0,,,,,,,,,,,,,,,,,,,,,
,,,,,,,,,,,,,,,,,,,,,,,,,,,,,,,,,,,,,,,,,,5f4756db83588013e9e31bfc,606c0d55d433daa165747872,2021-04-06_09h29.10.864,Colour_Similarity_Experiment,2020.2.10,Win32,60,6067542a4a25243f4d7d4fcf,18.38736607,16.78786585,16.77208633,16.82670551,16.71150143,16.78786585,,,,,,,,,,,,,,,,,,,,PF,strong,3,,,,,,,,1,1.68558,,,,,,,,,,,,,,,,,,,,,,,,,,,,3,strong,-64,27,1,0,0,response7disk,1,177,9,-5,1,0,0,rectangle,9,-5,1,0,0,5,0,0.00775,9,-5,1,0,0,0,14,14,125,1,0,,,,,,,,,,,,,,,,,,,,,
,,,,,,,,,,,,,,,,,,,,,,,,,,,,,,,,,,,,,,,,,,5f4756db83588013e9e31bfc,606c0d55d433daa165747872,2021-04-06_09h29.10.864,Colour_Similarity_Experiment,2020.2.10,Win32,60,6067542a4a25243f4d7d4fcf,18.38736607,16.78786585,16.77208633,16.82670551,16.71150143,16.78786585,,,,,,,,,,,,,,,,,,,,PF,weak,3,,,,,,,,6,2.255545,,,,,,,,,,,,,,,,,,,,,,,,,,,,7,weak,100,46,1,0,0,response1disk,8,178,-1,8,1,0,0,rectangle,-1,8,1,0,0,5,3,0.003925,-1,8,1,0,0,0,15,15,140,1,0,,,,,,,,,,,,,,,,,,,,,
,,,,,,,,,,,,,,,,,,,,,,,,,,,,,,,,,,,,,,,,,,5f4756db83588013e9e31bfc,606c0d55d433daa165747872,2021-04-06_09h29.10.864,Colour_Similarity_Experiment,2020.2.10,Win32,60,6067542a4a25243f4d7d4fcf,18.38736607,16.78786585,16.77208633,16.82670551,16.71150143,16.78786585,,,,,,,,,,,,,,,,,,,,PF,strong,3,,,,,,,,0,1.74624,,,,,,,,,,,,,,,,,,,,,,,,,,,,9,strong,-36,62,1,0,0,response7disk,8,179,5,-15,1,0,0,rectangle,5,-15,1,0,0,5,3,0.000415,5,-15,1,0,0,0,16,16,6,1,0,,,,,,,,,,,,,,,,,,,,,
,,,,,,,,,,,,,,,,,,,,,,,,,,,,,,,,,,,,,,,,,,5f4756db83588013e9e31bfc,606c0d55d433daa165747872,2021-04-06_09h29.10.864,Colour_Similarity_Experiment,2020.2.10,Win32,60,6067542a4a25243f4d7d4fcf,18.38736607,16.78786585,16.77208633,16.82670551,16.71150143,16.78786585,,,,,,,,,,,,,,,,,,,,PF,strong,3,,,,,,,,1,3.484595,,,,,,,,,,,,,,,,,,,,,,,,,,,,2,strong,-72,30,1,0,0,response7disk,3,180,-15,3,1,0,0,rectangle,34,64,1,0,0,7,7,2.550075,-3,12,1,0,0,0,17,17,104,1,1,response1disk_3,rectangle,,,,,,,,,,,,,,,,,,,
,,,,,,,,,,,,,,,,,,,,,,,,,,,,,,,,,,,,,,,,,,5f4756db83588013e9e31bfc,606c0d55d433daa165747872,2021-04-06_09h29.10.864,Colour_Similarity_Experiment,2020.2.10,Win32,60,6067542a4a25243f4d7d4fcf,18.38736607,16.78786585,16.77208633,16.82670551,16.71150143,16.78786585,,,,,,,,,,,,,,,,,,,,PF,strong,3,,,,,,,,4,3.01786,,,,,,,,,,,,,,,,,,,,,,,,,,,,1,strong,27,-74,1,0,0,response3disk,4,181,6,-4,1,0,0,rectangle,6,-4,1,0,0,7,7,0.00058,6,-4,1,0,0,0,18,18,135,1,0,,,,,,,,,,,,,,,,,,,,,
,,,,,,,,,,,,,,,,,,,,,,,,,,,,,,,,,,,,,,,,,,5f4756db83588013e9e31bfc,606c0d55d433daa165747872,2021-04-06_09h29.10.864,Colour_Similarity_Experiment,2020.2.10,Win32,60,6067542a4a25243f4d7d4fcf,18.38736607,16.78786585,16.77208633,16.82670551,16.71150143,16.78786585,,,,,,,,,,,,,,,,,,,,PF,strong,3,,,,,,,,6,2.200405,,,,,,,,,,,,,,,,,,,,,,,,,,,,4,strong,95,34,1,0,0,response1disk,8,182,19,0,1,0,0,rectangle,19,0,1,0,0,7,1,0.004085,19,0,1,0,0,0,19,19,35,1,0,,,,,,,,,,,,,,,,,,,,,
,,,,,,,,,,,,,,,,,,,,,,,,,,,,,,,,,,,,,,,,,,5f4756db83588013e9e31bfc,606c0d55d433daa165747872,2021-04-06_09h29.10.864,Colour_Similarity_Experiment,2020.2.10,Win32,60,6067542a4a25243f4d7d4fcf,18.38736607,16.78786585,16.77208633,16.82670551,16.71150143,16.78786585,,,,,,,,,,,,,,,,,,,,PF,strong,3,,,,,,,,1,1.853895,,,,,,,,,,,,,,,,,,,,,,,,,,,,3,strong,-57,21,1,0,0,response7disk,2,183,-5,9,1,0,0,rectangle,-5,9,1,0,0,7,3,0.00331,-5,9,1,0,0,0,20,20,93,1,0,,,,,,,,,,,,,,,,,,,,,
,,,,,,,,,,,,,,,,,,,,,,,,,,,,,,,,,,,,,,,,,,5f4756db83588013e9e31bfc,606c0d55d433daa165747872,2021-04-06_09h29.10.864,Colour_Similarity_Experiment,2020.2.10,Win32,60,6067542a4a25243f4d7d4fcf,18.38736607,16.78786585,16.77208633,16.82670551,16.71150143,16.78786585,,,,,,,,,,,,,,,,,,,,PF,weak,3,,,,,,,,6,1.683705,,,,,,,,,,,,,,,,,,,,,,,,,,,,7,weak,85,32,1,0,0,response1disk,4,184,9,-7,1,0,0,rectangle,9,-7,1,0,0,7,0,0.00316,9,-7,1,0,0,0,21,21,43,1,0,,,,,,,,,,,,,,,,,,,,,
,,,,,,,,,,,,,,,,,,,,,,,,,,,,,,,,,,,,,,,,,,5f4756db83588013e9e31bfc,606c0d55d433daa165747872,2021-04-06_09h29.10.864,Colour_Similarity_Experiment,2020.2.10,Win32,60,6067542a4a25243f4d7d4fcf,18.38736607,16.78786585,16.77208633,16.82670551,16.71150143,16.78786585,,,,,,,,,,,,,,,,,,,,PF,strong,3,,,,,,,,0,1.902765,,,,,,,,,,,,,,,,,,,,,,,,,,,,7,strong,-36,65,1,0,0,response7disk,7,185,-16,-3,1,0,0,rectangle,-16,-3,1,0,0,7,4,0.006345,-16,-3,1,0,0,0,22,22,34,1,0,,,,,,,,,,,,,,,,,,,,,
,,,,,,,,,,,,,,,,,,,,,,,,,,,,,,,,,,,,,,,,,,5f4756db83588013e9e31bfc,606c0d55d433daa165747872,2021-04-06_09h29.10.864,Colour_Similarity_Experiment,2020.2.10,Win32,60,6067542a4a25243f4d7d4fcf,18.38736607,16.78786585,16.77208633,16.82670551,16.71150143,16.78786585,,,,,,,,,,,,,,,,,,,,PF,strong,3,,,,,,,,4,2.88679,,,,,,,,,,,,,,,,,,,,,,,,,,,,8,strong,55,-73,1,0,0,response3disk,7,186,3,10,1,0,0,rectangle,3,10,1,0,0,7,3,0.00374,3,10,1,0,0,0,23,23,86,1,0,,,,,,,,,,,,,,,,,,,,,
,,,,,,,,,,,,,,,,,,,,,,,,,,,,,,,,,,,,,,,,,,5f4756db83588013e9e31bfc,606c0d55d433daa165747872,2021-04-06_09h29.10.864,Colour_Similarity_Experiment,2020.2.10,Win32,60,6067542a4a25243f4d7d4fcf,18.38736607,16.78786585,16.77208633,16.82670551,16.71150143,16.78786585,,,,,,,,,,,,,,,,,,,,PF,strong,3,,,,,,,,7,1.426275,,,,,,,,,,,,,,,,,,,,,,,,,,,,3,strong,47,78,1,0,0,response1disk,7,187,12,6,1,0,0,rectangle,12,6,1,0,0,7,2,0.00248,12,6,1,0,0,0,24,24,118,1,0,,,,,,,,,,,,,,,,,,,,,
,,,,,,,,,,,,,,,,,,,,,,,,,,,,,,,,,,,,,,,,,,5f4756db83588013e9e31bfc,606c0d55d433daa165747872,2021-04-06_09h29.10.864,Colour_Similarity_Experiment,2020.2.10,Win32,60,6067542a4a25243f4d7d4fcf,18.38736607,16.78786585,16.77208633,16.82670551,16.71150143,16.78786585,,,,,,,,,,,,,,,,,,,,PF,strong,3,,,,,,,,1,1.64112,,,,,,,,,,,,,,,,,,,,,,,,,,,,6,strong,-52,26,1,0,0,response7disk,4,188,-10,7,1,0,0,rectangle,-10,7,1,0,0,7,4,0.002625,-10,7,1,0,0,0,25,25,56,1,0,,,,,,,,,,,,,,,,,,,,,
,,,,,,,,,,,,,,,,,,,,,,,,,,,,,,,,,,,,,,,,,,5f4756db83588013e9e31bfc,606c0d55d433daa165747872,2021-04-06_09h29.10.864,Colour_Similarity_Experiment,2020.2.10,Win32,60,6067542a4a25243f4d7d4fcf,18.38736607,16.78786585,16.77208633,16.82670551,16.71150143,16.78786585,,,,,,,,,,,,,,,,,,,,PF,weak,3,,,,,,,,6,1.32236,,,,,,,,,,,,,,,,,,,,,,,,,,,,6,weak,78,35,1,0,0,response1disk,2,189,14,-10,1,0,0,rectangle,14,-10,1,0,0,7,4,0.00116,14,-10,1,0,0,0,26,26,130,1,0,,,,,,,,,,,,,,,,,,,,,
,,,,,,,,,,,,,,,,,,,,,,,,,,,,,,,,,,,,,,,,,,5f4756db83588013e9e31bfc,606c0d55d433daa165747872,2021-04-06_09h29.10.864,Colour_Similarity_Experiment,2020.2.10,Win32,60,6067542a4a25243f4d7d4fcf,18.38736607,16.78786585,16.77208633,16.82670551,16.71150143,16.78786585,,,,,,,,,,,,,,,,,,,,PF,strong,3,,,,,,,,6,1.07853,,,,,,,,,,,,,,,,,,,,,,,,,,,,3,strong,77,28,1,0,0,response1disk,6,190,8,-4,1,0,0,rectangle,8,-4,1,0,0,7,3,0.004915,8,-4,1,0,0,0,27,27,95,1,0,,,,,,,,,,,,,,,,,,,,,
,,,,,,,,,,,,,,,,,,,,,,,,,,,,,,,,,,,,,,,,,,5f4756db83588013e9e31bfc,606c0d55d433daa165747872,2021-04-06_09h29.10.864,Colour_Similarity_Experiment,2020.2.10,Win32,60,6067542a4a25243f4d7d4fcf,18.38736607,16.78786585,16.77208633,16.82670551,16.71150143,16.78786585,,,,,,,,,,,,,,,,,,,,PF,weak,3,,,,,,,,0,1.29607,,,,,,,,,,,,,,,,,,,,,,,,,,,,1,weak,-47,93,1,0,0,response7disk,1,191,-2,8,1,0,0,rectangle,94,40,1,0,0,6,6,4.15077,-1,12,1,0,0,0,28,28,76,1,1,response1disk_3,rectangle,,,,,,,,,,,,,,,,,,,
,,,,,,,,,,,,,,,,,,,,,,,,,,,,,,,,,,,,,,,,,,5f4756db83588013e9e31bfc,606c0d55d433daa165747872,2021-04-06_09h29.10.864,Colour_Similarity_Experiment,2020.2.10,Win32,60,6067542a4a25243f4d7d4fcf,18.38736607,16.78786585,16.77208633,16.82670551,16.71150143,16.78786585,,,,,,,,,,,,,,,,,,,,PF,weak,3,,,,,,,,3,3.270195,,,,,,,,,,,,,,,,,,,,,,,,,,,,4,weak,-36,-83,1,0,0,response5disk,9,192,19,14,1,0,0,rectangle,19,14,1,0,0,6,6,0.000625,19,14,1,0,0,0,29,29,75,1,0,,,,,,,,,,,,,,,,,,,,,
,,,,,,,,,,,,,,,,,,,,,,,,,,,,,,,,,,,,,,,,,,5f4756db83588013e9e31bfc,606c0d55d433daa165747872,2021-04-06_09h29.10.864,Colour_Similarity_Experiment,2020.2.10,Win32,60,6067542a4a25243f4d7d4fcf,18.38736607,16.78786585,16.77208633,16.82670551,16.71150143,16.78786585,,,,,,,,,,,,,,,,,,,,PF,strong,3,,,,,,,,5,2.143635,,,,,,,,,,,,,,,,,,,,,,,,,,,,7,strong,62,-47,1,0,0,response3disk,8,193,-10,5,1,0,0,rectangle,-74,-28,1,0,0,6,2,2.30377,-16,-3,1,0,0,0,30,30,97,1,1,response5disk_3,rectangle,,,,,,,,,,,,,,,,,,,
,,,,,,,,,,,,,,,,,,,,,,,,,,,,,,,,,,,,,,,,,,5f4756db83588013e9e31bfc,606c0d55d433daa165747872,2021-04-06_09h29.10.864,Colour_Similarity_Experiment,2020.2.10,Win32,60,6067542a4a25243f4d7d4fcf,18.38736607,16.78786585,16.77208633,16.82670551,16.71150143,16.78786585,,,,,,,,,,,,,,,,,,,,PF,strong,3,,,,,,,,5,1.584625,,,,,,,,,,,,,,,,,,,,,,,,,,,,8,strong,85,-31,1,0,0,response3disk,6,194,-13,12,1,0,0,rectangle,-13,12,1,0,0,6,0,0.004255,-13,12,1,0,0,0,31,31,37,1,0,,,,,,,,,,,,,,,,,,,,,
