key_resp.keys,key_resp.rt,key_resp_16.keys,key_resp_16.rt,key_resp_2.keys,key_resp_2.rt,X Scale,ratio_pxpermm,screen_size_x,screen_size_y,testsize,key_resp_3.keys,key_resp_4.keys,key_resp_4.rt,line_size,key_resp_5.keys,key_resp_5.rt,key_resp_6.keys,key_resp_6.rt,key_resp_8.keys,key_resp_8.rt,key_resp_7.keys,key_resp_7.rt,key_resp_12.keys,key_resp_12.rt,key_resp_11.keys,key_resp_11.rt,key_resp_18.keys,key_resp_18.rt,key_resp_21.keys,key_resp_21.rt,key_resp_13.keys,key_resp_13.rt,key_resp_19.keys,key_resp_19.rt,ballposx,viewer_distance,trials.thisRepN,trials.thisTrialN,trials.thisN,trials.thisIndex,trials.ran,participant,session,date,expName,psychopyVersion,OS,frameRate,study_id,realFrameRate1,realFrameRate2,realFrameRate3,realFrameRate4,realFrameRate5,realFrameRate,viewerdistancecm,DVA_to_distance,radius_F,radius_P,r_F,R_P,key_resp_20.keys,key_resp_20.rt,key_resp_14.keys,key_resp_14.rt,key_resp_15.keys,key_resp_15.rt,key_resp_17.keys,key_resp_17.rt,key_resp_9.keys,key_resp_9.rt,key_resp_10.keys,key_resp_10.rt,Colour_1,Ecc,maskCon,mask_frames,mouse_5.x,mouse_5.y,mouse_5.leftButton,mouse_5.midButton,mouse_5.rightButton,mouse_5.clicked_name,Colour_2,similarity,response_time,mouse_10.x,mouse_10.y,mouse_10.leftButton,mouse_10.midButton,mouse_10.rightButton,mouse_10.clicked_name,mouse_7.x,mouse_7.y,mouse_7.leftButton,mouse_7.midButton,mouse_7.rightButton,catchnumberprac,mouse_6.x,mouse_6.y,mouse_6.leftButton,mouse_6.midButton,mouse_6.rightButton,duringprac.thisRepN,duringprac.thisTrialN,duringprac.thisN,duringprac.thisIndex,duringprac.ran,mouse_7.clicked_name,catchprac,mouse_6.clicked_name,key_resp_22.keys,key_resp_22.rt,Colour1,maskCon1,mouse.x,mouse.y,mouse.leftButton,mouse.midButton,mouse.rightButton,mouse.clicked_name,Colour2,trialnumber,mouse_2.x,mouse_2.y,mouse_2.leftButton,mouse_2.midButton,mouse_2.rightButton,mouse_2.clicked_name,mouse_3.x,mouse_3.y,mouse_3.leftButton,mouse_3.midButton,mouse_3.rightButton,catchresponse,catchnumber,response_time_catch,mouse_11.x,mouse_11.y,mouse_11.leftButton,mouse_11.midButton,mouse_11.rightButton,trials_2.thisRepN,trials_2.thisTrialN,trials_2.thisN,trials_2.thisIndex,trials_2.ran,Catch,mouse_3.clicked_name,mouse_11.clicked_name,trials_3.thisRepN,trials_3.thisTrialN,trials_3.thisN,trials_3.thisIndex,trials_3.ran,answer1,rt1,answer2,rt2,answer3,rt3,answer4,rt4,answer5,rt5,answer6,rt6,answer7,rt7
space,4.792915,space,32.80485,space,13.2816,56.6,5.66,339.2226148,190.8127208,1920,,space,27.528685,113.2,space,21.45738,space,4.121945,space,1.061565,space,10.169635,space,10.37273,space,9.925925,space,19.131285,space,45.930595,space,19.877855,return,5.17272,-181.44,698.7108978,0,0,0,0,1,5f4d19c88ac21f85ef786134,606c0f24955f79fbad03cf49,2021-04-06_09h36.28.548,Colour_Similarity_Experiment,2020.2.10,Win32,60,6067542a4a25243f4d7d4fcf,17.62242268,16.62818228,16.6187405,16.62028649,16.62059448,16.62059448,,,,,,,,,,,,,,,,,,,,,,,,,,,,,,,,,,,,,,,,,,,,,,,,,,,,,,,,,,,,,,,,,,,,,,,,,,,,,,,,,,,,,,,,,,,,,,,,,,,,,,,,,,,,,,,,,,
,,,,,,,,,,,,,,,,,,,,,,,,,,,,,,,,,return,4.87075,-126.72,658.4414123,1,0,1,0,1,5f4d19c88ac21f85ef786134,606c0f24955f79fbad03cf49,2021-04-06_09h36.28.548,Colour_Similarity_Experiment,2020.2.10,Win32,60,6067542a4a25243f4d7d4fcf,17.62242268,16.62818228,16.6187405,16.62028649,16.62059448,16.62059448,,,,,,,,,,,,,,,,,,,,,,,,,,,,,,,,,,,,,,,,,,,,,,,,,,,,,,,,,,,,,,,,,,,,,,,,,,,,,,,,,,,,,,,,,,,,,,,,,,,,,,,,,,,,,,,,,,
,,,,,,,,,,,,,,,,,,,,,,,,,,,,,,,,,return,4.773205,-109.44,645.7247326,2,0,2,0,1,5f4d19c88ac21f85ef786134,606c0f24955f79fbad03cf49,2021-04-06_09h36.28.548,Colour_Similarity_Experiment,2020.2.10,Win32,60,6067542a4a25243f4d7d4fcf,17.62242268,16.62818228,16.6187405,16.62028649,16.62059448,16.62059448,,,,,,,,,,,,,,,,,,,,,,,,,,,,,,,,,,,,,,,,,,,,,,,,,,,,,,,,,,,,,,,,,,,,,,,,,,,,,,,,,,,,,,,,,,,,,,,,,,,,,,,,,,,,,,,,,,
,,,,,,,,,,,,,,,,,,,,,,,,,,,,,,,,,return,4.97487,-144,671.1580919,3,0,3,0,1,5f4d19c88ac21f85ef786134,606c0f24955f79fbad03cf49,2021-04-06_09h36.28.548,Colour_Similarity_Experiment,2020.2.10,Win32,60,6067542a4a25243f4d7d4fcf,17.62242268,16.62818228,16.6187405,16.62028649,16.62059448,16.62059448,,,,,,,,,,,,,,,,,,,,,,,,,,,,,,,,,,,,,,,,,,,,,,,,,,,,,,,,,,,,,,,,,,,,,,,,,,,,,,,,,,,,,,,,,,,,,,,,,,,,,,,,,,,,,,,,,,
,,,,,,,,,,,,,,,,,,,,,,,,,,,,,,,,,return,4.867755,-126.72,658.4414123,4,0,4,0,1,5f4d19c88ac21f85ef786134,606c0f24955f79fbad03cf49,2021-04-06_09h36.28.548,Colour_Similarity_Experiment,2020.2.10,Win32,60,6067542a4a25243f4d7d4fcf,17.62242268,16.62818228,16.6187405,16.62028649,16.62059448,16.62059448,,,,,,,,,,,,,,,,,,,,,,,,,,,,,,,,,,,,,,,,,,,,,,,,,,,,,,,,,,,,,,,,,,,,,,,,,,,,,,,,,,,,,,,,,,,,,,,,,,,,,,,,,,,,,,,,,,
,,,,,,,,,,,,,,,,,,,,,,,,,,,,,,,,,,,,,,,,,,5f4d19c88ac21f85ef786134,606c0f24955f79fbad03cf49,2021-04-06_09h36.28.548,Colour_Similarity_Experiment,2020.2.10,Win32,60,6067542a4a25243f4d7d4fcf,17.62242268,16.62818228,16.6187405,16.62028649,16.62059448,16.62059448,66,11.52033873,97.80767584,652.0511723,65.20511723,293.4230275,space,5.656385,space,18.937155,space,53.314805,space,15.506145,space,3.204675,space,7.584085,3,PF,strong,3,81,-122,1,0,0,response3disk_5,1,4,10.08074,-2,4,1,0,0,rectangle_8,-2,4,1,0,0,7,-2,4,1,0,0,0,0,0,3,1,,,,,,,,,,,,,,,,,,,,,,,,,,,,,,,,,,,,,,,,,,,,,,,,,,,,,,,,,,,,,
,,,,,,,,,,,,,,,,,,,,,,,,,,,,,,,,,,,,,,,,,,5f4d19c88ac21f85ef786134,606c0f24955f79fbad03cf49,2021-04-06_09h36.28.548,Colour_Similarity_Experiment,2020.2.10,Win32,60,6067542a4a25243f4d7d4fcf,17.62242268,16.62818228,16.6187405,16.62028649,16.62059448,16.62059448,,,,,,,,,,,,,,,,,,,8,PF,strong,3,126,-37,1,0,0,response3disk_5,8,5,12.64909,-36,-14,1,0,0,rectangle_8,-36,-14,1,0,0,7,-36,-14,1,0,0,0,1,1,0,1,,,,,,,,,,,,,,,,,,,,,,,,,,,,,,,,,,,,,,,,,,,,,,,,,,,,,,,,,,,,,
,,,,,,,,,,,,,,,,,,,,,,,,,,,,,,,,,,,,,,,,,,5f4d19c88ac21f85ef786134,606c0f24955f79fbad03cf49,2021-04-06_09h36.28.548,Colour_Similarity_Experiment,2020.2.10,Win32,60,6067542a4a25243f4d7d4fcf,17.62242268,16.62818228,16.6187405,16.62028649,16.62059448,16.62059448,,,,,,,,,,,,,,,,,,,4,PF,strong,3,-92,41,1,0,0,response7disk_5,8,1,3.19063,-12,5,1,0,0,rectangle_8,70,131,1,0,0,7,10,-13,1,0,0,0,2,2,2,1,response1disk_7,7,rectangle_4,,,,,,,,,,,,,,,,,,,,,,,,,,,,,,,,,,,,,,,,,,,,,,,,,,,,,,,,,,
,,,,,,,,,,,,,,,,,,,,,,,,,,,,,,,,,,,,,,,,,,5f4d19c88ac21f85ef786134,606c0f24955f79fbad03cf49,2021-04-06_09h36.28.548,Colour_Similarity_Experiment,2020.2.10,Win32,60,6067542a4a25243f4d7d4fcf,17.62242268,16.62818228,16.6187405,16.62028649,16.62059448,16.62059448,,,,,,,,,,,,,,,,,,,3,PF,weak,3,-79,121,1,0,0,response7disk_5,4,0,3.656845,-19,-4,1,0,0,rectangle_8,-19,-4,1,0,0,7,-19,-4,1,0,0,0,3,3,1,1,,,,,,,,,,,,,,,,,,,,,,,,,,,,,,,,,,,,,,,,,,,,,,,,,,,,,,,,,,,,,
,,,,,,,,,,,,,,,,,,,,,,,,,,,,,,,,,,,,,,,,,,5f4d19c88ac21f85ef786134,606c0f24955f79fbad03cf49,2021-04-06_09h36.28.548,Colour_Similarity_Experiment,2020.2.10,Win32,60,6067542a4a25243f4d7d4fcf,17.62242268,16.62818228,16.6187405,16.62028649,16.62059448,16.62059448,,,,,,,,,,,,,,,,,,,5,PF,weak,3,88,-51,1,0,0,response3disk_5,8,5,10.1386,-6,1,1,0,0,rectangle_8,-6,1,1,0,0,7,-6,1,1,0,0,0,4,4,6,1,,,,,,,,,,,,,,,,,,,,,,,,,,,,,,,,,,,,,,,,,,,,,,,,,,,,,,,,,,,,,
,,,,,,,,,,,,,,,,,,,,,,,,,,,,,,,,,,,,,,,,,,5f4d19c88ac21f85ef786134,606c0f24955f79fbad03cf49,2021-04-06_09h36.28.548,Colour_Similarity_Experiment,2020.2.10,Win32,60,6067542a4a25243f4d7d4fcf,17.62242268,16.62818228,16.6187405,16.62028649,16.62059448,16.62059448,,,,,,,,,,,,,,,,,,,2,PF,weak,3,-87,-122,1,0,0,response5disk_5,1,3,5.21909,-21,-5,1,0,0,rectangle_8,-21,-5,1,0,0,7,-21,-5,1,0,0,0,5,5,5,1,,,,,,,,,,,,,,,,,,,,,,,,,,,,,,,,,,,,,,,,,,,,,,,,,,,,,,,,,,,,,
,,,,,,,,,,,,,,,,,,,,,,,,,,,,,,,,,,,,,,,,,,5f4d19c88ac21f85ef786134,606c0f24955f79fbad03cf49,2021-04-06_09h36.28.548,Colour_Similarity_Experiment,2020.2.10,Win32,60,6067542a4a25243f4d7d4fcf,17.62242268,16.62818228,16.6187405,16.62028649,16.62059448,16.62059448,,,,,,,,,,,,,,,,,,,4,PF,weak,3,121,-53,1,0,0,response3disk_5,2,5,7.91135,-2,5,1,0,0,rectangle_8,-2,5,1,0,0,7,-2,5,1,0,0,0,6,6,4,1,,,,,,,,,,,,,,,,,,,,,,,,,,,,,,,,,,,,,,,,,,,,,,,,,,,,,,,,,,,,,
,,,,,,,,,,,,,,,,,,,,,,,,,,,,,,,,,,,,,,,,,,5f4d19c88ac21f85ef786134,606c0f24955f79fbad03cf49,2021-04-06_09h36.28.548,Colour_Similarity_Experiment,2020.2.10,Win32,60,6067542a4a25243f4d7d4fcf,17.62242268,16.62818228,16.6187405,16.62028649,16.62059448,16.62059448,,,,,,,,,,,,,,,,,,,,PF,strong,3,,,,,,,,5,5.815475,,,,,,,,,,,,,,,,,,,,,,,,,,space,5.866055,8,strong,107,-70,1,0,0,response3disk,2,1,29,-11,1,0,0,rectangle,29,-11,1,0,0,,0,0.001155,29,-11,1,0,0,0,0,0,22,1,0,,,,,,,,,,,,,,,,,,,,,
,,,,,,,,,,,,,,,,,,,,,,,,,,,,,,,,,,,,,,,,,,5f4d19c88ac21f85ef786134,606c0f24955f79fbad03cf49,2021-04-06_09h36.28.548,Colour_Similarity_Experiment,2020.2.10,Win32,60,6067542a4a25243f4d7d4fcf,17.62242268,16.62818228,16.6187405,16.62028649,16.62059448,16.62059448,,,,,,,,,,,,,,,,,,,,PF,weak,3,,,,,,,,5,1.891115,,,,,,,,,,,,,,,,,,,,,,,,,,,,6,weak,117,-68,1,0,0,response3disk,1,2,-5,2,1,0,0,rectangle,-5,2,1,0,0,,4,0.000975,-5,2,1,0,0,0,1,1,46,1,0,,,,,,,,,,,,,,,,,,,,,
,,,,,,,,,,,,,,,,,,,,,,,,,,,,,,,,,,,,,,,,,,5f4d19c88ac21f85ef786134,606c0f24955f79fbad03cf49,2021-04-06_09h36.28.548,Colour_Similarity_Experiment,2020.2.10,Win32,60,6067542a4a25243f4d7d4fcf,17.62242268,16.62818228,16.6187405,16.62028649,16.62059448,16.62059448,,,,,,,,,,,,,,,,,,,,PF,strong,3,,,,,,,,0,2.539455,,,,,,,,,,,,,,,,,,,,,,,,,,,,1,strong,-62,105,1,0,0,response7disk,1,3,4,4,1,0,0,rectangle,4,4,1,0,0,,5,0.001905,4,4,1,0,0,0,2,2,151,1,0,,,,,,,,,,,,,,,,,,,,,
,,,,,,,,,,,,,,,,,,,,,,,,,,,,,,,,,,,,,,,,,,5f4d19c88ac21f85ef786134,606c0f24955f79fbad03cf49,2021-04-06_09h36.28.548,Colour_Similarity_Experiment,2020.2.10,Win32,60,6067542a4a25243f4d7d4fcf,17.62242268,16.62818228,16.6187405,16.62028649,16.62059448,16.62059448,,,,,,,,,,,,,,,,,,,,PF,weak,3,,,,,,,,3,2.488105,,,,,,,,,,,,,,,,,,,,,,,,,,,,4,weak,-55,-125,1,0,0,response5disk,5,4,11,4,1,0,0,rectangle,11,4,1,0,0,,6,0.002265,11,4,1,0,0,0,3,3,49,1,0,,,,,,,,,,,,,,,,,,,,,
,,,,,,,,,,,,,,,,,,,,,,,,,,,,,,,,,,,,,,,,,,5f4d19c88ac21f85ef786134,606c0f24955f79fbad03cf49,2021-04-06_09h36.28.548,Colour_Similarity_Experiment,2020.2.10,Win32,60,6067542a4a25243f4d7d4fcf,17.62242268,16.62818228,16.6187405,16.62028649,16.62059448,16.62059448,,,,,,,,,,,,,,,,,,,,PF,strong,3,,,,,,,,7,3.50758,,,,,,,,,,,,,,,,,,,,,,,,,,,,3,strong,79,159,1,0,0,response1disk,8,5,-19,15,1,0,0,rectangle,-19,15,1,0,0,,2,0.00106,-19,15,1,0,0,0,4,4,44,1,0,,,,,,,,,,,,,,,,,,,,,
,,,,,,,,,,,,,,,,,,,,,,,,,,,,,,,,,,,,,,,,,,5f4d19c88ac21f85ef786134,606c0f24955f79fbad03cf49,2021-04-06_09h36.28.548,Colour_Similarity_Experiment,2020.2.10,Win32,60,6067542a4a25243f4d7d4fcf,17.62242268,16.62818228,16.6187405,16.62028649,16.62059448,16.62059448,,,,,,,,,,,,,,,,,,,,PF,strong,3,,,,,,,,4,2.14443,,,,,,,,,,,,,,,,,,,,,,,,,,,,6,strong,69,-126,1,0,0,response3disk,8,6,10,2,1,0,0,rectangle,10,2,1,0,0,,1,0.00089,10,2,1,0,0,0,5,5,133,1,0,,,,,,,,,,,,,,,,,,,,,
,,,,,,,,,,,,,,,,,,,,,,,,,,,,,,,,,,,,,,,,,,5f4d19c88ac21f85ef786134,606c0f24955f79fbad03cf49,2021-04-06_09h36.28.548,Colour_Similarity_Experiment,2020.2.10,Win32,60,6067542a4a25243f4d7d4fcf,17.62242268,16.62818228,16.6187405,16.62028649,16.62059448,16.62059448,,,,,,,,,,,,,,,,,,,,PF,strong,3,,,,,,,,7,4.12229,,,,,,,,,,,,,,,,,,,,,,,,,,,,4,strong,67,120,1,0,0,response1disk,9,7,-6,-5,1,0,0,rectangle,-6,-5,1,0,0,,5,0.001355,-6,-5,1,0,0,0,6,6,90,1,0,,,,,,,,,,,,,,,,,,,,,
,,,,,,,,,,,,,,,,,,,,,,,,,,,,,,,,,,,,,,,,,,5f4d19c88ac21f85ef786134,606c0f24955f79fbad03cf49,2021-04-06_09h36.28.548,Colour_Similarity_Experiment,2020.2.10,Win32,60,6067542a4a25243f4d7d4fcf,17.62242268,16.62818228,16.6187405,16.62028649,16.62059448,16.62059448,,,,,,,,,,,,,,,,,,,,PF,weak,3,,,,,,,,6,3.141375,,,,,,,,,,,,,,,,,,,,,,,,,,,,8,weak,148,54,1,0,0,response1disk,5,8,-4,4,1,0,0,rectangle,-4,4,1,0,0,,1,0.000995,-4,4,1,0,0,0,7,7,98,1,0,,,,,,,,,,,,,,,,,,,,,
,,,,,,,,,,,,,,,,,,,,,,,,,,,,,,,,,,,,,,,,,,5f4d19c88ac21f85ef786134,606c0f24955f79fbad03cf49,2021-04-06_09h36.28.548,Colour_Similarity_Experiment,2020.2.10,Win32,60,6067542a4a25243f4d7d4fcf,17.62242268,16.62818228,16.6187405,16.62028649,16.62059448,16.62059448,,,,,,,,,,,,,,,,,,,,PF,strong,3,,,,,,,,6,1.74511,,,,,,,,,,,,,,,,,,,,,,,,,,,,1,strong,121,78,1,0,0,response1disk,5,9,10,-1,1,0,0,rectangle,10,-1,1,0,0,,7,0.00093,10,-1,1,0,0,0,8,8,82,1,0,,,,,,,,,,,,,,,,,,,,,
,,,,,,,,,,,,,,,,,,,,,,,,,,,,,,,,,,,,,,,,,,5f4d19c88ac21f85ef786134,606c0f24955f79fbad03cf49,2021-04-06_09h36.28.548,Colour_Similarity_Experiment,2020.2.10,Win32,60,6067542a4a25243f4d7d4fcf,17.62242268,16.62818228,16.6187405,16.62028649,16.62059448,16.62059448,,,,,,,,,,,,,,,,,,,,PF,strong,3,,,,,,,,7,1.645035,,,,,,,,,,,,,,,,,,,,,,,,,,,,2,strong,68,142,1,0,0,response1disk,7,10,3,-7,1,0,0,rectangle,3,-7,1,0,0,,5,0.001045,3,-7,1,0,0,0,9,9,63,1,0,,,,,,,,,,,,,,,,,,,,,
,,,,,,,,,,,,,,,,,,,,,,,,,,,,,,,,,,,,,,,,,,5f4d19c88ac21f85ef786134,606c0f24955f79fbad03cf49,2021-04-06_09h36.28.548,Colour_Similarity_Experiment,2020.2.10,Win32,60,6067542a4a25243f4d7d4fcf,17.62242268,16.62818228,16.6187405,16.62028649,16.62059448,16.62059448,,,,,,,,,,,,,,,,,,,,PF,weak,3,,,,,,,,0,2.04372,,,,,,,,,,,,,,,,,,,,,,,,,,,,5,weak,-48,97,1,0,0,response7disk,5,11,-9,-4,1,0,0,rectangle,-9,-4,1,0,0,,6,0.000915,-9,-4,1,0,0,0,10,10,94,1,0,,,,,,,,,,,,,,,,,,,,,
,,,,,,,,,,,,,,,,,,,,,,,,,,,,,,,,,,,,,,,,,,5f4d19c88ac21f85ef786134,606c0f24955f79fbad03cf49,2021-04-06_09h36.28.548,Colour_Similarity_Experiment,2020.2.10,Win32,60,6067542a4a25243f4d7d4fcf,17.62242268,16.62818228,16.6187405,16.62028649,16.62059448,16.62059448,,,,,,,,,,,,,,,,,,,,PF,weak,3,,,,,,,,0,2.393455,,,,,,,,,,,,,,,,,,,,,,,,,,,,1,weak,-41,114,1,0,0,response7disk,1,12,3,-9,1,0,0,rectangle,64,150,1,0,0,7,7,2.74209,-9,17,1,0,0,0,11,11,76,1,1,response1disk_3,rectangle,,,,,,,,,,,,,,,,,,,
,,,,,,,,,,,,,,,,,,,,,,,,,,,,,,,,,,,,,,,,,,5f4d19c88ac21f85ef786134,606c0f24955f79fbad03cf49,2021-04-06_09h36.28.548,Colour_Similarity_Experiment,2020.2.10,Win32,60,6067542a4a25243f4d7d4fcf,17.62242268,16.62818228,16.6187405,16.62028649,16.62059448,16.62059448,,,,,,,,,,,,,,,,,,,,PF,weak,3,,,,,,,,2,2.942005,,,,,,,,,,,,,,,,,,,,,,,,,,,,3,weak,-140,-50,1,0,0,response5disk,3,13,-29,-4,1,0,0,rectangle,-29,-4,1,0,0,7,2,0.00095,-29,-4,1,0,0,0,12,12,4,1,0,,,,,,,,,,,,,,,,,,,,,
,,,,,,,,,,,,,,,,,,,,,,,,,,,,,,,,,,,,,,,,,,5f4d19c88ac21f85ef786134,606c0f24955f79fbad03cf49,2021-04-06_09h36.28.548,Colour_Similarity_Experiment,2020.2.10,Win32,60,6067542a4a25243f4d7d4fcf,17.62242268,16.62818228,16.6187405,16.62028649,16.62059448,16.62059448,,,,,,,,,,,,,,,,,,,,PF,weak,3,,,,,,,,6,1.462375,,,,,,,,,,,,,,,,,,,,,,,,,,,,9,weak,131,50,1,0,0,response1disk,2,14,2,-4,1,0,0,rectangle,2,-4,1,0,0,7,5,0.001355,2,-4,1,0,0,0,13,13,157,1,0,,,,,,,,,,,,,,,,,,,,,
,,,,,,,,,,,,,,,,,,,,,,,,,,,,,,,,,,,,,,,,,,5f4d19c88ac21f85ef786134,606c0f24955f79fbad03cf49,2021-04-06_09h36.28.548,Colour_Similarity_Experiment,2020.2.10,Win32,60,6067542a4a25243f4d7d4fcf,17.62242268,16.62818228,16.6187405,16.62028649,16.62059448,16.62059448,,,,,,,,,,,,,,,,,,,,PF,weak,3,,,,,,,,7,1.362935,,,,,,,,,,,,,,,,,,,,,,,,,,,,6,weak,35,102,1,0,0,response1disk,9,15,10,-13,1,0,0,rectangle,10,-13,1,0,0,7,4,0.00185,10,-13,1,0,0,0,14,14,45,1,0,,,,,,,,,,,,,,,,,,,,,
,,,,,,,,,,,,,,,,,,,,,,,,,,,,,,,,,,,,,,,,,,5f4d19c88ac21f85ef786134,606c0f24955f79fbad03cf49,2021-04-06_09h36.28.548,Colour_Similarity_Experiment,2020.2.10,Win32,60,6067542a4a25243f4d7d4fcf,17.62242268,16.62818228,16.6187405,16.62028649,16.62059448,16.62059448,,,,,,,,,,,,,,,,,,,,PF,strong,3,,,,,,,,4,3.922615,,,,,,,,,,,,,,,,,,,,,,,,,,,,7,strong,67,-116,1,0,0,response3disk,5,16,17,0,1,0,0,rectangle,17,0,1,0,0,7,7,0.00102,17,0,1,0,0,0,15,15,156,1,0,,,,,,,,,,,,,,,,,,,,,
,,,,,,,,,,,,,,,,,,,,,,,,,,,,,,,,,,,,,,,,,,5f4d19c88ac21f85ef786134,606c0f24955f79fbad03cf49,2021-04-06_09h36.28.548,Colour_Similarity_Experiment,2020.2.10,Win32,60,6067542a4a25243f4d7d4fcf,17.62242268,16.62818228,16.6187405,16.62028649,16.62059448,16.62059448,,,,,,,,,,,,,,,,,,,,PF,weak,3,,,,,,,,4,2.443615,,,,,,,,,,,,,,,,,,,,,,,,,,,,1,weak,48,-111,1,0,0,response3disk,9,17,9,3,1,0,0,rectangle,9,3,1,0,0,7,6,0.00143,9,3,1,0,0,0,16,16,15,1,0,,,,,,,,,,,,,,,,,,,,,
,,,,,,,,,,,,,,,,,,,,,,,,,,,,,,,,,,,,,,,,,,5f4d19c88ac21f85ef786134,606c0f24955f79fbad03cf49,2021-04-06_09h36.28.548,Colour_Similarity_Experiment,2020.2.10,Win32,60,6067542a4a25243f4d7d4fcf,17.62242268,16.62818228,16.6187405,16.62028649,16.62059448,16.62059448,,,,,,,,,,,,,,,,,,,,PF,weak,3,,,,,,,,6,2.742605,,,,,,,,,,,,,,,,,,,,,,,,,,,,8,weak,128,64,1,0,0,response1disk,3,18,5,-3,1,0,0,rectangle,5,-3,1,0,0,7,5,0.001045,5,-3,1,0,0,0,17,17,71,1,0,,,,,,,,,,,,,,,,,,,,,
,,,,,,,,,,,,,,,,,,,,,,,,,,,,,,,,,,,,,,,,,,5f4d19c88ac21f85ef786134,606c0f24955f79fbad03cf49,2021-04-06_09h36.28.548,Colour_Similarity_Experiment,2020.2.10,Win32,60,6067542a4a25243f4d7d4fcf,17.62242268,16.62818228,16.6187405,16.62028649,16.62059448,16.62059448,,,,,,,,,,,,,,,,,,,,PF,weak,3,,,,,,,,6,1.528645,,,,,,,,,,,,,,,,,,,,,,,,,,,,5,weak,109,90,1,0,0,response1disk,1,19,1,-3,1,0,0,rectangle,-73,-121,1,0,0,3,3,3.157355,-4,-2,1,0,0,0,18,18,159,1,1,response5disk_3,rectangle,,,,,,,,,,,,,,,,,,,
,,,,,,,,,,,,,,,,,,,,,,,,,,,,,,,,,,,,,,,,,,5f4d19c88ac21f85ef786134,606c0f24955f79fbad03cf49,2021-04-06_09h36.28.548,Colour_Similarity_Experiment,2020.2.10,Win32,60,6067542a4a25243f4d7d4fcf,17.62242268,16.62818228,16.6187405,16.62028649,16.62059448,16.62059448,,,,,,,,,,,,,,,,,,,,PF,weak,3,,,,,,,,0,1.507955,,,,,,,,,,,,,,,,,,,,,,,,,,,,9,weak,-38,140,1,0,0,response7disk,9,20,0,-2,1,0,0,rectangle,0,-2,1,0,0,3,3,0.001735,0,-2,1,0,0,0,19,19,106,1,0,,,,,,,,,,,,,,,,,,,,,
,,,,,,,,,,,,,,,,,,,,,,,,,,,,,,,,,,,,,,,,,,5f4d19c88ac21f85ef786134,606c0f24955f79fbad03cf49,2021-04-06_09h36.28.548,Colour_Similarity_Experiment,2020.2.10,Win32,60,6067542a4a25243f4d7d4fcf,17.62242268,16.62818228,16.6187405,16.62028649,16.62059448,16.62059448,,,,,,,,,,,,,,,,,,,,PF,strong,3,,,,,,,,5,3.5024,,,,,,,,,,,,,,,,,,,,,,,,,,,,5,strong,78,-69,1,0,0,response3disk,8,21,-16,2,1,0,0,rectangle,-16,2,1,0,0,3,7,0.001195,-16,2,1,0,0,0,20,20,16,1,0,,,,,,,,,,,,,,,,,,,,,
,,,,,,,,,,,,,,,,,,,,,,,,,,,,,,,,,,,,,,,,,,5f4d19c88ac21f85ef786134,606c0f24955f79fbad03cf49,2021-04-06_09h36.28.548,Colour_Similarity_Experiment,2020.2.10,Win32,60,6067542a4a25243f4d7d4fcf,17.62242268,16.62818228,16.6187405,16.62028649,16.62059448,16.62059448,,,,,,,,,,,,,,,,,,,,PF,weak,3,,,,,,,,6,1.47502,,,,,,,,,,,,,,,,,,,,,,,,,,,,7,weak,121,95,1,0,0,response1disk,4,22,18,3,1,0,0,rectangle,18,3,1,0,0,3,5,0.001415,18,3,1,0,0,0,21,21,43,1,0,,,,,,,,,,,,,,,,,,,,,
,,,,,,,,,,,,,,,,,,,,,,,,,,,,,,,,,,,,,,,,,,5f4d19c88ac21f85ef786134,606c0f24955f79fbad03cf49,2021-04-06_09h36.28.548,Colour_Similarity_Experiment,2020.2.10,Win32,60,6067542a4a25243f4d7d4fcf,17.62242268,16.62818228,16.6187405,16.62028649,16.62059448,16.62059448,,,,,,,,,,,,,,,,,,,,PF,weak,3,,,,,,,,2,3.835795,,,,,,,,,,,,,,,,,,,,,,,,,,,,7,weak,-107,-50,1,0,0,response5disk,6,23,-23,-10,1,0,0,rectangle,-23,-10,1,0,0,3,7,0.0012,-23,-10,1,0,0,0,22,22,29,1,0,,,,,,,,,,,,,,,,,,,,,
,,,,,,,,,,,,,,,,,,,,,,,,,,,,,,,,,,,,,,,,,,5f4d19c88ac21f85ef786134,606c0f24955f79fbad03cf49,2021-04-06_09h36.28.548,Colour_Similarity_Experiment,2020.2.10,Win32,60,6067542a4a25243f4d7d4fcf,17.62242268,16.62818228,16.6187405,16.62028649,16.62059448,16.62059448,,,,,,,,,,,,,,,,,,,,PF,weak,3,,,,,,,,0,1.25955,,,,,,,,,,,,,,,,,,,,,,,,,,,,7,weak,-59,101,1,0,0,response7disk,7,24,-19,12,1,0,0,rectangle,-19,12,1,0,0,3,0,0.001565,-19,12,1,0,0,0,23,23,51,1,0,,,,,,,,,,,,,,,,,,,,,
,,,,,,,,,,,,,,,,,,,,,,,,,,,,,,,,,,,,,,,,,,5f4d19c88ac21f85ef786134,606c0f24955f79fbad03cf49,2021-04-06_09h36.28.548,Colour_Similarity_Experiment,2020.2.10,Win32,60,6067542a4a25243f4d7d4fcf,17.62242268,16.62818228,16.6187405,16.62028649,16.62059448,16.62059448,,,,,,,,,,,,,,,,,,,,PF,strong,3,,,,,,,,6,2.53946,,,,,,,,,,,,,,,,,,,,,,,,,,,,1,strong,110,97,1,0,0,response1disk,6,25,4,14,1,0,0,rectangle,4,14,1,0,0,3,1,0.00128,4,14,1,0,0,0,24,24,58,1,0,,,,,,,,,,,,,,,,,,,,,
,,,,,,,,,,,,,,,,,,,,,,,,,,,,,,,,,,,,,,,,,,5f4d19c88ac21f85ef786134,606c0f24955f79fbad03cf49,2021-04-06_09h36.28.548,Colour_Similarity_Experiment,2020.2.10,Win32,60,6067542a4a25243f4d7d4fcf,17.62242268,16.62818228,16.6187405,16.62028649,16.62059448,16.62059448,,,,,,,,,,,,,,,,,,,,PF,strong,3,,,,,,,,6,1.57461,,,,,,,,,,,,,,,,,,,,,,,,,,,,7,strong,102,99,1,0,0,response1disk,3,26,-13,-8,1,0,0,rectangle,-13,-8,1,0,0,3,5,0.002235,-13,-8,1,0,0,0,25,25,73,1,0,,,,,,,,,,,,,,,,,,,,,
,,,,,,,,,,,,,,,,,,,,,,,,,,,,,,,,,,,,,,,,,,5f4d19c88ac21f85ef786134,606c0f24955f79fbad03cf49,2021-04-06_09h36.28.548,Colour_Similarity_Experiment,2020.2.10,Win32,60,6067542a4a25243f4d7d4fcf,17.62242268,16.62818228,16.6187405,16.62028649,16.62059448,16.62059448,,,,,,,,,,,,,,,,,,,,PF,weak,3,,,,,,,,6,1.27666,,,,,,,,,,,,,,,,,,,,,,,,,,,,8,weak,118,64,1,0,0,response1disk,1,27,12,18,1,0,0,rectangle,12,18,1,0,0,3,2,0.001405,12,18,1,0,0,0,26,26,57,1,0,,,,,,,,,,,,,,,,,,,,,
,,,,,,,,,,,,,,,,,,,,,,,,,,,,,,,,,,,,,,,,,,5f4d19c88ac21f85ef786134,606c0f24955f79fbad03cf49,2021-04-06_09h36.28.548,Colour_Similarity_Experiment,2020.2.10,Win32,60,6067542a4a25243f4d7d4fcf,17.62242268,16.62818228,16.6187405,16.62028649,16.62059448,16.62059448,,,,,,,,,,,,,,,,,,,,PF,strong,3,,,,,,,,6,1.059575,,,,,,,,,,,,,,,,,,,,,,,,,,,,1,strong,92,81,1,0,0,response1disk,4,28,0,6,1,0,0,rectangle,0,6,1,0,0,3,5,0.001375,0,6,1,0,0,0,27,27,135,1,0,,,,,,,,,,,,,,,,,,,,,
,,,,,,,,,,,,,,,,,,,,,,,,,,,,,,,,,,,,,,,,,,5f4d19c88ac21f85ef786134,606c0f24955f79fbad03cf49,2021-04-06_09h36.28.548,Colour_Similarity_Experiment,2020.2.10,Win32,60,6067542a4a25243f4d7d4fcf,17.62242268,16.62818228,16.6187405,16.62028649,16.62059448,16.62059448,,,,,,,,,,,,,,,,,,,,PF,strong,3,,,,,,,,0,1.125705,,,,,,,,,,,,,,,,,,,,,,,,,,,,6,strong,-57,124,1,0,0,response7disk,6,29,-25,18,1,0,0,rectangle,-25,18,1,0,0,3,4,0.001255,-25,18,1,0,0,0,28,28,91,1,0,,,,,,,,,,,,,,,,,,,,,
,,,,,,,,,,,,,,,,,,,,,,,,,,,,,,,,,,,,,,,,,,5f4d19c88ac21f85ef786134,606c0f24955f79fbad03cf49,2021-04-06_09h36.28.548,Colour_Similarity_Experiment,2020.2.10,Win32,60,6067542a4a25243f4d7d4fcf,17.62242268,16.62818228,16.6187405,16.62028649,16.62059448,16.62059448,,,,,,,,,,,,,,,,,,,,PF,strong,3,,,,,,,,2,1.675135,,,,,,,,,,,,,,,,,,,,,,,,,,,,4,strong,-121,-32,1,0,0,response5disk,5,30,-7,-11,1,0,0,rectangle,-7,-11,1,0,0,3,7,0.00198,-7,-11,1,0,0,0,29,29,116,1,0,,,,,,,,,,,,,,,,,,,,,
,,,,,,,,,,,,,,,,,,,,,,,,,,,,,,,,,,,,,,,,,,5f4d19c88ac21f85ef786134,606c0f24955f79fbad03cf49,2021-04-06_09h36.28.548,Colour_Similarity_Experiment,2020.2.10,Win32,60,6067542a4a25243f4d7d4fcf,17.62242268,16.62818228,16.6187405,16.62028649,16.62059448,16.62059448,,,,,,,,,,,,,,,,,,,,PF,weak,3,,,,,,,,3,1.17649,,,,,,,,,,,,,,,,,,,,,,,,,,,,7,weak,-67,-98,1,0,0,response5disk,5,31,-11,-9,1,0,0,rectangle,-11,-9,1,0,0,3,0,0.00125,-11,-9,1,0,0,0,30,30,92,1,0,,,,,,,,,,,,,,,,,,,,,
,,,,,,,,,,,,,,,,,,,,,,,,,,,,,,,,,,,,,,,,,,5f4d19c88ac21f85ef786134,606c0f24955f79fbad03cf49,2021-04-06_09h36.28.548,Colour_Similarity_Experiment,2020.2.10,Win32,60,6067542a4a25243f4d7d4fcf,17.62242268,16.62818228,16.6187405,16.62028649,16.62059448,16.62059448,,,,,,,,,,,,,,,,,,,,PF,strong,3,,,,,,,,5,1.192795,,,,,,,,,,,,,,,,,,,,,,,,,,,,5,strong,80,-44,1,0,0,response3disk,9,32,18,6,1,0,0,rectangle,18,6,1,0,0,3,3,0.001165,18,6,1,0,0,0,31,31,61,1,0,,,,,,,,,,,,,,,,,,,,,
,,,,,,,,,,,,,,,,,,,,,,,,,,,,,,,,,,,,,,,,,,5f4d19c88ac21f85ef786134,606c0f24955f79fbad03cf49,2021-04-06_09h36.28.548,Colour_Similarity_Experiment,2020.2.10,Win32,60,6067542a4a25243f4d7d4fcf,17.62242268,16.62818228,16.6187405,16.62028649,16.62059448,16.62059448,,,,,,,,,,,,,,,,,,,,PF,weak,3,,,,,,,,2,1.50891,,,,,,,,,,,,,,,,,,,,,,,,,,,,6,weak,-134,-45,1,0,0,response5disk,7,33,-30,-4,1,0,0,rectangle,-30,-4,1,0,0,3,2,0.001495,-30,-4,1,0,0,0,32,32,50,1,0,,,,,,,,,,,,,,,,,,,,,
,,,,,,,,,,,,,,,,,,,,,,,,,,,,,,,,,,,,,,,,,,5f4d19c88ac21f85ef786134,606c0f24955f79fbad03cf49,2021-04-06_09h36.28.548,Colour_Similarity_Experiment,2020.2.10,Win32,60,6067542a4a25243f4d7d4fcf,17.62242268,16.62818228,16.6187405,16.62028649,16.62059448,16.62059448,,,,,,,,,,,,,,,,,,,,PF,weak,3,,,,,,,,6,1.209535,,,,,,,,,,,,,,,,,,,,,,,,,,,,7,weak,95,87,1,0,0,response1disk,2,34,1,-6,1,0,0,rectangle,1,-6,1,0,0,3,3,0.001785,1,-6,1,0,0,0,33,33,32,1,0,,,,,,,,,,,,,,,,,,,,,
,,,,,,,,,,,,,,,,,,,,,,,,,,,,,,,,,,,,,,,,,,5f4d19c88ac21f85ef786134,606c0f24955f79fbad03cf49,2021-04-06_09h36.28.548,Colour_Similarity_Experiment,2020.2.10,Win32,60,6067542a4a25243f4d7d4fcf,17.62242268,16.62818228,16.6187405,16.62028649,16.62059448,16.62059448,,,,,,,,,,,,,,,,,,,,PF,weak,3,,,,,,,,6,1.691895,,,,,,,,,,,,,,,,,,,,,,,,,,,,2,weak,102,101,1,0,0,response1disk,6,35,-2,-19,1,0,0,rectangle,-2,-19,1,0,0,3,1,0.001335,-2,-19,1,0,0,0,34,34,113,1,0,,,,,,,,,,,,,,,,,,,,,
,,,,,,,,,,,,,,,,,,,,,,,,,,,,,,,,,,,,,,,,,,5f4d19c88ac21f85ef786134,606c0f24955f79fbad03cf49,2021-04-06_09h36.28.548,Colour_Similarity_Experiment,2020.2.10,Win32,60,6067542a4a25243f4d7d4fcf,17.62242268,16.62818228,16.6187405,16.62028649,16.62059448,16.62059448,,,,,,,,,,,,,,,,,,,,PF,weak,3,,,,,,,,0,1.077055,,,,,,,,,,,,,,,,,,,,,,,,,,,,2,weak,-59,108,1,0,0,response7disk,2,36,-3,5,1,0,0,rectangle,-3,5,1,0,0,3,6,0.001535,-3,5,1,0,0,0,35,35,14,1,0,,,,,,,,,,,,,,,,,,,,,
,,,,,,,,,,,,,,,,,,,,,,,,,,,,,,,,,,,,,,,,,,5f4d19c88ac21f85ef786134,606c0f24955f79fbad03cf49,2021-04-06_09h36.28.548,Colour_Similarity_Experiment,2020.2.10,Win32,60,6067542a4a25243f4d7d4fcf,17.62242268,16.62818228,16.6187405,16.62028649,16.62059448,16.62059448,,,,,,,,,,,,,,,,,,,,PF,weak,3,,,,,,,,2,1.49208,,,,,,,,,,,,,,,,,,,,,,,,,,,,5,weak,-110,-64,1,0,0,response5disk,6,37,6,-5,1,0,0,rectangle,6,-5,1,0,0,3,0,0.00125,6,-5,1,0,0,0,36,36,103,1,0,,,,,,,,,,,,,,,,,,,,,
,,,,,,,,,,,,,,,,,,,,,,,,,,,,,,,,,,,,,,,,,,5f4d19c88ac21f85ef786134,606c0f24955f79fbad03cf49,2021-04-06_09h36.28.548,Colour_Similarity_Experiment,2020.2.10,Win32,60,6067542a4a25243f4d7d4fcf,17.62242268,16.62818228,16.6187405,16.62028649,16.62059448,16.62059448,,,,,,,,,,,,,,,,,,,,PF,strong,3,,,,,,,,4,1.77447,,,,,,,,,,,,,,,,,,,,,,,,,,,,1,strong,69,-70,1,0,0,response3disk,8,38,-11,0,1,0,0,rectangle,-11,0,1,0,0,3,0,0.00016,-11,0,1,0,0,0,37,37,27,1,0,,,,,,,,,,,,,,,,,,,,,
,,,,,,,,,,,,,,,,,,,,,,,,,,,,,,,,,,,,,,,,,,5f4d19c88ac21f85ef786134,606c0f24955f79fbad03cf49,2021-04-06_09h36.28.548,Colour_Similarity_Experiment,2020.2.10,Win32,60,6067542a4a25243f4d7d4fcf,17.62242268,16.62818228,16.6187405,16.62028649,16.62059448,16.62059448,,,,,,,,,,,,,,,,,,,,PF,strong,3,,,,,,,,6,2.637955,,,,,,,,,,,,,,,,,,,,,,,,,,,,6,strong,104,50,1,0,0,response1disk,9,39,33,1,1,0,0,rectangle,126,52,1,0,0,6,6,2.691485,15,1,1,0,0,0,38,38,160,1,1,response1disk_3,rectangle,,,,,,,,,,,,,,,,,,,
,,,,,,,,,,,,,,,,,,,,,,,,,,,,,,,,,,,,,,,,,,5f4d19c88ac21f85ef786134,606c0f24955f79fbad03cf49,2021-04-06_09h36.28.548,Colour_Similarity_Experiment,2020.2.10,Win32,60,6067542a4a25243f4d7d4fcf,17.62242268,16.62818228,16.6187405,16.62028649,16.62059448,16.62059448,,,,,,,,,,,,,,,,,,,,PF,weak,3,,,,,,,,4,1.57526,,,,,,,,,,,,,,,,,,,,,,,,,,,,6,weak,32,-80,1,0,0,response3disk,8,40,6,20,1,0,0,rectangle,6,20,1,0,0,6,6,0.00019,6,20,1,0,0,0,39,39,64,1,0,,,,,,,,,,,,,,,,,,,,,
,,,,,,,,,,,,,,,,,,,,,,,,,,,,,,,,,,,,,,,,,,5f4d19c88ac21f85ef786134,606c0f24955f79fbad03cf49,2021-04-06_09h36.28.548,Colour_Similarity_Experiment,2020.2.10,Win32,60,6067542a4a25243f4d7d4fcf,17.62242268,16.62818228,16.6187405,16.62028649,16.62059448,16.62059448,,,,,,,,,,,,,,,,,,,,PF,weak,3,,,,,,,,6,2.23945,,,,,,,,,,,,,,,,,,,,,,,,,,,,8,weak,115,70,1,0,0,response1disk,4,41,17,-16,1,0,0,rectangle,17,-16,1,0,0,6,1,0.0016,17,-16,1,0,0,0,40,40,78,1,0,,,,,,,,,,,,,,,,,,,,,
,,,,,,,,,,,,,,,,,,,,,,,,,,,,,,,,,,,,,,,,,,5f4d19c88ac21f85ef786134,606c0f24955f79fbad03cf49,2021-04-06_09h36.28.548,Colour_Similarity_Experiment,2020.2.10,Win32,60,6067542a4a25243f4d7d4fcf,17.62242268,16.62818228,16.6187405,16.62028649,16.62059448,16.62059448,,,,,,,,,,,,,,,,,,,,PF,weak,3,,,,,,,,4,1.858045,,,,,,,,,,,,,,,,,,,,,,,,,,,,5,weak,38,-128,1,0,0,response3disk,7,42,-17,-2,1,0,0,rectangle,-17,-2,1,0,0,6,0,0.001195,-17,-2,1,0,0,0,41,41,146,1,0,,,,,,,,,,,,,,,,,,,,,
,,,,,,,,,,,,,,,,,,,,,,,,,,,,,,,,,,,,,,,,,,5f4d19c88ac21f85ef786134,606c0f24955f79fbad03cf49,2021-04-06_09h36.28.548,Colour_Similarity_Experiment,2020.2.10,Win32,60,6067542a4a25243f4d7d4fcf,17.62242268,16.62818228,16.6187405,16.62028649,16.62059448,16.62059448,,,,,,,,,,,,,,,,,,,,PF,weak,3,,,,,,,,5,1.74084,,,,,,,,,,,,,,,,,,,,,,,,,,,,3,weak,139,-47,1,0,0,response3disk,6,43,20,-16,1,0,0,rectangle,20,-16,1,0,0,6,1,0.001395,20,-16,1,0,0,0,42,42,47,1,0,,,,,,,,,,,,,,,,,,,,,
,,,,,,,,,,,,,,,,,,,,,,,,,,,,,,,,,,,,,,,,,,5f4d19c88ac21f85ef786134,606c0f24955f79fbad03cf49,2021-04-06_09h36.28.548,Colour_Similarity_Experiment,2020.2.10,Win32,60,6067542a4a25243f4d7d4fcf,17.62242268,16.62818228,16.6187405,16.62028649,16.62059448,16.62059448,,,,,,,,,,,,,,,,,,,,PF,strong,3,,,,,,,,6,1.126115,,,,,,,,,,,,,,,,,,,,,,,,,,,,4,strong,88,62,1,0,0,response1disk,7,44,-12,0,1,0,0,rectangle,-12,0,1,0,0,6,1,0.000295,-12,0,1,0,0,0,43,43,87,1,0,,,,,,,,,,,,,,,,,,,,,
,,,,,,,,,,,,,,,,,,,,,,,,,,,,,,,,,,,,,,,,,,5f4d19c88ac21f85ef786134,606c0f24955f79fbad03cf49,2021-04-06_09h36.28.548,Colour_Similarity_Experiment,2020.2.10,Win32,60,6067542a4a25243f4d7d4fcf,17.62242268,16.62818228,16.6187405,16.62028649,16.62059448,16.62059448,,,,,,,,,,,,,,,,,,,,PF,strong,3,,,,,,,,6,0.963915,,,,,,,,,,,,,,,,,,,,,,,,,,,,2,strong,100,63,1,0,0,response1disk,8,45,21,6,1,0,0,rectangle,21,6,1,0,0,6,2,0.001275,21,6,1,0,0,0,44,44,62,1,0,,,,,,,,,,,,,,,,,,,,,
,,,,,,,,,,,,,,,,,,,,,,,,,,,,,,,,,,,,,,,,,,5f4d19c88ac21f85ef786134,606c0f24955f79fbad03cf49,2021-04-06_09h36.28.548,Colour_Similarity_Experiment,2020.2.10,Win32,60,6067542a4a25243f4d7d4fcf,17.62242268,16.62818228,16.6187405,16.62028649,16.62059448,16.62059448,,,,,,,,,,,,,,,,,,,,PF,strong,3,,,,,,,,5,2.07737,,,,,,,,,,,,,,,,,,,,,,,,,,,,8,strong,91,-54,1,0,0,response3disk,1,46,-11,12,1,0,0,rectangle,-11,12,1,0,0,6,4,0.00143,-11,12,1,0,0,0,45,45,20,1,0,,,,,,,,,,,,,,,,,,,,,
,,,,,,,,,,,,,,,,,,,,,,,,,,,,,,,,,,,,,,,,,,5f4d19c88ac21f85ef786134,606c0f24955f79fbad03cf49,2021-04-06_09h36.28.548,Colour_Similarity_Experiment,2020.2.10,Win32,60,6067542a4a25243f4d7d4fcf,17.62242268,16.62818228,16.6187405,16.62028649,16.62059448,16.62059448,,,,,,,,,,,,,,,,,,,,PF,strong,3,,,,,,,,4,1.842715,,,,,,,,,,,,,,,,,,,,,,,,,,,,7,strong,37,-112,1,0,0,response3disk,8,47,-6,-7,1,0,0,rectangle,-119,-67,1,0,0,6,2,2.16046,26,6,1,0,0,0,46,46,97,1,1,response5disk_3,rectangle,,,,,,,,,,,,,,,,,,,
,,,,,,,,,,,,,,,,,,,,,,,,,,,,,,,,,,,,,,,,,,5f4d19c88ac21f85ef786134,606c0f24955f79fbad03cf49,2021-04-06_09h36.28.548,Colour_Similarity_Experiment,2020.2.10,Win32,60,6067542a4a25243f4d7d4fcf,17.62242268,16.62818228,16.6187405,16.62028649,16.62059448,16.62059448,,,,,,,,,,,,,,,,,,,,PF,weak,3,,,,,,,,4,1.195635,,,,,,,,,,,,,,,,,,,,,,,,,,,,5,weak,62,-118,1,0,0,response3disk,8,48,-9,11,1,0,0,rectangle,-9,11,1,0,0,6,0,0.00081,-9,11,1,0,0,0,47,47,149,1,0,,,,,,,,,,,,,,,,,,,,,
,,,,,,,,,,,,,,,,,,,,,,,,,,,,,,,,,,,,,,,,,,5f4d19c88ac21f85ef786134,606c0f24955f79fbad03cf49,2021-04-06_09h36.28.548,Colour_Similarity_Experiment,2020.2.10,Win32,60,6067542a4a25243f4d7d4fcf,17.62242268,16.62818228,16.6187405,16.62028649,16.62059448,16.62059448,,,,,,,,,,,,,,,,,,,,PF,strong,3,,,,,,,,3,1.81113,,,,,,,,,,,,,,,,,,,,,,,,,,,,5,strong,-49,-115,1,0,0,response5disk,7,49,-21,4,1,0,0,rectangle,-21,4,1,0,0,6,3,0.00143,-21,4,1,0,0,0,48,48,7,1,0,,,,,,,,,,,,,,,,,,,,,
,,,,,,,,,,,,,,,,,,,,,,,,,,,,,,,,,,,,,,,,,,5f4d19c88ac21f85ef786134,606c0f24955f79fbad03cf49,2021-04-06_09h36.28.548,Colour_Similarity_Experiment,2020.2.10,Win32,60,6067542a4a25243f4d7d4fcf,17.62242268,16.62818228,16.6187405,16.62028649,16.62059448,16.62059448,,,,,,,,,,,,,,,,,,,,PF,weak,3,,,,,,,,6,1.096945,,,,,,,,,,,,,,,,,,,,,,,,,,,,5,weak,94,71,1,0,0,response1disk,9,50,-7,-7,1,0,0,rectangle,48,113,1,0,0,7,7,1.446215,-1,5,1,0,0,0,49,49,136,1,1,response1disk_3,rectangle,,,,,,,,,,,,,,,,,,,
,,,,,,,,,,,,,,,,,,,,,,,,,,,,,,,,,,,,,,,,,,5f4d19c88ac21f85ef786134,606c0f24955f79fbad03cf49,2021-04-06_09h36.28.548,Colour_Similarity_Experiment,2020.2.10,Win32,60,6067542a4a25243f4d7d4fcf,17.62242268,16.62818228,16.6187405,16.62028649,16.62059448,16.62059448,,,,,,,,,,,,,,,,,,,,PF,weak,3,,,,,,,,6,1.27983,,,,,,,,,,,,,,,,,,,,,,,,,,,,4,weak,92,27,1,0,0,response1disk,7,51,-6,-17,1,0,0,rectangle,-6,-17,1,0,0,7,4,0.000825,-6,-17,1,0,0,0,50,50,38,1,0,,,,,,,,,,,,,,,,,,,,,
,,,,,,,,,,,,,,,,,,,,,,,,,,,,,,,,,,,,,,,,,,5f4d19c88ac21f85ef786134,606c0f24955f79fbad03cf49,2021-04-06_09h36.28.548,Colour_Similarity_Experiment,2020.2.10,Win32,60,6067542a4a25243f4d7d4fcf,17.62242268,16.62818228,16.6187405,16.62028649,16.62059448,16.62059448,,,,,,,,,,,,,,,,,,,,PF,strong,3,,,,,,,,6,1.196375,,,,,,,,,,,,,,,,,,,,,,,,,,,,9,strong,94,66,1,0,0,response1disk,5,52,8,12,1,0,0,rectangle,8,12,1,0,0,7,0,0.000705,8,12,1,0,0,0,51,51,128,1,0,,,,,,,,,,,,,,,,,,,,,
,,,,,,,,,,,,,,,,,,,,,,,,,,,,,,,,,,,,,,,,,,5f4d19c88ac21f85ef786134,606c0f24955f79fbad03cf49,2021-04-06_09h36.28.548,Colour_Similarity_Experiment,2020.2.10,Win32,60,6067542a4a25243f4d7d4fcf,17.62242268,16.62818228,16.6187405,16.62028649,16.62059448,16.62059448,,,,,,,,,,,,,,,,,,,,PF,weak,3,,,,,,,,4,1.212855,,,,,,,,,,,,,,,,,,,,,,,,,,,,5,weak,31,-82,1,0,0,response3disk,3,53,-14,-6,1,0,0,rectangle,-14,-6,1,0,0,7,4,0.001225,-14,-6,1,0,0,0,52,52,109,1,0,,,,,,,,,,,,,,,,,,,,,
,,,,,,,,,,,,,,,,,,,,,,,,,,,,,,,,,,,,,,,,,,5f4d19c88ac21f85ef786134,606c0f24955f79fbad03cf49,2021-04-06_09h36.28.548,Colour_Similarity_Experiment,2020.2.10,Win32,60,6067542a4a25243f4d7d4fcf,17.62242268,16.62818228,16.6187405,16.62028649,16.62059448,16.62059448,,,,,,,,,,,,,,,,,,,,PF,weak,3,,,,,,,,5,2.16108,,,,,,,,,,,,,,,,,,,,,,,,,,,,4,weak,100,-60,1,0,0,response3disk,2,54,9,3,1,0,0,rectangle,9,3,1,0,0,7,4,0.000105,9,3,1,0,0,0,53,53,108,1,0,,,,,,,,,,,,,,,,,,,,,
,,,,,,,,,,,,,,,,,,,,,,,,,,,,,,,,,,,,,,,,,,5f4d19c88ac21f85ef786134,606c0f24955f79fbad03cf49,2021-04-06_09h36.28.548,Colour_Similarity_Experiment,2020.2.10,Win32,60,6067542a4a25243f4d7d4fcf,17.62242268,16.62818228,16.6187405,16.62028649,16.62059448,16.62059448,,,,,,,,,,,,,,,,,,,,PF,strong,3,,,,,,,,0,1.397525,,,,,,,,,,,,,,,,,,,,,,,,,,,,4,strong,-57,96,1,0,0,response7disk,4,55,-15,-5,1,0,0,rectangle,-15,-5,1,0,0,7,4,0.000145,-15,-5,1,0,0,0,54,54,84,1,0,,,,,,,,,,,,,,,,,,,,,
,,,,,,,,,,,,,,,,,,,,,,,,,,,,,,,,,,,,,,,,,,5f4d19c88ac21f85ef786134,606c0f24955f79fbad03cf49,2021-04-06_09h36.28.548,Colour_Similarity_Experiment,2020.2.10,Win32,60,6067542a4a25243f4d7d4fcf,17.62242268,16.62818228,16.6187405,16.62028649,16.62059448,16.62059448,,,,,,,,,,,,,,,,,,,,PF,strong,3,,,,,,,,6,1.21316,,,,,,,,,,,,,,,,,,,,,,,,,,,,9,strong,107,93,1,0,0,response1disk,7,56,22,-8,1,0,0,rectangle,22,-8,1,0,0,7,1,0.00096,22,-8,1,0,0,0,55,55,100,1,0,,,,,,,,,,,,,,,,,,,,,
,,,,,,,,,,,,,,,,,,,,,,,,,,,,,,,,,,,,,,,,,,5f4d19c88ac21f85ef786134,606c0f24955f79fbad03cf49,2021-04-06_09h36.28.548,Colour_Similarity_Experiment,2020.2.10,Win32,60,6067542a4a25243f4d7d4fcf,17.62242268,16.62818228,16.6187405,16.62028649,16.62059448,16.62059448,,,,,,,,,,,,,,,,,,,,PF,weak,3,,,,,,,,7,1.446345,,,,,,,,,,,,,,,,,,,,,,,,,,,,6,weak,63,129,1,0,0,response1disk,2,57,10,10,1,0,0,rectangle,10,10,1,0,0,7,2,0.00086,10,10,1,0,0,0,56,56,130,1,0,,,,,,,,,,,,,,,,,,,,,
,,,,,,,,,,,,,,,,,,,,,,,,,,,,,,,,,,,,,,,,,,5f4d19c88ac21f85ef786134,606c0f24955f79fbad03cf49,2021-04-06_09h36.28.548,Colour_Similarity_Experiment,2020.2.10,Win32,60,6067542a4a25243f4d7d4fcf,17.62242268,16.62818228,16.6187405,16.62028649,16.62059448,16.62059448,,,,,,,,,,,,,,,,,,,,PF,strong,3,,,,,,,,1,1.29698,,,,,,,,,,,,,,,,,,,,,,,,,,,,3,strong,-100,40,1,0,0,response7disk,3,58,-8,-8,1,0,0,rectangle,-8,-8,1,0,0,7,4,0.000825,-8,-8,1,0,0,0,57,57,68,1,0,,,,,,,,,,,,,,,,,,,,,
,,,,,,,,,,,,,,,,,,,,,,,,,,,,,,,,,,,,,,,,,,5f4d19c88ac21f85ef786134,606c0f24955f79fbad03cf49,2021-04-06_09h36.28.548,Colour_Similarity_Experiment,2020.2.10,Win32,60,6067542a4a25243f4d7d4fcf,17.62242268,16.62818228,16.6187405,16.62028649,16.62059448,16.62059448,,,,,,,,,,,,,,,,,,,,PF,weak,3,,,,,,,,3,1.27889,,,,,,,,,,,,,,,,,,,,,,,,,,,,3,weak,-60,-88,1,0,0,response5disk,5,59,15,5,1,0,0,rectangle,15,5,1,0,0,7,1,0.001125,15,5,1,0,0,0,58,58,66,1,0,,,,,,,,,,,,,,,,,,,,,
,,,,,,,,,,,,,,,,,,,,,,,,,,,,,,,,,,,,,,,,,,5f4d19c88ac21f85ef786134,606c0f24955f79fbad03cf49,2021-04-06_09h36.28.548,Colour_Similarity_Experiment,2020.2.10,Win32,60,6067542a4a25243f4d7d4fcf,17.62242268,16.62818228,16.6187405,16.62028649,16.62059448,16.62059448,,,,,,,,,,,,,,,,,,,,PF,strong,3,,,,,,,,6,0.980605,,,,,,,,,,,,,,,,,,,,,,,,,,,,8,strong,119,53,1,0,0,response1disk,4,60,-1,-15,1,0,0,rectangle,-1,-15,1,0,0,7,2,0.000735,-1,-15,1,0,0,0,59,59,88,1,0,,,,,,,,,,,,,,,,,,,,,
,,,,,,,,,,,,,,,,,,,,,,,,,,,,,,,,,,,,,,,,,,5f4d19c88ac21f85ef786134,606c0f24955f79fbad03cf49,2021-04-06_09h36.28.548,Colour_Similarity_Experiment,2020.2.10,Win32,60,6067542a4a25243f4d7d4fcf,17.62242268,16.62818228,16.6187405,16.62028649,16.62059448,16.62059448,,,,,,,,,,,,,,,,,,,,PF,weak,3,,,,,,,,3,1.26355,,,,,,,,,,,,,,,,,,,,,,,,,,,,9,weak,-55,-90,1,0,0,response5disk,1,61,6,-6,1,0,0,rectangle,6,-6,1,0,0,7,7,0.00157,6,-6,1,0,0,0,60,60,74,1,0,,,,,,,,,,,,,,,,,,,,,
,,,,,,,,,,,,,,,,,,,,,,,,,,,,,,,,,,,,,,,,,,5f4d19c88ac21f85ef786134,606c0f24955f79fbad03cf49,2021-04-06_09h36.28.548,Colour_Similarity_Experiment,2020.2.10,Win32,60,6067542a4a25243f4d7d4fcf,17.62242268,16.62818228,16.6187405,16.62028649,16.62059448,16.62059448,,,,,,,,,,,,,,,,,,,,PF,strong,3,,,,,,,,4,1.047035,,,,,,,,,,,,,,,,,,,,,,,,,,,,3,strong,44,-80,1,0,0,response3disk,5,62,-8,1,1,0,0,rectangle,-8,1,1,0,0,7,3,0.00108,-8,1,1,0,0,0,61,61,101,1,0,,,,,,,,,,,,,,,,,,,,,
,,,,,,,,,,,,,,,,,,,,,,,,,,,,,,,,,,,,,,,,,,5f4d19c88ac21f85ef786134,606c0f24955f79fbad03cf49,2021-04-06_09h36.28.548,Colour_Similarity_Experiment,2020.2.10,Win32,60,6067542a4a25243f4d7d4fcf,17.62242268,16.62818228,16.6187405,16.62028649,16.62059448,16.62059448,,,,,,,,,,,,,,,,,,,,PF,strong,3,,,,,,,,5,1.063705,,,,,,,,,,,,,,,,,,,,,,,,,,,,3,strong,100,-44,1,0,0,response3disk,6,63,36,4,1,0,0,rectangle,36,4,1,0,0,7,7,0.001135,36,4,1,0,0,0,62,62,95,1,0,,,,,,,,,,,,,,,,,,,,,
,,,,,,,,,,,,,,,,,,,,,,,,,,,,,,,,,,,,,,,,,,5f4d19c88ac21f85ef786134,606c0f24955f79fbad03cf49,2021-04-06_09h36.28.548,Colour_Similarity_Experiment,2020.2.10,Win32,60,6067542a4a25243f4d7d4fcf,17.62242268,16.62818228,16.6187405,16.62028649,16.62059448,16.62059448,,,,,,,,,,,,,,,,,,,,PF,strong,3,,,,,,,,5,2.327145,,,,,,,,,,,,,,,,,,,,,,,,,,,,6,strong,125,-63,1,0,0,response3disk,5,64,2,-2,1,0,0,rectangle,2,-2,1,0,0,7,1,0.00132,2,-2,1,0,0,0,63,63,126,1,0,,,,,,,,,,,,,,,,,,,,,
,,,,,,,,,,,,,,,,,,,,,,,,,,,,,,,,,,,,,,,,,,5f4d19c88ac21f85ef786134,606c0f24955f79fbad03cf49,2021-04-06_09h36.28.548,Colour_Similarity_Experiment,2020.2.10,Win32,60,6067542a4a25243f4d7d4fcf,17.62242268,16.62818228,16.6187405,16.62028649,16.62059448,16.62059448,,,,,,,,,,,,,,,,,,,,PF,weak,3,,,,,,,,7,0.99683,,,,,,,,,,,,,,,,,,,,,,,,,,,,1,weak,66,96,1,0,0,response1disk,7,65,14,-21,1,0,0,rectangle,14,-21,1,0,0,7,6,0.001405,14,-21,1,0,0,0,64,64,150,1,0,,,,,,,,,,,,,,,,,,,,,
,,,,,,,,,,,,,,,,,,,,,,,,,,,,,,,,,,,,,,,,,,5f4d19c88ac21f85ef786134,606c0f24955f79fbad03cf49,2021-04-06_09h36.28.548,Colour_Similarity_Experiment,2020.2.10,Win32,60,6067542a4a25243f4d7d4fcf,17.62242268,16.62818228,16.6187405,16.62028649,16.62059448,16.62059448,,,,,,,,,,,,,,,,,,,,PF,weak,3,,,,,,,,7,0.84747,,,,,,,,,,,,,,,,,,,,,,,,,,,,9,weak,76,118,1,0,0,response1disk,6,66,34,18,1,0,0,rectangle,34,18,1,0,0,7,4,0.00132,34,18,1,0,0,0,65,65,148,1,0,,,,,,,,,,,,,,,,,,,,,
,,,,,,,,,,,,,,,,,,,,,,,,,,,,,,,,,,,,,,,,,,5f4d19c88ac21f85ef786134,606c0f24955f79fbad03cf49,2021-04-06_09h36.28.548,Colour_Similarity_Experiment,2020.2.10,Win32,60,6067542a4a25243f4d7d4fcf,17.62242268,16.62818228,16.6187405,16.62028649,16.62059448,16.62059448,,,,,,,,,,,,,,,,,,,,PF,weak,3,,,,,,,,7,1.761735,,,,,,,,,,,,,,,,,,,,,,,,,,,,3,weak,69,100,1,0,0,response1disk,1,67,-3,-2,1,0,0,rectangle,-3,-2,1,0,0,7,7,0.000845,-3,-2,1,0,0,0,66,66,96,1,0,,,,,,,,,,,,,,,,,,,,,
,,,,,,,,,,,,,,,,,,,,,,,,,,,,,,,,,,,,,,,,,,5f4d19c88ac21f85ef786134,606c0f24955f79fbad03cf49,2021-04-06_09h36.28.548,Colour_Similarity_Experiment,2020.2.10,Win32,60,6067542a4a25243f4d7d4fcf,17.62242268,16.62818228,16.6187405,16.62028649,16.62059448,16.62059448,,,,,,,,,,,,,,,,,,,,PF,strong,3,,,,,,,,2,2.493125,,,,,,,,,,,,,,,,,,,,,,,,,,,,7,strong,-91,-53,1,0,0,response5disk,7,68,13,8,1,0,0,rectangle,13,8,1,0,0,7,0,0.0015,13,8,1,0,0,0,67,67,34,1,0,,,,,,,,,,,,,,,,,,,,,
,,,,,,,,,,,,,,,,,,,,,,,,,,,,,,,,,,,,,,,,,,5f4d19c88ac21f85ef786134,606c0f24955f79fbad03cf49,2021-04-06_09h36.28.548,Colour_Similarity_Experiment,2020.2.10,Win32,60,6067542a4a25243f4d7d4fcf,17.62242268,16.62818228,16.6187405,16.62028649,16.62059448,16.62059448,,,,,,,,,,,,,,,,,,,,PF,strong,3,,,,,,,,7,1.37972,,,,,,,,,,,,,,,,,,,,,,,,,,,,9,strong,34,150,1,0,0,response1disk,6,69,-27,-5,1,0,0,rectangle,-27,-5,1,0,0,7,3,0.00091,-27,-5,1,0,0,0,68,68,117,1,0,,,,,,,,,,,,,,,,,,,,,
,,,,,,,,,,,,,,,,,,,,,,,,,,,,,,,,,,,,,,,,,,5f4d19c88ac21f85ef786134,606c0f24955f79fbad03cf49,2021-04-06_09h36.28.548,Colour_Similarity_Experiment,2020.2.10,Win32,60,6067542a4a25243f4d7d4fcf,17.62242268,16.62818228,16.6187405,16.62028649,16.62059448,16.62059448,,,,,,,,,,,,,,,,,,,,PF,weak,3,,,,,,,,7,0.979925,,,,,,,,,,,,,,,,,,,,,,,,,,,,8,weak,59,116,1,0,0,response1disk,2,70,4,0,1,0,0,rectangle,4,0,1,0,0,7,4,0.000885,4,0,1,0,0,0,69,69,83,1,0,,,,,,,,,,,,,,,,,,,,,
,,,,,,,,,,,,,,,,,,,,,,,,,,,,,,,,,,,,,,,,,,5f4d19c88ac21f85ef786134,606c0f24955f79fbad03cf49,2021-04-06_09h36.28.548,Colour_Similarity_Experiment,2020.2.10,Win32,60,6067542a4a25243f4d7d4fcf,17.62242268,16.62818228,16.6187405,16.62028649,16.62059448,16.62059448,,,,,,,,,,,,,,,,,,,,PF,weak,3,,,,,,,,6,1.54543,,,,,,,,,,,,,,,,,,,,,,,,,,,,4,weak,97,69,1,0,0,response1disk,6,71,4,3,1,0,0,rectangle,4,3,1,0,0,7,6,0.001095,4,3,1,0,0,0,70,70,120,1,0,,,,,,,,,,,,,,,,,,,,,
,,,,,,,,,,,,,,,,,,,,,,,,,,,,,,,,,,,,,,,,,,5f4d19c88ac21f85ef786134,606c0f24955f79fbad03cf49,2021-04-06_09h36.28.548,Colour_Similarity_Experiment,2020.2.10,Win32,60,6067542a4a25243f4d7d4fcf,17.62242268,16.62818228,16.6187405,16.62028649,16.62059448,16.62059448,,,,,,,,,,,,,,,,,,,,PF,weak,3,,,,,,,,7,0.830725,,,,,,,,,,,,,,,,,,,,,,,,,,,,9,weak,64,101,1,0,0,response1disk,3,72,-2,-12,1,0,0,rectangle,-2,-12,1,0,0,7,7,0.001085,-2,-12,1,0,0,0,71,71,119,1,0,,,,,,,,,,,,,,,,,,,,,
,,,,,,,,,,,,,,,,,,,,,,,,,,,,,,,,,,,,,,,,,,5f4d19c88ac21f85ef786134,606c0f24955f79fbad03cf49,2021-04-06_09h36.28.548,Colour_Similarity_Experiment,2020.2.10,Win32,60,6067542a4a25243f4d7d4fcf,17.62242268,16.62818228,16.6187405,16.62028649,16.62059448,16.62059448,,,,,,,,,,,,,,,,,,,,PF,strong,3,,,,,,,,4,1.429515,,,,,,,,,,,,,,,,,,,,,,,,,,,,2,strong,38,-114,1,0,0,response3disk,4,73,-17,-6,1,0,0,rectangle,-17,-6,1,0,0,7,1,0.001045,-17,-6,1,0,0,0,72,72,145,1,0,,,,,,,,,,,,,,,,,,,,,
,,,,,,,,,,,,,,,,,,,,,,,,,,,,,,,,,,,,,,,,,,5f4d19c88ac21f85ef786134,606c0f24955f79fbad03cf49,2021-04-06_09h36.28.548,Colour_Similarity_Experiment,2020.2.10,Win32,60,6067542a4a25243f4d7d4fcf,17.62242268,16.62818228,16.6187405,16.62028649,16.62059448,16.62059448,,,,,,,,,,,,,,,,,,,,PF,strong,3,,,,,,,,6,1.146515,,,,,,,,,,,,,,,,,,,,,,,,,,,,9,strong,93,58,1,0,0,response1disk,2,74,-3,-18,1,0,0,rectangle,-108,-65,1,0,0,7,2,2.35988,1,-10,1,0,0,0,73,73,11,1,1,response5disk_3,rectangle,,,,,,,,,,,,,,,,,,,
,,,,,,,,,,,,,,,,,,,,,,,,,,,,,,,,,,,,,,,,,,5f4d19c88ac21f85ef786134,606c0f24955f79fbad03cf49,2021-04-06_09h36.28.548,Colour_Similarity_Experiment,2020.2.10,Win32,60,6067542a4a25243f4d7d4fcf,17.62242268,16.62818228,16.6187405,16.62028649,16.62059448,16.62059448,,,,,,,,,,,,,,,,,,,,PF,strong,3,,,,,,,,2,1.512465,,,,,,,,,,,,,,,,,,,,,,,,,,,,2,strong,-112,-38,1,0,0,response5disk,3,75,-24,-1,1,0,0,rectangle,116,-57,1,0,0,5,5,1.6949,-14,9,1,0,0,0,74,74,104,1,1,response3disk_3,rectangle,,,,,,,,,,,,,,,,,,,
,,,,,,,,,,,,,,,,,,,,,,,,,,,,,,,,,,,,,,,,,,5f4d19c88ac21f85ef786134,606c0f24955f79fbad03cf49,2021-04-06_09h36.28.548,Colour_Similarity_Experiment,2020.2.10,Win32,60,6067542a4a25243f4d7d4fcf,17.62242268,16.62818228,16.6187405,16.62028649,16.62059448,16.62059448,,,,,,,,,,,,,,,,,,,,PF,weak,3,,,,,,,,2,1.346655,,,,,,,,,,,,,,,,,,,,,,,,,,,,4,weak,-104,-53,1,0,0,response5disk,3,76,5,-3,1,0,0,rectangle,5,-3,1,0,0,5,1,0.001105,5,-3,1,0,0,0,75,75,89,1,0,,,,,,,,,,,,,,,,,,,,,
,,,,,,,,,,,,,,,,,,,,,,,,,,,,,,,,,,,,,,,,,,5f4d19c88ac21f85ef786134,606c0f24955f79fbad03cf49,2021-04-06_09h36.28.548,Colour_Similarity_Experiment,2020.2.10,Win32,60,6067542a4a25243f4d7d4fcf,17.62242268,16.62818228,16.6187405,16.62028649,16.62059448,16.62059448,,,,,,,,,,,,,,,,,,,,PF,strong,3,,,,,,,,5,1.91111,,,,,,,,,,,,,,,,,,,,,,,,,,,,2,strong,86,-74,1,0,0,response3disk,1,77,-7,-4,1,0,0,rectangle,-7,-4,1,0,0,5,2,0.00081,-7,-4,1,0,0,0,76,76,85,1,0,,,,,,,,,,,,,,,,,,,,,
,,,,,,,,,,,,,,,,,,,,,,,,,,,,,,,,,,,,,,,,,,5f4d19c88ac21f85ef786134,606c0f24955f79fbad03cf49,2021-04-06_09h36.28.548,Colour_Similarity_Experiment,2020.2.10,Win32,60,6067542a4a25243f4d7d4fcf,17.62242268,16.62818228,16.6187405,16.62028649,16.62059448,16.62059448,,,,,,,,,,,,,,,,,,,,PF,weak,3,,,,,,,,3,1.04681,,,,,,,,,,,,,,,,,,,,,,,,,,,,3,weak,-69,-99,1,0,0,response5disk,2,78,-8,-13,1,0,0,rectangle,-68,134,1,0,0,0,0,3.35689,-2,-7,1,0,0,0,77,77,36,1,1,response7disk_3,rectangle,,,,,,,,,,,,,,,,,,,
,,,,,,,,,,,,,,,,,,,,,,,,,,,,,,,,,,,,,,,,,,5f4d19c88ac21f85ef786134,606c0f24955f79fbad03cf49,2021-04-06_09h36.28.548,Colour_Similarity_Experiment,2020.2.10,Win32,60,6067542a4a25243f4d7d4fcf,17.62242268,16.62818228,16.6187405,16.62028649,16.62059448,16.62059448,,,,,,,,,,,,,,,,,,,,PF,strong,3,,,,,,,,3,1.01399,,,,,,,,,,,,,,,,,,,,,,,,,,,,3,strong,-47,-89,1,0,0,response5disk,4,79,8,7,1,0,0,rectangle,8,7,1,0,0,0,6,0.00089,8,7,1,0,0,0,78,78,110,1,0,,,,,,,,,,,,,,,,,,,,,
,,,,,,,,,,,,,,,,,,,,,,,,,,,,,,,,,,,,,,,,,,5f4d19c88ac21f85ef786134,606c0f24955f79fbad03cf49,2021-04-06_09h36.28.548,Colour_Similarity_Experiment,2020.2.10,Win32,60,6067542a4a25243f4d7d4fcf,17.62242268,16.62818228,16.6187405,16.62028649,16.62059448,16.62059448,,,,,,,,,,,,,,,,,,,,PF,weak,3,,,,,,,,0,0.94813,,,,,,,,,,,,,,,,,,,,,,,,,,,,4,weak,-82,124,1,0,0,response7disk,4,80,-16,3,1,0,0,rectangle,-16,3,1,0,0,0,5,0.001335,-16,3,1,0,0,0,79,79,70,1,0,,,,,,,,,,,,,,,,,,,,,
,,,,,,,,,,,,,,,,,,,,,,,,,,,,,,,,,,,,,,,,,,5f4d19c88ac21f85ef786134,606c0f24955f79fbad03cf49,2021-04-06_09h36.28.548,Colour_Similarity_Experiment,2020.2.10,Win32,60,6067542a4a25243f4d7d4fcf,17.62242268,16.62818228,16.6187405,16.62028649,16.62059448,16.62059448,,,,,,,,,,,,,,,,,,,,PF,strong,3,,,,,,,,3,1.163715,,,,,,,,,,,,,,,,,,,,,,,,,,,,8,strong,-30,-108,1,0,0,response5disk,9,81,-9,-7,1,0,0,rectangle,-9,-7,1,0,0,0,1,0.001355,-9,-7,1,0,0,0,80,80,105,1,0,,,,,,,,,,,,,,,,,,,,,
,,,,,,,,,,,,,,,,,,,,,,,,,,,,,,,,,,,,,,,,,,5f4d19c88ac21f85ef786134,606c0f24955f79fbad03cf49,2021-04-06_09h36.28.548,Colour_Similarity_Experiment,2020.2.10,Win32,60,6067542a4a25243f4d7d4fcf,17.62242268,16.62818228,16.6187405,16.62028649,16.62059448,16.62059448,,,,,,,,,,,,,,,,,,,,PF,strong,3,,,,,,,,7,1.279975,,,,,,,,,,,,,,,,,,,,,,,,,,,,1,strong,78,117,1,0,0,response1disk,7,82,15,4,1,0,0,rectangle,15,4,1,0,0,0,3,0.000775,15,4,1,0,0,0,81,81,137,1,0,,,,,,,,,,,,,,,,,,,,,
,,,,,,,,,,,,,,,,,,,,,,,,,,,,,,,,,,,,,,,,,,5f4d19c88ac21f85ef786134,606c0f24955f79fbad03cf49,2021-04-06_09h36.28.548,Colour_Similarity_Experiment,2020.2.10,Win32,60,6067542a4a25243f4d7d4fcf,17.62242268,16.62818228,16.6187405,16.62028649,16.62059448,16.62059448,,,,,,,,,,,,,,,,,,,,PF,strong,3,,,,,,,,5,1.57848,,,,,,,,,,,,,,,,,,,,,,,,,,,,2,strong,113,-74,1,0,0,response3disk,5,83,15,-3,1,0,0,rectangle,15,-3,1,0,0,0,0,0.000975,15,-3,1,0,0,0,82,82,80,1,0,,,,,,,,,,,,,,,,,,,,,
,,,,,,,,,,,,,,,,,,,,,,,,,,,,,,,,,,,,,,,,,,5f4d19c88ac21f85ef786134,606c0f24955f79fbad03cf49,2021-04-06_09h36.28.548,Colour_Similarity_Experiment,2020.2.10,Win32,60,6067542a4a25243f4d7d4fcf,17.62242268,16.62818228,16.6187405,16.62028649,16.62059448,16.62059448,,,,,,,,,,,,,,,,,,,,PF,weak,3,,,,,,,,7,1.030645,,,,,,,,,,,,,,,,,,,,,,,,,,,,1,weak,84,93,1,0,0,response1disk,2,84,-28,-4,1,0,0,rectangle,-28,-4,1,0,0,0,5,0.000775,-28,-4,1,0,0,0,83,83,24,1,0,,,,,,,,,,,,,,,,,,,,,
,,,,,,,,,,,,,,,,,,,,,,,,,,,,,,,,,,,,,,,,,,5f4d19c88ac21f85ef786134,606c0f24955f79fbad03cf49,2021-04-06_09h36.28.548,Colour_Similarity_Experiment,2020.2.10,Win32,60,6067542a4a25243f4d7d4fcf,17.62242268,16.62818228,16.6187405,16.62028649,16.62059448,16.62059448,,,,,,,,,,,,,,,,,,,,PF,weak,3,,,,,,,,7,0.847555,,,,,,,,,,,,,,,,,,,,,,,,,,,,2,weak,75,116,1,0,0,response1disk,8,85,-9,-2,1,0,0,rectangle,-9,-2,1,0,0,0,1,0.000955,-9,-2,1,0,0,0,84,84,52,1,0,,,,,,,,,,,,,,,,,,,,,
,,,,,,,,,,,,,,,,,,,,,,,,,,,,,,,,,,,,,,,,,,5f4d19c88ac21f85ef786134,606c0f24955f79fbad03cf49,2021-04-06_09h36.28.548,Colour_Similarity_Experiment,2020.2.10,Win32,60,6067542a4a25243f4d7d4fcf,17.62242268,16.62818228,16.6187405,16.62028649,16.62059448,16.62059448,,,,,,,,,,,,,,,,,,,,PF,weak,3,,,,,,,,7,0.96396,,,,,,,,,,,,,,,,,,,,,,,,,,,,4,weak,60,127,1,0,0,response1disk,9,86,14,14,1,0,0,rectangle,14,14,1,0,0,0,5,0.000835,14,14,1,0,0,0,85,85,75,1,0,,,,,,,,,,,,,,,,,,,,,
,,,,,,,,,,,,,,,,,,,,,,,,,,,,,,,,,,,,,,,,,,5f4d19c88ac21f85ef786134,606c0f24955f79fbad03cf49,2021-04-06_09h36.28.548,Colour_Similarity_Experiment,2020.2.10,Win32,60,6067542a4a25243f4d7d4fcf,17.62242268,16.62818228,16.6187405,16.62028649,16.62059448,16.62059448,,,,,,,,,,,,,,,,,,,,PF,strong,3,,,,,,,,0,1.26261,,,,,,,,,,,,,,,,,,,,,,,,,,,,2,strong,-75,125,1,0,0,response7disk,2,87,-6,9,1,0,0,rectangle,-6,9,1,0,0,0,1,0.000785,-6,9,1,0,0,0,86,86,142,1,0,,,,,,,,,,,,,,,,,,,,,
,,,,,,,,,,,,,,,,,,,,,,,,,,,,,,,,,,,,,,,,,,5f4d19c88ac21f85ef786134,606c0f24955f79fbad03cf49,2021-04-06_09h36.28.548,Colour_Similarity_Experiment,2020.2.10,Win32,60,6067542a4a25243f4d7d4fcf,17.62242268,16.62818228,16.6187405,16.62028649,16.62059448,16.62059448,,,,,,,,,,,,,,,,,,,,PF,strong,3,,,,,,,,4,1.4459,,,,,,,,,,,,,,,,,,,,,,,,,,,,1,strong,43,-121,1,0,0,response3disk,2,88,-7,4,1,0,0,rectangle,-7,4,1,0,0,0,2,0.00134,-7,4,1,0,0,0,87,87,2,1,0,,,,,,,,,,,,,,,,,,,,,
,,,,,,,,,,,,,,,,,,,,,,,,,,,,,,,,,,,,,,,,,,5f4d19c88ac21f85ef786134,606c0f24955f79fbad03cf49,2021-04-06_09h36.28.548,Colour_Similarity_Experiment,2020.2.10,Win32,60,6067542a4a25243f4d7d4fcf,17.62242268,16.62818228,16.6187405,16.62028649,16.62059448,16.62059448,,,,,,,,,,,,,,,,,,,,PF,weak,3,,,,,,,,7,0.962995,,,,,,,,,,,,,,,,,,,,,,,,,,,,1,weak,74,162,1,0,0,response1disk,5,89,1,11,1,0,0,rectangle,1,11,1,0,0,0,7,0.00103,1,11,1,0,0,0,88,88,28,1,0,,,,,,,,,,,,,,,,,,,,,
,,,,,,,,,,,,,,,,,,,,,,,,,,,,,,,,,,,,,,,,,,5f4d19c88ac21f85ef786134,606c0f24955f79fbad03cf49,2021-04-06_09h36.28.548,Colour_Similarity_Experiment,2020.2.10,Win32,60,6067542a4a25243f4d7d4fcf,17.62242268,16.62818228,16.6187405,16.62028649,16.62059448,16.62059448,,,,,,,,,,,,,,,,,,,,PF,strong,3,,,,,,,,6,1.379025,,,,,,,,,,,,,,,,,,,,,,,,,,,,4,strong,154,63,1,0,0,response1disk,6,90,3,-7,1,0,0,rectangle,3,-7,1,0,0,0,5,0.000945,3,-7,1,0,0,0,89,89,122,1,0,,,,,,,,,,,,,,,,,,,,,
,,,,,,,,,,,,,,,,,,,,,,,,,,,,,,,,,,,,,,,,,,5f4d19c88ac21f85ef786134,606c0f24955f79fbad03cf49,2021-04-06_09h36.28.548,Colour_Similarity_Experiment,2020.2.10,Win32,60,6067542a4a25243f4d7d4fcf,17.62242268,16.62818228,16.6187405,16.62028649,16.62059448,16.62059448,,,,,,,,,,,,,,,,,,,,PF,weak,3,,,,,,,,7,0.830865,,,,,,,,,,,,,,,,,,,,,,,,,,,,3,weak,55,120,1,0,0,response1disk,8,91,1,0,1,0,0,rectangle,1,0,1,0,0,0,2,0.00136,1,0,1,0,0,0,90,90,3,1,0,,,,,,,,,,,,,,,,,,,,,
,,,,,,,,,,,,,,,,,,,,,,,,,,,,,,,,,,,,,,,,,,5f4d19c88ac21f85ef786134,606c0f24955f79fbad03cf49,2021-04-06_09h36.28.548,Colour_Similarity_Experiment,2020.2.10,Win32,60,6067542a4a25243f4d7d4fcf,17.62242268,16.62818228,16.6187405,16.62028649,16.62059448,16.62059448,,,,,,,,,,,,,,,,,,,,PF,weak,3,,,,,,,,7,0.730815,,,,,,,,,,,,,,,,,,,,,,,,,,,,7,weak,65,127,1,0,0,response1disk,3,92,7,9,1,0,0,rectangle,7,9,1,0,0,0,0,0.000845,7,9,1,0,0,0,91,91,81,1,0,,,,,,,,,,,,,,,,,,,,,
,,,,,,,,,,,,,,,,,,,,,,,,,,,,,,,,,,,,,,,,,,5f4d19c88ac21f85ef786134,606c0f24955f79fbad03cf49,2021-04-06_09h36.28.548,Colour_Similarity_Experiment,2020.2.10,Win32,60,6067542a4a25243f4d7d4fcf,17.62242268,16.62818228,16.6187405,16.62028649,16.62059448,16.62059448,,,,,,,,,,,,,,,,,,,,PF,weak,3,,,,,,,,7,0.797185,,,,,,,,,,,,,,,,,,,,,,,,,,,,4,weak,44,105,1,0,0,response1disk,8,93,-4,5,1,0,0,rectangle,-4,5,1,0,0,0,7,0.00079,-4,5,1,0,0,0,92,92,124,1,0,,,,,,,,,,,,,,,,,,,,,
,,,,,,,,,,,,,,,,,,,,,,,,,,,,,,,,,,,,,,,,,,5f4d19c88ac21f85ef786134,606c0f24955f79fbad03cf49,2021-04-06_09h36.28.548,Colour_Similarity_Experiment,2020.2.10,Win32,60,6067542a4a25243f4d7d4fcf,17.62242268,16.62818228,16.6187405,16.62028649,16.62059448,16.62059448,,,,,,,,,,,,,,,,,,,,PF,strong,3,,,,,,,,7,0.98098,,,,,,,,,,,,,,,,,,,,,,,,,,,,8,strong,52,104,1,0,0,response1disk,7,94,-8,0,1,0,0,rectangle,-8,0,1,0,0,0,5,0.001295,-8,0,1,0,0,0,93,93,86,1,0,,,,,,,,,,,,,,,,,,,,,
,,,,,,,,,,,,,,,,,,,,,,,,,,,,,,,,,,,,,,,,,,5f4d19c88ac21f85ef786134,606c0f24955f79fbad03cf49,2021-04-06_09h36.28.548,Colour_Similarity_Experiment,2020.2.10,Win32,60,6067542a4a25243f4d7d4fcf,17.62242268,16.62818228,16.6187405,16.62028649,16.62059448,16.62059448,,,,,,,,,,,,,,,,,,,,PF,strong,3,,,,,,,,0,0.91357,,,,,,,,,,,,,,,,,,,,,,,,,,,,8,strong,-55,111,1,0,0,response7disk,8,95,6,-11,1,0,0,rectangle,6,-11,1,0,0,0,3,0.00162,6,-11,1,0,0,0,94,94,48,1,0,,,,,,,,,,,,,,,,,,,,,
,,,,,,,,,,,,,,,,,,,,,,,,,,,,,,,,,,,,,,,,,,5f4d19c88ac21f85ef786134,606c0f24955f79fbad03cf49,2021-04-06_09h36.28.548,Colour_Similarity_Experiment,2020.2.10,Win32,60,6067542a4a25243f4d7d4fcf,17.62242268,16.62818228,16.6187405,16.62028649,16.62059448,16.62059448,,,,,,,,,,,,,,,,,,,,PF,strong,3,,,,,,,,7,2.027615,,,,,,,,,,,,,,,,,,,,,,,,,,,,6,strong,67,70,1,0,0,response1disk,3,96,-6,-17,1,0,0,rectangle,-6,-17,1,0,0,0,0,0.000845,-6,-17,1,0,0,0,95,95,21,1,0,,,,,,,,,,,,,,,,,,,,,
,,,,,,,,,,,,,,,,,,,,,,,,,,,,,,,,,,,,,,,,,,5f4d19c88ac21f85ef786134,606c0f24955f79fbad03cf49,2021-04-06_09h36.28.548,Colour_Similarity_Experiment,2020.2.10,Win32,60,6067542a4a25243f4d7d4fcf,17.62242268,16.62818228,16.6187405,16.62028649,16.62059448,16.62059448,,,,,,,,,,,,,,,,,,,,PF,weak,3,,,,,,,,7,0.83094,,,,,,,,,,,,,,,,,,,,,,,,,,,,9,weak,58,124,1,0,0,response1disk,5,97,-4,16,1,0,0,rectangle,-4,16,1,0,0,0,2,0.00175,-4,16,1,0,0,0,96,96,134,1,0,,,,,,,,,,,,,,,,,,,,,
,,,,,,,,,,,,,,,,,,,,,,,,,,,,,,,,,,,,,,,,,,5f4d19c88ac21f85ef786134,606c0f24955f79fbad03cf49,2021-04-06_09h36.28.548,Colour_Similarity_Experiment,2020.2.10,Win32,60,6067542a4a25243f4d7d4fcf,17.62242268,16.62818228,16.6187405,16.62028649,16.62059448,16.62059448,,,,,,,,,,,,,,,,,,,,PF,weak,3,,,,,,,,3,1.113195,,,,,,,,,,,,,,,,,,,,,,,,,,,,3,weak,-58,-87,1,0,0,response5disk,4,98,0,6,1,0,0,rectangle,0,6,1,0,0,0,1,0.00076,0,6,1,0,0,0,97,97,30,1,0,,,,,,,,,,,,,,,,,,,,,
,,,,,,,,,,,,,,,,,,,,,,,,,,,,,,,,,,,,,,,,,,5f4d19c88ac21f85ef786134,606c0f24955f79fbad03cf49,2021-04-06_09h36.28.548,Colour_Similarity_Experiment,2020.2.10,Win32,60,6067542a4a25243f4d7d4fcf,17.62242268,16.62818228,16.6187405,16.62028649,16.62059448,16.62059448,,,,,,,,,,,,,,,,,,,,PF,weak,3,,,,,,,,7,0.79791,,,,,,,,,,,,,,,,,,,,,,,,,,,,2,weak,61,118,1,0,0,response1disk,5,99,3,9,1,0,0,rectangle,3,9,1,0,0,0,2,0.001705,3,9,1,0,0,0,98,98,147,1,0,,,,,,,,,,,,,,,,,,,,,
,,,,,,,,,,,,,,,,,,,,,,,,,,,,,,,,,,,,,,,,,,5f4d19c88ac21f85ef786134,606c0f24955f79fbad03cf49,2021-04-06_09h36.28.548,Colour_Similarity_Experiment,2020.2.10,Win32,60,6067542a4a25243f4d7d4fcf,17.62242268,16.62818228,16.6187405,16.62028649,16.62059448,16.62059448,,,,,,,,,,,,,,,,,,,,PF,weak,3,,,,,,,,7,0.7974,,,,,,,,,,,,,,,,,,,,,,,,,,,,7,weak,75,120,1,0,0,response1disk,9,100,1,-9,1,0,0,rectangle,1,-9,1,0,0,0,3,0.001355,1,-9,1,0,0,0,99,99,10,1,0,,,,,,,,,,,,,,,,,,,,,
,,,,,,,,,,,,,,,,,,,,,,,,,,,,,,,,,,,,,,,,,,5f4d19c88ac21f85ef786134,606c0f24955f79fbad03cf49,2021-04-06_09h36.28.548,Colour_Similarity_Experiment,2020.2.10,Win32,60,6067542a4a25243f4d7d4fcf,17.62242268,16.62818228,16.6187405,16.62028649,16.62059448,16.62059448,,,,,,,,,,,,,,,,,,,,PF,weak,3,,,,,,,,3,1.594365,,,,,,,,,,,,,,,,,,,,,,,,,,,,5,weak,-47,-101,1,0,0,response5disk,4,101,2,-15,1,0,0,rectangle,2,-15,1,0,0,0,5,0.00066,2,-15,1,0,0,0,100,100,54,1,0,,,,,,,,,,,,,,,,,,,,,
,,,,,,,,,,,,,,,,,,,,,,,,,,,,,,,,,,,,,,,,,,5f4d19c88ac21f85ef786134,606c0f24955f79fbad03cf49,2021-04-06_09h36.28.548,Colour_Similarity_Experiment,2020.2.10,Win32,60,6067542a4a25243f4d7d4fcf,17.62242268,16.62818228,16.6187405,16.62028649,16.62059448,16.62059448,,,,,,,,,,,,,,,,,,,,PF,weak,3,,,,,,,,7,0.93078,,,,,,,,,,,,,,,,,,,,,,,,,,,,1,weak,84,119,1,0,0,response1disk,3,102,-3,-14,1,0,0,rectangle,-3,-14,1,0,0,0,3,0.00102,-3,-14,1,0,0,0,101,101,1,1,0,,,,,,,,,,,,,,,,,,,,,
,,,,,,,,,,,,,,,,,,,,,,,,,,,,,,,,,,,,,,,,,,5f4d19c88ac21f85ef786134,606c0f24955f79fbad03cf49,2021-04-06_09h36.28.548,Colour_Similarity_Experiment,2020.2.10,Win32,60,6067542a4a25243f4d7d4fcf,17.62242268,16.62818228,16.6187405,16.62028649,16.62059448,16.62059448,,,,,,,,,,,,,,,,,,,,PF,strong,3,,,,,,,,7,1.545715,,,,,,,,,,,,,,,,,,,,,,,,,,,,9,strong,52,95,1,0,0,response1disk,4,103,0,0,1,0,0,rectangle,0,0,1,0,0,0,2,0.001425,0,0,1,0,0,0,102,102,60,1,0,,,,,,,,,,,,,,,,,,,,,
,,,,,,,,,,,,,,,,,,,,,,,,,,,,,,,,,,,,,,,,,,5f4d19c88ac21f85ef786134,606c0f24955f79fbad03cf49,2021-04-06_09h36.28.548,Colour_Similarity_Experiment,2020.2.10,Win32,60,6067542a4a25243f4d7d4fcf,17.62242268,16.62818228,16.6187405,16.62028649,16.62059448,16.62059448,,,,,,,,,,,,,,,,,,,,PF,strong,3,,,,,,,,1,2.01044,,,,,,,,,,,,,,,,,,,,,,,,,,,,7,strong,-85,81,1,0,0,response7disk,6,104,20,5,1,0,0,rectangle,20,5,1,0,0,0,4,0.000875,20,5,1,0,0,0,103,103,31,1,0,,,,,,,,,,,,,,,,,,,,,
,,,,,,,,,,,,,,,,,,,,,,,,,,,,,,,,,,,,,,,,,,5f4d19c88ac21f85ef786134,606c0f24955f79fbad03cf49,2021-04-06_09h36.28.548,Colour_Similarity_Experiment,2020.2.10,Win32,60,6067542a4a25243f4d7d4fcf,17.62242268,16.62818228,16.6187405,16.62028649,16.62059448,16.62059448,,,,,,,,,,,,,,,,,,,,PF,strong,3,,,,,,,,3,1.19588,,,,,,,,,,,,,,,,,,,,,,,,,,,,6,strong,-33,-84,1,0,0,response5disk,7,105,9,-4,1,0,0,rectangle,9,-4,1,0,0,0,1,0.001215,9,-4,1,0,0,0,104,104,18,1,0,,,,,,,,,,,,,,,,,,,,,
,,,,,,,,,,,,,,,,,,,,,,,,,,,,,,,,,,,,,,,,,,5f4d19c88ac21f85ef786134,606c0f24955f79fbad03cf49,2021-04-06_09h36.28.548,Colour_Similarity_Experiment,2020.2.10,Win32,60,6067542a4a25243f4d7d4fcf,17.62242268,16.62818228,16.6187405,16.62028649,16.62059448,16.62059448,,,,,,,,,,,,,,,,,,,,PF,weak,3,,,,,,,,7,0.8816,,,,,,,,,,,,,,,,,,,,,,,,,,,,1,weak,78,102,1,0,0,response1disk,4,106,8,-4,1,0,0,rectangle,8,-4,1,0,0,0,5,0.000795,8,-4,1,0,0,0,105,105,139,1,0,,,,,,,,,,,,,,,,,,,,,
,,,,,,,,,,,,,,,,,,,,,,,,,,,,,,,,,,,,,,,,,,5f4d19c88ac21f85ef786134,606c0f24955f79fbad03cf49,2021-04-06_09h36.28.548,Colour_Similarity_Experiment,2020.2.10,Win32,60,6067542a4a25243f4d7d4fcf,17.62242268,16.62818228,16.6187405,16.62028649,16.62059448,16.62059448,,,,,,,,,,,,,,,,,,,,PF,strong,3,,,,,,,,7,1.02634,,,,,,,,,,,,,,,,,,,,,,,,,,,,3,strong,45,96,1,0,0,response1disk,7,107,-8,1,1,0,0,rectangle,-8,1,1,0,0,0,5,0.000225,-8,1,1,0,0,0,106,106,118,1,0,,,,,,,,,,,,,,,,,,,,,
,,,,,,,,,,,,,,,,,,,,,,,,,,,,,,,,,,,,,,,,,,5f4d19c88ac21f85ef786134,606c0f24955f79fbad03cf49,2021-04-06_09h36.28.548,Colour_Similarity_Experiment,2020.2.10,Win32,60,6067542a4a25243f4d7d4fcf,17.62242268,16.62818228,16.6187405,16.62028649,16.62059448,16.62059448,,,,,,,,,,,,,,,,,,,,PF,strong,3,,,,,,,,1,1.89436,,,,,,,,,,,,,,,,,,,,,,,,,,,,4,strong,-107,46,1,0,0,response7disk,3,108,-39,-7,1,0,0,rectangle,-39,-7,1,0,0,0,5,7.5E-05,-39,-7,1,0,0,0,107,107,77,1,0,,,,,,,,,,,,,,,,,,,,,
,,,,,,,,,,,,,,,,,,,,,,,,,,,,,,,,,,,,,,,,,,5f4d19c88ac21f85ef786134,606c0f24955f79fbad03cf49,2021-04-06_09h36.28.548,Colour_Similarity_Experiment,2020.2.10,Win32,60,6067542a4a25243f4d7d4fcf,17.62242268,16.62818228,16.6187405,16.62028649,16.62059448,16.62059448,,,,,,,,,,,,,,,,,,,,PF,strong,3,,,,,,,,5,1.79382,,,,,,,,,,,,,,,,,,,,,,,,,,,,8,strong,122,-67,1,0,0,response3disk,6,109,9,3,1,0,0,rectangle,9,3,1,0,0,0,5,0.0002,9,3,1,0,0,0,108,108,37,1,0,,,,,,,,,,,,,,,,,,,,,
,,,,,,,,,,,,,,,,,,,,,,,,,,,,,,,,,,,,,,,,,,5f4d19c88ac21f85ef786134,606c0f24955f79fbad03cf49,2021-04-06_09h36.28.548,Colour_Similarity_Experiment,2020.2.10,Win32,60,6067542a4a25243f4d7d4fcf,17.62242268,16.62818228,16.6187405,16.62028649,16.62059448,16.62059448,,,,,,,,,,,,,,,,,,,,PF,strong,3,,,,,,,,4,1.445175,,,,,,,,,,,,,,,,,,,,,,,,,,,,3,strong,86,-109,1,0,0,response3disk,2,110,20,-4,1,0,0,rectangle,20,-4,1,0,0,0,0,0.001075,20,-4,1,0,0,0,109,109,93,1,0,,,,,,,,,,,,,,,,,,,,,
,,,,,,,,,,,,,,,,,,,,,,,,,,,,,,,,,,,,,,,,,,5f4d19c88ac21f85ef786134,606c0f24955f79fbad03cf49,2021-04-06_09h36.28.548,Colour_Similarity_Experiment,2020.2.10,Win32,60,6067542a4a25243f4d7d4fcf,17.62242268,16.62818228,16.6187405,16.62028649,16.62059448,16.62059448,,,,,,,,,,,,,,,,,,,,PF,strong,3,,,,,,,,7,0.96376,,,,,,,,,,,,,,,,,,,,,,,,,,,,4,strong,90,129,1,0,0,response1disk,8,111,29,6,1,0,0,rectangle,29,6,1,0,0,0,5,0.001135,29,6,1,0,0,0,110,110,35,1,0,,,,,,,,,,,,,,,,,,,,,
,,,,,,,,,,,,,,,,,,,,,,,,,,,,,,,,,,,,,,,,,,5f4d19c88ac21f85ef786134,606c0f24955f79fbad03cf49,2021-04-06_09h36.28.548,Colour_Similarity_Experiment,2020.2.10,Win32,60,6067542a4a25243f4d7d4fcf,17.62242268,16.62818228,16.6187405,16.62028649,16.62059448,16.62059448,,,,,,,,,,,,,,,,,,,,PF,strong,3,,,,,,,,5,1.66194,,,,,,,,,,,,,,,,,,,,,,,,,,,,1,strong,97,-90,1,0,0,response3disk,9,112,11,0,1,0,0,rectangle,11,0,1,0,0,0,5,0.00021,11,0,1,0,0,0,111,111,123,1,0,,,,,,,,,,,,,,,,,,,,,
,,,,,,,,,,,,,,,,,,,,,,,,,,,,,,,,,,,,,,,,,,5f4d19c88ac21f85ef786134,606c0f24955f79fbad03cf49,2021-04-06_09h36.28.548,Colour_Similarity_Experiment,2020.2.10,Win32,60,6067542a4a25243f4d7d4fcf,17.62242268,16.62818228,16.6187405,16.62028649,16.62059448,16.62059448,,,,,,,,,,,,,,,,,,,,PF,weak,3,,,,,,,,0,0.83125,,,,,,,,,,,,,,,,,,,,,,,,,,,,6,weak,-80,103,1,0,0,response7disk,6,113,-4,2,1,0,0,rectangle,-4,2,1,0,0,0,1,0.00096,-4,2,1,0,0,0,112,112,0,1,0,,,,,,,,,,,,,,,,,,,,,
,,,,,,,,,,,,,,,,,,,,,,,,,,,,,,,,,,,,,,,,,,5f4d19c88ac21f85ef786134,606c0f24955f79fbad03cf49,2021-04-06_09h36.28.548,Colour_Similarity_Experiment,2020.2.10,Win32,60,6067542a4a25243f4d7d4fcf,17.62242268,16.62818228,16.6187405,16.62028649,16.62059448,16.62059448,,,,,,,,,,,,,,,,,,,,PF,weak,3,,,,,,,,7,0.86375,,,,,,,,,,,,,,,,,,,,,,,,,,,,7,weak,75,96,1,0,0,response1disk,1,114,12,-4,1,0,0,rectangle,12,-4,1,0,0,0,3,0.00124,12,-4,1,0,0,0,113,113,53,1,0,,,,,,,,,,,,,,,,,,,,,
,,,,,,,,,,,,,,,,,,,,,,,,,,,,,,,,,,,,,,,,,,5f4d19c88ac21f85ef786134,606c0f24955f79fbad03cf49,2021-04-06_09h36.28.548,Colour_Similarity_Experiment,2020.2.10,Win32,60,6067542a4a25243f4d7d4fcf,17.62242268,16.62818228,16.6187405,16.62028649,16.62059448,16.62059448,,,,,,,,,,,,,,,,,,,,PF,strong,3,,,,,,,,5,1.927835,,,,,,,,,,,,,,,,,,,,,,,,,,,,7,strong,92,-34,1,0,0,response3disk,9,115,-10,17,1,0,0,rectangle,-10,17,1,0,0,0,6,0.00101,-10,17,1,0,0,0,114,114,155,1,0,,,,,,,,,,,,,,,,,,,,,
,,,,,,,,,,,,,,,,,,,,,,,,,,,,,,,,,,,,,,,,,,5f4d19c88ac21f85ef786134,606c0f24955f79fbad03cf49,2021-04-06_09h36.28.548,Colour_Similarity_Experiment,2020.2.10,Win32,60,6067542a4a25243f4d7d4fcf,17.62242268,16.62818228,16.6187405,16.62028649,16.62059448,16.62059448,,,,,,,,,,,,,,,,,,,,PF,weak,3,,,,,,,,6,1.52839,,,,,,,,,,,,,,,,,,,,,,,,,,,,8,weak,133,49,1,0,0,response1disk,6,116,18,-10,1,0,0,rectangle,-123,42,1,0,0,1,1,1.71178,8,-4,1,0,0,0,115,115,161,1,1,response7disk_3,rectangle,,,,,,,,,,,,,,,,,,,
,,,,,,,,,,,,,,,,,,,,,,,,,,,,,,,,,,,,,,,,,,5f4d19c88ac21f85ef786134,606c0f24955f79fbad03cf49,2021-04-06_09h36.28.548,Colour_Similarity_Experiment,2020.2.10,Win32,60,6067542a4a25243f4d7d4fcf,17.62242268,16.62818228,16.6187405,16.62028649,16.62059448,16.62059448,,,,,,,,,,,,,,,,,,,,PF,strong,3,,,,,,,,2,2.01133,,,,,,,,,,,,,,,,,,,,,,,,,,,,5,strong,-105,-44,1,0,0,response5disk,5,117,-4,15,1,0,0,rectangle,-4,15,1,0,0,1,1,8E-05,-4,15,1,0,0,0,116,116,19,1,0,,,,,,,,,,,,,,,,,,,,,
,,,,,,,,,,,,,,,,,,,,,,,,,,,,,,,,,,,,,,,,,,5f4d19c88ac21f85ef786134,606c0f24955f79fbad03cf49,2021-04-06_09h36.28.548,Colour_Similarity_Experiment,2020.2.10,Win32,60,6067542a4a25243f4d7d4fcf,17.62242268,16.62818228,16.6187405,16.62028649,16.62059448,16.62059448,,,,,,,,,,,,,,,,,,,,PF,strong,3,,,,,,,,7,1.09612,,,,,,,,,,,,,,,,,,,,,,,,,,,,2,strong,80,88,1,0,0,response1disk,9,118,-3,6,1,0,0,rectangle,-3,6,1,0,0,1,5,0.001045,-3,6,1,0,0,0,117,117,72,1,0,,,,,,,,,,,,,,,,,,,,,
,,,,,,,,,,,,,,,,,,,,,,,,,,,,,,,,,,,,,,,,,,5f4d19c88ac21f85ef786134,606c0f24955f79fbad03cf49,2021-04-06_09h36.28.548,Colour_Similarity_Experiment,2020.2.10,Win32,60,6067542a4a25243f4d7d4fcf,17.62242268,16.62818228,16.6187405,16.62028649,16.62059448,16.62059448,,,,,,,,,,,,,,,,,,,,PF,strong,3,,,,,,,,7,1.794395,,,,,,,,,,,,,,,,,,,,,,,,,,,,1,strong,88,103,1,0,0,response1disk,3,119,-23,10,1,0,0,rectangle,-23,10,1,0,0,1,4,0.001295,-23,10,1,0,0,0,118,118,99,1,0,,,,,,,,,,,,,,,,,,,,,
,,,,,,,,,,,,,,,,,,,,,,,,,,,,,,,,,,,,,,,,,,5f4d19c88ac21f85ef786134,606c0f24955f79fbad03cf49,2021-04-06_09h36.28.548,Colour_Similarity_Experiment,2020.2.10,Win32,60,6067542a4a25243f4d7d4fcf,17.62242268,16.62818228,16.6187405,16.62028649,16.62059448,16.62059448,,,,,,,,,,,,,,,,,,,,PF,weak,3,,,,,,,,6,1.44617,,,,,,,,,,,,,,,,,,,,,,,,,,,,6,weak,122,69,1,0,0,response1disk,4,120,-13,-19,1,0,0,rectangle,-13,-19,1,0,0,1,4,0.00015,-13,-19,1,0,0,0,119,119,33,1,0,,,,,,,,,,,,,,,,,,,,,
,,,,,,,,,,,,,,,,,,,,,,,,,,,,,,,,,,,,,,,,,,5f4d19c88ac21f85ef786134,606c0f24955f79fbad03cf49,2021-04-06_09h36.28.548,Colour_Similarity_Experiment,2020.2.10,Win32,60,6067542a4a25243f4d7d4fcf,17.62242268,16.62818228,16.6187405,16.62028649,16.62059448,16.62059448,,,,,,,,,,,,,,,,,,,,PF,strong,3,,,,,,,,6,1.16411,,,,,,,,,,,,,,,,,,,,,,,,,,,,5,strong,107,39,1,0,0,response1disk,2,121,2,-4,1,0,0,rectangle,124,55,1,0,0,6,6,2.026615,-1,-3,1,0,0,0,120,120,55,1,1,response1disk_3,rectangle,,,,,,,,,,,,,,,,,,,
,,,,,,,,,,,,,,,,,,,,,,,,,,,,,,,,,,,,,,,,,,5f4d19c88ac21f85ef786134,606c0f24955f79fbad03cf49,2021-04-06_09h36.28.548,Colour_Similarity_Experiment,2020.2.10,Win32,60,6067542a4a25243f4d7d4fcf,17.62242268,16.62818228,16.6187405,16.62028649,16.62059448,16.62059448,,,,,,,,,,,,,,,,,,,,PF,weak,3,,,,,,,,6,1.08087,,,,,,,,,,,,,,,,,,,,,,,,,,,,2,weak,123,87,1,0,0,response1disk,9,122,-21,-7,1,0,0,rectangle,-21,-7,1,0,0,6,1,0.000925,-21,-7,1,0,0,0,121,121,39,1,0,,,,,,,,,,,,,,,,,,,,,
,,,,,,,,,,,,,,,,,,,,,,,,,,,,,,,,,,,,,,,,,,5f4d19c88ac21f85ef786134,606c0f24955f79fbad03cf49,2021-04-06_09h36.28.548,Colour_Similarity_Experiment,2020.2.10,Win32,60,6067542a4a25243f4d7d4fcf,17.62242268,16.62818228,16.6187405,16.62028649,16.62059448,16.62059448,,,,,,,,,,,,,,,,,,,,PF,strong,3,,,,,,,,0,1.229845,,,,,,,,,,,,,,,,,,,,,,,,,,,,9,strong,-81,102,1,0,0,response7disk,9,123,-1,15,1,0,0,rectangle,-1,15,1,0,0,6,4,0.000795,-1,15,1,0,0,0,122,122,17,1,0,,,,,,,,,,,,,,,,,,,,,
,,,,,,,,,,,,,,,,,,,,,,,,,,,,,,,,,,,,,,,,,,5f4d19c88ac21f85ef786134,606c0f24955f79fbad03cf49,2021-04-06_09h36.28.548,Colour_Similarity_Experiment,2020.2.10,Win32,60,6067542a4a25243f4d7d4fcf,17.62242268,16.62818228,16.6187405,16.62028649,16.62059448,16.62059448,,,,,,,,,,,,,,,,,,,,PF,weak,3,,,,,,,,7,0.863995,,,,,,,,,,,,,,,,,,,,,,,,,,,,1,weak,99,138,1,0,0,response1disk,6,124,-12,-5,1,0,0,rectangle,-12,-5,1,0,0,6,2,0.000865,-12,-5,1,0,0,0,123,123,144,1,0,,,,,,,,,,,,,,,,,,,,,
,,,,,,,,,,,,,,,,,,,,,,,,,,,,,,,,,,,,,,,,,,5f4d19c88ac21f85ef786134,606c0f24955f79fbad03cf49,2021-04-06_09h36.28.548,Colour_Similarity_Experiment,2020.2.10,Win32,60,6067542a4a25243f4d7d4fcf,17.62242268,16.62818228,16.6187405,16.62028649,16.62059448,16.62059448,,,,,,,,,,,,,,,,,,,,PF,weak,3,,,,,,,,7,1.097165,,,,,,,,,,,,,,,,,,,,,,,,,,,,5,weak,88,127,1,0,0,response1disk,2,125,-2,0,1,0,0,rectangle,-2,0,1,0,0,6,2,7E-05,-2,0,1,0,0,0,124,124,129,1,0,,,,,,,,,,,,,,,,,,,,,
,,,,,,,,,,,,,,,,,,,,,,,,,,,,,,,,,,,,,,,,,,5f4d19c88ac21f85ef786134,606c0f24955f79fbad03cf49,2021-04-06_09h36.28.548,Colour_Similarity_Experiment,2020.2.10,Win32,60,6067542a4a25243f4d7d4fcf,17.62242268,16.62818228,16.6187405,16.62028649,16.62059448,16.62059448,,,,,,,,,,,,,,,,,,,,PF,weak,3,,,,,,,,6,1.262745,,,,,,,,,,,,,,,,,,,,,,,,,,,,6,weak,112,77,1,0,0,response1disk,3,126,-4,-13,1,0,0,rectangle,-4,-13,1,0,0,6,7,0.00105,-4,-13,1,0,0,0,125,125,26,1,0,,,,,,,,,,,,,,,,,,,,,
,,,,,,,,,,,,,,,,,,,,,,,,,,,,,,,,,,,,,,,,,,5f4d19c88ac21f85ef786134,606c0f24955f79fbad03cf49,2021-04-06_09h36.28.548,Colour_Similarity_Experiment,2020.2.10,Win32,60,6067542a4a25243f4d7d4fcf,17.62242268,16.62818228,16.6187405,16.62028649,16.62059448,16.62059448,,,,,,,,,,,,,,,,,,,,PF,strong,3,,,,,,,,7,1.262635,,,,,,,,,,,,,,,,,,,,,,,,,,,,3,strong,80,109,1,0,0,response1disk,1,127,-5,-5,1,0,0,rectangle,-5,-5,1,0,0,6,5,0.000805,-5,-5,1,0,0,0,126,126,125,1,0,,,,,,,,,,,,,,,,,,,,,
,,,,,,,,,,,,,,,,,,,,,,,,,,,,,,,,,,,,,,,,,,5f4d19c88ac21f85ef786134,606c0f24955f79fbad03cf49,2021-04-06_09h36.28.548,Colour_Similarity_Experiment,2020.2.10,Win32,60,6067542a4a25243f4d7d4fcf,17.62242268,16.62818228,16.6187405,16.62028649,16.62059448,16.62059448,,,,,,,,,,,,,,,,,,,,PF,weak,3,,,,,,,,0,0.9139,,,,,,,,,,,,,,,,,,,,,,,,,,,,8,weak,-62,133,1,0,0,response7disk,8,128,5,9,1,0,0,rectangle,5,9,1,0,0,6,3,0.001675,5,9,1,0,0,0,127,127,153,1,0,,,,,,,,,,,,,,,,,,,,,
,,,,,,,,,,,,,,,,,,,,,,,,,,,,,,,,,,,,,,,,,,5f4d19c88ac21f85ef786134,606c0f24955f79fbad03cf49,2021-04-06_09h36.28.548,Colour_Similarity_Experiment,2020.2.10,Win32,60,6067542a4a25243f4d7d4fcf,17.62242268,16.62818228,16.6187405,16.62028649,16.62059448,16.62059448,,,,,,,,,,,,,,,,,,,,PF,strong,3,,,,,,,,4,1.74463,,,,,,,,,,,,,,,,,,,,,,,,,,,,9,strong,46,-109,1,0,0,response3disk,8,129,0,9,1,0,0,rectangle,0,9,1,0,0,6,3,0.00022,0,9,1,0,0,0,128,128,6,1,0,,,,,,,,,,,,,,,,,,,,,
,,,,,,,,,,,,,,,,,,,,,,,,,,,,,,,,,,,,,,,,,,5f4d19c88ac21f85ef786134,606c0f24955f79fbad03cf49,2021-04-06_09h36.28.548,Colour_Similarity_Experiment,2020.2.10,Win32,60,6067542a4a25243f4d7d4fcf,17.62242268,16.62818228,16.6187405,16.62028649,16.62059448,16.62059448,,,,,,,,,,,,,,,,,,,,PF,weak,3,,,,,,,,7,1.328775,,,,,,,,,,,,,,,,,,,,,,,,,,,,4,weak,89,117,1,0,0,response1disk,1,130,7,3,1,0,0,rectangle,7,3,1,0,0,6,5,0.002785,7,3,1,0,0,0,129,129,115,1,0,,,,,,,,,,,,,,,,,,,,,
,,,,,,,,,,,,,,,,,,,,,,,,,,,,,,,,,,,,,,,,,,5f4d19c88ac21f85ef786134,606c0f24955f79fbad03cf49,2021-04-06_09h36.28.548,Colour_Similarity_Experiment,2020.2.10,Win32,60,6067542a4a25243f4d7d4fcf,17.62242268,16.62818228,16.6187405,16.62028649,16.62059448,16.62059448,,,,,,,,,,,,,,,,,,,,PF,weak,3,,,,,,,,5,1.34647,,,,,,,,,,,,,,,,,,,,,,,,,,,,8,weak,127,-63,1,0,0,response3disk,7,131,-5,8,1,0,0,rectangle,-5,8,1,0,0,6,0,0.001865,-5,8,1,0,0,0,130,130,23,1,0,,,,,,,,,,,,,,,,,,,,,
,,,,,,,,,,,,,,,,,,,,,,,,,,,,,,,,,,,,,,,,,,5f4d19c88ac21f85ef786134,606c0f24955f79fbad03cf49,2021-04-06_09h36.28.548,Colour_Similarity_Experiment,2020.2.10,Win32,60,6067542a4a25243f4d7d4fcf,17.62242268,16.62818228,16.6187405,16.62028649,16.62059448,16.62059448,,,,,,,,,,,,,,,,,,,,PF,weak,3,,,,,,,,7,1.07992,,,,,,,,,,,,,,,,,,,,,,,,,,,,2,weak,62,135,1,0,0,response1disk,7,132,-10,-15,1,0,0,rectangle,-10,-15,1,0,0,6,0,0.00016,-10,-15,1,0,0,0,131,131,107,1,0,,,,,,,,,,,,,,,,,,,,,
,,,,,,,,,,,,,,,,,,,,,,,,,,,,,,,,,,,,,,,,,,5f4d19c88ac21f85ef786134,606c0f24955f79fbad03cf49,2021-04-06_09h36.28.548,Colour_Similarity_Experiment,2020.2.10,Win32,60,6067542a4a25243f4d7d4fcf,17.62242268,16.62818228,16.6187405,16.62028649,16.62059448,16.62059448,,,,,,,,,,,,,,,,,,,,PF,weak,3,,,,,,,,7,1.03018,,,,,,,,,,,,,,,,,,,,,,,,,,,,9,weak,50,94,1,0,0,response1disk,7,133,9,-17,1,0,0,rectangle,9,-17,1,0,0,6,1,0.00103,9,-17,1,0,0,0,132,132,121,1,0,,,,,,,,,,,,,,,,,,,,,
,,,,,,,,,,,,,,,,,,,,,,,,,,,,,,,,,,,,,,,,,,5f4d19c88ac21f85ef786134,606c0f24955f79fbad03cf49,2021-04-06_09h36.28.548,Colour_Similarity_Experiment,2020.2.10,Win32,60,6067542a4a25243f4d7d4fcf,17.62242268,16.62818228,16.6187405,16.62028649,16.62059448,16.62059448,,,,,,,,,,,,,,,,,,,,PF,weak,3,,,,,,,,7,1.03086,,,,,,,,,,,,,,,,,,,,,,,,,,,,3,weak,90,140,1,0,0,response1disk,9,134,11,-8,1,0,0,rectangle,11,-8,1,0,0,6,7,0.002665,11,-8,1,0,0,0,133,133,79,1,0,,,,,,,,,,,,,,,,,,,,,
,,,,,,,,,,,,,,,,,,,,,,,,,,,,,,,,,,,,,,,,,,5f4d19c88ac21f85ef786134,606c0f24955f79fbad03cf49,2021-04-06_09h36.28.548,Colour_Similarity_Experiment,2020.2.10,Win32,60,6067542a4a25243f4d7d4fcf,17.62242268,16.62818228,16.6187405,16.62028649,16.62059448,16.62059448,,,,,,,,,,,,,,,,,,,,PF,strong,3,,,,,,,,3,1.56199,,,,,,,,,,,,,,,,,,,,,,,,,,,,9,strong,-39,-105,1,0,0,response5disk,1,135,24,4,1,0,0,rectangle,24,4,1,0,0,6,5,0.00178,24,4,1,0,0,0,134,134,111,1,0,,,,,,,,,,,,,,,,,,,,,
,,,,,,,,,,,,,,,,,,,,,,,,,,,,,,,,,,,,,,,,,,5f4d19c88ac21f85ef786134,606c0f24955f79fbad03cf49,2021-04-06_09h36.28.548,Colour_Similarity_Experiment,2020.2.10,Win32,60,6067542a4a25243f4d7d4fcf,17.62242268,16.62818228,16.6187405,16.62028649,16.62059448,16.62059448,,,,,,,,,,,,,,,,,,,,PF,weak,3,,,,,,,,4,1.162915,,,,,,,,,,,,,,,,,,,,,,,,,,,,6,weak,41,-96,1,0,0,response3disk,5,136,-2,-3,1,0,0,rectangle,-2,-3,1,0,0,6,3,0.001,-2,-3,1,0,0,0,135,135,59,1,0,,,,,,,,,,,,,,,,,,,,,
,,,,,,,,,,,,,,,,,,,,,,,,,,,,,,,,,,,,,,,,,,5f4d19c88ac21f85ef786134,606c0f24955f79fbad03cf49,2021-04-06_09h36.28.548,Colour_Similarity_Experiment,2020.2.10,Win32,60,6067542a4a25243f4d7d4fcf,17.62242268,16.62818228,16.6187405,16.62028649,16.62059448,16.62059448,,,,,,,,,,,,,,,,,,,,PF,strong,3,,,,,,,,6,1.69552,,,,,,,,,,,,,,,,,,,,,,,,,,,,6,strong,108,65,1,0,0,response1disk,2,137,29,9,1,0,0,rectangle,29,9,1,0,0,6,2,0.001695,29,9,1,0,0,0,136,136,112,1,0,,,,,,,,,,,,,,,,,,,,,
,,,,,,,,,,,,,,,,,,,,,,,,,,,,,,,,,,,,,,,,,,5f4d19c88ac21f85ef786134,606c0f24955f79fbad03cf49,2021-04-06_09h36.28.548,Colour_Similarity_Experiment,2020.2.10,Win32,60,6067542a4a25243f4d7d4fcf,17.62242268,16.62818228,16.6187405,16.62028649,16.62059448,16.62059448,,,,,,,,,,,,,,,,,,,,PF,weak,3,,,,,,,,7,1.64568,,,,,,,,,,,,,,,,,,,,,,,,,,,,1,weak,73,109,1,0,0,response1disk,8,138,11,-7,1,0,0,rectangle,11,-7,1,0,0,6,2,7.99999E-05,11,-7,1,0,0,0,137,137,65,1,0,,,,,,,,,,,,,,,,,,,,,
,,,,,,,,,,,,,,,,,,,,,,,,,,,,,,,,,,,,,,,,,,5f4d19c88ac21f85ef786134,606c0f24955f79fbad03cf49,2021-04-06_09h36.28.548,Colour_Similarity_Experiment,2020.2.10,Win32,60,6067542a4a25243f4d7d4fcf,17.62242268,16.62818228,16.6187405,16.62028649,16.62059448,16.62059448,,,,,,,,,,,,,,,,,,,,PF,strong,3,,,,,,,,4,1.32973,,,,,,,,,,,,,,,,,,,,,,,,,,,,4,strong,43,-87,1,0,0,response3disk,1,139,5,8,1,0,0,rectangle,5,8,1,0,0,6,2,7.5E-05,5,8,1,0,0,0,138,138,102,1,0,,,,,,,,,,,,,,,,,,,,,
,,,,,,,,,,,,,,,,,,,,,,,,,,,,,,,,,,,,,,,,,,5f4d19c88ac21f85ef786134,606c0f24955f79fbad03cf49,2021-04-06_09h36.28.548,Colour_Similarity_Experiment,2020.2.10,Win32,60,6067542a4a25243f4d7d4fcf,17.62242268,16.62818228,16.6187405,16.62028649,16.62059448,16.62059448,,,,,,,,,,,,,,,,,,,,PF,strong,3,,,,,,,,3,1.29645,,,,,,,,,,,,,,,,,,,,,,,,,,,,5,strong,-63,-97,1,0,0,response5disk,6,140,-3,2,1,0,0,rectangle,-3,2,1,0,0,6,3,0.001385,-3,2,1,0,0,0,139,139,12,1,0,,,,,,,,,,,,,,,,,,,,,
,,,,,,,,,,,,,,,,,,,,,,,,,,,,,,,,,,,,,,,,,,5f4d19c88ac21f85ef786134,606c0f24955f79fbad03cf49,2021-04-06_09h36.28.548,Colour_Similarity_Experiment,2020.2.10,Win32,60,6067542a4a25243f4d7d4fcf,17.62242268,16.62818228,16.6187405,16.62028649,16.62059448,16.62059448,,,,,,,,,,,,,,,,,,,,PF,strong,3,,,,,,,,7,1.130375,,,,,,,,,,,,,,,,,,,,,,,,,,,,4,strong,91,117,1,0,0,response1disk,2,141,21,7,1,0,0,rectangle,21,7,1,0,0,6,2,0.00119,21,7,1,0,0,0,140,140,13,1,0,,,,,,,,,,,,,,,,,,,,,
,,,,,,,,,,,,,,,,,,,,,,,,,,,,,,,,,,,,,,,,,,5f4d19c88ac21f85ef786134,606c0f24955f79fbad03cf49,2021-04-06_09h36.28.548,Colour_Similarity_Experiment,2020.2.10,Win32,60,6067542a4a25243f4d7d4fcf,17.62242268,16.62818228,16.6187405,16.62028649,16.62059448,16.62059448,,,,,,,,,,,,,,,,,,,,PF,strong,3,,,,,,,,7,1.21266,,,,,,,,,,,,,,,,,,,,,,,,,,,,6,strong,42,125,1,0,0,response1disk,1,142,-14,2,1,0,0,rectangle,-14,2,1,0,0,6,3,0.00076,-14,2,1,0,0,0,141,141,5,1,0,,,,,,,,,,,,,,,,,,,,,
,,,,,,,,,,,,,,,,,,,,,,,,,,,,,,,,,,,,,,,,,,5f4d19c88ac21f85ef786134,606c0f24955f79fbad03cf49,2021-04-06_09h36.28.548,Colour_Similarity_Experiment,2020.2.10,Win32,60,6067542a4a25243f4d7d4fcf,17.62242268,16.62818228,16.6187405,16.62028649,16.62059448,16.62059448,,,,,,,,,,,,,,,,,,,,PF,strong,3,,,,,,,,7,1.196825,,,,,,,,,,,,,,,,,,,,,,,,,,,,3,strong,65,115,1,0,0,response1disk,9,143,-5,-20,1,0,0,rectangle,-5,-20,1,0,0,6,4,0.000805,-5,-20,1,0,0,0,142,142,143,1,0,,,,,,,,,,,,,,,,,,,,,
,,,,,,,,,,,,,,,,,,,,,,,,,,,,,,,,,,,,,,,,,,5f4d19c88ac21f85ef786134,606c0f24955f79fbad03cf49,2021-04-06_09h36.28.548,Colour_Similarity_Experiment,2020.2.10,Win32,60,6067542a4a25243f4d7d4fcf,17.62242268,16.62818228,16.6187405,16.62028649,16.62059448,16.62059448,,,,,,,,,,,,,,,,,,,,PF,weak,3,,,,,,,,4,1.064285,,,,,,,,,,,,,,,,,,,,,,,,,,,,8,weak,83,-84,1,0,0,response3disk,9,144,-1,-1,1,0,0,rectangle,-1,-1,1,0,0,6,3,0.00069,-1,-1,1,0,0,0,143,143,42,1,0,,,,,,,,,,,,,,,,,,,,,
,,,,,,,,,,,,,,,,,,,,,,,,,,,,,,,,,,,,,,,,,,5f4d19c88ac21f85ef786134,606c0f24955f79fbad03cf49,2021-04-06_09h36.28.548,Colour_Similarity_Experiment,2020.2.10,Win32,60,6067542a4a25243f4d7d4fcf,17.62242268,16.62818228,16.6187405,16.62028649,16.62059448,16.62059448,,,,,,,,,,,,,,,,,,,,PF,weak,3,,,,,,,,5,1.08093,,,,,,,,,,,,,,,,,,,,,,,,,,,,2,weak,128,-78,1,0,0,response3disk,3,145,3,-21,1,0,0,rectangle,3,-21,1,0,0,6,6,0.000895,3,-21,1,0,0,0,144,144,69,1,0,,,,,,,,,,,,,,,,,,,,,
,,,,,,,,,,,,,,,,,,,,,,,,,,,,,,,,,,,,,,,,,,5f4d19c88ac21f85ef786134,606c0f24955f79fbad03cf49,2021-04-06_09h36.28.548,Colour_Similarity_Experiment,2020.2.10,Win32,60,6067542a4a25243f4d7d4fcf,17.62242268,16.62818228,16.6187405,16.62028649,16.62059448,16.62059448,,,,,,,,,,,,,,,,,,,,PF,weak,3,,,,,,,,5,1.07938,,,,,,,,,,,,,,,,,,,,,,,,,,,,2,weak,86,-67,1,0,0,response3disk,4,146,-8,-11,1,0,0,rectangle,-8,-11,1,0,0,6,6,0.000105,-8,-11,1,0,0,0,145,145,127,1,0,,,,,,,,,,,,,,,,,,,,,
,,,,,,,,,,,,,,,,,,,,,,,,,,,,,,,,,,,,,,,,,,5f4d19c88ac21f85ef786134,606c0f24955f79fbad03cf49,2021-04-06_09h36.28.548,Colour_Similarity_Experiment,2020.2.10,Win32,60,6067542a4a25243f4d7d4fcf,17.62242268,16.62818228,16.6187405,16.62028649,16.62059448,16.62059448,,,,,,,,,,,,,,,,,,,,PF,strong,3,,,,,,,,4,1.628465,,,,,,,,,,,,,,,,,,,,,,,,,,,,2,strong,36,-94,1,0,0,response3disk,6,147,-18,0,1,0,0,rectangle,-18,0,1,0,0,6,0,0.000845,-18,0,1,0,0,0,146,146,40,1,0,,,,,,,,,,,,,,,,,,,,,
,,,,,,,,,,,,,,,,,,,,,,,,,,,,,,,,,,,,,,,,,,5f4d19c88ac21f85ef786134,606c0f24955f79fbad03cf49,2021-04-06_09h36.28.548,Colour_Similarity_Experiment,2020.2.10,Win32,60,6067542a4a25243f4d7d4fcf,17.62242268,16.62818228,16.6187405,16.62028649,16.62059448,16.62059448,,,,,,,,,,,,,,,,,,,,PF,strong,3,,,,,,,,7,1.39521,,,,,,,,,,,,,,,,,,,,,,,,,,,,8,strong,49,127,1,0,0,response1disk,5,148,8,-5,1,0,0,rectangle,8,-5,1,0,0,6,5,0.000885,8,-5,1,0,0,0,147,147,152,1,0,,,,,,,,,,,,,,,,,,,,,
,,,,,,,,,,,,,,,,,,,,,,,,,,,,,,,,,,,,,,,,,,5f4d19c88ac21f85ef786134,606c0f24955f79fbad03cf49,2021-04-06_09h36.28.548,Colour_Similarity_Experiment,2020.2.10,Win32,60,6067542a4a25243f4d7d4fcf,17.62242268,16.62818228,16.6187405,16.62028649,16.62059448,16.62059448,,,,,,,,,,,,,,,,,,,,PF,weak,3,,,,,,,,5,1.479525,,,,,,,,,,,,,,,,,,,,,,,,,,,,2,weak,135,-48,1,0,0,response3disk,1,149,8,3,1,0,0,rectangle,8,3,1,0,0,6,3,0.00076,8,3,1,0,0,0,148,148,9,1,0,,,,,,,,,,,,,,,,,,,,,
,,,,,,,,,,,,,,,,,,,,,,,,,,,,,,,,,,,,,,,,,,5f4d19c88ac21f85ef786134,606c0f24955f79fbad03cf49,2021-04-06_09h36.28.548,Colour_Similarity_Experiment,2020.2.10,Win32,60,6067542a4a25243f4d7d4fcf,17.62242268,16.62818228,16.6187405,16.62028649,16.62059448,16.62059448,,,,,,,,,,,,,,,,,,,,PF,weak,3,,,,,,,,7,1.0468,,,,,,,,,,,,,,,,,,,,,,,,,,,,3,weak,37,115,1,0,0,response1disk,7,150,-2,-21,1,0,0,rectangle,-2,-21,1,0,0,6,0,0.00081,-2,-21,1,0,0,0,149,149,41,1,0,,,,,,,,,,,,,,,,,,,,,
,,,,,,,,,,,,,,,,,,,,,,,,,,,,,,,,,,,,,,,,,,5f4d19c88ac21f85ef786134,606c0f24955f79fbad03cf49,2021-04-06_09h36.28.548,Colour_Similarity_Experiment,2020.2.10,Win32,60,6067542a4a25243f4d7d4fcf,17.62242268,16.62818228,16.6187405,16.62028649,16.62059448,16.62059448,,,,,,,,,,,,,,,,,,,,PF,strong,3,,,,,,,,4,1.446315,,,,,,,,,,,,,,,,,,,,,,,,,,,,7,strong,71,-100,1,0,0,response3disk,4,151,1,-2,1,0,0,rectangle,1,-2,1,0,0,6,5,0.001045,1,-2,1,0,0,0,150,150,158,1,0,,,,,,,,,,,,,,,,,,,,,
,,,,,,,,,,,,,,,,,,,,,,,,,,,,,,,,,,,,,,,,,,5f4d19c88ac21f85ef786134,606c0f24955f79fbad03cf49,2021-04-06_09h36.28.548,Colour_Similarity_Experiment,2020.2.10,Win32,60,6067542a4a25243f4d7d4fcf,17.62242268,16.62818228,16.6187405,16.62028649,16.62059448,16.62059448,,,,,,,,,,,,,,,,,,,,PF,weak,3,,,,,,,,7,1.44544,,,,,,,,,,,,,,,,,,,,,,,,,,,,7,weak,82,130,1,0,0,response1disk,8,152,4,0,1,0,0,rectangle,4,0,1,0,0,6,4,0.001325,4,0,1,0,0,0,151,151,140,1,0,,,,,,,,,,,,,,,,,,,,,
,,,,,,,,,,,,,,,,,,,,,,,,,,,,,,,,,,,,,,,,,,5f4d19c88ac21f85ef786134,606c0f24955f79fbad03cf49,2021-04-06_09h36.28.548,Colour_Similarity_Experiment,2020.2.10,Win32,60,6067542a4a25243f4d7d4fcf,17.62242268,16.62818228,16.6187405,16.62028649,16.62059448,16.62059448,,,,,,,,,,,,,,,,,,,,PF,strong,3,,,,,,,,4,1.395955,,,,,,,,,,,,,,,,,,,,,,,,,,,,8,strong,58,-69,1,0,0,response3disk,3,153,23,-13,1,0,0,rectangle,23,-13,1,0,0,6,6,0.000945,23,-13,1,0,0,0,152,152,154,1,0,,,,,,,,,,,,,,,,,,,,,
,,,,,,,,,,,,,,,,,,,,,,,,,,,,,,,,,,,,,,,,,,5f4d19c88ac21f85ef786134,606c0f24955f79fbad03cf49,2021-04-06_09h36.28.548,Colour_Similarity_Experiment,2020.2.10,Win32,60,6067542a4a25243f4d7d4fcf,17.62242268,16.62818228,16.6187405,16.62028649,16.62059448,16.62059448,,,,,,,,,,,,,,,,,,,,PF,weak,3,,,,,,,,7,2.11027,,,,,,,,,,,,,,,,,,,,,,,,,,,,9,weak,77,141,1,0,0,response1disk,4,154,14,3,1,0,0,rectangle,14,3,1,0,0,6,6,0.0002,14,3,1,0,0,0,153,153,114,1,0,,,,,,,,,,,,,,,,,,,,,
,,,,,,,,,,,,,,,,,,,,,,,,,,,,,,,,,,,,,,,,,,5f4d19c88ac21f85ef786134,606c0f24955f79fbad03cf49,2021-04-06_09h36.28.548,Colour_Similarity_Experiment,2020.2.10,Win32,60,6067542a4a25243f4d7d4fcf,17.62242268,16.62818228,16.6187405,16.62028649,16.62059448,16.62059448,,,,,,,,,,,,,,,,,,,,PF,weak,3,,,,,,,,4,1.378835,,,,,,,,,,,,,,,,,,,,,,,,,,,,9,weak,77,-117,1,0,0,response3disk,8,155,4,-2,1,0,0,rectangle,4,-2,1,0,0,6,1,0.00076,4,-2,1,0,0,0,154,154,67,1,0,,,,,,,,,,,,,,,,,,,,,
,,,,,,,,,,,,,,,,,,,,,,,,,,,,,,,,,,,,,,,,,,5f4d19c88ac21f85ef786134,606c0f24955f79fbad03cf49,2021-04-06_09h36.28.548,Colour_Similarity_Experiment,2020.2.10,Win32,60,6067542a4a25243f4d7d4fcf,17.62242268,16.62818228,16.6187405,16.62028649,16.62059448,16.62059448,,,,,,,,,,,,,,,,,,,,PF,strong,3,,,,,,,,4,1.212275,,,,,,,,,,,,,,,,,,,,,,,,,,,,5,strong,41,-108,1,0,0,response3disk,3,156,-11,5,1,0,0,rectangle,-11,5,1,0,0,6,4,0.001165,-11,5,1,0,0,0,155,155,25,1,0,,,,,,,,,,,,,,,,,,,,,
,,,,,,,,,,,,,,,,,,,,,,,,,,,,,,,,,,,,,,,,,,5f4d19c88ac21f85ef786134,606c0f24955f79fbad03cf49,2021-04-06_09h36.28.548,Colour_Similarity_Experiment,2020.2.10,Win32,60,6067542a4a25243f4d7d4fcf,17.62242268,16.62818228,16.6187405,16.62028649,16.62059448,16.62059448,,,,,,,,,,,,,,,,,,,,PF,strong,3,,,,,,,,5,1.561605,,,,,,,,,,,,,,,,,,,,,,,,,,,,5,strong,94,-83,1,0,0,response3disk,1,157,-10,-4,1,0,0,rectangle,-10,-4,1,0,0,6,0,0.000815,-10,-4,1,0,0,0,156,156,131,1,0,,,,,,,,,,,,,,,,,,,,,
,,,,,,,,,,,,,,,,,,,,,,,,,,,,,,,,,,,,,,,,,,5f4d19c88ac21f85ef786134,606c0f24955f79fbad03cf49,2021-04-06_09h36.28.548,Colour_Similarity_Experiment,2020.2.10,Win32,60,6067542a4a25243f4d7d4fcf,17.62242268,16.62818228,16.6187405,16.62028649,16.62059448,16.62059448,,,,,,,,,,,,,,,,,,,,PF,strong,3,,,,,,,,5,1.063655,,,,,,,,,,,,,,,,,,,,,,,,,,,,6,strong,93,-68,1,0,0,response3disk,4,158,8,-2,1,0,0,rectangle,8,-2,1,0,0,6,3,0.00093,8,-2,1,0,0,0,157,157,56,1,0,,,,,,,,,,,,,,,,,,,,,
,,,,,,,,,,,,,,,,,,,,,,,,,,,,,,,,,,,,,,,,,,5f4d19c88ac21f85ef786134,606c0f24955f79fbad03cf49,2021-04-06_09h36.28.548,Colour_Similarity_Experiment,2020.2.10,Win32,60,6067542a4a25243f4d7d4fcf,17.62242268,16.62818228,16.6187405,16.62028649,16.62059448,16.62059448,,,,,,,,,,,,,,,,,,,,PF,strong,3,,,,,,,,0,1.246185,,,,,,,,,,,,,,,,,,,,,,,,,,,,9,strong,-48,87,1,0,0,response7disk,3,159,6,-3,1,0,0,rectangle,6,-3,1,0,0,6,6,0.001315,6,-3,1,0,0,0,158,158,141,1,0,,,,,,,,,,,,,,,,,,,,,
,,,,,,,,,,,,,,,,,,,,,,,,,,,,,,,,,,,,,,,,,,5f4d19c88ac21f85ef786134,606c0f24955f79fbad03cf49,2021-04-06_09h36.28.548,Colour_Similarity_Experiment,2020.2.10,Win32,60,6067542a4a25243f4d7d4fcf,17.62242268,16.62818228,16.6187405,16.62028649,16.62059448,16.62059448,,,,,,,,,,,,,,,,,,,,PF,strong,3,,,,,,,,4,4.12145,,,,,,,,,,,,,,,,,,,,,,,,,,,,7,strong,49,-97,1,0,0,response3disk,1,160,-7,8,1,0,0,rectangle,-7,8,1,0,0,6,0,0.000995,-7,8,1,0,0,0,159,159,132,1,0,,,,,,,,,,,,,,,,,,,,,
,,,,,,,,,,,,,,,,,,,,,,,,,,,,,,,,,,,,,,,,,,5f4d19c88ac21f85ef786134,606c0f24955f79fbad03cf49,2021-04-06_09h36.28.548,Colour_Similarity_Experiment,2020.2.10,Win32,60,6067542a4a25243f4d7d4fcf,17.62242268,16.62818228,16.6187405,16.62028649,16.62059448,16.62059448,,,,,,,,,,,,,,,,,,,,PF,strong,3,,,,,,,,4,2.044785,,,,,,,,,,,,,,,,,,,,,,,,,,,,5,strong,55,-88,1,0,0,response3disk,4,161,-15,18,1,0,0,rectangle,-15,18,1,0,0,6,6,0.00075,-15,18,1,0,0,0,160,160,8,1,0,,,,,,,,,,,,,,,,,,,,,
,,,,,,,,,,,,,,,,,,,,,,,,,,,,,,,,,,,,,,,,,,5f4d19c88ac21f85ef786134,606c0f24955f79fbad03cf49,2021-04-06_09h36.28.548,Colour_Similarity_Experiment,2020.2.10,Win32,60,6067542a4a25243f4d7d4fcf,17.62242268,16.62818228,16.6187405,16.62028649,16.62059448,16.62059448,,,,,,,,,,,,,,,,,,,,PF,strong,3,,,,,,,,7,2.476645,,,,,,,,,,,,,,,,,,,,,,,,,,,,7,strong,85,151,1,0,0,response1disk,2,162,-5,19,1,0,0,rectangle,-5,19,1,0,0,6,2,0.001125,-5,19,1,0,0,0,161,161,138,1,0,,,,,,,,,,,,,,,,,,,,,
,,,,,,,,,,,,,,,,,,,,,,,,,,,,,,,,,,,,,,,,,,5f4d19c88ac21f85ef786134,606c0f24955f79fbad03cf49,2021-04-06_09h36.28.548,Colour_Similarity_Experiment,2020.2.10,Win32,60,6067542a4a25243f4d7d4fcf,17.62242268,16.62818228,16.6187405,16.62028649,16.62059448,16.62059448,,,,,,,,,,,,,,,,,,,,,,,,,,,,,,,,,,,,,,,,,,,,,,,,,,,,,,,,,,,,,,,,,,,,,,,,,,,,,,,,,,,,,,,,,,,,,,,,0,0,0,0,1,,,,,,,,,,,,,,
,,,,,,,,,,,,,,,,,,,,,,,,,,,,,,,,,,,,,,,,,,5f4d19c88ac21f85ef786134,606c0f24955f79fbad03cf49,2021-04-06_09h36.28.548,Colour_Similarity_Experiment,2020.2.10,Win32,60,6067542a4a25243f4d7d4fcf,17.62242268,16.62818228,16.6187405,16.62028649,16.62059448,16.62059448,,,,,,,,,,,,,,,,,,,,PF,strong,3,,,,,,,,7,2.04432,,,,,,,,,,,,,,,,,,,,,,,,,,,,8,strong,22,88,1,0,0,response1disk,2,163,0,-8,1,0,0,rectangle,0,-8,1,0,0,6,0,0.001005,0,-8,1,0,0,0,0,0,22,1,0,,,,,,,,,,,,,,,,,,,,,
,,,,,,,,,,,,,,,,,,,,,,,,,,,,,,,,,,,,,,,,,,5f4d19c88ac21f85ef786134,606c0f24955f79fbad03cf49,2021-04-06_09h36.28.548,Colour_Similarity_Experiment,2020.2.10,Win32,60,6067542a4a25243f4d7d4fcf,17.62242268,16.62818228,16.6187405,16.62028649,16.62059448,16.62059448,,,,,,,,,,,,,,,,,,,,PF,weak,3,,,,,,,,7,1.21331,,,,,,,,,,,,,,,,,,,,,,,,,,,,6,weak,72,111,1,0,0,response1disk,1,164,-3,-12,1,0,0,rectangle,-3,-12,1,0,0,6,4,0.00129,-3,-12,1,0,0,0,1,1,46,1,0,,,,,,,,,,,,,,,,,,,,,
,,,,,,,,,,,,,,,,,,,,,,,,,,,,,,,,,,,,,,,,,,5f4d19c88ac21f85ef786134,606c0f24955f79fbad03cf49,2021-04-06_09h36.28.548,Colour_Similarity_Experiment,2020.2.10,Win32,60,6067542a4a25243f4d7d4fcf,17.62242268,16.62818228,16.6187405,16.62028649,16.62059448,16.62059448,,,,,,,,,,,,,,,,,,,,PF,strong,3,,,,,,,,0,1.39624,,,,,,,,,,,,,,,,,,,,,,,,,,,,1,strong,-55,99,1,0,0,response7disk,1,165,19,-1,1,0,0,rectangle,19,-1,1,0,0,6,5,0.000935,19,-1,1,0,0,0,2,2,151,1,0,,,,,,,,,,,,,,,,,,,,,
,,,,,,,,,,,,,,,,,,,,,,,,,,,,,,,,,,,,,,,,,,5f4d19c88ac21f85ef786134,606c0f24955f79fbad03cf49,2021-04-06_09h36.28.548,Colour_Similarity_Experiment,2020.2.10,Win32,60,6067542a4a25243f4d7d4fcf,17.62242268,16.62818228,16.6187405,16.62028649,16.62059448,16.62059448,,,,,,,,,,,,,,,,,,,,PF,weak,3,,,,,,,,3,1.44657,,,,,,,,,,,,,,,,,,,,,,,,,,,,4,weak,-27,-118,1,0,0,response5disk,5,166,5,7,1,0,0,rectangle,5,7,1,0,0,6,6,0.000955,5,7,1,0,0,0,3,3,49,1,0,,,,,,,,,,,,,,,,,,,,,
,,,,,,,,,,,,,,,,,,,,,,,,,,,,,,,,,,,,,,,,,,5f4d19c88ac21f85ef786134,606c0f24955f79fbad03cf49,2021-04-06_09h36.28.548,Colour_Similarity_Experiment,2020.2.10,Win32,60,6067542a4a25243f4d7d4fcf,17.62242268,16.62818228,16.6187405,16.62028649,16.62059448,16.62059448,,,,,,,,,,,,,,,,,,,,PF,strong,3,,,,,,,,7,1.29587,,,,,,,,,,,,,,,,,,,,,,,,,,,,3,strong,55,102,1,0,0,response1disk,8,167,-14,4,1,0,0,rectangle,-14,4,1,0,0,6,2,0.001605,-14,4,1,0,0,0,4,4,44,1,0,,,,,,,,,,,,,,,,,,,,,
,,,,,,,,,,,,,,,,,,,,,,,,,,,,,,,,,,,,,,,,,,5f4d19c88ac21f85ef786134,606c0f24955f79fbad03cf49,2021-04-06_09h36.28.548,Colour_Similarity_Experiment,2020.2.10,Win32,60,6067542a4a25243f4d7d4fcf,17.62242268,16.62818228,16.6187405,16.62028649,16.62059448,16.62059448,,,,,,,,,,,,,,,,,,,,PF,strong,3,,,,,,,,5,1.42887,,,,,,,,,,,,,,,,,,,,,,,,,,,,6,strong,111,-66,1,0,0,response3disk,8,168,12,3,1,0,0,rectangle,12,3,1,0,0,6,1,0.00119,12,3,1,0,0,0,5,5,133,1,0,,,,,,,,,,,,,,,,,,,,,
,,,,,,,,,,,,,,,,,,,,,,,,,,,,,,,,,,,,,,,,,,5f4d19c88ac21f85ef786134,606c0f24955f79fbad03cf49,2021-04-06_09h36.28.548,Colour_Similarity_Experiment,2020.2.10,Win32,60,6067542a4a25243f4d7d4fcf,17.62242268,16.62818228,16.6187405,16.62028649,16.62059448,16.62059448,,,,,,,,,,,,,,,,,,,,PF,strong,3,,,,,,,,7,1.129765,,,,,,,,,,,,,,,,,,,,,,,,,,,,4,strong,63,118,1,0,0,response1disk,9,169,-7,-8,1,0,0,rectangle,-7,-8,1,0,0,6,5,0.0009,-7,-8,1,0,0,0,6,6,90,1,0,,,,,,,,,,,,,,,,,,,,,
,,,,,,,,,,,,,,,,,,,,,,,,,,,,,,,,,,,,,,,,,,5f4d19c88ac21f85ef786134,606c0f24955f79fbad03cf49,2021-04-06_09h36.28.548,Colour_Similarity_Experiment,2020.2.10,Win32,60,6067542a4a25243f4d7d4fcf,17.62242268,16.62818228,16.6187405,16.62028649,16.62059448,16.62059448,,,,,,,,,,,,,,,,,,,,PF,weak,3,,,,,,,,7,1.07958,,,,,,,,,,,,,,,,,,,,,,,,,,,,8,weak,56,130,1,0,0,response1disk,5,170,19,21,1,0,0,rectangle,19,21,1,0,0,6,1,0.001335,19,21,1,0,0,0,7,7,98,1,0,,,,,,,,,,,,,,,,,,,,,
,,,,,,,,,,,,,,,,,,,,,,,,,,,,,,,,,,,,,,,,,,5f4d19c88ac21f85ef786134,606c0f24955f79fbad03cf49,2021-04-06_09h36.28.548,Colour_Similarity_Experiment,2020.2.10,Win32,60,6067542a4a25243f4d7d4fcf,17.62242268,16.62818228,16.6187405,16.62028649,16.62059448,16.62059448,,,,,,,,,,,,,,,,,,,,PF,strong,3,,,,,,,,7,1.62872,,,,,,,,,,,,,,,,,,,,,,,,,,,,1,strong,71,139,1,0,0,response1disk,5,171,2,18,1,0,0,rectangle,2,18,1,0,0,6,7,0.00142,2,18,1,0,0,0,8,8,82,1,0,,,,,,,,,,,,,,,,,,,,,
,,,,,,,,,,,,,,,,,,,,,,,,,,,,,,,,,,,,,,,,,,5f4d19c88ac21f85ef786134,606c0f24955f79fbad03cf49,2021-04-06_09h36.28.548,Colour_Similarity_Experiment,2020.2.10,Win32,60,6067542a4a25243f4d7d4fcf,17.62242268,16.62818228,16.6187405,16.62028649,16.62059448,16.62059448,,,,,,,,,,,,,,,,,,,,PF,strong,3,,,,,,,,6,1.76221,,,,,,,,,,,,,,,,,,,,,,,,,,,,2,strong,102,101,1,0,0,response1disk,7,172,11,-15,1,0,0,rectangle,11,-15,1,0,0,6,5,0.001835,11,-15,1,0,0,0,9,9,63,1,0,,,,,,,,,,,,,,,,,,,,,
,,,,,,,,,,,,,,,,,,,,,,,,,,,,,,,,,,,,,,,,,,5f4d19c88ac21f85ef786134,606c0f24955f79fbad03cf49,2021-04-06_09h36.28.548,Colour_Similarity_Experiment,2020.2.10,Win32,60,6067542a4a25243f4d7d4fcf,17.62242268,16.62818228,16.6187405,16.62028649,16.62059448,16.62059448,,,,,,,,,,,,,,,,,,,,PF,weak,3,,,,,,,,0,0.88051,,,,,,,,,,,,,,,,,,,,,,,,,,,,5,weak,-55,134,1,0,0,response7disk,5,173,4,-7,1,0,0,rectangle,4,-7,1,0,0,6,6,0.000865,4,-7,1,0,0,0,10,10,94,1,0,,,,,,,,,,,,,,,,,,,,,
,,,,,,,,,,,,,,,,,,,,,,,,,,,,,,,,,,,,,,,,,,5f4d19c88ac21f85ef786134,606c0f24955f79fbad03cf49,2021-04-06_09h36.28.548,Colour_Similarity_Experiment,2020.2.10,Win32,60,6067542a4a25243f4d7d4fcf,17.62242268,16.62818228,16.6187405,16.62028649,16.62059448,16.62059448,,,,,,,,,,,,,,,,,,,,PF,weak,3,,,,,,,,0,0.84741,,,,,,,,,,,,,,,,,,,,,,,,,,,,1,weak,-61,135,1,0,0,response7disk,1,174,21,-19,1,0,0,rectangle,63,113,1,0,0,7,7,2.442485,-1,10,1,0,0,0,11,11,76,1,1,response1disk_3,rectangle,,,,,,,,,,,,,,,,,,,
,,,,,,,,,,,,,,,,,,,,,,,,,,,,,,,,,,,,,,,,,,5f4d19c88ac21f85ef786134,606c0f24955f79fbad03cf49,2021-04-06_09h36.28.548,Colour_Similarity_Experiment,2020.2.10,Win32,60,6067542a4a25243f4d7d4fcf,17.62242268,16.62818228,16.6187405,16.62028649,16.62059448,16.62059448,,,,,,,,,,,,,,,,,,,,PF,weak,3,,,,,,,,1,1.32935,,,,,,,,,,,,,,,,,,,,,,,,,,,,3,weak,-125,38,1,0,0,response7disk,3,175,1,-20,1,0,0,rectangle,1,-20,1,0,0,7,2,0.00144,1,-20,1,0,0,0,12,12,4,1,0,,,,,,,,,,,,,,,,,,,,,
,,,,,,,,,,,,,,,,,,,,,,,,,,,,,,,,,,,,,,,,,,5f4d19c88ac21f85ef786134,606c0f24955f79fbad03cf49,2021-04-06_09h36.28.548,Colour_Similarity_Experiment,2020.2.10,Win32,60,6067542a4a25243f4d7d4fcf,17.62242268,16.62818228,16.6187405,16.62028649,16.62059448,16.62059448,,,,,,,,,,,,,,,,,,,,PF,weak,3,,,,,,,,7,0.880935,,,,,,,,,,,,,,,,,,,,,,,,,,,,9,weak,77,93,1,0,0,response1disk,2,176,12,6,1,0,0,rectangle,12,6,1,0,0,7,5,0.000945,12,6,1,0,0,0,13,13,157,1,0,,,,,,,,,,,,,,,,,,,,,
,,,,,,,,,,,,,,,,,,,,,,,,,,,,,,,,,,,,,,,,,,5f4d19c88ac21f85ef786134,606c0f24955f79fbad03cf49,2021-04-06_09h36.28.548,Colour_Similarity_Experiment,2020.2.10,Win32,60,6067542a4a25243f4d7d4fcf,17.62242268,16.62818228,16.6187405,16.62028649,16.62059448,16.62059448,,,,,,,,,,,,,,,,,,,,PF,weak,3,,,,,,,,7,0.830375,,,,,,,,,,,,,,,,,,,,,,,,,,,,6,weak,45,109,1,0,0,response1disk,9,177,-1,6,1,0,0,rectangle,-1,6,1,0,0,7,4,0.00086,-1,6,1,0,0,0,14,14,45,1,0,,,,,,,,,,,,,,,,,,,,,
,,,,,,,,,,,,,,,,,,,,,,,,,,,,,,,,,,,,,,,,,,5f4d19c88ac21f85ef786134,606c0f24955f79fbad03cf49,2021-04-06_09h36.28.548,Colour_Similarity_Experiment,2020.2.10,Win32,60,6067542a4a25243f4d7d4fcf,17.62242268,16.62818228,16.6187405,16.62028649,16.62059448,16.62059448,,,,,,,,,,,,,,,,,,,,PF,strong,3,,,,,,,,5,1.22912,,,,,,,,,,,,,,,,,,,,,,,,,,,,7,strong,94,-73,1,0,0,response3disk,5,178,5,-3,1,0,0,rectangle,5,-3,1,0,0,7,7,0.000725,5,-3,1,0,0,0,15,15,156,1,0,,,,,,,,,,,,,,,,,,,,,
,,,,,,,,,,,,,,,,,,,,,,,,,,,,,,,,,,,,,,,,,,5f4d19c88ac21f85ef786134,606c0f24955f79fbad03cf49,2021-04-06_09h36.28.548,Colour_Similarity_Experiment,2020.2.10,Win32,60,6067542a4a25243f4d7d4fcf,17.62242268,16.62818228,16.6187405,16.62028649,16.62059448,16.62059448,,,,,,,,,,,,,,,,,,,,PF,weak,3,,,,,,,,5,0.996925,,,,,,,,,,,,,,,,,,,,,,,,,,,,1,weak,131,-52,1,0,0,response3disk,9,179,-8,8,1,0,0,rectangle,-8,8,1,0,0,7,6,0.001355,-8,8,1,0,0,0,16,16,15,1,0,,,,,,,,,,,,,,,,,,,,,
,,,,,,,,,,,,,,,,,,,,,,,,,,,,,,,,,,,,,,,,,,5f4d19c88ac21f85ef786134,606c0f24955f79fbad03cf49,2021-04-06_09h36.28.548,Colour_Similarity_Experiment,2020.2.10,Win32,60,6067542a4a25243f4d7d4fcf,17.62242268,16.62818228,16.6187405,16.62028649,16.62059448,16.62059448,,,,,,,,,,,,,,,,,,,,PF,weak,3,,,,,,,,7,0.96405,,,,,,,,,,,,,,,,,,,,,,,,,,,,8,weak,74,149,1,0,0,response1disk,3,180,1,9,1,0,0,rectangle,1,9,1,0,0,7,5,0.00114,1,9,1,0,0,0,17,17,71,1,0,,,,,,,,,,,,,,,,,,,,,
,,,,,,,,,,,,,,,,,,,,,,,,,,,,,,,,,,,,,,,,,,5f4d19c88ac21f85ef786134,606c0f24955f79fbad03cf49,2021-04-06_09h36.28.548,Colour_Similarity_Experiment,2020.2.10,Win32,60,6067542a4a25243f4d7d4fcf,17.62242268,16.62818228,16.6187405,16.62028649,16.62059448,16.62059448,,,,,,,,,,,,,,,,,,,,PF,weak,3,,,,,,,,7,0.89829,,,,,,,,,,,,,,,,,,,,,,,,,,,,5,weak,39,114,1,0,0,response1disk,1,181,7,-3,1,0,0,rectangle,-49,-115,1,0,0,3,3,2.210105,21,-3,1,0,0,0,18,18,159,1,1,response5disk_3,rectangle,,,,,,,,,,,,,,,,,,,
,,,,,,,,,,,,,,,,,,,,,,,,,,,,,,,,,,,,,,,,,,5f4d19c88ac21f85ef786134,606c0f24955f79fbad03cf49,2021-04-06_09h36.28.548,Colour_Similarity_Experiment,2020.2.10,Win32,60,6067542a4a25243f4d7d4fcf,17.62242268,16.62818228,16.6187405,16.62028649,16.62059448,16.62059448,,,,,,,,,,,,,,,,,,,,PF,weak,3,,,,,,,,0,0.99782,,,,,,,,,,,,,,,,,,,,,,,,,,,,9,weak,-47,101,1,0,0,response7disk,9,182,-12,1,1,0,0,rectangle,-12,1,1,0,0,3,3,0.00017,-12,1,1,0,0,0,19,19,106,1,0,,,,,,,,,,,,,,,,,,,,,
,,,,,,,,,,,,,,,,,,,,,,,,,,,,,,,,,,,,,,,,,,5f4d19c88ac21f85ef786134,606c0f24955f79fbad03cf49,2021-04-06_09h36.28.548,Colour_Similarity_Experiment,2020.2.10,Win32,60,6067542a4a25243f4d7d4fcf,17.62242268,16.62818228,16.6187405,16.62028649,16.62059448,16.62059448,,,,,,,,,,,,,,,,,,,,PF,strong,3,,,,,,,,5,1.31276,,,,,,,,,,,,,,,,,,,,,,,,,,,,5,strong,131,-36,1,0,0,response3disk,8,183,13,-7,1,0,0,rectangle,13,-7,1,0,0,3,7,0.001415,13,-7,1,0,0,0,20,20,16,1,0,,,,,,,,,,,,,,,,,,,,,
,,,,,,,,,,,,,,,,,,,,,,,,,,,,,,,,,,,,,,,,,,5f4d19c88ac21f85ef786134,606c0f24955f79fbad03cf49,2021-04-06_09h36.28.548,Colour_Similarity_Experiment,2020.2.10,Win32,60,6067542a4a25243f4d7d4fcf,17.62242268,16.62818228,16.6187405,16.62028649,16.62059448,16.62059448,,,,,,,,,,,,,,,,,,,,PF,weak,3,,,,,,,,7,0.93061,,,,,,,,,,,,,,,,,,,,,,,,,,,,7,weak,55,132,1,0,0,response1disk,4,184,-11,7,1,0,0,rectangle,-11,7,1,0,0,3,5,0.00088,-11,7,1,0,0,0,21,21,43,1,0,,,,,,,,,,,,,,,,,,,,,
,,,,,,,,,,,,,,,,,,,,,,,,,,,,,,,,,,,,,,,,,,5f4d19c88ac21f85ef786134,606c0f24955f79fbad03cf49,2021-04-06_09h36.28.548,Colour_Similarity_Experiment,2020.2.10,Win32,60,6067542a4a25243f4d7d4fcf,17.62242268,16.62818228,16.6187405,16.62028649,16.62059448,16.62059448,,,,,,,,,,,,,,,,,,,,PF,weak,3,,,,,,,,3,1.629195,,,,,,,,,,,,,,,,,,,,,,,,,,,,7,weak,-24,-73,1,0,0,response5disk,6,185,16,-9,1,0,0,rectangle,16,-9,1,0,0,3,7,0.000725,16,-9,1,0,0,0,22,22,29,1,0,,,,,,,,,,,,,,,,,,,,,
,,,,,,,,,,,,,,,,,,,,,,,,,,,,,,,,,,,,,,,,,,5f4d19c88ac21f85ef786134,606c0f24955f79fbad03cf49,2021-04-06_09h36.28.548,Colour_Similarity_Experiment,2020.2.10,Win32,60,6067542a4a25243f4d7d4fcf,17.62242268,16.62818228,16.6187405,16.62028649,16.62059448,16.62059448,,,,,,,,,,,,,,,,,,,,PF,weak,3,,,,,,,,0,1.030895,,,,,,,,,,,,,,,,,,,,,,,,,,,,7,weak,-32,161,1,0,0,response7disk,7,186,-15,1,1,0,0,rectangle,-15,1,1,0,0,3,0,0.00137,-15,1,1,0,0,0,23,23,51,1,0,,,,,,,,,,,,,,,,,,,,,
,,,,,,,,,,,,,,,,,,,,,,,,,,,,,,,,,,,,,,,,,,5f4d19c88ac21f85ef786134,606c0f24955f79fbad03cf49,2021-04-06_09h36.28.548,Colour_Similarity_Experiment,2020.2.10,Win32,60,6067542a4a25243f4d7d4fcf,17.62242268,16.62818228,16.6187405,16.62028649,16.62059448,16.62059448,,,,,,,,,,,,,,,,,,,,PF,strong,3,,,,,,,,7,0.91356,,,,,,,,,,,,,,,,,,,,,,,,,,,,1,strong,56,103,1,0,0,response1disk,6,187,-21,-6,1,0,0,rectangle,-21,-6,1,0,0,3,1,0.001165,-21,-6,1,0,0,0,24,24,58,1,0,,,,,,,,,,,,,,,,,,,,,
,,,,,,,,,,,,,,,,,,,,,,,,,,,,,,,,,,,,,,,,,,5f4d19c88ac21f85ef786134,606c0f24955f79fbad03cf49,2021-04-06_09h36.28.548,Colour_Similarity_Experiment,2020.2.10,Win32,60,6067542a4a25243f4d7d4fcf,17.62242268,16.62818228,16.6187405,16.62028649,16.62059448,16.62059448,,,,,,,,,,,,,,,,,,,,PF,strong,3,,,,,,,,7,1.41359,,,,,,,,,,,,,,,,,,,,,,,,,,,,7,strong,75,128,1,0,0,response1disk,3,188,7,-2,1,0,0,rectangle,7,-2,1,0,0,3,5,0.00066,7,-2,1,0,0,0,25,25,73,1,0,,,,,,,,,,,,,,,,,,,,,
,,,,,,,,,,,,,,,,,,,,,,,,,,,,,,,,,,,,,,,,,,5f4d19c88ac21f85ef786134,606c0f24955f79fbad03cf49,2021-04-06_09h36.28.548,Colour_Similarity_Experiment,2020.2.10,Win32,60,6067542a4a25243f4d7d4fcf,17.62242268,16.62818228,16.6187405,16.62028649,16.62059448,16.62059448,,,,,,,,,,,,,,,,,,,,PF,weak,3,,,,,,,,7,1.545645,,,,,,,,,,,,,,,,,,,,,,,,,,,,8,weak,91,137,1,0,0,response1disk,1,189,6,-11,1,0,0,rectangle,6,-11,1,0,0,3,2,0.00111,6,-11,1,0,0,0,26,26,57,1,0,,,,,,,,,,,,,,,,,,,,,
,,,,,,,,,,,,,,,,,,,,,,,,,,,,,,,,,,,,,,,,,,5f4d19c88ac21f85ef786134,606c0f24955f79fbad03cf49,2021-04-06_09h36.28.548,Colour_Similarity_Experiment,2020.2.10,Win32,60,6067542a4a25243f4d7d4fcf,17.62242268,16.62818228,16.6187405,16.62028649,16.62059448,16.62059448,,,,,,,,,,,,,,,,,,,,PF,strong,3,,,,,,,,7,1.06351,,,,,,,,,,,,,,,,,,,,,,,,,,,,1,strong,62,103,1,0,0,response1disk,4,190,12,-1,1,0,0,rectangle,12,-1,1,0,0,3,5,0.00071,12,-1,1,0,0,0,27,27,135,1,0,,,,,,,,,,,,,,,,,,,,,
,,,,,,,,,,,,,,,,,,,,,,,,,,,,,,,,,,,,,,,,,,5f4d19c88ac21f85ef786134,606c0f24955f79fbad03cf49,2021-04-06_09h36.28.548,Colour_Similarity_Experiment,2020.2.10,Win32,60,6067542a4a25243f4d7d4fcf,17.62242268,16.62818228,16.6187405,16.62028649,16.62059448,16.62059448,,,,,,,,,,,,,,,,,,,,PF,strong,3,,,,,,,,2,1.57871,,,,,,,,,,,,,,,,,,,,,,,,,,,,6,strong,-99,-55,1,0,0,response5disk,6,191,-31,-5,1,0,0,rectangle,-31,-5,1,0,0,3,4,0.001335,-31,-5,1,0,0,0,28,28,91,1,0,,,,,,,,,,,,,,,,,,,,,
,,,,,,,,,,,,,,,,,,,,,,,,,,,,,,,,,,,,,,,,,,5f4d19c88ac21f85ef786134,606c0f24955f79fbad03cf49,2021-04-06_09h36.28.548,Colour_Similarity_Experiment,2020.2.10,Win32,60,6067542a4a25243f4d7d4fcf,17.62242268,16.62818228,16.6187405,16.62028649,16.62059448,16.62059448,,,,,,,,,,,,,,,,,,,,PF,strong,3,,,,,,,,5,1.329545,,,,,,,,,,,,,,,,,,,,,,,,,,,,4,strong,108,-73,1,0,0,response3disk,5,192,11,5,1,0,0,rectangle,11,5,1,0,0,3,7,0.000995,11,5,1,0,0,0,29,29,116,1,0,,,,,,,,,,,,,,,,,,,,,
,,,,,,,,,,,,,,,,,,,,,,,,,,,,,,,,,,,,,,,,,,5f4d19c88ac21f85ef786134,606c0f24955f79fbad03cf49,2021-04-06_09h36.28.548,Colour_Similarity_Experiment,2020.2.10,Win32,60,6067542a4a25243f4d7d4fcf,17.62242268,16.62818228,16.6187405,16.62028649,16.62059448,16.62059448,,,,,,,,,,,,,,,,,,,,PF,weak,3,,,,,,,,4,1.329675,,,,,,,,,,,,,,,,,,,,,,,,,,,,7,weak,65,-86,1,0,0,response3disk,5,193,0,-9,1,0,0,rectangle,0,-9,1,0,0,3,0,0.0013,0,-9,1,0,0,0,30,30,92,1,0,,,,,,,,,,,,,,,,,,,,,
,,,,,,,,,,,,,,,,,,,,,,,,,,,,,,,,,,,,,,,,,,5f4d19c88ac21f85ef786134,606c0f24955f79fbad03cf49,2021-04-06_09h36.28.548,Colour_Similarity_Experiment,2020.2.10,Win32,60,6067542a4a25243f4d7d4fcf,17.62242268,16.62818228,16.6187405,16.62028649,16.62059448,16.62059448,,,,,,,,,,,,,,,,,,,,PF,strong,3,,,,,,,,7,1.079275,,,,,,,,,,,,,,,,,,,,,,,,,,,,5,strong,58,142,1,0,0,response1disk,9,194,-4,2,1,0,0,rectangle,-4,2,1,0,0,3,3,0.001415,-4,2,1,0,0,0,31,31,61,1,0,,,,,,,,,,,,,,,,,,,,,
