key_resp.keys,key_resp.rt,key_resp_16.keys,key_resp_16.rt,key_resp_2.keys,key_resp_2.rt,X Scale,ratio_pxpermm,screen_size_x,screen_size_y,testsize,key_resp_3.keys,key_resp_4.keys,key_resp_4.rt,line_size,key_resp_5.keys,key_resp_5.rt,key_resp_6.keys,key_resp_6.rt,key_resp_8.keys,key_resp_8.rt,key_resp_7.keys,key_resp_7.rt,key_resp_12.keys,key_resp_12.rt,key_resp_11.keys,key_resp_11.rt,key_resp_18.keys,key_resp_18.rt,key_resp_21.keys,key_resp_21.rt,key_resp_13.keys,key_resp_13.rt,key_resp_19.keys,key_resp_19.rt,ballposx,viewer_distance,trials.thisRepN,trials.thisTrialN,trials.thisN,trials.thisIndex,trials.ran,participant,session,date,expName,psychopyVersion,OS,frameRate,study_id,realFrameRate1,realFrameRate2,realFrameRate3,realFrameRate4,realFrameRate5,realFrameRate,viewerdistancecm,DVA_to_distance,radius_F,radius_P,r_F,R_P,key_resp_20.keys,key_resp_20.rt,key_resp_14.keys,key_resp_14.rt,key_resp_15.keys,key_resp_15.rt,key_resp_17.keys,key_resp_17.rt,key_resp_9.keys,key_resp_9.rt,key_resp_10.keys,key_resp_10.rt,Colour_1,Ecc,maskCon,mask_frames,mouse_5.x,mouse_5.y,mouse_5.leftButton,mouse_5.midButton,mouse_5.rightButton,mouse_5.clicked_name,Colour_2,similarity,response_time,mouse_10.x,mouse_10.y,mouse_10.leftButton,mouse_10.midButton,mouse_10.rightButton,mouse_10.clicked_name,mouse_7.x,mouse_7.y,mouse_7.leftButton,mouse_7.midButton,mouse_7.rightButton,catchnumberprac,mouse_6.x,mouse_6.y,mouse_6.leftButton,mouse_6.midButton,mouse_6.rightButton,duringprac.thisRepN,duringprac.thisTrialN,duringprac.thisN,duringprac.thisIndex,duringprac.ran,mouse_7.clicked_name,catchprac,mouse_6.clicked_name,key_resp_22.keys,key_resp_22.rt,Colour1,maskCon1,mouse.x,mouse.y,mouse.leftButton,mouse.midButton,mouse.rightButton,mouse.clicked_name,Colour2,trialnumber,mouse_2.x,mouse_2.y,mouse_2.leftButton,mouse_2.midButton,mouse_2.rightButton,mouse_2.clicked_name,mouse_3.x,mouse_3.y,mouse_3.leftButton,mouse_3.midButton,mouse_3.rightButton,catchresponse,catchnumber,response_time_catch,mouse_11.x,mouse_11.y,mouse_11.leftButton,mouse_11.midButton,mouse_11.rightButton,trials_2.thisRepN,trials_2.thisTrialN,trials_2.thisN,trials_2.thisIndex,trials_2.ran,Catch,mouse_3.clicked_name,mouse_11.clicked_name,trials_3.thisRepN,trials_3.thisTrialN,trials_3.thisN,trials_3.thisIndex,trials_3.ran,answer1,rt1,answer2,rt2,answer3,rt3,answer4,rt4,answer5,rt5,answer6,rt6,answer7,rt7
space,4.854315,space,49.071135,space,34.13473,45.3,4.53,339.0728477,190.7284768,1536,,space,40.30915,90.6,space,52.825085,space,8.293515,space,4.744985,space,11.222955,space,12.4398,space,4.532645,space,32.778725,space,34.02181,space,11.99977,return,8.39471,-589.824,1107.275014,0,0,0,0,1,5f8367c3abf19f4f142c14c0,606c15ef99c2b27d231102cd,2021-04-06_10h08.41.089,Colour_Similarity_Experiment,2020.2.10,Win32,60,6067542a4a25243f4d7d4fcf,17.41555693,16.65270939,16.65193831,16.65467589,16.65027474,16.65270939,,,,,,,,,,,,,,,,,,,,,,,,,,,,,,,,,,,,,,,,,,,,,,,,,,,,,,,,,,,,,,,,,,,,,,,,,,,,,,,,,,,,,,,,,,,,,,,,,,,,,,,,,,,,,,,,,,
,,,,,,,,,,,,,,,,,,,,,,,,,,,,,,,,,return,5.753445,-223.488,770.4317857,1,0,1,0,1,5f8367c3abf19f4f142c14c0,606c15ef99c2b27d231102cd,2021-04-06_10h08.41.089,Colour_Similarity_Experiment,2020.2.10,Win32,60,6067542a4a25243f4d7d4fcf,17.41555693,16.65270939,16.65193831,16.65467589,16.65027474,16.65270939,,,,,,,,,,,,,,,,,,,,,,,,,,,,,,,,,,,,,,,,,,,,,,,,,,,,,,,,,,,,,,,,,,,,,,,,,,,,,,,,,,,,,,,,,,,,,,,,,,,,,,,,,,,,,,,,,,
,,,,,,,,,,,,,,,,,,,,,,,,,,,,,,,,,return,4.817635,-92.16,649.6766662,2,0,2,0,1,5f8367c3abf19f4f142c14c0,606c15ef99c2b27d231102cd,2021-04-06_10h08.41.089,Colour_Similarity_Experiment,2020.2.10,Win32,60,6067542a4a25243f4d7d4fcf,17.41555693,16.65270939,16.65193831,16.65467589,16.65027474,16.65270939,,,,,,,,,,,,,,,,,,,,,,,,,,,,,,,,,,,,,,,,,,,,,,,,,,,,,,,,,,,,,,,,,,,,,,,,,,,,,,,,,,,,,,,,,,,,,,,,,,,,,,,,,,,,,,,,,,
,,,,,,,,,,,,,,,,,,,,,,,,,,,,,,,,,return,4.658725,-71.424,630.6100684,3,0,3,0,1,5f8367c3abf19f4f142c14c0,606c15ef99c2b27d231102cd,2021-04-06_10h08.41.089,Colour_Similarity_Experiment,2020.2.10,Win32,60,6067542a4a25243f4d7d4fcf,17.41555693,16.65270939,16.65193831,16.65467589,16.65027474,16.65270939,,,,,,,,,,,,,,,,,,,,,,,,,,,,,,,,,,,,,,,,,,,,,,,,,,,,,,,,,,,,,,,,,,,,,,,,,,,,,,,,,,,,,,,,,,,,,,,,,,,,,,,,,,,,,,,,,,
,,,,,,,,,,,,,,,,,,,,,,,,,,,,,,,,,return,4.89188,-103.68,660.2692205,4,0,4,0,1,5f8367c3abf19f4f142c14c0,606c15ef99c2b27d231102cd,2021-04-06_10h08.41.089,Colour_Similarity_Experiment,2020.2.10,Win32,60,6067542a4a25243f4d7d4fcf,17.41555693,16.65270939,16.65193831,16.65467589,16.65027474,16.65270939,,,,,,,,,,,,,,,,,,,,,,,,,,,,,,,,,,,,,,,,,,,,,,,,,,,,,,,,,,,,,,,,,,,,,,,,,,,,,,,,,,,,,,,,,,,,,,,,,,,,,,,,,,,,,,,,,,
,,,,,,,,,,,,,,,,,,,,,,,,,,,,,,,,,,,,,,,,,,5f8367c3abf19f4f142c14c0,606c15ef99c2b27d231102cd,2021-04-06_10h08.41.089,Colour_Similarity_Experiment,2020.2.10,Win32,60,6067542a4a25243f4d7d4fcf,17.41555693,16.65270939,16.65193831,16.65467589,16.65027474,16.65270939,65,11.34578815,77.09463045,513.964203,51.3964203,231.2838913,space,3.679535,space,42.60304,space,74.23642,space,25.96393,space,3.82643,space,24.077955,5,PF,strong,3,86.40001273,-32.80000693,1,0,0,response3disk_5,6,5,46.23953,-8.799988687,3.999993622,1,0,0,rectangle_8,-8.799988687,3.999993622,1,0,0,1,-8.799988687,3.999993622,1,0,0,0,0,0,3,1,,,,,,,,,,,,,,,,,,,,,,,,,,,,,,,,,,,,,,,,,,,,,,,,,,,,,,,,,,,,,
,,,,,,,,,,,,,,,,,,,,,,,,,,,,,,,,,,,,,,,,,,5f8367c3abf19f4f142c14c0,606c15ef99c2b27d231102cd,2021-04-06_10h08.41.089,Colour_Similarity_Experiment,2020.2.10,Win32,60,6067542a4a25243f4d7d4fcf,17.41555693,16.65270939,16.65193831,16.65467589,16.65027474,16.65270939,,,,,,,,,,,,,,,,,,,3,PF,weak,3,-58.3999406,-98.4000079,1,0,0,response5disk_5,3,3,7.90887,10.4000116,8.799993694,1,0,0,rectangle_8,-95.99998999,43.19996979,1,0,0,1,-1.59998858,-1.600006461,1,0,0,0,1,1,4,1,response7disk_7,1,rectangle_4,,,,,,,,,,,,,,,,,,,,,,,,,,,,,,,,,,,,,,,,,,,,,,,,,,,,,,,,,,
,,,,,,,,,,,,,,,,,,,,,,,,,,,,,,,,,,,,,,,,,,5f8367c3abf19f4f142c14c0,606c15ef99c2b27d231102cd,2021-04-06_10h08.41.089,Colour_Similarity_Experiment,2020.2.10,Win32,60,6067542a4a25243f4d7d4fcf,17.41555693,16.65270939,16.65193831,16.65467589,16.65027474,16.65270939,,,,,,,,,,,,,,,,,,,6,PF,weak,3,106.400013,39.99999416,1,0,0,response1disk_5,3,6,6.17845,-14.39993994,2.399993598,1,0,0,rectangle_8,-14.39993994,2.399993598,1,0,0,1,-14.39993994,2.399993598,1,0,0,0,2,2,6,1,,,,,,,,,,,,,,,,,,,,,,,,,,,,,,,,,,,,,,,,,,,,,,,,,,,,,,,,,,,,,
,,,,,,,,,,,,,,,,,,,,,,,,,,,,,,,,,,,,,,,,,,5f8367c3abf19f4f142c14c0,606c15ef99c2b27d231102cd,2021-04-06_10h08.41.089,Colour_Similarity_Experiment,2020.2.10,Win32,60,6067542a4a25243f4d7d4fcf,17.41555693,16.65270939,16.65193831,16.65467589,16.65027474,16.65270939,,,,,,,,,,,,,,,,,,,5,PF,weak,3,89.60001278,-51.2000072,1,0,0,response3disk_5,2,5,2.89962,-15.19998878,-4.800006509,1,0,0,rectangle_8,-15.19998878,-4.800006509,1,0,0,1,-15.19998878,-4.800006509,1,0,0,0,3,3,1,1,,,,,,,,,,,,,,,,,,,,,,,,,,,,,,,,,,,,,,,,,,,,,,,,,,,,,,,,,,,,,
,,,,,,,,,,,,,,,,,,,,,,,,,,,,,,,,,,,,,,,,,,5f8367c3abf19f4f142c14c0,606c15ef99c2b27d231102cd,2021-04-06_10h08.41.089,Colour_Similarity_Experiment,2020.2.10,Win32,60,6067542a4a25243f4d7d4fcf,17.41555693,16.65270939,16.65193831,16.65467589,16.65027474,16.65270939,,,,,,,,,,,,,,,,,,,2,PF,strong,3,-111.1999902,-38.40000701,1,0,0,response5disk_5,3,2,2.247865,-16.79998881,14.39999378,1,0,0,rectangle_8,-16.79998881,14.39999378,1,0,0,1,-16.79998881,14.39999378,1,0,0,0,4,4,0,1,,,,,,,,,,,,,,,,,,,,,,,,,,,,,,,,,,,,,,,,,,,,,,,,,,,,,,,,,,,,,
,,,,,,,,,,,,,,,,,,,,,,,,,,,,,,,,,,,,,,,,,,5f8367c3abf19f4f142c14c0,606c15ef99c2b27d231102cd,2021-04-06_10h08.41.089,Colour_Similarity_Experiment,2020.2.10,Win32,60,6067542a4a25243f4d7d4fcf,17.41555693,16.65270939,16.65193831,16.65467589,16.65027474,16.65270939,,,,,,,,,,,,,,,,,,,8,PF,strong,3,45.60006095,-116.8000082,1,0,0,response3disk_5,2,4,6.26429,4.000011504,1.599993587,1,0,0,rectangle_8,4.000011504,1.599993587,1,0,0,1,4.000011504,1.599993587,1,0,0,0,5,5,2,1,,,,,,,,,,,,,,,,,,,,,,,,,,,,,,,,,,,,,,,,,,,,,,,,,,,,,,,,,,,,,
,,,,,,,,,,,,,,,,,,,,,,,,,,,,,,,,,,,,,,,,,,5f8367c3abf19f4f142c14c0,606c15ef99c2b27d231102cd,2021-04-06_10h08.41.089,Colour_Similarity_Experiment,2020.2.10,Win32,60,6067542a4a25243f4d7d4fcf,17.41555693,16.65270939,16.65193831,16.65467589,16.65027474,16.65270939,,,,,,,,,,,,,,,,,,,6,PF,weak,3,-99.19999003,-43.20000708,1,0,0,response5disk_5,7,2,3.32854,12.80001163,5.599993646,1,0,0,rectangle_8,12.80001163,5.599993646,1,0,0,1,12.80001163,5.599993646,1,0,0,0,6,6,5,1,,,,,,,,,,,,,,,,,,,,,,,,,,,,,,,,,,,,,,,,,,,,,,,,,,,,,,,,,,,,,
,,,,,,,,,,,,,,,,,,,,,,,,,,,,,,,,,,,,,,,,,,5f8367c3abf19f4f142c14c0,606c15ef99c2b27d231102cd,2021-04-06_10h08.41.089,Colour_Similarity_Experiment,2020.2.10,Win32,60,6067542a4a25243f4d7d4fcf,17.41555693,16.65270939,16.65193831,16.65467589,16.65027474,16.65270939,,,,,,,,,,,,,,,,,,,,PF,strong,3,,,,,,,,3,1.8473,,,,,,,,,,,,,,,,,,,,,,,,,,space,3.397325,4,strong,-59.99998945,-93.60005666,1,0,0,response5disk,4,1,-8.799988687,6.399993658,1,0,0,rectangle,-8.799988687,6.399993658,1,0,0,,2,0.001605,-8.799988687,6.399993658,1,0,0,0,0,0,84,1,0,,,,,,,,,,,,,,,,,,,,,
,,,,,,,,,,,,,,,,,,,,,,,,,,,,,,,,,,,,,,,,,,5f8367c3abf19f4f142c14c0,606c15ef99c2b27d231102cd,2021-04-06_10h08.41.089,Colour_Similarity_Experiment,2020.2.10,Win32,60,6067542a4a25243f4d7d4fcf,17.41555693,16.65270939,16.65193831,16.65467589,16.65027474,16.65270939,,,,,,,,,,,,,,,,,,,,PF,weak,3,,,,,,,,2,2.165,,,,,,,,,,,,,,,,,,,,,,,,,,,,9,weak,-112.7999902,-47.20000714,1,0,0,response5disk,1,2,1.600060296,4.799993634,1,0,0,rectangle,1.600060296,4.799993634,1,0,0,,7,0.00207,1.600060296,4.799993634,1,0,0,0,1,1,74,1,0,,,,,,,,,,,,,,,,,,,,,
,,,,,,,,,,,,,,,,,,,,,,,,,,,,,,,,,,,,,,,,,,5f8367c3abf19f4f142c14c0,606c15ef99c2b27d231102cd,2021-04-06_10h08.41.089,Colour_Similarity_Experiment,2020.2.10,Win32,60,6067542a4a25243f4d7d4fcf,17.41555693,16.65270939,16.65193831,16.65467589,16.65027474,16.65270939,,,,,,,,,,,,,,,,,,,,PF,strong,3,,,,,,,,3,1.333105,,,,,,,,,,,,,,,,,,,,,,,,,,,,5,strong,-36.7999891,-85.60005654,1,0,0,response5disk,4,3,-4.799988627,-10.40000659,1,0,0,rectangle,-4.799988627,-10.40000659,1,0,0,,7,0.00038,-4.799988627,-10.40000659,1,0,0,0,2,2,8,1,0,,,,,,,,,,,,,,,,,,,,,
,,,,,,,,,,,,,,,,,,,,,,,,,,,,,,,,,,,,,,,,,,5f8367c3abf19f4f142c14c0,606c15ef99c2b27d231102cd,2021-04-06_10h08.41.089,Colour_Similarity_Experiment,2020.2.10,Win32,60,6067542a4a25243f4d7d4fcf,17.41555693,16.65270939,16.65193831,16.65467589,16.65027474,16.65270939,,,,,,,,,,,,,,,,,,,,PF,strong,3,,,,,,,,4,1.298495,,,,,,,,,,,,,,,,,,,,,,,,,,,,2,strong,40.00001204,-79.20000762,1,0,0,response3disk,4,4,15.20001167,7.19999367,1,0,0,rectangle,15.20001167,7.19999367,1,0,0,,1,0.001965,15.20001167,7.19999367,1,0,0,0,3,3,145,1,0,,,,,,,,,,,,,,,,,,,,,
,,,,,,,,,,,,,,,,,,,,,,,,,,,,,,,,,,,,,,,,,,5f8367c3abf19f4f142c14c0,606c15ef99c2b27d231102cd,2021-04-06_10h08.41.089,Colour_Similarity_Experiment,2020.2.10,Win32,60,6067542a4a25243f4d7d4fcf,17.41555693,16.65270939,16.65193831,16.65467589,16.65027474,16.65270939,,,,,,,,,,,,,,,,,,,,PF,strong,3,,,,,,,,3,3.131275,,,,,,,,,,,,,,,,,,,,,,,,,,,,8,strong,-62.39994066,-97.60005672,1,0,0,response5disk,5,5,1.600060296,-0.800006449,1,0,0,rectangle,1.600060296,-0.800006449,1,0,0,,5,0.00302,1.600060296,-0.800006449,1,0,0,0,4,4,152,1,0,,,,,,,,,,,,,,,,,,,,,
,,,,,,,,,,,,,,,,,,,,,,,,,,,,,,,,,,,,,,,,,,5f8367c3abf19f4f142c14c0,606c15ef99c2b27d231102cd,2021-04-06_10h08.41.089,Colour_Similarity_Experiment,2020.2.10,Win32,60,6067542a4a25243f4d7d4fcf,17.41555693,16.65270939,16.65193831,16.65467589,16.65027474,16.65270939,,,,,,,,,,,,,,,,,,,,PF,weak,3,,,,,,,,2,1.43375,,,,,,,,,,,,,,,,,,,,,,,,,,,,9,weak,-95.19998997,-43.20000708,1,0,0,response5disk,9,6,-7.999988675,9.599993706,1,0,0,rectangle,-7.999988675,9.599993706,1,0,0,,5,0.00042,-7.999988675,9.599993706,1,0,0,0,5,5,106,1,0,,,,,,,,,,,,,,,,,,,,,
,,,,,,,,,,,,,,,,,,,,,,,,,,,,,,,,,,,,,,,,,,5f8367c3abf19f4f142c14c0,606c15ef99c2b27d231102cd,2021-04-06_10h08.41.089,Colour_Similarity_Experiment,2020.2.10,Win32,60,6067542a4a25243f4d7d4fcf,17.41555693,16.65270939,16.65193831,16.65467589,16.65027474,16.65270939,,,,,,,,,,,,,,,,,,,,PF,strong,3,,,,,,,,3,1.89943,,,,,,,,,,,,,,,,,,,,,,,,,,,,8,strong,-45.59998924,-87.20000774,1,0,0,response5disk,6,7,4.000011504,-6.400006533,1,0,0,rectangle,4.000011504,-6.400006533,1,0,0,,0,0.002755,4.000011504,-6.400006533,1,0,0,0,6,6,37,1,0,,,,,,,,,,,,,,,,,,,,,
,,,,,,,,,,,,,,,,,,,,,,,,,,,,,,,,,,,,,,,,,,5f8367c3abf19f4f142c14c0,606c15ef99c2b27d231102cd,2021-04-06_10h08.41.089,Colour_Similarity_Experiment,2020.2.10,Win32,60,6067542a4a25243f4d7d4fcf,17.41555693,16.65270939,16.65193831,16.65467589,16.65027474,16.65270939,,,,,,,,,,,,,,,,,,,,PF,weak,3,,,,,,,,4,2.59768,,,,,,,,,,,,,,,,,,,,,,,,,,,,4,weak,60.00001234,-105.6000568,1,0,0,response3disk,5,8,-9.599988699,-7.200006545,1,0,0,rectangle,-9.599988699,-7.200006545,1,0,0,,4,0.001045,-9.599988699,-7.200006545,1,0,0,0,7,7,49,1,0,,,,,,,,,,,,,,,,,,,,,
,,,,,,,,,,,,,,,,,,,,,,,,,,,,,,,,,,,,,,,,,,5f8367c3abf19f4f142c14c0,606c15ef99c2b27d231102cd,2021-04-06_10h08.41.089,Colour_Similarity_Experiment,2020.2.10,Win32,60,6067542a4a25243f4d7d4fcf,17.41555693,16.65270939,16.65193831,16.65467589,16.65027474,16.65270939,,,,,,,,,,,,,,,,,,,,PF,weak,3,,,,,,,,6,1.382625,,,,,,,,,,,,,,,,,,,,,,,,,,,,9,weak,88.00001276,41.59999418,1,0,0,response1disk,3,9,-1.59998858,-1.600006461,1,0,0,rectangle,-1.59998858,-1.600006461,1,0,0,,2,0.00347,-1.59998858,-1.600006461,1,0,0,0,8,8,119,1,0,,,,,,,,,,,,,,,,,,,,,
,,,,,,,,,,,,,,,,,,,,,,,,,,,,,,,,,,,,,,,,,,5f8367c3abf19f4f142c14c0,606c15ef99c2b27d231102cd,2021-04-06_10h08.41.089,Colour_Similarity_Experiment,2020.2.10,Win32,60,6067542a4a25243f4d7d4fcf,17.41555693,16.65270939,16.65193831,16.65467589,16.65027474,16.65270939,,,,,,,,,,,,,,,,,,,,PF,weak,3,,,,,,,,3,1.29933,,,,,,,,,,,,,,,,,,,,,,,,,,,,2,weak,-49.5999893,-76.00000757,1,0,0,response5disk,8,10,-3.199988604,3.19999361,1,0,0,rectangle,-3.199988604,3.19999361,1,0,0,,7,0.00298,-3.199988604,3.19999361,1,0,0,0,9,9,52,1,0,,,,,,,,,,,,,,,,,,,,,
,,,,,,,,,,,,,,,,,,,,,,,,,,,,,,,,,,,,,,,,,,5f8367c3abf19f4f142c14c0,606c15ef99c2b27d231102cd,2021-04-06_10h08.41.089,Colour_Similarity_Experiment,2020.2.10,Win32,60,6067542a4a25243f4d7d4fcf,17.41555693,16.65270939,16.65193831,16.65467589,16.65027474,16.65270939,,,,,,,,,,,,,,,,,,,,PF,weak,3,,,,,,,,2,1.483465,,,,,,,,,,,,,,,,,,,,,,,,,,,,2,weak,-82.39994096,-36.00000697,1,0,0,response5disk,2,11,-3.199988604,1.599993587,1,0,0,rectangle,-3.199988604,1.599993587,1,0,0,,1,0.001065,-3.199988604,1.599993587,1,0,0,0,10,10,14,1,0,,,,,,,,,,,,,,,,,,,,,
,,,,,,,,,,,,,,,,,,,,,,,,,,,,,,,,,,,,,,,,,,5f8367c3abf19f4f142c14c0,606c15ef99c2b27d231102cd,2021-04-06_10h08.41.089,Colour_Similarity_Experiment,2020.2.10,Win32,60,6067542a4a25243f4d7d4fcf,17.41555693,16.65270939,16.65193831,16.65467589,16.65027474,16.65270939,,,,,,,,,,,,,,,,,,,,PF,strong,3,,,,,,,,5,1.716125,,,,,,,,,,,,,,,,,,,,,,,,,,,,9,strong,99.20001292,-29.60000688,1,0,0,response3disk,7,12,4.000011504,-5.600006521,1,0,0,rectangle,4.000011504,-5.600006521,1,0,0,,7,0.00133,4.000011504,-5.600006521,1,0,0,0,11,11,100,1,0,,,,,,,,,,,,,,,,,,,,,
,,,,,,,,,,,,,,,,,,,,,,,,,,,,,,,,,,,,,,,,,,5f8367c3abf19f4f142c14c0,606c15ef99c2b27d231102cd,2021-04-06_10h08.41.089,Colour_Similarity_Experiment,2020.2.10,Win32,60,6067542a4a25243f4d7d4fcf,17.41555693,16.65270939,16.65193831,16.65467589,16.65027474,16.65270939,,,,,,,,,,,,,,,,,,,,PF,strong,3,,,,,,,,6,1.499515,,,,,,,,,,,,,,,,,,,,,,,,,,,,7,strong,118.4000132,25.59999394,1,0,0,response1disk,2,13,-3.199988604,-13.60000664,1,0,0,rectangle,-3.199988604,-13.60000664,1,0,0,,5,0.002805,-3.199988604,-13.60000664,1,0,0,0,12,12,138,1,0,,,,,,,,,,,,,,,,,,,,,
,,,,,,,,,,,,,,,,,,,,,,,,,,,,,,,,,,,,,,,,,,5f8367c3abf19f4f142c14c0,606c15ef99c2b27d231102cd,2021-04-06_10h08.41.089,Colour_Similarity_Experiment,2020.2.10,Win32,60,6067542a4a25243f4d7d4fcf,17.41555693,16.65270939,16.65193831,16.65467589,16.65027474,16.65270939,,,,,,,,,,,,,,,,,,,,PF,weak,3,,,,,,,,2,2.6148,,,,,,,,,,,,,,,,,,,,,,,,,,,,2,weak,-94.39994113,-52.00000721,1,0,0,response5disk,1,14,12.00001162,1.599993587,1,0,0,rectangle,12.00001162,1.599993587,1,0,0,,5,0.0005,12.00001162,1.599993587,1,0,0,0,13,13,9,1,0,,,,,,,,,,,,,,,,,,,,,
,,,,,,,,,,,,,,,,,,,,,,,,,,,,,,,,,,,,,,,,,,5f8367c3abf19f4f142c14c0,606c15ef99c2b27d231102cd,2021-04-06_10h08.41.089,Colour_Similarity_Experiment,2020.2.10,Win32,60,6067542a4a25243f4d7d4fcf,17.41555693,16.65270939,16.65193831,16.65467589,16.65027474,16.65270939,,,,,,,,,,,,,,,,,,,,PF,weak,3,,,,,,,,4,4.627995,,,,,,,,,,,,,,,,,,,,,,,,,,,,8,weak,49.60006101,-103.200008,1,0,0,response3disk,4,15,2.40001148,-4.000006497,1,0,0,rectangle,2.40001148,-4.000006497,1,0,0,,3,0.001665,2.40001148,-4.000006497,1,0,0,0,14,14,78,1,0,,,,,,,,,,,,,,,,,,,,,
,,,,,,,,,,,,,,,,,,,,,,,,,,,,,,,,,,,,,,,,,,5f8367c3abf19f4f142c14c0,606c15ef99c2b27d231102cd,2021-04-06_10h08.41.089,Colour_Similarity_Experiment,2020.2.10,Win32,60,6067542a4a25243f4d7d4fcf,17.41555693,16.65270939,16.65193831,16.65467589,16.65027474,16.65270939,,,,,,,,,,,,,,,,,,,,PF,weak,3,,,,,,,,5,1.89835,,,,,,,,,,,,,,,,,,,,,,,,,,,,2,weak,110.4000131,-43.20000708,1,0,0,response3disk,4,16,19.20001173,-8.800006568,1,0,0,rectangle,19.20001173,-8.800006568,1,0,0,,4,0.002585,19.20001173,-8.800006568,1,0,0,0,15,15,127,1,0,,,,,,,,,,,,,,,,,,,,,
,,,,,,,,,,,,,,,,,,,,,,,,,,,,,,,,,,,,,,,,,,5f8367c3abf19f4f142c14c0,606c15ef99c2b27d231102cd,2021-04-06_10h08.41.089,Colour_Similarity_Experiment,2020.2.10,Win32,60,6067542a4a25243f4d7d4fcf,17.41555693,16.65270939,16.65193831,16.65467589,16.65027474,16.65270939,,,,,,,,,,,,,,,,,,,,PF,strong,3,,,,,,,,7,1.39877,,,,,,,,,,,,,,,,,,,,,,,,,,,,7,strong,36.00001198,94.39999497,1,0,0,response1disk,1,17,2.40001148,0.799993575,1,0,0,rectangle,2.40001148,0.799993575,1,0,0,,2,0.002555,2.40001148,0.799993575,1,0,0,0,16,16,132,1,0,,,,,,,,,,,,,,,,,,,,,
,,,,,,,,,,,,,,,,,,,,,,,,,,,,,,,,,,,,,,,,,,5f8367c3abf19f4f142c14c0,606c15ef99c2b27d231102cd,2021-04-06_10h08.41.089,Colour_Similarity_Experiment,2020.2.10,Win32,60,6067542a4a25243f4d7d4fcf,17.41555693,16.65270939,16.65193831,16.65467589,16.65027474,16.65270939,,,,,,,,,,,,,,,,,,,,PF,weak,3,,,,,,,,0,3.164315,,,,,,,,,,,,,,,,,,,,,,,,,,,,1,weak,-44.79998922,99.19997063,1,0,0,response7disk,1,18,9.600060415,7.19999367,1,0,0,rectangle,44.0000121,-103.200008,1,0,0,4,4,3.733745,20.00001174,-4.000006497,1,0,0,0,17,17,76,1,1,response3disk_3,rectangle,,,,,,,,,,,,,,,,,,,
,,,,,,,,,,,,,,,,,,,,,,,,,,,,,,,,,,,,,,,,,,5f8367c3abf19f4f142c14c0,606c15ef99c2b27d231102cd,2021-04-06_10h08.41.089,Colour_Similarity_Experiment,2020.2.10,Win32,60,6067542a4a25243f4d7d4fcf,17.41555693,16.65270939,16.65193831,16.65467589,16.65027474,16.65270939,,,,,,,,,,,,,,,,,,,,PF,weak,3,,,,,,,,1,1.66252,,,,,,,,,,,,,,,,,,,,,,,,,,,,4,weak,-80.79998976,48.79999429,1,0,0,response7disk,3,19,-11.99998873,-0.800006449,1,0,0,rectangle,-11.99998873,-0.800006449,1,0,0,4,3,0.000995,-11.99998873,-0.800006449,1,0,0,0,18,18,89,1,0,,,,,,,,,,,,,,,,,,,,,
,,,,,,,,,,,,,,,,,,,,,,,,,,,,,,,,,,,,,,,,,,5f8367c3abf19f4f142c14c0,606c15ef99c2b27d231102cd,2021-04-06_10h08.41.089,Colour_Similarity_Experiment,2020.2.10,Win32,60,6067542a4a25243f4d7d4fcf,17.41555693,16.65270939,16.65193831,16.65467589,16.65027474,16.65270939,,,,,,,,,,,,,,,,,,,,PF,strong,3,,,,,,,,3,1.11571,,,,,,,,,,,,,,,,,,,,,,,,,,,,1,strong,-47.19998926,-89.6000566,1,0,0,response5disk,4,20,-11.99998873,-7.200006545,1,0,0,rectangle,-11.99998873,-7.200006545,1,0,0,4,4,0.002425,-11.99998873,-7.200006545,1,0,0,0,19,19,135,1,0,,,,,,,,,,,,,,,,,,,,,
,,,,,,,,,,,,,,,,,,,,,,,,,,,,,,,,,,,,,,,,,,5f8367c3abf19f4f142c14c0,606c15ef99c2b27d231102cd,2021-04-06_10h08.41.089,Colour_Similarity_Experiment,2020.2.10,Win32,60,6067542a4a25243f4d7d4fcf,17.41555693,16.65270939,16.65193831,16.65467589,16.65027474,16.65270939,,,,,,,,,,,,,,,,,,,,PF,strong,3,,,,,,,,3,1.14554,,,,,,,,,,,,,,,,,,,,,,,,,,,,4,strong,-50.39994048,-80.80000764,1,0,0,response5disk,5,21,4.000011504,3.999993622,1,0,0,rectangle,4.000011504,3.999993622,1,0,0,4,5,0.002705,4.000011504,3.999993622,1,0,0,0,20,20,116,1,0,,,,,,,,,,,,,,,,,,,,,
,,,,,,,,,,,,,,,,,,,,,,,,,,,,,,,,,,,,,,,,,,5f8367c3abf19f4f142c14c0,606c15ef99c2b27d231102cd,2021-04-06_10h08.41.089,Colour_Similarity_Experiment,2020.2.10,Win32,60,6067542a4a25243f4d7d4fcf,17.41555693,16.65270939,16.65193831,16.65467589,16.65027474,16.65270939,,,,,,,,,,,,,,,,,,,,PF,strong,3,,,,,,,,5,1.272175,,,,,,,,,,,,,,,,,,,,,,,,,,,,3,strong,98.40001291,-44.8000071,1,0,0,response3disk,1,22,15.20001167,-11.2000066,1,0,0,rectangle,15.20001167,-11.2000066,1,0,0,4,4,0.002485,15.20001167,-11.2000066,1,0,0,0,21,21,125,1,0,,,,,,,,,,,,,,,,,,,,,
,,,,,,,,,,,,,,,,,,,,,,,,,,,,,,,,,,,,,,,,,,5f8367c3abf19f4f142c14c0,606c15ef99c2b27d231102cd,2021-04-06_10h08.41.089,Colour_Similarity_Experiment,2020.2.10,Win32,60,6067542a4a25243f4d7d4fcf,17.41555693,16.65270939,16.65193831,16.65467589,16.65027474,16.65270939,,,,,,,,,,,,,,,,,,,,PF,weak,3,,,,,,,,1,1.831485,,,,,,,,,,,,,,,,,,,,,,,,,,,,5,weak,-85.59998983,52.79999435,1,0,0,response7disk,5,23,-2.399939764,1.599993587,1,0,0,rectangle,-2.399939764,1.599993587,1,0,0,4,6,0.00315,-2.399939764,1.599993587,1,0,0,0,22,22,94,1,0,,,,,,,,,,,,,,,,,,,,,
,,,,,,,,,,,,,,,,,,,,,,,,,,,,,,,,,,,,,,,,,,5f8367c3abf19f4f142c14c0,606c15ef99c2b27d231102cd,2021-04-06_10h08.41.089,Colour_Similarity_Experiment,2020.2.10,Win32,60,6067542a4a25243f4d7d4fcf,17.41555693,16.65270939,16.65193831,16.65467589,16.65027474,16.65270939,,,,,,,,,,,,,,,,,,,,PF,strong,3,,,,,,,,6,1.615645,,,,,,,,,,,,,,,,,,,,,,,,,,,,9,strong,112.8000131,52.79999435,1,0,0,response1disk,3,24,8.000011563,-3.200006485,1,0,0,rectangle,8.000011563,-3.200006485,1,0,0,4,4,0.00312,8.000011563,-3.200006485,1,0,0,0,23,23,141,1,0,,,,,,,,,,,,,,,,,,,,,
,,,,,,,,,,,,,,,,,,,,,,,,,,,,,,,,,,,,,,,,,,5f8367c3abf19f4f142c14c0,606c15ef99c2b27d231102cd,2021-04-06_10h08.41.089,Colour_Similarity_Experiment,2020.2.10,Win32,60,6067542a4a25243f4d7d4fcf,17.41555693,16.65270939,16.65193831,16.65467589,16.65027474,16.65270939,,,,,,,,,,,,,,,,,,,,PF,weak,3,,,,,,,,5,1.09927,,,,,,,,,,,,,,,,,,,,,,,,,,,,5,weak,100.8000129,-48.00000715,1,0,0,response3disk,9,25,19.20001173,0.799993575,1,0,0,rectangle,-110.3999414,-54.40000725,1,0,0,4,2,2.31386,-1.59998858,3.999993622,1,0,0,0,24,24,136,1,1,response5disk_3,rectangle,,,,,,,,,,,,,,,,,,,
,,,,,,,,,,,,,,,,,,,,,,,,,,,,,,,,,,,,,,,,,,5f8367c3abf19f4f142c14c0,606c15ef99c2b27d231102cd,2021-04-06_10h08.41.089,Colour_Similarity_Experiment,2020.2.10,Win32,60,6067542a4a25243f4d7d4fcf,17.41555693,16.65270939,16.65193831,16.65467589,16.65027474,16.65270939,,,,,,,,,,,,,,,,,,,,PF,weak,3,,,,,,,,4,1.515085,,,,,,,,,,,,,,,,,,,,,,,,,,,,6,weak,52.00001222,-92.00000781,1,0,0,response3disk,2,26,3.200011492,0.799993575,1,0,0,rectangle,3.200011492,0.799993575,1,0,0,4,7,0.002935,3.200011492,0.799993575,1,0,0,0,25,25,130,1,0,,,,,,,,,,,,,,,,,,,,,
,,,,,,,,,,,,,,,,,,,,,,,,,,,,,,,,,,,,,,,,,,5f8367c3abf19f4f142c14c0,606c15ef99c2b27d231102cd,2021-04-06_10h08.41.089,Colour_Similarity_Experiment,2020.2.10,Win32,60,6067542a4a25243f4d7d4fcf,17.41555693,16.65270939,16.65193831,16.65467589,16.65027474,16.65270939,,,,,,,,,,,,,,,,,,,,PF,weak,3,,,,,,,,5,1.548895,,,,,,,,,,,,,,,,,,,,,,,,,,,,8,weak,107.200013,-43.20000708,1,0,0,response3disk,2,27,12.80001163,-7.200006545,1,0,0,rectangle,12.80001163,-7.200006545,1,0,0,4,6,0.00458,12.80001163,-7.200006545,1,0,0,0,26,26,83,1,0,,,,,,,,,,,,,,,,,,,,,
,,,,,,,,,,,,,,,,,,,,,,,,,,,,,,,,,,,,,,,,,,5f8367c3abf19f4f142c14c0,606c15ef99c2b27d231102cd,2021-04-06_10h08.41.089,Colour_Similarity_Experiment,2020.2.10,Win32,60,6067542a4a25243f4d7d4fcf,17.41555693,16.65270939,16.65193831,16.65467589,16.65027474,16.65270939,,,,,,,,,,,,,,,,,,,,PF,weak,3,,,,,,,,2,1.115545,,,,,,,,,,,,,,,,,,,,,,,,,,,,7,weak,-82.39994096,-45.60000712,1,0,0,response5disk,5,28,-9.599988699,5.599993646,1,0,0,rectangle,-9.599988699,5.599993646,1,0,0,4,7,0.004095,-9.599988699,5.599993646,1,0,0,0,27,27,92,1,0,,,,,,,,,,,,,,,,,,,,,
,,,,,,,,,,,,,,,,,,,,,,,,,,,,,,,,,,,,,,,,,,5f8367c3abf19f4f142c14c0,606c15ef99c2b27d231102cd,2021-04-06_10h08.41.089,Colour_Similarity_Experiment,2020.2.10,Win32,60,6067542a4a25243f4d7d4fcf,17.41555693,16.65270939,16.65193831,16.65467589,16.65027474,16.65270939,,,,,,,,,,,,,,,,,,,,PF,weak,3,,,,,,,,6,1.147765,,,,,,,,,,,,,,,,,,,,,,,,,,,,3,weak,70.40001249,33.59999406,1,0,0,response1disk,1,29,16.80001169,-8.000006557,1,0,0,rectangle,16.80001169,-8.000006557,1,0,0,4,7,0.00021,16.80001169,-8.000006557,1,0,0,0,28,28,96,1,0,,,,,,,,,,,,,,,,,,,,,
,,,,,,,,,,,,,,,,,,,,,,,,,,,,,,,,,,,,,,,,,,5f8367c3abf19f4f142c14c0,606c15ef99c2b27d231102cd,2021-04-06_10h08.41.089,Colour_Similarity_Experiment,2020.2.10,Win32,60,6067542a4a25243f4d7d4fcf,17.41555693,16.65270939,16.65193831,16.65467589,16.65027474,16.65270939,,,,,,,,,,,,,,,,,,,,PF,strong,3,,,,,,,,5,2.115985,,,,,,,,,,,,,,,,,,,,,,,,,,,,1,strong,124.8000133,-50.40000719,1,0,0,response3disk,3,30,-13.59998876,-4.800006509,1,0,0,rectangle,-13.59998876,-4.800006509,1,0,0,4,7,0.00041,-13.59998876,-4.800006509,1,0,0,0,29,29,99,1,0,,,,,,,,,,,,,,,,,,,,,
,,,,,,,,,,,,,,,,,,,,,,,,,,,,,,,,,,,,,,,,,,5f8367c3abf19f4f142c14c0,606c15ef99c2b27d231102cd,2021-04-06_10h08.41.089,Colour_Similarity_Experiment,2020.2.10,Win32,60,6067542a4a25243f4d7d4fcf,17.41555693,16.65270939,16.65193831,16.65467589,16.65027474,16.65270939,,,,,,,,,,,,,,,,,,,,PF,strong,3,,,,,,,,3,1.467955,,,,,,,,,,,,,,,,,,,,,,,,,,,,5,strong,-46.39994042,-80.00000763,1,0,0,response5disk,7,31,-2.399939764,-9.60000658,1,0,0,rectangle,-2.399939764,-9.60000658,1,0,0,4,1,0.001115,-2.399939764,-9.60000658,1,0,0,0,30,30,7,1,0,,,,,,,,,,,,,,,,,,,,,
,,,,,,,,,,,,,,,,,,,,,,,,,,,,,,,,,,,,,,,,,,5f8367c3abf19f4f142c14c0,606c15ef99c2b27d231102cd,2021-04-06_10h08.41.089,Colour_Similarity_Experiment,2020.2.10,Win32,60,6067542a4a25243f4d7d4fcf,17.41555693,16.65270939,16.65193831,16.65467589,16.65027474,16.65270939,,,,,,,,,,,,,,,,,,,,PF,weak,3,,,,,,,,2,1.099365,,,,,,,,,,,,,,,,,,,,,,,,,,,,7,weak,-95.19998997,-40.80000705,1,0,0,response5disk,8,32,16.00001168,-2.400006473,1,0,0,rectangle,16.00001168,-2.400006473,1,0,0,4,4,0.00246,16.00001168,-2.400006473,1,0,0,0,31,31,140,1,0,,,,,,,,,,,,,,,,,,,,,
,,,,,,,,,,,,,,,,,,,,,,,,,,,,,,,,,,,,,,,,,,5f8367c3abf19f4f142c14c0,606c15ef99c2b27d231102cd,2021-04-06_10h08.41.089,Colour_Similarity_Experiment,2020.2.10,Win32,60,6067542a4a25243f4d7d4fcf,17.41555693,16.65270939,16.65193831,16.65467589,16.65027474,16.65270939,,,,,,,,,,,,,,,,,,,,PF,weak,3,,,,,,,,2,0.98392,,,,,,,,,,,,,,,,,,,,,,,,,,,,8,weak,-76.7999897,-29.60000688,1,0,0,response5disk,7,33,3.200011492,8.799993694,1,0,0,rectangle,3.200011492,8.799993694,1,0,0,4,0,0.00288,3.200011492,8.799993694,1,0,0,0,32,32,23,1,0,,,,,,,,,,,,,,,,,,,,,
,,,,,,,,,,,,,,,,,,,,,,,,,,,,,,,,,,,,,,,,,,5f8367c3abf19f4f142c14c0,606c15ef99c2b27d231102cd,2021-04-06_10h08.41.089,Colour_Similarity_Experiment,2020.2.10,Win32,60,6067542a4a25243f4d7d4fcf,17.41555693,16.65270939,16.65193831,16.65467589,16.65027474,16.65270939,,,,,,,,,,,,,,,,,,,,PF,weak,3,,,,,,,,1,1.35072,,,,,,,,,,,,,,,,,,,,,,,,,,,,5,weak,-97.59999001,37.59999412,1,0,0,response7disk,6,34,-31.99998903,0.799993575,1,0,0,rectangle,-31.99998903,0.799993575,1,0,0,4,6,0.001705,-31.99998903,0.799993575,1,0,0,0,33,33,103,1,0,,,,,,,,,,,,,,,,,,,,,
,,,,,,,,,,,,,,,,,,,,,,,,,,,,,,,,,,,,,,,,,,5f8367c3abf19f4f142c14c0,606c15ef99c2b27d231102cd,2021-04-06_10h08.41.089,Colour_Similarity_Experiment,2020.2.10,Win32,60,6067542a4a25243f4d7d4fcf,17.41555693,16.65270939,16.65193831,16.65467589,16.65027474,16.65270939,,,,,,,,,,,,,,,,,,,,PF,weak,3,,,,,,,,1,1.25014,,,,,,,,,,,,,,,,,,,,,,,,,,,,6,weak,-80.79998976,47.99999428,1,0,0,response7disk,6,35,-19.19998884,3.999993622,1,0,0,rectangle,-19.19998884,3.999993622,1,0,0,4,7,0.003215,-19.19998884,3.999993622,1,0,0,0,34,34,0,1,0,,,,,,,,,,,,,,,,,,,,,
,,,,,,,,,,,,,,,,,,,,,,,,,,,,,,,,,,,,,,,,,,5f8367c3abf19f4f142c14c0,606c15ef99c2b27d231102cd,2021-04-06_10h08.41.089,Colour_Similarity_Experiment,2020.2.10,Win32,60,6067542a4a25243f4d7d4fcf,17.41555693,16.65270939,16.65193831,16.65467589,16.65027474,16.65270939,,,,,,,,,,,,,,,,,,,,PF,strong,3,,,,,,,,4,1.369895,,,,,,,,,,,,,,,,,,,,,,,,,,,,4,strong,27.20001185,-80.80000764,1,0,0,response3disk,8,36,8.800011575,0.799993575,1,0,0,rectangle,8.800011575,0.799993575,1,0,0,4,0,0.001055,8.800011575,0.799993575,1,0,0,0,35,35,35,1,0,,,,,,,,,,,,,,,,,,,,,
,,,,,,,,,,,,,,,,,,,,,,,,,,,,,,,,,,,,,,,,,,5f8367c3abf19f4f142c14c0,606c15ef99c2b27d231102cd,2021-04-06_10h08.41.089,Colour_Similarity_Experiment,2020.2.10,Win32,60,6067542a4a25243f4d7d4fcf,17.41555693,16.65270939,16.65193831,16.65467589,16.65027474,16.65270939,,,,,,,,,,,,,,,,,,,,PF,weak,3,,,,,,,,5,1.448575,,,,,,,,,,,,,,,,,,,,,,,,,,,,9,weak,99.20001292,-61.60000736,1,0,0,response3disk,5,37,9.600060415,0.799993575,1,0,0,rectangle,9.600060415,0.799993575,1,0,0,4,3,0.00283,9.600060415,0.799993575,1,0,0,0,36,36,134,1,0,,,,,,,,,,,,,,,,,,,,,
,,,,,,,,,,,,,,,,,,,,,,,,,,,,,,,,,,,,,,,,,,5f8367c3abf19f4f142c14c0,606c15ef99c2b27d231102cd,2021-04-06_10h08.41.089,Colour_Similarity_Experiment,2020.2.10,Win32,60,6067542a4a25243f4d7d4fcf,17.41555693,16.65270939,16.65193831,16.65467589,16.65027474,16.65270939,,,,,,,,,,,,,,,,,,,,PF,strong,3,,,,,,,,3,1.19915,,,,,,,,,,,,,,,,,,,,,,,,,,,,1,strong,-41.59998918,-79.20000762,1,0,0,response5disk,2,38,2.40001148,-0.800006449,1,0,0,rectangle,2.40001148,-0.800006449,1,0,0,4,5,0.00089,2.40001148,-0.800006449,1,0,0,0,37,37,2,1,0,,,,,,,,,,,,,,,,,,,,,
,,,,,,,,,,,,,,,,,,,,,,,,,,,,,,,,,,,,,,,,,,5f8367c3abf19f4f142c14c0,606c15ef99c2b27d231102cd,2021-04-06_10h08.41.089,Colour_Similarity_Experiment,2020.2.10,Win32,60,6067542a4a25243f4d7d4fcf,17.41555693,16.65270939,16.65193831,16.65467589,16.65027474,16.65270939,,,,,,,,,,,,,,,,,,,,PF,strong,3,,,,,,,,2,1.033125,,,,,,,,,,,,,,,,,,,,,,,,,,,,9,strong,-81.59998977,-28.80000687,1,0,0,response5disk,6,39,-11.99998873,-4.800006509,1,0,0,rectangle,-11.99998873,-4.800006509,1,0,0,4,3,0.002565,-11.99998873,-4.800006509,1,0,0,0,38,38,117,1,0,,,,,,,,,,,,,,,,,,,,,
,,,,,,,,,,,,,,,,,,,,,,,,,,,,,,,,,,,,,,,,,,5f8367c3abf19f4f142c14c0,606c15ef99c2b27d231102cd,2021-04-06_10h08.41.089,Colour_Similarity_Experiment,2020.2.10,Win32,60,6067542a4a25243f4d7d4fcf,17.41555693,16.65270939,16.65193831,16.65467589,16.65027474,16.65270939,,,,,,,,,,,,,,,,,,,,PF,weak,3,,,,,,,,4,1.03263,,,,,,,,,,,,,,,,,,,,,,,,,,,,8,weak,56.00001228,-102.400008,1,0,0,response3disk,3,40,13.60006047,-5.600006521,1,0,0,rectangle,13.60006047,-5.600006521,1,0,0,4,0,0.0015,13.60006047,-5.600006521,1,0,0,0,39,39,71,1,0,,,,,,,,,,,,,,,,,,,,,
,,,,,,,,,,,,,,,,,,,,,,,,,,,,,,,,,,,,,,,,,,5f8367c3abf19f4f142c14c0,606c15ef99c2b27d231102cd,2021-04-06_10h08.41.089,Colour_Similarity_Experiment,2020.2.10,Win32,60,6067542a4a25243f4d7d4fcf,17.41555693,16.65270939,16.65193831,16.65467589,16.65027474,16.65270939,,,,,,,,,,,,,,,,,,,,PF,strong,3,,,,,,,,5,1.93136,,,,,,,,,,,,,,,,,,,,,,,,,,,,3,strong,102.400013,-49.60000718,1,0,0,response3disk,9,41,8.000011563,-1.600006461,1,0,0,rectangle,8.000011563,-1.600006461,1,0,0,4,1,0.00239,8.000011563,-1.600006461,1,0,0,0,40,40,143,1,0,,,,,,,,,,,,,,,,,,,,,
,,,,,,,,,,,,,,,,,,,,,,,,,,,,,,,,,,,,,,,,,,5f8367c3abf19f4f142c14c0,606c15ef99c2b27d231102cd,2021-04-06_10h08.41.089,Colour_Similarity_Experiment,2020.2.10,Win32,60,6067542a4a25243f4d7d4fcf,17.41555693,16.65270939,16.65193831,16.65467589,16.65027474,16.65270939,,,,,,,,,,,,,,,,,,,,PF,weak,3,,,,,,,,1,1.18259,,,,,,,,,,,,,,,,,,,,,,,,,,,,8,weak,-85.59998983,44.79999423,1,0,0,response7disk,6,42,11.20001161,8.799993694,1,0,0,rectangle,94.40001285,-53.60000724,1,0,0,5,5,2.96369,11.20001161,2.399993598,1,0,0,0,41,41,161,1,1,response3disk_3,rectangle,,,,,,,,,,,,,,,,,,,
,,,,,,,,,,,,,,,,,,,,,,,,,,,,,,,,,,,,,,,,,,5f8367c3abf19f4f142c14c0,606c15ef99c2b27d231102cd,2021-04-06_10h08.41.089,Colour_Similarity_Experiment,2020.2.10,Win32,60,6067542a4a25243f4d7d4fcf,17.41555693,16.65270939,16.65193831,16.65467589,16.65027474,16.65270939,,,,,,,,,,,,,,,,,,,,PF,strong,3,,,,,,,,2,1.55027,,,,,,,,,,,,,,,,,,,,,,,,,,,,4,strong,-90.39994107,-56.00000727,1,0,0,response5disk,9,43,-2.399939764,-11.2000066,1,0,0,rectangle,-2.399939764,-11.2000066,1,0,0,5,4,0.00172,-2.399939764,-11.2000066,1,0,0,0,42,42,90,1,0,,,,,,,,,,,,,,,,,,,,,
,,,,,,,,,,,,,,,,,,,,,,,,,,,,,,,,,,,,,,,,,,5f8367c3abf19f4f142c14c0,606c15ef99c2b27d231102cd,2021-04-06_10h08.41.089,Colour_Similarity_Experiment,2020.2.10,Win32,60,6067542a4a25243f4d7d4fcf,17.41555693,16.65270939,16.65193831,16.65467589,16.65027474,16.65270939,,,,,,,,,,,,,,,,,,,,PF,strong,3,,,,,,,,1,1.183835,,,,,,,,,,,,,,,,,,,,,,,,,,,,9,strong,-73.59998965,46.39999425,1,0,0,response7disk,9,44,-22.39994006,4.799993634,1,0,0,rectangle,-22.39994006,4.799993634,1,0,0,5,0,0.00136,-22.39994006,4.799993634,1,0,0,0,43,43,17,1,0,,,,,,,,,,,,,,,,,,,,,
,,,,,,,,,,,,,,,,,,,,,,,,,,,,,,,,,,,,,,,,,,5f8367c3abf19f4f142c14c0,606c15ef99c2b27d231102cd,2021-04-06_10h08.41.089,Colour_Similarity_Experiment,2020.2.10,Win32,60,6067542a4a25243f4d7d4fcf,17.41555693,16.65270939,16.65193831,16.65467589,16.65027474,16.65270939,,,,,,,,,,,,,,,,,,,,PF,weak,3,,,,,,,,4,1.31556,,,,,,,,,,,,,,,,,,,,,,,,,,,,7,weak,33.60006077,-76.80000758,1,0,0,response3disk,2,45,1.14441E-05,3.999993622,1,0,0,rectangle,1.14441E-05,3.999993622,1,0,0,5,3,0.004115,1.14441E-05,3.999993622,1,0,0,0,44,44,32,1,0,,,,,,,,,,,,,,,,,,,,,
,,,,,,,,,,,,,,,,,,,,,,,,,,,,,,,,,,,,,,,,,,5f8367c3abf19f4f142c14c0,606c15ef99c2b27d231102cd,2021-04-06_10h08.41.089,Colour_Similarity_Experiment,2020.2.10,Win32,60,6067542a4a25243f4d7d4fcf,17.41555693,16.65270939,16.65193831,16.65467589,16.65027474,16.65270939,,,,,,,,,,,,,,,,,,,,PF,strong,3,,,,,,,,3,1.10008,,,,,,,,,,,,,,,,,,,,,,,,,,,,8,strong,-40.79998916,-80.00000763,1,0,0,response5disk,3,46,-1.59998858,-6.4373E-06,1,0,0,rectangle,-1.59998858,-6.4373E-06,1,0,0,5,7,0.002915,-1.59998858,-6.4373E-06,1,0,0,0,45,45,154,1,0,,,,,,,,,,,,,,,,,,,,,
,,,,,,,,,,,,,,,,,,,,,,,,,,,,,,,,,,,,,,,,,,5f8367c3abf19f4f142c14c0,606c15ef99c2b27d231102cd,2021-04-06_10h08.41.089,Colour_Similarity_Experiment,2020.2.10,Win32,60,6067542a4a25243f4d7d4fcf,17.41555693,16.65270939,16.65193831,16.65467589,16.65027474,16.65270939,,,,,,,,,,,,,,,,,,,,PF,strong,3,,,,,,,,3,1.48246,,,,,,,,,,,,,,,,,,,,,,,,,,,,6,strong,-35.99998909,-76.80000758,1,0,0,response5disk,8,47,2.40001148,-5.600006521,1,0,0,rectangle,2.40001148,-5.600006521,1,0,0,5,3,0.001625,2.40001148,-5.600006521,1,0,0,0,46,46,133,1,0,,,,,,,,,,,,,,,,,,,,,
,,,,,,,,,,,,,,,,,,,,,,,,,,,,,,,,,,,,,,,,,,5f8367c3abf19f4f142c14c0,606c15ef99c2b27d231102cd,2021-04-06_10h08.41.089,Colour_Similarity_Experiment,2020.2.10,Win32,60,6067542a4a25243f4d7d4fcf,17.41555693,16.65270939,16.65193831,16.65467589,16.65027474,16.65270939,,,,,,,,,,,,,,,,,,,,PF,strong,3,,,,,,,,4,2.064655,,,,,,,,,,,,,,,,,,,,,,,,,,,,4,strong,49.60006101,-67.20000744,1,0,0,response3disk,7,48,8.000011563,0.799993575,1,0,0,rectangle,8.000011563,0.799993575,1,0,0,5,4,0.002265,8.000011563,0.799993575,1,0,0,0,47,47,87,1,0,,,,,,,,,,,,,,,,,,,,,
,,,,,,,,,,,,,,,,,,,,,,,,,,,,,,,,,,,,,,,,,,5f8367c3abf19f4f142c14c0,606c15ef99c2b27d231102cd,2021-04-06_10h08.41.089,Colour_Similarity_Experiment,2020.2.10,Win32,60,6067542a4a25243f4d7d4fcf,17.41555693,16.65270939,16.65193831,16.65467589,16.65027474,16.65270939,,,,,,,,,,,,,,,,,,,,PF,strong,3,,,,,,,,2,1.166425,,,,,,,,,,,,,,,,,,,,,,,,,,,,8,strong,-83.1999898,-32.00000691,1,0,0,response5disk,9,49,-10.39993988,4.799993634,1,0,0,rectangle,-10.39993988,4.799993634,1,0,0,5,6,0.002455,-10.39993988,4.799993634,1,0,0,0,48,48,105,1,0,,,,,,,,,,,,,,,,,,,,,
,,,,,,,,,,,,,,,,,,,,,,,,,,,,,,,,,,,,,,,,,,5f8367c3abf19f4f142c14c0,606c15ef99c2b27d231102cd,2021-04-06_10h08.41.089,Colour_Similarity_Experiment,2020.2.10,Win32,60,6067542a4a25243f4d7d4fcf,17.41555693,16.65270939,16.65193831,16.65467589,16.65027474,16.65270939,,,,,,,,,,,,,,,,,,,,PF,strong,3,,,,,,,,6,2.000035,,,,,,,,,,,,,,,,,,,,,,,,,,,,9,strong,81.60001266,47.99999428,1,0,0,response1disk,4,50,14.40001166,6.399993658,1,0,0,rectangle,14.40001166,6.399993658,1,0,0,5,2,0.000725,14.40001166,6.399993658,1,0,0,0,49,49,60,1,0,,,,,,,,,,,,,,,,,,,,,
,,,,,,,,,,,,,,,,,,,,,,,,,,,,,,,,,,,,,,,,,,5f8367c3abf19f4f142c14c0,606c15ef99c2b27d231102cd,2021-04-06_10h08.41.089,Colour_Similarity_Experiment,2020.2.10,Win32,60,6067542a4a25243f4d7d4fcf,17.41555693,16.65270939,16.65193831,16.65467589,16.65027474,16.65270939,,,,,,,,,,,,,,,,,,,,PF,strong,3,,,,,,,,3,1.416145,,,,,,,,,,,,,,,,,,,,,,,,,,,,5,strong,-74.39994084,-82.40000767,1,0,0,response5disk,3,51,10.4000116,-5.600006521,1,0,0,rectangle,10.4000116,-5.600006521,1,0,0,5,5,0.002765,10.4000116,-5.600006521,1,0,0,0,50,50,25,1,0,,,,,,,,,,,,,,,,,,,,,
,,,,,,,,,,,,,,,,,,,,,,,,,,,,,,,,,,,,,,,,,,5f8367c3abf19f4f142c14c0,606c15ef99c2b27d231102cd,2021-04-06_10h08.41.089,Colour_Similarity_Experiment,2020.2.10,Win32,60,6067542a4a25243f4d7d4fcf,17.41555693,16.65270939,16.65193831,16.65467589,16.65027474,16.65270939,,,,,,,,,,,,,,,,,,,,PF,weak,3,,,,,,,,3,1.62911,,,,,,,,,,,,,,,,,,,,,,,,,,,,2,weak,-47.99998927,-100.0000079,1,0,0,response5disk,6,52,12.00001162,-15.20000666,1,0,0,rectangle,12.00001162,-15.20000666,1,0,0,5,6,0.002625,12.00001162,-15.20000666,1,0,0,0,51,51,113,1,0,,,,,,,,,,,,,,,,,,,,,
,,,,,,,,,,,,,,,,,,,,,,,,,,,,,,,,,,,,,,,,,,5f8367c3abf19f4f142c14c0,606c15ef99c2b27d231102cd,2021-04-06_10h08.41.089,Colour_Similarity_Experiment,2020.2.10,Win32,60,6067542a4a25243f4d7d4fcf,17.41555693,16.65270939,16.65193831,16.65467589,16.65027474,16.65270939,,,,,,,,,,,,,,,,,,,,PF,weak,3,,,,,,,,7,1.3348,,,,,,,,,,,,,,,,,,,,,,,,,,,,1,weak,52.00001222,63.99999452,1,0,0,response1disk,4,53,17.60006053,4.799993634,1,0,0,rectangle,17.60006053,4.799993634,1,0,0,5,5,0.003265,17.60006053,4.799993634,1,0,0,0,52,52,139,1,0,,,,,,,,,,,,,,,,,,,,,
,,,,,,,,,,,,,,,,,,,,,,,,,,,,,,,,,,,,,,,,,,5f8367c3abf19f4f142c14c0,606c15ef99c2b27d231102cd,2021-04-06_10h08.41.089,Colour_Similarity_Experiment,2020.2.10,Win32,60,6067542a4a25243f4d7d4fcf,17.41555693,16.65270939,16.65193831,16.65467589,16.65027474,16.65270939,,,,,,,,,,,,,,,,,,,,PF,weak,3,,,,,,,,4,1.16665,,,,,,,,,,,,,,,,,,,,,,,,,,,,8,weak,63.20001239,-84.8000077,1,0,0,response3disk,9,54,-7.999988675,3.999993622,1,0,0,rectangle,-7.999988675,3.999993622,1,0,0,5,3,0.00342,-7.999988675,3.999993622,1,0,0,0,53,53,42,1,0,,,,,,,,,,,,,,,,,,,,,
,,,,,,,,,,,,,,,,,,,,,,,,,,,,,,,,,,,,,,,,,,5f8367c3abf19f4f142c14c0,606c15ef99c2b27d231102cd,2021-04-06_10h08.41.089,Colour_Similarity_Experiment,2020.2.10,Win32,60,6067542a4a25243f4d7d4fcf,17.41555693,16.65270939,16.65193831,16.65467589,16.65027474,16.65270939,,,,,,,,,,,,,,,,,,,,PF,weak,3,,,,,,,,1,1.283015,,,,,,,,,,,,,,,,,,,,,,,,,,,,6,weak,-87.19998986,38.39999413,1,0,0,response7disk,7,55,-22.39994006,3.19999361,1,0,0,rectangle,-22.39994006,3.19999361,1,0,0,5,4,0.00187,-22.39994006,3.19999361,1,0,0,0,54,54,50,1,0,,,,,,,,,,,,,,,,,,,,,
,,,,,,,,,,,,,,,,,,,,,,,,,,,,,,,,,,,,,,,,,,5f8367c3abf19f4f142c14c0,606c15ef99c2b27d231102cd,2021-04-06_10h08.41.089,Colour_Similarity_Experiment,2020.2.10,Win32,60,6067542a4a25243f4d7d4fcf,17.41555693,16.65270939,16.65193831,16.65467589,16.65027474,16.65270939,,,,,,,,,,,,,,,,,,,,PF,weak,3,,,,,,,,7,1.15007,,,,,,,,,,,,,,,,,,,,,,,,,,,,1,weak,39.20001203,101.5999951,1,0,0,response1disk,6,56,-11.19998872,-4.800006509,1,0,0,rectangle,-11.19998872,-4.800006509,1,0,0,5,6,0.001865,-11.19998872,-4.800006509,1,0,0,0,55,55,144,1,0,,,,,,,,,,,,,,,,,,,,,
,,,,,,,,,,,,,,,,,,,,,,,,,,,,,,,,,,,,,,,,,,5f8367c3abf19f4f142c14c0,606c15ef99c2b27d231102cd,2021-04-06_10h08.41.089,Colour_Similarity_Experiment,2020.2.10,Win32,60,6067542a4a25243f4d7d4fcf,17.41555693,16.65270939,16.65193831,16.65467589,16.65027474,16.65270939,,,,,,,,,,,,,,,,,,,,PF,weak,3,,,,,,,,3,1.332435,,,,,,,,,,,,,,,,,,,,,,,,,,,,4,weak,-53.59998935,-88.00000775,1,0,0,response5disk,2,57,-13.59998876,3.19999361,1,0,0,rectangle,-13.59998876,3.19999361,1,0,0,5,0,0.000925,-13.59998876,3.19999361,1,0,0,0,56,56,108,1,0,,,,,,,,,,,,,,,,,,,,,
,,,,,,,,,,,,,,,,,,,,,,,,,,,,,,,,,,,,,,,,,,5f8367c3abf19f4f142c14c0,606c15ef99c2b27d231102cd,2021-04-06_10h08.41.089,Colour_Similarity_Experiment,2020.2.10,Win32,60,6067542a4a25243f4d7d4fcf,17.41555693,16.65270939,16.65193831,16.65467589,16.65027474,16.65270939,,,,,,,,,,,,,,,,,,,,PF,strong,3,,,,,,,,2,1.46683,,,,,,,,,,,,,,,,,,,,,,,,,,,,5,strong,-72.79998964,-32.00000691,1,0,0,response5disk,2,58,-20.79998887,7.999993682,1,0,0,rectangle,55.20001227,-112.8000081,1,0,0,4,4,2.146705,24.0000118,-2.400006473,1,0,0,0,57,57,55,1,1,response3disk_3,rectangle,,,,,,,,,,,,,,,,,,,
,,,,,,,,,,,,,,,,,,,,,,,,,,,,,,,,,,,,,,,,,,5f8367c3abf19f4f142c14c0,606c15ef99c2b27d231102cd,2021-04-06_10h08.41.089,Colour_Similarity_Experiment,2020.2.10,Win32,60,6067542a4a25243f4d7d4fcf,17.41555693,16.65270939,16.65193831,16.65467589,16.65027474,16.65270939,,,,,,,,,,,,,,,,,,,,PF,strong,3,,,,,,,,5,1.03095,,,,,,,,,,,,,,,,,,,,,,,,,,,,9,strong,94.40001285,-52.00000721,1,0,0,response3disk,5,59,18.40001172,-8.000006557,1,0,0,rectangle,18.40001172,-8.000006557,1,0,0,4,1,0.001855,18.40001172,-8.000006557,1,0,0,0,58,58,128,1,0,,,,,,,,,,,,,,,,,,,,,
,,,,,,,,,,,,,,,,,,,,,,,,,,,,,,,,,,,,,,,,,,5f8367c3abf19f4f142c14c0,606c15ef99c2b27d231102cd,2021-04-06_10h08.41.089,Colour_Similarity_Experiment,2020.2.10,Win32,60,6067542a4a25243f4d7d4fcf,17.41555693,16.65270939,16.65193831,16.65467589,16.65027474,16.65270939,,,,,,,,,,,,,,,,,,,,PF,strong,3,,,,,,,,3,1.116535,,,,,,,,,,,,,,,,,,,,,,,,,,,,3,strong,-35.19998908,-87.20000774,1,0,0,response5disk,7,60,1.14441E-05,0.799993575,1,0,0,rectangle,1.14441E-05,0.799993575,1,0,0,4,4,0.00566,1.14441E-05,0.799993575,1,0,0,0,59,59,118,1,0,,,,,,,,,,,,,,,,,,,,,
,,,,,,,,,,,,,,,,,,,,,,,,,,,,,,,,,,,,,,,,,,5f8367c3abf19f4f142c14c0,606c15ef99c2b27d231102cd,2021-04-06_10h08.41.089,Colour_Similarity_Experiment,2020.2.10,Win32,60,6067542a4a25243f4d7d4fcf,17.41555693,16.65270939,16.65193831,16.65467589,16.65027474,16.65270939,,,,,,,,,,,,,,,,,,,,PF,weak,3,,,,,,,,4,0.983265,,,,,,,,,,,,,,,,,,,,,,,,,,,,4,weak,64.80001241,-94.40000784,1,0,0,response3disk,8,61,28.80001187,-5.600006521,1,0,0,rectangle,28.80001187,-5.600006521,1,0,0,4,6,0.002365,28.80001187,-5.600006521,1,0,0,0,60,60,124,1,0,,,,,,,,,,,,,,,,,,,,,
,,,,,,,,,,,,,,,,,,,,,,,,,,,,,,,,,,,,,,,,,,5f8367c3abf19f4f142c14c0,606c15ef99c2b27d231102cd,2021-04-06_10h08.41.089,Colour_Similarity_Experiment,2020.2.10,Win32,60,6067542a4a25243f4d7d4fcf,17.41555693,16.65270939,16.65193831,16.65467589,16.65027474,16.65270939,,,,,,,,,,,,,,,,,,,,PF,weak,3,,,,,,,,5,1.44946,,,,,,,,,,,,,,,,,,,,,,,,,,,,2,weak,96.80001289,-58.40000731,1,0,0,response3disk,7,62,8.000011563,6.399993658,1,0,0,rectangle,8.000011563,6.399993658,1,0,0,4,7,0.00191,8.000011563,6.399993658,1,0,0,0,61,61,107,1,0,,,,,,,,,,,,,,,,,,,,,
,,,,,,,,,,,,,,,,,,,,,,,,,,,,,,,,,,,,,,,,,,5f8367c3abf19f4f142c14c0,606c15ef99c2b27d231102cd,2021-04-06_10h08.41.089,Colour_Similarity_Experiment,2020.2.10,Win32,60,6067542a4a25243f4d7d4fcf,17.41555693,16.65270939,16.65193831,16.65467589,16.65027474,16.65270939,,,,,,,,,,,,,,,,,,,,PF,weak,3,,,,,,,,3,1.49681,,,,,,,,,,,,,,,,,,,,,,,,,,,,6,weak,-56.7999894,-84.8000077,1,0,0,response5disk,4,63,-2.399939764,6.399993658,1,0,0,rectangle,-2.399939764,6.399993658,1,0,0,4,0,0.000915,-2.399939764,6.399993658,1,0,0,0,62,62,33,1,0,,,,,,,,,,,,,,,,,,,,,
,,,,,,,,,,,,,,,,,,,,,,,,,,,,,,,,,,,,,,,,,,5f8367c3abf19f4f142c14c0,606c15ef99c2b27d231102cd,2021-04-06_10h08.41.089,Colour_Similarity_Experiment,2020.2.10,Win32,60,6067542a4a25243f4d7d4fcf,17.41555693,16.65270939,16.65193831,16.65467589,16.65027474,16.65270939,,,,,,,,,,,,,,,,,,,,PF,strong,3,,,,,,,,2,1.083325,,,,,,,,,,,,,,,,,,,,,,,,,,,,6,strong,-84.79998982,-24.00000679,1,0,0,response5disk,7,64,-13.59998876,2.399993598,1,0,0,rectangle,-13.59998876,2.399993598,1,0,0,4,0,0.00016,-13.59998876,2.399993598,1,0,0,0,63,63,18,1,0,,,,,,,,,,,,,,,,,,,,,
,,,,,,,,,,,,,,,,,,,,,,,,,,,,,,,,,,,,,,,,,,5f8367c3abf19f4f142c14c0,606c15ef99c2b27d231102cd,2021-04-06_10h08.41.089,Colour_Similarity_Experiment,2020.2.10,Win32,60,6067542a4a25243f4d7d4fcf,17.41555693,16.65270939,16.65193831,16.65467589,16.65027474,16.65270939,,,,,,,,,,,,,,,,,,,,PF,weak,3,,,,,,,,5,1.048915,,,,,,,,,,,,,,,,,,,,,,,,,,,,5,weak,100.0000129,-63.20000738,1,0,0,response3disk,1,65,17.60006053,11.99999374,1,0,0,rectangle,-99.19999003,55.19996997,1,0,0,1,1,1.748975,-11.99998873,-2.400006473,1,0,0,0,64,64,159,1,1,response7disk_3,rectangle,,,,,,,,,,,,,,,,,,,
,,,,,,,,,,,,,,,,,,,,,,,,,,,,,,,,,,,,,,,,,,5f8367c3abf19f4f142c14c0,606c15ef99c2b27d231102cd,2021-04-06_10h08.41.089,Colour_Similarity_Experiment,2020.2.10,Win32,60,6067542a4a25243f4d7d4fcf,17.41555693,16.65270939,16.65193831,16.65467589,16.65027474,16.65270939,,,,,,,,,,,,,,,,,,,,PF,strong,3,,,,,,,,1,1.099595,,,,,,,,,,,,,,,,,,,,,,,,,,,,3,strong,-87.19998986,42.39999419,1,0,0,response7disk,3,66,-23.1999889,-1.600006461,1,0,0,rectangle,-23.1999889,-1.600006461,1,0,0,1,3,0.002935,-23.1999889,-1.600006461,1,0,0,0,65,65,68,1,0,,,,,,,,,,,,,,,,,,,,,
,,,,,,,,,,,,,,,,,,,,,,,,,,,,,,,,,,,,,,,,,,5f8367c3abf19f4f142c14c0,606c15ef99c2b27d231102cd,2021-04-06_10h08.41.089,Colour_Similarity_Experiment,2020.2.10,Win32,60,6067542a4a25243f4d7d4fcf,17.41555693,16.65270939,16.65193831,16.65467589,16.65027474,16.65270939,,,,,,,,,,,,,,,,,,,,PF,strong,3,,,,,,,,3,1.136605,,,,,,,,,,,,,,,,,,,,,,,,,,,,3,strong,-53.59998935,-72.80000752,1,0,0,response5disk,5,67,-11.99998873,-3.200006485,1,0,0,rectangle,-11.99998873,-3.200006485,1,0,0,1,7,0.001515,-11.99998873,-3.200006485,1,0,0,0,66,66,101,1,0,,,,,,,,,,,,,,,,,,,,,
,,,,,,,,,,,,,,,,,,,,,,,,,,,,,,,,,,,,,,,,,,5f8367c3abf19f4f142c14c0,606c15ef99c2b27d231102cd,2021-04-06_10h08.41.089,Colour_Similarity_Experiment,2020.2.10,Win32,60,6067542a4a25243f4d7d4fcf,17.41555693,16.65270939,16.65193831,16.65467589,16.65027474,16.65270939,,,,,,,,,,,,,,,,,,,,PF,strong,3,,,,,,,,4,1.132365,,,,,,,,,,,,,,,,,,,,,,,,,,,,8,strong,45.60006095,-85.60005654,1,0,0,response3disk,1,68,8.000011563,2.399993598,1,0,0,rectangle,8.000011563,2.399993598,1,0,0,1,1,0.002755,8.000011563,2.399993598,1,0,0,0,67,67,20,1,0,,,,,,,,,,,,,,,,,,,,,
,,,,,,,,,,,,,,,,,,,,,,,,,,,,,,,,,,,,,,,,,,5f8367c3abf19f4f142c14c0,606c15ef99c2b27d231102cd,2021-04-06_10h08.41.089,Colour_Similarity_Experiment,2020.2.10,Win32,60,6067542a4a25243f4d7d4fcf,17.41555693,16.65270939,16.65193831,16.65467589,16.65027474,16.65270939,,,,,,,,,,,,,,,,,,,,PF,strong,3,,,,,,,,3,1.348215,,,,,,,,,,,,,,,,,,,,,,,,,,,,6,strong,-50.39994048,-91.2000078,1,0,0,response5disk,3,69,13.60006047,-5.600006521,1,0,0,rectangle,13.60006047,-5.600006521,1,0,0,1,0,0.002345,13.60006047,-5.600006521,1,0,0,0,68,68,21,1,0,,,,,,,,,,,,,,,,,,,,,
,,,,,,,,,,,,,,,,,,,,,,,,,,,,,,,,,,,,,,,,,,5f8367c3abf19f4f142c14c0,606c15ef99c2b27d231102cd,2021-04-06_10h08.41.089,Colour_Similarity_Experiment,2020.2.10,Win32,60,6067542a4a25243f4d7d4fcf,17.41555693,16.65270939,16.65193831,16.65467589,16.65027474,16.65270939,,,,,,,,,,,,,,,,,,,,PF,weak,3,,,,,,,,5,1.098845,,,,,,,,,,,,,,,,,,,,,,,,,,,,3,weak,80.00001264,-51.2000072,1,0,0,response3disk,8,70,2.40001148,1.599993587,1,0,0,rectangle,2.40001148,1.599993587,1,0,0,1,0,0.00045,2.40001148,1.599993587,1,0,0,0,69,69,3,1,0,,,,,,,,,,,,,,,,,,,,,
,,,,,,,,,,,,,,,,,,,,,,,,,,,,,,,,,,,,,,,,,,5f8367c3abf19f4f142c14c0,606c15ef99c2b27d231102cd,2021-04-06_10h08.41.089,Colour_Similarity_Experiment,2020.2.10,Win32,60,6067542a4a25243f4d7d4fcf,17.41555693,16.65270939,16.65193831,16.65467589,16.65027474,16.65270939,,,,,,,,,,,,,,,,,,,,PF,strong,3,,,,,,,,2,0.98271,,,,,,,,,,,,,,,,,,,,,,,,,,,,3,strong,-81.59998977,-51.2000072,1,0,0,response5disk,4,71,-23.99998891,-5.600006521,1,0,0,rectangle,-23.99998891,-5.600006521,1,0,0,1,2,0.0014,-23.99998891,-5.600006521,1,0,0,0,70,70,110,1,0,,,,,,,,,,,,,,,,,,,,,
,,,,,,,,,,,,,,,,,,,,,,,,,,,,,,,,,,,,,,,,,,5f8367c3abf19f4f142c14c0,606c15ef99c2b27d231102cd,2021-04-06_10h08.41.089,Colour_Similarity_Experiment,2020.2.10,Win32,60,6067542a4a25243f4d7d4fcf,17.41555693,16.65270939,16.65193831,16.65467589,16.65027474,16.65270939,,,,,,,,,,,,,,,,,,,,PF,weak,3,,,,,,,,3,1.15035,,,,,,,,,,,,,,,,,,,,,,,,,,,,5,weak,-52.79998934,-103.200008,1,0,0,response5disk,7,72,-11.99998873,0.799993575,1,0,0,rectangle,-11.99998873,0.799993575,1,0,0,1,5,0.002475,-11.99998873,0.799993575,1,0,0,0,71,71,146,1,0,,,,,,,,,,,,,,,,,,,,,
,,,,,,,,,,,,,,,,,,,,,,,,,,,,,,,,,,,,,,,,,,5f8367c3abf19f4f142c14c0,606c15ef99c2b27d231102cd,2021-04-06_10h08.41.089,Colour_Similarity_Experiment,2020.2.10,Win32,60,6067542a4a25243f4d7d4fcf,17.41555693,16.65270939,16.65193831,16.65467589,16.65027474,16.65270939,,,,,,,,,,,,,,,,,,,,PF,weak,3,,,,,,,,6,1.28213,,,,,,,,,,,,,,,,,,,,,,,,,,,,9,weak,133.6000134,40.79999417,1,0,0,response1disk,4,73,21.60006059,3.999993622,1,0,0,rectangle,21.60006059,3.999993622,1,0,0,1,5,0.00038,21.60006059,3.999993622,1,0,0,0,72,72,114,1,0,,,,,,,,,,,,,,,,,,,,,
,,,,,,,,,,,,,,,,,,,,,,,,,,,,,,,,,,,,,,,,,,5f8367c3abf19f4f142c14c0,606c15ef99c2b27d231102cd,2021-04-06_10h08.41.089,Colour_Similarity_Experiment,2020.2.10,Win32,60,6067542a4a25243f4d7d4fcf,17.41555693,16.65270939,16.65193831,16.65467589,16.65027474,16.65270939,,,,,,,,,,,,,,,,,,,,PF,strong,3,,,,,,,,3,1.216695,,,,,,,,,,,,,,,,,,,,,,,,,,,,1,strong,-40.79998916,-80.00000763,1,0,0,response5disk,9,74,2.40001148,-5.600006521,1,0,0,rectangle,2.40001148,-5.600006521,1,0,0,1,4,0.001135,2.40001148,-5.600006521,1,0,0,0,73,73,123,1,0,,,,,,,,,,,,,,,,,,,,,
,,,,,,,,,,,,,,,,,,,,,,,,,,,,,,,,,,,,,,,,,,5f8367c3abf19f4f142c14c0,606c15ef99c2b27d231102cd,2021-04-06_10h08.41.089,Colour_Similarity_Experiment,2020.2.10,Win32,60,6067542a4a25243f4d7d4fcf,17.41555693,16.65270939,16.65193831,16.65467589,16.65027474,16.65270939,,,,,,,,,,,,,,,,,,,,PF,weak,3,,,,,,,,1,1.229755,,,,,,,,,,,,,,,,,,,,,,,,,,,,3,weak,-87.19998986,40.79999417,1,0,0,response7disk,3,75,-7.999988675,11.19999373,1,0,0,rectangle,-7.999988675,11.19999373,1,0,0,1,1,0.00139,-7.999988675,11.19999373,1,0,0,0,74,74,4,1,0,,,,,,,,,,,,,,,,,,,,,
,,,,,,,,,,,,,,,,,,,,,,,,,,,,,,,,,,,,,,,,,,5f8367c3abf19f4f142c14c0,606c15ef99c2b27d231102cd,2021-04-06_10h08.41.089,Colour_Similarity_Experiment,2020.2.10,Win32,60,6067542a4a25243f4d7d4fcf,17.41555693,16.65270939,16.65193831,16.65467589,16.65027474,16.65270939,,,,,,,,,,,,,,,,,,,,PF,strong,3,,,,,,,,4,0.982545,,,,,,,,,,,,,,,,,,,,,,,,,,,,2,strong,29.60006071,-62.40000737,1,0,0,response3disk,7,76,-3.199988604,10.39999372,1,0,0,rectangle,-3.199988604,10.39999372,1,0,0,1,1,0.00047,-3.199988604,10.39999372,1,0,0,0,75,75,63,1,0,,,,,,,,,,,,,,,,,,,,,
,,,,,,,,,,,,,,,,,,,,,,,,,,,,,,,,,,,,,,,,,,5f8367c3abf19f4f142c14c0,606c15ef99c2b27d231102cd,2021-04-06_10h08.41.089,Colour_Similarity_Experiment,2020.2.10,Win32,60,6067542a4a25243f4d7d4fcf,17.41555693,16.65270939,16.65193831,16.65467589,16.65027474,16.65270939,,,,,,,,,,,,,,,,,,,,PF,strong,3,,,,,,,,2,1.032895,,,,,,,,,,,,,,,,,,,,,,,,,,,,7,strong,-63.1999895,-29.60000688,1,0,0,response5disk,5,77,4.000011504,7.19999367,1,0,0,rectangle,4.000011504,7.19999367,1,0,0,1,2,0.0033,4.000011504,7.19999367,1,0,0,0,76,76,156,1,0,,,,,,,,,,,,,,,,,,,,,
,,,,,,,,,,,,,,,,,,,,,,,,,,,,,,,,,,,,,,,,,,5f8367c3abf19f4f142c14c0,606c15ef99c2b27d231102cd,2021-04-06_10h08.41.089,Colour_Similarity_Experiment,2020.2.10,Win32,60,6067542a4a25243f4d7d4fcf,17.41555693,16.65270939,16.65193831,16.65467589,16.65027474,16.65270939,,,,,,,,,,,,,,,,,,,,PF,strong,3,,,,,,,,3,1.731725,,,,,,,,,,,,,,,,,,,,,,,,,,,,1,strong,-29.599989,-82.40000767,1,0,0,response5disk,8,78,-0.799988568,-6.400006533,1,0,0,rectangle,-0.799988568,-6.400006533,1,0,0,1,1,0.00337,-0.799988568,-6.400006533,1,0,0,0,77,77,27,1,0,,,,,,,,,,,,,,,,,,,,,
,,,,,,,,,,,,,,,,,,,,,,,,,,,,,,,,,,,,,,,,,,5f8367c3abf19f4f142c14c0,606c15ef99c2b27d231102cd,2021-04-06_10h08.41.089,Colour_Similarity_Experiment,2020.2.10,Win32,60,6067542a4a25243f4d7d4fcf,17.41555693,16.65270939,16.65193831,16.65467589,16.65027474,16.65270939,,,,,,,,,,,,,,,,,,,,PF,strong,3,,,,,,,,3,1.11586,,,,,,,,,,,,,,,,,,,,,,,,,,,,2,strong,-41.59998918,-77.60000759,1,0,0,response5disk,5,79,-3.199988604,-8.800006568,1,0,0,rectangle,-3.199988604,-8.800006568,1,0,0,1,1,0.000235,-3.199988604,-8.800006568,1,0,0,0,78,78,80,1,0,,,,,,,,,,,,,,,,,,,,,
,,,,,,,,,,,,,,,,,,,,,,,,,,,,,,,,,,,,,,,,,,5f8367c3abf19f4f142c14c0,606c15ef99c2b27d231102cd,2021-04-06_10h08.41.089,Colour_Similarity_Experiment,2020.2.10,Win32,60,6067542a4a25243f4d7d4fcf,17.41555693,16.65270939,16.65193831,16.65467589,16.65027474,16.65270939,,,,,,,,,,,,,,,,,,,,PF,weak,3,,,,,,,,2,1.55042,,,,,,,,,,,,,,,,,,,,,,,,,,,,3,weak,-119.1999903,-52.80000722,1,0,0,response5disk,4,80,-16.79998881,-3.200006485,1,0,0,rectangle,-16.79998881,-3.200006485,1,0,0,1,0,0.00303,-16.79998881,-3.200006485,1,0,0,0,79,79,30,1,0,,,,,,,,,,,,,,,,,,,,,
,,,,,,,,,,,,,,,,,,,,,,,,,,,,,,,,,,,,,,,,,,5f8367c3abf19f4f142c14c0,606c15ef99c2b27d231102cd,2021-04-06_10h08.41.089,Colour_Similarity_Experiment,2020.2.10,Win32,60,6067542a4a25243f4d7d4fcf,17.41555693,16.65270939,16.65193831,16.65467589,16.65027474,16.65270939,,,,,,,,,,,,,,,,,,,,PF,strong,3,,,,,,,,3,0.99975,,,,,,,,,,,,,,,,,,,,,,,,,,,,7,strong,-51.99998933,-80.00000763,1,0,0,response5disk,8,81,-8.799988687,9.599993706,1,0,0,rectangle,24.0000118,-104.800008,1,0,0,4,4,1.814005,-1.59998858,-0.800006449,1,0,0,0,80,80,97,1,1,response3disk_3,rectangle,,,,,,,,,,,,,,,,,,,
,,,,,,,,,,,,,,,,,,,,,,,,,,,,,,,,,,,,,,,,,,5f8367c3abf19f4f142c14c0,606c15ef99c2b27d231102cd,2021-04-06_10h08.41.089,Colour_Similarity_Experiment,2020.2.10,Win32,60,6067542a4a25243f4d7d4fcf,17.41555693,16.65270939,16.65193831,16.65467589,16.65027474,16.65270939,,,,,,,,,,,,,,,,,,,,PF,weak,3,,,,,,,,4,2.18353,,,,,,,,,,,,,,,,,,,,,,,,,,,,7,weak,44.80001211,-90.40000778,1,0,0,response3disk,9,82,8.000011563,4.799993634,1,0,0,rectangle,8.000011563,4.799993634,1,0,0,4,4,0.00046,8.000011563,4.799993634,1,0,0,0,81,81,10,1,0,,,,,,,,,,,,,,,,,,,,,
,,,,,,,,,,,,,,,,,,,,,,,,,,,,,,,,,,,,,,,,,,5f8367c3abf19f4f142c14c0,606c15ef99c2b27d231102cd,2021-04-06_10h08.41.089,Colour_Similarity_Experiment,2020.2.10,Win32,60,6067542a4a25243f4d7d4fcf,17.41555693,16.65270939,16.65193831,16.65467589,16.65027474,16.65270939,,,,,,,,,,,,,,,,,,,,PF,weak,3,,,,,,,,5,1.77952,,,,,,,,,,,,,,,,,,,,,,,,,,,,1,weak,93.60001284,-37.600007,1,0,0,response3disk,5,83,7.200011551,-4.800006509,1,0,0,rectangle,7.200011551,-4.800006509,1,0,0,4,0,0.00119,7.200011551,-4.800006509,1,0,0,0,82,82,28,1,0,,,,,,,,,,,,,,,,,,,,,
,,,,,,,,,,,,,,,,,,,,,,,,,,,,,,,,,,,,,,,,,,5f8367c3abf19f4f142c14c0,606c15ef99c2b27d231102cd,2021-04-06_10h08.41.089,Colour_Similarity_Experiment,2020.2.10,Win32,60,6067542a4a25243f4d7d4fcf,17.41555693,16.65270939,16.65193831,16.65467589,16.65027474,16.65270939,,,,,,,,,,,,,,,,,,,,PF,strong,3,,,,,,,,5,1.56519,,,,,,,,,,,,,,,,,,,,,,,,,,,,2,strong,78.40001261,-23.20000678,1,0,0,response3disk,1,84,-4.799988627,9.599993706,1,0,0,rectangle,-4.799988627,9.599993706,1,0,0,4,1,0.00207,-4.799988627,9.599993706,1,0,0,0,83,83,85,1,0,,,,,,,,,,,,,,,,,,,,,
,,,,,,,,,,,,,,,,,,,,,,,,,,,,,,,,,,,,,,,,,,5f8367c3abf19f4f142c14c0,606c15ef99c2b27d231102cd,2021-04-06_10h08.41.089,Colour_Similarity_Experiment,2020.2.10,Win32,60,6067542a4a25243f4d7d4fcf,17.41555693,16.65270939,16.65193831,16.65467589,16.65027474,16.65270939,,,,,,,,,,,,,,,,,,,,PF,strong,3,,,,,,,,4,1.683365,,,,,,,,,,,,,,,,,,,,,,,,,,,,2,strong,28.00001186,-108.000008,1,0,0,response3disk,6,85,-2.399939764,-6.400006533,1,0,0,rectangle,-2.399939764,-6.400006533,1,0,0,4,7,0.00309,-2.399939764,-6.400006533,1,0,0,0,84,84,40,1,0,,,,,,,,,,,,,,,,,,,,,
,,,,,,,,,,,,,,,,,,,,,,,,,,,,,,,,,,,,,,,,,,5f8367c3abf19f4f142c14c0,606c15ef99c2b27d231102cd,2021-04-06_10h08.41.089,Colour_Similarity_Experiment,2020.2.10,Win32,60,6067542a4a25243f4d7d4fcf,17.41555693,16.65270939,16.65193831,16.65467589,16.65027474,16.65270939,,,,,,,,,,,,,,,,,,,,PF,strong,3,,,,,,,,3,1.099505,,,,,,,,,,,,,,,,,,,,,,,,,,,,2,strong,-34.39994024,-62.40000737,1,0,0,response5disk,9,86,8.800011575,-4.800006509,1,0,0,rectangle,8.800011575,-4.800006509,1,0,0,4,6,0.001805,8.800011575,-4.800006509,1,0,0,0,85,85,72,1,0,,,,,,,,,,,,,,,,,,,,,
,,,,,,,,,,,,,,,,,,,,,,,,,,,,,,,,,,,,,,,,,,5f8367c3abf19f4f142c14c0,606c15ef99c2b27d231102cd,2021-04-06_10h08.41.089,Colour_Similarity_Experiment,2020.2.10,Win32,60,6067542a4a25243f4d7d4fcf,17.41555693,16.65270939,16.65193831,16.65467589,16.65027474,16.65270939,,,,,,,,,,,,,,,,,,,,PF,strong,3,,,,,,,,6,1.66592,,,,,,,,,,,,,,,,,,,,,,,,,,,,1,strong,98.40001291,39.19996973,1,0,0,response1disk,6,87,6.400011539,-8.800006568,1,0,0,rectangle,6.400011539,-8.800006568,1,0,0,4,2,0.00251,6.400011539,-8.800006568,1,0,0,0,86,86,58,1,0,,,,,,,,,,,,,,,,,,,,,
,,,,,,,,,,,,,,,,,,,,,,,,,,,,,,,,,,,,,,,,,,5f8367c3abf19f4f142c14c0,606c15ef99c2b27d231102cd,2021-04-06_10h08.41.089,Colour_Similarity_Experiment,2020.2.10,Win32,60,6067542a4a25243f4d7d4fcf,17.41555693,16.65270939,16.65193831,16.65467589,16.65027474,16.65270939,,,,,,,,,,,,,,,,,,,,PF,weak,3,,,,,,,,3,1.60271,,,,,,,,,,,,,,,,,,,,,,,,,,,,9,weak,-69.59998959,-88.00000775,1,0,0,response5disk,8,88,1.600060296,5.599993646,1,0,0,rectangle,1.600060296,5.599993646,1,0,0,4,3,0.002895,1.600060296,5.599993646,1,0,0,0,87,87,67,1,0,,,,,,,,,,,,,,,,,,,,,
,,,,,,,,,,,,,,,,,,,,,,,,,,,,,,,,,,,,,,,,,,5f8367c3abf19f4f142c14c0,606c15ef99c2b27d231102cd,2021-04-06_10h08.41.089,Colour_Similarity_Experiment,2020.2.10,Win32,60,6067542a4a25243f4d7d4fcf,17.41555693,16.65270939,16.65193831,16.65467589,16.65027474,16.65270939,,,,,,,,,,,,,,,,,,,,PF,weak,3,,,,,,,,4,1.44954,,,,,,,,,,,,,,,,,,,,,,,,,,,,3,weak,37.60006083,-100.8000079,1,0,0,response3disk,5,89,4.000011504,-8.800006568,1,0,0,rectangle,4.000011504,-8.800006568,1,0,0,4,0,0.003175,4.000011504,-8.800006568,1,0,0,0,88,88,66,1,0,,,,,,,,,,,,,,,,,,,,,
,,,,,,,,,,,,,,,,,,,,,,,,,,,,,,,,,,,,,,,,,,5f8367c3abf19f4f142c14c0,606c15ef99c2b27d231102cd,2021-04-06_10h08.41.089,Colour_Similarity_Experiment,2020.2.10,Win32,60,6067542a4a25243f4d7d4fcf,17.41555693,16.65270939,16.65193831,16.65467589,16.65027474,16.65270939,,,,,,,,,,,,,,,,,,,,PF,weak,3,,,,,,,,2,1.566335,,,,,,,,,,,,,,,,,,,,,,,,,,,,1,weak,-100.7999901,-66.40000743,1,0,0,response5disk,9,90,-3.999988616,-1.600006461,1,0,0,rectangle,-3.999988616,-1.600006461,1,0,0,4,7,0.003285,-3.999988616,-1.600006461,1,0,0,0,89,89,15,1,0,,,,,,,,,,,,,,,,,,,,,
,,,,,,,,,,,,,,,,,,,,,,,,,,,,,,,,,,,,,,,,,,5f8367c3abf19f4f142c14c0,606c15ef99c2b27d231102cd,2021-04-06_10h08.41.089,Colour_Similarity_Experiment,2020.2.10,Win32,60,6067542a4a25243f4d7d4fcf,17.41555693,16.65270939,16.65193831,16.65467589,16.65027474,16.65270939,,,,,,,,,,,,,,,,,,,,PF,weak,3,,,,,,,,1,1.533095,,,,,,,,,,,,,,,,,,,,,,,,,,,,2,weak,-91.19998991,39.99999416,1,0,0,response7disk,3,91,-19.99998885,3.19999361,1,0,0,rectangle,-19.99998885,3.19999361,1,0,0,4,0,0.002465,-19.99998885,3.19999361,1,0,0,0,90,90,69,1,0,,,,,,,,,,,,,,,,,,,,,
,,,,,,,,,,,,,,,,,,,,,,,,,,,,,,,,,,,,,,,,,,5f8367c3abf19f4f142c14c0,606c15ef99c2b27d231102cd,2021-04-06_10h08.41.089,Colour_Similarity_Experiment,2020.2.10,Win32,60,6067542a4a25243f4d7d4fcf,17.41555693,16.65270939,16.65193831,16.65467589,16.65027474,16.65270939,,,,,,,,,,,,,,,,,,,,PF,weak,3,,,,,,,,2,1.24965,,,,,,,,,,,,,,,,,,,,,,,,,,,,5,weak,-91.19998991,-60.80000734,1,0,0,response5disk,8,92,11.20001161,-3.200006485,1,0,0,rectangle,11.20001161,-3.200006485,1,0,0,4,0,0.00049,11.20001161,-3.200006485,1,0,0,0,91,91,149,1,0,,,,,,,,,,,,,,,,,,,,,
,,,,,,,,,,,,,,,,,,,,,,,,,,,,,,,,,,,,,,,,,,5f8367c3abf19f4f142c14c0,606c15ef99c2b27d231102cd,2021-04-06_10h08.41.089,Colour_Similarity_Experiment,2020.2.10,Win32,60,6067542a4a25243f4d7d4fcf,17.41555693,16.65270939,16.65193831,16.65467589,16.65027474,16.65270939,,,,,,,,,,,,,,,,,,,,PF,weak,3,,,,,,,,3,1.0691,,,,,,,,,,,,,,,,,,,,,,,,,,,,9,weak,-35.99998909,-94.40000784,1,0,0,response5disk,2,93,12.80001163,-6.4373E-06,1,0,0,rectangle,12.80001163,-6.4373E-06,1,0,0,4,7,0.00176,12.80001163,-6.4373E-06,1,0,0,0,92,92,157,1,0,,,,,,,,,,,,,,,,,,,,,
,,,,,,,,,,,,,,,,,,,,,,,,,,,,,,,,,,,,,,,,,,5f8367c3abf19f4f142c14c0,606c15ef99c2b27d231102cd,2021-04-06_10h08.41.089,Colour_Similarity_Experiment,2020.2.10,Win32,60,6067542a4a25243f4d7d4fcf,17.41555693,16.65270939,16.65193831,16.65467589,16.65027474,16.65270939,,,,,,,,,,,,,,,,,,,,PF,weak,3,,,,,,,,1,1.20075,,,,,,,,,,,,,,,,,,,,,,,,,,,,5,weak,-81.59998977,26.39999396,1,0,0,response7disk,2,94,-8.799988687,-4.800006509,1,0,0,rectangle,-8.799988687,-4.800006509,1,0,0,4,4,0.00136,-8.799988687,-4.800006509,1,0,0,0,93,93,129,1,0,,,,,,,,,,,,,,,,,,,,,
,,,,,,,,,,,,,,,,,,,,,,,,,,,,,,,,,,,,,,,,,,5f8367c3abf19f4f142c14c0,606c15ef99c2b27d231102cd,2021-04-06_10h08.41.089,Colour_Similarity_Experiment,2020.2.10,Win32,60,6067542a4a25243f4d7d4fcf,17.41555693,16.65270939,16.65193831,16.65467589,16.65027474,16.65270939,,,,,,,,,,,,,,,,,,,,PF,strong,3,,,,,,,,4,1.21619,,,,,,,,,,,,,,,,,,,,,,,,,,,,5,strong,39.20001203,-61.60000736,1,0,0,response3disk,9,95,23.20001179,-9.60000658,1,0,0,rectangle,23.20001179,-9.60000658,1,0,0,4,7,0.00134,23.20001179,-9.60000658,1,0,0,0,94,94,61,1,0,,,,,,,,,,,,,,,,,,,,,
,,,,,,,,,,,,,,,,,,,,,,,,,,,,,,,,,,,,,,,,,,5f8367c3abf19f4f142c14c0,606c15ef99c2b27d231102cd,2021-04-06_10h08.41.089,Colour_Similarity_Experiment,2020.2.10,Win32,60,6067542a4a25243f4d7d4fcf,17.41555693,16.65270939,16.65193831,16.65467589,16.65027474,16.65270939,,,,,,,,,,,,,,,,,,,,PF,strong,3,,,,,,,,3,1.20008,,,,,,,,,,,,,,,,,,,,,,,,,,,,6,strong,-35.19998908,-92.00000781,1,0,0,response5disk,6,96,13.60006047,-8.000006557,1,0,0,rectangle,13.60006047,-8.000006557,1,0,0,4,4,0.00256,13.60006047,-8.000006557,1,0,0,0,95,95,91,1,0,,,,,,,,,,,,,,,,,,,,,
,,,,,,,,,,,,,,,,,,,,,,,,,,,,,,,,,,,,,,,,,,5f8367c3abf19f4f142c14c0,606c15ef99c2b27d231102cd,2021-04-06_10h08.41.089,Colour_Similarity_Experiment,2020.2.10,Win32,60,6067542a4a25243f4d7d4fcf,17.41555693,16.65270939,16.65193831,16.65467589,16.65027474,16.65270939,,,,,,,,,,,,,,,,,,,,PF,strong,3,,,,,,,,1,1.351115,,,,,,,,,,,,,,,,,,,,,,,,,,,,2,strong,-80.79998976,34.39999408,1,0,0,response7disk,3,97,-16.79998881,3.19999361,1,0,0,rectangle,105.600013,41.59999418,1,0,0,6,6,2.94606,-11.99998873,-6.400006533,1,0,0,0,96,96,104,1,1,response1disk_3,rectangle,,,,,,,,,,,,,,,,,,,
,,,,,,,,,,,,,,,,,,,,,,,,,,,,,,,,,,,,,,,,,,5f8367c3abf19f4f142c14c0,606c15ef99c2b27d231102cd,2021-04-06_10h08.41.089,Colour_Similarity_Experiment,2020.2.10,Win32,60,6067542a4a25243f4d7d4fcf,17.41555693,16.65270939,16.65193831,16.65467589,16.65027474,16.65270939,,,,,,,,,,,,,,,,,,,,PF,strong,3,,,,,,,,3,1.16582,,,,,,,,,,,,,,,,,,,,,,,,,,,,6,strong,-42.39994036,-80.80000764,1,0,0,response5disk,4,98,9.600060415,1.599993587,1,0,0,rectangle,9.600060415,1.599993587,1,0,0,6,7,0.00303,9.600060415,1.599993587,1,0,0,0,97,97,56,1,0,,,,,,,,,,,,,,,,,,,,,
,,,,,,,,,,,,,,,,,,,,,,,,,,,,,,,,,,,,,,,,,,5f8367c3abf19f4f142c14c0,606c15ef99c2b27d231102cd,2021-04-06_10h08.41.089,Colour_Similarity_Experiment,2020.2.10,Win32,60,6067542a4a25243f4d7d4fcf,17.41555693,16.65270939,16.65193831,16.65467589,16.65027474,16.65270939,,,,,,,,,,,,,,,,,,,,PF,weak,3,,,,,,,,2,0.95033,,,,,,,,,,,,,,,,,,,,,,,,,,,,1,weak,-75.19998968,-45.60000712,1,0,0,response5disk,2,99,-0.799988568,3.999993622,1,0,0,rectangle,-0.799988568,3.999993622,1,0,0,6,5,0.001685,-0.799988568,3.999993622,1,0,0,0,98,98,24,1,0,,,,,,,,,,,,,,,,,,,,,
,,,,,,,,,,,,,,,,,,,,,,,,,,,,,,,,,,,,,,,,,,5f8367c3abf19f4f142c14c0,606c15ef99c2b27d231102cd,2021-04-06_10h08.41.089,Colour_Similarity_Experiment,2020.2.10,Win32,60,6067542a4a25243f4d7d4fcf,17.41555693,16.65270939,16.65193831,16.65467589,16.65027474,16.65270939,,,,,,,,,,,,,,,,,,,,PF,weak,3,,,,,,,,6,1.68253,,,,,,,,,,,,,,,,,,,,,,,,,,,,7,weak,104.000013,42.39999419,1,0,0,response1disk,3,100,24.0000118,-6.4373E-06,1,0,0,rectangle,24.0000118,-6.4373E-06,1,0,0,6,5,0.00021,24.0000118,-6.4373E-06,1,0,0,0,99,99,81,1,0,,,,,,,,,,,,,,,,,,,,,
,,,,,,,,,,,,,,,,,,,,,,,,,,,,,,,,,,,,,,,,,,5f8367c3abf19f4f142c14c0,606c15ef99c2b27d231102cd,2021-04-06_10h08.41.089,Colour_Similarity_Experiment,2020.2.10,Win32,60,6067542a4a25243f4d7d4fcf,17.41555693,16.65270939,16.65193831,16.65467589,16.65027474,16.65270939,,,,,,,,,,,,,,,,,,,,PF,weak,3,,,,,,,,1,1.13233,,,,,,,,,,,,,,,,,,,,,,,,,,,,5,weak,-92.79998994,31.19996961,1,0,0,response7disk,4,101,-22.39994006,9.599993706,1,0,0,rectangle,-22.39994006,9.599993706,1,0,0,6,4,0.00161,-22.39994006,9.599993706,1,0,0,0,100,100,54,1,0,,,,,,,,,,,,,,,,,,,,,
,,,,,,,,,,,,,,,,,,,,,,,,,,,,,,,,,,,,,,,,,,5f8367c3abf19f4f142c14c0,606c15ef99c2b27d231102cd,2021-04-06_10h08.41.089,Colour_Similarity_Experiment,2020.2.10,Win32,60,6067542a4a25243f4d7d4fcf,17.41555693,16.65270939,16.65193831,16.65467589,16.65027474,16.65270939,,,,,,,,,,,,,,,,,,,,PF,strong,3,,,,,,,,4,1.16708,,,,,,,,,,,,,,,,,,,,,,,,,,,,5,strong,52.80001223,-95.20000786,1,0,0,response3disk,8,102,-3.199988604,2.399993598,1,0,0,rectangle,-3.199988604,2.399993598,1,0,0,6,2,0.002845,-3.199988604,2.399993598,1,0,0,0,101,101,16,1,0,,,,,,,,,,,,,,,,,,,,,
,,,,,,,,,,,,,,,,,,,,,,,,,,,,,,,,,,,,,,,,,,5f8367c3abf19f4f142c14c0,606c15ef99c2b27d231102cd,2021-04-06_10h08.41.089,Colour_Similarity_Experiment,2020.2.10,Win32,60,6067542a4a25243f4d7d4fcf,17.41555693,16.65270939,16.65193831,16.65467589,16.65027474,16.65270939,,,,,,,,,,,,,,,,,,,,PF,strong,3,,,,,,,,2,0.982935,,,,,,,,,,,,,,,,,,,,,,,,,,,,8,strong,-57.59998941,-26.40000683,1,0,0,response5disk,7,103,24.0000118,-1.600006461,1,0,0,rectangle,24.0000118,-1.600006461,1,0,0,6,7,0.002315,24.0000118,-1.600006461,1,0,0,0,102,102,86,1,0,,,,,,,,,,,,,,,,,,,,,
,,,,,,,,,,,,,,,,,,,,,,,,,,,,,,,,,,,,,,,,,,5f8367c3abf19f4f142c14c0,606c15ef99c2b27d231102cd,2021-04-06_10h08.41.089,Colour_Similarity_Experiment,2020.2.10,Win32,60,6067542a4a25243f4d7d4fcf,17.41555693,16.65270939,16.65193831,16.65467589,16.65027474,16.65270939,,,,,,,,,,,,,,,,,,,,PF,strong,3,,,,,,,,1,1.418055,,,,,,,,,,,,,,,,,,,,,,,,,,,,6,strong,-93.59998995,55.19996997,1,0,0,response7disk,5,104,-20.79998887,-5.600006521,1,0,0,rectangle,-20.79998887,-5.600006521,1,0,0,6,2,0.002475,-20.79998887,-5.600006521,1,0,0,0,103,103,126,1,0,,,,,,,,,,,,,,,,,,,,,
,,,,,,,,,,,,,,,,,,,,,,,,,,,,,,,,,,,,,,,,,,5f8367c3abf19f4f142c14c0,606c15ef99c2b27d231102cd,2021-04-06_10h08.41.089,Colour_Similarity_Experiment,2020.2.10,Win32,60,6067542a4a25243f4d7d4fcf,17.41555693,16.65270939,16.65193831,16.65467589,16.65027474,16.65270939,,,,,,,,,,,,,,,,,,,,PF,strong,3,,,,,,,,2,1.132385,,,,,,,,,,,,,,,,,,,,,,,,,,,,5,strong,-87.99998987,-48.00000715,1,0,0,response5disk,5,105,2.40001148,-4.800006509,1,0,0,rectangle,2.40001148,-4.800006509,1,0,0,6,1,0.00337,2.40001148,-4.800006509,1,0,0,0,104,104,19,1,0,,,,,,,,,,,,,,,,,,,,,
,,,,,,,,,,,,,,,,,,,,,,,,,,,,,,,,,,,,,,,,,,5f8367c3abf19f4f142c14c0,606c15ef99c2b27d231102cd,2021-04-06_10h08.41.089,Colour_Similarity_Experiment,2020.2.10,Win32,60,6067542a4a25243f4d7d4fcf,17.41555693,16.65270939,16.65193831,16.65467589,16.65027474,16.65270939,,,,,,,,,,,,,,,,,,,,PF,strong,3,,,,,,,,4,0.96259,,,,,,,,,,,,,,,,,,,,,,,,,,,,2,strong,59.20001233,-110.4000081,1,0,0,response3disk,8,106,4.000011504,-6.4373E-06,1,0,0,rectangle,4.000011504,-6.4373E-06,1,0,0,6,3,0.002655,4.000011504,-6.4373E-06,1,0,0,0,105,105,62,1,0,,,,,,,,,,,,,,,,,,,,,
,,,,,,,,,,,,,,,,,,,,,,,,,,,,,,,,,,,,,,,,,,5f8367c3abf19f4f142c14c0,606c15ef99c2b27d231102cd,2021-04-06_10h08.41.089,Colour_Similarity_Experiment,2020.2.10,Win32,60,6067542a4a25243f4d7d4fcf,17.41555693,16.65270939,16.65193831,16.65467589,16.65027474,16.65270939,,,,,,,,,,,,,,,,,,,,PF,weak,3,,,,,,,,4,1.83593,,,,,,,,,,,,,,,,,,,,,,,,,,,,6,weak,35.20001197,-90.40000778,1,0,0,response3disk,3,107,-9.599988699,-4.000006497,1,0,0,rectangle,-9.599988699,-4.000006497,1,0,0,6,1,0.003525,-9.599988699,-4.000006497,1,0,0,0,106,106,26,1,0,,,,,,,,,,,,,,,,,,,,,
,,,,,,,,,,,,,,,,,,,,,,,,,,,,,,,,,,,,,,,,,,5f8367c3abf19f4f142c14c0,606c15ef99c2b27d231102cd,2021-04-06_10h08.41.089,Colour_Similarity_Experiment,2020.2.10,Win32,60,6067542a4a25243f4d7d4fcf,17.41555693,16.65270939,16.65193831,16.65467589,16.65027474,16.65270939,,,,,,,,,,,,,,,,,,,,PF,weak,3,,,,,,,,3,1.066305,,,,,,,,,,,,,,,,,,,,,,,,,,,,8,weak,-58.3999406,-90.40000778,1,0,0,response5disk,8,108,4.000011504,-5.600006521,1,0,0,rectangle,4.000011504,-5.600006521,1,0,0,6,2,0.00248,4.000011504,-5.600006521,1,0,0,0,107,107,153,1,0,,,,,,,,,,,,,,,,,,,,,
,,,,,,,,,,,,,,,,,,,,,,,,,,,,,,,,,,,,,,,,,,5f8367c3abf19f4f142c14c0,606c15ef99c2b27d231102cd,2021-04-06_10h08.41.089,Colour_Similarity_Experiment,2020.2.10,Win32,60,6067542a4a25243f4d7d4fcf,17.41555693,16.65270939,16.65193831,16.65467589,16.65027474,16.65270939,,,,,,,,,,,,,,,,,,,,PF,strong,3,,,,,,,,2,1.14964,,,,,,,,,,,,,,,,,,,,,,,,,,,,5,strong,-80.79998976,-32.80000693,1,0,0,response5disk,6,109,-0.799988568,1.599993587,1,0,0,rectangle,-0.799988568,1.599993587,1,0,0,6,0,0.00349,-0.799988568,1.599993587,1,0,0,0,108,108,12,1,0,,,,,,,,,,,,,,,,,,,,,
,,,,,,,,,,,,,,,,,,,,,,,,,,,,,,,,,,,,,,,,,,5f8367c3abf19f4f142c14c0,606c15ef99c2b27d231102cd,2021-04-06_10h08.41.089,Colour_Similarity_Experiment,2020.2.10,Win32,60,6067542a4a25243f4d7d4fcf,17.41555693,16.65270939,16.65193831,16.65467589,16.65027474,16.65270939,,,,,,,,,,,,,,,,,,,,PF,strong,3,,,,,,,,5,1.20017,,,,,,,,,,,,,,,,,,,,,,,,,,,,4,strong,81.60001266,-62.40000737,1,0,0,response3disk,6,110,10.4000116,2.399993598,1,0,0,rectangle,10.4000116,2.399993598,1,0,0,6,4,0.003275,10.4000116,2.399993598,1,0,0,0,109,109,122,1,0,,,,,,,,,,,,,,,,,,,,,
,,,,,,,,,,,,,,,,,,,,,,,,,,,,,,,,,,,,,,,,,,5f8367c3abf19f4f142c14c0,606c15ef99c2b27d231102cd,2021-04-06_10h08.41.089,Colour_Similarity_Experiment,2020.2.10,Win32,60,6067542a4a25243f4d7d4fcf,17.41555693,16.65270939,16.65193831,16.65467589,16.65027474,16.65270939,,,,,,,,,,,,,,,,,,,,PF,strong,3,,,,,,,,2,1.14988,,,,,,,,,,,,,,,,,,,,,,,,,,,,9,strong,-56.7999894,-28.80000687,1,0,0,response5disk,1,111,-8.799988687,2.399993598,1,0,0,rectangle,-8.799988687,2.399993598,1,0,0,6,2,0.00299,-8.799988687,2.399993598,1,0,0,0,110,110,111,1,0,,,,,,,,,,,,,,,,,,,,,
,,,,,,,,,,,,,,,,,,,,,,,,,,,,,,,,,,,,,,,,,,5f8367c3abf19f4f142c14c0,606c15ef99c2b27d231102cd,2021-04-06_10h08.41.089,Colour_Similarity_Experiment,2020.2.10,Win32,60,6067542a4a25243f4d7d4fcf,17.41555693,16.65270939,16.65193831,16.65467589,16.65027474,16.65270939,,,,,,,,,,,,,,,,,,,,PF,strong,3,,,,,,,,5,1.04971,,,,,,,,,,,,,,,,,,,,,,,,,,,,7,strong,86.40001273,-34.40000695,1,0,0,response3disk,3,112,-12.79998875,1.599993587,1,0,0,rectangle,-12.79998875,1.599993587,1,0,0,6,7,0.001765,-12.79998875,1.599993587,1,0,0,0,111,111,73,1,0,,,,,,,,,,,,,,,,,,,,,
,,,,,,,,,,,,,,,,,,,,,,,,,,,,,,,,,,,,,,,,,,5f8367c3abf19f4f142c14c0,606c15ef99c2b27d231102cd,2021-04-06_10h08.41.089,Colour_Similarity_Experiment,2020.2.10,Win32,60,6067542a4a25243f4d7d4fcf,17.41555693,16.65270939,16.65193831,16.65467589,16.65027474,16.65270939,,,,,,,,,,,,,,,,,,,,PF,weak,3,,,,,,,,1,1.662865,,,,,,,,,,,,,,,,,,,,,,,,,,,,3,weak,-91.99998993,38.39999413,1,0,0,response7disk,2,113,-24.79998893,10.39999372,1,0,0,rectangle,-44.79998922,-96.80000788,1,0,0,3,3,2.700915,7.200011551,2.399993598,1,0,0,0,112,112,36,1,1,response5disk_3,rectangle,,,,,,,,,,,,,,,,,,,
,,,,,,,,,,,,,,,,,,,,,,,,,,,,,,,,,,,,,,,,,,5f8367c3abf19f4f142c14c0,606c15ef99c2b27d231102cd,2021-04-06_10h08.41.089,Colour_Similarity_Experiment,2020.2.10,Win32,60,6067542a4a25243f4d7d4fcf,17.41555693,16.65270939,16.65193831,16.65467589,16.65027474,16.65270939,,,,,,,,,,,,,,,,,,,,PF,weak,3,,,,,,,,1,1.516275,,,,,,,,,,,,,,,,,,,,,,,,,,,,7,weak,-101.5999901,48.79999429,1,0,0,response7disk,6,114,-7.199988663,4.799993634,1,0,0,rectangle,-7.199988663,4.799993634,1,0,0,3,3,0.00033,-7.199988663,4.799993634,1,0,0,0,113,113,29,1,0,,,,,,,,,,,,,,,,,,,,,
,,,,,,,,,,,,,,,,,,,,,,,,,,,,,,,,,,,,,,,,,,5f8367c3abf19f4f142c14c0,606c15ef99c2b27d231102cd,2021-04-06_10h08.41.089,Colour_Similarity_Experiment,2020.2.10,Win32,60,6067542a4a25243f4d7d4fcf,17.41555693,16.65270939,16.65193831,16.65467589,16.65027474,16.65270939,,,,,,,,,,,,,,,,,,,,PF,strong,3,,,,,,,,3,1.11647,,,,,,,,,,,,,,,,,,,,,,,,,,,,6,strong,-34.39994024,-88.80000776,1,0,0,response5disk,9,115,-7.199988663,15.19999379,1,0,0,rectangle,98.40001291,54.39999437,1,0,0,6,6,2.362995,4.000011504,-0.800006449,1,0,0,0,114,114,160,1,1,response1disk_3,rectangle,,,,,,,,,,,,,,,,,,,
,,,,,,,,,,,,,,,,,,,,,,,,,,,,,,,,,,,,,,,,,,5f8367c3abf19f4f142c14c0,606c15ef99c2b27d231102cd,2021-04-06_10h08.41.089,Colour_Similarity_Experiment,2020.2.10,Win32,60,6067542a4a25243f4d7d4fcf,17.41555693,16.65270939,16.65193831,16.65467589,16.65027474,16.65270939,,,,,,,,,,,,,,,,,,,,PF,strong,3,,,,,,,,3,1.185945,,,,,,,,,,,,,,,,,,,,,,,,,,,,8,strong,-35.99998909,-73.60000753,1,0,0,response5disk,2,116,14.40001166,3.999993622,1,0,0,rectangle,14.40001166,3.999993622,1,0,0,6,7,0.001025,14.40001166,3.999993622,1,0,0,0,115,115,22,1,0,,,,,,,,,,,,,,,,,,,,,
,,,,,,,,,,,,,,,,,,,,,,,,,,,,,,,,,,,,,,,,,,5f8367c3abf19f4f142c14c0,606c15ef99c2b27d231102cd,2021-04-06_10h08.41.089,Colour_Similarity_Experiment,2020.2.10,Win32,60,6067542a4a25243f4d7d4fcf,17.41555693,16.65270939,16.65193831,16.65467589,16.65027474,16.65270939,,,,,,,,,,,,,,,,,,,,PF,strong,3,,,,,,,,3,1.150145,,,,,,,,,,,,,,,,,,,,,,,,,,,,9,strong,-38.3999403,-89.6000566,1,0,0,response5disk,8,117,8.000011563,15.19999379,1,0,0,rectangle,8.000011563,15.19999379,1,0,0,6,5,0.002375,8.000011563,15.19999379,1,0,0,0,116,116,6,1,0,,,,,,,,,,,,,,,,,,,,,
,,,,,,,,,,,,,,,,,,,,,,,,,,,,,,,,,,,,,,,,,,5f8367c3abf19f4f142c14c0,606c15ef99c2b27d231102cd,2021-04-06_10h08.41.089,Colour_Similarity_Experiment,2020.2.10,Win32,60,6067542a4a25243f4d7d4fcf,17.41555693,16.65270939,16.65193831,16.65467589,16.65027474,16.65270939,,,,,,,,,,,,,,,,,,,,PF,weak,3,,,,,,,,7,1.15235,,,,,,,,,,,,,,,,,,,,,,,,,,,,1,weak,48.00001216,75.19997027,1,0,0,response1disk,7,118,-17.59998882,3.19999361,1,0,0,rectangle,-17.59998882,3.19999361,1,0,0,6,4,0.00309,-17.59998882,3.19999361,1,0,0,0,117,117,150,1,0,,,,,,,,,,,,,,,,,,,,,
,,,,,,,,,,,,,,,,,,,,,,,,,,,,,,,,,,,,,,,,,,5f8367c3abf19f4f142c14c0,606c15ef99c2b27d231102cd,2021-04-06_10h08.41.089,Colour_Similarity_Experiment,2020.2.10,Win32,60,6067542a4a25243f4d7d4fcf,17.41555693,16.65270939,16.65193831,16.65467589,16.65027474,16.65270939,,,,,,,,,,,,,,,,,,,,PF,strong,3,,,,,,,,4,2.39849,,,,,,,,,,,,,,,,,,,,,,,,,,,,9,strong,51.20001221,-91.2000078,1,0,0,response3disk,2,119,5.600060356,-4.000006497,1,0,0,rectangle,104.000013,-68.00000745,1,0,0,5,5,2.99928,12.80001163,-6.400006533,1,0,0,0,118,118,11,1,1,response3disk_3,rectangle,,,,,,,,,,,,,,,,,,,
,,,,,,,,,,,,,,,,,,,,,,,,,,,,,,,,,,,,,,,,,,5f8367c3abf19f4f142c14c0,606c15ef99c2b27d231102cd,2021-04-06_10h08.41.089,Colour_Similarity_Experiment,2020.2.10,Win32,60,6067542a4a25243f4d7d4fcf,17.41555693,16.65270939,16.65193831,16.65467589,16.65027474,16.65270939,,,,,,,,,,,,,,,,,,,,PF,weak,3,,,,,,,,6,1.231205,,,,,,,,,,,,,,,,,,,,,,,,,,,,9,weak,95.20001286,30.39999402,1,0,0,response1disk,6,120,-15.99998879,-7.200006545,1,0,0,rectangle,-15.99998879,-7.200006545,1,0,0,5,0,0.00149,-15.99998879,-7.200006545,1,0,0,0,119,119,148,1,0,,,,,,,,,,,,,,,,,,,,,
,,,,,,,,,,,,,,,,,,,,,,,,,,,,,,,,,,,,,,,,,,5f8367c3abf19f4f142c14c0,606c15ef99c2b27d231102cd,2021-04-06_10h08.41.089,Colour_Similarity_Experiment,2020.2.10,Win32,60,6067542a4a25243f4d7d4fcf,17.41555693,16.65270939,16.65193831,16.65467589,16.65027474,16.65270939,,,,,,,,,,,,,,,,,,,,PF,strong,3,,,,,,,,1,1.148485,,,,,,,,,,,,,,,,,,,,,,,,,,,,3,strong,-108.7999902,50.39999431,1,0,0,response7disk,2,121,-11.99998873,3.19999361,1,0,0,rectangle,-11.99998873,3.19999361,1,0,0,5,0,0.00023,-11.99998873,3.19999361,1,0,0,0,120,120,93,1,0,,,,,,,,,,,,,,,,,,,,,
,,,,,,,,,,,,,,,,,,,,,,,,,,,,,,,,,,,,,,,,,,5f8367c3abf19f4f142c14c0,606c15ef99c2b27d231102cd,2021-04-06_10h08.41.089,Colour_Similarity_Experiment,2020.2.10,Win32,60,6067542a4a25243f4d7d4fcf,17.41555693,16.65270939,16.65193831,16.65467589,16.65027474,16.65270939,,,,,,,,,,,,,,,,,,,,PF,weak,3,,,,,,,,1,1.44915,,,,,,,,,,,,,,,,,,,,,,,,,,,,4,weak,-105.5999901,55.19996997,1,0,0,response7disk,4,122,-11.19998872,15.19999379,1,0,0,rectangle,-11.19998872,15.19999379,1,0,0,5,1,0.002825,-11.19998872,15.19999379,1,0,0,0,121,121,70,1,0,,,,,,,,,,,,,,,,,,,,,
,,,,,,,,,,,,,,,,,,,,,,,,,,,,,,,,,,,,,,,,,,5f8367c3abf19f4f142c14c0,606c15ef99c2b27d231102cd,2021-04-06_10h08.41.089,Colour_Similarity_Experiment,2020.2.10,Win32,60,6067542a4a25243f4d7d4fcf,17.41555693,16.65270939,16.65193831,16.65467589,16.65027474,16.65270939,,,,,,,,,,,,,,,,,,,,PF,weak,3,,,,,,,,2,1.299055,,,,,,,,,,,,,,,,,,,,,,,,,,,,8,weak,-95.99998999,-56.00000727,1,0,0,response5disk,5,123,9.600060415,-5.600006521,1,0,0,rectangle,9.600060415,-5.600006521,1,0,0,5,4,0.00298,9.600060415,-5.600006521,1,0,0,0,122,122,98,1,0,,,,,,,,,,,,,,,,,,,,,
,,,,,,,,,,,,,,,,,,,,,,,,,,,,,,,,,,,,,,,,,,5f8367c3abf19f4f142c14c0,606c15ef99c2b27d231102cd,2021-04-06_10h08.41.089,Colour_Similarity_Experiment,2020.2.10,Win32,60,6067542a4a25243f4d7d4fcf,17.41555693,16.65270939,16.65193831,16.65467589,16.65027474,16.65270939,,,,,,,,,,,,,,,,,,,,PF,weak,3,,,,,,,,4,2.73227,,,,,,,,,,,,,,,,,,,,,,,,,,,,5,weak,48.00001216,-96.00000787,1,0,0,response3disk,3,124,-4.799988627,11.19999373,1,0,0,rectangle,-4.799988627,11.19999373,1,0,0,5,6,0.00142,-4.799988627,11.19999373,1,0,0,0,123,123,109,1,0,,,,,,,,,,,,,,,,,,,,,
,,,,,,,,,,,,,,,,,,,,,,,,,,,,,,,,,,,,,,,,,,5f8367c3abf19f4f142c14c0,606c15ef99c2b27d231102cd,2021-04-06_10h08.41.089,Colour_Similarity_Experiment,2020.2.10,Win32,60,6067542a4a25243f4d7d4fcf,17.41555693,16.65270939,16.65193831,16.65467589,16.65027474,16.65270939,,,,,,,,,,,,,,,,,,,,PF,strong,3,,,,,,,,3,1.415345,,,,,,,,,,,,,,,,,,,,,,,,,,,,8,strong,-49.5999893,-66.40000743,1,0,0,response5disk,8,125,-7.999988675,5.599993646,1,0,0,rectangle,-7.999988675,5.599993646,1,0,0,5,3,0.00268,-7.999988675,5.599993646,1,0,0,0,124,124,48,1,0,,,,,,,,,,,,,,,,,,,,,
,,,,,,,,,,,,,,,,,,,,,,,,,,,,,,,,,,,,,,,,,,5f8367c3abf19f4f142c14c0,606c15ef99c2b27d231102cd,2021-04-06_10h08.41.089,Colour_Similarity_Experiment,2020.2.10,Win32,60,6067542a4a25243f4d7d4fcf,17.41555693,16.65270939,16.65193831,16.65467589,16.65027474,16.65270939,,,,,,,,,,,,,,,,,,,,PF,weak,3,,,,,,,,0,1.53333,,,,,,,,,,,,,,,,,,,,,,,,,,,,6,weak,-71.99998963,114.3999953,1,0,0,response7disk,5,126,-8.799988687,12.79999375,1,0,0,rectangle,-8.799988687,12.79999375,1,0,0,5,5,0.003065,-8.799988687,12.79999375,1,0,0,0,125,125,59,1,0,,,,,,,,,,,,,,,,,,,,,
,,,,,,,,,,,,,,,,,,,,,,,,,,,,,,,,,,,,,,,,,,5f8367c3abf19f4f142c14c0,606c15ef99c2b27d231102cd,2021-04-06_10h08.41.089,Colour_Similarity_Experiment,2020.2.10,Win32,60,6067542a4a25243f4d7d4fcf,17.41555693,16.65270939,16.65193831,16.65467589,16.65027474,16.65270939,,,,,,,,,,,,,,,,,,,,PF,strong,3,,,,,,,,1,1.314715,,,,,,,,,,,,,,,,,,,,,,,,,,,,7,strong,-90.39994107,43.99999422,1,0,0,response7disk,7,127,-20.79998887,-3.200006485,1,0,0,rectangle,-20.79998887,-3.200006485,1,0,0,5,2,0.00144,-20.79998887,-3.200006485,1,0,0,0,126,126,34,1,0,,,,,,,,,,,,,,,,,,,,,
,,,,,,,,,,,,,,,,,,,,,,,,,,,,,,,,,,,,,,,,,,5f8367c3abf19f4f142c14c0,606c15ef99c2b27d231102cd,2021-04-06_10h08.41.089,Colour_Similarity_Experiment,2020.2.10,Win32,60,6067542a4a25243f4d7d4fcf,17.41555693,16.65270939,16.65193831,16.65467589,16.65027474,16.65270939,,,,,,,,,,,,,,,,,,,,PF,strong,3,,,,,,,,6,2.617245,,,,,,,,,,,,,,,,,,,,,,,,,,,,4,strong,108.0000131,93.59999496,1,0,0,response1disk,1,128,17.60006053,0.799993575,1,0,0,rectangle,17.60006053,0.799993575,1,0,0,5,4,0.00312,17.60006053,0.799993575,1,0,0,0,127,127,102,1,0,,,,,,,,,,,,,,,,,,,,,
,,,,,,,,,,,,,,,,,,,,,,,,,,,,,,,,,,,,,,,,,,5f8367c3abf19f4f142c14c0,606c15ef99c2b27d231102cd,2021-04-06_10h08.41.089,Colour_Similarity_Experiment,2020.2.10,Win32,60,6067542a4a25243f4d7d4fcf,17.41555693,16.65270939,16.65193831,16.65467589,16.65027474,16.65270939,,,,,,,,,,,,,,,,,,,,PF,strong,3,,,,,,,,3,7.809145,,,,,,,,,,,,,,,,,,,,,,,,,,,,4,strong,-54.39994054,-90.40000778,1,0,0,response5disk,3,129,-6.399939823,3.19999361,1,0,0,rectangle,-6.399939823,3.19999361,1,0,0,5,2,0.002475,-6.399939823,3.19999361,1,0,0,0,128,128,77,1,0,,,,,,,,,,,,,,,,,,,,,
,,,,,,,,,,,,,,,,,,,,,,,,,,,,,,,,,,,,,,,,,,5f8367c3abf19f4f142c14c0,606c15ef99c2b27d231102cd,2021-04-06_10h08.41.089,Colour_Similarity_Experiment,2020.2.10,Win32,60,6067542a4a25243f4d7d4fcf,17.41555693,16.65270939,16.65193831,16.65467589,16.65027474,16.65270939,,,,,,,,,,,,,,,,,,,,PF,strong,3,,,,,,,,1,0.982475,,,,,,,,,,,,,,,,,,,,,,,,,,,,1,strong,-84.79998982,46.39999425,1,0,0,response7disk,1,130,24.0000118,-8.000006557,1,0,0,rectangle,24.0000118,-8.000006557,1,0,0,5,3,0.00292,24.0000118,-8.000006557,1,0,0,0,129,129,151,1,0,,,,,,,,,,,,,,,,,,,,,
,,,,,,,,,,,,,,,,,,,,,,,,,,,,,,,,,,,,,,,,,,5f8367c3abf19f4f142c14c0,606c15ef99c2b27d231102cd,2021-04-06_10h08.41.089,Colour_Similarity_Experiment,2020.2.10,Win32,60,6067542a4a25243f4d7d4fcf,17.41555693,16.65270939,16.65193831,16.65467589,16.65027474,16.65270939,,,,,,,,,,,,,,,,,,,,PF,weak,3,,,,,,,,4,5.89369,,,,,,,,,,,,,,,,,,,,,,,,,,,,3,weak,53.60001224,-78.40000761,1,0,0,response3disk,6,131,18.40001172,-1.600006461,1,0,0,rectangle,18.40001172,-1.600006461,1,0,0,5,6,0.002795,18.40001172,-1.600006461,1,0,0,0,130,130,47,1,0,,,,,,,,,,,,,,,,,,,,,
,,,,,,,,,,,,,,,,,,,,,,,,,,,,,,,,,,,,,,,,,,5f8367c3abf19f4f142c14c0,606c15ef99c2b27d231102cd,2021-04-06_10h08.41.089,Colour_Similarity_Experiment,2020.2.10,Win32,60,6067542a4a25243f4d7d4fcf,17.41555693,16.65270939,16.65193831,16.65467589,16.65027474,16.65270939,,,,,,,,,,,,,,,,,,,,PF,weak,3,,,,,,,,6,1.165,,,,,,,,,,,,,,,,,,,,,,,,,,,,9,weak,84.80001271,57.59999442,1,0,0,response1disk,7,132,5.600060356,7.19999367,1,0,0,rectangle,5.600060356,7.19999367,1,0,0,5,2,0.000875,5.600060356,7.19999367,1,0,0,0,131,131,121,1,0,,,,,,,,,,,,,,,,,,,,,
,,,,,,,,,,,,,,,,,,,,,,,,,,,,,,,,,,,,,,,,,,5f8367c3abf19f4f142c14c0,606c15ef99c2b27d231102cd,2021-04-06_10h08.41.089,Colour_Similarity_Experiment,2020.2.10,Win32,60,6067542a4a25243f4d7d4fcf,17.41555693,16.65270939,16.65193831,16.65467589,16.65027474,16.65270939,,,,,,,,,,,,,,,,,,,,PF,weak,3,,,,,,,,6,1.129135,,,,,,,,,,,,,,,,,,,,,,,,,,,,6,weak,91.2000128,54.39999437,1,0,0,response1disk,1,133,-9.599988699,2.399993598,1,0,0,rectangle,-9.599988699,2.399993598,1,0,0,5,5,0.002495,-9.599988699,2.399993598,1,0,0,0,132,132,46,1,0,,,,,,,,,,,,,,,,,,,,,
,,,,,,,,,,,,,,,,,,,,,,,,,,,,,,,,,,,,,,,,,,5f8367c3abf19f4f142c14c0,606c15ef99c2b27d231102cd,2021-04-06_10h08.41.089,Colour_Similarity_Experiment,2020.2.10,Win32,60,6067542a4a25243f4d7d4fcf,17.41555693,16.65270939,16.65193831,16.65467589,16.65027474,16.65270939,,,,,,,,,,,,,,,,,,,,PF,weak,3,,,,,,,,7,1.18342,,,,,,,,,,,,,,,,,,,,,,,,,,,,4,weak,62.40001237,81.59999478,1,0,0,response1disk,1,134,14.40001166,0.799993575,1,0,0,rectangle,14.40001166,0.799993575,1,0,0,5,7,0.00272,14.40001166,0.799993575,1,0,0,0,133,133,115,1,0,,,,,,,,,,,,,,,,,,,,,
,,,,,,,,,,,,,,,,,,,,,,,,,,,,,,,,,,,,,,,,,,5f8367c3abf19f4f142c14c0,606c15ef99c2b27d231102cd,2021-04-06_10h08.41.089,Colour_Similarity_Experiment,2020.2.10,Win32,60,6067542a4a25243f4d7d4fcf,17.41555693,16.65270939,16.65193831,16.65467589,16.65027474,16.65270939,,,,,,,,,,,,,,,,,,,,PF,strong,3,,,,,,,,2,1.23516,,,,,,,,,,,,,,,,,,,,,,,,,,,,4,strong,-90.39994107,-44.8000071,1,0,0,response5disk,2,135,17.60006053,5.599993646,1,0,0,rectangle,17.60006053,5.599993646,1,0,0,5,3,0.001275,17.60006053,5.599993646,1,0,0,0,134,134,13,1,0,,,,,,,,,,,,,,,,,,,,,
,,,,,,,,,,,,,,,,,,,,,,,,,,,,,,,,,,,,,,,,,,5f8367c3abf19f4f142c14c0,606c15ef99c2b27d231102cd,2021-04-06_10h08.41.089,Colour_Similarity_Experiment,2020.2.10,Win32,60,6067542a4a25243f4d7d4fcf,17.41555693,16.65270939,16.65193831,16.65467589,16.65027474,16.65270939,,,,,,,,,,,,,,,,,,,,PF,weak,3,,,,,,,,5,1.433245,,,,,,,,,,,,,,,,,,,,,,,,,,,,4,weak,92.00001281,-20.00000674,1,0,0,response3disk,6,136,8.000011563,1.599993587,1,0,0,rectangle,8.000011563,1.599993587,1,0,0,5,0,0.00154,8.000011563,1.599993587,1,0,0,0,135,135,120,1,0,,,,,,,,,,,,,,,,,,,,,
,,,,,,,,,,,,,,,,,,,,,,,,,,,,,,,,,,,,,,,,,,5f8367c3abf19f4f142c14c0,606c15ef99c2b27d231102cd,2021-04-06_10h08.41.089,Colour_Similarity_Experiment,2020.2.10,Win32,60,6067542a4a25243f4d7d4fcf,17.41555693,16.65270939,16.65193831,16.65467589,16.65027474,16.65270939,,,,,,,,,,,,,,,,,,,,PF,strong,3,,,,,,,,3,1.06569,,,,,,,,,,,,,,,,,,,,,,,,,,,,6,strong,-43.99998921,-80.00000763,1,0,0,response5disk,2,137,-8.799988687,3.999993622,1,0,0,rectangle,-8.799988687,3.999993622,1,0,0,5,5,0.002445,-8.799988687,3.999993622,1,0,0,0,136,136,112,1,0,,,,,,,,,,,,,,,,,,,,,
,,,,,,,,,,,,,,,,,,,,,,,,,,,,,,,,,,,,,,,,,,5f8367c3abf19f4f142c14c0,606c15ef99c2b27d231102cd,2021-04-06_10h08.41.089,Colour_Similarity_Experiment,2020.2.10,Win32,60,6067542a4a25243f4d7d4fcf,17.41555693,16.65270939,16.65193831,16.65467589,16.65027474,16.65270939,,,,,,,,,,,,,,,,,,,,PF,weak,3,,,,,,,,6,1.11625,,,,,,,,,,,,,,,,,,,,,,,,,,,,3,weak,77.6000126,60.79999447,1,0,0,response1disk,9,138,3.200011492,3.999993622,1,0,0,rectangle,3.200011492,3.999993622,1,0,0,5,2,0.002995,3.200011492,3.999993622,1,0,0,0,137,137,79,1,0,,,,,,,,,,,,,,,,,,,,,
,,,,,,,,,,,,,,,,,,,,,,,,,,,,,,,,,,,,,,,,,,5f8367c3abf19f4f142c14c0,606c15ef99c2b27d231102cd,2021-04-06_10h08.41.089,Colour_Similarity_Experiment,2020.2.10,Win32,60,6067542a4a25243f4d7d4fcf,17.41555693,16.65270939,16.65193831,16.65467589,16.65027474,16.65270939,,,,,,,,,,,,,,,,,,,,PF,strong,3,,,,,,,,7,1.26529,,,,,,,,,,,,,,,,,,,,,,,,,,,,1,strong,51.20001221,75.19997027,1,0,0,response1disk,5,139,15.20001167,-9.60000658,1,0,0,rectangle,15.20001167,-9.60000658,1,0,0,5,4,0.00298,15.20001167,-9.60000658,1,0,0,0,138,138,82,1,0,,,,,,,,,,,,,,,,,,,,,
,,,,,,,,,,,,,,,,,,,,,,,,,,,,,,,,,,,,,,,,,,5f8367c3abf19f4f142c14c0,606c15ef99c2b27d231102cd,2021-04-06_10h08.41.089,Colour_Similarity_Experiment,2020.2.10,Win32,60,6067542a4a25243f4d7d4fcf,17.41555693,16.65270939,16.65193831,16.65467589,16.65027474,16.65270939,,,,,,,,,,,,,,,,,,,,PF,strong,3,,,,,,,,5,3.49873,,,,,,,,,,,,,,,,,,,,,,,,,,,,1,strong,75.20001256,-38.40000701,1,0,0,response3disk,7,140,-8.799988687,4.799993634,1,0,0,rectangle,-8.799988687,4.799993634,1,0,0,5,5,0.003965,-8.799988687,4.799993634,1,0,0,0,139,139,137,1,0,,,,,,,,,,,,,,,,,,,,,
,,,,,,,,,,,,,,,,,,,,,,,,,,,,,,,,,,,,,,,,,,5f8367c3abf19f4f142c14c0,606c15ef99c2b27d231102cd,2021-04-06_10h08.41.089,Colour_Similarity_Experiment,2020.2.10,Win32,60,6067542a4a25243f4d7d4fcf,17.41555693,16.65270939,16.65193831,16.65467589,16.65027474,16.65270939,,,,,,,,,,,,,,,,,,,,PF,weak,3,,,,,,,,4,2.23255,,,,,,,,,,,,,,,,,,,,,,,,,,,,4,weak,26.40001184,-91.2000078,1,0,0,response3disk,7,141,2.40001148,-1.600006461,1,0,0,rectangle,2.40001148,-1.600006461,1,0,0,5,3,0.003035,2.40001148,-1.600006461,1,0,0,0,140,140,38,1,0,,,,,,,,,,,,,,,,,,,,,
,,,,,,,,,,,,,,,,,,,,,,,,,,,,,,,,,,,,,,,,,,5f8367c3abf19f4f142c14c0,606c15ef99c2b27d231102cd,2021-04-06_10h08.41.089,Colour_Similarity_Experiment,2020.2.10,Win32,60,6067542a4a25243f4d7d4fcf,17.41555693,16.65270939,16.65193831,16.65467589,16.65027474,16.65270939,,,,,,,,,,,,,,,,,,,,PF,strong,3,,,,,,,,7,1.31667,,,,,,,,,,,,,,,,,,,,,,,,,,,,6,strong,36.00001198,67.19997015,1,0,0,response1disk,1,142,-0.799988568,-1.600006461,1,0,0,rectangle,-0.799988568,-1.600006461,1,0,0,5,0,0.003045,-0.799988568,-1.600006461,1,0,0,0,141,141,5,1,0,,,,,,,,,,,,,,,,,,,,,
,,,,,,,,,,,,,,,,,,,,,,,,,,,,,,,,,,,,,,,,,,5f8367c3abf19f4f142c14c0,606c15ef99c2b27d231102cd,2021-04-06_10h08.41.089,Colour_Similarity_Experiment,2020.2.10,Win32,60,6067542a4a25243f4d7d4fcf,17.41555693,16.65270939,16.65193831,16.65467589,16.65027474,16.65270939,,,,,,,,,,,,,,,,,,,,PF,weak,3,,,,,,,,3,1.09647,,,,,,,,,,,,,,,,,,,,,,,,,,,,2,weak,-50.39994048,-89.6000566,1,0,0,response5disk,9,143,-6.399939823,7.999993682,1,0,0,rectangle,-6.399939823,7.999993682,1,0,0,5,4,0.000785,-6.399939823,7.999993682,1,0,0,0,142,142,39,1,0,,,,,,,,,,,,,,,,,,,,,
,,,,,,,,,,,,,,,,,,,,,,,,,,,,,,,,,,,,,,,,,,5f8367c3abf19f4f142c14c0,606c15ef99c2b27d231102cd,2021-04-06_10h08.41.089,Colour_Similarity_Experiment,2020.2.10,Win32,60,6067542a4a25243f4d7d4fcf,17.41555693,16.65270939,16.65193831,16.65467589,16.65027474,16.65270939,,,,,,,,,,,,,,,,,,,,PF,strong,3,,,,,,,,5,1.08356,,,,,,,,,,,,,,,,,,,,,,,,,,,,5,strong,112.8000131,-40.00000703,1,0,0,response3disk,1,144,-16.79998881,1.599993587,1,0,0,rectangle,-16.79998881,1.599993587,1,0,0,5,2,0.001015,-16.79998881,1.599993587,1,0,0,0,143,143,131,1,0,,,,,,,,,,,,,,,,,,,,,
,,,,,,,,,,,,,,,,,,,,,,,,,,,,,,,,,,,,,,,,,,5f8367c3abf19f4f142c14c0,606c15ef99c2b27d231102cd,2021-04-06_10h08.41.089,Colour_Similarity_Experiment,2020.2.10,Win32,60,6067542a4a25243f4d7d4fcf,17.41555693,16.65270939,16.65193831,16.65467589,16.65027474,16.65270939,,,,,,,,,,,,,,,,,,,,PF,strong,3,,,,,,,,4,1.61886,,,,,,,,,,,,,,,,,,,,,,,,,,,,7,strong,36.80001199,-102.400008,1,0,0,response3disk,4,145,1.14441E-05,8.799993694,1,0,0,rectangle,1.14441E-05,8.799993694,1,0,0,5,3,0.001495,1.14441E-05,8.799993694,1,0,0,0,144,144,158,1,0,,,,,,,,,,,,,,,,,,,,,
,,,,,,,,,,,,,,,,,,,,,,,,,,,,,,,,,,,,,,,,,,5f8367c3abf19f4f142c14c0,606c15ef99c2b27d231102cd,2021-04-06_10h08.41.089,Colour_Similarity_Experiment,2020.2.10,Win32,60,6067542a4a25243f4d7d4fcf,17.41555693,16.65270939,16.65193831,16.65467589,16.65027474,16.65270939,,,,,,,,,,,,,,,,,,,,PF,weak,3,,,,,,,,3,1.345845,,,,,,,,,,,,,,,,,,,,,,,,,,,,7,weak,-38.3999403,-86.40000772,1,0,0,response5disk,4,146,12.00001162,15.19999379,1,0,0,rectangle,12.00001162,15.19999379,1,0,0,5,4,0.001645,12.00001162,15.19999379,1,0,0,0,145,145,43,1,0,,,,,,,,,,,,,,,,,,,,,
,,,,,,,,,,,,,,,,,,,,,,,,,,,,,,,,,,,,,,,,,,5f8367c3abf19f4f142c14c0,606c15ef99c2b27d231102cd,2021-04-06_10h08.41.089,Colour_Similarity_Experiment,2020.2.10,Win32,60,6067542a4a25243f4d7d4fcf,17.41555693,16.65270939,16.65193831,16.65467589,16.65027474,16.65270939,,,,,,,,,,,,,,,,,,,,PF,strong,3,,,,,,,,3,1.2836,,,,,,,,,,,,,,,,,,,,,,,,,,,,3,strong,-47.19998926,-79.20000762,1,0,0,response5disk,6,147,-7.999988675,11.19999373,1,0,0,rectangle,-7.999988675,11.19999373,1,0,0,5,5,0.001715,-7.999988675,11.19999373,1,0,0,0,146,146,95,1,0,,,,,,,,,,,,,,,,,,,,,
,,,,,,,,,,,,,,,,,,,,,,,,,,,,,,,,,,,,,,,,,,5f8367c3abf19f4f142c14c0,606c15ef99c2b27d231102cd,2021-04-06_10h08.41.089,Colour_Similarity_Experiment,2020.2.10,Win32,60,6067542a4a25243f4d7d4fcf,17.41555693,16.65270939,16.65193831,16.65467589,16.65027474,16.65270939,,,,,,,,,,,,,,,,,,,,PF,strong,3,,,,,,,,1,1.367735,,,,,,,,,,,,,,,,,,,,,,,,,,,,7,strong,-95.99998999,21.59999388,1,0,0,response7disk,6,148,-31.99998903,12.79999375,1,0,0,rectangle,-31.99998903,12.79999375,1,0,0,5,7,0.001525,-31.99998903,12.79999375,1,0,0,0,147,147,31,1,0,,,,,,,,,,,,,,,,,,,,,
,,,,,,,,,,,,,,,,,,,,,,,,,,,,,,,,,,,,,,,,,,5f8367c3abf19f4f142c14c0,606c15ef99c2b27d231102cd,2021-04-06_10h08.41.089,Colour_Similarity_Experiment,2020.2.10,Win32,60,6067542a4a25243f4d7d4fcf,17.41555693,16.65270939,16.65193831,16.65467589,16.65027474,16.65270939,,,,,,,,,,,,,,,,,,,,PF,weak,3,,,,,,,,5,1.53348,,,,,,,,,,,,,,,,,,,,,,,,,,,,8,weak,80.00001264,-42.40000707,1,0,0,response3disk,1,149,3.200011492,5.599993646,1,0,0,rectangle,3.200011492,5.599993646,1,0,0,5,0,0.001475,3.200011492,5.599993646,1,0,0,0,148,148,57,1,0,,,,,,,,,,,,,,,,,,,,,
,,,,,,,,,,,,,,,,,,,,,,,,,,,,,,,,,,,,,,,,,,5f8367c3abf19f4f142c14c0,606c15ef99c2b27d231102cd,2021-04-06_10h08.41.089,Colour_Similarity_Experiment,2020.2.10,Win32,60,6067542a4a25243f4d7d4fcf,17.41555693,16.65270939,16.65193831,16.65467589,16.65027474,16.65270939,,,,,,,,,,,,,,,,,,,,PF,weak,3,,,,,,,,1,1.31573,,,,,,,,,,,,,,,,,,,,,,,,,,,,7,weak,-89.59998989,50.39999431,1,0,0,response7disk,7,150,-11.19998872,-8.800006568,1,0,0,rectangle,-11.19998872,-8.800006568,1,0,0,5,1,0.003675,-11.19998872,-8.800006568,1,0,0,0,149,149,51,1,0,,,,,,,,,,,,,,,,,,,,,
,,,,,,,,,,,,,,,,,,,,,,,,,,,,,,,,,,,,,,,,,,5f8367c3abf19f4f142c14c0,606c15ef99c2b27d231102cd,2021-04-06_10h08.41.089,Colour_Similarity_Experiment,2020.2.10,Win32,60,6067542a4a25243f4d7d4fcf,17.41555693,16.65270939,16.65193831,16.65467589,16.65027474,16.65270939,,,,,,,,,,,,,,,,,,,,PF,weak,3,,,,,,,,2,1.48248,,,,,,,,,,,,,,,,,,,,,,,,,,,,1,weak,-97.59999001,-42.40000707,1,0,0,response5disk,8,151,-15.99998879,-1.600006461,1,0,0,rectangle,-15.99998879,-1.600006461,1,0,0,5,6,0.002375,-15.99998879,-1.600006461,1,0,0,0,150,150,65,1,0,,,,,,,,,,,,,,,,,,,,,
,,,,,,,,,,,,,,,,,,,,,,,,,,,,,,,,,,,,,,,,,,5f8367c3abf19f4f142c14c0,606c15ef99c2b27d231102cd,2021-04-06_10h08.41.089,Colour_Similarity_Experiment,2020.2.10,Win32,60,6067542a4a25243f4d7d4fcf,17.41555693,16.65270939,16.65193831,16.65467589,16.65027474,16.65270939,,,,,,,,,,,,,,,,,,,,PF,strong,3,,,,,,,,3,1.03328,,,,,,,,,,,,,,,,,,,,,,,,,,,,8,strong,-70.39994078,-101.6000568,1,0,0,response5disk,4,152,-18.39994,7.19999367,1,0,0,rectangle,-18.39994,7.19999367,1,0,0,5,3,0.002625,-18.39994,7.19999367,1,0,0,0,151,151,88,1,0,,,,,,,,,,,,,,,,,,,,,
,,,,,,,,,,,,,,,,,,,,,,,,,,,,,,,,,,,,,,,,,,5f8367c3abf19f4f142c14c0,606c15ef99c2b27d231102cd,2021-04-06_10h08.41.089,Colour_Similarity_Experiment,2020.2.10,Win32,60,6067542a4a25243f4d7d4fcf,17.41555693,16.65270939,16.65193831,16.65467589,16.65027474,16.65270939,,,,,,,,,,,,,,,,,,,,PF,weak,3,,,,,,,,4,1.2341,,,,,,,,,,,,,,,,,,,,,,,,,,,,6,weak,71.20001251,-99.20000792,1,0,0,response3disk,9,153,-3.999988616,-2.400006473,1,0,0,rectangle,-3.999988616,-2.400006473,1,0,0,5,1,0.000815,-3.999988616,-2.400006473,1,0,0,0,152,152,45,1,0,,,,,,,,,,,,,,,,,,,,,
,,,,,,,,,,,,,,,,,,,,,,,,,,,,,,,,,,,,,,,,,,5f8367c3abf19f4f142c14c0,606c15ef99c2b27d231102cd,2021-04-06_10h08.41.089,Colour_Similarity_Experiment,2020.2.10,Win32,60,6067542a4a25243f4d7d4fcf,17.41555693,16.65270939,16.65193831,16.65467589,16.65027474,16.65270939,,,,,,,,,,,,,,,,,,,,PF,strong,3,,,,,,,,3,1.171115,,,,,,,,,,,,,,,,,,,,,,,,,,,,2,strong,-61.59998947,-75.20000756,1,0,0,response5disk,2,154,-31.99998903,2.399993598,1,0,0,rectangle,-31.99998903,2.399993598,1,0,0,5,3,0.00172,-31.99998903,2.399993598,1,0,0,0,153,153,142,1,0,,,,,,,,,,,,,,,,,,,,,
,,,,,,,,,,,,,,,,,,,,,,,,,,,,,,,,,,,,,,,,,,5f8367c3abf19f4f142c14c0,606c15ef99c2b27d231102cd,2021-04-06_10h08.41.089,Colour_Similarity_Experiment,2020.2.10,Win32,60,6067542a4a25243f4d7d4fcf,17.41555693,16.65270939,16.65193831,16.65467589,16.65027474,16.65270939,,,,,,,,,,,,,,,,,,,,PF,weak,3,,,,,,,,2,0.94807,,,,,,,,,,,,,,,,,,,,,,,,,,,,6,weak,-82.39994096,-27.20000684,1,0,0,response5disk,8,155,-6.399939823,-6.4373E-06,1,0,0,rectangle,-6.399939823,-6.4373E-06,1,0,0,5,2,0.00214,-6.399939823,-6.4373E-06,1,0,0,0,154,154,64,1,0,,,,,,,,,,,,,,,,,,,,,
,,,,,,,,,,,,,,,,,,,,,,,,,,,,,,,,,,,,,,,,,,5f8367c3abf19f4f142c14c0,606c15ef99c2b27d231102cd,2021-04-06_10h08.41.089,Colour_Similarity_Experiment,2020.2.10,Win32,60,6067542a4a25243f4d7d4fcf,17.41555693,16.65270939,16.65193831,16.65467589,16.65027474,16.65270939,,,,,,,,,,,,,,,,,,,,PF,weak,3,,,,,,,,4,1.20072,,,,,,,,,,,,,,,,,,,,,,,,,,,,3,weak,53.60001224,-68.00000745,1,0,0,response3disk,7,156,3.200011492,7.19999367,1,0,0,rectangle,3.200011492,7.19999367,1,0,0,5,1,0.00239,3.200011492,7.19999367,1,0,0,0,155,155,41,1,0,,,,,,,,,,,,,,,,,,,,,
,,,,,,,,,,,,,,,,,,,,,,,,,,,,,,,,,,,,,,,,,,5f8367c3abf19f4f142c14c0,606c15ef99c2b27d231102cd,2021-04-06_10h08.41.089,Colour_Similarity_Experiment,2020.2.10,Win32,60,6067542a4a25243f4d7d4fcf,17.41555693,16.65270939,16.65193831,16.65467589,16.65027474,16.65270939,,,,,,,,,,,,,,,,,,,,PF,strong,3,,,,,,,,3,10.657215,,,,,,,,,,,,,,,,,,,,,,,,,,,,7,strong,-58.3999406,-104.000008,1,0,0,response5disk,9,157,17.60006053,8.799993694,1,0,0,rectangle,17.60006053,8.799993694,1,0,0,5,3,0.0027,17.60006053,8.799993694,1,0,0,0,156,156,155,1,0,,,,,,,,,,,,,,,,,,,,,
,,,,,,,,,,,,,,,,,,,,,,,,,,,,,,,,,,,,,,,,,,5f8367c3abf19f4f142c14c0,606c15ef99c2b27d231102cd,2021-04-06_10h08.41.089,Colour_Similarity_Experiment,2020.2.10,Win32,60,6067542a4a25243f4d7d4fcf,17.41555693,16.65270939,16.65193831,16.65467589,16.65027474,16.65270939,,,,,,,,,,,,,,,,,,,,PF,weak,3,,,,,,,,4,1.365405,,,,,,,,,,,,,,,,,,,,,,,,,,,,2,weak,43.20001209,-97.60005672,1,0,0,response3disk,5,158,0.800011456,-1.600006461,1,0,0,rectangle,0.800011456,-1.600006461,1,0,0,5,4,0.003235,0.800011456,-1.600006461,1,0,0,0,157,157,147,1,0,,,,,,,,,,,,,,,,,,,,,
,,,,,,,,,,,,,,,,,,,,,,,,,,,,,,,,,,,,,,,,,,5f8367c3abf19f4f142c14c0,606c15ef99c2b27d231102cd,2021-04-06_10h08.41.089,Colour_Similarity_Experiment,2020.2.10,Win32,60,6067542a4a25243f4d7d4fcf,17.41555693,16.65270939,16.65193831,16.65467589,16.65027474,16.65270939,,,,,,,,,,,,,,,,,,,,PF,weak,3,,,,,,,,7,1.79848,,,,,,,,,,,,,,,,,,,,,,,,,,,,4,weak,40.80001205,118.3999953,1,0,0,response1disk,9,159,13.60006047,5.599993646,1,0,0,rectangle,13.60006047,5.599993646,1,0,0,5,3,0.00308,13.60006047,5.599993646,1,0,0,0,158,158,75,1,0,,,,,,,,,,,,,,,,,,,,,
,,,,,,,,,,,,,,,,,,,,,,,,,,,,,,,,,,,,,,,,,,5f8367c3abf19f4f142c14c0,606c15ef99c2b27d231102cd,2021-04-06_10h08.41.089,Colour_Similarity_Experiment,2020.2.10,Win32,60,6067542a4a25243f4d7d4fcf,17.41555693,16.65270939,16.65193831,16.65467589,16.65027474,16.65270939,,,,,,,,,,,,,,,,,,,,PF,strong,3,,,,,,,,4,1.364815,,,,,,,,,,,,,,,,,,,,,,,,,,,,3,strong,76.00001258,-92.80000782,1,0,0,response3disk,8,160,15.20001167,8.799993694,1,0,0,rectangle,15.20001167,8.799993694,1,0,0,5,3,0.000195,15.20001167,8.799993694,1,0,0,0,159,159,44,1,0,,,,,,,,,,,,,,,,,,,,,
,,,,,,,,,,,,,,,,,,,,,,,,,,,,,,,,,,,,,,,,,,5f8367c3abf19f4f142c14c0,606c15ef99c2b27d231102cd,2021-04-06_10h08.41.089,Colour_Similarity_Experiment,2020.2.10,Win32,60,6067542a4a25243f4d7d4fcf,17.41555693,16.65270939,16.65193831,16.65467589,16.65027474,16.65270939,,,,,,,,,,,,,,,,,,,,PF,weak,3,,,,,,,,6,1.129085,,,,,,,,,,,,,,,,,,,,,,,,,,,,7,weak,86.40001273,51.19996991,1,0,0,response1disk,1,161,2.40001148,-0.800006449,1,0,0,rectangle,2.40001148,-0.800006449,1,0,0,5,3,0.000425,2.40001148,-0.800006449,1,0,0,0,160,160,53,1,0,,,,,,,,,,,,,,,,,,,,,
,,,,,,,,,,,,,,,,,,,,,,,,,,,,,,,,,,,,,,,,,,5f8367c3abf19f4f142c14c0,606c15ef99c2b27d231102cd,2021-04-06_10h08.41.089,Colour_Similarity_Experiment,2020.2.10,Win32,60,6067542a4a25243f4d7d4fcf,17.41555693,16.65270939,16.65193831,16.65467589,16.65027474,16.65270939,,,,,,,,,,,,,,,,,,,,PF,weak,3,,,,,,,,5,1.748885,,,,,,,,,,,,,,,,,,,,,,,,,,,,1,weak,109.6000131,-50.40000719,1,0,0,response3disk,3,162,16.80001169,5.599993646,1,0,0,rectangle,16.80001169,5.599993646,1,0,0,5,5,0.00229,16.80001169,5.599993646,1,0,0,0,161,161,1,1,0,,,,,,,,,,,,,,,,,,,,,
,,,,,,,,,,,,,,,,,,,,,,,,,,,,,,,,,,,,,,,,,,5f8367c3abf19f4f142c14c0,606c15ef99c2b27d231102cd,2021-04-06_10h08.41.089,Colour_Similarity_Experiment,2020.2.10,Win32,60,6067542a4a25243f4d7d4fcf,17.41555693,16.65270939,16.65193831,16.65467589,16.65027474,16.65270939,,,,,,,,,,,,,,,,,,,,,,,,,,,,,,,,,,,,,,,,,,,,,,,,,,,,,,,,,,,,,,,,,,,,,,,,,,,,,,,,,,,,,,,,,,,,,,,,0,0,0,0,1,,,,,,,,,,,,,,
,,,,,,,,,,,,,,,,,,,,,,,,,,,,,,,,,,,,,,,,,,5f8367c3abf19f4f142c14c0,606c15ef99c2b27d231102cd,2021-04-06_10h08.41.089,Colour_Similarity_Experiment,2020.2.10,Win32,60,6067542a4a25243f4d7d4fcf,17.41555693,16.65270939,16.65193831,16.65467589,16.65027474,16.65270939,,,,,,,,,,,,,,,,,,,,PF,strong,3,,,,,,,,2,1.263865,,,,,,,,,,,,,,,,,,,,,,,,,,,,4,strong,-95.99998999,-56.80000728,1,0,0,response5disk,4,163,-13.59998876,-1.600006461,1,0,0,rectangle,-13.59998876,-1.600006461,1,0,0,5,2,0.001715,-13.59998876,-1.600006461,1,0,0,0,0,0,84,1,0,,,,,,,,,,,,,,,,,,,,,
,,,,,,,,,,,,,,,,,,,,,,,,,,,,,,,,,,,,,,,,,,5f8367c3abf19f4f142c14c0,606c15ef99c2b27d231102cd,2021-04-06_10h08.41.089,Colour_Similarity_Experiment,2020.2.10,Win32,60,6067542a4a25243f4d7d4fcf,17.41555693,16.65270939,16.65193831,16.65467589,16.65027474,16.65270939,,,,,,,,,,,,,,,,,,,,PF,weak,3,,,,,,,,1,1.283115,,,,,,,,,,,,,,,,,,,,,,,,,,,,9,weak,-106.3999413,33.59999406,1,0,0,response7disk,1,164,-29.599989,-9.60000658,1,0,0,rectangle,-29.599989,-9.60000658,1,0,0,5,7,0.00271,-29.599989,-9.60000658,1,0,0,0,1,1,74,1,0,,,,,,,,,,,,,,,,,,,,,
,,,,,,,,,,,,,,,,,,,,,,,,,,,,,,,,,,,,,,,,,,5f8367c3abf19f4f142c14c0,606c15ef99c2b27d231102cd,2021-04-06_10h08.41.089,Colour_Similarity_Experiment,2020.2.10,Win32,60,6067542a4a25243f4d7d4fcf,17.41555693,16.65270939,16.65193831,16.65467589,16.65027474,16.65270939,,,,,,,,,,,,,,,,,,,,PF,strong,3,,,,,,,,1,1.266105,,,,,,,,,,,,,,,,,,,,,,,,,,,,5,strong,-84.79998982,33.59999406,1,0,0,response7disk,4,165,-7.999988675,-12.80000663,1,0,0,rectangle,-7.999988675,-12.80000663,1,0,0,5,7,0.000235,-7.999988675,-12.80000663,1,0,0,0,2,2,8,1,0,,,,,,,,,,,,,,,,,,,,,
,,,,,,,,,,,,,,,,,,,,,,,,,,,,,,,,,,,,,,,,,,5f8367c3abf19f4f142c14c0,606c15ef99c2b27d231102cd,2021-04-06_10h08.41.089,Colour_Similarity_Experiment,2020.2.10,Win32,60,6067542a4a25243f4d7d4fcf,17.41555693,16.65270939,16.65193831,16.65467589,16.65027474,16.65270939,,,,,,,,,,,,,,,,,,,,PF,strong,3,,,,,,,,2,1.1161,,,,,,,,,,,,,,,,,,,,,,,,,,,,2,strong,-89.59998989,-36.80000699,1,0,0,response5disk,4,166,-16.79998881,-6.400006533,1,0,0,rectangle,-16.79998881,-6.400006533,1,0,0,5,1,0.003085,-16.79998881,-6.400006533,1,0,0,0,3,3,145,1,0,,,,,,,,,,,,,,,,,,,,,
