key_resp.keys,key_resp.rt,key_resp_16.keys,key_resp_16.rt,key_resp_2.keys,key_resp_2.rt,X Scale,ratio_pxpermm,screen_size_x,screen_size_y,testsize,key_resp_3.keys,key_resp_4.keys,key_resp_4.rt,line_size,key_resp_5.keys,key_resp_5.rt,key_resp_6.keys,key_resp_6.rt,key_resp_8.keys,key_resp_8.rt,key_resp_7.keys,key_resp_7.rt,key_resp_12.keys,key_resp_12.rt,key_resp_11.keys,key_resp_11.rt,key_resp_18.keys,key_resp_18.rt,key_resp_21.keys,key_resp_21.rt,key_resp_13.keys,key_resp_13.rt,key_resp_19.keys,key_resp_19.rt,ballposx,viewer_distance,trials.thisRepN,trials.thisTrialN,trials.thisN,trials.thisIndex,trials.ran,participant,session,date,expName,psychopyVersion,OS,frameRate,study_id,realFrameRate1,realFrameRate2,realFrameRate3,realFrameRate4,realFrameRate5,realFrameRate,viewerdistancecm,DVA_to_distance,radius_F,radius_P,r_F,R_P,key_resp_20.keys,key_resp_20.rt,key_resp_14.keys,key_resp_14.rt,key_resp_15.keys,key_resp_15.rt,key_resp_17.keys,key_resp_17.rt,key_resp_9.keys,key_resp_9.rt,key_resp_10.keys,key_resp_10.rt,Colour_1,Ecc,maskCon,mask_frames,mouse_5.x,mouse_5.y,mouse_5.leftButton,mouse_5.midButton,mouse_5.rightButton,mouse_5.clicked_name,Colour_2,similarity,response_time,mouse_10.x,mouse_10.y,mouse_10.leftButton,mouse_10.midButton,mouse_10.rightButton,mouse_10.clicked_name,mouse_7.x,mouse_7.y,mouse_7.leftButton,mouse_7.midButton,mouse_7.rightButton,mouse_7.clicked_name,catchprac,catchnumberprac,mouse_6.x,mouse_6.y,mouse_6.leftButton,mouse_6.midButton,mouse_6.rightButton,mouse_6.clicked_name,duringprac.thisRepN,duringprac.thisTrialN,duringprac.thisN,duringprac.thisIndex,duringprac.ran,key_resp_22.keys,key_resp_22.rt,Colour1,maskCon1,mouse.x,mouse.y,mouse.leftButton,mouse.midButton,mouse.rightButton,mouse.clicked_name,Colour2,trialnumber,mouse_2.x,mouse_2.y,mouse_2.leftButton,mouse_2.midButton,mouse_2.rightButton,mouse_2.clicked_name,mouse_3.x,mouse_3.y,mouse_3.leftButton,mouse_3.midButton,mouse_3.rightButton,catchresponse,catchnumber,response_time_catch,mouse_11.x,mouse_11.y,mouse_11.leftButton,mouse_11.midButton,mouse_11.rightButton,trials_2.thisRepN,trials_2.thisTrialN,trials_2.thisN,trials_2.thisIndex,trials_2.ran,Catch,mouse_3.clicked_name,mouse_11.clicked_name,trials_3.thisRepN,trials_3.thisTrialN,trials_3.thisN,trials_3.thisIndex,trials_3.ran,answer1,rt1,answer2,rt2,answer3,rt3,answer4,rt4,answer5,rt5,answer6,rt6,answer7,rt7
space,9.943055,space,42.539565,space,9.48099,43.2,4.32,370.3703704,277.7777778,1600,,space,19.48816,86.4,space,14.57918,space,4.40355,space,2.818925,space,5.899645,space,14.896055,space,39.91593,space,19.222055,space,13.923455,space,5.3076,return,3.37619,110.4,510.6350873,0,0,0,0,1,5f8d7850f3a3ef065112ffb5,606c0e82a275dcb11b55fb1c,2021-04-06_09h32.42.730,Colour_Similarity_Experiment,2020.2.10,Win32,60,6067542a4a25243f4d7d4fcf,16.78178822,16.66385714,16.68937591,16.67455594,16.665251,16.67455594,,,,,,,,,,,,,,,,,,,,,,,,,,,,,,,,,,,,,,,,,,,,,,,,,,,,,,,,,,,,,,,,,,,,,,,,,,,,,,,,,,,,,,,,,,,,,,,,,,,,,,,,,,,,,,,,,,
,,,,,,,,,,,,,,,,,,,,,,,,,,,,,,,,,return,3.539195,88.8,531.4615938,1,0,1,0,1,5f8d7850f3a3ef065112ffb5,606c0e82a275dcb11b55fb1c,2021-04-06_09h32.42.730,Colour_Similarity_Experiment,2020.2.10,Win32,60,6067542a4a25243f4d7d4fcf,16.78178822,16.66385714,16.68937591,16.67455594,16.665251,16.67455594,,,,,,,,,,,,,,,,,,,,,,,,,,,,,,,,,,,,,,,,,,,,,,,,,,,,,,,,,,,,,,,,,,,,,,,,,,,,,,,,,,,,,,,,,,,,,,,,,,,,,,,,,,,,,,,,,,
,,,,,,,,,,,,,,,,,,,,,,,,,,,,,,,,,return,3.171095,141.6,480.5523555,2,0,2,0,1,5f8d7850f3a3ef065112ffb5,606c0e82a275dcb11b55fb1c,2021-04-06_09h32.42.730,Colour_Similarity_Experiment,2020.2.10,Win32,60,6067542a4a25243f4d7d4fcf,16.78178822,16.66385714,16.68937591,16.67455594,16.665251,16.67455594,,,,,,,,,,,,,,,,,,,,,,,,,,,,,,,,,,,,,,,,,,,,,,,,,,,,,,,,,,,,,,,,,,,,,,,,,,,,,,,,,,,,,,,,,,,,,,,,,,,,,,,,,,,,,,,,,,
,,,,,,,,,,,,,,,,,,,,,,,,,,,,,,,,,return,2.64808,216,408.8166106,3,0,3,0,1,5f8d7850f3a3ef065112ffb5,606c0e82a275dcb11b55fb1c,2021-04-06_09h32.42.730,Colour_Similarity_Experiment,2020.2.10,Win32,60,6067542a4a25243f4d7d4fcf,16.78178822,16.66385714,16.68937591,16.67455594,16.665251,16.67455594,,,,,,,,,,,,,,,,,,,,,,,,,,,,,,,,,,,,,,,,,,,,,,,,,,,,,,,,,,,,,,,,,,,,,,,,,,,,,,,,,,,,,,,,,,,,,,,,,,,,,,,,,,,,,,,,,,
,,,,,,,,,,,,,,,,,,,,,,,,,,,,,,,,,return,3.217925,134.4,487.4945244,4,0,4,0,1,5f8d7850f3a3ef065112ffb5,606c0e82a275dcb11b55fb1c,2021-04-06_09h32.42.730,Colour_Similarity_Experiment,2020.2.10,Win32,60,6067542a4a25243f4d7d4fcf,16.78178822,16.66385714,16.68937591,16.67455594,16.665251,16.67455594,,,,,,,,,,,,,,,,,,,,,,,,,,,,,,,,,,,,,,,,,,,,,,,,,,,,,,,,,,,,,,,,,,,,,,,,,,,,,,,,,,,,,,,,,,,,,,,,,,,,,,,,,,,,,,,,,,
,,,,,,,,,,,,,,,,,,,,,,,,,,,,,,,,,,,,,,,,,,5f8d7850f3a3ef065112ffb5,606c0e82a275dcb11b55fb1c,2021-04-06_09h32.42.730,Colour_Similarity_Experiment,2020.2.10,Win32,60,6067542a4a25243f4d7d4fcf,16.78178822,16.66385714,16.68937591,16.67455594,16.665251,16.67455594,49,8.552978756,55.42330234,369.4886823,36.94886823,166.269907,space,3.654475,space,16.38332,space,48.480315,space,9.31639,space,2.615065,space,6.689235,5,PF,weak,3,-93,48,1,0,0,response7disk_5,1,1,14.01589,-6,-5,1,0,0,rectangle_8,103,46,1,0,0,response1disk_7,6,6,12,9,1,0,0,rectangle_4,0,0,0,4,1,,,,,,,,,,,,,,,,,,,,,,,,,,,,,,,,,,,,,,,,,,,,,,,,,,,,,,,,,,
,,,,,,,,,,,,,,,,,,,,,,,,,,,,,,,,,,,,,,,,,,5f8d7850f3a3ef065112ffb5,606c0e82a275dcb11b55fb1c,2021-04-06_09h32.42.730,Colour_Similarity_Experiment,2020.2.10,Win32,60,6067542a4a25243f4d7d4fcf,16.78178822,16.66385714,16.68937591,16.67455594,16.665251,16.67455594,,,,,,,,,,,,,,,,,,,2,PF,weak,3,-61,105,1,0,0,response7disk_5,1,0,2.50028,-10,2,1,0,0,rectangle_8,-10,2,1,0,0,,,6,-10,2,1,0,0,,0,1,1,6,1,,,,,,,,,,,,,,,,,,,,,,,,,,,,,,,,,,,,,,,,,,,,,,,,,,,,,,,,,,
,,,,,,,,,,,,,,,,,,,,,,,,,,,,,,,,,,,,,,,,,,5f8d7850f3a3ef065112ffb5,606c0e82a275dcb11b55fb1c,2021-04-06_09h32.42.730,Colour_Similarity_Experiment,2020.2.10,Win32,60,6067542a4a25243f4d7d4fcf,16.78178822,16.66385714,16.68937591,16.67455594,16.665251,16.67455594,,,,,,,,,,,,,,,,,,,4,PF,strong,3,-84,-42,1,0,0,response5disk_5,3,2,3.849915,4,7,1,0,0,rectangle_8,119,40,1,0,0,response1disk_7,6,6,7,2,1,0,0,rectangle_4,0,2,2,0,1,,,,,,,,,,,,,,,,,,,,,,,,,,,,,,,,,,,,,,,,,,,,,,,,,,,,,,,,,,
,,,,,,,,,,,,,,,,,,,,,,,,,,,,,,,,,,,,,,,,,,5f8d7850f3a3ef065112ffb5,606c0e82a275dcb11b55fb1c,2021-04-06_09h32.42.730,Colour_Similarity_Experiment,2020.2.10,Win32,60,6067542a4a25243f4d7d4fcf,16.78178822,16.66385714,16.68937591,16.67455594,16.665251,16.67455594,,,,,,,,,,,,,,,,,,,2,PF,weak,3,79,57,1,0,0,response1disk_5,6,6,14.51626,-8,13,1,0,0,rectangle_8,-8,13,1,0,0,,,6,-8,13,1,0,0,,0,3,3,1,1,,,,,,,,,,,,,,,,,,,,,,,,,,,,,,,,,,,,,,,,,,,,,,,,,,,,,,,,,,
,,,,,,,,,,,,,,,,,,,,,,,,,,,,,,,,,,,,,,,,,,5f8d7850f3a3ef065112ffb5,606c0e82a275dcb11b55fb1c,2021-04-06_09h32.42.730,Colour_Similarity_Experiment,2020.2.10,Win32,60,6067542a4a25243f4d7d4fcf,16.78178822,16.66385714,16.68937591,16.67455594,16.665251,16.67455594,,,,,,,,,,,,,,,,,,,6,PF,weak,3,103,37,1,0,0,response1disk_5,3,6,11.88312,0,7,1,0,0,rectangle_8,0,7,1,0,0,,,6,0,7,1,0,0,,0,4,4,5,1,,,,,,,,,,,,,,,,,,,,,,,,,,,,,,,,,,,,,,,,,,,,,,,,,,,,,,,,,,
,,,,,,,,,,,,,,,,,,,,,,,,,,,,,,,,,,,,,,,,,,5f8d7850f3a3ef065112ffb5,606c0e82a275dcb11b55fb1c,2021-04-06_09h32.42.730,Colour_Similarity_Experiment,2020.2.10,Win32,60,6067542a4a25243f4d7d4fcf,16.78178822,16.66385714,16.68937591,16.67455594,16.665251,16.67455594,,,,,,,,,,,,,,,,,,,6,PF,strong,3,-50,115,1,0,0,response7disk_5,6,0,4.083155,-12,2,1,0,0,rectangle_8,-12,2,1,0,0,,,6,-12,2,1,0,0,,0,5,5,3,1,,,,,,,,,,,,,,,,,,,,,,,,,,,,,,,,,,,,,,,,,,,,,,,,,,,,,,,,,,
,,,,,,,,,,,,,,,,,,,,,,,,,,,,,,,,,,,,,,,,,,5f8d7850f3a3ef065112ffb5,606c0e82a275dcb11b55fb1c,2021-04-06_09h32.42.730,Colour_Similarity_Experiment,2020.2.10,Win32,60,6067542a4a25243f4d7d4fcf,16.78178822,16.66385714,16.68937591,16.67455594,16.665251,16.67455594,,,,,,,,,,,,,,,,,,,8,PF,strong,3,-60,-108,1,0,0,response5disk_5,4,3,4.283285,3,0,1,0,0,rectangle_8,3,0,1,0,0,,,6,3,0,1,0,0,,0,6,6,2,1,,,,,,,,,,,,,,,,,,,,,,,,,,,,,,,,,,,,,,,,,,,,,,,,,,,,,,,,,,
,,,,,,,,,,,,,,,,,,,,,,,,,,,,,,,,,,,,,,,,,,5f8d7850f3a3ef065112ffb5,606c0e82a275dcb11b55fb1c,2021-04-06_09h32.42.730,Colour_Similarity_Experiment,2020.2.10,Win32,60,6067542a4a25243f4d7d4fcf,16.78178822,16.66385714,16.68937591,16.67455594,16.665251,16.67455594,,,,,,,,,,,,,,,,,,,,PF,strong,3,,,,,,,,6,8.99882,,,,,,,,,,,,,,,,,,,,,,,,,,space,3.42311,4,strong,83,46,1,0,0,response1disk,6,1,-1,0,1,0,0,rectangle,-1,0,1,0,0,,5,0.00449,-1,0,1,0,0,0,0,0,122,1,0,,,,,,,,,,,,,,,,,,,,,
,,,,,,,,,,,,,,,,,,,,,,,,,,,,,,,,,,,,,,,,,,5f8d7850f3a3ef065112ffb5,606c0e82a275dcb11b55fb1c,2021-04-06_09h32.42.730,Colour_Similarity_Experiment,2020.2.10,Win32,60,6067542a4a25243f4d7d4fcf,16.78178822,16.66385714,16.68937591,16.67455594,16.665251,16.67455594,,,,,,,,,,,,,,,,,,,,PF,weak,3,,,,,,,,4,9.649785,,,,,,,,,,,,,,,,,,,,,,,,,,,,7,weak,23,-99,1,0,0,response3disk,6,2,-5,4,1,0,0,rectangle,-5,4,1,0,0,,5,0.000145,-5,4,1,0,0,0,1,1,29,1,0,,,,,,,,,,,,,,,,,,,,,
,,,,,,,,,,,,,,,,,,,,,,,,,,,,,,,,,,,,,,,,,,5f8d7850f3a3ef065112ffb5,606c0e82a275dcb11b55fb1c,2021-04-06_09h32.42.730,Colour_Similarity_Experiment,2020.2.10,Win32,60,6067542a4a25243f4d7d4fcf,16.78178822,16.66385714,16.68937591,16.67455594,16.665251,16.67455594,,,,,,,,,,,,,,,,,,,,PF,strong,3,,,,,,,,7,3.6513,,,,,,,,,,,,,,,,,,,,,,,,,,,,8,strong,49,97,1,0,0,response1disk,4,3,-10,-2,1,0,0,rectangle,-10,-2,1,0,0,,2,0.00126,-10,-2,1,0,0,0,2,2,88,1,0,,,,,,,,,,,,,,,,,,,,,
,,,,,,,,,,,,,,,,,,,,,,,,,,,,,,,,,,,,,,,,,,5f8d7850f3a3ef065112ffb5,606c0e82a275dcb11b55fb1c,2021-04-06_09h32.42.730,Colour_Similarity_Experiment,2020.2.10,Win32,60,6067542a4a25243f4d7d4fcf,16.78178822,16.66385714,16.68937591,16.67455594,16.665251,16.67455594,,,,,,,,,,,,,,,,,,,,PF,strong,3,,,,,,,,7,3.63149,,,,,,,,,,,,,,,,,,,,,,,,,,,,9,strong,47,95,1,0,0,response1disk,4,4,4,2,1,0,0,rectangle,4,2,1,0,0,,5,0.000895,4,2,1,0,0,0,3,3,60,1,0,,,,,,,,,,,,,,,,,,,,,
,,,,,,,,,,,,,,,,,,,,,,,,,,,,,,,,,,,,,,,,,,5f8d7850f3a3ef065112ffb5,606c0e82a275dcb11b55fb1c,2021-04-06_09h32.42.730,Colour_Similarity_Experiment,2020.2.10,Win32,60,6067542a4a25243f4d7d4fcf,16.78178822,16.66385714,16.68937591,16.67455594,16.665251,16.67455594,,,,,,,,,,,,,,,,,,,,PF,strong,3,,,,,,,,4,4.54975,,,,,,,,,,,,,,,,,,,,,,,,,,,,8,strong,36,-115,1,0,0,response3disk,1,5,-18,4,1,0,0,rectangle,-18,4,1,0,0,,0,0.00066,-18,4,1,0,0,0,4,4,20,1,0,,,,,,,,,,,,,,,,,,,,,
,,,,,,,,,,,,,,,,,,,,,,,,,,,,,,,,,,,,,,,,,,5f8d7850f3a3ef065112ffb5,606c0e82a275dcb11b55fb1c,2021-04-06_09h32.42.730,Colour_Similarity_Experiment,2020.2.10,Win32,60,6067542a4a25243f4d7d4fcf,16.78178822,16.66385714,16.68937591,16.67455594,16.665251,16.67455594,,,,,,,,,,,,,,,,,,,,PF,strong,3,,,,,,,,7,6.08043,,,,,,,,,,,,,,,,,,,,,,,,,,,,5,strong,41,76,1,0,0,response1disk,3,6,13,1,1,0,0,rectangle,13,1,1,0,0,,1,0.000675,13,1,1,0,0,0,5,5,25,1,0,,,,,,,,,,,,,,,,,,,,,
,,,,,,,,,,,,,,,,,,,,,,,,,,,,,,,,,,,,,,,,,,5f8d7850f3a3ef065112ffb5,606c0e82a275dcb11b55fb1c,2021-04-06_09h32.42.730,Colour_Similarity_Experiment,2020.2.10,Win32,60,6067542a4a25243f4d7d4fcf,16.78178822,16.66385714,16.68937591,16.67455594,16.665251,16.67455594,,,,,,,,,,,,,,,,,,,,PF,strong,3,,,,,,,,0,2.599315,,,,,,,,,,,,,,,,,,,,,,,,,,,,9,strong,-56,97,1,0,0,response7disk,8,7,-11,3,1,0,0,rectangle,-11,3,1,0,0,,6,0.000655,-11,3,1,0,0,0,6,6,6,1,0,,,,,,,,,,,,,,,,,,,,,
,,,,,,,,,,,,,,,,,,,,,,,,,,,,,,,,,,,,,,,,,,5f8d7850f3a3ef065112ffb5,606c0e82a275dcb11b55fb1c,2021-04-06_09h32.42.730,Colour_Similarity_Experiment,2020.2.10,Win32,60,6067542a4a25243f4d7d4fcf,16.78178822,16.66385714,16.68937591,16.67455594,16.665251,16.67455594,,,,,,,,,,,,,,,,,,,,PF,weak,3,,,,,,,,7,3.81668,,,,,,,,,,,,,,,,,,,,,,,,,,,,3,weak,45,105,1,0,0,response1disk,8,8,-5,8,1,0,0,rectangle,-5,8,1,0,0,,5,0.0008,-5,8,1,0,0,0,7,7,3,1,0,,,,,,,,,,,,,,,,,,,,,
,,,,,,,,,,,,,,,,,,,,,,,,,,,,,,,,,,,,,,,,,,5f8d7850f3a3ef065112ffb5,606c0e82a275dcb11b55fb1c,2021-04-06_09h32.42.730,Colour_Similarity_Experiment,2020.2.10,Win32,60,6067542a4a25243f4d7d4fcf,16.78178822,16.66385714,16.68937591,16.67455594,16.665251,16.67455594,,,,,,,,,,,,,,,,,,,,PF,strong,3,,,,,,,,7,2.749955,,,,,,,,,,,,,,,,,,,,,,,,,,,,1,strong,56,88,1,0,0,response1disk,3,9,8,-12,1,0,0,rectangle,8,-12,1,0,0,,4,0.00087,8,-12,1,0,0,0,8,8,99,1,0,,,,,,,,,,,,,,,,,,,,,
,,,,,,,,,,,,,,,,,,,,,,,,,,,,,,,,,,,,,,,,,,5f8d7850f3a3ef065112ffb5,606c0e82a275dcb11b55fb1c,2021-04-06_09h32.42.730,Colour_Similarity_Experiment,2020.2.10,Win32,60,6067542a4a25243f4d7d4fcf,16.78178822,16.66385714,16.68937591,16.67455594,16.665251,16.67455594,,,,,,,,,,,,,,,,,,,,PF,weak,3,,,,,,,,4,4.24965,,,,,,,,,,,,,,,,,,,,,,,,,,,,9,weak,38,-99,1,0,0,response3disk,1,10,-5,-2,1,0,0,rectangle,-5,-2,1,0,0,,2,0.000835,-5,-2,1,0,0,0,9,9,74,1,0,,,,,,,,,,,,,,,,,,,,,
,,,,,,,,,,,,,,,,,,,,,,,,,,,,,,,,,,,,,,,,,,5f8d7850f3a3ef065112ffb5,606c0e82a275dcb11b55fb1c,2021-04-06_09h32.42.730,Colour_Similarity_Experiment,2020.2.10,Win32,60,6067542a4a25243f4d7d4fcf,16.78178822,16.66385714,16.68937591,16.67455594,16.665251,16.67455594,,,,,,,,,,,,,,,,,,,,PF,weak,3,,,,,,,,6,3.949855,,,,,,,,,,,,,,,,,,,,,,,,,,,,4,weak,86,36,1,0,0,response1disk,2,11,-2,8,1,0,0,rectangle,-2,8,1,0,0,,4,0.000725,-2,8,1,0,0,0,10,10,108,1,0,,,,,,,,,,,,,,,,,,,,,
,,,,,,,,,,,,,,,,,,,,,,,,,,,,,,,,,,,,,,,,,,5f8d7850f3a3ef065112ffb5,606c0e82a275dcb11b55fb1c,2021-04-06_09h32.42.730,Colour_Similarity_Experiment,2020.2.10,Win32,60,6067542a4a25243f4d7d4fcf,16.78178822,16.66385714,16.68937591,16.67455594,16.665251,16.67455594,,,,,,,,,,,,,,,,,,,,PF,strong,3,,,,,,,,7,1.86576,,,,,,,,,,,,,,,,,,,,,,,,,,,,2,strong,44,101,1,0,0,response1disk,8,12,-7,7,1,0,0,rectangle,-7,7,1,0,0,,4,9E-05,-7,7,1,0,0,0,11,11,62,1,0,,,,,,,,,,,,,,,,,,,,,
,,,,,,,,,,,,,,,,,,,,,,,,,,,,,,,,,,,,,,,,,,5f8d7850f3a3ef065112ffb5,606c0e82a275dcb11b55fb1c,2021-04-06_09h32.42.730,Colour_Similarity_Experiment,2020.2.10,Win32,60,6067542a4a25243f4d7d4fcf,16.78178822,16.66385714,16.68937591,16.67455594,16.665251,16.67455594,,,,,,,,,,,,,,,,,,,,PF,strong,3,,,,,,,,1,1.95005,,,,,,,,,,,,,,,,,,,,,,,,,,,,5,strong,-90,60,1,0,0,response7disk,5,13,-3,0,1,0,0,rectangle,-3,0,1,0,0,,1,0.00078,-3,0,1,0,0,0,12,12,19,1,0,,,,,,,,,,,,,,,,,,,,,
,,,,,,,,,,,,,,,,,,,,,,,,,,,,,,,,,,,,,,,,,,5f8d7850f3a3ef065112ffb5,606c0e82a275dcb11b55fb1c,2021-04-06_09h32.42.730,Colour_Similarity_Experiment,2020.2.10,Win32,60,6067542a4a25243f4d7d4fcf,16.78178822,16.66385714,16.68937591,16.67455594,16.665251,16.67455594,,,,,,,,,,,,,,,,,,,,PF,weak,3,,,,,,,,6,3.24998,,,,,,,,,,,,,,,,,,,,,,,,,,,,3,weak,95,29,1,0,0,response1disk,5,14,-3,-6,1,0,0,rectangle,-3,-6,1,0,0,,4,0.0008,-3,-6,1,0,0,0,13,13,66,1,0,,,,,,,,,,,,,,,,,,,,,
,,,,,,,,,,,,,,,,,,,,,,,,,,,,,,,,,,,,,,,,,,5f8d7850f3a3ef065112ffb5,606c0e82a275dcb11b55fb1c,2021-04-06_09h32.42.730,Colour_Similarity_Experiment,2020.2.10,Win32,60,6067542a4a25243f4d7d4fcf,16.78178822,16.66385714,16.68937591,16.67455594,16.665251,16.67455594,,,,,,,,,,,,,,,,,,,,PF,weak,3,,,,,,,,7,3.26664,,,,,,,,,,,,,,,,,,,,,,,,,,,,1,weak,41,78,1,0,0,response1disk,2,15,-3,9,1,0,0,rectangle,-3,9,1,0,0,,3,0.000725,-3,9,1,0,0,0,14,14,24,1,0,,,,,,,,,,,,,,,,,,,,,
,,,,,,,,,,,,,,,,,,,,,,,,,,,,,,,,,,,,,,,,,,5f8d7850f3a3ef065112ffb5,606c0e82a275dcb11b55fb1c,2021-04-06_09h32.42.730,Colour_Similarity_Experiment,2020.2.10,Win32,60,6067542a4a25243f4d7d4fcf,16.78178822,16.66385714,16.68937591,16.67455594,16.665251,16.67455594,,,,,,,,,,,,,,,,,,,,PF,weak,3,,,,,,,,7,2.083625,,,,,,,,,,,,,,,,,,,,,,,,,,,,2,weak,36,82,1,0,0,response1disk,9,16,3,9,1,0,0,rectangle,3,9,1,0,0,,4,0.00082,3,9,1,0,0,0,15,15,39,1,0,,,,,,,,,,,,,,,,,,,,,
,,,,,,,,,,,,,,,,,,,,,,,,,,,,,,,,,,,,,,,,,,5f8d7850f3a3ef065112ffb5,606c0e82a275dcb11b55fb1c,2021-04-06_09h32.42.730,Colour_Similarity_Experiment,2020.2.10,Win32,60,6067542a4a25243f4d7d4fcf,16.78178822,16.66385714,16.68937591,16.67455594,16.665251,16.67455594,,,,,,,,,,,,,,,,,,,,PF,strong,3,,,,,,,,0,1.96681,,,,,,,,,,,,,,,,,,,,,,,,,,,,7,strong,-69,138,1,0,0,response7disk,7,17,1,1,1,0,0,rectangle,1,1,1,0,0,,7,0.000775,1,1,1,0,0,0,16,16,34,1,0,,,,,,,,,,,,,,,,,,,,,
,,,,,,,,,,,,,,,,,,,,,,,,,,,,,,,,,,,,,,,,,,5f8d7850f3a3ef065112ffb5,606c0e82a275dcb11b55fb1c,2021-04-06_09h32.42.730,Colour_Similarity_Experiment,2020.2.10,Win32,60,6067542a4a25243f4d7d4fcf,16.78178822,16.66385714,16.68937591,16.67455594,16.665251,16.67455594,,,,,,,,,,,,,,,,,,,,PF,weak,3,,,,,,,,7,2.583175,,,,,,,,,,,,,,,,,,,,,,,,,,,,9,weak,46,78,1,0,0,response1disk,3,18,-3,-6,1,0,0,rectangle,-3,-6,1,0,0,,5,0.00083,-3,-6,1,0,0,0,17,17,119,1,0,,,,,,,,,,,,,,,,,,,,,
,,,,,,,,,,,,,,,,,,,,,,,,,,,,,,,,,,,,,,,,,,5f8d7850f3a3ef065112ffb5,606c0e82a275dcb11b55fb1c,2021-04-06_09h32.42.730,Colour_Similarity_Experiment,2020.2.10,Win32,60,6067542a4a25243f4d7d4fcf,16.78178822,16.66385714,16.68937591,16.67455594,16.665251,16.67455594,,,,,,,,,,,,,,,,,,,,PF,weak,3,,,,,,,,5,4.416485,,,,,,,,,,,,,,,,,,,,,,,,,,,,2,weak,91,-59,1,0,0,response3disk,4,19,3,1,1,0,0,rectangle,3,1,1,0,0,,6,0.000785,3,1,1,0,0,0,18,18,127,1,0,,,,,,,,,,,,,,,,,,,,,
,,,,,,,,,,,,,,,,,,,,,,,,,,,,,,,,,,,,,,,,,,5f8d7850f3a3ef065112ffb5,606c0e82a275dcb11b55fb1c,2021-04-06_09h32.42.730,Colour_Similarity_Experiment,2020.2.10,Win32,60,6067542a4a25243f4d7d4fcf,16.78178822,16.66385714,16.68937591,16.67455594,16.665251,16.67455594,,,,,,,,,,,,,,,,,,,,PF,weak,3,,,,,,,,2,2.916425,,,,,,,,,,,,,,,,,,,,,,,,,,,,1,weak,-90,-61,1,0,0,response5disk,9,20,-3,-7,1,0,0,rectangle,-3,-7,1,0,0,,4,0.000715,-3,-7,1,0,0,0,19,19,15,1,0,,,,,,,,,,,,,,,,,,,,,
,,,,,,,,,,,,,,,,,,,,,,,,,,,,,,,,,,,,,,,,,,5f8d7850f3a3ef065112ffb5,606c0e82a275dcb11b55fb1c,2021-04-06_09h32.42.730,Colour_Similarity_Experiment,2020.2.10,Win32,60,6067542a4a25243f4d7d4fcf,16.78178822,16.66385714,16.68937591,16.67455594,16.665251,16.67455594,,,,,,,,,,,,,,,,,,,,PF,weak,3,,,,,,,,7,2.8802,,,,,,,,,,,,,,,,,,,,,,,,,,,,9,weak,52,59,1,0,0,response1disk,4,21,13,0,1,0,0,rectangle,13,0,1,0,0,,3,0.00063,13,0,1,0,0,0,20,20,114,1,0,,,,,,,,,,,,,,,,,,,,,
,,,,,,,,,,,,,,,,,,,,,,,,,,,,,,,,,,,,,,,,,,5f8d7850f3a3ef065112ffb5,606c0e82a275dcb11b55fb1c,2021-04-06_09h32.42.730,Colour_Similarity_Experiment,2020.2.10,Win32,60,6067542a4a25243f4d7d4fcf,16.78178822,16.66385714,16.68937591,16.67455594,16.665251,16.67455594,,,,,,,,,,,,,,,,,,,,PF,weak,3,,,,,,,,0,1.779785,,,,,,,,,,,,,,,,,,,,,,,,,,,,5,weak,-58,110,1,0,0,response7disk,5,22,4,5,1,0,0,rectangle,4,5,1,0,0,,3,0.0001,4,5,1,0,0,0,21,21,94,1,0,,,,,,,,,,,,,,,,,,,,,
,,,,,,,,,,,,,,,,,,,,,,,,,,,,,,,,,,,,,,,,,,5f8d7850f3a3ef065112ffb5,606c0e82a275dcb11b55fb1c,2021-04-06_09h32.42.730,Colour_Similarity_Experiment,2020.2.10,Win32,60,6067542a4a25243f4d7d4fcf,16.78178822,16.66385714,16.68937591,16.67455594,16.665251,16.67455594,,,,,,,,,,,,,,,,,,,,PF,strong,3,,,,,,,,0,1.949715,,,,,,,,,,,,,,,,,,,,,,,,,,,,2,strong,-45,97,1,0,0,response7disk,3,23,-10,15,1,0,0,rectangle,-112,54,1,0,0,1,1,2.199495,-7,-9,1,0,0,0,22,22,104,1,1,response7disk_3,rectangle,,,,,,,,,,,,,,,,,,,
,,,,,,,,,,,,,,,,,,,,,,,,,,,,,,,,,,,,,,,,,,5f8d7850f3a3ef065112ffb5,606c0e82a275dcb11b55fb1c,2021-04-06_09h32.42.730,Colour_Similarity_Experiment,2020.2.10,Win32,60,6067542a4a25243f4d7d4fcf,16.78178822,16.66385714,16.68937591,16.67455594,16.665251,16.67455594,,,,,,,,,,,,,,,,,,,,PF,strong,3,,,,,,,,6,3.44741,,,,,,,,,,,,,,,,,,,,,,,,,,,,1,strong,89,43,1,0,0,response1disk,6,24,-14,-8,1,0,0,rectangle,-14,-8,1,0,0,1,0,0.000595,-14,-8,1,0,0,0,23,23,58,1,0,,,,,,,,,,,,,,,,,,,,,
,,,,,,,,,,,,,,,,,,,,,,,,,,,,,,,,,,,,,,,,,,5f8d7850f3a3ef065112ffb5,606c0e82a275dcb11b55fb1c,2021-04-06_09h32.42.730,Colour_Similarity_Experiment,2020.2.10,Win32,60,6067542a4a25243f4d7d4fcf,16.78178822,16.66385714,16.68937591,16.67455594,16.665251,16.67455594,,,,,,,,,,,,,,,,,,,,PF,strong,3,,,,,,,,7,2.197835,,,,,,,,,,,,,,,,,,,,,,,,,,,,6,strong,32,72,1,0,0,response1disk,8,25,12,5,1,0,0,rectangle,12,5,1,0,0,1,0,8E-05,12,5,1,0,0,0,24,24,133,1,0,,,,,,,,,,,,,,,,,,,,,
,,,,,,,,,,,,,,,,,,,,,,,,,,,,,,,,,,,,,,,,,,5f8d7850f3a3ef065112ffb5,606c0e82a275dcb11b55fb1c,2021-04-06_09h32.42.730,Colour_Similarity_Experiment,2020.2.10,Win32,60,6067542a4a25243f4d7d4fcf,16.78178822,16.66385714,16.68937591,16.67455594,16.665251,16.67455594,,,,,,,,,,,,,,,,,,,,PF,strong,3,,,,,,,,6,6.81433,,,,,,,,,,,,,,,,,,,,,,,,,,,,9,strong,104,34,1,0,0,response1disk,3,26,-19,-3,1,0,0,rectangle,-19,-3,1,0,0,1,6,0.000655,-19,-3,1,0,0,0,25,25,141,1,0,,,,,,,,,,,,,,,,,,,,,
,,,,,,,,,,,,,,,,,,,,,,,,,,,,,,,,,,,,,,,,,,5f8d7850f3a3ef065112ffb5,606c0e82a275dcb11b55fb1c,2021-04-06_09h32.42.730,Colour_Similarity_Experiment,2020.2.10,Win32,60,6067542a4a25243f4d7d4fcf,16.78178822,16.66385714,16.68937591,16.67455594,16.665251,16.67455594,,,,,,,,,,,,,,,,,,,,PF,weak,3,,,,,,,,7,2.73341,,,,,,,,,,,,,,,,,,,,,,,,,,,,9,weak,49,81,1,0,0,response1disk,2,27,1,5,1,0,0,rectangle,1,5,1,0,0,1,6,0.00014,1,5,1,0,0,0,26,26,157,1,0,,,,,,,,,,,,,,,,,,,,,
,,,,,,,,,,,,,,,,,,,,,,,,,,,,,,,,,,,,,,,,,,5f8d7850f3a3ef065112ffb5,606c0e82a275dcb11b55fb1c,2021-04-06_09h32.42.730,Colour_Similarity_Experiment,2020.2.10,Win32,60,6067542a4a25243f4d7d4fcf,16.78178822,16.66385714,16.68937591,16.67455594,16.665251,16.67455594,,,,,,,,,,,,,,,,,,,,PF,weak,3,,,,,,,,7,1.88329,,,,,,,,,,,,,,,,,,,,,,,,,,,,3,weak,54,75,1,0,0,response1disk,7,28,-13,13,1,0,0,rectangle,-13,13,1,0,0,1,3,0.000825,-13,13,1,0,0,0,27,27,41,1,0,,,,,,,,,,,,,,,,,,,,,
,,,,,,,,,,,,,,,,,,,,,,,,,,,,,,,,,,,,,,,,,,5f8d7850f3a3ef065112ffb5,606c0e82a275dcb11b55fb1c,2021-04-06_09h32.42.730,Colour_Similarity_Experiment,2020.2.10,Win32,60,6067542a4a25243f4d7d4fcf,16.78178822,16.66385714,16.68937591,16.67455594,16.665251,16.67455594,,,,,,,,,,,,,,,,,,,,PF,strong,3,,,,,,,,6,4.46663,,,,,,,,,,,,,,,,,,,,,,,,,,,,8,strong,84,39,1,0,0,response1disk,6,29,-9,-5,1,0,0,rectangle,-9,-5,1,0,0,1,2,0.00091,-9,-5,1,0,0,0,28,28,37,1,0,,,,,,,,,,,,,,,,,,,,,
,,,,,,,,,,,,,,,,,,,,,,,,,,,,,,,,,,,,,,,,,,5f8d7850f3a3ef065112ffb5,606c0e82a275dcb11b55fb1c,2021-04-06_09h32.42.730,Colour_Similarity_Experiment,2020.2.10,Win32,60,6067542a4a25243f4d7d4fcf,16.78178822,16.66385714,16.68937591,16.67455594,16.665251,16.67455594,,,,,,,,,,,,,,,,,,,,PF,weak,3,,,,,,,,7,1.666335,,,,,,,,,,,,,,,,,,,,,,,,,,,,8,weak,54,86,1,0,0,response1disk,3,30,-3,-3,1,0,0,rectangle,-3,-3,1,0,0,1,0,0.000885,-3,-3,1,0,0,0,29,29,71,1,0,,,,,,,,,,,,,,,,,,,,,
,,,,,,,,,,,,,,,,,,,,,,,,,,,,,,,,,,,,,,,,,,5f8d7850f3a3ef065112ffb5,606c0e82a275dcb11b55fb1c,2021-04-06_09h32.42.730,Colour_Similarity_Experiment,2020.2.10,Win32,60,6067542a4a25243f4d7d4fcf,16.78178822,16.66385714,16.68937591,16.67455594,16.665251,16.67455594,,,,,,,,,,,,,,,,,,,,PF,strong,3,,,,,,,,3,2.81657,,,,,,,,,,,,,,,,,,,,,,,,,,,,4,strong,-55,-105,1,0,0,response5disk,3,31,-1,8,1,0,0,rectangle,-1,8,1,0,0,1,7,0.00064,-1,8,1,0,0,0,30,30,77,1,0,,,,,,,,,,,,,,,,,,,,,
,,,,,,,,,,,,,,,,,,,,,,,,,,,,,,,,,,,,,,,,,,5f8d7850f3a3ef065112ffb5,606c0e82a275dcb11b55fb1c,2021-04-06_09h32.42.730,Colour_Similarity_Experiment,2020.2.10,Win32,60,6067542a4a25243f4d7d4fcf,16.78178822,16.66385714,16.68937591,16.67455594,16.665251,16.67455594,,,,,,,,,,,,,,,,,,,,PF,strong,3,,,,,,,,6,2.683695,,,,,,,,,,,,,,,,,,,,,,,,,,,,5,strong,96,40,1,0,0,response1disk,8,32,-7,2,1,0,0,rectangle,-7,2,1,0,0,1,6,0.000685,-7,2,1,0,0,0,31,31,16,1,0,,,,,,,,,,,,,,,,,,,,,
,,,,,,,,,,,,,,,,,,,,,,,,,,,,,,,,,,,,,,,,,,5f8d7850f3a3ef065112ffb5,606c0e82a275dcb11b55fb1c,2021-04-06_09h32.42.730,Colour_Similarity_Experiment,2020.2.10,Win32,60,6067542a4a25243f4d7d4fcf,16.78178822,16.66385714,16.68937591,16.67455594,16.665251,16.67455594,,,,,,,,,,,,,,,,,,,,PF,strong,3,,,,,,,,6,1.649955,,,,,,,,,,,,,,,,,,,,,,,,,,,,1,strong,112,46,1,0,0,response1disk,2,33,5,4,1,0,0,rectangle,5,4,1,0,0,1,2,0.000815,5,4,1,0,0,0,32,32,2,1,0,,,,,,,,,,,,,,,,,,,,,
,,,,,,,,,,,,,,,,,,,,,,,,,,,,,,,,,,,,,,,,,,5f8d7850f3a3ef065112ffb5,606c0e82a275dcb11b55fb1c,2021-04-06_09h32.42.730,Colour_Similarity_Experiment,2020.2.10,Win32,60,6067542a4a25243f4d7d4fcf,16.78178822,16.66385714,16.68937591,16.67455594,16.665251,16.67455594,,,,,,,,,,,,,,,,,,,,PF,weak,3,,,,,,,,5,9.916675,,,,,,,,,,,,,,,,,,,,,,,,,,,,8,weak,84,-53,1,0,0,response3disk,4,34,-6,6,1,0,0,rectangle,-6,6,1,0,0,1,3,0.0007,-6,6,1,0,0,0,33,33,78,1,0,,,,,,,,,,,,,,,,,,,,,
,,,,,,,,,,,,,,,,,,,,,,,,,,,,,,,,,,,,,,,,,,5f8d7850f3a3ef065112ffb5,606c0e82a275dcb11b55fb1c,2021-04-06_09h32.42.730,Colour_Similarity_Experiment,2020.2.10,Win32,60,6067542a4a25243f4d7d4fcf,16.78178822,16.66385714,16.68937591,16.67455594,16.665251,16.67455594,,,,,,,,,,,,,,,,,,,,PF,strong,3,,,,,,,,4,3.249655,,,,,,,,,,,,,,,,,,,,,,,,,,,,5,strong,34,-102,1,0,0,response3disk,7,35,-1,4,1,0,0,rectangle,-1,4,1,0,0,1,1,0.001695,-1,4,1,0,0,0,34,34,7,1,0,,,,,,,,,,,,,,,,,,,,,
,,,,,,,,,,,,,,,,,,,,,,,,,,,,,,,,,,,,,,,,,,5f8d7850f3a3ef065112ffb5,606c0e82a275dcb11b55fb1c,2021-04-06_09h32.42.730,Colour_Similarity_Experiment,2020.2.10,Win32,60,6067542a4a25243f4d7d4fcf,16.78178822,16.66385714,16.68937591,16.67455594,16.665251,16.67455594,,,,,,,,,,,,,,,,,,,,PF,strong,3,,,,,,,,2,4.799295,,,,,,,,,,,,,,,,,,,,,,,,,,,,3,strong,-98,-32,1,0,0,response5disk,5,36,-11,1,1,0,0,rectangle,-11,1,1,0,0,1,1,1E-04,-11,1,1,0,0,0,35,35,101,1,0,,,,,,,,,,,,,,,,,,,,,
,,,,,,,,,,,,,,,,,,,,,,,,,,,,,,,,,,,,,,,,,,5f8d7850f3a3ef065112ffb5,606c0e82a275dcb11b55fb1c,2021-04-06_09h32.42.730,Colour_Similarity_Experiment,2020.2.10,Win32,60,6067542a4a25243f4d7d4fcf,16.78178822,16.66385714,16.68937591,16.67455594,16.665251,16.67455594,,,,,,,,,,,,,,,,,,,,PF,weak,3,,,,,,,,3,2.630235,,,,,,,,,,,,,,,,,,,,,,,,,,,,5,weak,-37,-103,1,0,0,response5disk,4,37,0,-4,1,0,0,rectangle,0,-4,1,0,0,1,2,0.000855,0,-4,1,0,0,0,36,36,54,1,0,,,,,,,,,,,,,,,,,,,,,
,,,,,,,,,,,,,,,,,,,,,,,,,,,,,,,,,,,,,,,,,,5f8d7850f3a3ef065112ffb5,606c0e82a275dcb11b55fb1c,2021-04-06_09h32.42.730,Colour_Similarity_Experiment,2020.2.10,Win32,60,6067542a4a25243f4d7d4fcf,16.78178822,16.66385714,16.68937591,16.67455594,16.665251,16.67455594,,,,,,,,,,,,,,,,,,,,PF,weak,3,,,,,,,,6,2.533095,,,,,,,,,,,,,,,,,,,,,,,,,,,,7,weak,114,36,1,0,0,response1disk,5,38,-2,-5,1,0,0,rectangle,-2,-5,1,0,0,1,5,0.000775,-2,-5,1,0,0,0,37,37,92,1,0,,,,,,,,,,,,,,,,,,,,,
,,,,,,,,,,,,,,,,,,,,,,,,,,,,,,,,,,,,,,,,,,5f8d7850f3a3ef065112ffb5,606c0e82a275dcb11b55fb1c,2021-04-06_09h32.42.730,Colour_Similarity_Experiment,2020.2.10,Win32,60,6067542a4a25243f4d7d4fcf,16.78178822,16.66385714,16.68937591,16.67455594,16.665251,16.67455594,,,,,,,,,,,,,,,,,,,,PF,strong,3,,,,,,,,7,1.6801,,,,,,,,,,,,,,,,,,,,,,,,,,,,8,strong,55,97,1,0,0,response1disk,2,39,-4,9,1,0,0,rectangle,-4,9,1,0,0,1,0,0.00068,-4,9,1,0,0,0,38,38,22,1,0,,,,,,,,,,,,,,,,,,,,,
,,,,,,,,,,,,,,,,,,,,,,,,,,,,,,,,,,,,,,,,,,5f8d7850f3a3ef065112ffb5,606c0e82a275dcb11b55fb1c,2021-04-06_09h32.42.730,Colour_Similarity_Experiment,2020.2.10,Win32,60,6067542a4a25243f4d7d4fcf,16.78178822,16.66385714,16.68937591,16.67455594,16.665251,16.67455594,,,,,,,,,,,,,,,,,,,,PF,weak,3,,,,,,,,0,1.316695,,,,,,,,,,,,,,,,,,,,,,,,,,,,2,weak,-53,100,1,0,0,response7disk,2,40,-1,10,1,0,0,rectangle,-1,10,1,0,0,1,2,0.00073,-1,10,1,0,0,0,39,39,14,1,0,,,,,,,,,,,,,,,,,,,,,
,,,,,,,,,,,,,,,,,,,,,,,,,,,,,,,,,,,,,,,,,,5f8d7850f3a3ef065112ffb5,606c0e82a275dcb11b55fb1c,2021-04-06_09h32.42.730,Colour_Similarity_Experiment,2020.2.10,Win32,60,6067542a4a25243f4d7d4fcf,16.78178822,16.66385714,16.68937591,16.67455594,16.665251,16.67455594,,,,,,,,,,,,,,,,,,,,PF,strong,3,,,,,,,,0,1.550015,,,,,,,,,,,,,,,,,,,,,,,,,,,,9,strong,-37,98,1,0,0,response7disk,9,41,12,1,1,0,0,rectangle,12,1,1,0,0,1,0,0.00087,12,1,1,0,0,0,40,40,17,1,0,,,,,,,,,,,,,,,,,,,,,
,,,,,,,,,,,,,,,,,,,,,,,,,,,,,,,,,,,,,,,,,,5f8d7850f3a3ef065112ffb5,606c0e82a275dcb11b55fb1c,2021-04-06_09h32.42.730,Colour_Similarity_Experiment,2020.2.10,Win32,60,6067542a4a25243f4d7d4fcf,16.78178822,16.66385714,16.68937591,16.67455594,16.665251,16.67455594,,,,,,,,,,,,,,,,,,,,PF,weak,3,,,,,,,,0,1.133265,,,,,,,,,,,,,,,,,,,,,,,,,,,,7,weak,-34,112,1,0,0,response7disk,7,42,5,2,1,0,0,rectangle,5,2,1,0,0,1,4,0.000755,5,2,1,0,0,0,41,41,51,1,0,,,,,,,,,,,,,,,,,,,,,
,,,,,,,,,,,,,,,,,,,,,,,,,,,,,,,,,,,,,,,,,,5f8d7850f3a3ef065112ffb5,606c0e82a275dcb11b55fb1c,2021-04-06_09h32.42.730,Colour_Similarity_Experiment,2020.2.10,Win32,60,6067542a4a25243f4d7d4fcf,16.78178822,16.66385714,16.68937591,16.67455594,16.665251,16.67455594,,,,,,,,,,,,,,,,,,,,PF,strong,3,,,,,,,,7,2.200185,,,,,,,,,,,,,,,,,,,,,,,,,,,,8,strong,46,100,1,0,0,response1disk,5,43,0,2,1,0,0,rectangle,0,2,1,0,0,1,1,0.000845,0,2,1,0,0,0,42,42,152,1,0,,,,,,,,,,,,,,,,,,,,,
,,,,,,,,,,,,,,,,,,,,,,,,,,,,,,,,,,,,,,,,,,5f8d7850f3a3ef065112ffb5,606c0e82a275dcb11b55fb1c,2021-04-06_09h32.42.730,Colour_Similarity_Experiment,2020.2.10,Win32,60,6067542a4a25243f4d7d4fcf,16.78178822,16.66385714,16.68937591,16.67455594,16.665251,16.67455594,,,,,,,,,,,,,,,,,,,,PF,weak,3,,,,,,,,7,3.40009,,,,,,,,,,,,,,,,,,,,,,,,,,,,4,weak,46,80,1,0,0,response1disk,9,44,18,5,1,0,0,rectangle,18,5,1,0,0,1,0,0.00088,18,5,1,0,0,0,43,43,75,1,0,,,,,,,,,,,,,,,,,,,,,
,,,,,,,,,,,,,,,,,,,,,,,,,,,,,,,,,,,,,,,,,,5f8d7850f3a3ef065112ffb5,606c0e82a275dcb11b55fb1c,2021-04-06_09h32.42.730,Colour_Similarity_Experiment,2020.2.10,Win32,60,6067542a4a25243f4d7d4fcf,16.78178822,16.66385714,16.68937591,16.67455594,16.665251,16.67455594,,,,,,,,,,,,,,,,,,,,PF,weak,3,,,,,,,,4,6.96664,,,,,,,,,,,,,,,,,,,,,,,,,,,,6,weak,57,-88,1,0,0,response3disk,4,45,-5,4,1,0,0,rectangle,-5,4,1,0,0,1,1,0.000725,-5,4,1,0,0,0,44,44,33,1,0,,,,,,,,,,,,,,,,,,,,,
,,,,,,,,,,,,,,,,,,,,,,,,,,,,,,,,,,,,,,,,,,5f8d7850f3a3ef065112ffb5,606c0e82a275dcb11b55fb1c,2021-04-06_09h32.42.730,Colour_Similarity_Experiment,2020.2.10,Win32,60,6067542a4a25243f4d7d4fcf,16.78178822,16.66385714,16.68937591,16.67455594,16.665251,16.67455594,,,,,,,,,,,,,,,,,,,,PF,strong,3,,,,,,,,1,3.046945,,,,,,,,,,,,,,,,,,,,,,,,,,,,1,strong,-103,27,1,0,0,response7disk,1,46,6,-1,1,0,0,rectangle,6,-1,1,0,0,1,0,0.00074,6,-1,1,0,0,0,45,45,151,1,0,,,,,,,,,,,,,,,,,,,,,
,,,,,,,,,,,,,,,,,,,,,,,,,,,,,,,,,,,,,,,,,,5f8d7850f3a3ef065112ffb5,606c0e82a275dcb11b55fb1c,2021-04-06_09h32.42.730,Colour_Similarity_Experiment,2020.2.10,Win32,60,6067542a4a25243f4d7d4fcf,16.78178822,16.66385714,16.68937591,16.67455594,16.665251,16.67455594,,,,,,,,,,,,,,,,,,,,PF,weak,3,,,,,,,,7,2.114465,,,,,,,,,,,,,,,,,,,,,,,,,,,,6,weak,59,75,0,0,1,response1disk,2,47,-6,-6,1,0,0,rectangle,-6,-6,1,0,0,1,5,0.00059,-6,-6,1,0,0,0,46,46,130,1,0,,,,,,,,,,,,,,,,,,,,,
,,,,,,,,,,,,,,,,,,,,,,,,,,,,,,,,,,,,,,,,,,5f8d7850f3a3ef065112ffb5,606c0e82a275dcb11b55fb1c,2021-04-06_09h32.42.730,Colour_Similarity_Experiment,2020.2.10,Win32,60,6067542a4a25243f4d7d4fcf,16.78178822,16.66385714,16.68937591,16.67455594,16.665251,16.67455594,,,,,,,,,,,,,,,,,,,,PF,weak,3,,,,,,,,4,2.54717,,,,,,,,,,,,,,,,,,,,,,,,,,,,9,weak,56,-114,1,0,0,response3disk,5,48,-7,5,1,0,0,rectangle,-7,5,1,0,0,1,5,0.000105,-7,5,1,0,0,0,47,47,134,1,0,,,,,,,,,,,,,,,,,,,,,
,,,,,,,,,,,,,,,,,,,,,,,,,,,,,,,,,,,,,,,,,,5f8d7850f3a3ef065112ffb5,606c0e82a275dcb11b55fb1c,2021-04-06_09h32.42.730,Colour_Similarity_Experiment,2020.2.10,Win32,60,6067542a4a25243f4d7d4fcf,16.78178822,16.66385714,16.68937591,16.67455594,16.665251,16.67455594,,,,,,,,,,,,,,,,,,,,PF,strong,3,,,,,,,,7,1.866285,,,,,,,,,,,,,,,,,,,,,,,,,,,,1,strong,34,78,1,0,0,response1disk,7,49,3,2,1,0,0,rectangle,3,2,1,0,0,1,3,0.001065,3,2,1,0,0,0,48,48,137,1,0,,,,,,,,,,,,,,,,,,,,,
,,,,,,,,,,,,,,,,,,,,,,,,,,,,,,,,,,,,,,,,,,5f8d7850f3a3ef065112ffb5,606c0e82a275dcb11b55fb1c,2021-04-06_09h32.42.730,Colour_Similarity_Experiment,2020.2.10,Win32,60,6067542a4a25243f4d7d4fcf,16.78178822,16.66385714,16.68937591,16.67455594,16.665251,16.67455594,,,,,,,,,,,,,,,,,,,,PF,strong,3,,,,,,,,4,2.263205,,,,,,,,,,,,,,,,,,,,,,,,,,,,7,strong,53,-77,1,0,0,response3disk,6,50,-3,-1,1,0,0,rectangle,-3,-1,1,0,0,1,4,0.0008,-3,-1,1,0,0,0,49,49,31,1,0,,,,,,,,,,,,,,,,,,,,,
,,,,,,,,,,,,,,,,,,,,,,,,,,,,,,,,,,,,,,,,,,5f8d7850f3a3ef065112ffb5,606c0e82a275dcb11b55fb1c,2021-04-06_09h32.42.730,Colour_Similarity_Experiment,2020.2.10,Win32,60,6067542a4a25243f4d7d4fcf,16.78178822,16.66385714,16.68937591,16.67455594,16.665251,16.67455594,,,,,,,,,,,,,,,,,,,,PF,weak,3,,,,,,,,7,2.78321,,,,,,,,,,,,,,,,,,,,,,,,,,,,4,weak,47,69,1,0,0,response1disk,7,51,5,13,1,0,0,rectangle,5,13,1,0,0,1,3,0.00066,5,13,1,0,0,0,50,50,38,1,0,,,,,,,,,,,,,,,,,,,,,
,,,,,,,,,,,,,,,,,,,,,,,,,,,,,,,,,,,,,,,,,,5f8d7850f3a3ef065112ffb5,606c0e82a275dcb11b55fb1c,2021-04-06_09h32.42.730,Colour_Similarity_Experiment,2020.2.10,Win32,60,6067542a4a25243f4d7d4fcf,16.78178822,16.66385714,16.68937591,16.67455594,16.665251,16.67455594,,,,,,,,,,,,,,,,,,,,PF,strong,3,,,,,,,,0,1.23365,,,,,,,,,,,,,,,,,,,,,,,,,,,,3,strong,-49,109,1,0,0,response7disk,3,52,-3,3,1,0,0,rectangle,-3,3,1,0,0,1,6,0.000615,-3,3,1,0,0,0,51,51,68,1,0,,,,,,,,,,,,,,,,,,,,,
,,,,,,,,,,,,,,,,,,,,,,,,,,,,,,,,,,,,,,,,,,5f8d7850f3a3ef065112ffb5,606c0e82a275dcb11b55fb1c,2021-04-06_09h32.42.730,Colour_Similarity_Experiment,2020.2.10,Win32,60,6067542a4a25243f4d7d4fcf,16.78178822,16.66385714,16.68937591,16.67455594,16.665251,16.67455594,,,,,,,,,,,,,,,,,,,,PF,strong,3,,,,,,,,6,4.015985,,,,,,,,,,,,,,,,,,,,,,,,,,,,7,strong,74,45,1,0,0,response1disk,2,53,-2,0,1,0,0,rectangle,-2,0,1,0,0,1,0,0.000725,-2,0,1,0,0,0,52,52,138,1,0,,,,,,,,,,,,,,,,,,,,,
,,,,,,,,,,,,,,,,,,,,,,,,,,,,,,,,,,,,,,,,,,5f8d7850f3a3ef065112ffb5,606c0e82a275dcb11b55fb1c,2021-04-06_09h32.42.730,Colour_Similarity_Experiment,2020.2.10,Win32,60,6067542a4a25243f4d7d4fcf,16.78178822,16.66385714,16.68937591,16.67455594,16.665251,16.67455594,,,,,,,,,,,,,,,,,,,,PF,weak,3,,,,,,,,5,5.8133,,,,,,,,,,,,,,,,,,,,,,,,,,,,5,weak,71,-47,1,0,0,response3disk,1,54,-8,5,1,0,0,rectangle,-121,43,1,0,0,1,1,1.602435,-6,-7,1,0,0,0,53,53,159,1,1,response7disk_3,rectangle,,,,,,,,,,,,,,,,,,,
,,,,,,,,,,,,,,,,,,,,,,,,,,,,,,,,,,,,,,,,,,5f8d7850f3a3ef065112ffb5,606c0e82a275dcb11b55fb1c,2021-04-06_09h32.42.730,Colour_Similarity_Experiment,2020.2.10,Win32,60,6067542a4a25243f4d7d4fcf,16.78178822,16.66385714,16.68937591,16.67455594,16.665251,16.67455594,,,,,,,,,,,,,,,,,,,,PF,weak,3,,,,,,,,5,3.899285,,,,,,,,,,,,,,,,,,,,,,,,,,,,7,weak,84,-51,1,0,0,response3disk,3,55,-1,-3,1,0,0,rectangle,-1,-3,1,0,0,1,7,0.0006,-1,-3,1,0,0,0,54,54,81,1,0,,,,,,,,,,,,,,,,,,,,,
,,,,,,,,,,,,,,,,,,,,,,,,,,,,,,,,,,,,,,,,,,5f8d7850f3a3ef065112ffb5,606c0e82a275dcb11b55fb1c,2021-04-06_09h32.42.730,Colour_Similarity_Experiment,2020.2.10,Win32,60,6067542a4a25243f4d7d4fcf,16.78178822,16.66385714,16.68937591,16.67455594,16.665251,16.67455594,,,,,,,,,,,,,,,,,,,,PF,strong,3,,,,,,,,7,2.1854,,,,,,,,,,,,,,,,,,,,,,,,,,,,2,strong,46,93,1,0,0,response1disk,7,56,-1,-3,1,0,0,rectangle,-1,-3,1,0,0,1,1,0.000585,-1,-3,1,0,0,0,55,55,63,1,0,,,,,,,,,,,,,,,,,,,,,
,,,,,,,,,,,,,,,,,,,,,,,,,,,,,,,,,,,,,,,,,,5f8d7850f3a3ef065112ffb5,606c0e82a275dcb11b55fb1c,2021-04-06_09h32.42.730,Colour_Similarity_Experiment,2020.2.10,Win32,60,6067542a4a25243f4d7d4fcf,16.78178822,16.66385714,16.68937591,16.67455594,16.665251,16.67455594,,,,,,,,,,,,,,,,,,,,PF,weak,3,,,,,,,,6,5.049565,,,,,,,,,,,,,,,,,,,,,,,,,,,,8,weak,82,36,1,0,0,response1disk,5,57,-8,3,1,0,0,rectangle,-8,3,1,0,0,1,1,0.000105,-8,3,1,0,0,0,56,56,98,1,0,,,,,,,,,,,,,,,,,,,,,
,,,,,,,,,,,,,,,,,,,,,,,,,,,,,,,,,,,,,,,,,,5f8d7850f3a3ef065112ffb5,606c0e82a275dcb11b55fb1c,2021-04-06_09h32.42.730,Colour_Similarity_Experiment,2020.2.10,Win32,60,6067542a4a25243f4d7d4fcf,16.78178822,16.66385714,16.68937591,16.67455594,16.665251,16.67455594,,,,,,,,,,,,,,,,,,,,PF,strong,3,,,,,,,,2,2.4831,,,,,,,,,,,,,,,,,,,,,,,,,,,,7,strong,-92,-35,1,0,0,response5disk,8,58,21,21,1,0,0,rectangle,111,44,1,0,0,6,6,1.619405,-6,-3,1,0,0,0,57,57,97,1,1,response1disk_3,rectangle,,,,,,,,,,,,,,,,,,,
,,,,,,,,,,,,,,,,,,,,,,,,,,,,,,,,,,,,,,,,,,5f8d7850f3a3ef065112ffb5,606c0e82a275dcb11b55fb1c,2021-04-06_09h32.42.730,Colour_Similarity_Experiment,2020.2.10,Win32,60,6067542a4a25243f4d7d4fcf,16.78178822,16.66385714,16.68937591,16.67455594,16.665251,16.67455594,,,,,,,,,,,,,,,,,,,,PF,weak,3,,,,,,,,0,1.969305,,,,,,,,,,,,,,,,,,,,,,,,,,,,3,weak,-51,106,1,0,0,response7disk,3,59,8,-3,1,0,0,rectangle,8,-3,1,0,0,6,2,0.000775,8,-3,1,0,0,0,58,58,4,1,0,,,,,,,,,,,,,,,,,,,,,
,,,,,,,,,,,,,,,,,,,,,,,,,,,,,,,,,,,,,,,,,,5f8d7850f3a3ef065112ffb5,606c0e82a275dcb11b55fb1c,2021-04-06_09h32.42.730,Colour_Similarity_Experiment,2020.2.10,Win32,60,6067542a4a25243f4d7d4fcf,16.78178822,16.66385714,16.68937591,16.67455594,16.665251,16.67455594,,,,,,,,,,,,,,,,,,,,PF,strong,3,,,,,,,,0,1.229755,,,,,,,,,,,,,,,,,,,,,,,,,,,,6,strong,-57,112,1,0,0,response7disk,5,60,-19,4,1,0,0,rectangle,-19,4,1,0,0,6,2,0.000135,-19,4,1,0,0,0,59,59,126,1,0,,,,,,,,,,,,,,,,,,,,,
,,,,,,,,,,,,,,,,,,,,,,,,,,,,,,,,,,,,,,,,,,5f8d7850f3a3ef065112ffb5,606c0e82a275dcb11b55fb1c,2021-04-06_09h32.42.730,Colour_Similarity_Experiment,2020.2.10,Win32,60,6067542a4a25243f4d7d4fcf,16.78178822,16.66385714,16.68937591,16.67455594,16.665251,16.67455594,,,,,,,,,,,,,,,,,,,,PF,strong,3,,,,,,,,6,4.733245,,,,,,,,,,,,,,,,,,,,,,,,,,,,7,strong,81,50,1,0,0,response1disk,5,61,6,3,1,0,0,rectangle,6,3,1,0,0,6,2,9.5E-05,6,3,1,0,0,0,60,60,156,1,0,,,,,,,,,,,,,,,,,,,,,
,,,,,,,,,,,,,,,,,,,,,,,,,,,,,,,,,,,,,,,,,,5f8d7850f3a3ef065112ffb5,606c0e82a275dcb11b55fb1c,2021-04-06_09h32.42.730,Colour_Similarity_Experiment,2020.2.10,Win32,60,6067542a4a25243f4d7d4fcf,16.78178822,16.66385714,16.68937591,16.67455594,16.665251,16.67455594,,,,,,,,,,,,,,,,,,,,PF,strong,3,,,,,,,,0,1.18326,,,,,,,,,,,,,,,,,,,,,,,,,,,,4,strong,-39,101,1,0,0,response7disk,4,62,4,-5,1,0,0,rectangle,4,-5,1,0,0,6,7,0.00073,4,-5,1,0,0,0,61,61,84,1,0,,,,,,,,,,,,,,,,,,,,,
,,,,,,,,,,,,,,,,,,,,,,,,,,,,,,,,,,,,,,,,,,5f8d7850f3a3ef065112ffb5,606c0e82a275dcb11b55fb1c,2021-04-06_09h32.42.730,Colour_Similarity_Experiment,2020.2.10,Win32,60,6067542a4a25243f4d7d4fcf,16.78178822,16.66385714,16.68937591,16.67455594,16.665251,16.67455594,,,,,,,,,,,,,,,,,,,,PF,strong,3,,,,,,,,0,1.533215,,,,,,,,,,,,,,,,,,,,,,,,,,,,5,strong,-66,107,1,0,0,response7disk,6,63,-5,7,1,0,0,rectangle,-5,7,1,0,0,6,5,0.000855,-5,7,1,0,0,0,62,62,12,1,0,,,,,,,,,,,,,,,,,,,,,
,,,,,,,,,,,,,,,,,,,,,,,,,,,,,,,,,,,,,,,,,,5f8d7850f3a3ef065112ffb5,606c0e82a275dcb11b55fb1c,2021-04-06_09h32.42.730,Colour_Similarity_Experiment,2020.2.10,Win32,60,6067542a4a25243f4d7d4fcf,16.78178822,16.66385714,16.68937591,16.67455594,16.665251,16.67455594,,,,,,,,,,,,,,,,,,,,PF,strong,3,,,,,,,,7,1.516665,,,,,,,,,,,,,,,,,,,,,,,,,,,,8,strong,33,101,1,0,0,response1disk,3,64,10,1,1,0,0,rectangle,10,1,1,0,0,6,5,8.5E-05,10,1,1,0,0,0,63,63,154,1,0,,,,,,,,,,,,,,,,,,,,,
,,,,,,,,,,,,,,,,,,,,,,,,,,,,,,,,,,,,,,,,,,5f8d7850f3a3ef065112ffb5,606c0e82a275dcb11b55fb1c,2021-04-06_09h32.42.730,Colour_Similarity_Experiment,2020.2.10,Win32,60,6067542a4a25243f4d7d4fcf,16.78178822,16.66385714,16.68937591,16.67455594,16.665251,16.67455594,,,,,,,,,,,,,,,,,,,,PF,weak,3,,,,,,,,7,1.868755,,,,,,,,,,,,,,,,,,,,,,,,,,,,4,weak,40,79,1,0,0,response1disk,1,65,13,9,1,0,0,rectangle,13,9,1,0,0,6,3,0.00072,13,9,1,0,0,0,64,64,115,1,0,,,,,,,,,,,,,,,,,,,,,
,,,,,,,,,,,,,,,,,,,,,,,,,,,,,,,,,,,,,,,,,,5f8d7850f3a3ef065112ffb5,606c0e82a275dcb11b55fb1c,2021-04-06_09h32.42.730,Colour_Similarity_Experiment,2020.2.10,Win32,60,6067542a4a25243f4d7d4fcf,16.78178822,16.66385714,16.68937591,16.67455594,16.665251,16.67455594,,,,,,,,,,,,,,,,,,,,PF,strong,3,,,,,,,,6,1.566845,,,,,,,,,,,,,,,,,,,,,,,,,,,,4,strong,80,39,1,0,0,response1disk,2,66,-19,-10,1,0,0,rectangle,-19,-10,1,0,0,6,7,0.000525,-19,-10,1,0,0,0,65,65,13,1,0,,,,,,,,,,,,,,,,,,,,,
,,,,,,,,,,,,,,,,,,,,,,,,,,,,,,,,,,,,,,,,,,5f8d7850f3a3ef065112ffb5,606c0e82a275dcb11b55fb1c,2021-04-06_09h32.42.730,Colour_Similarity_Experiment,2020.2.10,Win32,60,6067542a4a25243f4d7d4fcf,16.78178822,16.66385714,16.68937591,16.67455594,16.665251,16.67455594,,,,,,,,,,,,,,,,,,,,PF,weak,3,,,,,,,,4,3.766265,,,,,,,,,,,,,,,,,,,,,,,,,,,,4,weak,38,-106,1,0,0,response3disk,5,67,-7,-5,1,0,0,rectangle,-7,-5,1,0,0,6,4,0.00069,-7,-5,1,0,0,0,66,66,49,1,0,,,,,,,,,,,,,,,,,,,,,
,,,,,,,,,,,,,,,,,,,,,,,,,,,,,,,,,,,,,,,,,,5f8d7850f3a3ef065112ffb5,606c0e82a275dcb11b55fb1c,2021-04-06_09h32.42.730,Colour_Similarity_Experiment,2020.2.10,Win32,60,6067542a4a25243f4d7d4fcf,16.78178822,16.66385714,16.68937591,16.67455594,16.665251,16.67455594,,,,,,,,,,,,,,,,,,,,PF,weak,3,,,,,,,,7,1.98331,,,,,,,,,,,,,,,,,,,,,,,,,,,,8,weak,60,78,1,0,0,response1disk,6,68,0,-10,1,0,0,rectangle,98,42,1,0,0,6,6,1.63343,11,-1,1,0,0,0,67,67,161,1,1,response1disk_3,rectangle,,,,,,,,,,,,,,,,,,,
,,,,,,,,,,,,,,,,,,,,,,,,,,,,,,,,,,,,,,,,,,5f8d7850f3a3ef065112ffb5,606c0e82a275dcb11b55fb1c,2021-04-06_09h32.42.730,Colour_Similarity_Experiment,2020.2.10,Win32,60,6067542a4a25243f4d7d4fcf,16.78178822,16.66385714,16.68937591,16.67455594,16.665251,16.67455594,,,,,,,,,,,,,,,,,,,,PF,strong,3,,,,,,,,6,4.880575,,,,,,,,,,,,,,,,,,,,,,,,,,,,4,strong,95,42,1,0,0,response1disk,9,69,-12,4,1,0,0,rectangle,-12,4,1,0,0,6,3,0.000625,-12,4,1,0,0,0,68,68,90,1,0,,,,,,,,,,,,,,,,,,,,,
,,,,,,,,,,,,,,,,,,,,,,,,,,,,,,,,,,,,,,,,,,5f8d7850f3a3ef065112ffb5,606c0e82a275dcb11b55fb1c,2021-04-06_09h32.42.730,Colour_Similarity_Experiment,2020.2.10,Win32,60,6067542a4a25243f4d7d4fcf,16.78178822,16.66385714,16.68937591,16.67455594,16.665251,16.67455594,,,,,,,,,,,,,,,,,,,,PF,strong,3,,,,,,,,3,2.294095,,,,,,,,,,,,,,,,,,,,,,,,,,,,7,strong,-63,-107,1,0,0,response5disk,3,70,-7,-2,1,0,0,rectangle,-7,-2,1,0,0,6,3,7.5E-05,-7,-2,1,0,0,0,69,69,73,1,0,,,,,,,,,,,,,,,,,,,,,
,,,,,,,,,,,,,,,,,,,,,,,,,,,,,,,,,,,,,,,,,,5f8d7850f3a3ef065112ffb5,606c0e82a275dcb11b55fb1c,2021-04-06_09h32.42.730,Colour_Similarity_Experiment,2020.2.10,Win32,60,6067542a4a25243f4d7d4fcf,16.78178822,16.66385714,16.68937591,16.67455594,16.665251,16.67455594,,,,,,,,,,,,,,,,,,,,PF,strong,3,,,,,,,,3,2.76368,,,,,,,,,,,,,,,,,,,,,,,,,,,,9,strong,-51,-115,1,0,0,response5disk,6,71,8,-5,1,0,0,rectangle,8,-5,1,0,0,6,5,0.000685,8,-5,1,0,0,0,70,70,117,1,0,,,,,,,,,,,,,,,,,,,,,
,,,,,,,,,,,,,,,,,,,,,,,,,,,,,,,,,,,,,,,,,,5f8d7850f3a3ef065112ffb5,606c0e82a275dcb11b55fb1c,2021-04-06_09h32.42.730,Colour_Similarity_Experiment,2020.2.10,Win32,60,6067542a4a25243f4d7d4fcf,16.78178822,16.66385714,16.68937591,16.67455594,16.665251,16.67455594,,,,,,,,,,,,,,,,,,,,PF,weak,3,,,,,,,,3,2.466625,,,,,,,,,,,,,,,,,,,,,,,,,,,,2,weak,-55,-95,1,0,0,response5disk,7,72,-11,-1,1,0,0,rectangle,-11,-1,1,0,0,6,6,0.000795,-11,-1,1,0,0,0,71,71,107,1,0,,,,,,,,,,,,,,,,,,,,,
,,,,,,,,,,,,,,,,,,,,,,,,,,,,,,,,,,,,,,,,,,5f8d7850f3a3ef065112ffb5,606c0e82a275dcb11b55fb1c,2021-04-06_09h32.42.730,Colour_Similarity_Experiment,2020.2.10,Win32,60,6067542a4a25243f4d7d4fcf,16.78178822,16.66385714,16.68937591,16.67455594,16.665251,16.67455594,,,,,,,,,,,,,,,,,,,,PF,weak,3,,,,,,,,4,3.683145,,,,,,,,,,,,,,,,,,,,,,,,,,,,5,weak,64,-90,1,0,0,response3disk,3,73,-3,12,1,0,0,rectangle,-3,12,1,0,0,6,6,9E-05,-3,12,1,0,0,0,72,72,109,1,0,,,,,,,,,,,,,,,,,,,,,
,,,,,,,,,,,,,,,,,,,,,,,,,,,,,,,,,,,,,,,,,,5f8d7850f3a3ef065112ffb5,606c0e82a275dcb11b55fb1c,2021-04-06_09h32.42.730,Colour_Similarity_Experiment,2020.2.10,Win32,60,6067542a4a25243f4d7d4fcf,16.78178822,16.66385714,16.68937591,16.67455594,16.665251,16.67455594,,,,,,,,,,,,,,,,,,,,PF,weak,3,,,,,,,,6,1.433245,,,,,,,,,,,,,,,,,,,,,,,,,,,,6,weak,98,47,1,0,0,response1disk,8,74,-4,1,1,0,0,rectangle,-4,1,1,0,0,6,3,0.000635,-4,1,1,0,0,0,73,73,64,1,0,,,,,,,,,,,,,,,,,,,,,
,,,,,,,,,,,,,,,,,,,,,,,,,,,,,,,,,,,,,,,,,,5f8d7850f3a3ef065112ffb5,606c0e82a275dcb11b55fb1c,2021-04-06_09h32.42.730,Colour_Similarity_Experiment,2020.2.10,Win32,60,6067542a4a25243f4d7d4fcf,16.78178822,16.66385714,16.68937591,16.67455594,16.665251,16.67455594,,,,,,,,,,,,,,,,,,,,PF,weak,3,,,,,,,,7,1.56809,,,,,,,,,,,,,,,,,,,,,,,,,,,,5,weak,50,89,1,0,0,response1disk,2,75,1,-1,1,0,0,rectangle,1,-1,1,0,0,6,6,0.000605,1,-1,1,0,0,0,74,74,129,1,0,,,,,,,,,,,,,,,,,,,,,
,,,,,,,,,,,,,,,,,,,,,,,,,,,,,,,,,,,,,,,,,,5f8d7850f3a3ef065112ffb5,606c0e82a275dcb11b55fb1c,2021-04-06_09h32.42.730,Colour_Similarity_Experiment,2020.2.10,Win32,60,6067542a4a25243f4d7d4fcf,16.78178822,16.66385714,16.68937591,16.67455594,16.665251,16.67455594,,,,,,,,,,,,,,,,,,,,PF,weak,3,,,,,,,,6,3.60008,,,,,,,,,,,,,,,,,,,,,,,,,,,,1,weak,85,36,1,0,0,response1disk,3,76,-16,-9,1,0,0,rectangle,-16,-9,1,0,0,6,7,0.00058,-16,-9,1,0,0,0,75,75,1,1,0,,,,,,,,,,,,,,,,,,,,,
,,,,,,,,,,,,,,,,,,,,,,,,,,,,,,,,,,,,,,,,,,5f8d7850f3a3ef065112ffb5,606c0e82a275dcb11b55fb1c,2021-04-06_09h32.42.730,Colour_Similarity_Experiment,2020.2.10,Win32,60,6067542a4a25243f4d7d4fcf,16.78178822,16.66385714,16.68937591,16.67455594,16.665251,16.67455594,,,,,,,,,,,,,,,,,,,,PF,strong,3,,,,,,,,7,3.16904,,,,,,,,,,,,,,,,,,,,,,,,,,,,3,strong,72,95,1,0,0,response1disk,9,77,-3,4,1,0,0,rectangle,-3,4,1,0,0,6,0,0.00082,-3,4,1,0,0,0,76,76,143,1,0,,,,,,,,,,,,,,,,,,,,,
,,,,,,,,,,,,,,,,,,,,,,,,,,,,,,,,,,,,,,,,,,5f8d7850f3a3ef065112ffb5,606c0e82a275dcb11b55fb1c,2021-04-06_09h32.42.730,Colour_Similarity_Experiment,2020.2.10,Win32,60,6067542a4a25243f4d7d4fcf,16.78178822,16.66385714,16.68937591,16.67455594,16.665251,16.67455594,,,,,,,,,,,,,,,,,,,,PF,strong,3,,,,,,,,1,1.51629,,,,,,,,,,,,,,,,,,,,,,,,,,,,8,strong,-90,44,1,0,0,response7disk,9,78,5,-6,1,0,0,rectangle,5,-6,1,0,0,6,5,0.000665,5,-6,1,0,0,0,77,77,105,1,0,,,,,,,,,,,,,,,,,,,,,
,,,,,,,,,,,,,,,,,,,,,,,,,,,,,,,,,,,,,,,,,,5f8d7850f3a3ef065112ffb5,606c0e82a275dcb11b55fb1c,2021-04-06_09h32.42.730,Colour_Similarity_Experiment,2020.2.10,Win32,60,6067542a4a25243f4d7d4fcf,16.78178822,16.66385714,16.68937591,16.67455594,16.665251,16.67455594,,,,,,,,,,,,,,,,,,,,PF,weak,3,,,,,,,,6,9.26329,,,,,,,,,,,,,,,,,,,,,,,,,,,,8,weak,86,58,1,0,0,response1disk,7,79,21,10,1,0,0,rectangle,21,10,1,0,0,6,3,0.00059,21,10,1,0,0,0,78,78,23,1,0,,,,,,,,,,,,,,,,,,,,,
,,,,,,,,,,,,,,,,,,,,,,,,,,,,,,,,,,,,,,,,,,5f8d7850f3a3ef065112ffb5,606c0e82a275dcb11b55fb1c,2021-04-06_09h32.42.730,Colour_Similarity_Experiment,2020.2.10,Win32,60,6067542a4a25243f4d7d4fcf,16.78178822,16.66385714,16.68937591,16.67455594,16.665251,16.67455594,,,,,,,,,,,,,,,,,,,,PF,strong,3,,,,,,,,0,1.246955,,,,,,,,,,,,,,,,,,,,,,,,,,,,8,strong,-58,93,1,0,0,response7disk,8,80,-12,6,1,0,0,rectangle,-12,6,1,0,0,6,4,0.000645,-12,6,1,0,0,0,79,79,48,1,0,,,,,,,,,,,,,,,,,,,,,
,,,,,,,,,,,,,,,,,,,,,,,,,,,,,,,,,,,,,,,,,,5f8d7850f3a3ef065112ffb5,606c0e82a275dcb11b55fb1c,2021-04-06_09h32.42.730,Colour_Similarity_Experiment,2020.2.10,Win32,60,6067542a4a25243f4d7d4fcf,16.78178822,16.66385714,16.68937591,16.67455594,16.665251,16.67455594,,,,,,,,,,,,,,,,,,,,PF,strong,3,,,,,,,,3,2.36318,,,,,,,,,,,,,,,,,,,,,,,,,,,,4,strong,-46,-98,1,0,0,response5disk,8,81,-5,-8,1,0,0,rectangle,-5,-8,1,0,0,6,6,0.000825,-5,-8,1,0,0,0,80,80,35,1,0,,,,,,,,,,,,,,,,,,,,,
,,,,,,,,,,,,,,,,,,,,,,,,,,,,,,,,,,,,,,,,,,5f8d7850f3a3ef065112ffb5,606c0e82a275dcb11b55fb1c,2021-04-06_09h32.42.730,Colour_Similarity_Experiment,2020.2.10,Win32,60,6067542a4a25243f4d7d4fcf,16.78178822,16.66385714,16.68937591,16.67455594,16.665251,16.67455594,,,,,,,,,,,,,,,,,,,,PF,strong,3,,,,,,,,7,7.416775,,,,,,,,,,,,,,,,,,,,,,,,,,,,9,strong,48,76,1,0,0,response1disk,5,82,13,9,1,0,0,rectangle,13,9,1,0,0,6,2,0.000795,13,9,1,0,0,0,81,81,128,1,0,,,,,,,,,,,,,,,,,,,,,
,,,,,,,,,,,,,,,,,,,,,,,,,,,,,,,,,,,,,,,,,,5f8d7850f3a3ef065112ffb5,606c0e82a275dcb11b55fb1c,2021-04-06_09h32.42.730,Colour_Similarity_Experiment,2020.2.10,Win32,60,6067542a4a25243f4d7d4fcf,16.78178822,16.66385714,16.68937591,16.67455594,16.665251,16.67455594,,,,,,,,,,,,,,,,,,,,PF,strong,3,,,,,,,,3,2.883255,,,,,,,,,,,,,,,,,,,,,,,,,,,,1,strong,-30,-73,1,0,0,response5disk,9,83,7,-3,1,0,0,rectangle,7,-3,1,0,0,6,5,0.00089,7,-3,1,0,0,0,82,82,123,1,0,,,,,,,,,,,,,,,,,,,,,
,,,,,,,,,,,,,,,,,,,,,,,,,,,,,,,,,,,,,,,,,,5f8d7850f3a3ef065112ffb5,606c0e82a275dcb11b55fb1c,2021-04-06_09h32.42.730,Colour_Similarity_Experiment,2020.2.10,Win32,60,6067542a4a25243f4d7d4fcf,16.78178822,16.66385714,16.68937591,16.67455594,16.665251,16.67455594,,,,,,,,,,,,,,,,,,,,PF,strong,3,,,,,,,,2,2.39981,,,,,,,,,,,,,,,,,,,,,,,,,,,,2,strong,-102,-62,1,0,0,response5disk,4,84,-9,-16,1,0,0,rectangle,-9,-16,1,0,0,6,2,0.00134,-9,-16,1,0,0,0,83,83,145,1,0,,,,,,,,,,,,,,,,,,,,,
,,,,,,,,,,,,,,,,,,,,,,,,,,,,,,,,,,,,,,,,,,5f8d7850f3a3ef065112ffb5,606c0e82a275dcb11b55fb1c,2021-04-06_09h32.42.730,Colour_Similarity_Experiment,2020.2.10,Win32,60,6067542a4a25243f4d7d4fcf,16.78178822,16.66385714,16.68937591,16.67455594,16.665251,16.67455594,,,,,,,,,,,,,,,,,,,,PF,strong,3,,,,,,,,7,1.98325,,,,,,,,,,,,,,,,,,,,,,,,,,,,7,strong,45,90,1,0,0,response1disk,1,85,-3,-16,1,0,0,rectangle,-3,-16,1,0,0,6,2,0.00018,-3,-16,1,0,0,0,84,84,132,1,0,,,,,,,,,,,,,,,,,,,,,
,,,,,,,,,,,,,,,,,,,,,,,,,,,,,,,,,,,,,,,,,,5f8d7850f3a3ef065112ffb5,606c0e82a275dcb11b55fb1c,2021-04-06_09h32.42.730,Colour_Similarity_Experiment,2020.2.10,Win32,60,6067542a4a25243f4d7d4fcf,16.78178822,16.66385714,16.68937591,16.67455594,16.665251,16.67455594,,,,,,,,,,,,,,,,,,,,PF,weak,3,,,,,,,,3,8.79965,,,,,,,,,,,,,,,,,,,,,,,,,,,,2,weak,-52,-72,1,0,0,response5disk,6,86,-2,-9,1,0,0,rectangle,-2,-9,1,0,0,6,4,0.001065,-2,-9,1,0,0,0,85,85,113,1,0,,,,,,,,,,,,,,,,,,,,,
,,,,,,,,,,,,,,,,,,,,,,,,,,,,,,,,,,,,,,,,,,5f8d7850f3a3ef065112ffb5,606c0e82a275dcb11b55fb1c,2021-04-06_09h32.42.730,Colour_Similarity_Experiment,2020.2.10,Win32,60,6067542a4a25243f4d7d4fcf,16.78178822,16.66385714,16.68937591,16.67455594,16.665251,16.67455594,,,,,,,,,,,,,,,,,,,,PF,strong,3,,,,,,,,2,2.86624,,,,,,,,,,,,,,,,,,,,,,,,,,,,2,strong,-105,-54,1,0,0,response5disk,1,87,-19,-12,1,0,0,rectangle,-19,-12,1,0,0,6,1,0.00064,-19,-12,1,0,0,0,86,86,85,1,0,,,,,,,,,,,,,,,,,,,,,
,,,,,,,,,,,,,,,,,,,,,,,,,,,,,,,,,,,,,,,,,,5f8d7850f3a3ef065112ffb5,606c0e82a275dcb11b55fb1c,2021-04-06_09h32.42.730,Colour_Similarity_Experiment,2020.2.10,Win32,60,6067542a4a25243f4d7d4fcf,16.78178822,16.66385714,16.68937591,16.67455594,16.665251,16.67455594,,,,,,,,,,,,,,,,,,,,PF,strong,3,,,,,,,,7,1.58326,,,,,,,,,,,,,,,,,,,,,,,,,,,,2,strong,38,94,1,0,0,response1disk,9,88,9,-6,1,0,0,rectangle,9,-6,1,0,0,6,4,0.001005,9,-6,1,0,0,0,87,87,72,1,0,,,,,,,,,,,,,,,,,,,,,
,,,,,,,,,,,,,,,,,,,,,,,,,,,,,,,,,,,,,,,,,,5f8d7850f3a3ef065112ffb5,606c0e82a275dcb11b55fb1c,2021-04-06_09h32.42.730,Colour_Similarity_Experiment,2020.2.10,Win32,60,6067542a4a25243f4d7d4fcf,16.78178822,16.66385714,16.68937591,16.67455594,16.665251,16.67455594,,,,,,,,,,,,,,,,,,,,PF,strong,3,,,,,,,,3,2.850275,,,,,,,,,,,,,,,,,,,,,,,,,,,,3,strong,-57,-100,1,0,0,response5disk,1,89,1,8,1,0,0,rectangle,1,8,1,0,0,6,3,0.000855,1,8,1,0,0,0,88,88,125,1,0,,,,,,,,,,,,,,,,,,,,,
,,,,,,,,,,,,,,,,,,,,,,,,,,,,,,,,,,,,,,,,,,5f8d7850f3a3ef065112ffb5,606c0e82a275dcb11b55fb1c,2021-04-06_09h32.42.730,Colour_Similarity_Experiment,2020.2.10,Win32,60,6067542a4a25243f4d7d4fcf,16.78178822,16.66385714,16.68937591,16.67455594,16.665251,16.67455594,,,,,,,,,,,,,,,,,,,,PF,weak,3,,,,,,,,7,1.43296,,,,,,,,,,,,,,,,,,,,,,,,,,,,3,weak,50,99,1,0,0,response1disk,9,90,23,0,1,0,0,rectangle,23,0,1,0,0,6,7,0.00067,23,0,1,0,0,0,89,89,79,1,0,,,,,,,,,,,,,,,,,,,,,
,,,,,,,,,,,,,,,,,,,,,,,,,,,,,,,,,,,,,,,,,,5f8d7850f3a3ef065112ffb5,606c0e82a275dcb11b55fb1c,2021-04-06_09h32.42.730,Colour_Similarity_Experiment,2020.2.10,Win32,60,6067542a4a25243f4d7d4fcf,16.78178822,16.66385714,16.68937591,16.67455594,16.665251,16.67455594,,,,,,,,,,,,,,,,,,,,PF,strong,3,,,,,,,,7,1.613535,,,,,,,,,,,,,,,,,,,,,,,,,,,,9,strong,48,94,1,0,0,response1disk,2,91,26,14,1,0,0,rectangle,108,-63,1,0,0,5,5,1.8523,-5,-2,1,0,0,0,90,90,11,1,1,response3disk_3,rectangle,,,,,,,,,,,,,,,,,,,
,,,,,,,,,,,,,,,,,,,,,,,,,,,,,,,,,,,,,,,,,,5f8d7850f3a3ef065112ffb5,606c0e82a275dcb11b55fb1c,2021-04-06_09h32.42.730,Colour_Similarity_Experiment,2020.2.10,Win32,60,6067542a4a25243f4d7d4fcf,16.78178822,16.66385714,16.68937591,16.67455594,16.665251,16.67455594,,,,,,,,,,,,,,,,,,,,PF,weak,3,,,,,,,,0,1.199635,,,,,,,,,,,,,,,,,,,,,,,,,,,,6,weak,-64,107,1,0,0,response7disk,6,92,-12,-4,1,0,0,rectangle,-12,-4,1,0,0,5,0,0.00086,-12,-4,1,0,0,0,91,91,0,1,0,,,,,,,,,,,,,,,,,,,,,
,,,,,,,,,,,,,,,,,,,,,,,,,,,,,,,,,,,,,,,,,,5f8d7850f3a3ef065112ffb5,606c0e82a275dcb11b55fb1c,2021-04-06_09h32.42.730,Colour_Similarity_Experiment,2020.2.10,Win32,60,6067542a4a25243f4d7d4fcf,16.78178822,16.66385714,16.68937591,16.67455594,16.665251,16.67455594,,,,,,,,,,,,,,,,,,,,PF,strong,3,,,,,,,,4,1.91346,,,,,,,,,,,,,,,,,,,,,,,,,,,,1,strong,28,-112,1,0,0,response3disk,5,93,-4,17,1,0,0,rectangle,-4,17,1,0,0,5,5,0.000665,-4,17,1,0,0,0,92,92,82,1,0,,,,,,,,,,,,,,,,,,,,,
,,,,,,,,,,,,,,,,,,,,,,,,,,,,,,,,,,,,,,,,,,5f8d7850f3a3ef065112ffb5,606c0e82a275dcb11b55fb1c,2021-04-06_09h32.42.730,Colour_Similarity_Experiment,2020.2.10,Win32,60,6067542a4a25243f4d7d4fcf,16.78178822,16.66385714,16.68937591,16.67455594,16.665251,16.67455594,,,,,,,,,,,,,,,,,,,,PF,strong,3,,,,,,,,6,5.03022,,,,,,,,,,,,,,,,,,,,,,,,,,,,9,strong,68,34,1,0,0,response1disk,1,94,4,1,1,0,0,rectangle,4,1,1,0,0,5,3,0.00077,4,1,1,0,0,0,93,93,111,1,0,,,,,,,,,,,,,,,,,,,,,
,,,,,,,,,,,,,,,,,,,,,,,,,,,,,,,,,,,,,,,,,,5f8d7850f3a3ef065112ffb5,606c0e82a275dcb11b55fb1c,2021-04-06_09h32.42.730,Colour_Similarity_Experiment,2020.2.10,Win32,60,6067542a4a25243f4d7d4fcf,16.78178822,16.66385714,16.68937591,16.67455594,16.665251,16.67455594,,,,,,,,,,,,,,,,,,,,PF,weak,3,,,,,,,,4,4.833065,,,,,,,,,,,,,,,,,,,,,,,,,,,,6,weak,38,-106,1,0,0,response3disk,3,95,-7,-4,1,0,0,rectangle,-7,-4,1,0,0,5,4,0.000725,-7,-4,1,0,0,0,94,94,26,1,0,,,,,,,,,,,,,,,,,,,,,
,,,,,,,,,,,,,,,,,,,,,,,,,,,,,,,,,,,,,,,,,,5f8d7850f3a3ef065112ffb5,606c0e82a275dcb11b55fb1c,2021-04-06_09h32.42.730,Colour_Similarity_Experiment,2020.2.10,Win32,60,6067542a4a25243f4d7d4fcf,16.78178822,16.66385714,16.68937591,16.67455594,16.665251,16.67455594,,,,,,,,,,,,,,,,,,,,PF,weak,3,,,,,,,,1,1.416315,,,,,,,,,,,,,,,,,,,,,,,,,,,,3,weak,-105,45,1,0,0,response7disk,2,96,-14,-4,1,0,0,rectangle,49,-98,1,0,0,4,4,1.670245,-15,8,1,0,0,0,95,95,36,1,1,response3disk_3,rectangle,,,,,,,,,,,,,,,,,,,
,,,,,,,,,,,,,,,,,,,,,,,,,,,,,,,,,,,,,,,,,,5f8d7850f3a3ef065112ffb5,606c0e82a275dcb11b55fb1c,2021-04-06_09h32.42.730,Colour_Similarity_Experiment,2020.2.10,Win32,60,6067542a4a25243f4d7d4fcf,16.78178822,16.66385714,16.68937591,16.67455594,16.665251,16.67455594,,,,,,,,,,,,,,,,,,,,PF,weak,3,,,,,,,,5,2.413715,,,,,,,,,,,,,,,,,,,,,,,,,,,,6,weak,86,-58,1,0,0,response3disk,1,97,6,-7,1,0,0,rectangle,6,-7,1,0,0,4,7,0.000915,6,-7,1,0,0,0,96,96,46,1,0,,,,,,,,,,,,,,,,,,,,,
,,,,,,,,,,,,,,,,,,,,,,,,,,,,,,,,,,,,,,,,,,5f8d7850f3a3ef065112ffb5,606c0e82a275dcb11b55fb1c,2021-04-06_09h32.42.730,Colour_Similarity_Experiment,2020.2.10,Win32,60,6067542a4a25243f4d7d4fcf,16.78178822,16.66385714,16.68937591,16.67455594,16.665251,16.67455594,,,,,,,,,,,,,,,,,,,,PF,weak,3,,,,,,,,3,2.76375,,,,,,,,,,,,,,,,,,,,,,,,,,,,6,weak,-35,-104,1,0,0,response5disk,7,98,2,-4,1,0,0,rectangle,2,-4,1,0,0,4,2,0.000535,2,-4,1,0,0,0,97,97,50,1,0,,,,,,,,,,,,,,,,,,,,,
,,,,,,,,,,,,,,,,,,,,,,,,,,,,,,,,,,,,,,,,,,5f8d7850f3a3ef065112ffb5,606c0e82a275dcb11b55fb1c,2021-04-06_09h32.42.730,Colour_Similarity_Experiment,2020.2.10,Win32,60,6067542a4a25243f4d7d4fcf,16.78178822,16.66385714,16.68937591,16.67455594,16.665251,16.67455594,,,,,,,,,,,,,,,,,,,,PF,weak,3,,,,,,,,5,3.982965,,,,,,,,,,,,,,,,,,,,,,,,,,,,7,weak,127,-32,1,0,0,response3disk,4,99,-5,9,1,0,0,rectangle,-5,9,1,0,0,4,0,0.000545,-5,9,1,0,0,0,98,98,43,1,0,,,,,,,,,,,,,,,,,,,,,
,,,,,,,,,,,,,,,,,,,,,,,,,,,,,,,,,,,,,,,,,,5f8d7850f3a3ef065112ffb5,606c0e82a275dcb11b55fb1c,2021-04-06_09h32.42.730,Colour_Similarity_Experiment,2020.2.10,Win32,60,6067542a4a25243f4d7d4fcf,16.78178822,16.66385714,16.68937591,16.67455594,16.665251,16.67455594,,,,,,,,,,,,,,,,,,,,PF,strong,3,,,,,,,,4,2.31336,,,,,,,,,,,,,,,,,,,,,,,,,,,,4,strong,56,-98,1,0,0,response3disk,1,100,2,15,1,0,0,rectangle,2,15,1,0,0,4,0,7E-05,2,15,1,0,0,0,99,99,102,1,0,,,,,,,,,,,,,,,,,,,,,
,,,,,,,,,,,,,,,,,,,,,,,,,,,,,,,,,,,,,,,,,,5f8d7850f3a3ef065112ffb5,606c0e82a275dcb11b55fb1c,2021-04-06_09h32.42.730,Colour_Similarity_Experiment,2020.2.10,Win32,60,6067542a4a25243f4d7d4fcf,16.78178822,16.66385714,16.68937591,16.67455594,16.665251,16.67455594,,,,,,,,,,,,,,,,,,,,PF,strong,3,,,,,,,,7,1.68004,,,,,,,,,,,,,,,,,,,,,,,,,,,,6,strong,38,84,1,0,0,response1disk,1,101,-14,-9,1,0,0,rectangle,-14,-9,1,0,0,4,1,0.000575,-14,-9,1,0,0,0,100,100,5,1,0,,,,,,,,,,,,,,,,,,,,,
,,,,,,,,,,,,,,,,,,,,,,,,,,,,,,,,,,,,,,,,,,5f8d7850f3a3ef065112ffb5,606c0e82a275dcb11b55fb1c,2021-04-06_09h32.42.730,Colour_Similarity_Experiment,2020.2.10,Win32,60,6067542a4a25243f4d7d4fcf,16.78178822,16.66385714,16.68937591,16.67455594,16.665251,16.67455594,,,,,,,,,,,,,,,,,,,,PF,strong,3,,,,,,,,3,3.78297,,,,,,,,,,,,,,,,,,,,,,,,,,,,6,strong,-63,-96,1,0,0,response5disk,3,102,7,3,1,0,0,rectangle,7,3,1,0,0,4,3,0.00074,7,3,1,0,0,0,101,101,21,1,0,,,,,,,,,,,,,,,,,,,,,
,,,,,,,,,,,,,,,,,,,,,,,,,,,,,,,,,,,,,,,,,,5f8d7850f3a3ef065112ffb5,606c0e82a275dcb11b55fb1c,2021-04-06_09h32.42.730,Colour_Similarity_Experiment,2020.2.10,Win32,60,6067542a4a25243f4d7d4fcf,16.78178822,16.66385714,16.68937591,16.67455594,16.665251,16.67455594,,,,,,,,,,,,,,,,,,,,PF,strong,3,,,,,,,,3,5.46322,,,,,,,,,,,,,,,,,,,,,,,,,,,,5,strong,-57,-79,1,0,0,response5disk,4,103,-10,-3,1,0,0,rectangle,-10,-3,1,0,0,4,4,0.00168,-10,-3,1,0,0,0,102,102,8,1,0,,,,,,,,,,,,,,,,,,,,,
,,,,,,,,,,,,,,,,,,,,,,,,,,,,,,,,,,,,,,,,,,5f8d7850f3a3ef065112ffb5,606c0e82a275dcb11b55fb1c,2021-04-06_09h32.42.730,Colour_Similarity_Experiment,2020.2.10,Win32,60,6067542a4a25243f4d7d4fcf,16.78178822,16.66385714,16.68937591,16.67455594,16.665251,16.67455594,,,,,,,,,,,,,,,,,,,,PF,weak,3,,,,,,,,6,2.033485,,,,,,,,,,,,,,,,,,,,,,,,,,,,1,weak,90,40,1,0,0,response1disk,4,104,-3,4,1,0,0,rectangle,-3,4,1,0,0,4,7,0.000635,-3,4,1,0,0,0,103,103,139,1,0,,,,,,,,,,,,,,,,,,,,,
,,,,,,,,,,,,,,,,,,,,,,,,,,,,,,,,,,,,,,,,,,5f8d7850f3a3ef065112ffb5,606c0e82a275dcb11b55fb1c,2021-04-06_09h32.42.730,Colour_Similarity_Experiment,2020.2.10,Win32,60,6067542a4a25243f4d7d4fcf,16.78178822,16.66385714,16.68937591,16.67455594,16.665251,16.67455594,,,,,,,,,,,,,,,,,,,,PF,weak,3,,,,,,,,7,1.199865,,,,,,,,,,,,,,,,,,,,,,,,,,,,9,weak,37,92,1,0,0,response1disk,6,105,-3,1,1,0,0,rectangle,-3,1,1,0,0,4,7,0.000115,-3,1,1,0,0,0,104,104,148,1,0,,,,,,,,,,,,,,,,,,,,,
,,,,,,,,,,,,,,,,,,,,,,,,,,,,,,,,,,,,,,,,,,5f8d7850f3a3ef065112ffb5,606c0e82a275dcb11b55fb1c,2021-04-06_09h32.42.730,Colour_Similarity_Experiment,2020.2.10,Win32,60,6067542a4a25243f4d7d4fcf,16.78178822,16.66385714,16.68937591,16.67455594,16.665251,16.67455594,,,,,,,,,,,,,,,,,,,,PF,strong,3,,,,,,,,7,1.65008,,,,,,,,,,,,,,,,,,,,,,,,,,,,5,strong,50,94,1,0,0,response1disk,9,106,-3,3,1,0,0,rectangle,-3,3,1,0,0,4,5,0.000815,-3,3,1,0,0,0,105,105,61,1,0,,,,,,,,,,,,,,,,,,,,,
,,,,,,,,,,,,,,,,,,,,,,,,,,,,,,,,,,,,,,,,,,5f8d7850f3a3ef065112ffb5,606c0e82a275dcb11b55fb1c,2021-04-06_09h32.42.730,Colour_Similarity_Experiment,2020.2.10,Win32,60,6067542a4a25243f4d7d4fcf,16.78178822,16.66385714,16.68937591,16.67455594,16.665251,16.67455594,,,,,,,,,,,,,,,,,,,,PF,strong,3,,,,,,,,7,1.716705,,,,,,,,,,,,,,,,,,,,,,,,,,,,4,strong,51,117,1,0,0,response1disk,7,107,5,5,1,0,0,rectangle,5,5,1,0,0,4,4,0.00075,5,5,1,0,0,0,106,106,87,1,0,,,,,,,,,,,,,,,,,,,,,
,,,,,,,,,,,,,,,,,,,,,,,,,,,,,,,,,,,,,,,,,,5f8d7850f3a3ef065112ffb5,606c0e82a275dcb11b55fb1c,2021-04-06_09h32.42.730,Colour_Similarity_Experiment,2020.2.10,Win32,60,6067542a4a25243f4d7d4fcf,16.78178822,16.66385714,16.68937591,16.67455594,16.665251,16.67455594,,,,,,,,,,,,,,,,,,,,PF,strong,3,,,,,,,,6,4.016455,,,,,,,,,,,,,,,,,,,,,,,,,,,,6,strong,71,38,1,0,0,response1disk,2,108,-1,-2,1,0,0,rectangle,-1,-2,1,0,0,4,5,0.00083,-1,-2,1,0,0,0,107,107,112,1,0,,,,,,,,,,,,,,,,,,,,,
,,,,,,,,,,,,,,,,,,,,,,,,,,,,,,,,,,,,,,,,,,5f8d7850f3a3ef065112ffb5,606c0e82a275dcb11b55fb1c,2021-04-06_09h32.42.730,Colour_Similarity_Experiment,2020.2.10,Win32,60,6067542a4a25243f4d7d4fcf,16.78178822,16.66385714,16.68937591,16.67455594,16.665251,16.67455594,,,,,,,,,,,,,,,,,,,,PF,strong,3,,,,,,,,7,1.24999,,,,,,,,,,,,,,,,,,,,,,,,,,,,3,strong,44,124,1,0,0,response1disk,8,109,-9,-4,1,0,0,rectangle,-9,-4,1,0,0,4,7,0.000775,-9,-4,1,0,0,0,108,108,44,1,0,,,,,,,,,,,,,,,,,,,,,
,,,,,,,,,,,,,,,,,,,,,,,,,,,,,,,,,,,,,,,,,,5f8d7850f3a3ef065112ffb5,606c0e82a275dcb11b55fb1c,2021-04-06_09h32.42.730,Colour_Similarity_Experiment,2020.2.10,Win32,60,6067542a4a25243f4d7d4fcf,16.78178822,16.66385714,16.68937591,16.67455594,16.665251,16.67455594,,,,,,,,,,,,,,,,,,,,PF,weak,3,,,,,,,,5,2.64992,,,,,,,,,,,,,,,,,,,,,,,,,,,,1,weak,80,-67,1,0,0,response3disk,7,110,9,-4,1,0,0,rectangle,9,-4,1,0,0,4,2,0.00114,9,-4,1,0,0,0,109,109,150,1,0,,,,,,,,,,,,,,,,,,,,,
,,,,,,,,,,,,,,,,,,,,,,,,,,,,,,,,,,,,,,,,,,5f8d7850f3a3ef065112ffb5,606c0e82a275dcb11b55fb1c,2021-04-06_09h32.42.730,Colour_Similarity_Experiment,2020.2.10,Win32,60,6067542a4a25243f4d7d4fcf,16.78178822,16.66385714,16.68937591,16.67455594,16.665251,16.67455594,,,,,,,,,,,,,,,,,,,,PF,weak,3,,,,,,,,3,1.349755,,,,,,,,,,,,,,,,,,,,,,,,,,,,5,weak,-56,-102,1,0,0,response5disk,7,111,-16,-6,1,0,0,rectangle,-16,-6,1,0,0,4,5,0.00189,-16,-6,1,0,0,0,110,110,146,1,0,,,,,,,,,,,,,,,,,,,,,
,,,,,,,,,,,,,,,,,,,,,,,,,,,,,,,,,,,,,,,,,,5f8d7850f3a3ef065112ffb5,606c0e82a275dcb11b55fb1c,2021-04-06_09h32.42.730,Colour_Similarity_Experiment,2020.2.10,Win32,60,6067542a4a25243f4d7d4fcf,16.78178822,16.66385714,16.68937591,16.67455594,16.665251,16.67455594,,,,,,,,,,,,,,,,,,,,PF,strong,3,,,,,,,,7,2.334285,,,,,,,,,,,,,,,,,,,,,,,,,,,,2,strong,42,70,1,0,0,response1disk,5,112,10,-6,1,0,0,rectangle,10,-6,1,0,0,4,3,0.002165,10,-6,1,0,0,0,111,111,80,1,0,,,,,,,,,,,,,,,,,,,,,
,,,,,,,,,,,,,,,,,,,,,,,,,,,,,,,,,,,,,,,,,,5f8d7850f3a3ef065112ffb5,606c0e82a275dcb11b55fb1c,2021-04-06_09h32.42.730,Colour_Similarity_Experiment,2020.2.10,Win32,60,6067542a4a25243f4d7d4fcf,16.78178822,16.66385714,16.68937591,16.67455594,16.665251,16.67455594,,,,,,,,,,,,,,,,,,,,PF,weak,3,,,,,,,,5,4.599725,,,,,,,,,,,,,,,,,,,,,,,,,,,,1,weak,95,-42,1,0,0,response3disk,6,113,-1,-1,1,0,0,rectangle,-1,-1,1,0,0,4,4,0.0008,-1,-1,1,0,0,0,112,112,144,1,0,,,,,,,,,,,,,,,,,,,,,
,,,,,,,,,,,,,,,,,,,,,,,,,,,,,,,,,,,,,,,,,,5f8d7850f3a3ef065112ffb5,606c0e82a275dcb11b55fb1c,2021-04-06_09h32.42.730,Colour_Similarity_Experiment,2020.2.10,Win32,60,6067542a4a25243f4d7d4fcf,16.78178822,16.66385714,16.68937591,16.67455594,16.665251,16.67455594,,,,,,,,,,,,,,,,,,,,PF,strong,3,,,,,,,,4,2.6838,,,,,,,,,,,,,,,,,,,,,,,,,,,,9,strong,42,-91,1,0,0,response3disk,7,114,-3,4,1,0,0,rectangle,-3,4,1,0,0,4,3,0.00114,-3,4,1,0,0,0,113,113,100,1,0,,,,,,,,,,,,,,,,,,,,,
,,,,,,,,,,,,,,,,,,,,,,,,,,,,,,,,,,,,,,,,,,5f8d7850f3a3ef065112ffb5,606c0e82a275dcb11b55fb1c,2021-04-06_09h32.42.730,Colour_Similarity_Experiment,2020.2.10,Win32,60,6067542a4a25243f4d7d4fcf,16.78178822,16.66385714,16.68937591,16.67455594,16.665251,16.67455594,,,,,,,,,,,,,,,,,,,,PF,weak,3,,,,,,,,0,1.615955,,,,,,,,,,,,,,,,,,,,,,,,,,,,8,weak,-70,90,1,0,0,response7disk,8,115,-9,4,1,0,0,rectangle,-9,4,1,0,0,4,2,0.00083,-9,4,1,0,0,0,114,114,153,1,0,,,,,,,,,,,,,,,,,,,,,
,,,,,,,,,,,,,,,,,,,,,,,,,,,,,,,,,,,,,,,,,,5f8d7850f3a3ef065112ffb5,606c0e82a275dcb11b55fb1c,2021-04-06_09h32.42.730,Colour_Similarity_Experiment,2020.2.10,Win32,60,6067542a4a25243f4d7d4fcf,16.78178822,16.66385714,16.68937591,16.67455594,16.665251,16.67455594,,,,,,,,,,,,,,,,,,,,PF,weak,3,,,,,,,,1,1.38327,,,,,,,,,,,,,,,,,,,,,,,,,,,,2,weak,-102,44,1,0,0,response7disk,3,116,11,-5,1,0,0,rectangle,11,-5,1,0,0,4,6,0.00078,11,-5,1,0,0,0,115,115,69,1,0,,,,,,,,,,,,,,,,,,,,,
,,,,,,,,,,,,,,,,,,,,,,,,,,,,,,,,,,,,,,,,,,5f8d7850f3a3ef065112ffb5,606c0e82a275dcb11b55fb1c,2021-04-06_09h32.42.730,Colour_Similarity_Experiment,2020.2.10,Win32,60,6067542a4a25243f4d7d4fcf,16.78178822,16.66385714,16.68937591,16.67455594,16.665251,16.67455594,,,,,,,,,,,,,,,,,,,,PF,strong,3,,,,,,,,6,3.050215,,,,,,,,,,,,,,,,,,,,,,,,,,,,5,strong,86,33,1,0,0,response1disk,2,117,-5,-7,1,0,0,rectangle,46,122,1,0,0,7,7,1.866955,2,10,1,0,0,0,116,116,55,1,1,response1disk_3,rectangle,,,,,,,,,,,,,,,,,,,
,,,,,,,,,,,,,,,,,,,,,,,,,,,,,,,,,,,,,,,,,,5f8d7850f3a3ef065112ffb5,606c0e82a275dcb11b55fb1c,2021-04-06_09h32.42.730,Colour_Similarity_Experiment,2020.2.10,Win32,60,6067542a4a25243f4d7d4fcf,16.78178822,16.66385714,16.68937591,16.67455594,16.665251,16.67455594,,,,,,,,,,,,,,,,,,,,PF,weak,3,,,,,,,,6,2.899545,,,,,,,,,,,,,,,,,,,,,,,,,,,,5,weak,87,46,1,0,0,response1disk,8,118,-7,4,1,0,0,rectangle,-7,4,1,0,0,7,7,7.5E-05,-7,4,1,0,0,0,117,117,149,1,0,,,,,,,,,,,,,,,,,,,,,
,,,,,,,,,,,,,,,,,,,,,,,,,,,,,,,,,,,,,,,,,,5f8d7850f3a3ef065112ffb5,606c0e82a275dcb11b55fb1c,2021-04-06_09h32.42.730,Colour_Similarity_Experiment,2020.2.10,Win32,60,6067542a4a25243f4d7d4fcf,16.78178822,16.66385714,16.68937591,16.67455594,16.665251,16.67455594,,,,,,,,,,,,,,,,,,,,PF,weak,3,,,,,,,,4,3.08322,,,,,,,,,,,,,,,,,,,,,,,,,,,,2,weak,45,-86,1,0,0,response3disk,1,119,10,-3,1,0,0,rectangle,10,-3,1,0,0,7,2,0.00073,10,-3,1,0,0,0,118,118,9,1,0,,,,,,,,,,,,,,,,,,,,,
,,,,,,,,,,,,,,,,,,,,,,,,,,,,,,,,,,,,,,,,,,5f8d7850f3a3ef065112ffb5,606c0e82a275dcb11b55fb1c,2021-04-06_09h32.42.730,Colour_Similarity_Experiment,2020.2.10,Win32,60,6067542a4a25243f4d7d4fcf,16.78178822,16.66385714,16.68937591,16.67455594,16.665251,16.67455594,,,,,,,,,,,,,,,,,,,,PF,strong,3,,,,,,,,7,4.84674,,,,,,,,,,,,,,,,,,,,,,,,,,,,2,strong,57,99,1,0,0,response1disk,6,120,21,-2,1,0,0,rectangle,21,-2,1,0,0,7,2,0.00012,21,-2,1,0,0,0,119,119,40,1,0,,,,,,,,,,,,,,,,,,,,,
,,,,,,,,,,,,,,,,,,,,,,,,,,,,,,,,,,,,,,,,,,5f8d7850f3a3ef065112ffb5,606c0e82a275dcb11b55fb1c,2021-04-06_09h32.42.730,Colour_Similarity_Experiment,2020.2.10,Win32,60,6067542a4a25243f4d7d4fcf,16.78178822,16.66385714,16.68937591,16.67455594,16.665251,16.67455594,,,,,,,,,,,,,,,,,,,,PF,strong,3,,,,,,,,2,1.599955,,,,,,,,,,,,,,,,,,,,,,,,,,,,2,strong,-90,-32,1,0,0,response5disk,2,121,16,1,1,0,0,rectangle,16,1,1,0,0,7,6,0.00067,16,1,1,0,0,0,120,120,142,1,0,,,,,,,,,,,,,,,,,,,,,
,,,,,,,,,,,,,,,,,,,,,,,,,,,,,,,,,,,,,,,,,,5f8d7850f3a3ef065112ffb5,606c0e82a275dcb11b55fb1c,2021-04-06_09h32.42.730,Colour_Similarity_Experiment,2020.2.10,Win32,60,6067542a4a25243f4d7d4fcf,16.78178822,16.66385714,16.68937591,16.67455594,16.665251,16.67455594,,,,,,,,,,,,,,,,,,,,PF,weak,3,,,,,,,,0,1.36658,,,,,,,,,,,,,,,,,,,,,,,,,,,,4,weak,-71,91,1,0,0,response7disk,4,122,-13,2,1,0,0,rectangle,-13,2,1,0,0,7,1,0.00082,-13,2,1,0,0,0,121,121,70,1,0,,,,,,,,,,,,,,,,,,,,,
,,,,,,,,,,,,,,,,,,,,,,,,,,,,,,,,,,,,,,,,,,5f8d7850f3a3ef065112ffb5,606c0e82a275dcb11b55fb1c,2021-04-06_09h32.42.730,Colour_Similarity_Experiment,2020.2.10,Win32,60,6067542a4a25243f4d7d4fcf,16.78178822,16.66385714,16.68937591,16.67455594,16.665251,16.67455594,,,,,,,,,,,,,,,,,,,,PF,strong,3,,,,,,,,0,1.416455,,,,,,,,,,,,,,,,,,,,,,,,,,,,1,strong,-66,101,1,0,0,response7disk,8,123,-9,7,1,0,0,rectangle,-9,7,1,0,0,7,4,0.00078,-9,7,1,0,0,0,122,122,27,1,0,,,,,,,,,,,,,,,,,,,,,
,,,,,,,,,,,,,,,,,,,,,,,,,,,,,,,,,,,,,,,,,,5f8d7850f3a3ef065112ffb5,606c0e82a275dcb11b55fb1c,2021-04-06_09h32.42.730,Colour_Similarity_Experiment,2020.2.10,Win32,60,6067542a4a25243f4d7d4fcf,16.78178822,16.66385714,16.68937591,16.67455594,16.665251,16.67455594,,,,,,,,,,,,,,,,,,,,PF,weak,3,,,,,,,,0,0.93376,,,,,,,,,,,,,,,,,,,,,,,,,,,,9,weak,-46,108,1,0,0,response7disk,9,124,-13,6,1,0,0,rectangle,-13,6,1,0,0,7,1,0.00075,-13,6,1,0,0,0,123,123,106,1,0,,,,,,,,,,,,,,,,,,,,,
,,,,,,,,,,,,,,,,,,,,,,,,,,,,,,,,,,,,,,,,,,5f8d7850f3a3ef065112ffb5,606c0e82a275dcb11b55fb1c,2021-04-06_09h32.42.730,Colour_Similarity_Experiment,2020.2.10,Win32,60,6067542a4a25243f4d7d4fcf,16.78178822,16.66385714,16.68937591,16.67455594,16.665251,16.67455594,,,,,,,,,,,,,,,,,,,,PF,weak,3,,,,,,,,2,2.51619,,,,,,,,,,,,,,,,,,,,,,,,,,,,7,weak,-99,-32,1,0,0,response5disk,8,125,-10,0,1,0,0,rectangle,-10,0,1,0,0,7,2,0.00114,-10,0,1,0,0,0,124,124,140,1,0,,,,,,,,,,,,,,,,,,,,,
,,,,,,,,,,,,,,,,,,,,,,,,,,,,,,,,,,,,,,,,,,5f8d7850f3a3ef065112ffb5,606c0e82a275dcb11b55fb1c,2021-04-06_09h32.42.730,Colour_Similarity_Experiment,2020.2.10,Win32,60,6067542a4a25243f4d7d4fcf,16.78178822,16.66385714,16.68937591,16.67455594,16.665251,16.67455594,,,,,,,,,,,,,,,,,,,,PF,strong,3,,,,,,,,7,1.80036,,,,,,,,,,,,,,,,,,,,,,,,,,,,7,strong,39,97,1,0,0,response1disk,4,126,11,-4,1,0,0,rectangle,11,-4,1,0,0,7,1,0.00088,11,-4,1,0,0,0,125,125,158,1,0,,,,,,,,,,,,,,,,,,,,,
,,,,,,,,,,,,,,,,,,,,,,,,,,,,,,,,,,,,,,,,,,5f8d7850f3a3ef065112ffb5,606c0e82a275dcb11b55fb1c,2021-04-06_09h32.42.730,Colour_Similarity_Experiment,2020.2.10,Win32,60,6067542a4a25243f4d7d4fcf,16.78178822,16.66385714,16.68937591,16.67455594,16.665251,16.67455594,,,,,,,,,,,,,,,,,,,,PF,weak,3,,,,,,,,7,1.6668,,,,,,,,,,,,,,,,,,,,,,,,,,,,7,weak,34,102,1,0,0,response1disk,2,127,7,12,1,0,0,rectangle,7,12,1,0,0,7,2,0.00285,7,12,1,0,0,0,126,126,32,1,0,,,,,,,,,,,,,,,,,,,,,
,,,,,,,,,,,,,,,,,,,,,,,,,,,,,,,,,,,,,,,,,,5f8d7850f3a3ef065112ffb5,606c0e82a275dcb11b55fb1c,2021-04-06_09h32.42.730,Colour_Similarity_Experiment,2020.2.10,Win32,60,6067542a4a25243f4d7d4fcf,16.78178822,16.66385714,16.68937591,16.67455594,16.665251,16.67455594,,,,,,,,,,,,,,,,,,,,PF,weak,3,,,,,,,,7,1.533725,,,,,,,,,,,,,,,,,,,,,,,,,,,,9,weak,41,95,1,0,0,response1disk,7,128,6,10,1,0,0,rectangle,6,10,1,0,0,7,4,0.000675,6,10,1,0,0,0,127,127,121,1,0,,,,,,,,,,,,,,,,,,,,,
,,,,,,,,,,,,,,,,,,,,,,,,,,,,,,,,,,,,,,,,,,5f8d7850f3a3ef065112ffb5,606c0e82a275dcb11b55fb1c,2021-04-06_09h32.42.730,Colour_Similarity_Experiment,2020.2.10,Win32,60,6067542a4a25243f4d7d4fcf,16.78178822,16.66385714,16.68937591,16.67455594,16.665251,16.67455594,,,,,,,,,,,,,,,,,,,,PF,strong,3,,,,,,,,7,1.199945,,,,,,,,,,,,,,,,,,,,,,,,,,,,6,strong,35,104,1,0,0,response1disk,9,129,0,1,1,0,0,rectangle,95,-45,1,0,0,5,5,1.73266,-2,2,1,0,0,0,128,128,160,1,1,response3disk_3,rectangle,,,,,,,,,,,,,,,,,,,
,,,,,,,,,,,,,,,,,,,,,,,,,,,,,,,,,,,,,,,,,,5f8d7850f3a3ef065112ffb5,606c0e82a275dcb11b55fb1c,2021-04-06_09h32.42.730,Colour_Similarity_Experiment,2020.2.10,Win32,60,6067542a4a25243f4d7d4fcf,16.78178822,16.66385714,16.68937591,16.67455594,16.665251,16.67455594,,,,,,,,,,,,,,,,,,,,PF,weak,3,,,,,,,,7,1.632805,,,,,,,,,,,,,,,,,,,,,,,,,,,,6,weak,40,105,1,0,0,response1disk,9,130,-8,7,1,0,0,rectangle,-8,7,1,0,0,5,2,0.000855,-8,7,1,0,0,0,129,129,45,1,0,,,,,,,,,,,,,,,,,,,,,
,,,,,,,,,,,,,,,,,,,,,,,,,,,,,,,,,,,,,,,,,,5f8d7850f3a3ef065112ffb5,606c0e82a275dcb11b55fb1c,2021-04-06_09h32.42.730,Colour_Similarity_Experiment,2020.2.10,Win32,60,6067542a4a25243f4d7d4fcf,16.78178822,16.66385714,16.68937591,16.67455594,16.665251,16.67455594,,,,,,,,,,,,,,,,,,,,PF,weak,3,,,,,,,,6,3.566365,,,,,,,,,,,,,,,,,,,,,,,,,,,,3,weak,97,31,1,0,0,response1disk,6,131,-8,0,1,0,0,rectangle,-8,0,1,0,0,5,3,0.00108,-8,0,1,0,0,0,130,130,47,1,0,,,,,,,,,,,,,,,,,,,,,
,,,,,,,,,,,,,,,,,,,,,,,,,,,,,,,,,,,,,,,,,,5f8d7850f3a3ef065112ffb5,606c0e82a275dcb11b55fb1c,2021-04-06_09h32.42.730,Colour_Similarity_Experiment,2020.2.10,Win32,60,6067542a4a25243f4d7d4fcf,16.78178822,16.66385714,16.68937591,16.67455594,16.665251,16.67455594,,,,,,,,,,,,,,,,,,,,PF,weak,3,,,,,,,,0,1.13314,,,,,,,,,,,,,,,,,,,,,,,,,,,,8,weak,-58,101,1,0,0,response7disk,9,132,2,-7,1,0,0,rectangle,2,-7,1,0,0,5,4,0.000635,2,-7,1,0,0,0,131,131,42,1,0,,,,,,,,,,,,,,,,,,,,,
,,,,,,,,,,,,,,,,,,,,,,,,,,,,,,,,,,,,,,,,,,5f8d7850f3a3ef065112ffb5,606c0e82a275dcb11b55fb1c,2021-04-06_09h32.42.730,Colour_Similarity_Experiment,2020.2.10,Win32,60,6067542a4a25243f4d7d4fcf,16.78178822,16.66385714,16.68937591,16.67455594,16.665251,16.67455594,,,,,,,,,,,,,,,,,,,,PF,weak,3,,,,,,,,0,0.85,,,,,,,,,,,,,,,,,,,,,,,,,,,,1,weak,-31,110,1,0,0,response7disk,1,133,-4,-2,1,0,0,rectangle,115,63,1,0,0,6,6,1.38313,-14,2,1,0,0,0,132,132,76,1,1,response1disk_3,rectangle,,,,,,,,,,,,,,,,,,,
,,,,,,,,,,,,,,,,,,,,,,,,,,,,,,,,,,,,,,,,,,5f8d7850f3a3ef065112ffb5,606c0e82a275dcb11b55fb1c,2021-04-06_09h32.42.730,Colour_Similarity_Experiment,2020.2.10,Win32,60,6067542a4a25243f4d7d4fcf,16.78178822,16.66385714,16.68937591,16.67455594,16.665251,16.67455594,,,,,,,,,,,,,,,,,,,,PF,weak,3,,,,,,,,6,2.80084,,,,,,,,,,,,,,,,,,,,,,,,,,,,7,weak,95,49,1,0,0,response1disk,1,134,10,-1,1,0,0,rectangle,10,-1,1,0,0,6,0,0.00053,10,-1,1,0,0,0,133,133,53,1,0,,,,,,,,,,,,,,,,,,,,,
,,,,,,,,,,,,,,,,,,,,,,,,,,,,,,,,,,,,,,,,,,5f8d7850f3a3ef065112ffb5,606c0e82a275dcb11b55fb1c,2021-04-06_09h32.42.730,Colour_Similarity_Experiment,2020.2.10,Win32,60,6067542a4a25243f4d7d4fcf,16.78178822,16.66385714,16.68937591,16.67455594,16.665251,16.67455594,,,,,,,,,,,,,,,,,,,,PF,strong,3,,,,,,,,0,1.250175,,,,,,,,,,,,,,,,,,,,,,,,,,,,6,strong,-71,82,1,0,0,response7disk,6,135,-9,-5,1,0,0,rectangle,-9,-5,1,0,0,6,6,0.00098,-9,-5,1,0,0,0,134,134,91,1,0,,,,,,,,,,,,,,,,,,,,,
,,,,,,,,,,,,,,,,,,,,,,,,,,,,,,,,,,,,,,,,,,5f8d7850f3a3ef065112ffb5,606c0e82a275dcb11b55fb1c,2021-04-06_09h32.42.730,Colour_Similarity_Experiment,2020.2.10,Win32,60,6067542a4a25243f4d7d4fcf,16.78178822,16.66385714,16.68937591,16.67455594,16.665251,16.67455594,,,,,,,,,,,,,,,,,,,,PF,weak,3,,,,,,,,7,4.066445,,,,,,,,,,,,,,,,,,,,,,,,,,,,8,weak,34,96,1,0,0,response1disk,2,136,4,3,1,0,0,rectangle,4,3,1,0,0,6,7,0.000825,4,3,1,0,0,0,135,135,83,1,0,,,,,,,,,,,,,,,,,,,,,
,,,,,,,,,,,,,,,,,,,,,,,,,,,,,,,,,,,,,,,,,,5f8d7850f3a3ef065112ffb5,606c0e82a275dcb11b55fb1c,2021-04-06_09h32.42.730,Colour_Similarity_Experiment,2020.2.10,Win32,60,6067542a4a25243f4d7d4fcf,16.78178822,16.66385714,16.68937591,16.67455594,16.665251,16.67455594,,,,,,,,,,,,,,,,,,,,PF,weak,3,,,,,,,,4,2.96662,,,,,,,,,,,,,,,,,,,,,,,,,,,,8,weak,56,-78,1,0,0,response3disk,1,137,-8,7,1,0,0,rectangle,-8,7,1,0,0,6,2,0.00087,-8,7,1,0,0,0,136,136,57,1,0,,,,,,,,,,,,,,,,,,,,,
,,,,,,,,,,,,,,,,,,,,,,,,,,,,,,,,,,,,,,,,,,5f8d7850f3a3ef065112ffb5,606c0e82a275dcb11b55fb1c,2021-04-06_09h32.42.730,Colour_Similarity_Experiment,2020.2.10,Win32,60,6067542a4a25243f4d7d4fcf,16.78178822,16.66385714,16.68937591,16.67455594,16.665251,16.67455594,,,,,,,,,,,,,,,,,,,,PF,weak,3,,,,,,,,0,0.98321,,,,,,,,,,,,,,,,,,,,,,,,,,,,5,weak,-63,113,1,0,0,response7disk,6,138,-6,10,1,0,0,rectangle,-6,10,1,0,0,6,2,0.000475,-6,10,1,0,0,0,137,137,103,1,0,,,,,,,,,,,,,,,,,,,,,
,,,,,,,,,,,,,,,,,,,,,,,,,,,,,,,,,,,,,,,,,,5f8d7850f3a3ef065112ffb5,606c0e82a275dcb11b55fb1c,2021-04-06_09h32.42.730,Colour_Similarity_Experiment,2020.2.10,Win32,60,6067542a4a25243f4d7d4fcf,16.78178822,16.66385714,16.68937591,16.67455594,16.665251,16.67455594,,,,,,,,,,,,,,,,,,,,PF,weak,3,,,,,,,,0,0.99991,,,,,,,,,,,,,,,,,,,,,,,,,,,,9,weak,-48,82,1,0,0,response7disk,8,139,-16,0,1,0,0,rectangle,-16,0,1,0,0,6,7,0.000595,-16,0,1,0,0,0,138,138,67,1,0,,,,,,,,,,,,,,,,,,,,,
,,,,,,,,,,,,,,,,,,,,,,,,,,,,,,,,,,,,,,,,,,5f8d7850f3a3ef065112ffb5,606c0e82a275dcb11b55fb1c,2021-04-06_09h32.42.730,Colour_Similarity_Experiment,2020.2.10,Win32,60,6067542a4a25243f4d7d4fcf,16.78178822,16.66385714,16.68937591,16.67455594,16.665251,16.67455594,,,,,,,,,,,,,,,,,,,,PF,strong,3,,,,,,,,2,2.56671,,,,,,,,,,,,,,,,,,,,,,,,,,,,3,strong,-98,-54,1,0,0,response5disk,6,140,12,-3,1,0,0,rectangle,12,-3,1,0,0,6,4,0.00054,12,-3,1,0,0,0,139,139,95,1,0,,,,,,,,,,,,,,,,,,,,,
,,,,,,,,,,,,,,,,,,,,,,,,,,,,,,,,,,,,,,,,,,5f8d7850f3a3ef065112ffb5,606c0e82a275dcb11b55fb1c,2021-04-06_09h32.42.730,Colour_Similarity_Experiment,2020.2.10,Win32,60,6067542a4a25243f4d7d4fcf,16.78178822,16.66385714,16.68937591,16.67455594,16.665251,16.67455594,,,,,,,,,,,,,,,,,,,,PF,weak,3,,,,,,,,3,4.233135,,,,,,,,,,,,,,,,,,,,,,,,,,,,6,weak,-44,-103,1,0,0,response5disk,5,141,-1,10,1,0,0,rectangle,-1,10,1,0,0,6,2,0.00082,-1,10,1,0,0,0,140,140,59,1,0,,,,,,,,,,,,,,,,,,,,,
,,,,,,,,,,,,,,,,,,,,,,,,,,,,,,,,,,,,,,,,,,5f8d7850f3a3ef065112ffb5,606c0e82a275dcb11b55fb1c,2021-04-06_09h32.42.730,Colour_Similarity_Experiment,2020.2.10,Win32,60,6067542a4a25243f4d7d4fcf,16.78178822,16.66385714,16.68937591,16.67455594,16.665251,16.67455594,,,,,,,,,,,,,,,,,,,,PF,strong,3,,,,,,,,7,1.99965,,,,,,,,,,,,,,,,,,,,,,,,,,,,5,strong,53,86,1,0,0,response1disk,1,142,1,-5,1,0,0,rectangle,1,-5,1,0,0,6,6,0.000865,1,-5,1,0,0,0,141,141,131,1,0,,,,,,,,,,,,,,,,,,,,,
,,,,,,,,,,,,,,,,,,,,,,,,,,,,,,,,,,,,,,,,,,5f8d7850f3a3ef065112ffb5,606c0e82a275dcb11b55fb1c,2021-04-06_09h32.42.730,Colour_Similarity_Experiment,2020.2.10,Win32,60,6067542a4a25243f4d7d4fcf,16.78178822,16.66385714,16.68937591,16.67455594,16.665251,16.67455594,,,,,,,,,,,,,,,,,,,,PF,weak,3,,,,,,,,4,3.43432,,,,,,,,,,,,,,,,,,,,,,,,,,,,4,weak,59,-84,1,0,0,response3disk,3,143,10,-7,1,0,0,rectangle,10,-7,1,0,0,6,0,0.00143,10,-7,1,0,0,0,142,142,89,1,0,,,,,,,,,,,,,,,,,,,,,
,,,,,,,,,,,,,,,,,,,,,,,,,,,,,,,,,,,,,,,,,,5f8d7850f3a3ef065112ffb5,606c0e82a275dcb11b55fb1c,2021-04-06_09h32.42.730,Colour_Similarity_Experiment,2020.2.10,Win32,60,6067542a4a25243f4d7d4fcf,16.78178822,16.66385714,16.68937591,16.67455594,16.665251,16.67455594,,,,,,,,,,,,,,,,,,,,PF,weak,3,,,,,,,,7,1.03019,,,,,,,,,,,,,,,,,,,,,,,,,,,,2,weak,44,98,1,0,0,response1disk,8,144,4,5,1,0,0,rectangle,4,5,1,0,0,6,3,0.00091,4,5,1,0,0,0,143,143,52,1,0,,,,,,,,,,,,,,,,,,,,,
,,,,,,,,,,,,,,,,,,,,,,,,,,,,,,,,,,,,,,,,,,5f8d7850f3a3ef065112ffb5,606c0e82a275dcb11b55fb1c,2021-04-06_09h32.42.730,Colour_Similarity_Experiment,2020.2.10,Win32,60,6067542a4a25243f4d7d4fcf,16.78178822,16.66385714,16.68937591,16.67455594,16.665251,16.67455594,,,,,,,,,,,,,,,,,,,,PF,strong,3,,,,,,,,4,2.13001,,,,,,,,,,,,,,,,,,,,,,,,,,,,4,strong,48,-100,1,0,0,response3disk,5,145,2,-6,1,0,0,rectangle,2,-6,1,0,0,6,3,8E-05,2,-6,1,0,0,0,144,144,116,1,0,,,,,,,,,,,,,,,,,,,,,
,,,,,,,,,,,,,,,,,,,,,,,,,,,,,,,,,,,,,,,,,,5f8d7850f3a3ef065112ffb5,606c0e82a275dcb11b55fb1c,2021-04-06_09h32.42.730,Colour_Similarity_Experiment,2020.2.10,Win32,60,6067542a4a25243f4d7d4fcf,16.78178822,16.66385714,16.68937591,16.67455594,16.665251,16.67455594,,,,,,,,,,,,,,,,,,,,PF,strong,3,,,,,,,,4,1.232625,,,,,,,,,,,,,,,,,,,,,,,,,,,,6,strong,36,-99,1,0,0,response3disk,4,146,6,-12,1,0,0,rectangle,6,-12,1,0,0,6,7,0.000785,6,-12,1,0,0,0,145,145,56,1,0,,,,,,,,,,,,,,,,,,,,,
,,,,,,,,,,,,,,,,,,,,,,,,,,,,,,,,,,,,,,,,,,5f8d7850f3a3ef065112ffb5,606c0e82a275dcb11b55fb1c,2021-04-06_09h32.42.730,Colour_Similarity_Experiment,2020.2.10,Win32,60,6067542a4a25243f4d7d4fcf,16.78178822,16.66385714,16.68937591,16.67455594,16.665251,16.67455594,,,,,,,,,,,,,,,,,,,,PF,strong,3,,,,,,,,7,2.746805,,,,,,,,,,,,,,,,,,,,,,,,,,,,8,strong,48,80,1,0,0,response1disk,7,147,-16,-9,1,0,0,rectangle,-16,-9,1,0,0,6,1,0.000555,-16,-9,1,0,0,0,146,146,86,1,0,,,,,,,,,,,,,,,,,,,,,
,,,,,,,,,,,,,,,,,,,,,,,,,,,,,,,,,,,,,,,,,,5f8d7850f3a3ef065112ffb5,606c0e82a275dcb11b55fb1c,2021-04-06_09h32.42.730,Colour_Similarity_Experiment,2020.2.10,Win32,60,6067542a4a25243f4d7d4fcf,16.78178822,16.66385714,16.68937591,16.67455594,16.665251,16.67455594,,,,,,,,,,,,,,,,,,,,PF,weak,3,,,,,,,,7,1.05067,,,,,,,,,,,,,,,,,,,,,,,,,,,,5,weak,34,120,1,0,0,response1disk,9,148,-11,7,1,0,0,rectangle,-118,48,1,0,0,1,1,1.9832,11,7,1,0,0,0,147,147,136,1,1,response7disk_3,rectangle,,,,,,,,,,,,,,,,,,,
,,,,,,,,,,,,,,,,,,,,,,,,,,,,,,,,,,,,,,,,,,5f8d7850f3a3ef065112ffb5,606c0e82a275dcb11b55fb1c,2021-04-06_09h32.42.730,Colour_Similarity_Experiment,2020.2.10,Win32,60,6067542a4a25243f4d7d4fcf,16.78178822,16.66385714,16.68937591,16.67455594,16.665251,16.67455594,,,,,,,,,,,,,,,,,,,,PF,weak,3,,,,,,,,7,1.182515,,,,,,,,,,,,,,,,,,,,,,,,,,,,7,weak,60,99,1,0,0,response1disk,9,149,4,6,1,0,0,rectangle,4,6,1,0,0,1,1,0.00042,4,6,1,0,0,0,148,148,10,1,0,,,,,,,,,,,,,,,,,,,,,
,,,,,,,,,,,,,,,,,,,,,,,,,,,,,,,,,,,,,,,,,,5f8d7850f3a3ef065112ffb5,606c0e82a275dcb11b55fb1c,2021-04-06_09h32.42.730,Colour_Similarity_Experiment,2020.2.10,Win32,60,6067542a4a25243f4d7d4fcf,16.78178822,16.66385714,16.68937591,16.67455594,16.665251,16.67455594,,,,,,,,,,,,,,,,,,,,PF,weak,3,,,,,,,,7,3.03291,,,,,,,,,,,,,,,,,,,,,,,,,,,,2,weak,45,88,1,0,0,response1disk,5,150,5,5,1,0,0,rectangle,5,5,1,0,0,1,2,0.000795,5,5,1,0,0,0,149,149,147,1,0,,,,,,,,,,,,,,,,,,,,,
,,,,,,,,,,,,,,,,,,,,,,,,,,,,,,,,,,,,,,,,,,5f8d7850f3a3ef065112ffb5,606c0e82a275dcb11b55fb1c,2021-04-06_09h32.42.730,Colour_Similarity_Experiment,2020.2.10,Win32,60,6067542a4a25243f4d7d4fcf,16.78178822,16.66385714,16.68937591,16.67455594,16.665251,16.67455594,,,,,,,,,,,,,,,,,,,,PF,strong,3,,,,,,,,2,5.099865,,,,,,,,,,,,,,,,,,,,,,,,,,,,3,strong,-98,-77,1,0,0,response5disk,2,151,-4,11,1,0,0,rectangle,-4,11,1,0,0,1,6,0.00087,-4,11,1,0,0,0,150,150,93,1,0,,,,,,,,,,,,,,,,,,,,,
,,,,,,,,,,,,,,,,,,,,,,,,,,,,,,,,,,,,,,,,,,5f8d7850f3a3ef065112ffb5,606c0e82a275dcb11b55fb1c,2021-04-06_09h32.42.730,Colour_Similarity_Experiment,2020.2.10,Win32,60,6067542a4a25243f4d7d4fcf,16.78178822,16.66385714,16.68937591,16.67455594,16.665251,16.67455594,,,,,,,,,,,,,,,,,,,,PF,weak,3,,,,,,,,6,2.31669,,,,,,,,,,,,,,,,,,,,,,,,,,,,1,weak,84,29,1,0,0,response1disk,8,152,-4,-2,1,0,0,rectangle,-4,-2,1,0,0,1,3,0.00076,-4,-2,1,0,0,0,151,151,65,1,0,,,,,,,,,,,,,,,,,,,,,
,,,,,,,,,,,,,,,,,,,,,,,,,,,,,,,,,,,,,,,,,,5f8d7850f3a3ef065112ffb5,606c0e82a275dcb11b55fb1c,2021-04-06_09h32.42.730,Colour_Similarity_Experiment,2020.2.10,Win32,60,6067542a4a25243f4d7d4fcf,16.78178822,16.66385714,16.68937591,16.67455594,16.665251,16.67455594,,,,,,,,,,,,,,,,,,,,PF,strong,3,,,,,,,,7,1.33301,,,,,,,,,,,,,,,,,,,,,,,,,,,,3,strong,47,105,1,0,0,response1disk,7,153,10,-2,1,0,0,rectangle,10,-2,1,0,0,1,5,0.00086,10,-2,1,0,0,0,152,152,118,1,0,,,,,,,,,,,,,,,,,,,,,
,,,,,,,,,,,,,,,,,,,,,,,,,,,,,,,,,,,,,,,,,,5f8d7850f3a3ef065112ffb5,606c0e82a275dcb11b55fb1c,2021-04-06_09h32.42.730,Colour_Similarity_Experiment,2020.2.10,Win32,60,6067542a4a25243f4d7d4fcf,16.78178822,16.66385714,16.68937591,16.67455594,16.665251,16.67455594,,,,,,,,,,,,,,,,,,,,PF,strong,3,,,,,,,,5,2.682545,,,,,,,,,,,,,,,,,,,,,,,,,,,,6,strong,90,-44,1,0,0,response3disk,7,154,-7,6,1,0,0,rectangle,-7,6,1,0,0,1,3,0.000995,-7,6,1,0,0,0,153,153,18,1,0,,,,,,,,,,,,,,,,,,,,,
,,,,,,,,,,,,,,,,,,,,,,,,,,,,,,,,,,,,,,,,,,5f8d7850f3a3ef065112ffb5,606c0e82a275dcb11b55fb1c,2021-04-06_09h32.42.730,Colour_Similarity_Experiment,2020.2.10,Win32,60,6067542a4a25243f4d7d4fcf,16.78178822,16.66385714,16.68937591,16.67455594,16.665251,16.67455594,,,,,,,,,,,,,,,,,,,,PF,weak,3,,,,,,,,7,0.983435,,,,,,,,,,,,,,,,,,,,,,,,,,,,4,weak,30,102,1,0,0,response1disk,8,155,3,8,1,0,0,rectangle,3,8,1,0,0,1,1,0.00172,3,8,1,0,0,0,154,154,124,1,0,,,,,,,,,,,,,,,,,,,,,
,,,,,,,,,,,,,,,,,,,,,,,,,,,,,,,,,,,,,,,,,,5f8d7850f3a3ef065112ffb5,606c0e82a275dcb11b55fb1c,2021-04-06_09h32.42.730,Colour_Similarity_Experiment,2020.2.10,Win32,60,6067542a4a25243f4d7d4fcf,16.78178822,16.66385714,16.68937591,16.67455594,16.665251,16.67455594,,,,,,,,,,,,,,,,,,,,PF,weak,3,,,,,,,,5,3.866615,,,,,,,,,,,,,,,,,,,,,,,,,,,,4,weak,75,-48,1,0,0,response3disk,6,156,6,1,1,0,0,rectangle,6,1,1,0,0,1,0,0.00088,6,1,1,0,0,0,155,155,120,1,0,,,,,,,,,,,,,,,,,,,,,
,,,,,,,,,,,,,,,,,,,,,,,,,,,,,,,,,,,,,,,,,,5f8d7850f3a3ef065112ffb5,606c0e82a275dcb11b55fb1c,2021-04-06_09h32.42.730,Colour_Similarity_Experiment,2020.2.10,Win32,60,6067542a4a25243f4d7d4fcf,16.78178822,16.66385714,16.68937591,16.67455594,16.665251,16.67455594,,,,,,,,,,,,,,,,,,,,PF,strong,3,,,,,,,,7,1.69924,,,,,,,,,,,,,,,,,,,,,,,,,,,,7,strong,56,89,1,0,0,response1disk,9,157,-24,-16,1,0,0,rectangle,-24,-16,1,0,0,1,0,0.000175,-24,-16,1,0,0,0,156,156,155,1,0,,,,,,,,,,,,,,,,,,,,,
,,,,,,,,,,,,,,,,,,,,,,,,,,,,,,,,,,,,,,,,,,5f8d7850f3a3ef065112ffb5,606c0e82a275dcb11b55fb1c,2021-04-06_09h32.42.730,Colour_Similarity_Experiment,2020.2.10,Win32,60,6067542a4a25243f4d7d4fcf,16.78178822,16.66385714,16.68937591,16.67455594,16.665251,16.67455594,,,,,,,,,,,,,,,,,,,,PF,weak,3,,,,,,,,7,1.166875,,,,,,,,,,,,,,,,,,,,,,,,,,,,1,weak,37,86,1,0,0,response1disk,5,158,5,-2,1,0,0,rectangle,5,-2,1,0,0,1,5,0.0008,5,-2,1,0,0,0,157,157,28,1,0,,,,,,,,,,,,,,,,,,,,,
,,,,,,,,,,,,,,,,,,,,,,,,,,,,,,,,,,,,,,,,,,5f8d7850f3a3ef065112ffb5,606c0e82a275dcb11b55fb1c,2021-04-06_09h32.42.730,Colour_Similarity_Experiment,2020.2.10,Win32,60,6067542a4a25243f4d7d4fcf,16.78178822,16.66385714,16.68937591,16.67455594,16.665251,16.67455594,,,,,,,,,,,,,,,,,,,,PF,strong,3,,,,,,,,7,1.23301,,,,,,,,,,,,,,,,,,,,,,,,,,,,1,strong,52,76,1,0,0,response1disk,4,159,-8,0,1,0,0,rectangle,-8,0,1,0,0,1,0,0.00073,-8,0,1,0,0,0,158,158,135,1,0,,,,,,,,,,,,,,,,,,,,,
,,,,,,,,,,,,,,,,,,,,,,,,,,,,,,,,,,,,,,,,,,5f8d7850f3a3ef065112ffb5,606c0e82a275dcb11b55fb1c,2021-04-06_09h32.42.730,Colour_Similarity_Experiment,2020.2.10,Win32,60,6067542a4a25243f4d7d4fcf,16.78178822,16.66385714,16.68937591,16.67455594,16.665251,16.67455594,,,,,,,,,,,,,,,,,,,,PF,strong,3,,,,,,,,3,2.09657,,,,,,,,,,,,,,,,,,,,,,,,,,,,3,strong,-63,-100,1,0,0,response5disk,4,160,0,13,1,0,0,rectangle,0,13,1,0,0,1,4,0.00058,0,13,1,0,0,0,159,159,110,1,0,,,,,,,,,,,,,,,,,,,,,
,,,,,,,,,,,,,,,,,,,,,,,,,,,,,,,,,,,,,,,,,,5f8d7850f3a3ef065112ffb5,606c0e82a275dcb11b55fb1c,2021-04-06_09h32.42.730,Colour_Similarity_Experiment,2020.2.10,Win32,60,6067542a4a25243f4d7d4fcf,16.78178822,16.66385714,16.68937591,16.67455594,16.665251,16.67455594,,,,,,,,,,,,,,,,,,,,PF,weak,3,,,,,,,,7,2.333095,,,,,,,,,,,,,,,,,,,,,,,,,,,,3,weak,47,76,1,0,0,response1disk,1,161,11,12,1,0,0,rectangle,11,12,1,0,0,1,5,0.00165,11,12,1,0,0,0,160,160,96,1,0,,,,,,,,,,,,,,,,,,,,,
,,,,,,,,,,,,,,,,,,,,,,,,,,,,,,,,,,,,,,,,,,5f8d7850f3a3ef065112ffb5,606c0e82a275dcb11b55fb1c,2021-04-06_09h32.42.730,Colour_Similarity_Experiment,2020.2.10,Win32,60,6067542a4a25243f4d7d4fcf,16.78178822,16.66385714,16.68937591,16.67455594,16.665251,16.67455594,,,,,,,,,,,,,,,,,,,,PF,weak,3,,,,,,,,3,1.616905,,,,,,,,,,,,,,,,,,,,,,,,,,,,3,weak,-44,-86,1,0,0,response5disk,4,162,17,4,1,0,0,rectangle,17,4,1,0,0,1,2,0.000745,17,4,1,0,0,0,161,161,30,1,0,,,,,,,,,,,,,,,,,,,,,
,,,,,,,,,,,,,,,,,,,,,,,,,,,,,,,,,,,,,,,,,,5f8d7850f3a3ef065112ffb5,606c0e82a275dcb11b55fb1c,2021-04-06_09h32.42.730,Colour_Similarity_Experiment,2020.2.10,Win32,60,6067542a4a25243f4d7d4fcf,16.78178822,16.66385714,16.68937591,16.67455594,16.665251,16.67455594,,,,,,,,,,,,,,,,,,,,,,,,,,,,,,,,,,,,,,,,,,,,,,,,,,,,,,,,,,,,,,,,,,,,,,,,,,,,,,,,,,,,,,,,,,,,,,,,0,0,0,0,1,,,,,,,,,,,,,,
,,,,,,,,,,,,,,,,,,,,,,,,,,,,,,,,,,,,,,,,,,5f8d7850f3a3ef065112ffb5,606c0e82a275dcb11b55fb1c,2021-04-06_09h32.42.730,Colour_Similarity_Experiment,2020.2.10,Win32,60,6067542a4a25243f4d7d4fcf,16.78178822,16.66385714,16.68937591,16.67455594,16.665251,16.67455594,,,,,,,,,,,,,,,,,,,,PF,strong,3,,,,,,,,3,4.03299,,,,,,,,,,,,,,,,,,,,,,,,,,,,4,strong,-37,-97,1,0,0,response5disk,6,163,5,12,1,0,0,rectangle,5,12,1,0,0,1,5,0.00067,5,12,1,0,0,0,0,0,122,1,0,,,,,,,,,,,,,,,,,,,,,
,,,,,,,,,,,,,,,,,,,,,,,,,,,,,,,,,,,,,,,,,,5f8d7850f3a3ef065112ffb5,606c0e82a275dcb11b55fb1c,2021-04-06_09h32.42.730,Colour_Similarity_Experiment,2020.2.10,Win32,60,6067542a4a25243f4d7d4fcf,16.78178822,16.66385714,16.68937591,16.67455594,16.665251,16.67455594,,,,,,,,,,,,,,,,,,,,PF,weak,3,,,,,,,,6,2.083395,,,,,,,,,,,,,,,,,,,,,,,,,,,,7,weak,109,33,1,0,0,response1disk,6,164,-2,-2,1,0,0,rectangle,-2,-2,1,0,0,1,5,0.00034,-2,-2,1,0,0,0,1,1,29,1,0,,,,,,,,,,,,,,,,,,,,,
,,,,,,,,,,,,,,,,,,,,,,,,,,,,,,,,,,,,,,,,,,5f8d7850f3a3ef065112ffb5,606c0e82a275dcb11b55fb1c,2021-04-06_09h32.42.730,Colour_Similarity_Experiment,2020.2.10,Win32,60,6067542a4a25243f4d7d4fcf,16.78178822,16.66385714,16.68937591,16.67455594,16.665251,16.67455594,,,,,,,,,,,,,,,,,,,,PF,strong,3,,,,,,,,7,1.266675,,,,,,,,,,,,,,,,,,,,,,,,,,,,8,strong,49,96,1,0,0,response1disk,4,165,7,9,1,0,0,rectangle,7,9,1,0,0,1,2,0.00061,7,9,1,0,0,0,2,2,88,1,0,,,,,,,,,,,,,,,,,,,,,
,,,,,,,,,,,,,,,,,,,,,,,,,,,,,,,,,,,,,,,,,,5f8d7850f3a3ef065112ffb5,606c0e82a275dcb11b55fb1c,2021-04-06_09h32.42.730,Colour_Similarity_Experiment,2020.2.10,Win32,60,6067542a4a25243f4d7d4fcf,16.78178822,16.66385714,16.68937591,16.67455594,16.665251,16.67455594,,,,,,,,,,,,,,,,,,,,PF,strong,3,,,,,,,,7,1.23315,,,,,,,,,,,,,,,,,,,,,,,,,,,,9,strong,44,104,1,0,0,response1disk,4,166,5,-1,1,0,0,rectangle,5,-1,1,0,0,1,5,0.000805,5,-1,1,0,0,0,3,3,60,1,0,,,,,,,,,,,,,,,,,,,,,
,,,,,,,,,,,,,,,,,,,,,,,,,,,,,,,,,,,,,,,,,,5f8d7850f3a3ef065112ffb5,606c0e82a275dcb11b55fb1c,2021-04-06_09h32.42.730,Colour_Similarity_Experiment,2020.2.10,Win32,60,6067542a4a25243f4d7d4fcf,16.78178822,16.66385714,16.68937591,16.67455594,16.665251,16.67455594,,,,,,,,,,,,,,,,,,,,PF,strong,3,,,,,,,,6,2.23371,,,,,,,,,,,,,,,,,,,,,,,,,,,,8,strong,95,28,1,0,0,response1disk,1,167,-21,-3,1,0,0,rectangle,-21,-3,1,0,0,1,0,0.00081,-21,-3,1,0,0,0,4,4,20,1,0,,,,,,,,,,,,,,,,,,,,,
,,,,,,,,,,,,,,,,,,,,,,,,,,,,,,,,,,,,,,,,,,5f8d7850f3a3ef065112ffb5,606c0e82a275dcb11b55fb1c,2021-04-06_09h32.42.730,Colour_Similarity_Experiment,2020.2.10,Win32,60,6067542a4a25243f4d7d4fcf,16.78178822,16.66385714,16.68937591,16.67455594,16.665251,16.67455594,,,,,,,,,,,,,,,,,,,,PF,strong,3,,,,,,,,7,1.133485,,,,,,,,,,,,,,,,,,,,,,,,,,,,5,strong,45,89,1,0,0,response1disk,3,168,10,12,1,0,0,rectangle,10,12,1,0,0,1,1,0.0008,10,12,1,0,0,0,5,5,25,1,0,,,,,,,,,,,,,,,,,,,,,
,,,,,,,,,,,,,,,,,,,,,,,,,,,,,,,,,,,,,,,,,,5f8d7850f3a3ef065112ffb5,606c0e82a275dcb11b55fb1c,2021-04-06_09h32.42.730,Colour_Similarity_Experiment,2020.2.10,Win32,60,6067542a4a25243f4d7d4fcf,16.78178822,16.66385714,16.68937591,16.67455594,16.665251,16.67455594,,,,,,,,,,,,,,,,,,,,PF,strong,3,,,,,,,,0,1.08323,,,,,,,,,,,,,,,,,,,,,,,,,,,,9,strong,-38,104,1,0,0,response7disk,8,169,-6,8,1,0,0,rectangle,-6,8,1,0,0,1,6,0.0022,-6,8,1,0,0,0,6,6,6,1,0,,,,,,,,,,,,,,,,,,,,,
,,,,,,,,,,,,,,,,,,,,,,,,,,,,,,,,,,,,,,,,,,5f8d7850f3a3ef065112ffb5,606c0e82a275dcb11b55fb1c,2021-04-06_09h32.42.730,Colour_Similarity_Experiment,2020.2.10,Win32,60,6067542a4a25243f4d7d4fcf,16.78178822,16.66385714,16.68937591,16.67455594,16.665251,16.67455594,,,,,,,,,,,,,,,,,,,,PF,weak,3,,,,,,,,7,1.866735,,,,,,,,,,,,,,,,,,,,,,,,,,,,3,weak,47,96,1,0,0,response1disk,8,170,2,-4,1,0,0,rectangle,2,-4,1,0,0,1,5,0.001385,2,-4,1,0,0,0,7,7,3,1,0,,,,,,,,,,,,,,,,,,,,,
,,,,,,,,,,,,,,,,,,,,,,,,,,,,,,,,,,,,,,,,,,5f8d7850f3a3ef065112ffb5,606c0e82a275dcb11b55fb1c,2021-04-06_09h32.42.730,Colour_Similarity_Experiment,2020.2.10,Win32,60,6067542a4a25243f4d7d4fcf,16.78178822,16.66385714,16.68937591,16.67455594,16.665251,16.67455594,,,,,,,,,,,,,,,,,,,,PF,strong,3,,,,,,,,7,1.26665,,,,,,,,,,,,,,,,,,,,,,,,,,,,1,strong,34,89,1,0,0,response1disk,3,171,-4,1,1,0,0,rectangle,-4,1,1,0,0,1,4,0.00061,-4,1,1,0,0,0,8,8,99,1,0,,,,,,,,,,,,,,,,,,,,,
,,,,,,,,,,,,,,,,,,,,,,,,,,,,,,,,,,,,,,,,,,5f8d7850f3a3ef065112ffb5,606c0e82a275dcb11b55fb1c,2021-04-06_09h32.42.730,Colour_Similarity_Experiment,2020.2.10,Win32,60,6067542a4a25243f4d7d4fcf,16.78178822,16.66385714,16.68937591,16.67455594,16.665251,16.67455594,,,,,,,,,,,,,,,,,,,,PF,weak,3,,,,,,,,6,5.496835,,,,,,,,,,,,,,,,,,,,,,,,,,,,9,weak,74,39,1,0,0,response1disk,1,172,1,7,1,0,0,rectangle,1,7,1,0,0,1,2,0.000675,1,7,1,0,0,0,9,9,74,1,0,,,,,,,,,,,,,,,,,,,,,
,,,,,,,,,,,,,,,,,,,,,,,,,,,,,,,,,,,,,,,,,,5f8d7850f3a3ef065112ffb5,606c0e82a275dcb11b55fb1c,2021-04-06_09h32.42.730,Colour_Similarity_Experiment,2020.2.10,Win32,60,6067542a4a25243f4d7d4fcf,16.78178822,16.66385714,16.68937591,16.67455594,16.665251,16.67455594,,,,,,,,,,,,,,,,,,,,PF,weak,3,,,,,,,,5,1.83104,,,,,,,,,,,,,,,,,,,,,,,,,,,,4,weak,75,-43,1,0,0,response3disk,2,173,-1,0,1,0,0,rectangle,-1,0,1,0,0,1,4,0.00053,-1,0,1,0,0,0,10,10,108,1,0,,,,,,,,,,,,,,,,,,,,,
,,,,,,,,,,,,,,,,,,,,,,,,,,,,,,,,,,,,,,,,,,5f8d7850f3a3ef065112ffb5,606c0e82a275dcb11b55fb1c,2021-04-06_09h32.42.730,Colour_Similarity_Experiment,2020.2.10,Win32,60,6067542a4a25243f4d7d4fcf,16.78178822,16.66385714,16.68937591,16.67455594,16.665251,16.67455594,,,,,,,,,,,,,,,,,,,,PF,strong,3,,,,,,,,7,1.06343,,,,,,,,,,,,,,,,,,,,,,,,,,,,2,strong,36,126,1,0,0,response1disk,8,174,2,1,1,0,0,rectangle,2,1,1,0,0,1,4,0.00011,2,1,1,0,0,0,11,11,62,1,0,,,,,,,,,,,,,,,,,,,,,
,,,,,,,,,,,,,,,,,,,,,,,,,,,,,,,,,,,,,,,,,,5f8d7850f3a3ef065112ffb5,606c0e82a275dcb11b55fb1c,2021-04-06_09h32.42.730,Colour_Similarity_Experiment,2020.2.10,Win32,60,6067542a4a25243f4d7d4fcf,16.78178822,16.66385714,16.68937591,16.67455594,16.665251,16.67455594,,,,,,,,,,,,,,,,,,,,PF,strong,3,,,,,,,,1,1.61343,,,,,,,,,,,,,,,,,,,,,,,,,,,,5,strong,-67,43,1,0,0,response7disk,5,175,-9,0,1,0,0,rectangle,-9,0,1,0,0,1,1,0.000595,-9,0,1,0,0,0,12,12,19,1,0,,,,,,,,,,,,,,,,,,,,,
,,,,,,,,,,,,,,,,,,,,,,,,,,,,,,,,,,,,,,,,,,5f8d7850f3a3ef065112ffb5,606c0e82a275dcb11b55fb1c,2021-04-06_09h32.42.730,Colour_Similarity_Experiment,2020.2.10,Win32,60,6067542a4a25243f4d7d4fcf,16.78178822,16.66385714,16.68937591,16.67455594,16.665251,16.67455594,,,,,,,,,,,,,,,,,,,,PF,weak,3,,,,,,,,5,3.363035,,,,,,,,,,,,,,,,,,,,,,,,,,,,3,weak,77,-49,1,0,0,response3disk,5,176,-1,11,1,0,0,rectangle,-1,11,1,0,0,1,4,0.000635,-1,11,1,0,0,0,13,13,66,1,0,,,,,,,,,,,,,,,,,,,,,
,,,,,,,,,,,,,,,,,,,,,,,,,,,,,,,,,,,,,,,,,,5f8d7850f3a3ef065112ffb5,606c0e82a275dcb11b55fb1c,2021-04-06_09h32.42.730,Colour_Similarity_Experiment,2020.2.10,Win32,60,6067542a4a25243f4d7d4fcf,16.78178822,16.66385714,16.68937591,16.67455594,16.665251,16.67455594,,,,,,,,,,,,,,,,,,,,PF,weak,3,,,,,,,,7,0.933085,,,,,,,,,,,,,,,,,,,,,,,,,,,,1,weak,34,106,1,0,0,response1disk,2,177,2,7,1,0,0,rectangle,2,7,1,0,0,1,3,0.00075,2,7,1,0,0,0,14,14,24,1,0,,,,,,,,,,,,,,,,,,,,,
,,,,,,,,,,,,,,,,,,,,,,,,,,,,,,,,,,,,,,,,,,5f8d7850f3a3ef065112ffb5,606c0e82a275dcb11b55fb1c,2021-04-06_09h32.42.730,Colour_Similarity_Experiment,2020.2.10,Win32,60,6067542a4a25243f4d7d4fcf,16.78178822,16.66385714,16.68937591,16.67455594,16.665251,16.67455594,,,,,,,,,,,,,,,,,,,,PF,weak,3,,,,,,,,7,1.132785,,,,,,,,,,,,,,,,,,,,,,,,,,,,2,weak,39,82,1,0,0,response1disk,9,178,5,7,1,0,0,rectangle,5,7,1,0,0,1,4,0.000585,5,7,1,0,0,0,15,15,39,1,0,,,,,,,,,,,,,,,,,,,,,
,,,,,,,,,,,,,,,,,,,,,,,,,,,,,,,,,,,,,,,,,,5f8d7850f3a3ef065112ffb5,606c0e82a275dcb11b55fb1c,2021-04-06_09h32.42.730,Colour_Similarity_Experiment,2020.2.10,Win32,60,6067542a4a25243f4d7d4fcf,16.78178822,16.66385714,16.68937591,16.67455594,16.665251,16.67455594,,,,,,,,,,,,,,,,,,,,PF,strong,3,,,,,,,,1,1.782735,,,,,,,,,,,,,,,,,,,,,,,,,,,,7,strong,-83,43,1,0,0,response7disk,7,179,-15,4,1,0,0,rectangle,-15,4,1,0,0,1,7,0.00066,-15,4,1,0,0,0,16,16,34,1,0,,,,,,,,,,,,,,,,,,,,,
,,,,,,,,,,,,,,,,,,,,,,,,,,,,,,,,,,,,,,,,,,5f8d7850f3a3ef065112ffb5,606c0e82a275dcb11b55fb1c,2021-04-06_09h32.42.730,Colour_Similarity_Experiment,2020.2.10,Win32,60,6067542a4a25243f4d7d4fcf,16.78178822,16.66385714,16.68937591,16.67455594,16.665251,16.67455594,,,,,,,,,,,,,,,,,,,,PF,weak,3,,,,,,,,7,1.36325,,,,,,,,,,,,,,,,,,,,,,,,,,,,9,weak,24,60,1,0,0,response1disk,3,180,-6,-1,1,0,0,rectangle,-6,-1,1,0,0,1,5,0.00062,-6,-1,1,0,0,0,17,17,119,1,0,,,,,,,,,,,,,,,,,,,,,
,,,,,,,,,,,,,,,,,,,,,,,,,,,,,,,,,,,,,,,,,,5f8d7850f3a3ef065112ffb5,606c0e82a275dcb11b55fb1c,2021-04-06_09h32.42.730,Colour_Similarity_Experiment,2020.2.10,Win32,60,6067542a4a25243f4d7d4fcf,16.78178822,16.66385714,16.68937591,16.67455594,16.665251,16.67455594,,,,,,,,,,,,,,,,,,,,PF,weak,3,,,,,,,,3,1.97983,,,,,,,,,,,,,,,,,,,,,,,,,,,,2,weak,-61,-77,1,0,0,response5disk,4,181,-11,2,1,0,0,rectangle,-11,2,1,0,0,1,6,0.001,-11,2,1,0,0,0,18,18,127,1,0,,,,,,,,,,,,,,,,,,,,,
,,,,,,,,,,,,,,,,,,,,,,,,,,,,,,,,,,,,,,,,,,5f8d7850f3a3ef065112ffb5,606c0e82a275dcb11b55fb1c,2021-04-06_09h32.42.730,Colour_Similarity_Experiment,2020.2.10,Win32,60,6067542a4a25243f4d7d4fcf,16.78178822,16.66385714,16.68937591,16.67455594,16.665251,16.67455594,,,,,,,,,,,,,,,,,,,,PF,weak,3,,,,,,,,6,1.649795,,,,,,,,,,,,,,,,,,,,,,,,,,,,1,weak,93,34,1,0,0,response1disk,9,182,-8,-5,1,0,0,rectangle,-8,-5,1,0,0,1,4,0.000815,-8,-5,1,0,0,0,19,19,15,1,0,,,,,,,,,,,,,,,,,,,,,
,,,,,,,,,,,,,,,,,,,,,,,,,,,,,,,,,,,,,,,,,,5f8d7850f3a3ef065112ffb5,606c0e82a275dcb11b55fb1c,2021-04-06_09h32.42.730,Colour_Similarity_Experiment,2020.2.10,Win32,60,6067542a4a25243f4d7d4fcf,16.78178822,16.66385714,16.68937591,16.67455594,16.665251,16.67455594,,,,,,,,,,,,,,,,,,,,PF,weak,3,,,,,,,,7,1.316575,,,,,,,,,,,,,,,,,,,,,,,,,,,,9,weak,49,84,1,0,0,response1disk,4,183,5,1,1,0,0,rectangle,5,1,1,0,0,1,3,0.000835,5,1,1,0,0,0,20,20,114,1,0,,,,,,,,,,,,,,,,,,,,,
,,,,,,,,,,,,,,,,,,,,,,,,,,,,,,,,,,,,,,,,,,5f8d7850f3a3ef065112ffb5,606c0e82a275dcb11b55fb1c,2021-04-06_09h32.42.730,Colour_Similarity_Experiment,2020.2.10,Win32,60,6067542a4a25243f4d7d4fcf,16.78178822,16.66385714,16.68937591,16.67455594,16.665251,16.67455594,,,,,,,,,,,,,,,,,,,,PF,weak,3,,,,,,,,0,1.6335,,,,,,,,,,,,,,,,,,,,,,,,,,,,5,weak,-49,76,1,0,0,response7disk,5,184,-14,-11,1,0,0,rectangle,-14,-11,1,0,0,1,3,0.00012,-14,-11,1,0,0,0,21,21,94,1,0,,,,,,,,,,,,,,,,,,,,,
,,,,,,,,,,,,,,,,,,,,,,,,,,,,,,,,,,,,,,,,,,5f8d7850f3a3ef065112ffb5,606c0e82a275dcb11b55fb1c,2021-04-06_09h32.42.730,Colour_Similarity_Experiment,2020.2.10,Win32,60,6067542a4a25243f4d7d4fcf,16.78178822,16.66385714,16.68937591,16.67455594,16.665251,16.67455594,,,,,,,,,,,,,,,,,,,,PF,strong,3,,,,,,,,1,1.700845,,,,,,,,,,,,,,,,,,,,,,,,,,,,2,strong,-82,47,1,0,0,response7disk,3,185,2,-4,1,0,0,rectangle,-121,51,1,0,0,1,1,1.667975,-9,-5,1,0,0,0,22,22,104,1,1,response7disk_3,rectangle,,,,,,,,,,,,,,,,,,,
,,,,,,,,,,,,,,,,,,,,,,,,,,,,,,,,,,,,,,,,,,5f8d7850f3a3ef065112ffb5,606c0e82a275dcb11b55fb1c,2021-04-06_09h32.42.730,Colour_Similarity_Experiment,2020.2.10,Win32,60,6067542a4a25243f4d7d4fcf,16.78178822,16.66385714,16.68937591,16.67455594,16.665251,16.67455594,,,,,,,,,,,,,,,,,,,,PF,strong,3,,,,,,,,7,1.232805,,,,,,,,,,,,,,,,,,,,,,,,,,,,1,strong,42,94,1,0,0,response1disk,6,186,16,4,1,0,0,rectangle,16,4,1,0,0,1,0,0.00063,16,4,1,0,0,0,23,23,58,1,0,,,,,,,,,,,,,,,,,,,,,
,,,,,,,,,,,,,,,,,,,,,,,,,,,,,,,,,,,,,,,,,,5f8d7850f3a3ef065112ffb5,606c0e82a275dcb11b55fb1c,2021-04-06_09h32.42.730,Colour_Similarity_Experiment,2020.2.10,Win32,60,6067542a4a25243f4d7d4fcf,16.78178822,16.66385714,16.68937591,16.67455594,16.665251,16.67455594,,,,,,,,,,,,,,,,,,,,PF,strong,3,,,,,,,,7,1.230305,,,,,,,,,,,,,,,,,,,,,,,,,,,,6,strong,36,92,1,0,0,response1disk,8,187,14,3,1,0,0,rectangle,14,3,1,0,0,1,0,6E-05,14,3,1,0,0,0,24,24,133,1,0,,,,,,,,,,,,,,,,,,,,,
,,,,,,,,,,,,,,,,,,,,,,,,,,,,,,,,,,,,,,,,,,5f8d7850f3a3ef065112ffb5,606c0e82a275dcb11b55fb1c,2021-04-06_09h32.42.730,Colour_Similarity_Experiment,2020.2.10,Win32,60,6067542a4a25243f4d7d4fcf,16.78178822,16.66385714,16.68937591,16.67455594,16.665251,16.67455594,,,,,,,,,,,,,,,,,,,,PF,strong,3,,,,,,,,7,1.282785,,,,,,,,,,,,,,,,,,,,,,,,,,,,9,strong,30,93,1,0,0,response1disk,3,188,7,-3,1,0,0,rectangle,7,-3,1,0,0,1,6,0.00077,7,-3,1,0,0,0,25,25,141,1,0,,,,,,,,,,,,,,,,,,,,,
,,,,,,,,,,,,,,,,,,,,,,,,,,,,,,,,,,,,,,,,,,5f8d7850f3a3ef065112ffb5,606c0e82a275dcb11b55fb1c,2021-04-06_09h32.42.730,Colour_Similarity_Experiment,2020.2.10,Win32,60,6067542a4a25243f4d7d4fcf,16.78178822,16.66385714,16.68937591,16.67455594,16.665251,16.67455594,,,,,,,,,,,,,,,,,,,,PF,weak,3,,,,,,,,7,3.696825,,,,,,,,,,,,,,,,,,,,,,,,,,,,9,weak,34,76,1,0,0,response1disk,2,189,13,-2,1,0,0,rectangle,13,-2,1,0,0,1,6,8.5E-05,13,-2,1,0,0,0,26,26,157,1,0,,,,,,,,,,,,,,,,,,,,,
,,,,,,,,,,,,,,,,,,,,,,,,,,,,,,,,,,,,,,,,,,5f8d7850f3a3ef065112ffb5,606c0e82a275dcb11b55fb1c,2021-04-06_09h32.42.730,Colour_Similarity_Experiment,2020.2.10,Win32,60,6067542a4a25243f4d7d4fcf,16.78178822,16.66385714,16.68937591,16.67455594,16.665251,16.67455594,,,,,,,,,,,,,,,,,,,,PF,weak,3,,,,,,,,7,1.013545,,,,,,,,,,,,,,,,,,,,,,,,,,,,3,weak,35,98,1,0,0,response1disk,7,190,1,0,1,0,0,rectangle,1,0,1,0,0,1,3,0.00053,1,0,1,0,0,0,27,27,41,1,0,,,,,,,,,,,,,,,,,,,,,
,,,,,,,,,,,,,,,,,,,,,,,,,,,,,,,,,,,,,,,,,,5f8d7850f3a3ef065112ffb5,606c0e82a275dcb11b55fb1c,2021-04-06_09h32.42.730,Colour_Similarity_Experiment,2020.2.10,Win32,60,6067542a4a25243f4d7d4fcf,16.78178822,16.66385714,16.68937591,16.67455594,16.665251,16.67455594,,,,,,,,,,,,,,,,,,,,PF,strong,3,,,,,,,,6,1.71326,,,,,,,,,,,,,,,,,,,,,,,,,,,,8,strong,99,50,1,0,0,response1disk,6,191,6,13,1,0,0,rectangle,6,13,1,0,0,1,2,0.00062,6,13,1,0,0,0,28,28,37,1,0,,,,,,,,,,,,,,,,,,,,,
,,,,,,,,,,,,,,,,,,,,,,,,,,,,,,,,,,,,,,,,,,5f8d7850f3a3ef065112ffb5,606c0e82a275dcb11b55fb1c,2021-04-06_09h32.42.730,Colour_Similarity_Experiment,2020.2.10,Win32,60,6067542a4a25243f4d7d4fcf,16.78178822,16.66385714,16.68937591,16.67455594,16.665251,16.67455594,,,,,,,,,,,,,,,,,,,,PF,weak,3,,,,,,,,7,1.03299,,,,,,,,,,,,,,,,,,,,,,,,,,,,8,weak,36,94,1,0,0,response1disk,3,192,0,4,1,0,0,rectangle,0,4,1,0,0,1,0,0.00177,0,4,1,0,0,0,29,29,71,1,0,,,,,,,,,,,,,,,,,,,,,
,,,,,,,,,,,,,,,,,,,,,,,,,,,,,,,,,,,,,,,,,,5f8d7850f3a3ef065112ffb5,606c0e82a275dcb11b55fb1c,2021-04-06_09h32.42.730,Colour_Similarity_Experiment,2020.2.10,Win32,60,6067542a4a25243f4d7d4fcf,16.78178822,16.66385714,16.68937591,16.67455594,16.665251,16.67455594,,,,,,,,,,,,,,,,,,,,PF,strong,3,,,,,,,,3,2.98308,,,,,,,,,,,,,,,,,,,,,,,,,,,,4,strong,-55,-85,1,0,0,response5disk,3,193,-1,3,1,0,0,rectangle,-1,3,1,0,0,1,7,0.00063,-1,3,1,0,0,0,30,30,77,1,0,,,,,,,,,,,,,,,,,,,,,
,,,,,,,,,,,,,,,,,,,,,,,,,,,,,,,,,,,,,,,,,,5f8d7850f3a3ef065112ffb5,606c0e82a275dcb11b55fb1c,2021-04-06_09h32.42.730,Colour_Similarity_Experiment,2020.2.10,Win32,60,6067542a4a25243f4d7d4fcf,16.78178822,16.66385714,16.68937591,16.67455594,16.665251,16.67455594,,,,,,,,,,,,,,,,,,,,PF,strong,3,,,,,,,,7,1.19981,,,,,,,,,,,,,,,,,,,,,,,,,,,,5,strong,39,81,1,0,0,response1disk,8,194,1,-16,1,0,0,rectangle,1,-16,1,0,0,1,6,0.00082,1,-16,1,0,0,0,31,31,16,1,0,,,,,,,,,,,,,,,,,,,,,
,,,,,,,,,,,,,,,,,,,,,,,,,,,,,,,,,,,,,,,,,,5f8d7850f3a3ef065112ffb5,606c0e82a275dcb11b55fb1c,2021-04-06_09h32.42.730,Colour_Similarity_Experiment,2020.2.10,Win32,60,6067542a4a25243f4d7d4fcf,16.78178822,16.66385714,16.68937591,16.67455594,16.665251,16.67455594,,,,,,,,,,,,,,,,,,,,PF,strong,3,,,,,,,,7,1.03331,,,,,,,,,,,,,,,,,,,,,,,,,,,,1,strong,33,86,1,0,0,response1disk,2,195,2,20,1,0,0,rectangle,2,20,1,0,0,1,2,0.000625,2,20,1,0,0,0,32,32,2,1,0,,,,,,,,,,,,,,,,,,,,,
