key_resp.keys,key_resp.rt,key_resp_16.keys,key_resp_16.rt,key_resp_2.keys,key_resp_2.rt,X Scale,ratio_pxpermm,screen_size_x,screen_size_y,testsize,key_resp_3.keys,key_resp_4.keys,key_resp_4.rt,line_size,key_resp_5.keys,key_resp_5.rt,key_resp_6.keys,key_resp_6.rt,key_resp_8.keys,key_resp_8.rt,key_resp_7.keys,key_resp_7.rt,key_resp_12.keys,key_resp_12.rt,key_resp_11.keys,key_resp_11.rt,key_resp_18.keys,key_resp_18.rt,key_resp_21.keys,key_resp_21.rt,key_resp_13.keys,key_resp_13.rt,key_resp_19.keys,key_resp_19.rt,ballposx,viewer_distance,trials.thisRepN,trials.thisTrialN,trials.thisN,trials.thisIndex,trials.ran,participant,session,date,expName,psychopyVersion,OS,frameRate,study_id,realFrameRate1,realFrameRate2,realFrameRate3,realFrameRate4,realFrameRate5,realFrameRate,viewerdistancecm,DVA_to_distance,radius_F,radius_P,r_F,R_P,key_resp_20.keys,key_resp_20.rt,key_resp_14.keys,key_resp_14.rt,key_resp_15.keys,key_resp_15.rt,key_resp_17.keys,key_resp_17.rt,key_resp_9.keys,key_resp_9.rt,key_resp_10.keys,key_resp_10.rt,Colour_1,Ecc,maskCon,mask_frames,mouse_5.x,mouse_5.y,mouse_5.leftButton,mouse_5.midButton,mouse_5.rightButton,mouse_5.clicked_name,Colour_2,similarity,response_time,mouse_10.x,mouse_10.y,mouse_10.leftButton,mouse_10.midButton,mouse_10.rightButton,mouse_10.clicked_name,mouse_7.x,mouse_7.y,mouse_7.leftButton,mouse_7.midButton,mouse_7.rightButton,catchnumberprac,mouse_6.x,mouse_6.y,mouse_6.leftButton,mouse_6.midButton,mouse_6.rightButton,duringprac.thisRepN,duringprac.thisTrialN,duringprac.thisN,duringprac.thisIndex,duringprac.ran,mouse_7.clicked_name,catchprac,mouse_6.clicked_name,key_resp_22.keys,key_resp_22.rt,Colour1,maskCon1,mouse.x,mouse.y,mouse.leftButton,mouse.midButton,mouse.rightButton,mouse.clicked_name,Colour2,trialnumber,mouse_2.x,mouse_2.y,mouse_2.leftButton,mouse_2.midButton,mouse_2.rightButton,mouse_2.clicked_name,mouse_3.x,mouse_3.y,mouse_3.leftButton,mouse_3.midButton,mouse_3.rightButton,catchresponse,catchnumber,response_time_catch,mouse_11.x,mouse_11.y,mouse_11.leftButton,mouse_11.midButton,mouse_11.rightButton,trials_2.thisRepN,trials_2.thisTrialN,trials_2.thisN,trials_2.thisIndex,trials_2.ran,Catch,mouse_3.clicked_name,mouse_11.clicked_name,trials_3.thisRepN,trials_3.thisTrialN,trials_3.thisN,trials_3.thisIndex,trials_3.ran,answer1,rt1,answer2,rt2,answer3,rt3,answer4,rt4,answer5,rt5,answer6,rt6,answer7,rt7
space,1.555,space,5.571,space,3.665,32.3,3.23,475.5417957,267.4922601,1536,,space,9.812,64.6,space,11.729,space,2.626,space,0.619,space,1.776,space,4.602,space,5.406,space,5.654,space,6.816,space,11.381,return,3.406,103.68,658.6076434,0,0,0,0,1,5f9c9aebcee6f616c84e40d7,606c0d360f1813c85a8caba0,2021-04-06_02h28.12.743,Colour_Similarity_Experiment,2020.2.10,Win32,60,6067542a4a25243f4d7d4fcf,21.70909091,16.8742515,16.77286136,16.75298126,16.7454324,16.77286136,,,,,,,,,,,,,,,,,,,,,,,,,,,,,,,,,,,,,,,,,,,,,,,,,,,,,,,,,,,,,,,,,,,,,,,,,,,,,,,,,,,,,,,,,,,,,,,,,,,,,,,,,,,,,,,,,,
,,,,,,,,,,,,,,,,,,,,,,,,,,,,,,,,,return,3.392,105.984,655.6364811,1,0,1,0,1,5f9c9aebcee6f616c84e40d7,606c0d360f1813c85a8caba0,2021-04-06_02h28.12.743,Colour_Similarity_Experiment,2020.2.10,Win32,60,6067542a4a25243f4d7d4fcf,21.70909091,16.8742515,16.77286136,16.75298126,16.7454324,16.77286136,,,,,,,,,,,,,,,,,,,,,,,,,,,,,,,,,,,,,,,,,,,,,,,,,,,,,,,,,,,,,,,,,,,,,,,,,,,,,,,,,,,,,,,,,,,,,,,,,,,,,,,,,,,,,,,,,,
,,,,,,,,,,,,,,,,,,,,,,,,,,,,,,,,,return,3.317,117.504,640.7806696,2,0,2,0,1,5f9c9aebcee6f616c84e40d7,606c0d360f1813c85a8caba0,2021-04-06_02h28.12.743,Colour_Similarity_Experiment,2020.2.10,Win32,60,6067542a4a25243f4d7d4fcf,21.70909091,16.8742515,16.77286136,16.75298126,16.7454324,16.77286136,,,,,,,,,,,,,,,,,,,,,,,,,,,,,,,,,,,,,,,,,,,,,,,,,,,,,,,,,,,,,,,,,,,,,,,,,,,,,,,,,,,,,,,,,,,,,,,,,,,,,,,,,,,,,,,,,,
,,,,,,,,,,,,,,,,,,,,,,,,,,,,,,,,,return,3.008,158.976,587.2997482,3,0,3,0,1,5f9c9aebcee6f616c84e40d7,606c0d360f1813c85a8caba0,2021-04-06_02h28.12.743,Colour_Similarity_Experiment,2020.2.10,Win32,60,6067542a4a25243f4d7d4fcf,21.70909091,16.8742515,16.77286136,16.75298126,16.7454324,16.77286136,,,,,,,,,,,,,,,,,,,,,,,,,,,,,,,,,,,,,,,,,,,,,,,,,,,,,,,,,,,,,,,,,,,,,,,,,,,,,,,,,,,,,,,,,,,,,,,,,,,,,,,,,,,,,,,,,,
,,,,,,,,,,,,,,,,,,,,,,,,,,,,,,,,,return,3.335,115.2,643.7518319,4,0,4,0,1,5f9c9aebcee6f616c84e40d7,606c0d360f1813c85a8caba0,2021-04-06_02h28.12.743,Colour_Similarity_Experiment,2020.2.10,Win32,60,6067542a4a25243f4d7d4fcf,21.70909091,16.8742515,16.77286136,16.75298126,16.7454324,16.77286136,,,,,,,,,,,,,,,,,,,,,,,,,,,,,,,,,,,,,,,,,,,,,,,,,,,,,,,,,,,,,,,,,,,,,,,,,,,,,,,,,,,,,,,,,,,,,,,,,,,,,,,,,,,,,,,,,,
,,,,,,,,,,,,,,,,,,,,,,,,,,,,,,,,,,,,,,,,,,5f9c9aebcee6f616c84e40d7,606c0d360f1813c85a8caba0,2021-04-06_02h28.12.743,Colour_Similarity_Experiment,2020.2.10,Win32,60,6067542a4a25243f4d7d4fcf,21.70909091,16.8742515,16.77286136,16.75298126,16.7454324,16.77286136,64,11.17123756,54.12464597,360.8309731,36.08309731,162.3739379,space,2.971,space,5.693,space,17.01,space,3.39,space,3.245,space,3.158,7,PF,weak,3,-46,67,1,0,0,response7disk_5,2,0,7.46,7,-6,1,0,0,rectangle_8,7,-6,1,0,0,1,7,-6,1,0,0,0,0,0,1,1,,,,,,,,,,,,,,,,,,,,,,,,,,,,,,,,,,,,,,,,,,,,,,,,,,,,,,,,,,,,,
,,,,,,,,,,,,,,,,,,,,,,,,,,,,,,,,,,,,,,,,,,5f9c9aebcee6f616c84e40d7,606c0d360f1813c85a8caba0,2021-04-06_02h28.12.743,Colour_Similarity_Experiment,2020.2.10,Win32,60,6067542a4a25243f4d7d4fcf,21.70909091,16.8742515,16.77286136,16.75298126,16.7454324,16.77286136,,,,,,,,,,,,,,,,,,,7,PF,strong,3,106,-31,1,0,0,response3disk_5,2,5,6.825,0,-1,1,0,0,rectangle_8,-70,42,1,0,0,1,8,9,1,0,0,0,1,1,2,1,response7disk_7,1,rectangle_4,,,,,,,,,,,,,,,,,,,,,,,,,,,,,,,,,,,,,,,,,,,,,,,,,,,,,,,,,,
,,,,,,,,,,,,,,,,,,,,,,,,,,,,,,,,,,,,,,,,,,5f9c9aebcee6f616c84e40d7,606c0d360f1813c85a8caba0,2021-04-06_02h28.12.743,Colour_Similarity_Experiment,2020.2.10,Win32,60,6067542a4a25243f4d7d4fcf,21.70909091,16.8742515,16.77286136,16.75298126,16.7454324,16.77286136,,,,,,,,,,,,,,,,,,,5,PF,strong,3,-52,70,1,0,0,response7disk_5,5,0,1.94,-2,-2,1,0,0,rectangle_8,-2,-2,1,0,0,1,-2,-2,1,0,0,0,2,2,0,1,,,,,,,,,,,,,,,,,,,,,,,,,,,,,,,,,,,,,,,,,,,,,,,,,,,,,,,,,,,,,
,,,,,,,,,,,,,,,,,,,,,,,,,,,,,,,,,,,,,,,,,,5f9c9aebcee6f616c84e40d7,606c0d360f1813c85a8caba0,2021-04-06_02h28.12.743,Colour_Similarity_Experiment,2020.2.10,Win32,60,6067542a4a25243f4d7d4fcf,21.70909091,16.8742515,16.77286136,16.75298126,16.7454324,16.77286136,,,,,,,,,,,,,,,,,,,3,PF,weak,3,64,24,1,0,0,response1disk_5,8,6,1.772,-8,1,1,0,0,rectangle_8,-8,1,1,0,0,1,-8,1,1,0,0,0,3,3,4,1,,,,,,,,,,,,,,,,,,,,,,,,,,,,,,,,,,,,,,,,,,,,,,,,,,,,,,,,,,,,,
,,,,,,,,,,,,,,,,,,,,,,,,,,,,,,,,,,,,,,,,,,5f9c9aebcee6f616c84e40d7,606c0d360f1813c85a8caba0,2021-04-06_02h28.12.743,Colour_Similarity_Experiment,2020.2.10,Win32,60,6067542a4a25243f4d7d4fcf,21.70909091,16.8742515,16.77286136,16.75298126,16.7454324,16.77286136,,,,,,,,,,,,,,,,,,,8,PF,weak,3,19,-111,1,0,0,response3disk_5,1,4,4.766,-6,3,1,0,0,rectangle_8,-6,3,1,0,0,1,-6,3,1,0,0,0,4,4,5,1,,,,,,,,,,,,,,,,,,,,,,,,,,,,,,,,,,,,,,,,,,,,,,,,,,,,,,,,,,,,,
,,,,,,,,,,,,,,,,,,,,,,,,,,,,,,,,,,,,,,,,,,5f9c9aebcee6f616c84e40d7,606c0d360f1813c85a8caba0,2021-04-06_02h28.12.743,Colour_Similarity_Experiment,2020.2.10,Win32,60,6067542a4a25243f4d7d4fcf,21.70909091,16.8742515,16.77286136,16.75298126,16.7454324,16.77286136,,,,,,,,,,,,,,,,,,,2,PF,strong,3,-50,28,1,0,0,response7disk_5,2,1,1.89,1,-1,1,0,0,rectangle_8,1,-1,1,0,0,1,1,-1,1,0,0,0,5,5,3,1,,,,,,,,,,,,,,,,,,,,,,,,,,,,,,,,,,,,,,,,,,,,,,,,,,,,,,,,,,,,,
,,,,,,,,,,,,,,,,,,,,,,,,,,,,,,,,,,,,,,,,,,5f9c9aebcee6f616c84e40d7,606c0d360f1813c85a8caba0,2021-04-06_02h28.12.743,Colour_Similarity_Experiment,2020.2.10,Win32,60,6067542a4a25243f4d7d4fcf,21.70909091,16.8742515,16.77286136,16.75298126,16.7454324,16.77286136,,,,,,,,,,,,,,,,,,,3,PF,weak,3,56,84,1,0,0,response1disk_5,6,7,4.901,2,2,1,0,0,rectangle_8,2,2,1,0,0,1,2,2,1,0,0,0,6,6,6,1,,,,,,,,,,,,,,,,,,,,,,,,,,,,,,,,,,,,,,,,,,,,,,,,,,,,,,,,,,,,,
,,,,,,,,,,,,,,,,,,,,,,,,,,,,,,,,,,,,,,,,,,5f9c9aebcee6f616c84e40d7,606c0d360f1813c85a8caba0,2021-04-06_02h28.12.743,Colour_Similarity_Experiment,2020.2.10,Win32,60,6067542a4a25243f4d7d4fcf,21.70909091,16.8742515,16.77286136,16.75298126,16.7454324,16.77286136,,,,,,,,,,,,,,,,,,,,PF,weak,3,,,,,,,,6,1.37,,,,,,,,,,,,,,,,,,,,,,,,,,space,4.67,1,weak,65,51,1,0,0,response1disk,7,1,-5,0,1,0,0,rectangle,-5,0,1,0,0,,1,0.004,-5,0,1,0,0,0,0,0,150,1,0,,,,,,,,,,,,,,,,,,,,,
,,,,,,,,,,,,,,,,,,,,,,,,,,,,,,,,,,,,,,,,,,5f9c9aebcee6f616c84e40d7,606c0d360f1813c85a8caba0,2021-04-06_02h28.12.743,Colour_Similarity_Experiment,2020.2.10,Win32,60,6067542a4a25243f4d7d4fcf,21.70909091,16.8742515,16.77286136,16.75298126,16.7454324,16.77286136,,,,,,,,,,,,,,,,,,,,PF,strong,3,,,,,,,,3,1.991,,,,,,,,,,,,,,,,,,,,,,,,,,,,4,strong,-34,-62,1,0,0,response5disk,3,2,6,-6,1,0,0,rectangle,6,-6,1,0,0,,7,0.002,6,-6,1,0,0,0,1,1,77,1,0,,,,,,,,,,,,,,,,,,,,,
,,,,,,,,,,,,,,,,,,,,,,,,,,,,,,,,,,,,,,,,,,5f9c9aebcee6f616c84e40d7,606c0d360f1813c85a8caba0,2021-04-06_02h28.12.743,Colour_Similarity_Experiment,2020.2.10,Win32,60,6067542a4a25243f4d7d4fcf,21.70909091,16.8742515,16.77286136,16.75298126,16.7454324,16.77286136,,,,,,,,,,,,,,,,,,,,PF,weak,3,,,,,,,,6,2.075,,,,,,,,,,,,,,,,,,,,,,,,,,,,6,weak,82,54,1,0,0,response1disk,9,3,7,3,1,0,0,rectangle,7,3,1,0,0,,5,0.001,7,3,1,0,0,0,2,2,45,1,0,,,,,,,,,,,,,,,,,,,,,
,,,,,,,,,,,,,,,,,,,,,,,,,,,,,,,,,,,,,,,,,,5f9c9aebcee6f616c84e40d7,606c0d360f1813c85a8caba0,2021-04-06_02h28.12.743,Colour_Similarity_Experiment,2020.2.10,Win32,60,6067542a4a25243f4d7d4fcf,21.70909091,16.8742515,16.77286136,16.75298126,16.7454324,16.77286136,,,,,,,,,,,,,,,,,,,,PF,weak,3,,,,,,,,0,1.79,,,,,,,,,,,,,,,,,,,,,,,,,,,,4,weak,-49,66,1,0,0,response7disk,4,4,-6,1,1,0,0,rectangle,-6,1,1,0,0,,5,0.001,-6,1,1,0,0,0,3,3,70,1,0,,,,,,,,,,,,,,,,,,,,,
,,,,,,,,,,,,,,,,,,,,,,,,,,,,,,,,,,,,,,,,,,5f9c9aebcee6f616c84e40d7,606c0d360f1813c85a8caba0,2021-04-06_02h28.12.743,Colour_Similarity_Experiment,2020.2.10,Win32,60,6067542a4a25243f4d7d4fcf,21.70909091,16.8742515,16.77286136,16.75298126,16.7454324,16.77286136,,,,,,,,,,,,,,,,,,,,PF,strong,3,,,,,,,,4,1.822,,,,,,,,,,,,,,,,,,,,,,,,,,,,4,strong,36,-78,1,0,0,response3disk,6,5,0,-3,1,0,0,rectangle,0,-3,1,0,0,,0,0.002,0,-3,1,0,0,0,4,4,122,1,0,,,,,,,,,,,,,,,,,,,,,
,,,,,,,,,,,,,,,,,,,,,,,,,,,,,,,,,,,,,,,,,,5f9c9aebcee6f616c84e40d7,606c0d360f1813c85a8caba0,2021-04-06_02h28.12.743,Colour_Similarity_Experiment,2020.2.10,Win32,60,6067542a4a25243f4d7d4fcf,21.70909091,16.8742515,16.77286136,16.75298126,16.7454324,16.77286136,,,,,,,,,,,,,,,,,,,,PF,strong,3,,,,,,,,3,3.814,,,,,,,,,,,,,,,,,,,,,,,,,,,,6,strong,-33,-54,1,0,0,response5disk,7,6,4,-6,1,0,0,rectangle,4,-6,1,0,0,,1,0.002,4,-6,1,0,0,0,5,5,18,1,0,,,,,,,,,,,,,,,,,,,,,
,,,,,,,,,,,,,,,,,,,,,,,,,,,,,,,,,,,,,,,,,,5f9c9aebcee6f616c84e40d7,606c0d360f1813c85a8caba0,2021-04-06_02h28.12.743,Colour_Similarity_Experiment,2020.2.10,Win32,60,6067542a4a25243f4d7d4fcf,21.70909091,16.8742515,16.77286136,16.75298126,16.7454324,16.77286136,,,,,,,,,,,,,,,,,,,,PF,weak,3,,,,,,,,3,5.737,,,,,,,,,,,,,,,,,,,,,,,,,,,,6,weak,-29,-85,1,0,0,response5disk,7,7,0,0,1,0,0,rectangle,0,0,1,0,0,,4,0.002,0,0,1,0,0,0,6,6,50,1,0,,,,,,,,,,,,,,,,,,,,,
,,,,,,,,,,,,,,,,,,,,,,,,,,,,,,,,,,,,,,,,,,5f9c9aebcee6f616c84e40d7,606c0d360f1813c85a8caba0,2021-04-06_02h28.12.743,Colour_Similarity_Experiment,2020.2.10,Win32,60,6067542a4a25243f4d7d4fcf,21.70909091,16.8742515,16.77286136,16.75298126,16.7454324,16.77286136,,,,,,,,,,,,,,,,,,,,PF,weak,3,,,,,,,,5,1.237,,,,,,,,,,,,,,,,,,,,,,,,,,,,7,weak,86,-34,1,0,0,response3disk,8,8,3,6,1,0,0,rectangle,3,6,1,0,0,,0,0.002,3,6,1,0,0,0,7,7,140,1,0,,,,,,,,,,,,,,,,,,,,,
,,,,,,,,,,,,,,,,,,,,,,,,,,,,,,,,,,,,,,,,,,5f9c9aebcee6f616c84e40d7,606c0d360f1813c85a8caba0,2021-04-06_02h28.12.743,Colour_Similarity_Experiment,2020.2.10,Win32,60,6067542a4a25243f4d7d4fcf,21.70909091,16.8742515,16.77286136,16.75298126,16.7454324,16.77286136,,,,,,,,,,,,,,,,,,,,PF,weak,3,,,,,,,,7,1.289,,,,,,,,,,,,,,,,,,,,,,,,,,,,1,weak,50,60,1,0,0,response1disk,4,9,5,-6,1,0,0,rectangle,5,-6,1,0,0,,3,0.001,5,-6,1,0,0,0,8,8,139,1,0,,,,,,,,,,,,,,,,,,,,,
,,,,,,,,,,,,,,,,,,,,,,,,,,,,,,,,,,,,,,,,,,5f9c9aebcee6f616c84e40d7,606c0d360f1813c85a8caba0,2021-04-06_02h28.12.743,Colour_Similarity_Experiment,2020.2.10,Win32,60,6067542a4a25243f4d7d4fcf,21.70909091,16.8742515,16.77286136,16.75298126,16.7454324,16.77286136,,,,,,,,,,,,,,,,,,,,PF,weak,3,,,,,,,,7,1.672,,,,,,,,,,,,,,,,,,,,,,,,,,,,4,weak,40,62,1,0,0,response1disk,2,10,-1,1,1,0,0,rectangle,-1,1,1,0,0,,4,0.001,-1,1,1,0,0,0,9,9,108,1,0,,,,,,,,,,,,,,,,,,,,,
,,,,,,,,,,,,,,,,,,,,,,,,,,,,,,,,,,,,,,,,,,5f9c9aebcee6f616c84e40d7,606c0d360f1813c85a8caba0,2021-04-06_02h28.12.743,Colour_Similarity_Experiment,2020.2.10,Win32,60,6067542a4a25243f4d7d4fcf,21.70909091,16.8742515,16.77286136,16.75298126,16.7454324,16.77286136,,,,,,,,,,,,,,,,,,,,PF,strong,3,,,,,,,,3,1.84,,,,,,,,,,,,,,,,,,,,,,,,,,,,7,strong,-43,-68,1,0,0,response5disk,5,11,0,-4,1,0,0,rectangle,0,-4,1,0,0,,3,0.001,0,-4,1,0,0,0,10,10,156,1,0,,,,,,,,,,,,,,,,,,,,,
,,,,,,,,,,,,,,,,,,,,,,,,,,,,,,,,,,,,,,,,,,5f9c9aebcee6f616c84e40d7,606c0d360f1813c85a8caba0,2021-04-06_02h28.12.743,Colour_Similarity_Experiment,2020.2.10,Win32,60,6067542a4a25243f4d7d4fcf,21.70909091,16.8742515,16.77286136,16.75298126,16.7454324,16.77286136,,,,,,,,,,,,,,,,,,,,PF,strong,3,,,,,,,,4,1.455,,,,,,,,,,,,,,,,,,,,,,,,,,,,8,strong,33,-72,1,0,0,response3disk,6,12,2,7,1,0,0,rectangle,2,7,1,0,0,,5,0.001,2,7,1,0,0,0,11,11,37,1,0,,,,,,,,,,,,,,,,,,,,,
,,,,,,,,,,,,,,,,,,,,,,,,,,,,,,,,,,,,,,,,,,5f9c9aebcee6f616c84e40d7,606c0d360f1813c85a8caba0,2021-04-06_02h28.12.743,Colour_Similarity_Experiment,2020.2.10,Win32,60,6067542a4a25243f4d7d4fcf,21.70909091,16.8742515,16.77286136,16.75298126,16.7454324,16.77286136,,,,,,,,,,,,,,,,,,,,PF,weak,3,,,,,,,,0,1.238,,,,,,,,,,,,,,,,,,,,,,,,,,,,8,weak,-55,68,1,0,0,response7disk,8,13,-14,3,1,0,0,rectangle,-14,3,1,0,0,,7,0.002,-14,3,1,0,0,0,12,12,153,1,0,,,,,,,,,,,,,,,,,,,,,
,,,,,,,,,,,,,,,,,,,,,,,,,,,,,,,,,,,,,,,,,,5f9c9aebcee6f616c84e40d7,606c0d360f1813c85a8caba0,2021-04-06_02h28.12.743,Colour_Similarity_Experiment,2020.2.10,Win32,60,6067542a4a25243f4d7d4fcf,21.70909091,16.8742515,16.77286136,16.75298126,16.7454324,16.77286136,,,,,,,,,,,,,,,,,,,,PF,strong,3,,,,,,,,7,1.17,,,,,,,,,,,,,,,,,,,,,,,,,,,,7,strong,43,103,1,0,0,response1disk,1,14,4,2,1,0,0,rectangle,4,2,1,0,0,,5,0.002,4,2,1,0,0,0,13,13,132,1,0,,,,,,,,,,,,,,,,,,,,,
,,,,,,,,,,,,,,,,,,,,,,,,,,,,,,,,,,,,,,,,,,5f9c9aebcee6f616c84e40d7,606c0d360f1813c85a8caba0,2021-04-06_02h28.12.743,Colour_Similarity_Experiment,2020.2.10,Win32,60,6067542a4a25243f4d7d4fcf,21.70909091,16.8742515,16.77286136,16.75298126,16.7454324,16.77286136,,,,,,,,,,,,,,,,,,,,PF,strong,3,,,,,,,,2,2.359,,,,,,,,,,,,,,,,,,,,,,,,,,,,1,strong,-55,-40,1,0,0,response5disk,9,15,0,-4,1,0,0,rectangle,0,-4,1,0,0,,0,0.003,0,-4,1,0,0,0,14,14,123,1,0,,,,,,,,,,,,,,,,,,,,,
,,,,,,,,,,,,,,,,,,,,,,,,,,,,,,,,,,,,,,,,,,5f9c9aebcee6f616c84e40d7,606c0d360f1813c85a8caba0,2021-04-06_02h28.12.743,Colour_Similarity_Experiment,2020.2.10,Win32,60,6067542a4a25243f4d7d4fcf,21.70909091,16.8742515,16.77286136,16.75298126,16.7454324,16.77286136,,,,,,,,,,,,,,,,,,,,PF,weak,3,,,,,,,,7,3.261,,,,,,,,,,,,,,,,,,,,,,,,,,,,5,weak,50,54,1,0,0,response1disk,2,16,10,3,1,0,0,rectangle,10,3,1,0,0,,7,0.002,10,3,1,0,0,0,15,15,129,1,0,,,,,,,,,,,,,,,,,,,,,
,,,,,,,,,,,,,,,,,,,,,,,,,,,,,,,,,,,,,,,,,,5f9c9aebcee6f616c84e40d7,606c0d360f1813c85a8caba0,2021-04-06_02h28.12.743,Colour_Similarity_Experiment,2020.2.10,Win32,60,6067542a4a25243f4d7d4fcf,21.70909091,16.8742515,16.77286136,16.75298126,16.7454324,16.77286136,,,,,,,,,,,,,,,,,,,,PF,weak,3,,,,,,,,5,1.907,,,,,,,,,,,,,,,,,,,,,,,,,,,,6,weak,94,-77,1,0,0,response3disk,3,17,2,-10,1,0,0,rectangle,2,-10,1,0,0,,3,0.002,2,-10,1,0,0,0,16,16,26,1,0,,,,,,,,,,,,,,,,,,,,,
,,,,,,,,,,,,,,,,,,,,,,,,,,,,,,,,,,,,,,,,,,5f9c9aebcee6f616c84e40d7,606c0d360f1813c85a8caba0,2021-04-06_02h28.12.743,Colour_Similarity_Experiment,2020.2.10,Win32,60,6067542a4a25243f4d7d4fcf,21.70909091,16.8742515,16.77286136,16.75298126,16.7454324,16.77286136,,,,,,,,,,,,,,,,,,,,PF,weak,3,,,,,,,,6,2.091,,,,,,,,,,,,,,,,,,,,,,,,,,,,6,weak,78,24,1,0,0,response1disk,1,18,10,-2,1,0,0,rectangle,10,-2,1,0,0,,2,0.002,10,-2,1,0,0,0,17,17,46,1,0,,,,,,,,,,,,,,,,,,,,,
,,,,,,,,,,,,,,,,,,,,,,,,,,,,,,,,,,,,,,,,,,5f9c9aebcee6f616c84e40d7,606c0d360f1813c85a8caba0,2021-04-06_02h28.12.743,Colour_Similarity_Experiment,2020.2.10,Win32,60,6067542a4a25243f4d7d4fcf,21.70909091,16.8742515,16.77286136,16.75298126,16.7454324,16.77286136,,,,,,,,,,,,,,,,,,,,PF,strong,3,,,,,,,,6,1.103,,,,,,,,,,,,,,,,,,,,,,,,,,,,2,strong,81,26,1,0,0,response1disk,9,19,-8,-6,1,0,0,rectangle,-8,-6,1,0,0,,1,0.001,-8,-6,1,0,0,0,18,18,72,1,0,,,,,,,,,,,,,,,,,,,,,
,,,,,,,,,,,,,,,,,,,,,,,,,,,,,,,,,,,,,,,,,,5f9c9aebcee6f616c84e40d7,606c0d360f1813c85a8caba0,2021-04-06_02h28.12.743,Colour_Similarity_Experiment,2020.2.10,Win32,60,6067542a4a25243f4d7d4fcf,21.70909091,16.8742515,16.77286136,16.75298126,16.7454324,16.77286136,,,,,,,,,,,,,,,,,,,,PF,weak,3,,,,,,,,6,1.02,,,,,,,,,,,,,,,,,,,,,,,,,,,,9,weak,94,23,1,0,0,response1disk,2,20,5,-1,1,0,0,rectangle,5,-1,1,0,0,,1,0.001,5,-1,1,0,0,0,19,19,157,1,0,,,,,,,,,,,,,,,,,,,,,
,,,,,,,,,,,,,,,,,,,,,,,,,,,,,,,,,,,,,,,,,,5f9c9aebcee6f616c84e40d7,606c0d360f1813c85a8caba0,2021-04-06_02h28.12.743,Colour_Similarity_Experiment,2020.2.10,Win32,60,6067542a4a25243f4d7d4fcf,21.70909091,16.8742515,16.77286136,16.75298126,16.7454324,16.77286136,,,,,,,,,,,,,,,,,,,,PF,strong,3,,,,,,,,6,0.987,,,,,,,,,,,,,,,,,,,,,,,,,,,,4,strong,82,33,1,0,0,response1disk,2,21,7,-1,1,0,0,rectangle,7,-1,1,0,0,,0,0.002,7,-1,1,0,0,0,20,20,13,1,0,,,,,,,,,,,,,,,,,,,,,
,,,,,,,,,,,,,,,,,,,,,,,,,,,,,,,,,,,,,,,,,,5f9c9aebcee6f616c84e40d7,606c0d360f1813c85a8caba0,2021-04-06_02h28.12.743,Colour_Similarity_Experiment,2020.2.10,Win32,60,6067542a4a25243f4d7d4fcf,21.70909091,16.8742515,16.77286136,16.75298126,16.7454324,16.77286136,,,,,,,,,,,,,,,,,,,,PF,strong,3,,,,,,,,4,1.171,,,,,,,,,,,,,,,,,,,,,,,,,,,,7,strong,46,-79,1,0,0,response3disk,9,22,9,-9,1,0,0,rectangle,9,-9,1,0,0,,6,0.001,9,-9,1,0,0,0,21,21,155,1,0,,,,,,,,,,,,,,,,,,,,,
,,,,,,,,,,,,,,,,,,,,,,,,,,,,,,,,,,,,,,,,,,5f9c9aebcee6f616c84e40d7,606c0d360f1813c85a8caba0,2021-04-06_02h28.12.743,Colour_Similarity_Experiment,2020.2.10,Win32,60,6067542a4a25243f4d7d4fcf,21.70909091,16.8742515,16.77286136,16.75298126,16.7454324,16.77286136,,,,,,,,,,,,,,,,,,,,PF,weak,3,,,,,,,,4,1.59,,,,,,,,,,,,,,,,,,,,,,,,,,,,8,weak,50,-84,1,0,0,response3disk,6,23,6,-6,1,0,0,rectangle,78,-42,1,0,0,5,5,2.006,4,-2,1,0,0,0,22,22,161,1,1,response3disk_3,rectangle,,,,,,,,,,,,,,,,,,,
,,,,,,,,,,,,,,,,,,,,,,,,,,,,,,,,,,,,,,,,,,5f9c9aebcee6f616c84e40d7,606c0d360f1813c85a8caba0,2021-04-06_02h28.12.743,Colour_Similarity_Experiment,2020.2.10,Win32,60,6067542a4a25243f4d7d4fcf,21.70909091,16.8742515,16.77286136,16.75298126,16.7454324,16.77286136,,,,,,,,,,,,,,,,,,,,PF,strong,3,,,,,,,,4,1.12,,,,,,,,,,,,,,,,,,,,,,,,,,,,7,strong,47,-69,1,0,0,response3disk,8,24,3,-3,1,0,0,rectangle,97,-58,1,0,0,5,5,1.925,-4,-3,1,0,0,0,23,23,97,1,1,response3disk_3,rectangle,,,,,,,,,,,,,,,,,,,
,,,,,,,,,,,,,,,,,,,,,,,,,,,,,,,,,,,,,,,,,,5f9c9aebcee6f616c84e40d7,606c0d360f1813c85a8caba0,2021-04-06_02h28.12.743,Colour_Similarity_Experiment,2020.2.10,Win32,60,6067542a4a25243f4d7d4fcf,21.70909091,16.8742515,16.77286136,16.75298126,16.7454324,16.77286136,,,,,,,,,,,,,,,,,,,,PF,weak,3,,,,,,,,5,0.835,,,,,,,,,,,,,,,,,,,,,,,,,,,,2,weak,89,-47,1,0,0,response3disk,5,25,10,-6,1,0,0,rectangle,10,-6,1,0,0,5,3,0.001,10,-6,1,0,0,0,24,24,147,1,0,,,,,,,,,,,,,,,,,,,,,
,,,,,,,,,,,,,,,,,,,,,,,,,,,,,,,,,,,,,,,,,,5f9c9aebcee6f616c84e40d7,606c0d360f1813c85a8caba0,2021-04-06_02h28.12.743,Colour_Similarity_Experiment,2020.2.10,Win32,60,6067542a4a25243f4d7d4fcf,21.70909091,16.8742515,16.77286136,16.75298126,16.7454324,16.77286136,,,,,,,,,,,,,,,,,,,,PF,weak,3,,,,,,,,6,1.438,,,,,,,,,,,,,,,,,,,,,,,,,,,,4,weak,83,32,1,0,0,response1disk,1,26,2,-1,1,0,0,rectangle,2,-1,1,0,0,5,1,0.001,2,-1,1,0,0,0,25,25,115,1,0,,,,,,,,,,,,,,,,,,,,,
,,,,,,,,,,,,,,,,,,,,,,,,,,,,,,,,,,,,,,,,,,5f9c9aebcee6f616c84e40d7,606c0d360f1813c85a8caba0,2021-04-06_02h28.12.743,Colour_Similarity_Experiment,2020.2.10,Win32,60,6067542a4a25243f4d7d4fcf,21.70909091,16.8742515,16.77286136,16.75298126,16.7454324,16.77286136,,,,,,,,,,,,,,,,,,,,PF,strong,3,,,,,,,,6,1.273,,,,,,,,,,,,,,,,,,,,,,,,,,,,9,strong,79,30,1,0,0,response1disk,4,27,10,2,1,0,0,rectangle,10,2,1,0,0,5,4,0.001,10,2,1,0,0,0,26,26,60,1,0,,,,,,,,,,,,,,,,,,,,,
,,,,,,,,,,,,,,,,,,,,,,,,,,,,,,,,,,,,,,,,,,5f9c9aebcee6f616c84e40d7,606c0d360f1813c85a8caba0,2021-04-06_02h28.12.743,Colour_Similarity_Experiment,2020.2.10,Win32,60,6067542a4a25243f4d7d4fcf,21.70909091,16.8742515,16.77286136,16.75298126,16.7454324,16.77286136,,,,,,,,,,,,,,,,,,,,PF,strong,3,,,,,,,,0,1.071,,,,,,,,,,,,,,,,,,,,,,,,,,,,6,strong,-30,51,1,0,0,response7disk,6,28,5,-2,1,0,0,rectangle,5,-2,1,0,0,5,4,0.001,5,-2,1,0,0,0,27,27,91,1,0,,,,,,,,,,,,,,,,,,,,,
,,,,,,,,,,,,,,,,,,,,,,,,,,,,,,,,,,,,,,,,,,5f9c9aebcee6f616c84e40d7,606c0d360f1813c85a8caba0,2021-04-06_02h28.12.743,Colour_Similarity_Experiment,2020.2.10,Win32,60,6067542a4a25243f4d7d4fcf,21.70909091,16.8742515,16.77286136,16.75298126,16.7454324,16.77286136,,,,,,,,,,,,,,,,,,,,PF,strong,3,,,,,,,,0,1.071,,,,,,,,,,,,,,,,,,,,,,,,,,,,3,strong,-38,93,1,0,0,response7disk,3,29,3,6,1,0,0,rectangle,3,6,1,0,0,5,5,0.001,3,6,1,0,0,0,28,28,68,1,0,,,,,,,,,,,,,,,,,,,,,
,,,,,,,,,,,,,,,,,,,,,,,,,,,,,,,,,,,,,,,,,,5f9c9aebcee6f616c84e40d7,606c0d360f1813c85a8caba0,2021-04-06_02h28.12.743,Colour_Similarity_Experiment,2020.2.10,Win32,60,6067542a4a25243f4d7d4fcf,21.70909091,16.8742515,16.77286136,16.75298126,16.7454324,16.77286136,,,,,,,,,,,,,,,,,,,,PF,strong,3,,,,,,,,0,0.836,,,,,,,,,,,,,,,,,,,,,,,,,,,,8,strong,-27,74,1,0,0,response7disk,8,30,2,0,1,0,0,rectangle,2,0,1,0,0,5,4,0.001,2,0,1,0,0,0,29,29,48,1,0,,,,,,,,,,,,,,,,,,,,,
,,,,,,,,,,,,,,,,,,,,,,,,,,,,,,,,,,,,,,,,,,5f9c9aebcee6f616c84e40d7,606c0d360f1813c85a8caba0,2021-04-06_02h28.12.743,Colour_Similarity_Experiment,2020.2.10,Win32,60,6067542a4a25243f4d7d4fcf,21.70909091,16.8742515,16.77286136,16.75298126,16.7454324,16.77286136,,,,,,,,,,,,,,,,,,,,PF,strong,3,,,,,,,,2,1.304,,,,,,,,,,,,,,,,,,,,,,,,,,,,5,strong,-58,-39,1,0,0,response5disk,6,31,10,-4,1,0,0,rectangle,10,-4,1,0,0,5,4,0,10,-4,1,0,0,0,30,30,12,1,0,,,,,,,,,,,,,,,,,,,,,
,,,,,,,,,,,,,,,,,,,,,,,,,,,,,,,,,,,,,,,,,,5f9c9aebcee6f616c84e40d7,606c0d360f1813c85a8caba0,2021-04-06_02h28.12.743,Colour_Similarity_Experiment,2020.2.10,Win32,60,6067542a4a25243f4d7d4fcf,21.70909091,16.8742515,16.77286136,16.75298126,16.7454324,16.77286136,,,,,,,,,,,,,,,,,,,,PF,weak,3,,,,,,,,5,1.237,,,,,,,,,,,,,,,,,,,,,,,,,,,,4,weak,68,-42,1,0,0,response3disk,6,32,-9,7,1,0,0,rectangle,-9,7,1,0,0,5,1,0.002,-9,7,1,0,0,0,31,31,120,1,0,,,,,,,,,,,,,,,,,,,,,
,,,,,,,,,,,,,,,,,,,,,,,,,,,,,,,,,,,,,,,,,,5f9c9aebcee6f616c84e40d7,606c0d360f1813c85a8caba0,2021-04-06_02h28.12.743,Colour_Similarity_Experiment,2020.2.10,Win32,60,6067542a4a25243f4d7d4fcf,21.70909091,16.8742515,16.77286136,16.75298126,16.7454324,16.77286136,,,,,,,,,,,,,,,,,,,,PF,strong,3,,,,,,,,3,1.556,,,,,,,,,,,,,,,,,,,,,,,,,,,,7,strong,-22,-66,1,0,0,response5disk,6,33,7,3,1,0,0,rectangle,7,3,1,0,0,5,3,0.002,7,3,1,0,0,0,32,32,31,1,0,,,,,,,,,,,,,,,,,,,,,
,,,,,,,,,,,,,,,,,,,,,,,,,,,,,,,,,,,,,,,,,,5f9c9aebcee6f616c84e40d7,606c0d360f1813c85a8caba0,2021-04-06_02h28.12.743,Colour_Similarity_Experiment,2020.2.10,Win32,60,6067542a4a25243f4d7d4fcf,21.70909091,16.8742515,16.77286136,16.75298126,16.7454324,16.77286136,,,,,,,,,,,,,,,,,,,,PF,weak,3,,,,,,,,0,1.154,,,,,,,,,,,,,,,,,,,,,,,,,,,,1,weak,-42,82,1,0,0,response7disk,1,34,7,4,1,0,0,rectangle,-77,-44,1,0,0,5,2,1.723,2,2,1,0,0,0,33,33,76,1,1,response5disk_3,rectangle,,,,,,,,,,,,,,,,,,,
,,,,,,,,,,,,,,,,,,,,,,,,,,,,,,,,,,,,,,,,,,5f9c9aebcee6f616c84e40d7,606c0d360f1813c85a8caba0,2021-04-06_02h28.12.743,Colour_Similarity_Experiment,2020.2.10,Win32,60,6067542a4a25243f4d7d4fcf,21.70909091,16.8742515,16.77286136,16.75298126,16.7454324,16.77286136,,,,,,,,,,,,,,,,,,,,PF,weak,3,,,,,,,,4,2.292,,,,,,,,,,,,,,,,,,,,,,,,,,,,6,weak,46,-72,1,0,0,response3disk,4,35,-5,6,1,0,0,rectangle,-5,6,1,0,0,5,0,0.001,-5,6,1,0,0,0,34,34,33,1,0,,,,,,,,,,,,,,,,,,,,,
,,,,,,,,,,,,,,,,,,,,,,,,,,,,,,,,,,,,,,,,,,5f9c9aebcee6f616c84e40d7,606c0d360f1813c85a8caba0,2021-04-06_02h28.12.743,Colour_Similarity_Experiment,2020.2.10,Win32,60,6067542a4a25243f4d7d4fcf,21.70909091,16.8742515,16.77286136,16.75298126,16.7454324,16.77286136,,,,,,,,,,,,,,,,,,,,PF,weak,3,,,,,,,,4,2.241,,,,,,,,,,,,,,,,,,,,,,,,,,,,3,weak,36,-86,1,0,0,response3disk,2,36,6,-6,1,0,0,rectangle,-60,92,1,0,0,0,0,1.455,2,-2,1,0,0,0,35,35,36,1,1,response7disk_3,rectangle,,,,,,,,,,,,,,,,,,,
,,,,,,,,,,,,,,,,,,,,,,,,,,,,,,,,,,,,,,,,,,5f9c9aebcee6f616c84e40d7,606c0d360f1813c85a8caba0,2021-04-06_02h28.12.743,Colour_Similarity_Experiment,2020.2.10,Win32,60,6067542a4a25243f4d7d4fcf,21.70909091,16.8742515,16.77286136,16.75298126,16.7454324,16.77286136,,,,,,,,,,,,,,,,,,,,PF,strong,3,,,,,,,,6,1.221,,,,,,,,,,,,,,,,,,,,,,,,,,,,2,strong,97,30,1,0,0,response1disk,4,37,2,-3,1,0,0,rectangle,2,-3,1,0,0,0,6,0.002,2,-3,1,0,0,0,36,36,145,1,0,,,,,,,,,,,,,,,,,,,,,
,,,,,,,,,,,,,,,,,,,,,,,,,,,,,,,,,,,,,,,,,,5f9c9aebcee6f616c84e40d7,606c0d360f1813c85a8caba0,2021-04-06_02h28.12.743,Colour_Similarity_Experiment,2020.2.10,Win32,60,6067542a4a25243f4d7d4fcf,21.70909091,16.8742515,16.77286136,16.75298126,16.7454324,16.77286136,,,,,,,,,,,,,,,,,,,,PF,weak,3,,,,,,,,4,1.271,,,,,,,,,,,,,,,,,,,,,,,,,,,,8,weak,53,-83,1,0,0,response3disk,5,38,10,-3,1,0,0,rectangle,10,-3,1,0,0,0,2,0.002,10,-3,1,0,0,0,37,37,98,1,0,,,,,,,,,,,,,,,,,,,,,
,,,,,,,,,,,,,,,,,,,,,,,,,,,,,,,,,,,,,,,,,,5f9c9aebcee6f616c84e40d7,606c0d360f1813c85a8caba0,2021-04-06_02h28.12.743,Colour_Similarity_Experiment,2020.2.10,Win32,60,6067542a4a25243f4d7d4fcf,21.70909091,16.8742515,16.77286136,16.75298126,16.7454324,16.77286136,,,,,,,,,,,,,,,,,,,,PF,weak,3,,,,,,,,2,1.673,,,,,,,,,,,,,,,,,,,,,,,,,,,,8,weak,-74,-39,1,0,0,response5disk,9,39,-4,2,1,0,0,rectangle,-4,2,1,0,0,0,5,0.001,-4,2,1,0,0,0,38,38,42,1,0,,,,,,,,,,,,,,,,,,,,,
,,,,,,,,,,,,,,,,,,,,,,,,,,,,,,,,,,,,,,,,,,5f9c9aebcee6f616c84e40d7,606c0d360f1813c85a8caba0,2021-04-06_02h28.12.743,Colour_Similarity_Experiment,2020.2.10,Win32,60,6067542a4a25243f4d7d4fcf,21.70909091,16.8742515,16.77286136,16.75298126,16.7454324,16.77286136,,,,,,,,,,,,,,,,,,,,PF,weak,3,,,,,,,,6,1.421,,,,,,,,,,,,,,,,,,,,,,,,,,,,9,weak,101,26,1,0,0,response1disk,4,40,6,-2,1,0,0,rectangle,6,-2,1,0,0,0,4,0.003,6,-2,1,0,0,0,39,39,114,1,0,,,,,,,,,,,,,,,,,,,,,
,,,,,,,,,,,,,,,,,,,,,,,,,,,,,,,,,,,,,,,,,,5f9c9aebcee6f616c84e40d7,606c0d360f1813c85a8caba0,2021-04-06_02h28.12.743,Colour_Similarity_Experiment,2020.2.10,Win32,60,6067542a4a25243f4d7d4fcf,21.70909091,16.8742515,16.77286136,16.75298126,16.7454324,16.77286136,,,,,,,,,,,,,,,,,,,,PF,strong,3,,,,,,,,5,2.66,,,,,,,,,,,,,,,,,,,,,,,,,,,,3,strong,97,-39,1,0,0,response3disk,7,41,8,0,1,0,0,rectangle,8,0,1,0,0,0,5,0.001,8,0,1,0,0,0,40,40,118,1,0,,,,,,,,,,,,,,,,,,,,,
,,,,,,,,,,,,,,,,,,,,,,,,,,,,,,,,,,,,,,,,,,5f9c9aebcee6f616c84e40d7,606c0d360f1813c85a8caba0,2021-04-06_02h28.12.743,Colour_Similarity_Experiment,2020.2.10,Win32,60,6067542a4a25243f4d7d4fcf,21.70909091,16.8742515,16.77286136,16.75298126,16.7454324,16.77286136,,,,,,,,,,,,,,,,,,,,PF,weak,3,,,,,,,,0,0.904,,,,,,,,,,,,,,,,,,,,,,,,,,,,5,weak,-35,74,1,0,0,response7disk,5,42,-4,3,1,0,0,rectangle,-4,3,1,0,0,0,6,0.001,-4,3,1,0,0,0,41,41,94,1,0,,,,,,,,,,,,,,,,,,,,,
,,,,,,,,,,,,,,,,,,,,,,,,,,,,,,,,,,,,,,,,,,5f9c9aebcee6f616c84e40d7,606c0d360f1813c85a8caba0,2021-04-06_02h28.12.743,Colour_Similarity_Experiment,2020.2.10,Win32,60,6067542a4a25243f4d7d4fcf,21.70909091,16.8742515,16.77286136,16.75298126,16.7454324,16.77286136,,,,,,,,,,,,,,,,,,,,PF,weak,3,,,,,,,,1,1.673,,,,,,,,,,,,,,,,,,,,,,,,,,,,6,weak,-70,26,1,0,0,response7disk,5,43,-4,-6,1,0,0,rectangle,-4,-6,1,0,0,0,6,0.001,-4,-6,1,0,0,0,42,42,59,1,0,,,,,,,,,,,,,,,,,,,,,
,,,,,,,,,,,,,,,,,,,,,,,,,,,,,,,,,,,,,,,,,,5f9c9aebcee6f616c84e40d7,606c0d360f1813c85a8caba0,2021-04-06_02h28.12.743,Colour_Similarity_Experiment,2020.2.10,Win32,60,6067542a4a25243f4d7d4fcf,21.70909091,16.8742515,16.77286136,16.75298126,16.7454324,16.77286136,,,,,,,,,,,,,,,,,,,,PF,weak,3,,,,,,,,2,1.338,,,,,,,,,,,,,,,,,,,,,,,,,,,,1,weak,-70,-54,1,0,0,response5disk,2,44,-6,-4,1,0,0,rectangle,-6,-4,1,0,0,0,2,0.002,-6,-4,1,0,0,0,43,43,24,1,0,,,,,,,,,,,,,,,,,,,,,
,,,,,,,,,,,,,,,,,,,,,,,,,,,,,,,,,,,,,,,,,,5f9c9aebcee6f616c84e40d7,606c0d360f1813c85a8caba0,2021-04-06_02h28.12.743,Colour_Similarity_Experiment,2020.2.10,Win32,60,6067542a4a25243f4d7d4fcf,21.70909091,16.8742515,16.77286136,16.75298126,16.7454324,16.77286136,,,,,,,,,,,,,,,,,,,,PF,strong,3,,,,,,,,0,0.82,,,,,,,,,,,,,,,,,,,,,,,,,,,,4,strong,-23,80,1,0,0,response7disk,4,45,6,4,1,0,0,rectangle,6,4,1,0,0,0,1,0.001,6,4,1,0,0,0,44,44,84,1,0,,,,,,,,,,,,,,,,,,,,,
,,,,,,,,,,,,,,,,,,,,,,,,,,,,,,,,,,,,,,,,,,5f9c9aebcee6f616c84e40d7,606c0d360f1813c85a8caba0,2021-04-06_02h28.12.743,Colour_Similarity_Experiment,2020.2.10,Win32,60,6067542a4a25243f4d7d4fcf,21.70909091,16.8742515,16.77286136,16.75298126,16.7454324,16.77286136,,,,,,,,,,,,,,,,,,,,PF,weak,3,,,,,,,,4,4.601,,,,,,,,,,,,,,,,,,,,,,,,,,,,7,weak,30,-92,1,0,0,response3disk,4,46,-8,0,1,0,0,rectangle,-8,0,1,0,0,0,2,0.001,-8,0,1,0,0,0,45,45,43,1,0,,,,,,,,,,,,,,,,,,,,,
,,,,,,,,,,,,,,,,,,,,,,,,,,,,,,,,,,,,,,,,,,5f9c9aebcee6f616c84e40d7,606c0d360f1813c85a8caba0,2021-04-06_02h28.12.743,Colour_Similarity_Experiment,2020.2.10,Win32,60,6067542a4a25243f4d7d4fcf,21.70909091,16.8742515,16.77286136,16.75298126,16.7454324,16.77286136,,,,,,,,,,,,,,,,,,,,PF,weak,3,,,,,,,,6,1.422,,,,,,,,,,,,,,,,,,,,,,,,,,,,7,weak,86,46,1,0,0,response1disk,1,47,4,2,1,0,0,rectangle,4,2,1,0,0,0,1,0.001,4,2,1,0,0,0,46,46,53,1,0,,,,,,,,,,,,,,,,,,,,,
,,,,,,,,,,,,,,,,,,,,,,,,,,,,,,,,,,,,,,,,,,5f9c9aebcee6f616c84e40d7,606c0d360f1813c85a8caba0,2021-04-06_02h28.12.743,Colour_Similarity_Experiment,2020.2.10,Win32,60,6067542a4a25243f4d7d4fcf,21.70909091,16.8742515,16.77286136,16.75298126,16.7454324,16.77286136,,,,,,,,,,,,,,,,,,,,PF,weak,3,,,,,,,,6,2.124,,,,,,,,,,,,,,,,,,,,,,,,,,,,3,weak,96,50,1,0,0,response1disk,1,48,-4,-7,1,0,0,rectangle,-4,-7,1,0,0,0,3,0.002,-4,-7,1,0,0,0,47,47,96,1,0,,,,,,,,,,,,,,,,,,,,,
,,,,,,,,,,,,,,,,,,,,,,,,,,,,,,,,,,,,,,,,,,5f9c9aebcee6f616c84e40d7,606c0d360f1813c85a8caba0,2021-04-06_02h28.12.743,Colour_Similarity_Experiment,2020.2.10,Win32,60,6067542a4a25243f4d7d4fcf,21.70909091,16.8742515,16.77286136,16.75298126,16.7454324,16.77286136,,,,,,,,,,,,,,,,,,,,PF,strong,3,,,,,,,,5,2.425,,,,,,,,,,,,,,,,,,,,,,,,,,,,4,strong,97,-55,1,0,0,response3disk,5,49,13,5,1,0,0,rectangle,13,5,1,0,0,0,7,0.002,13,5,1,0,0,0,48,48,116,1,0,,,,,,,,,,,,,,,,,,,,,
,,,,,,,,,,,,,,,,,,,,,,,,,,,,,,,,,,,,,,,,,,5f9c9aebcee6f616c84e40d7,606c0d360f1813c85a8caba0,2021-04-06_02h28.12.743,Colour_Similarity_Experiment,2020.2.10,Win32,60,6067542a4a25243f4d7d4fcf,21.70909091,16.8742515,16.77286136,16.75298126,16.7454324,16.77286136,,,,,,,,,,,,,,,,,,,,PF,weak,3,,,,,,,,3,1.689,,,,,,,,,,,,,,,,,,,,,,,,,,,,1,weak,-41,-74,1,0,0,response5disk,9,50,4,-6,1,0,0,rectangle,4,-6,1,0,0,0,0,0.002,4,-6,1,0,0,0,49,49,15,1,0,,,,,,,,,,,,,,,,,,,,,
,,,,,,,,,,,,,,,,,,,,,,,,,,,,,,,,,,,,,,,,,,5f9c9aebcee6f616c84e40d7,606c0d360f1813c85a8caba0,2021-04-06_02h28.12.743,Colour_Similarity_Experiment,2020.2.10,Win32,60,6067542a4a25243f4d7d4fcf,21.70909091,16.8742515,16.77286136,16.75298126,16.7454324,16.77286136,,,,,,,,,,,,,,,,,,,,PF,strong,3,,,,,,,,5,1.571,,,,,,,,,,,,,,,,,,,,,,,,,,,,2,strong,71,-49,1,0,0,response3disk,8,51,9,-8,1,0,0,rectangle,9,-8,1,0,0,0,4,0.001,9,-8,1,0,0,0,50,50,62,1,0,,,,,,,,,,,,,,,,,,,,,
,,,,,,,,,,,,,,,,,,,,,,,,,,,,,,,,,,,,,,,,,,5f9c9aebcee6f616c84e40d7,606c0d360f1813c85a8caba0,2021-04-06_02h28.12.743,Colour_Similarity_Experiment,2020.2.10,Win32,60,6067542a4a25243f4d7d4fcf,21.70909091,16.8742515,16.77286136,16.75298126,16.7454324,16.77286136,,,,,,,,,,,,,,,,,,,,PF,strong,3,,,,,,,,6,1.806,,,,,,,,,,,,,,,,,,,,,,,,,,,,1,strong,74,42,1,0,0,response1disk,3,52,26,-4,1,0,0,rectangle,26,-4,1,0,0,0,0,0.001,26,-4,1,0,0,0,51,51,99,1,0,,,,,,,,,,,,,,,,,,,,,
,,,,,,,,,,,,,,,,,,,,,,,,,,,,,,,,,,,,,,,,,,5f9c9aebcee6f616c84e40d7,606c0d360f1813c85a8caba0,2021-04-06_02h28.12.743,Colour_Similarity_Experiment,2020.2.10,Win32,60,6067542a4a25243f4d7d4fcf,21.70909091,16.8742515,16.77286136,16.75298126,16.7454324,16.77286136,,,,,,,,,,,,,,,,,,,,PF,weak,3,,,,,,,,4,1.171,,,,,,,,,,,,,,,,,,,,,,,,,,,,5,weak,30,-69,1,0,0,response3disk,4,53,9,3,1,0,0,rectangle,9,3,1,0,0,0,7,0.001,9,3,1,0,0,0,52,52,54,1,0,,,,,,,,,,,,,,,,,,,,,
,,,,,,,,,,,,,,,,,,,,,,,,,,,,,,,,,,,,,,,,,,5f9c9aebcee6f616c84e40d7,606c0d360f1813c85a8caba0,2021-04-06_02h28.12.743,Colour_Similarity_Experiment,2020.2.10,Win32,60,6067542a4a25243f4d7d4fcf,21.70909091,16.8742515,16.77286136,16.75298126,16.7454324,16.77286136,,,,,,,,,,,,,,,,,,,,PF,weak,3,,,,,,,,5,4.08,,,,,,,,,,,,,,,,,,,,,,,,,,,,2,weak,106,-53,1,0,0,response3disk,4,54,9,-6,1,0,0,rectangle,9,-6,1,0,0,0,2,0.002,9,-6,1,0,0,0,53,53,127,1,0,,,,,,,,,,,,,,,,,,,,,
,,,,,,,,,,,,,,,,,,,,,,,,,,,,,,,,,,,,,,,,,,5f9c9aebcee6f616c84e40d7,606c0d360f1813c85a8caba0,2021-04-06_02h28.12.743,Colour_Similarity_Experiment,2020.2.10,Win32,60,6067542a4a25243f4d7d4fcf,21.70909091,16.8742515,16.77286136,16.75298126,16.7454324,16.77286136,,,,,,,,,,,,,,,,,,,,PF,strong,3,,,,,,,,4,2.442,,,,,,,,,,,,,,,,,,,,,,,,,,,,1,strong,29,-90,1,0,0,response3disk,2,55,-6,-6,1,0,0,rectangle,-6,-6,1,0,0,0,5,0.003,-6,-6,1,0,0,0,54,54,2,1,0,,,,,,,,,,,,,,,,,,,,,
,,,,,,,,,,,,,,,,,,,,,,,,,,,,,,,,,,,,,,,,,,5f9c9aebcee6f616c84e40d7,606c0d360f1813c85a8caba0,2021-04-06_02h28.12.743,Colour_Similarity_Experiment,2020.2.10,Win32,60,6067542a4a25243f4d7d4fcf,21.70909091,16.8742515,16.77286136,16.75298126,16.7454324,16.77286136,,,,,,,,,,,,,,,,,,,,PF,weak,3,,,,,,,,1,1.155,,,,,,,,,,,,,,,,,,,,,,,,,,,,9,weak,-66,39,1,0,0,response7disk,8,56,-1,0,1,0,0,rectangle,-1,0,1,0,0,0,4,0.001,-1,0,1,0,0,0,55,55,67,1,0,,,,,,,,,,,,,,,,,,,,,
,,,,,,,,,,,,,,,,,,,,,,,,,,,,,,,,,,,,,,,,,,5f9c9aebcee6f616c84e40d7,606c0d360f1813c85a8caba0,2021-04-06_02h28.12.743,Colour_Similarity_Experiment,2020.2.10,Win32,60,6067542a4a25243f4d7d4fcf,21.70909091,16.8742515,16.77286136,16.75298126,16.7454324,16.77286136,,,,,,,,,,,,,,,,,,,,PF,weak,3,,,,,,,,0,2.008,,,,,,,,,,,,,,,,,,,,,,,,,,,,2,weak,-39,52,1,0,0,response7disk,2,57,-2,1,1,0,0,rectangle,-2,1,1,0,0,0,3,0.003,-2,1,1,0,0,0,56,56,14,1,0,,,,,,,,,,,,,,,,,,,,,
,,,,,,,,,,,,,,,,,,,,,,,,,,,,,,,,,,,,,,,,,,5f9c9aebcee6f616c84e40d7,606c0d360f1813c85a8caba0,2021-04-06_02h28.12.743,Colour_Similarity_Experiment,2020.2.10,Win32,60,6067542a4a25243f4d7d4fcf,21.70909091,16.8742515,16.77286136,16.75298126,16.7454324,16.77286136,,,,,,,,,,,,,,,,,,,,PF,strong,3,,,,,,,,4,1.339,,,,,,,,,,,,,,,,,,,,,,,,,,,,1,strong,40,-86,1,0,0,response3disk,6,58,6,11,1,0,0,rectangle,6,11,1,0,0,0,1,0.002,6,11,1,0,0,0,57,57,58,1,0,,,,,,,,,,,,,,,,,,,,,
,,,,,,,,,,,,,,,,,,,,,,,,,,,,,,,,,,,,,,,,,,5f9c9aebcee6f616c84e40d7,606c0d360f1813c85a8caba0,2021-04-06_02h28.12.743,Colour_Similarity_Experiment,2020.2.10,Win32,60,6067542a4a25243f4d7d4fcf,21.70909091,16.8742515,16.77286136,16.75298126,16.7454324,16.77286136,,,,,,,,,,,,,,,,,,,,PF,strong,3,,,,,,,,5,2.357,,,,,,,,,,,,,,,,,,,,,,,,,,,,2,strong,74,-29,1,0,0,response3disk,5,59,24,-7,1,0,0,rectangle,24,-7,1,0,0,0,1,0,24,-7,1,0,0,0,58,58,80,1,0,,,,,,,,,,,,,,,,,,,,,
,,,,,,,,,,,,,,,,,,,,,,,,,,,,,,,,,,,,,,,,,,5f9c9aebcee6f616c84e40d7,606c0d360f1813c85a8caba0,2021-04-06_02h28.12.743,Colour_Similarity_Experiment,2020.2.10,Win32,60,6067542a4a25243f4d7d4fcf,21.70909091,16.8742515,16.77286136,16.75298126,16.7454324,16.77286136,,,,,,,,,,,,,,,,,,,,PF,weak,3,,,,,,,,5,1.939,,,,,,,,,,,,,,,,,,,,,,,,,,,,9,weak,82,-36,1,0,0,response3disk,6,60,7,-10,1,0,0,rectangle,7,-10,1,0,0,0,4,0.002,7,-10,1,0,0,0,59,59,148,1,0,,,,,,,,,,,,,,,,,,,,,
,,,,,,,,,,,,,,,,,,,,,,,,,,,,,,,,,,,,,,,,,,5f9c9aebcee6f616c84e40d7,606c0d360f1813c85a8caba0,2021-04-06_02h28.12.743,Colour_Similarity_Experiment,2020.2.10,Win32,60,6067542a4a25243f4d7d4fcf,21.70909091,16.8742515,16.77286136,16.75298126,16.7454324,16.77286136,,,,,,,,,,,,,,,,,,,,PF,strong,3,,,,,,,,2,2.826,,,,,,,,,,,,,,,,,,,,,,,,,,,,8,strong,-85,-34,1,0,0,response5disk,9,61,0,-8,1,0,0,rectangle,0,-8,1,0,0,0,4,0.001,0,-8,1,0,0,0,60,60,105,1,0,,,,,,,,,,,,,,,,,,,,,
,,,,,,,,,,,,,,,,,,,,,,,,,,,,,,,,,,,,,,,,,,5f9c9aebcee6f616c84e40d7,606c0d360f1813c85a8caba0,2021-04-06_02h28.12.743,Colour_Similarity_Experiment,2020.2.10,Win32,60,6067542a4a25243f4d7d4fcf,21.70909091,16.8742515,16.77286136,16.75298126,16.7454324,16.77286136,,,,,,,,,,,,,,,,,,,,PF,strong,3,,,,,,,,4,1.205,,,,,,,,,,,,,,,,,,,,,,,,,,,,7,strong,46,-63,1,0,0,response3disk,3,62,6,-13,1,0,0,rectangle,6,-13,1,0,0,0,7,0.002,6,-13,1,0,0,0,61,61,73,1,0,,,,,,,,,,,,,,,,,,,,,
,,,,,,,,,,,,,,,,,,,,,,,,,,,,,,,,,,,,,,,,,,5f9c9aebcee6f616c84e40d7,606c0d360f1813c85a8caba0,2021-04-06_02h28.12.743,Colour_Similarity_Experiment,2020.2.10,Win32,60,6067542a4a25243f4d7d4fcf,21.70909091,16.8742515,16.77286136,16.75298126,16.7454324,16.77286136,,,,,,,,,,,,,,,,,,,,PF,weak,3,,,,,,,,3,1.07,,,,,,,,,,,,,,,,,,,,,,,,,,,,9,weak,-24,-52,1,0,0,response5disk,1,63,-1,-17,1,0,0,rectangle,-1,-17,1,0,0,0,0,0.001,-1,-17,1,0,0,0,62,62,74,1,0,,,,,,,,,,,,,,,,,,,,,
,,,,,,,,,,,,,,,,,,,,,,,,,,,,,,,,,,,,,,,,,,5f9c9aebcee6f616c84e40d7,606c0d360f1813c85a8caba0,2021-04-06_02h28.12.743,Colour_Similarity_Experiment,2020.2.10,Win32,60,6067542a4a25243f4d7d4fcf,21.70909091,16.8742515,16.77286136,16.75298126,16.7454324,16.77286136,,,,,,,,,,,,,,,,,,,,PF,strong,3,,,,,,,,1,1.187,,,,,,,,,,,,,,,,,,,,,,,,,,,,2,strong,-49,48,1,0,0,response7disk,2,64,-8,-8,1,0,0,rectangle,-8,-8,1,0,0,0,5,0.001,-8,-8,1,0,0,0,63,63,142,1,0,,,,,,,,,,,,,,,,,,,,,
,,,,,,,,,,,,,,,,,,,,,,,,,,,,,,,,,,,,,,,,,,5f9c9aebcee6f616c84e40d7,606c0d360f1813c85a8caba0,2021-04-06_02h28.12.743,Colour_Similarity_Experiment,2020.2.10,Win32,60,6067542a4a25243f4d7d4fcf,21.70909091,16.8742515,16.77286136,16.75298126,16.7454324,16.77286136,,,,,,,,,,,,,,,,,,,,PF,strong,3,,,,,,,,4,1.572,,,,,,,,,,,,,,,,,,,,,,,,,,,,2,strong,63,-70,1,0,0,response3disk,6,65,15,-6,1,0,0,rectangle,15,-6,1,0,0,0,7,0.002,15,-6,1,0,0,0,64,64,40,1,0,,,,,,,,,,,,,,,,,,,,,
,,,,,,,,,,,,,,,,,,,,,,,,,,,,,,,,,,,,,,,,,,5f9c9aebcee6f616c84e40d7,606c0d360f1813c85a8caba0,2021-04-06_02h28.12.743,Colour_Similarity_Experiment,2020.2.10,Win32,60,6067542a4a25243f4d7d4fcf,21.70909091,16.8742515,16.77286136,16.75298126,16.7454324,16.77286136,,,,,,,,,,,,,,,,,,,,PF,weak,3,,,,,,,,6,2.826,,,,,,,,,,,,,,,,,,,,,,,,,,,,2,weak,113,65,1,0,0,response1disk,8,66,1,-2,1,0,0,rectangle,1,-2,1,0,0,0,1,0.001,1,-2,1,0,0,0,65,65,52,1,0,,,,,,,,,,,,,,,,,,,,,
,,,,,,,,,,,,,,,,,,,,,,,,,,,,,,,,,,,,,,,,,,5f9c9aebcee6f616c84e40d7,606c0d360f1813c85a8caba0,2021-04-06_02h28.12.743,Colour_Similarity_Experiment,2020.2.10,Win32,60,6067542a4a25243f4d7d4fcf,21.70909091,16.8742515,16.77286136,16.75298126,16.7454324,16.77286136,,,,,,,,,,,,,,,,,,,,PF,weak,3,,,,,,,,2,1.288,,,,,,,,,,,,,,,,,,,,,,,,,,,,5,weak,-51,-44,1,0,0,response5disk,7,67,8,0,1,0,0,rectangle,8,0,1,0,0,0,4,0.001,8,0,1,0,0,0,66,66,146,1,0,,,,,,,,,,,,,,,,,,,,,
,,,,,,,,,,,,,,,,,,,,,,,,,,,,,,,,,,,,,,,,,,5f9c9aebcee6f616c84e40d7,606c0d360f1813c85a8caba0,2021-04-06_02h28.12.743,Colour_Similarity_Experiment,2020.2.10,Win32,60,6067542a4a25243f4d7d4fcf,21.70909091,16.8742515,16.77286136,16.75298126,16.7454324,16.77286136,,,,,,,,,,,,,,,,,,,,PF,strong,3,,,,,,,,5,1.556,,,,,,,,,,,,,,,,,,,,,,,,,,,,1,strong,60,-54,1,0,0,response3disk,4,68,10,-7,1,0,0,rectangle,10,-7,1,0,0,0,3,0.001,10,-7,1,0,0,0,67,67,135,1,0,,,,,,,,,,,,,,,,,,,,,
,,,,,,,,,,,,,,,,,,,,,,,,,,,,,,,,,,,,,,,,,,5f9c9aebcee6f616c84e40d7,606c0d360f1813c85a8caba0,2021-04-06_02h28.12.743,Colour_Similarity_Experiment,2020.2.10,Win32,60,6067542a4a25243f4d7d4fcf,21.70909091,16.8742515,16.77286136,16.75298126,16.7454324,16.77286136,,,,,,,,,,,,,,,,,,,,PF,weak,3,,,,,,,,5,1.004,,,,,,,,,,,,,,,,,,,,,,,,,,,,3,weak,82,-34,1,0,0,response3disk,6,69,16,0,1,0,0,rectangle,16,0,1,0,0,0,1,0.003,16,0,1,0,0,0,68,68,47,1,0,,,,,,,,,,,,,,,,,,,,,
,,,,,,,,,,,,,,,,,,,,,,,,,,,,,,,,,,,,,,,,,,5f9c9aebcee6f616c84e40d7,606c0d360f1813c85a8caba0,2021-04-06_02h28.12.743,Colour_Similarity_Experiment,2020.2.10,Win32,60,6067542a4a25243f4d7d4fcf,21.70909091,16.8742515,16.77286136,16.75298126,16.7454324,16.77286136,,,,,,,,,,,,,,,,,,,,PF,strong,3,,,,,,,,6,1.104,,,,,,,,,,,,,,,,,,,,,,,,,,,,3,strong,81,18,1,0,0,response1disk,9,70,6,-8,1,0,0,rectangle,6,-8,1,0,0,0,1,0,6,-8,1,0,0,0,69,69,143,1,0,,,,,,,,,,,,,,,,,,,,,
,,,,,,,,,,,,,,,,,,,,,,,,,,,,,,,,,,,,,,,,,,5f9c9aebcee6f616c84e40d7,606c0d360f1813c85a8caba0,2021-04-06_02h28.12.743,Colour_Similarity_Experiment,2020.2.10,Win32,60,6067542a4a25243f4d7d4fcf,21.70909091,16.8742515,16.77286136,16.75298126,16.7454324,16.77286136,,,,,,,,,,,,,,,,,,,,PF,strong,3,,,,,,,,3,2.275,,,,,,,,,,,,,,,,,,,,,,,,,,,,8,strong,-39,-63,1,0,0,response5disk,1,71,1,0,1,0,0,rectangle,1,0,1,0,0,0,5,0.002,1,0,1,0,0,0,70,70,20,1,0,,,,,,,,,,,,,,,,,,,,,
,,,,,,,,,,,,,,,,,,,,,,,,,,,,,,,,,,,,,,,,,,5f9c9aebcee6f616c84e40d7,606c0d360f1813c85a8caba0,2021-04-06_02h28.12.743,Colour_Similarity_Experiment,2020.2.10,Win32,60,6067542a4a25243f4d7d4fcf,21.70909091,16.8742515,16.77286136,16.75298126,16.7454324,16.77286136,,,,,,,,,,,,,,,,,,,,PF,weak,3,,,,,,,,6,0.921,,,,,,,,,,,,,,,,,,,,,,,,,,,,3,weak,81,35,1,0,0,response1disk,9,72,-4,-4,1,0,0,rectangle,-4,-4,1,0,0,0,4,0.002,-4,-4,1,0,0,0,71,71,79,1,0,,,,,,,,,,,,,,,,,,,,,
,,,,,,,,,,,,,,,,,,,,,,,,,,,,,,,,,,,,,,,,,,5f9c9aebcee6f616c84e40d7,606c0d360f1813c85a8caba0,2021-04-06_02h28.12.743,Colour_Similarity_Experiment,2020.2.10,Win32,60,6067542a4a25243f4d7d4fcf,21.70909091,16.8742515,16.77286136,16.75298126,16.7454324,16.77286136,,,,,,,,,,,,,,,,,,,,PF,weak,3,,,,,,,,5,1.638,,,,,,,,,,,,,,,,,,,,,,,,,,,,1,weak,82,-50,1,0,0,response3disk,6,73,10,-5,1,0,0,rectangle,10,-5,1,0,0,0,7,0.001,10,-5,1,0,0,0,72,72,144,1,0,,,,,,,,,,,,,,,,,,,,,
,,,,,,,,,,,,,,,,,,,,,,,,,,,,,,,,,,,,,,,,,,5f9c9aebcee6f616c84e40d7,606c0d360f1813c85a8caba0,2021-04-06_02h28.12.743,Colour_Similarity_Experiment,2020.2.10,Win32,60,6067542a4a25243f4d7d4fcf,21.70909091,16.8742515,16.77286136,16.75298126,16.7454324,16.77286136,,,,,,,,,,,,,,,,,,,,PF,weak,3,,,,,,,,6,2.609,,,,,,,,,,,,,,,,,,,,,,,,,,,,4,weak,102,27,1,0,0,response1disk,8,74,15,-3,1,0,0,rectangle,15,-3,1,0,0,0,6,0.001,15,-3,1,0,0,0,73,73,124,1,0,,,,,,,,,,,,,,,,,,,,,
,,,,,,,,,,,,,,,,,,,,,,,,,,,,,,,,,,,,,,,,,,5f9c9aebcee6f616c84e40d7,606c0d360f1813c85a8caba0,2021-04-06_02h28.12.743,Colour_Similarity_Experiment,2020.2.10,Win32,60,6067542a4a25243f4d7d4fcf,21.70909091,16.8742515,16.77286136,16.75298126,16.7454324,16.77286136,,,,,,,,,,,,,,,,,,,,PF,strong,3,,,,,,,,3,2.275,,,,,,,,,,,,,,,,,,,,,,,,,,,,9,strong,-35,-78,1,0,0,response5disk,1,75,6,16,1,0,0,rectangle,6,16,1,0,0,0,3,0.003,6,16,1,0,0,0,74,74,111,1,0,,,,,,,,,,,,,,,,,,,,,
,,,,,,,,,,,,,,,,,,,,,,,,,,,,,,,,,,,,,,,,,,5f9c9aebcee6f616c84e40d7,606c0d360f1813c85a8caba0,2021-04-06_02h28.12.743,Colour_Similarity_Experiment,2020.2.10,Win32,60,6067542a4a25243f4d7d4fcf,21.70909091,16.8742515,16.77286136,16.75298126,16.7454324,16.77286136,,,,,,,,,,,,,,,,,,,,PF,strong,3,,,,,,,,3,1.203,,,,,,,,,,,,,,,,,,,,,,,,,,,,1,strong,-36,-81,1,0,0,response5disk,8,76,3,-7,1,0,0,rectangle,3,-7,1,0,0,0,4,0.001,3,-7,1,0,0,0,75,75,27,1,0,,,,,,,,,,,,,,,,,,,,,
,,,,,,,,,,,,,,,,,,,,,,,,,,,,,,,,,,,,,,,,,,5f9c9aebcee6f616c84e40d7,606c0d360f1813c85a8caba0,2021-04-06_02h28.12.743,Colour_Similarity_Experiment,2020.2.10,Win32,60,6067542a4a25243f4d7d4fcf,21.70909091,16.8742515,16.77286136,16.75298126,16.7454324,16.77286136,,,,,,,,,,,,,,,,,,,,PF,strong,3,,,,,,,,4,1.34,,,,,,,,,,,,,,,,,,,,,,,,,,,,3,strong,52,-76,1,0,0,response3disk,2,77,2,-10,1,0,0,rectangle,2,-10,1,0,0,0,4,0.001,2,-10,1,0,0,0,76,76,93,1,0,,,,,,,,,,,,,,,,,,,,,
,,,,,,,,,,,,,,,,,,,,,,,,,,,,,,,,,,,,,,,,,,5f9c9aebcee6f616c84e40d7,606c0d360f1813c85a8caba0,2021-04-06_02h28.12.743,Colour_Similarity_Experiment,2020.2.10,Win32,60,6067542a4a25243f4d7d4fcf,21.70909091,16.8742515,16.77286136,16.75298126,16.7454324,16.77286136,,,,,,,,,,,,,,,,,,,,PF,strong,3,,,,,,,,4,2.442,,,,,,,,,,,,,,,,,,,,,,,,,,,,8,strong,49,-79,1,0,0,response3disk,5,78,13,-9,1,0,0,rectangle,13,-9,1,0,0,0,1,0.001,13,-9,1,0,0,0,77,77,152,1,0,,,,,,,,,,,,,,,,,,,,,
,,,,,,,,,,,,,,,,,,,,,,,,,,,,,,,,,,,,,,,,,,5f9c9aebcee6f616c84e40d7,606c0d360f1813c85a8caba0,2021-04-06_02h28.12.743,Colour_Similarity_Experiment,2020.2.10,Win32,60,6067542a4a25243f4d7d4fcf,21.70909091,16.8742515,16.77286136,16.75298126,16.7454324,16.77286136,,,,,,,,,,,,,,,,,,,,PF,weak,3,,,,,,,,6,1.322,,,,,,,,,,,,,,,,,,,,,,,,,,,,8,weak,102,25,1,0,0,response1disk,3,79,18,-6,1,0,0,rectangle,18,-6,1,0,0,0,0,0.002,18,-6,1,0,0,0,78,78,71,1,0,,,,,,,,,,,,,,,,,,,,,
,,,,,,,,,,,,,,,,,,,,,,,,,,,,,,,,,,,,,,,,,,5f9c9aebcee6f616c84e40d7,606c0d360f1813c85a8caba0,2021-04-06_02h28.12.743,Colour_Similarity_Experiment,2020.2.10,Win32,60,6067542a4a25243f4d7d4fcf,21.70909091,16.8742515,16.77286136,16.75298126,16.7454324,16.77286136,,,,,,,,,,,,,,,,,,,,PF,weak,3,,,,,,,,6,1.355,,,,,,,,,,,,,,,,,,,,,,,,,,,,6,weak,102,28,1,0,0,response1disk,2,80,28,-10,1,0,0,rectangle,28,-10,1,0,0,0,3,0.001,28,-10,1,0,0,0,79,79,130,1,0,,,,,,,,,,,,,,,,,,,,,
,,,,,,,,,,,,,,,,,,,,,,,,,,,,,,,,,,,,,,,,,,5f9c9aebcee6f616c84e40d7,606c0d360f1813c85a8caba0,2021-04-06_02h28.12.743,Colour_Similarity_Experiment,2020.2.10,Win32,60,6067542a4a25243f4d7d4fcf,21.70909091,16.8742515,16.77286136,16.75298126,16.7454324,16.77286136,,,,,,,,,,,,,,,,,,,,PF,strong,3,,,,,,,,5,5.653,,,,,,,,,,,,,,,,,,,,,,,,,,,,6,strong,96,-35,1,0,0,response3disk,9,81,17,8,1,0,0,rectangle,-39,-72,1,0,0,3,3,1.89,2,-3,1,0,0,0,80,80,160,1,1,response5disk_3,rectangle,,,,,,,,,,,,,,,,,,,
,,,,,,,,,,,,,,,,,,,,,,,,,,,,,,,,,,,,,,,,,,5f9c9aebcee6f616c84e40d7,606c0d360f1813c85a8caba0,2021-04-06_02h28.12.743,Colour_Similarity_Experiment,2020.2.10,Win32,60,6067542a4a25243f4d7d4fcf,21.70909091,16.8742515,16.77286136,16.75298126,16.7454324,16.77286136,,,,,,,,,,,,,,,,,,,,PF,weak,3,,,,,,,,0,1.154,,,,,,,,,,,,,,,,,,,,,,,,,,,,6,weak,-21,47,1,0,0,response7disk,6,82,3,-1,1,0,0,rectangle,3,-1,1,0,0,3,4,0.001,3,-1,1,0,0,0,81,81,0,1,0,,,,,,,,,,,,,,,,,,,,,
,,,,,,,,,,,,,,,,,,,,,,,,,,,,,,,,,,,,,,,,,,5f9c9aebcee6f616c84e40d7,606c0d360f1813c85a8caba0,2021-04-06_02h28.12.743,Colour_Similarity_Experiment,2020.2.10,Win32,60,6067542a4a25243f4d7d4fcf,21.70909091,16.8742515,16.77286136,16.75298126,16.7454324,16.77286136,,,,,,,,,,,,,,,,,,,,PF,strong,3,,,,,,,,4,1.622,,,,,,,,,,,,,,,,,,,,,,,,,,,,4,strong,49,-62,1,0,0,response3disk,7,83,-6,-2,1,0,0,rectangle,-6,-2,1,0,0,3,6,0.001,-6,-2,1,0,0,0,82,82,87,1,0,,,,,,,,,,,,,,,,,,,,,
,,,,,,,,,,,,,,,,,,,,,,,,,,,,,,,,,,,,,,,,,,5f9c9aebcee6f616c84e40d7,606c0d360f1813c85a8caba0,2021-04-06_02h28.12.743,Colour_Similarity_Experiment,2020.2.10,Win32,60,6067542a4a25243f4d7d4fcf,21.70909091,16.8742515,16.77286136,16.75298126,16.7454324,16.77286136,,,,,,,,,,,,,,,,,,,,PF,weak,3,,,,,,,,5,1.672,,,,,,,,,,,,,,,,,,,,,,,,,,,,1,weak,81,-41,1,0,0,response3disk,5,84,18,-6,1,0,0,rectangle,18,-6,1,0,0,3,6,0,18,-6,1,0,0,0,83,83,28,1,0,,,,,,,,,,,,,,,,,,,,,
,,,,,,,,,,,,,,,,,,,,,,,,,,,,,,,,,,,,,,,,,,5f9c9aebcee6f616c84e40d7,606c0d360f1813c85a8caba0,2021-04-06_02h28.12.743,Colour_Similarity_Experiment,2020.2.10,Win32,60,6067542a4a25243f4d7d4fcf,21.70909091,16.8742515,16.77286136,16.75298126,16.7454324,16.77286136,,,,,,,,,,,,,,,,,,,,PF,strong,3,,,,,,,,0,1.02,,,,,,,,,,,,,,,,,,,,,,,,,,,,5,strong,-30,70,1,0,0,response7disk,5,85,11,4,1,0,0,rectangle,11,4,1,0,0,3,2,0.001,11,4,1,0,0,0,84,84,19,1,0,,,,,,,,,,,,,,,,,,,,,
,,,,,,,,,,,,,,,,,,,,,,,,,,,,,,,,,,,,,,,,,,5f9c9aebcee6f616c84e40d7,606c0d360f1813c85a8caba0,2021-04-06_02h28.12.743,Colour_Similarity_Experiment,2020.2.10,Win32,60,6067542a4a25243f4d7d4fcf,21.70909091,16.8742515,16.77286136,16.75298126,16.7454324,16.77286136,,,,,,,,,,,,,,,,,,,,PF,strong,3,,,,,,,,3,1.589,,,,,,,,,,,,,,,,,,,,,,,,,,,,5,strong,-30,-77,1,0,0,response5disk,3,86,0,-8,1,0,0,rectangle,0,-8,1,0,0,3,7,0.001,0,-8,1,0,0,0,85,85,25,1,0,,,,,,,,,,,,,,,,,,,,,
,,,,,,,,,,,,,,,,,,,,,,,,,,,,,,,,,,,,,,,,,,5f9c9aebcee6f616c84e40d7,606c0d360f1813c85a8caba0,2021-04-06_02h28.12.743,Colour_Similarity_Experiment,2020.2.10,Win32,60,6067542a4a25243f4d7d4fcf,21.70909091,16.8742515,16.77286136,16.75298126,16.7454324,16.77286136,,,,,,,,,,,,,,,,,,,,PF,strong,3,,,,,,,,4,1.222,,,,,,,,,,,,,,,,,,,,,,,,,,,,5,strong,28,-76,1,0,0,response3disk,4,87,-4,-6,1,0,0,rectangle,-4,-6,1,0,0,3,0,0.002,-4,-6,1,0,0,0,86,86,8,1,0,,,,,,,,,,,,,,,,,,,,,
,,,,,,,,,,,,,,,,,,,,,,,,,,,,,,,,,,,,,,,,,,5f9c9aebcee6f616c84e40d7,606c0d360f1813c85a8caba0,2021-04-06_02h28.12.743,Colour_Similarity_Experiment,2020.2.10,Win32,60,6067542a4a25243f4d7d4fcf,21.70909091,16.8742515,16.77286136,16.75298126,16.7454324,16.77286136,,,,,,,,,,,,,,,,,,,,PF,strong,3,,,,,,,,4,1.522,,,,,,,,,,,,,,,,,,,,,,,,,,,,3,strong,54,-74,1,0,0,response3disk,6,88,1,0,1,0,0,rectangle,1,0,1,0,0,3,6,0.001,1,0,1,0,0,0,87,87,95,1,0,,,,,,,,,,,,,,,,,,,,,
,,,,,,,,,,,,,,,,,,,,,,,,,,,,,,,,,,,,,,,,,,5f9c9aebcee6f616c84e40d7,606c0d360f1813c85a8caba0,2021-04-06_02h28.12.743,Colour_Similarity_Experiment,2020.2.10,Win32,60,6067542a4a25243f4d7d4fcf,21.70909091,16.8742515,16.77286136,16.75298126,16.7454324,16.77286136,,,,,,,,,,,,,,,,,,,,PF,strong,3,,,,,,,,6,1.806,,,,,,,,,,,,,,,,,,,,,,,,,,,,8,strong,87,21,1,0,0,response1disk,3,89,11,-9,1,0,0,rectangle,11,-9,1,0,0,3,7,0.002,11,-9,1,0,0,0,88,88,154,1,0,,,,,,,,,,,,,,,,,,,,,
,,,,,,,,,,,,,,,,,,,,,,,,,,,,,,,,,,,,,,,,,,5f9c9aebcee6f616c84e40d7,606c0d360f1813c85a8caba0,2021-04-06_02h28.12.743,Colour_Similarity_Experiment,2020.2.10,Win32,60,6067542a4a25243f4d7d4fcf,21.70909091,16.8742515,16.77286136,16.75298126,16.7454324,16.77286136,,,,,,,,,,,,,,,,,,,,PF,weak,3,,,,,,,,6,1.155,,,,,,,,,,,,,,,,,,,,,,,,,,,,1,weak,87,27,1,0,0,response1disk,3,90,24,-3,1,0,0,rectangle,24,-3,1,0,0,3,0,0.001,24,-3,1,0,0,0,89,89,1,1,0,,,,,,,,,,,,,,,,,,,,,
,,,,,,,,,,,,,,,,,,,,,,,,,,,,,,,,,,,,,,,,,,5f9c9aebcee6f616c84e40d7,606c0d360f1813c85a8caba0,2021-04-06_02h28.12.743,Colour_Similarity_Experiment,2020.2.10,Win32,60,6067542a4a25243f4d7d4fcf,21.70909091,16.8742515,16.77286136,16.75298126,16.7454324,16.77286136,,,,,,,,,,,,,,,,,,,,PF,weak,3,,,,,,,,4,1.472,,,,,,,,,,,,,,,,,,,,,,,,,,,,4,weak,35,-62,1,0,0,response3disk,5,91,17,-8,1,0,0,rectangle,17,-8,1,0,0,3,2,0.002,17,-8,1,0,0,0,90,90,49,1,0,,,,,,,,,,,,,,,,,,,,,
,,,,,,,,,,,,,,,,,,,,,,,,,,,,,,,,,,,,,,,,,,5f9c9aebcee6f616c84e40d7,606c0d360f1813c85a8caba0,2021-04-06_02h28.12.743,Colour_Similarity_Experiment,2020.2.10,Win32,60,6067542a4a25243f4d7d4fcf,21.70909091,16.8742515,16.77286136,16.75298126,16.7454324,16.77286136,,,,,,,,,,,,,,,,,,,,PF,strong,3,,,,,,,,3,1.706,,,,,,,,,,,,,,,,,,,,,,,,,,,,9,strong,-53,-70,1,0,0,response5disk,8,92,-4,4,1,0,0,rectangle,-4,4,1,0,0,3,0,0.001,-4,4,1,0,0,0,91,91,6,1,0,,,,,,,,,,,,,,,,,,,,,
,,,,,,,,,,,,,,,,,,,,,,,,,,,,,,,,,,,,,,,,,,5f9c9aebcee6f616c84e40d7,606c0d360f1813c85a8caba0,2021-04-06_02h28.12.743,Colour_Similarity_Experiment,2020.2.10,Win32,60,6067542a4a25243f4d7d4fcf,21.70909091,16.8742515,16.77286136,16.75298126,16.7454324,16.77286136,,,,,,,,,,,,,,,,,,,,PF,weak,3,,,,,,,,5,4.083,,,,,,,,,,,,,,,,,,,,,,,,,,,,9,weak,67,-53,1,0,0,response3disk,5,93,3,-3,1,0,0,rectangle,3,-3,1,0,0,3,2,0.001,3,-3,1,0,0,0,92,92,134,1,0,,,,,,,,,,,,,,,,,,,,,
,,,,,,,,,,,,,,,,,,,,,,,,,,,,,,,,,,,,,,,,,,5f9c9aebcee6f616c84e40d7,606c0d360f1813c85a8caba0,2021-04-06_02h28.12.743,Colour_Similarity_Experiment,2020.2.10,Win32,60,6067542a4a25243f4d7d4fcf,21.70909091,16.8742515,16.77286136,16.75298126,16.7454324,16.77286136,,,,,,,,,,,,,,,,,,,,PF,strong,3,,,,,,,,4,1.138,,,,,,,,,,,,,,,,,,,,,,,,,,,,3,strong,45,-61,1,0,0,response3disk,5,94,6,-8,1,0,0,rectangle,6,-8,1,0,0,3,2,0,6,-8,1,0,0,0,93,93,101,1,0,,,,,,,,,,,,,,,,,,,,,
,,,,,,,,,,,,,,,,,,,,,,,,,,,,,,,,,,,,,,,,,,5f9c9aebcee6f616c84e40d7,606c0d360f1813c85a8caba0,2021-04-06_02h28.12.743,Colour_Similarity_Experiment,2020.2.10,Win32,60,6067542a4a25243f4d7d4fcf,21.70909091,16.8742515,16.77286136,16.75298126,16.7454324,16.77286136,,,,,,,,,,,,,,,,,,,,PF,weak,3,,,,,,,,5,1.182,,,,,,,,,,,,,,,,,,,,,,,,,,,,2,weak,62,-38,1,0,0,response3disk,3,95,24,-3,1,0,0,rectangle,24,-3,1,0,0,3,0,0.002,24,-3,1,0,0,0,94,94,69,1,0,,,,,,,,,,,,,,,,,,,,,
,,,,,,,,,,,,,,,,,,,,,,,,,,,,,,,,,,,,,,,,,,5f9c9aebcee6f616c84e40d7,606c0d360f1813c85a8caba0,2021-04-06_02h28.12.743,Colour_Similarity_Experiment,2020.2.10,Win32,60,6067542a4a25243f4d7d4fcf,21.70909091,16.8742515,16.77286136,16.75298126,16.7454324,16.77286136,,,,,,,,,,,,,,,,,,,,PF,strong,3,,,,,,,,1,1.623,,,,,,,,,,,,,,,,,,,,,,,,,,,,7,strong,-54,52,1,0,0,response7disk,7,96,0,12,1,0,0,rectangle,0,12,1,0,0,3,3,0.001,0,12,1,0,0,0,95,95,34,1,0,,,,,,,,,,,,,,,,,,,,,
,,,,,,,,,,,,,,,,,,,,,,,,,,,,,,,,,,,,,,,,,,5f9c9aebcee6f616c84e40d7,606c0d360f1813c85a8caba0,2021-04-06_02h28.12.743,Colour_Similarity_Experiment,2020.2.10,Win32,60,6067542a4a25243f4d7d4fcf,21.70909091,16.8742515,16.77286136,16.75298126,16.7454324,16.77286136,,,,,,,,,,,,,,,,,,,,PF,strong,3,,,,,,,,4,1.236,,,,,,,,,,,,,,,,,,,,,,,,,,,,8,strong,50,-58,1,0,0,response3disk,7,97,10,-2,1,0,0,rectangle,10,-2,1,0,0,3,6,0.001,10,-2,1,0,0,0,96,96,86,1,0,,,,,,,,,,,,,,,,,,,,,
,,,,,,,,,,,,,,,,,,,,,,,,,,,,,,,,,,,,,,,,,,5f9c9aebcee6f616c84e40d7,606c0d360f1813c85a8caba0,2021-04-06_02h28.12.743,Colour_Similarity_Experiment,2020.2.10,Win32,60,6067542a4a25243f4d7d4fcf,21.70909091,16.8742515,16.77286136,16.75298126,16.7454324,16.77286136,,,,,,,,,,,,,,,,,,,,PF,strong,3,,,,,,,,5,1.004,,,,,,,,,,,,,,,,,,,,,,,,,,,,5,strong,60,-26,1,0,0,response3disk,2,98,11,-4,1,0,0,rectangle,-28,-86,1,0,0,3,3,2.04,-7,-2,1,0,0,0,97,97,55,1,1,response5disk_3,rectangle,,,,,,,,,,,,,,,,,,,
,,,,,,,,,,,,,,,,,,,,,,,,,,,,,,,,,,,,,,,,,,5f9c9aebcee6f616c84e40d7,606c0d360f1813c85a8caba0,2021-04-06_02h28.12.743,Colour_Similarity_Experiment,2020.2.10,Win32,60,6067542a4a25243f4d7d4fcf,21.70909091,16.8742515,16.77286136,16.75298126,16.7454324,16.77286136,,,,,,,,,,,,,,,,,,,,PF,strong,3,,,,,,,,5,0.919,,,,,,,,,,,,,,,,,,,,,,,,,,,,6,strong,57,-38,1,0,0,response3disk,8,99,-4,3,1,0,0,rectangle,-4,3,1,0,0,3,1,0.002,-4,3,1,0,0,0,98,98,133,1,0,,,,,,,,,,,,,,,,,,,,,
,,,,,,,,,,,,,,,,,,,,,,,,,,,,,,,,,,,,,,,,,,5f9c9aebcee6f616c84e40d7,606c0d360f1813c85a8caba0,2021-04-06_02h28.12.743,Colour_Similarity_Experiment,2020.2.10,Win32,60,6067542a4a25243f4d7d4fcf,21.70909091,16.8742515,16.77286136,16.75298126,16.7454324,16.77286136,,,,,,,,,,,,,,,,,,,,PF,strong,3,,,,,,,,5,1.205,,,,,,,,,,,,,,,,,,,,,,,,,,,,9,strong,70,-46,1,0,0,response3disk,7,100,-8,-7,1,0,0,rectangle,-8,-7,1,0,0,3,4,0.002,-8,-7,1,0,0,0,99,99,100,1,0,,,,,,,,,,,,,,,,,,,,,
,,,,,,,,,,,,,,,,,,,,,,,,,,,,,,,,,,,,,,,,,,5f9c9aebcee6f616c84e40d7,606c0d360f1813c85a8caba0,2021-04-06_02h28.12.743,Colour_Similarity_Experiment,2020.2.10,Win32,60,6067542a4a25243f4d7d4fcf,21.70909091,16.8742515,16.77286136,16.75298126,16.7454324,16.77286136,,,,,,,,,,,,,,,,,,,,PF,weak,3,,,,,,,,4,0.999,,,,,,,,,,,,,,,,,,,,,,,,,,,,8,weak,47,-62,1,0,0,response3disk,7,101,10,16,1,0,0,rectangle,10,16,1,0,0,3,0,0.001,10,16,1,0,0,0,100,100,23,1,0,,,,,,,,,,,,,,,,,,,,,
,,,,,,,,,,,,,,,,,,,,,,,,,,,,,,,,,,,,,,,,,,5f9c9aebcee6f616c84e40d7,606c0d360f1813c85a8caba0,2021-04-06_02h28.12.743,Colour_Similarity_Experiment,2020.2.10,Win32,60,6067542a4a25243f4d7d4fcf,21.70909091,16.8742515,16.77286136,16.75298126,16.7454324,16.77286136,,,,,,,,,,,,,,,,,,,,PF,strong,3,,,,,,,,6,1.555,,,,,,,,,,,,,,,,,,,,,,,,,,,,5,strong,80,22,1,0,0,response1disk,1,102,21,-7,1,0,0,rectangle,21,-7,1,0,0,3,2,0.002,21,-7,1,0,0,0,101,101,131,1,0,,,,,,,,,,,,,,,,,,,,,
,,,,,,,,,,,,,,,,,,,,,,,,,,,,,,,,,,,,,,,,,,5f9c9aebcee6f616c84e40d7,606c0d360f1813c85a8caba0,2021-04-06_02h28.12.743,Colour_Similarity_Experiment,2020.2.10,Win32,60,6067542a4a25243f4d7d4fcf,21.70909091,16.8742515,16.77286136,16.75298126,16.7454324,16.77286136,,,,,,,,,,,,,,,,,,,,PF,strong,3,,,,,,,,6,2.46,,,,,,,,,,,,,,,,,,,,,,,,,,,,1,strong,86,29,1,0,0,response1disk,7,103,25,-6,1,0,0,rectangle,25,-6,1,0,0,3,6,0.001,25,-6,1,0,0,0,102,102,137,1,0,,,,,,,,,,,,,,,,,,,,,
,,,,,,,,,,,,,,,,,,,,,,,,,,,,,,,,,,,,,,,,,,5f9c9aebcee6f616c84e40d7,606c0d360f1813c85a8caba0,2021-04-06_02h28.12.743,Colour_Similarity_Experiment,2020.2.10,Win32,60,6067542a4a25243f4d7d4fcf,21.70909091,16.8742515,16.77286136,16.75298126,16.7454324,16.77286136,,,,,,,,,,,,,,,,,,,,PF,weak,3,,,,,,,,3,1.288,,,,,,,,,,,,,,,,,,,,,,,,,,,,4,weak,-34,-51,1,0,0,response5disk,3,104,18,-5,1,0,0,rectangle,18,-5,1,0,0,3,0,0.001,18,-5,1,0,0,0,103,103,89,1,0,,,,,,,,,,,,,,,,,,,,,
,,,,,,,,,,,,,,,,,,,,,,,,,,,,,,,,,,,,,,,,,,5f9c9aebcee6f616c84e40d7,606c0d360f1813c85a8caba0,2021-04-06_02h28.12.743,Colour_Similarity_Experiment,2020.2.10,Win32,60,6067542a4a25243f4d7d4fcf,21.70909091,16.8742515,16.77286136,16.75298126,16.7454324,16.77286136,,,,,,,,,,,,,,,,,,,,PF,weak,3,,,,,,,,3,2.041,,,,,,,,,,,,,,,,,,,,,,,,,,,,8,weak,-58,-64,1,0,0,response5disk,1,105,-1,-10,1,0,0,rectangle,-1,-10,1,0,0,3,0,0,-1,-10,1,0,0,0,104,104,57,1,0,,,,,,,,,,,,,,,,,,,,,
,,,,,,,,,,,,,,,,,,,,,,,,,,,,,,,,,,,,,,,,,,5f9c9aebcee6f616c84e40d7,606c0d360f1813c85a8caba0,2021-04-06_02h28.12.743,Colour_Similarity_Experiment,2020.2.10,Win32,60,6067542a4a25243f4d7d4fcf,21.70909091,16.8742515,16.77286136,16.75298126,16.7454324,16.77286136,,,,,,,,,,,,,,,,,,,,PF,weak,3,,,,,,,,4,1.021,,,,,,,,,,,,,,,,,,,,,,,,,,,,9,weak,26,-52,1,0,0,response3disk,7,106,8,-6,1,0,0,rectangle,8,-6,1,0,0,3,0,0.001,8,-6,1,0,0,0,105,105,121,1,0,,,,,,,,,,,,,,,,,,,,,
,,,,,,,,,,,,,,,,,,,,,,,,,,,,,,,,,,,,,,,,,,5f9c9aebcee6f616c84e40d7,606c0d360f1813c85a8caba0,2021-04-06_02h28.12.743,Colour_Similarity_Experiment,2020.2.10,Win32,60,6067542a4a25243f4d7d4fcf,21.70909091,16.8742515,16.77286136,16.75298126,16.7454324,16.77286136,,,,,,,,,,,,,,,,,,,,PF,strong,3,,,,,,,,6,1.27,,,,,,,,,,,,,,,,,,,,,,,,,,,,9,strong,90,25,1,0,0,response1disk,3,107,20,-6,1,0,0,rectangle,20,-6,1,0,0,3,4,0.002,20,-6,1,0,0,0,106,106,141,1,0,,,,,,,,,,,,,,,,,,,,,
,,,,,,,,,,,,,,,,,,,,,,,,,,,,,,,,,,,,,,,,,,5f9c9aebcee6f616c84e40d7,606c0d360f1813c85a8caba0,2021-04-06_02h28.12.743,Colour_Similarity_Experiment,2020.2.10,Win32,60,6067542a4a25243f4d7d4fcf,21.70909091,16.8742515,16.77286136,16.75298126,16.7454324,16.77286136,,,,,,,,,,,,,,,,,,,,PF,weak,3,,,,,,,,0,0.904,,,,,,,,,,,,,,,,,,,,,,,,,,,,7,weak,-32,62,1,0,0,response7disk,7,108,6,0,1,0,0,rectangle,6,0,1,0,0,3,6,0.002,6,0,1,0,0,0,107,107,51,1,0,,,,,,,,,,,,,,,,,,,,,
,,,,,,,,,,,,,,,,,,,,,,,,,,,,,,,,,,,,,,,,,,5f9c9aebcee6f616c84e40d7,606c0d360f1813c85a8caba0,2021-04-06_02h28.12.743,Colour_Similarity_Experiment,2020.2.10,Win32,60,6067542a4a25243f4d7d4fcf,21.70909091,16.8742515,16.77286136,16.75298126,16.7454324,16.77286136,,,,,,,,,,,,,,,,,,,,PF,strong,3,,,,,,,,6,1.456,,,,,,,,,,,,,,,,,,,,,,,,,,,,8,strong,74,20,1,0,0,response1disk,2,109,15,-2,1,0,0,rectangle,15,-2,1,0,0,3,4,0.003,15,-2,1,0,0,0,108,108,22,1,0,,,,,,,,,,,,,,,,,,,,,
,,,,,,,,,,,,,,,,,,,,,,,,,,,,,,,,,,,,,,,,,,5f9c9aebcee6f616c84e40d7,606c0d360f1813c85a8caba0,2021-04-06_02h28.12.743,Colour_Similarity_Experiment,2020.2.10,Win32,60,6067542a4a25243f4d7d4fcf,21.70909091,16.8742515,16.77286136,16.75298126,16.7454324,16.77286136,,,,,,,,,,,,,,,,,,,,PF,strong,3,,,,,,,,6,0.719,,,,,,,,,,,,,,,,,,,,,,,,,,,,9,strong,73,23,1,0,0,response1disk,2,110,18,1,1,0,0,rectangle,73,-38,1,0,0,5,5,1.472,18,-15,1,0,0,0,109,109,11,1,1,response3disk_3,rectangle,,,,,,,,,,,,,,,,,,,
,,,,,,,,,,,,,,,,,,,,,,,,,,,,,,,,,,,,,,,,,,5f9c9aebcee6f616c84e40d7,606c0d360f1813c85a8caba0,2021-04-06_02h28.12.743,Colour_Similarity_Experiment,2020.2.10,Win32,60,6067542a4a25243f4d7d4fcf,21.70909091,16.8742515,16.77286136,16.75298126,16.7454324,16.77286136,,,,,,,,,,,,,,,,,,,,PF,weak,3,,,,,,,,2,1.003,,,,,,,,,,,,,,,,,,,,,,,,,,,,7,weak,-46,-40,1,0,0,response5disk,5,111,0,-6,1,0,0,rectangle,0,-6,1,0,0,5,7,0.001,0,-6,1,0,0,0,110,110,92,1,0,,,,,,,,,,,,,,,,,,,,,
,,,,,,,,,,,,,,,,,,,,,,,,,,,,,,,,,,,,,,,,,,5f9c9aebcee6f616c84e40d7,606c0d360f1813c85a8caba0,2021-04-06_02h28.12.743,Colour_Similarity_Experiment,2020.2.10,Win32,60,6067542a4a25243f4d7d4fcf,21.70909091,16.8742515,16.77286136,16.75298126,16.7454324,16.77286136,,,,,,,,,,,,,,,,,,,,PF,weak,3,,,,,,,,6,0.868,,,,,,,,,,,,,,,,,,,,,,,,,,,,5,weak,66,26,1,0,0,response1disk,1,112,3,-11,1,0,0,rectangle,62,34,1,0,0,6,6,2.04,18,5,1,0,0,0,111,111,159,1,1,response1disk_3,rectangle,,,,,,,,,,,,,,,,,,,
,,,,,,,,,,,,,,,,,,,,,,,,,,,,,,,,,,,,,,,,,,5f9c9aebcee6f616c84e40d7,606c0d360f1813c85a8caba0,2021-04-06_02h28.12.743,Colour_Similarity_Experiment,2020.2.10,Win32,60,6067542a4a25243f4d7d4fcf,21.70909091,16.8742515,16.77286136,16.75298126,16.7454324,16.77286136,,,,,,,,,,,,,,,,,,,,PF,strong,3,,,,,,,,6,1.372,,,,,,,,,,,,,,,,,,,,,,,,,,,,4,strong,90,36,1,0,0,response1disk,8,113,22,0,1,0,0,rectangle,22,0,1,0,0,6,6,0,22,0,1,0,0,0,112,112,35,1,0,,,,,,,,,,,,,,,,,,,,,
,,,,,,,,,,,,,,,,,,,,,,,,,,,,,,,,,,,,,,,,,,5f9c9aebcee6f616c84e40d7,606c0d360f1813c85a8caba0,2021-04-06_02h28.12.743,Colour_Similarity_Experiment,2020.2.10,Win32,60,6067542a4a25243f4d7d4fcf,21.70909091,16.8742515,16.77286136,16.75298126,16.7454324,16.77286136,,,,,,,,,,,,,,,,,,,,PF,strong,3,,,,,,,,3,1.622,,,,,,,,,,,,,,,,,,,,,,,,,,,,3,strong,-39,-60,1,0,0,response5disk,4,114,3,3,1,0,0,rectangle,3,3,1,0,0,6,4,0.002,3,3,1,0,0,0,113,113,110,1,0,,,,,,,,,,,,,,,,,,,,,
,,,,,,,,,,,,,,,,,,,,,,,,,,,,,,,,,,,,,,,,,,5f9c9aebcee6f616c84e40d7,606c0d360f1813c85a8caba0,2021-04-06_02h28.12.743,Colour_Similarity_Experiment,2020.2.10,Win32,60,6067542a4a25243f4d7d4fcf,21.70909091,16.8742515,16.77286136,16.75298126,16.7454324,16.77286136,,,,,,,,,,,,,,,,,,,,PF,weak,3,,,,,,,,5,1.405,,,,,,,,,,,,,,,,,,,,,,,,,,,,2,weak,61,-43,1,0,0,response3disk,6,115,3,-6,1,0,0,rectangle,3,-6,1,0,0,6,0,0.002,3,-6,1,0,0,0,114,114,113,1,0,,,,,,,,,,,,,,,,,,,,,
,,,,,,,,,,,,,,,,,,,,,,,,,,,,,,,,,,,,,,,,,,5f9c9aebcee6f616c84e40d7,606c0d360f1813c85a8caba0,2021-04-06_02h28.12.743,Colour_Similarity_Experiment,2020.2.10,Win32,60,6067542a4a25243f4d7d4fcf,21.70909091,16.8742515,16.77286136,16.75298126,16.7454324,16.77286136,,,,,,,,,,,,,,,,,,,,PF,weak,3,,,,,,,,0,0.903,,,,,,,,,,,,,,,,,,,,,,,,,,,,5,weak,-33,57,1,0,0,response7disk,6,116,-7,-4,1,0,0,rectangle,-7,-4,1,0,0,6,2,0.001,-7,-4,1,0,0,0,115,115,103,1,0,,,,,,,,,,,,,,,,,,,,,
,,,,,,,,,,,,,,,,,,,,,,,,,,,,,,,,,,,,,,,,,,5f9c9aebcee6f616c84e40d7,606c0d360f1813c85a8caba0,2021-04-06_02h28.12.743,Colour_Similarity_Experiment,2020.2.10,Win32,60,6067542a4a25243f4d7d4fcf,21.70909091,16.8742515,16.77286136,16.75298126,16.7454324,16.77286136,,,,,,,,,,,,,,,,,,,,PF,weak,3,,,,,,,,6,0.936,,,,,,,,,,,,,,,,,,,,,,,,,,,,5,weak,71,26,1,0,0,response1disk,8,117,-3,-14,1,0,0,rectangle,-3,-14,1,0,0,6,5,0.001,-3,-14,1,0,0,0,116,116,149,1,0,,,,,,,,,,,,,,,,,,,,,
,,,,,,,,,,,,,,,,,,,,,,,,,,,,,,,,,,,,,,,,,,5f9c9aebcee6f616c84e40d7,606c0d360f1813c85a8caba0,2021-04-06_02h28.12.743,Colour_Similarity_Experiment,2020.2.10,Win32,60,6067542a4a25243f4d7d4fcf,21.70909091,16.8742515,16.77286136,16.75298126,16.7454324,16.77286136,,,,,,,,,,,,,,,,,,,,PF,weak,3,,,,,,,,6,1.272,,,,,,,,,,,,,,,,,,,,,,,,,,,,2,weak,69,29,1,0,0,response1disk,9,118,-13,-17,1,0,0,rectangle,-13,-17,1,0,0,6,5,0,-13,-17,1,0,0,0,117,117,39,1,0,,,,,,,,,,,,,,,,,,,,,
,,,,,,,,,,,,,,,,,,,,,,,,,,,,,,,,,,,,,,,,,,5f9c9aebcee6f616c84e40d7,606c0d360f1813c85a8caba0,2021-04-06_02h28.12.743,Colour_Similarity_Experiment,2020.2.10,Win32,60,6067542a4a25243f4d7d4fcf,21.70909091,16.8742515,16.77286136,16.75298126,16.7454324,16.77286136,,,,,,,,,,,,,,,,,,,,PF,strong,3,,,,,,,,5,3.061,,,,,,,,,,,,,,,,,,,,,,,,,,,,5,strong,62,-51,1,0,0,response3disk,9,119,20,-12,1,0,0,rectangle,20,-12,1,0,0,6,2,0.001,20,-12,1,0,0,0,118,118,61,1,0,,,,,,,,,,,,,,,,,,,,,
,,,,,,,,,,,,,,,,,,,,,,,,,,,,,,,,,,,,,,,,,,5f9c9aebcee6f616c84e40d7,606c0d360f1813c85a8caba0,2021-04-06_02h28.12.743,Colour_Similarity_Experiment,2020.2.10,Win32,60,6067542a4a25243f4d7d4fcf,21.70909091,16.8742515,16.77286136,16.75298126,16.7454324,16.77286136,,,,,,,,,,,,,,,,,,,,PF,weak,3,,,,,,,,5,1.355,,,,,,,,,,,,,,,,,,,,,,,,,,,,2,weak,46,-30,1,0,0,response3disk,7,120,-11,-14,1,0,0,rectangle,-11,-14,1,0,0,6,3,0.001,-11,-14,1,0,0,0,119,119,107,1,0,,,,,,,,,,,,,,,,,,,,,
,,,,,,,,,,,,,,,,,,,,,,,,,,,,,,,,,,,,,,,,,,5f9c9aebcee6f616c84e40d7,606c0d360f1813c85a8caba0,2021-04-06_02h28.12.743,Colour_Similarity_Experiment,2020.2.10,Win32,60,6067542a4a25243f4d7d4fcf,21.70909091,16.8742515,16.77286136,16.75298126,16.7454324,16.77286136,,,,,,,,,,,,,,,,,,,,PF,weak,3,,,,,,,,6,1.39,,,,,,,,,,,,,,,,,,,,,,,,,,,,4,weak,91,36,1,0,0,response1disk,9,121,20,2,1,0,0,rectangle,20,2,1,0,0,6,6,0.002,20,2,1,0,0,0,120,120,75,1,0,,,,,,,,,,,,,,,,,,,,,
,,,,,,,,,,,,,,,,,,,,,,,,,,,,,,,,,,,,,,,,,,5f9c9aebcee6f616c84e40d7,606c0d360f1813c85a8caba0,2021-04-06_02h28.12.743,Colour_Similarity_Experiment,2020.2.10,Win32,60,6067542a4a25243f4d7d4fcf,21.70909091,16.8742515,16.77286136,16.75298126,16.7454324,16.77286136,,,,,,,,,,,,,,,,,,,,PF,strong,3,,,,,,,,1,1.422,,,,,,,,,,,,,,,,,,,,,,,,,,,,6,strong,-62,26,1,0,0,response7disk,5,122,-11,-1,1,0,0,rectangle,-11,-1,1,0,0,6,7,0.001,-11,-1,1,0,0,0,121,121,126,1,0,,,,,,,,,,,,,,,,,,,,,
,,,,,,,,,,,,,,,,,,,,,,,,,,,,,,,,,,,,,,,,,,5f9c9aebcee6f616c84e40d7,606c0d360f1813c85a8caba0,2021-04-06_02h28.12.743,Colour_Similarity_Experiment,2020.2.10,Win32,60,6067542a4a25243f4d7d4fcf,21.70909091,16.8742515,16.77286136,16.75298126,16.7454324,16.77286136,,,,,,,,,,,,,,,,,,,,PF,strong,3,,,,,,,,6,1.07,,,,,,,,,,,,,,,,,,,,,,,,,,,,4,strong,80,29,1,0,0,response1disk,9,123,2,-1,1,0,0,rectangle,2,-1,1,0,0,6,3,0,2,-1,1,0,0,0,122,122,90,1,0,,,,,,,,,,,,,,,,,,,,,
,,,,,,,,,,,,,,,,,,,,,,,,,,,,,,,,,,,,,,,,,,5f9c9aebcee6f616c84e40d7,606c0d360f1813c85a8caba0,2021-04-06_02h28.12.743,Colour_Similarity_Experiment,2020.2.10,Win32,60,6067542a4a25243f4d7d4fcf,21.70909091,16.8742515,16.77286136,16.75298126,16.7454324,16.77286136,,,,,,,,,,,,,,,,,,,,PF,strong,3,,,,,,,,7,2.341,,,,,,,,,,,,,,,,,,,,,,,,,,,,2,strong,46,70,1,0,0,response1disk,7,124,14,6,1,0,0,rectangle,14,6,1,0,0,6,6,0.002,14,6,1,0,0,0,123,123,63,1,0,,,,,,,,,,,,,,,,,,,,,
,,,,,,,,,,,,,,,,,,,,,,,,,,,,,,,,,,,,,,,,,,5f9c9aebcee6f616c84e40d7,606c0d360f1813c85a8caba0,2021-04-06_02h28.12.743,Colour_Similarity_Experiment,2020.2.10,Win32,60,6067542a4a25243f4d7d4fcf,21.70909091,16.8742515,16.77286136,16.75298126,16.7454324,16.77286136,,,,,,,,,,,,,,,,,,,,PF,strong,3,,,,,,,,3,1.439,,,,,,,,,,,,,,,,,,,,,,,,,,,,2,strong,-30,-50,1,0,0,response5disk,3,125,4,10,1,0,0,rectangle,-34,95,1,0,0,0,0,1.438,10,3,1,0,0,0,124,124,104,1,1,response7disk_3,rectangle,,,,,,,,,,,,,,,,,,,
,,,,,,,,,,,,,,,,,,,,,,,,,,,,,,,,,,,,,,,,,,5f9c9aebcee6f616c84e40d7,606c0d360f1813c85a8caba0,2021-04-06_02h28.12.743,Colour_Similarity_Experiment,2020.2.10,Win32,60,6067542a4a25243f4d7d4fcf,21.70909091,16.8742515,16.77286136,16.75298126,16.7454324,16.77286136,,,,,,,,,,,,,,,,,,,,PF,weak,3,,,,,,,,4,2.091,,,,,,,,,,,,,,,,,,,,,,,,,,,,4,weak,28,-85,1,0,0,response3disk,7,126,2,-8,1,0,0,rectangle,2,-8,1,0,0,0,1,0.001,2,-8,1,0,0,0,125,125,38,1,0,,,,,,,,,,,,,,,,,,,,,
,,,,,,,,,,,,,,,,,,,,,,,,,,,,,,,,,,,,,,,,,,5f9c9aebcee6f616c84e40d7,606c0d360f1813c85a8caba0,2021-04-06_02h28.12.743,Colour_Similarity_Experiment,2020.2.10,Win32,60,6067542a4a25243f4d7d4fcf,21.70909091,16.8742515,16.77286136,16.75298126,16.7454324,16.77286136,,,,,,,,,,,,,,,,,,,,PF,weak,3,,,,,,,,4,1.288,,,,,,,,,,,,,,,,,,,,,,,,,,,,5,weak,35,-86,1,0,0,response3disk,3,127,7,-13,1,0,0,rectangle,7,-13,1,0,0,0,4,0.001,7,-13,1,0,0,0,126,126,109,1,0,,,,,,,,,,,,,,,,,,,,,
,,,,,,,,,,,,,,,,,,,,,,,,,,,,,,,,,,,,,,,,,,5f9c9aebcee6f616c84e40d7,606c0d360f1813c85a8caba0,2021-04-06_02h28.12.743,Colour_Similarity_Experiment,2020.2.10,Win32,60,6067542a4a25243f4d7d4fcf,21.70909091,16.8742515,16.77286136,16.75298126,16.7454324,16.77286136,,,,,,,,,,,,,,,,,,,,PF,strong,3,,,,,,,,5,2.041,,,,,,,,,,,,,,,,,,,,,,,,,,,,7,strong,83,-54,1,0,0,response3disk,4,128,7,-4,1,0,0,rectangle,7,-4,1,0,0,0,7,0.001,7,-4,1,0,0,0,127,127,158,1,0,,,,,,,,,,,,,,,,,,,,,
,,,,,,,,,,,,,,,,,,,,,,,,,,,,,,,,,,,,,,,,,,5f9c9aebcee6f616c84e40d7,606c0d360f1813c85a8caba0,2021-04-06_02h28.12.743,Colour_Similarity_Experiment,2020.2.10,Win32,60,6067542a4a25243f4d7d4fcf,21.70909091,16.8742515,16.77286136,16.75298126,16.7454324,16.77286136,,,,,,,,,,,,,,,,,,,,PF,weak,3,,,,,,,,5,3.194,,,,,,,,,,,,,,,,,,,,,,,,,,,,3,weak,54,-26,1,0,0,response3disk,7,129,19,-7,1,0,0,rectangle,19,-7,1,0,0,0,6,0,19,-7,1,0,0,0,128,128,41,1,0,,,,,,,,,,,,,,,,,,,,,
,,,,,,,,,,,,,,,,,,,,,,,,,,,,,,,,,,,,,,,,,,5f9c9aebcee6f616c84e40d7,606c0d360f1813c85a8caba0,2021-04-06_02h28.12.743,Colour_Similarity_Experiment,2020.2.10,Win32,60,6067542a4a25243f4d7d4fcf,21.70909091,16.8742515,16.77286136,16.75298126,16.7454324,16.77286136,,,,,,,,,,,,,,,,,,,,PF,strong,3,,,,,,,,6,1.455,,,,,,,,,,,,,,,,,,,,,,,,,,,,8,strong,74,19,1,0,0,response1disk,4,130,19,-2,1,0,0,rectangle,19,-2,1,0,0,0,1,0.001,19,-2,1,0,0,0,129,129,88,1,0,,,,,,,,,,,,,,,,,,,,,
,,,,,,,,,,,,,,,,,,,,,,,,,,,,,,,,,,,,,,,,,,5f9c9aebcee6f616c84e40d7,606c0d360f1813c85a8caba0,2021-04-06_02h28.12.743,Colour_Similarity_Experiment,2020.2.10,Win32,60,6067542a4a25243f4d7d4fcf,21.70909091,16.8742515,16.77286136,16.75298126,16.7454324,16.77286136,,,,,,,,,,,,,,,,,,,,PF,weak,3,,,,,,,,4,1.087,,,,,,,,,,,,,,,,,,,,,,,,,,,,6,weak,42,-63,1,0,0,response3disk,8,131,14,-15,1,0,0,rectangle,14,-15,1,0,0,0,5,0.002,14,-15,1,0,0,0,130,130,64,1,0,,,,,,,,,,,,,,,,,,,,,
,,,,,,,,,,,,,,,,,,,,,,,,,,,,,,,,,,,,,,,,,,5f9c9aebcee6f616c84e40d7,606c0d360f1813c85a8caba0,2021-04-06_02h28.12.743,Colour_Similarity_Experiment,2020.2.10,Win32,60,6067542a4a25243f4d7d4fcf,21.70909091,16.8742515,16.77286136,16.75298126,16.7454324,16.77286136,,,,,,,,,,,,,,,,,,,,PF,strong,3,,,,,,,,4,1.84,,,,,,,,,,,,,,,,,,,,,,,,,,,,6,strong,31,-55,1,0,0,response3disk,1,132,15,1,1,0,0,rectangle,15,1,1,0,0,0,7,0.001,15,1,1,0,0,0,131,131,5,1,0,,,,,,,,,,,,,,,,,,,,,
,,,,,,,,,,,,,,,,,,,,,,,,,,,,,,,,,,,,,,,,,,5f9c9aebcee6f616c84e40d7,606c0d360f1813c85a8caba0,2021-04-06_02h28.12.743,Colour_Similarity_Experiment,2020.2.10,Win32,60,6067542a4a25243f4d7d4fcf,21.70909091,16.8742515,16.77286136,16.75298126,16.7454324,16.77286136,,,,,,,,,,,,,,,,,,,,PF,weak,3,,,,,,,,4,0.987,,,,,,,,,,,,,,,,,,,,,,,,,,,,7,weak,34,-66,1,0,0,response3disk,3,133,11,6,1,0,0,rectangle,11,6,1,0,0,0,7,0,11,6,1,0,0,0,132,132,81,1,0,,,,,,,,,,,,,,,,,,,,,
,,,,,,,,,,,,,,,,,,,,,,,,,,,,,,,,,,,,,,,,,,5f9c9aebcee6f616c84e40d7,606c0d360f1813c85a8caba0,2021-04-06_02h28.12.743,Colour_Similarity_Experiment,2020.2.10,Win32,60,6067542a4a25243f4d7d4fcf,21.70909091,16.8742515,16.77286136,16.75298126,16.7454324,16.77286136,,,,,,,,,,,,,,,,,,,,PF,strong,3,,,,,,,,6,1.104,,,,,,,,,,,,,,,,,,,,,,,,,,,,9,strong,85,35,1,0,0,response1disk,6,134,21,1,1,0,0,rectangle,21,1,1,0,0,0,6,0.001,21,1,1,0,0,0,133,133,117,1,0,,,,,,,,,,,,,,,,,,,,,
,,,,,,,,,,,,,,,,,,,,,,,,,,,,,,,,,,,,,,,,,,5f9c9aebcee6f616c84e40d7,606c0d360f1813c85a8caba0,2021-04-06_02h28.12.743,Colour_Similarity_Experiment,2020.2.10,Win32,60,6067542a4a25243f4d7d4fcf,21.70909091,16.8742515,16.77286136,16.75298126,16.7454324,16.77286136,,,,,,,,,,,,,,,,,,,,PF,strong,3,,,,,,,,6,1.003,,,,,,,,,,,,,,,,,,,,,,,,,,,,5,strong,88,31,1,0,0,response1disk,8,135,26,11,1,0,0,rectangle,26,11,1,0,0,0,4,0.001,26,11,1,0,0,0,134,134,16,1,0,,,,,,,,,,,,,,,,,,,,,
,,,,,,,,,,,,,,,,,,,,,,,,,,,,,,,,,,,,,,,,,,5f9c9aebcee6f616c84e40d7,606c0d360f1813c85a8caba0,2021-04-06_02h28.12.743,Colour_Similarity_Experiment,2020.2.10,Win32,60,6067542a4a25243f4d7d4fcf,21.70909091,16.8742515,16.77286136,16.75298126,16.7454324,16.77286136,,,,,,,,,,,,,,,,,,,,PF,strong,3,,,,,,,,7,1.155,,,,,,,,,,,,,,,,,,,,,,,,,,,,7,strong,49,102,1,0,0,response1disk,2,136,10,10,1,0,0,rectangle,10,10,1,0,0,0,6,0.002,10,10,1,0,0,0,135,135,138,1,0,,,,,,,,,,,,,,,,,,,,,
,,,,,,,,,,,,,,,,,,,,,,,,,,,,,,,,,,,,,,,,,,5f9c9aebcee6f616c84e40d7,606c0d360f1813c85a8caba0,2021-04-06_02h28.12.743,Colour_Similarity_Experiment,2020.2.10,Win32,60,6067542a4a25243f4d7d4fcf,21.70909091,16.8742515,16.77286136,16.75298126,16.7454324,16.77286136,,,,,,,,,,,,,,,,,,,,PF,strong,3,,,,,,,,0,1.07,,,,,,,,,,,,,,,,,,,,,,,,,,,,1,strong,-32,74,1,0,0,response7disk,1,137,-2,9,1,0,0,rectangle,-2,9,1,0,0,0,2,0.002,-2,9,1,0,0,0,136,136,151,1,0,,,,,,,,,,,,,,,,,,,,,
,,,,,,,,,,,,,,,,,,,,,,,,,,,,,,,,,,,,,,,,,,5f9c9aebcee6f616c84e40d7,606c0d360f1813c85a8caba0,2021-04-06_02h28.12.743,Colour_Similarity_Experiment,2020.2.10,Win32,60,6067542a4a25243f4d7d4fcf,21.70909091,16.8742515,16.77286136,16.75298126,16.7454324,16.77286136,,,,,,,,,,,,,,,,,,,,PF,weak,3,,,,,,,,0,0.937,,,,,,,,,,,,,,,,,,,,,,,,,,,,3,weak,-44,98,1,0,0,response7disk,3,138,2,-4,1,0,0,rectangle,2,-4,1,0,0,0,0,0.001,2,-4,1,0,0,0,137,137,4,1,0,,,,,,,,,,,,,,,,,,,,,
,,,,,,,,,,,,,,,,,,,,,,,,,,,,,,,,,,,,,,,,,,5f9c9aebcee6f616c84e40d7,606c0d360f1813c85a8caba0,2021-04-06_02h28.12.743,Colour_Similarity_Experiment,2020.2.10,Win32,60,6067542a4a25243f4d7d4fcf,21.70909091,16.8742515,16.77286136,16.75298126,16.7454324,16.77286136,,,,,,,,,,,,,,,,,,,,PF,weak,3,,,,,,,,6,0.97,,,,,,,,,,,,,,,,,,,,,,,,,,,,8,weak,58,18,1,0,0,response1disk,4,139,10,7,1,0,0,rectangle,10,7,1,0,0,0,3,0.002,10,7,1,0,0,0,138,138,78,1,0,,,,,,,,,,,,,,,,,,,,,
,,,,,,,,,,,,,,,,,,,,,,,,,,,,,,,,,,,,,,,,,,5f9c9aebcee6f616c84e40d7,606c0d360f1813c85a8caba0,2021-04-06_02h28.12.743,Colour_Similarity_Experiment,2020.2.10,Win32,60,6067542a4a25243f4d7d4fcf,21.70909091,16.8742515,16.77286136,16.75298126,16.7454324,16.77286136,,,,,,,,,,,,,,,,,,,,PF,strong,3,,,,,,,,4,2.058,,,,,,,,,,,,,,,,,,,,,,,,,,,,1,strong,45,-58,1,0,0,response3disk,5,140,10,-2,1,0,0,rectangle,10,-2,1,0,0,0,2,0.001,10,-2,1,0,0,0,139,139,82,1,0,,,,,,,,,,,,,,,,,,,,,
,,,,,,,,,,,,,,,,,,,,,,,,,,,,,,,,,,,,,,,,,,5f9c9aebcee6f616c84e40d7,606c0d360f1813c85a8caba0,2021-04-06_02h28.12.743,Colour_Similarity_Experiment,2020.2.10,Win32,60,6067542a4a25243f4d7d4fcf,21.70909091,16.8742515,16.77286136,16.75298126,16.7454324,16.77286136,,,,,,,,,,,,,,,,,,,,PF,strong,3,,,,,,,,4,1.589,,,,,,,,,,,,,,,,,,,,,,,,,,,,9,strong,34,-53,1,0,0,response3disk,5,141,6,-3,1,0,0,rectangle,6,-3,1,0,0,0,0,0.001,6,-3,1,0,0,0,140,140,128,1,0,,,,,,,,,,,,,,,,,,,,,
,,,,,,,,,,,,,,,,,,,,,,,,,,,,,,,,,,,,,,,,,,5f9c9aebcee6f616c84e40d7,606c0d360f1813c85a8caba0,2021-04-06_02h28.12.743,Colour_Similarity_Experiment,2020.2.10,Win32,60,6067542a4a25243f4d7d4fcf,21.70909091,16.8742515,16.77286136,16.75298126,16.7454324,16.77286136,,,,,,,,,,,,,,,,,,,,PF,weak,3,,,,,,,,0,0.92,,,,,,,,,,,,,,,,,,,,,,,,,,,,9,weak,-29,81,1,0,0,response7disk,9,142,2,6,1,0,0,rectangle,2,6,1,0,0,0,5,0.001,2,6,1,0,0,0,141,141,106,1,0,,,,,,,,,,,,,,,,,,,,,
,,,,,,,,,,,,,,,,,,,,,,,,,,,,,,,,,,,,,,,,,,5f9c9aebcee6f616c84e40d7,606c0d360f1813c85a8caba0,2021-04-06_02h28.12.743,Colour_Similarity_Experiment,2020.2.10,Win32,60,6067542a4a25243f4d7d4fcf,21.70909091,16.8742515,16.77286136,16.75298126,16.7454324,16.77286136,,,,,,,,,,,,,,,,,,,,PF,weak,3,,,,,,,,2,2.91,,,,,,,,,,,,,,,,,,,,,,,,,,,,3,weak,-71,-50,1,0,0,response5disk,4,143,-12,-5,1,0,0,rectangle,-12,-5,1,0,0,0,3,0.002,-12,-5,1,0,0,0,142,142,30,1,0,,,,,,,,,,,,,,,,,,,,,
,,,,,,,,,,,,,,,,,,,,,,,,,,,,,,,,,,,,,,,,,,5f9c9aebcee6f616c84e40d7,606c0d360f1813c85a8caba0,2021-04-06_02h28.12.743,Colour_Similarity_Experiment,2020.2.10,Win32,60,6067542a4a25243f4d7d4fcf,21.70909091,16.8742515,16.77286136,16.75298126,16.7454324,16.77286136,,,,,,,,,,,,,,,,,,,,PF,strong,3,,,,,,,,4,1.12,,,,,,,,,,,,,,,,,,,,,,,,,,,,6,strong,30,-68,1,0,0,response3disk,4,144,1,-7,1,0,0,rectangle,1,-7,1,0,0,0,3,0.001,1,-7,1,0,0,0,143,143,56,1,0,,,,,,,,,,,,,,,,,,,,,
,,,,,,,,,,,,,,,,,,,,,,,,,,,,,,,,,,,,,,,,,,5f9c9aebcee6f616c84e40d7,606c0d360f1813c85a8caba0,2021-04-06_02h28.12.743,Colour_Similarity_Experiment,2020.2.10,Win32,60,6067542a4a25243f4d7d4fcf,21.70909091,16.8742515,16.77286136,16.75298126,16.7454324,16.77286136,,,,,,,,,,,,,,,,,,,,PF,weak,3,,,,,,,,4,1.037,,,,,,,,,,,,,,,,,,,,,,,,,,,,3,weak,28,-75,1,0,0,response3disk,5,145,2,-10,1,0,0,rectangle,2,-10,1,0,0,0,4,0.001,2,-10,1,0,0,0,144,144,66,1,0,,,,,,,,,,,,,,,,,,,,,
,,,,,,,,,,,,,,,,,,,,,,,,,,,,,,,,,,,,,,,,,,5f9c9aebcee6f616c84e40d7,606c0d360f1813c85a8caba0,2021-04-06_02h28.12.743,Colour_Similarity_Experiment,2020.2.10,Win32,60,6067542a4a25243f4d7d4fcf,21.70909091,16.8742515,16.77286136,16.75298126,16.7454324,16.77286136,,,,,,,,,,,,,,,,,,,,PF,weak,3,,,,,,,,5,2.109,,,,,,,,,,,,,,,,,,,,,,,,,,,,5,weak,82,-44,1,0,0,response3disk,9,146,0,14,1,0,0,rectangle,70,-31,1,0,0,5,5,1.253,4,-9,1,0,0,0,145,145,136,1,1,response3disk_3,rectangle,,,,,,,,,,,,,,,,,,,
,,,,,,,,,,,,,,,,,,,,,,,,,,,,,,,,,,,,,,,,,,5f9c9aebcee6f616c84e40d7,606c0d360f1813c85a8caba0,2021-04-06_02h28.12.743,Colour_Similarity_Experiment,2020.2.10,Win32,60,6067542a4a25243f4d7d4fcf,21.70909091,16.8742515,16.77286136,16.75298126,16.7454324,16.77286136,,,,,,,,,,,,,,,,,,,,PF,weak,3,,,,,,,,6,1.522,,,,,,,,,,,,,,,,,,,,,,,,,,,,8,weak,70,37,1,0,0,response1disk,2,147,9,6,1,0,0,rectangle,9,6,1,0,0,5,4,0,9,6,1,0,0,0,146,146,83,1,0,,,,,,,,,,,,,,,,,,,,,
,,,,,,,,,,,,,,,,,,,,,,,,,,,,,,,,,,,,,,,,,,5f9c9aebcee6f616c84e40d7,606c0d360f1813c85a8caba0,2021-04-06_02h28.12.743,Colour_Similarity_Experiment,2020.2.10,Win32,60,6067542a4a25243f4d7d4fcf,21.70909091,16.8742515,16.77286136,16.75298126,16.7454324,16.77286136,,,,,,,,,,,,,,,,,,,,PF,weak,3,,,,,,,,3,1.154,,,,,,,,,,,,,,,,,,,,,,,,,,,,7,weak,-35,-62,1,0,0,response5disk,6,148,3,-14,1,0,0,rectangle,3,-14,1,0,0,5,3,0.001,3,-14,1,0,0,0,147,147,29,1,0,,,,,,,,,,,,,,,,,,,,,
,,,,,,,,,,,,,,,,,,,,,,,,,,,,,,,,,,,,,,,,,,5f9c9aebcee6f616c84e40d7,606c0d360f1813c85a8caba0,2021-04-06_02h28.12.743,Colour_Similarity_Experiment,2020.2.10,Win32,60,6067542a4a25243f4d7d4fcf,21.70909091,16.8742515,16.77286136,16.75298126,16.7454324,16.77286136,,,,,,,,,,,,,,,,,,,,PF,weak,3,,,,,,,,6,1.204,,,,,,,,,,,,,,,,,,,,,,,,,,,,9,weak,58,23,1,0,0,response1disk,3,149,11,0,1,0,0,rectangle,11,0,1,0,0,5,0,0.001,11,0,1,0,0,0,148,148,119,1,0,,,,,,,,,,,,,,,,,,,,,
,,,,,,,,,,,,,,,,,,,,,,,,,,,,,,,,,,,,,,,,,,5f9c9aebcee6f616c84e40d7,606c0d360f1813c85a8caba0,2021-04-06_02h28.12.743,Colour_Similarity_Experiment,2020.2.10,Win32,60,6067542a4a25243f4d7d4fcf,21.70909091,16.8742515,16.77286136,16.75298126,16.7454324,16.77286136,,,,,,,,,,,,,,,,,,,,PF,strong,3,,,,,,,,0,0.837,,,,,,,,,,,,,,,,,,,,,,,,,,,,9,strong,-32,86,1,0,0,response7disk,9,150,4,2,1,0,0,rectangle,4,2,1,0,0,5,5,0.001,4,2,1,0,0,0,149,149,17,1,0,,,,,,,,,,,,,,,,,,,,,
,,,,,,,,,,,,,,,,,,,,,,,,,,,,,,,,,,,,,,,,,,5f9c9aebcee6f616c84e40d7,606c0d360f1813c85a8caba0,2021-04-06_02h28.12.743,Colour_Similarity_Experiment,2020.2.10,Win32,60,6067542a4a25243f4d7d4fcf,21.70909091,16.8742515,16.77286136,16.75298126,16.7454324,16.77286136,,,,,,,,,,,,,,,,,,,,PF,strong,3,,,,,,,,6,2.793,,,,,,,,,,,,,,,,,,,,,,,,,,,,4,strong,64,25,1,0,0,response1disk,1,151,14,-2,1,0,0,rectangle,14,-2,1,0,0,5,2,0.001,14,-2,1,0,0,0,150,150,102,1,0,,,,,,,,,,,,,,,,,,,,,
,,,,,,,,,,,,,,,,,,,,,,,,,,,,,,,,,,,,,,,,,,5f9c9aebcee6f616c84e40d7,606c0d360f1813c85a8caba0,2021-04-06_02h28.12.743,Colour_Similarity_Experiment,2020.2.10,Win32,60,6067542a4a25243f4d7d4fcf,21.70909091,16.8742515,16.77286136,16.75298126,16.7454324,16.77286136,,,,,,,,,,,,,,,,,,,,PF,strong,3,,,,,,,,6,1.104,,,,,,,,,,,,,,,,,,,,,,,,,,,,3,strong,60,28,1,0,0,response1disk,1,152,17,-2,1,0,0,rectangle,17,-2,1,0,0,5,2,0,17,-2,1,0,0,0,151,151,125,1,0,,,,,,,,,,,,,,,,,,,,,
,,,,,,,,,,,,,,,,,,,,,,,,,,,,,,,,,,,,,,,,,,5f9c9aebcee6f616c84e40d7,606c0d360f1813c85a8caba0,2021-04-06_02h28.12.743,Colour_Similarity_Experiment,2020.2.10,Win32,60,6067542a4a25243f4d7d4fcf,21.70909091,16.8742515,16.77286136,16.75298126,16.7454324,16.77286136,,,,,,,,,,,,,,,,,,,,PF,weak,3,,,,,,,,3,1.806,,,,,,,,,,,,,,,,,,,,,,,,,,,,1,weak,-18,-77,1,0,0,response5disk,8,153,-3,4,1,0,0,rectangle,-3,4,1,0,0,5,4,0.002,-3,4,1,0,0,0,152,152,65,1,0,,,,,,,,,,,,,,,,,,,,,
,,,,,,,,,,,,,,,,,,,,,,,,,,,,,,,,,,,,,,,,,,5f9c9aebcee6f616c84e40d7,606c0d360f1813c85a8caba0,2021-04-06_02h28.12.743,Colour_Similarity_Experiment,2020.2.10,Win32,60,6067542a4a25243f4d7d4fcf,21.70909091,16.8742515,16.77286136,16.75298126,16.7454324,16.77286136,,,,,,,,,,,,,,,,,,,,PF,weak,3,,,,,,,,5,2.057,,,,,,,,,,,,,,,,,,,,,,,,,,,,3,weak,67,-54,1,0,0,response3disk,8,154,1,-1,1,0,0,rectangle,1,-1,1,0,0,5,7,0.001,1,-1,1,0,0,0,153,153,3,1,0,,,,,,,,,,,,,,,,,,,,,
,,,,,,,,,,,,,,,,,,,,,,,,,,,,,,,,,,,,,,,,,,5f9c9aebcee6f616c84e40d7,606c0d360f1813c85a8caba0,2021-04-06_02h28.12.743,Colour_Similarity_Experiment,2020.2.10,Win32,60,6067542a4a25243f4d7d4fcf,21.70909091,16.8742515,16.77286136,16.75298126,16.7454324,16.77286136,,,,,,,,,,,,,,,,,,,,PF,strong,3,,,,,,,,5,0.854,,,,,,,,,,,,,,,,,,,,,,,,,,,,3,strong,42,-37,1,0,0,response3disk,8,155,11,-9,1,0,0,rectangle,11,-9,1,0,0,5,0,0.001,11,-9,1,0,0,0,154,154,44,1,0,,,,,,,,,,,,,,,,,,,,,
,,,,,,,,,,,,,,,,,,,,,,,,,,,,,,,,,,,,,,,,,,5f9c9aebcee6f616c84e40d7,606c0d360f1813c85a8caba0,2021-04-06_02h28.12.743,Colour_Similarity_Experiment,2020.2.10,Win32,60,6067542a4a25243f4d7d4fcf,21.70909091,16.8742515,16.77286136,16.75298126,16.7454324,16.77286136,,,,,,,,,,,,,,,,,,,,PF,weak,3,,,,,,,,3,1.908,,,,,,,,,,,,,,,,,,,,,,,,,,,,2,weak,-29,-106,1,0,0,response5disk,1,156,-8,-2,1,0,0,rectangle,-8,-2,1,0,0,5,4,0.001,-8,-2,1,0,0,0,155,155,9,1,0,,,,,,,,,,,,,,,,,,,,,
,,,,,,,,,,,,,,,,,,,,,,,,,,,,,,,,,,,,,,,,,,5f9c9aebcee6f616c84e40d7,606c0d360f1813c85a8caba0,2021-04-06_02h28.12.743,Colour_Similarity_Experiment,2020.2.10,Win32,60,6067542a4a25243f4d7d4fcf,21.70909091,16.8742515,16.77286136,16.75298126,16.7454324,16.77286136,,,,,,,,,,,,,,,,,,,,PF,strong,3,,,,,,,,2,1.122,,,,,,,,,,,,,,,,,,,,,,,,,,,,5,strong,-66,-43,1,0,0,response5disk,7,157,-2,-14,1,0,0,rectangle,-2,-14,1,0,0,5,0,0,-2,-14,1,0,0,0,156,156,7,1,0,,,,,,,,,,,,,,,,,,,,,
,,,,,,,,,,,,,,,,,,,,,,,,,,,,,,,,,,,,,,,,,,5f9c9aebcee6f616c84e40d7,606c0d360f1813c85a8caba0,2021-04-06_02h28.12.743,Colour_Similarity_Experiment,2020.2.10,Win32,60,6067542a4a25243f4d7d4fcf,21.70909091,16.8742515,16.77286136,16.75298126,16.7454324,16.77286136,,,,,,,,,,,,,,,,,,,,PF,weak,3,,,,,,,,6,2.358,,,,,,,,,,,,,,,,,,,,,,,,,,,,7,weak,73,36,1,0,0,response1disk,2,158,10,-4,1,0,0,rectangle,10,-4,1,0,0,5,3,0.001,10,-4,1,0,0,0,157,157,32,1,0,,,,,,,,,,,,,,,,,,,,,
,,,,,,,,,,,,,,,,,,,,,,,,,,,,,,,,,,,,,,,,,,5f9c9aebcee6f616c84e40d7,606c0d360f1813c85a8caba0,2021-04-06_02h28.12.743,Colour_Similarity_Experiment,2020.2.10,Win32,60,6067542a4a25243f4d7d4fcf,21.70909091,16.8742515,16.77286136,16.75298126,16.7454324,16.77286136,,,,,,,,,,,,,,,,,,,,PF,strong,3,,,,,,,,6,1.473,,,,,,,,,,,,,,,,,,,,,,,,,,,,6,strong,59,25,1,0,0,response1disk,2,159,16,11,1,0,0,rectangle,16,11,1,0,0,5,7,0.001,16,11,1,0,0,0,158,158,112,1,0,,,,,,,,,,,,,,,,,,,,,
,,,,,,,,,,,,,,,,,,,,,,,,,,,,,,,,,,,,,,,,,,5f9c9aebcee6f616c84e40d7,606c0d360f1813c85a8caba0,2021-04-06_02h28.12.743,Colour_Similarity_Experiment,2020.2.10,Win32,60,6067542a4a25243f4d7d4fcf,21.70909091,16.8742515,16.77286136,16.75298126,16.7454324,16.77286136,,,,,,,,,,,,,,,,,,,,PF,strong,3,,,,,,,,4,1.472,,,,,,,,,,,,,,,,,,,,,,,,,,,,6,strong,29,-89,1,0,0,response3disk,3,160,1,-4,1,0,0,rectangle,1,-4,1,0,0,5,4,0.001,1,-4,1,0,0,0,159,159,21,1,0,,,,,,,,,,,,,,,,,,,,,
,,,,,,,,,,,,,,,,,,,,,,,,,,,,,,,,,,,,,,,,,,5f9c9aebcee6f616c84e40d7,606c0d360f1813c85a8caba0,2021-04-06_02h28.12.743,Colour_Similarity_Experiment,2020.2.10,Win32,60,6067542a4a25243f4d7d4fcf,21.70909091,16.8742515,16.77286136,16.75298126,16.7454324,16.77286136,,,,,,,,,,,,,,,,,,,,PF,weak,3,,,,,,,,4,1.572,,,,,,,,,,,,,,,,,,,,,,,,,,,,7,weak,46,-69,1,0,0,response3disk,9,161,3,-2,1,0,0,rectangle,3,-2,1,0,0,5,5,0.002,3,-2,1,0,0,0,160,160,10,1,0,,,,,,,,,,,,,,,,,,,,,
,,,,,,,,,,,,,,,,,,,,,,,,,,,,,,,,,,,,,,,,,,5f9c9aebcee6f616c84e40d7,606c0d360f1813c85a8caba0,2021-04-06_02h28.12.743,Colour_Similarity_Experiment,2020.2.10,Win32,60,6067542a4a25243f4d7d4fcf,21.70909091,16.8742515,16.77286136,16.75298126,16.7454324,16.77286136,,,,,,,,,,,,,,,,,,,,PF,strong,3,,,,,,,,3,1.889,,,,,,,,,,,,,,,,,,,,,,,,,,,,2,strong,-28,-82,1,0,0,response5disk,1,162,1,-4,1,0,0,rectangle,1,-4,1,0,0,5,0,0.002,1,-4,1,0,0,0,161,161,85,1,0,,,,,,,,,,,,,,,,,,,,,
,,,,,,,,,,,,,,,,,,,,,,,,,,,,,,,,,,,,,,,,,,5f9c9aebcee6f616c84e40d7,606c0d360f1813c85a8caba0,2021-04-06_02h28.12.743,Colour_Similarity_Experiment,2020.2.10,Win32,60,6067542a4a25243f4d7d4fcf,21.70909091,16.8742515,16.77286136,16.75298126,16.7454324,16.77286136,,,,,,,,,,,,,,,,,,,,,,,,,,,,,,,,,,,,,,,,,,,,,,,,,,,,,,,,,,,,,,,,,,,,,,,,,,,,,,,,,,,,,,,,,,,,,,,,0,0,0,0,1,,,,,,,,,,,,,,
,,,,,,,,,,,,,,,,,,,,,,,,,,,,,,,,,,,,,,,,,,5f9c9aebcee6f616c84e40d7,606c0d360f1813c85a8caba0,2021-04-06_02h28.12.743,Colour_Similarity_Experiment,2020.2.10,Win32,60,6067542a4a25243f4d7d4fcf,21.70909091,16.8742515,16.77286136,16.75298126,16.7454324,16.77286136,,,,,,,,,,,,,,,,,,,,PF,weak,3,,,,,,,,5,1.69,,,,,,,,,,,,,,,,,,,,,,,,,,,,1,weak,77,-45,1,0,0,response3disk,7,163,6,-1,1,0,0,rectangle,6,-1,1,0,0,5,1,0.001,6,-1,1,0,0,0,0,0,150,1,0,,,,,,,,,,,,,,,,,,,,,
,,,,,,,,,,,,,,,,,,,,,,,,,,,,,,,,,,,,,,,,,,5f9c9aebcee6f616c84e40d7,606c0d360f1813c85a8caba0,2021-04-06_02h28.12.743,Colour_Similarity_Experiment,2020.2.10,Win32,60,6067542a4a25243f4d7d4fcf,21.70909091,16.8742515,16.77286136,16.75298126,16.7454324,16.77286136,,,,,,,,,,,,,,,,,,,,PF,strong,3,,,,,,,,2,1.421,,,,,,,,,,,,,,,,,,,,,,,,,,,,4,strong,-77,-52,1,0,0,response5disk,3,164,7,-5,1,0,0,rectangle,7,-5,1,0,0,5,7,0.002,7,-5,1,0,0,0,1,1,77,1,0,,,,,,,,,,,,,,,,,,,,,
,,,,,,,,,,,,,,,,,,,,,,,,,,,,,,,,,,,,,,,,,,5f9c9aebcee6f616c84e40d7,606c0d360f1813c85a8caba0,2021-04-06_02h28.12.743,Colour_Similarity_Experiment,2020.2.10,Win32,60,6067542a4a25243f4d7d4fcf,21.70909091,16.8742515,16.77286136,16.75298126,16.7454324,16.77286136,,,,,,,,,,,,,,,,,,,,PF,weak,3,,,,,,,,5,3.129,,,,,,,,,,,,,,,,,,,,,,,,,,,,6,weak,90,-35,1,0,0,response3disk,9,165,18,-10,1,0,0,rectangle,18,-10,1,0,0,5,5,0.001,18,-10,1,0,0,0,2,2,45,1,0,,,,,,,,,,,,,,,,,,,,,
,,,,,,,,,,,,,,,,,,,,,,,,,,,,,,,,,,,,,,,,,,5f9c9aebcee6f616c84e40d7,606c0d360f1813c85a8caba0,2021-04-06_02h28.12.743,Colour_Similarity_Experiment,2020.2.10,Win32,60,6067542a4a25243f4d7d4fcf,21.70909091,16.8742515,16.77286136,16.75298126,16.7454324,16.77286136,,,,,,,,,,,,,,,,,,,,PF,weak,3,,,,,,,,0,0.936,,,,,,,,,,,,,,,,,,,,,,,,,,,,4,weak,-51,75,1,0,0,response7disk,4,166,-6,8,1,0,0,rectangle,-6,8,1,0,0,5,5,0,-6,8,1,0,0,0,3,3,70,1,0,,,,,,,,,,,,,,,,,,,,,
,,,,,,,,,,,,,,,,,,,,,,,,,,,,,,,,,,,,,,,,,,5f9c9aebcee6f616c84e40d7,606c0d360f1813c85a8caba0,2021-04-06_02h28.12.743,Colour_Similarity_Experiment,2020.2.10,Win32,60,6067542a4a25243f4d7d4fcf,21.70909091,16.8742515,16.77286136,16.75298126,16.7454324,16.77286136,,,,,,,,,,,,,,,,,,,,PF,strong,3,,,,,,,,4,1.706,,,,,,,,,,,,,,,,,,,,,,,,,,,,4,strong,26,-73,1,0,0,response3disk,6,167,1,-6,1,0,0,rectangle,1,-6,1,0,0,5,0,0.001,1,-6,1,0,0,0,4,4,122,1,0,,,,,,,,,,,,,,,,,,,,,
,,,,,,,,,,,,,,,,,,,,,,,,,,,,,,,,,,,,,,,,,,5f9c9aebcee6f616c84e40d7,606c0d360f1813c85a8caba0,2021-04-06_02h28.12.743,Colour_Similarity_Experiment,2020.2.10,Win32,60,6067542a4a25243f4d7d4fcf,21.70909091,16.8742515,16.77286136,16.75298126,16.7454324,16.77286136,,,,,,,,,,,,,,,,,,,,PF,strong,3,,,,,,,,2,1.522,,,,,,,,,,,,,,,,,,,,,,,,,,,,6,strong,-51,-40,1,0,0,response5disk,7,168,-11,-12,1,0,0,rectangle,-11,-12,1,0,0,5,1,0.001,-11,-12,1,0,0,0,5,5,18,1,0,,,,,,,,,,,,,,,,,,,,,
,,,,,,,,,,,,,,,,,,,,,,,,,,,,,,,,,,,,,,,,,,5f9c9aebcee6f616c84e40d7,606c0d360f1813c85a8caba0,2021-04-06_02h28.12.743,Colour_Similarity_Experiment,2020.2.10,Win32,60,6067542a4a25243f4d7d4fcf,21.70909091,16.8742515,16.77286136,16.75298126,16.7454324,16.77286136,,,,,,,,,,,,,,,,,,,,PF,weak,3,,,,,,,,2,0.734,,,,,,,,,,,,,,,,,,,,,,,,,,,,6,weak,-65,-34,1,0,0,response5disk,7,169,-19,-14,1,0,0,rectangle,-19,-14,1,0,0,5,4,0.002,-19,-14,1,0,0,0,6,6,50,1,0,,,,,,,,,,,,,,,,,,,,,
,,,,,,,,,,,,,,,,,,,,,,,,,,,,,,,,,,,,,,,,,,5f9c9aebcee6f616c84e40d7,606c0d360f1813c85a8caba0,2021-04-06_02h28.12.743,Colour_Similarity_Experiment,2020.2.10,Win32,60,6067542a4a25243f4d7d4fcf,21.70909091,16.8742515,16.77286136,16.75298126,16.7454324,16.77286136,,,,,,,,,,,,,,,,,,,,PF,weak,3,,,,,,,,4,1.053,,,,,,,,,,,,,,,,,,,,,,,,,,,,7,weak,31,-50,1,0,0,response3disk,8,170,6,-6,1,0,0,rectangle,6,-6,1,0,0,5,0,0.002,6,-6,1,0,0,0,7,7,140,1,0,,,,,,,,,,,,,,,,,,,,,
,,,,,,,,,,,,,,,,,,,,,,,,,,,,,,,,,,,,,,,,,,5f9c9aebcee6f616c84e40d7,606c0d360f1813c85a8caba0,2021-04-06_02h28.12.743,Colour_Similarity_Experiment,2020.2.10,Win32,60,6067542a4a25243f4d7d4fcf,21.70909091,16.8742515,16.77286136,16.75298126,16.7454324,16.77286136,,,,,,,,,,,,,,,,,,,,PF,weak,3,,,,,,,,5,0.937,,,,,,,,,,,,,,,,,,,,,,,,,,,,1,weak,45,-35,1,0,0,response3disk,4,171,17,-9,1,0,0,rectangle,17,-9,1,0,0,5,3,0.001,17,-9,1,0,0,0,8,8,139,1,0,,,,,,,,,,,,,,,,,,,,,
,,,,,,,,,,,,,,,,,,,,,,,,,,,,,,,,,,,,,,,,,,5f9c9aebcee6f616c84e40d7,606c0d360f1813c85a8caba0,2021-04-06_02h28.12.743,Colour_Similarity_Experiment,2020.2.10,Win32,60,6067542a4a25243f4d7d4fcf,21.70909091,16.8742515,16.77286136,16.75298126,16.7454324,16.77286136,,,,,,,,,,,,,,,,,,,,PF,weak,3,,,,,,,,6,1.07,,,,,,,,,,,,,,,,,,,,,,,,,,,,4,weak,76,34,1,0,0,response1disk,2,172,6,-8,1,0,0,rectangle,6,-8,1,0,0,5,4,0.001,6,-8,1,0,0,0,9,9,108,1,0,,,,,,,,,,,,,,,,,,,,,
,,,,,,,,,,,,,,,,,,,,,,,,,,,,,,,,,,,,,,,,,,5f9c9aebcee6f616c84e40d7,606c0d360f1813c85a8caba0,2021-04-06_02h28.12.743,Colour_Similarity_Experiment,2020.2.10,Win32,60,6067542a4a25243f4d7d4fcf,21.70909091,16.8742515,16.77286136,16.75298126,16.7454324,16.77286136,,,,,,,,,,,,,,,,,,,,PF,strong,3,,,,,,,,3,1.505,,,,,,,,,,,,,,,,,,,,,,,,,,,,7,strong,-45,-60,1,0,0,response5disk,5,173,-3,-10,1,0,0,rectangle,-3,-10,1,0,0,5,3,0.002,-3,-10,1,0,0,0,10,10,156,1,0,,,,,,,,,,,,,,,,,,,,,
,,,,,,,,,,,,,,,,,,,,,,,,,,,,,,,,,,,,,,,,,,5f9c9aebcee6f616c84e40d7,606c0d360f1813c85a8caba0,2021-04-06_02h28.12.743,Colour_Similarity_Experiment,2020.2.10,Win32,60,6067542a4a25243f4d7d4fcf,21.70909091,16.8742515,16.77286136,16.75298126,16.7454324,16.77286136,,,,,,,,,,,,,,,,,,,,PF,strong,3,,,,,,,,4,0.903,,,,,,,,,,,,,,,,,,,,,,,,,,,,8,strong,23,-58,1,0,0,response3disk,6,174,1,1,1,0,0,rectangle,1,1,1,0,0,5,5,0.001,1,1,1,0,0,0,11,11,37,1,0,,,,,,,,,,,,,,,,,,,,,
,,,,,,,,,,,,,,,,,,,,,,,,,,,,,,,,,,,,,,,,,,5f9c9aebcee6f616c84e40d7,606c0d360f1813c85a8caba0,2021-04-06_02h28.12.743,Colour_Similarity_Experiment,2020.2.10,Win32,60,6067542a4a25243f4d7d4fcf,21.70909091,16.8742515,16.77286136,16.75298126,16.7454324,16.77286136,,,,,,,,,,,,,,,,,,,,PF,weak,3,,,,,,,,0,1.271,,,,,,,,,,,,,,,,,,,,,,,,,,,,8,weak,-30,41,1,0,0,response7disk,8,175,2,0,1,0,0,rectangle,2,0,1,0,0,5,7,0.001,2,0,1,0,0,0,12,12,153,1,0,,,,,,,,,,,,,,,,,,,,,
,,,,,,,,,,,,,,,,,,,,,,,,,,,,,,,,,,,,,,,,,,5f9c9aebcee6f616c84e40d7,606c0d360f1813c85a8caba0,2021-04-06_02h28.12.743,Colour_Similarity_Experiment,2020.2.10,Win32,60,6067542a4a25243f4d7d4fcf,21.70909091,16.8742515,16.77286136,16.75298126,16.7454324,16.77286136,,,,,,,,,,,,,,,,,,,,PF,strong,3,,,,,,,,5,1.189,,,,,,,,,,,,,,,,,,,,,,,,,,,,7,strong,59,-38,1,0,0,response3disk,1,176,-1,2,1,0,0,rectangle,-1,2,1,0,0,5,5,0.002,-1,2,1,0,0,0,13,13,132,1,0,,,,,,,,,,,,,,,,,,,,,
,,,,,,,,,,,,,,,,,,,,,,,,,,,,,,,,,,,,,,,,,,5f9c9aebcee6f616c84e40d7,606c0d360f1813c85a8caba0,2021-04-06_02h28.12.743,Colour_Similarity_Experiment,2020.2.10,Win32,60,6067542a4a25243f4d7d4fcf,21.70909091,16.8742515,16.77286136,16.75298126,16.7454324,16.77286136,,,,,,,,,,,,,,,,,,,,PF,strong,3,,,,,,,,2,2.743,,,,,,,,,,,,,,,,,,,,,,,,,,,,1,strong,-58,-34,1,0,0,response5disk,9,177,-2,-8,1,0,0,rectangle,-2,-8,1,0,0,5,0,0.001,-2,-8,1,0,0,0,14,14,123,1,0,,,,,,,,,,,,,,,,,,,,,
,,,,,,,,,,,,,,,,,,,,,,,,,,,,,,,,,,,,,,,,,,5f9c9aebcee6f616c84e40d7,606c0d360f1813c85a8caba0,2021-04-06_02h28.12.743,Colour_Similarity_Experiment,2020.2.10,Win32,60,6067542a4a25243f4d7d4fcf,21.70909091,16.8742515,16.77286136,16.75298126,16.7454324,16.77286136,,,,,,,,,,,,,,,,,,,,PF,weak,3,,,,,,,,5,1.087,,,,,,,,,,,,,,,,,,,,,,,,,,,,5,weak,66,-36,1,0,0,response3disk,2,178,6,-9,1,0,0,rectangle,6,-9,1,0,0,5,7,0.001,6,-9,1,0,0,0,15,15,129,1,0,,,,,,,,,,,,,,,,,,,,,
,,,,,,,,,,,,,,,,,,,,,,,,,,,,,,,,,,,,,,,,,,5f9c9aebcee6f616c84e40d7,606c0d360f1813c85a8caba0,2021-04-06_02h28.12.743,Colour_Similarity_Experiment,2020.2.10,Win32,60,6067542a4a25243f4d7d4fcf,21.70909091,16.8742515,16.77286136,16.75298126,16.7454324,16.77286136,,,,,,,,,,,,,,,,,,,,PF,weak,3,,,,,,,,4,1.02,,,,,,,,,,,,,,,,,,,,,,,,,,,,6,weak,25,-63,1,0,0,response3disk,3,179,7,-11,1,0,0,rectangle,7,-11,1,0,0,5,3,0.001,7,-11,1,0,0,0,16,16,26,1,0,,,,,,,,,,,,,,,,,,,,,
,,,,,,,,,,,,,,,,,,,,,,,,,,,,,,,,,,,,,,,,,,5f9c9aebcee6f616c84e40d7,606c0d360f1813c85a8caba0,2021-04-06_02h28.12.743,Colour_Similarity_Experiment,2020.2.10,Win32,60,6067542a4a25243f4d7d4fcf,21.70909091,16.8742515,16.77286136,16.75298126,16.7454324,16.77286136,,,,,,,,,,,,,,,,,,,,PF,weak,3,,,,,,,,6,1.238,,,,,,,,,,,,,,,,,,,,,,,,,,,,6,weak,86,21,1,0,0,response1disk,1,180,12,-1,1,0,0,rectangle,12,-1,1,0,0,5,2,0.001,12,-1,1,0,0,0,17,17,46,1,0,,,,,,,,,,,,,,,,,,,,,
,,,,,,,,,,,,,,,,,,,,,,,,,,,,,,,,,,,,,,,,,,5f9c9aebcee6f616c84e40d7,606c0d360f1813c85a8caba0,2021-04-06_02h28.12.743,Colour_Similarity_Experiment,2020.2.10,Win32,60,6067542a4a25243f4d7d4fcf,21.70909091,16.8742515,16.77286136,16.75298126,16.7454324,16.77286136,,,,,,,,,,,,,,,,,,,,PF,strong,3,,,,,,,,5,1.99,,,,,,,,,,,,,,,,,,,,,,,,,,,,2,strong,77,-43,1,0,0,response3disk,9,181,9,-10,1,0,0,rectangle,9,-10,1,0,0,5,1,0.001,9,-10,1,0,0,0,18,18,72,1,0,,,,,,,,,,,,,,,,,,,,,
,,,,,,,,,,,,,,,,,,,,,,,,,,,,,,,,,,,,,,,,,,5f9c9aebcee6f616c84e40d7,606c0d360f1813c85a8caba0,2021-04-06_02h28.12.743,Colour_Similarity_Experiment,2020.2.10,Win32,60,6067542a4a25243f4d7d4fcf,21.70909091,16.8742515,16.77286136,16.75298126,16.7454324,16.77286136,,,,,,,,,,,,,,,,,,,,PF,weak,3,,,,,,,,3,5.036,,,,,,,,,,,,,,,,,,,,,,,,,,,,9,weak,-22,-89,1,0,0,response5disk,2,182,10,-5,1,0,0,rectangle,10,-5,1,0,0,5,1,0,10,-5,1,0,0,0,19,19,157,1,0,,,,,,,,,,,,,,,,,,,,,
,,,,,,,,,,,,,,,,,,,,,,,,,,,,,,,,,,,,,,,,,,5f9c9aebcee6f616c84e40d7,606c0d360f1813c85a8caba0,2021-04-06_02h28.12.743,Colour_Similarity_Experiment,2020.2.10,Win32,60,6067542a4a25243f4d7d4fcf,21.70909091,16.8742515,16.77286136,16.75298126,16.7454324,16.77286136,,,,,,,,,,,,,,,,,,,,PF,strong,3,,,,,,,,5,1.02,,,,,,,,,,,,,,,,,,,,,,,,,,,,4,strong,82,-51,1,0,0,response3disk,2,183,20,-11,1,0,0,rectangle,20,-11,1,0,0,5,0,0.002,20,-11,1,0,0,0,20,20,13,1,0,,,,,,,,,,,,,,,,,,,,,
,,,,,,,,,,,,,,,,,,,,,,,,,,,,,,,,,,,,,,,,,,5f9c9aebcee6f616c84e40d7,606c0d360f1813c85a8caba0,2021-04-06_02h28.12.743,Colour_Similarity_Experiment,2020.2.10,Win32,60,6067542a4a25243f4d7d4fcf,21.70909091,16.8742515,16.77286136,16.75298126,16.7454324,16.77286136,,,,,,,,,,,,,,,,,,,,PF,strong,3,,,,,,,,4,1.171,,,,,,,,,,,,,,,,,,,,,,,,,,,,7,strong,23,-66,1,0,0,response3disk,9,184,9,3,1,0,0,rectangle,9,3,1,0,0,5,6,0.001,9,3,1,0,0,0,21,21,155,1,0,,,,,,,,,,,,,,,,,,,,,
,,,,,,,,,,,,,,,,,,,,,,,,,,,,,,,,,,,,,,,,,,5f9c9aebcee6f616c84e40d7,606c0d360f1813c85a8caba0,2021-04-06_02h28.12.743,Colour_Similarity_Experiment,2020.2.10,Win32,60,6067542a4a25243f4d7d4fcf,21.70909091,16.8742515,16.77286136,16.75298126,16.7454324,16.77286136,,,,,,,,,,,,,,,,,,,,PF,weak,3,,,,,,,,5,3.228,,,,,,,,,,,,,,,,,,,,,,,,,,,,8,weak,86,-66,1,0,0,response3disk,6,185,10,-12,1,0,0,rectangle,75,-30,1,0,0,5,5,1.154,25,2,1,0,0,0,22,22,161,1,1,response3disk_3,rectangle,,,,,,,,,,,,,,,,,,,
,,,,,,,,,,,,,,,,,,,,,,,,,,,,,,,,,,,,,,,,,,5f9c9aebcee6f616c84e40d7,606c0d360f1813c85a8caba0,2021-04-06_02h28.12.743,Colour_Similarity_Experiment,2020.2.10,Win32,60,6067542a4a25243f4d7d4fcf,21.70909091,16.8742515,16.77286136,16.75298126,16.7454324,16.77286136,,,,,,,,,,,,,,,,,,,,PF,strong,3,,,,,,,,4,1.806,,,,,,,,,,,,,,,,,,,,,,,,,,,,7,strong,40,-59,1,0,0,response3disk,8,186,16,-2,1,0,0,rectangle,134,-18,1,0,0,5,5,1.021,-17,2,1,0,0,0,23,23,97,1,1,response3disk_3,rectangle,,,,,,,,,,,,,,,,,,,
,,,,,,,,,,,,,,,,,,,,,,,,,,,,,,,,,,,,,,,,,,5f9c9aebcee6f616c84e40d7,606c0d360f1813c85a8caba0,2021-04-06_02h28.12.743,Colour_Similarity_Experiment,2020.2.10,Win32,60,6067542a4a25243f4d7d4fcf,21.70909091,16.8742515,16.77286136,16.75298126,16.7454324,16.77286136,,,,,,,,,,,,,,,,,,,,PF,weak,3,,,,,,,,5,3.897,,,,,,,,,,,,,,,,,,,,,,,,,,,,2,weak,92,-64,1,0,0,response3disk,5,187,20,2,1,0,0,rectangle,20,2,1,0,0,5,3,0.001,20,2,1,0,0,0,24,24,147,1,0,,,,,,,,,,,,,,,,,,,,,
,,,,,,,,,,,,,,,,,,,,,,,,,,,,,,,,,,,,,,,,,,5f9c9aebcee6f616c84e40d7,606c0d360f1813c85a8caba0,2021-04-06_02h28.12.743,Colour_Similarity_Experiment,2020.2.10,Win32,60,6067542a4a25243f4d7d4fcf,21.70909091,16.8742515,16.77286136,16.75298126,16.7454324,16.77286136,,,,,,,,,,,,,,,,,,,,PF,weak,3,,,,,,,,4,1.337,,,,,,,,,,,,,,,,,,,,,,,,,,,,4,weak,44,-62,1,0,0,response3disk,1,188,21,-13,1,0,0,rectangle,21,-13,1,0,0,5,1,0.002,21,-13,1,0,0,0,25,25,115,1,0,,,,,,,,,,,,,,,,,,,,,
,,,,,,,,,,,,,,,,,,,,,,,,,,,,,,,,,,,,,,,,,,5f9c9aebcee6f616c84e40d7,606c0d360f1813c85a8caba0,2021-04-06_02h28.12.743,Colour_Similarity_Experiment,2020.2.10,Win32,60,6067542a4a25243f4d7d4fcf,21.70909091,16.8742515,16.77286136,16.75298126,16.7454324,16.77286136,,,,,,,,,,,,,,,,,,,,PF,strong,3,,,,,,,,5,1.371,,,,,,,,,,,,,,,,,,,,,,,,,,,,9,strong,84,-60,1,0,0,response3disk,4,189,10,-2,1,0,0,rectangle,10,-2,1,0,0,5,4,0.001,10,-2,1,0,0,0,26,26,60,1,0,,,,,,,,,,,,,,,,,,,,,
,,,,,,,,,,,,,,,,,,,,,,,,,,,,,,,,,,,,,,,,,,5f9c9aebcee6f616c84e40d7,606c0d360f1813c85a8caba0,2021-04-06_02h28.12.743,Colour_Similarity_Experiment,2020.2.10,Win32,60,6067542a4a25243f4d7d4fcf,21.70909091,16.8742515,16.77286136,16.75298126,16.7454324,16.77286136,,,,,,,,,,,,,,,,,,,,PF,strong,3,,,,,,,,0,0.938,,,,,,,,,,,,,,,,,,,,,,,,,,,,6,strong,-57,69,1,0,0,response7disk,6,190,-14,6,1,0,0,rectangle,-14,6,1,0,0,5,4,0,-14,6,1,0,0,0,27,27,91,1,0,,,,,,,,,,,,,,,,,,,,,
,,,,,,,,,,,,,,,,,,,,,,,,,,,,,,,,,,,,,,,,,,5f9c9aebcee6f616c84e40d7,606c0d360f1813c85a8caba0,2021-04-06_02h28.12.743,Colour_Similarity_Experiment,2020.2.10,Win32,60,6067542a4a25243f4d7d4fcf,21.70909091,16.8742515,16.77286136,16.75298126,16.7454324,16.77286136,,,,,,,,,,,,,,,,,,,,PF,strong,3,,,,,,,,4,2.258,,,,,,,,,,,,,,,,,,,,,,,,,,,,3,strong,49,-56,1,0,0,response3disk,3,191,10,11,1,0,0,rectangle,10,11,1,0,0,5,5,0,10,11,1,0,0,0,28,28,68,1,0,,,,,,,,,,,,,,,,,,,,,
,,,,,,,,,,,,,,,,,,,,,,,,,,,,,,,,,,,,,,,,,,5f9c9aebcee6f616c84e40d7,606c0d360f1813c85a8caba0,2021-04-06_02h28.12.743,Colour_Similarity_Experiment,2020.2.10,Win32,60,6067542a4a25243f4d7d4fcf,21.70909091,16.8742515,16.77286136,16.75298126,16.7454324,16.77286136,,,,,,,,,,,,,,,,,,,,PF,strong,3,,,,,,,,1,1.254,,,,,,,,,,,,,,,,,,,,,,,,,,,,8,strong,-55,22,1,0,0,response7disk,8,192,-7,3,1,0,0,rectangle,-7,3,1,0,0,5,4,0.001,-7,3,1,0,0,0,29,29,48,1,0,,,,,,,,,,,,,,,,,,,,,
,,,,,,,,,,,,,,,,,,,,,,,,,,,,,,,,,,,,,,,,,,5f9c9aebcee6f616c84e40d7,606c0d360f1813c85a8caba0,2021-04-06_02h28.12.743,Colour_Similarity_Experiment,2020.2.10,Win32,60,6067542a4a25243f4d7d4fcf,21.70909091,16.8742515,16.77286136,16.75298126,16.7454324,16.77286136,,,,,,,,,,,,,,,,,,,,PF,strong,3,,,,,,,,3,1.354,,,,,,,,,,,,,,,,,,,,,,,,,,,,5,strong,-32,-54,1,0,0,response5disk,6,193,10,10,1,0,0,rectangle,10,10,1,0,0,5,4,0.001,10,10,1,0,0,0,30,30,12,1,0,,,,,,,,,,,,,,,,,,,,,
,,,,,,,,,,,,,,,,,,,,,,,,,,,,,,,,,,,,,,,,,,5f9c9aebcee6f616c84e40d7,606c0d360f1813c85a8caba0,2021-04-06_02h28.12.743,Colour_Similarity_Experiment,2020.2.10,Win32,60,6067542a4a25243f4d7d4fcf,21.70909091,16.8742515,16.77286136,16.75298126,16.7454324,16.77286136,,,,,,,,,,,,,,,,,,,,PF,weak,3,,,,,,,,4,2.409,,,,,,,,,,,,,,,,,,,,,,,,,,,,4,weak,34,-46,1,0,0,response3disk,6,194,-2,6,1,0,0,rectangle,-2,6,1,0,0,5,1,0.002,-2,6,1,0,0,0,31,31,120,1,0,,,,,,,,,,,,,,,,,,,,,
,,,,,,,,,,,,,,,,,,,,,,,,,,,,,,,,,,,,,,,,,,5f9c9aebcee6f616c84e40d7,606c0d360f1813c85a8caba0,2021-04-06_02h28.12.743,Colour_Similarity_Experiment,2020.2.10,Win32,60,6067542a4a25243f4d7d4fcf,21.70909091,16.8742515,16.77286136,16.75298126,16.7454324,16.77286136,,,,,,,,,,,,,,,,,,,,PF,strong,3,,,,,,,,2,1.088,,,,,,,,,,,,,,,,,,,,,,,,,,,,7,strong,-51,-43,1,0,0,response5disk,6,195,-4,-8,1,0,0,rectangle,-4,-8,1,0,0,5,3,0.001,-4,-8,1,0,0,0,32,32,31,1,0,,,,,,,,,,,,,,,,,,,,,
,,,,,,,,,,,,,,,,,,,,,,,,,,,,,,,,,,,,,,,,,,5f9c9aebcee6f616c84e40d7,606c0d360f1813c85a8caba0,2021-04-06_02h28.12.743,Colour_Similarity_Experiment,2020.2.10,Win32,60,6067542a4a25243f4d7d4fcf,21.70909091,16.8742515,16.77286136,16.75298126,16.7454324,16.77286136,,,,,,,,,,,,,,,,,,,,PF,weak,3,,,,,,,,0,1.305,,,,,,,,,,,,,,,,,,,,,,,,,,,,1,weak,-42,58,1,0,0,response7disk,1,196,-16,4,1,0,0,rectangle,-95,-44,1,0,0,5,2,1.639,-10,-1,1,0,0,0,33,33,76,1,1,response5disk_3,rectangle,,,,,,,,,,,,,,,,,,,
,,,,,,,,,,,,,,,,,,,,,,,,,,,,,,,,,,,,,,,,,,5f9c9aebcee6f616c84e40d7,606c0d360f1813c85a8caba0,2021-04-06_02h28.12.743,Colour_Similarity_Experiment,2020.2.10,Win32,60,6067542a4a25243f4d7d4fcf,21.70909091,16.8742515,16.77286136,16.75298126,16.7454324,16.77286136,,,,,,,,,,,,,,,,,,,,PF,weak,3,,,,,,,,3,0.92,,,,,,,,,,,,,,,,,,,,,,,,,,,,6,weak,-38,-68,1,0,0,response5disk,4,197,-15,-13,1,0,0,rectangle,-15,-13,1,0,0,5,0,0.001,-15,-13,1,0,0,0,34,34,33,1,0,,,,,,,,,,,,,,,,,,,,,
