key_resp.keys,key_resp.rt,key_resp_16.keys,key_resp_16.rt,key_resp_2.keys,key_resp_2.rt,X Scale,ratio_pxpermm,screen_size_x,screen_size_y,testsize,key_resp_3.keys,key_resp_4.keys,key_resp_4.rt,line_size,key_resp_5.keys,key_resp_5.rt,key_resp_6.keys,key_resp_6.rt,key_resp_8.keys,key_resp_8.rt,key_resp_7.keys,key_resp_7.rt,key_resp_12.keys,key_resp_12.rt,key_resp_11.keys,key_resp_11.rt,key_resp_18.keys,key_resp_18.rt,key_resp_21.keys,key_resp_21.rt,key_resp_13.keys,key_resp_13.rt,key_resp_19.keys,key_resp_19.rt,ballposx,viewer_distance,trials.thisRepN,trials.thisTrialN,trials.thisN,trials.thisIndex,trials.ran,participant,session,date,expName,psychopyVersion,OS,frameRate,study_id,realFrameRate1,realFrameRate2,realFrameRate3,realFrameRate4,realFrameRate5,realFrameRate,viewerdistancecm,DVA_to_distance,radius_F,radius_P,r_F,R_P,key_resp_20.keys,key_resp_20.rt,key_resp_14.keys,key_resp_14.rt,key_resp_15.keys,key_resp_15.rt,key_resp_17.keys,key_resp_17.rt,key_resp_9.keys,key_resp_9.rt,key_resp_10.keys,key_resp_10.rt,Colour_1,Ecc,maskCon,mask_frames,mouse_5.x,mouse_5.y,mouse_5.leftButton,mouse_5.midButton,mouse_5.rightButton,mouse_5.clicked_name,Colour_2,similarity,response_time,mouse_10.x,mouse_10.y,mouse_10.leftButton,mouse_10.midButton,mouse_10.rightButton,mouse_10.clicked_name,mouse_7.x,mouse_7.y,mouse_7.leftButton,mouse_7.midButton,mouse_7.rightButton,mouse_7.clicked_name,catchprac,catchnumberprac,mouse_6.x,mouse_6.y,mouse_6.leftButton,mouse_6.midButton,mouse_6.rightButton,mouse_6.clicked_name,duringprac.thisRepN,duringprac.thisTrialN,duringprac.thisN,duringprac.thisIndex,duringprac.ran,key_resp_22.keys,key_resp_22.rt,Colour1,maskCon1,mouse.x,mouse.y,mouse.leftButton,mouse.midButton,mouse.rightButton,mouse.clicked_name,Colour2,trialnumber,mouse_2.x,mouse_2.y,mouse_2.leftButton,mouse_2.midButton,mouse_2.rightButton,mouse_2.clicked_name,mouse_3.x,mouse_3.y,mouse_3.leftButton,mouse_3.midButton,mouse_3.rightButton,catchresponse,catchnumber,response_time_catch,mouse_11.x,mouse_11.y,mouse_11.leftButton,mouse_11.midButton,mouse_11.rightButton,trials_2.thisRepN,trials_2.thisTrialN,trials_2.thisN,trials_2.thisIndex,trials_2.ran,Catch,mouse_3.clicked_name,mouse_11.clicked_name,trials_3.thisRepN,trials_3.thisTrialN,trials_3.thisN,trials_3.thisIndex,trials_3.ran,answer1,rt1,answer2,rt2,answer3,rt3,answer4,rt4,answer5,rt5,answer6,rt6,answer7,rt7
space,1.012755,space,0.507615,space,1.479795,44.4,4.44,307.6576577,172.972973,1366,,space,6.457355,88.8,space,1.7061,space,3.34643,space,0.54904,space,1.089395,space,2.66775,space,0.215325,space,1.01757,space,0.932005,space,1.05357,return,3.555775,71.715,445.3166791,0,0,0,0,1,5ff818ad08876e553a87bde7,606c0cd161b2e598bc2b178d,2021-04-06_09h35.14.757,Colour_Similarity_Experiment,2020.2.10,Win32,60,6067542a4a25243f4d7d4fcf,17.76020349,17.33609375,16.62199052,16.71682051,16.69632287,16.71682051,,,,,,,,,,,,,,,,,,,,,,,,,,,,,,,,,,,,,,,,,,,,,,,,,,,,,,,,,,,,,,,,,,,,,,,,,,,,,,,,,,,,,,,,,,,,,,,,,,,,,,,,,,,,,,,,,,
,,,,,,,,,,,,,,,,,,,,,,,,,,,,,,,,,return,4.17602,-4.098,516.4391991,1,0,1,0,1,5ff818ad08876e553a87bde7,606c0cd161b2e598bc2b178d,2021-04-06_09h35.14.757,Colour_Similarity_Experiment,2020.2.10,Win32,60,6067542a4a25243f4d7d4fcf,17.76020349,17.33609375,16.62199052,16.71682051,16.69632287,16.71682051,,,,,,,,,,,,,,,,,,,,,,,,,,,,,,,,,,,,,,,,,,,,,,,,,,,,,,,,,,,,,,,,,,,,,,,,,,,,,,,,,,,,,,,,,,,,,,,,,,,,,,,,,,,,,,,,,,
,,,,,,,,,,,,,,,,,,,,,,,,,,,,,,,,,return,3.711315,53.274,462.6167515,2,0,2,0,1,5ff818ad08876e553a87bde7,606c0cd161b2e598bc2b178d,2021-04-06_09h35.14.757,Colour_Similarity_Experiment,2020.2.10,Win32,60,6067542a4a25243f4d7d4fcf,17.76020349,17.33609375,16.62199052,16.71682051,16.69632287,16.71682051,,,,,,,,,,,,,,,,,,,,,,,,,,,,,,,,,,,,,,,,,,,,,,,,,,,,,,,,,,,,,,,,,,,,,,,,,,,,,,,,,,,,,,,,,,,,,,,,,,,,,,,,,,,,,,,,,,
,,,,,,,,,,,,,,,,,,,,,,,,,,,,,,,,,return,3.90923,28.686,485.6835148,3,0,3,0,1,5ff818ad08876e553a87bde7,606c0cd161b2e598bc2b178d,2021-04-06_09h35.14.757,Colour_Similarity_Experiment,2020.2.10,Win32,60,6067542a4a25243f4d7d4fcf,17.76020349,17.33609375,16.62199052,16.71682051,16.69632287,16.71682051,,,,,,,,,,,,,,,,,,,,,,,,,,,,,,,,,,,,,,,,,,,,,,,,,,,,,,,,,,,,,,,,,,,,,,,,,,,,,,,,,,,,,,,,,,,,,,,,,,,,,,,,,,,,,,,,,,
,,,,,,,,,,,,,,,,,,,,,,,,,,,,,,,,,return,4.0177,16.392,497.2168964,4,0,4,0,1,5ff818ad08876e553a87bde7,606c0cd161b2e598bc2b178d,2021-04-06_09h35.14.757,Colour_Similarity_Experiment,2020.2.10,Win32,60,6067542a4a25243f4d7d4fcf,17.76020349,17.33609375,16.62199052,16.71682051,16.69632287,16.71682051,,,,,,,,,,,,,,,,,,,,,,,,,,,,,,,,,,,,,,,,,,,,,,,,,,,,,,,,,,,,,,,,,,,,,,,,,,,,,,,,,,,,,,,,,,,,,,,,,,,,,,,,,,,,,,,,,,
,,,,,,,,,,,,,,,,,,,,,,,,,,,,,,,,,,,,,,,,,,5ff818ad08876e553a87bde7,606c0cd161b2e598bc2b178d,2021-04-06_09h35.14.757,Colour_Similarity_Experiment,2020.2.10,Win32,60,6067542a4a25243f4d7d4fcf,17.76020349,17.33609375,16.62199052,16.71682051,16.69632287,16.71682051,49,8.552978756,56.96283851,379.7522568,37.97522568,170.8885155,space,3.480775,space,1.99265,space,0.79572,space,0.43202,space,0.68377,space,3.162805,6,PF,weak,3,87,28,1,0,0,response1disk_5,1,6,5.39656,-8,-1,1,0,0,rectangle_8,-45,-81,1,0,0,response5disk_7,3,3,2,-8,1,0,0,rectangle_4,0,0,0,6,1,,,,,,,,,,,,,,,,,,,,,,,,,,,,,,,,,,,,,,,,,,,,,,,,,,,,,,,,,,
,,,,,,,,,,,,,,,,,,,,,,,,,,,,,,,,,,,,,,,,,,5ff818ad08876e553a87bde7,606c0cd161b2e598bc2b178d,2021-04-06_09h35.14.757,Colour_Similarity_Experiment,2020.2.10,Win32,60,6067542a4a25243f4d7d4fcf,17.76020349,17.33609375,16.62199052,16.71682051,16.69632287,16.71682051,,,,,,,,,,,,,,,,,,,8,PF,weak,3,93,-30,1,0,0,response3disk_5,5,5,3.86343,7,0,1,0,0,rectangle_8,7,0,1,0,0,,,3,7,0,1,0,0,,0,1,1,5,1,,,,,,,,,,,,,,,,,,,,,,,,,,,,,,,,,,,,,,,,,,,,,,,,,,,,,,,,,,
,,,,,,,,,,,,,,,,,,,,,,,,,,,,,,,,,,,,,,,,,,5ff818ad08876e553a87bde7,606c0cd161b2e598bc2b178d,2021-04-06_09h35.14.757,Colour_Similarity_Experiment,2020.2.10,Win32,60,6067542a4a25243f4d7d4fcf,17.76020349,17.33609375,16.62199052,16.71682051,16.69632287,16.71682051,,,,,,,,,,,,,,,,,,,5,PF,strong,3,58,97,1,0,0,response1disk_5,3,7,2.94648,5,-3,1,0,0,rectangle_8,-33,-94,1,0,0,response5disk_7,3,3,3,6,1,0,0,rectangle_4,0,2,2,0,1,,,,,,,,,,,,,,,,,,,,,,,,,,,,,,,,,,,,,,,,,,,,,,,,,,,,,,,,,,
,,,,,,,,,,,,,,,,,,,,,,,,,,,,,,,,,,,,,,,,,,5ff818ad08876e553a87bde7,606c0cd161b2e598bc2b178d,2021-04-06_09h35.14.757,Colour_Similarity_Experiment,2020.2.10,Win32,60,6067542a4a25243f4d7d4fcf,17.76020349,17.33609375,16.62199052,16.71682051,16.69632287,16.71682051,,,,,,,,,,,,,,,,,,,3,PF,weak,3,106,54,1,0,0,response1disk_5,8,6,5.593545,0,-1,1,0,0,rectangle_8,0,-1,1,0,0,,,3,0,-1,1,0,0,,0,3,3,1,1,,,,,,,,,,,,,,,,,,,,,,,,,,,,,,,,,,,,,,,,,,,,,,,,,,,,,,,,,,
,,,,,,,,,,,,,,,,,,,,,,,,,,,,,,,,,,,,,,,,,,5ff818ad08876e553a87bde7,606c0cd161b2e598bc2b178d,2021-04-06_09h35.14.757,Colour_Similarity_Experiment,2020.2.10,Win32,60,6067542a4a25243f4d7d4fcf,17.76020349,17.33609375,16.62199052,16.71682051,16.69632287,16.71682051,,,,,,,,,,,,,,,,,,,2,PF,strong,3,-34,95,1,0,0,response7disk_5,2,0,3.430435,-3,4,1,0,0,rectangle_8,-3,4,1,0,0,,,3,-3,4,1,0,0,,0,4,4,3,1,,,,,,,,,,,,,,,,,,,,,,,,,,,,,,,,,,,,,,,,,,,,,,,,,,,,,,,,,,
,,,,,,,,,,,,,,,,,,,,,,,,,,,,,,,,,,,,,,,,,,5ff818ad08876e553a87bde7,606c0cd161b2e598bc2b178d,2021-04-06_09h35.14.757,Colour_Similarity_Experiment,2020.2.10,Win32,60,6067542a4a25243f4d7d4fcf,17.76020349,17.33609375,16.62199052,16.71682051,16.69632287,16.71682051,,,,,,,,,,,,,,,,,,,8,PF,strong,3,53,89,1,0,0,response1disk_5,7,7,3.146635,3,11,1,0,0,rectangle_8,3,11,1,0,0,,,3,3,11,1,0,0,,0,5,5,2,1,,,,,,,,,,,,,,,,,,,,,,,,,,,,,,,,,,,,,,,,,,,,,,,,,,,,,,,,,,
,,,,,,,,,,,,,,,,,,,,,,,,,,,,,,,,,,,,,,,,,,5ff818ad08876e553a87bde7,606c0cd161b2e598bc2b178d,2021-04-06_09h35.14.757,Colour_Similarity_Experiment,2020.2.10,Win32,60,6067542a4a25243f4d7d4fcf,17.76020349,17.33609375,16.62199052,16.71682051,16.69632287,16.71682051,,,,,,,,,,,,,,,,,,,6,PF,weak,3,38,-92,1,0,0,response3disk_5,1,4,3.37954,-4,-7,1,0,0,rectangle_8,-4,-7,1,0,0,,,3,-4,-7,1,0,0,,0,6,6,4,1,,,,,,,,,,,,,,,,,,,,,,,,,,,,,,,,,,,,,,,,,,,,,,,,,,,,,,,,,,
,,,,,,,,,,,,,,,,,,,,,,,,,,,,,,,,,,,,,,,,,,5ff818ad08876e553a87bde7,606c0cd161b2e598bc2b178d,2021-04-06_09h35.14.757,Colour_Similarity_Experiment,2020.2.10,Win32,60,6067542a4a25243f4d7d4fcf,17.76020349,17.33609375,16.62199052,16.71682051,16.69632287,16.71682051,,,,,,,,,,,,,,,,,,,,PF,weak,3,,,,,,,,7,8.373425,,,,,,,,,,,,,,,,,,,,,,,,,,space,3.40411,2,weak,50,101,1,0,0,response1disk,6,1,5,-5,1,0,0,rectangle,5,-5,1,0,0,,5,0.002795,5,-5,1,0,0,0,0,0,113,1,0,,,,,,,,,,,,,,,,,,,,,
,,,,,,,,,,,,,,,,,,,,,,,,,,,,,,,,,,,,,,,,,,5ff818ad08876e553a87bde7,606c0cd161b2e598bc2b178d,2021-04-06_09h35.14.757,Colour_Similarity_Experiment,2020.2.10,Win32,60,6067542a4a25243f4d7d4fcf,17.76020349,17.33609375,16.62199052,16.71682051,16.69632287,16.71682051,,,,,,,,,,,,,,,,,,,,PF,strong,3,,,,,,,,7,2.235575,,,,,,,,,,,,,,,,,,,,,,,,,,,,9,strong,61,90,1,0,0,response1disk,4,2,-3,-4,1,0,0,rectangle,-3,-4,1,0,0,,2,0.003195,-3,-4,1,0,0,0,1,1,60,1,0,,,,,,,,,,,,,,,,,,,,,
,,,,,,,,,,,,,,,,,,,,,,,,,,,,,,,,,,,,,,,,,,5ff818ad08876e553a87bde7,606c0cd161b2e598bc2b178d,2021-04-06_09h35.14.757,Colour_Similarity_Experiment,2020.2.10,Win32,60,6067542a4a25243f4d7d4fcf,17.76020349,17.33609375,16.62199052,16.71682051,16.69632287,16.71682051,,,,,,,,,,,,,,,,,,,,PF,strong,3,,,,,,,,4,1.99822,,,,,,,,,,,,,,,,,,,,,,,,,,,,5,strong,52,-70,1,0,0,response3disk,7,3,1,-3,1,0,0,rectangle,1,-3,1,0,0,,3,0.003155,1,-3,1,0,0,0,2,2,7,1,0,,,,,,,,,,,,,,,,,,,,,
,,,,,,,,,,,,,,,,,,,,,,,,,,,,,,,,,,,,,,,,,,5ff818ad08876e553a87bde7,606c0cd161b2e598bc2b178d,2021-04-06_09h35.14.757,Colour_Similarity_Experiment,2020.2.10,Win32,60,6067542a4a25243f4d7d4fcf,17.76020349,17.33609375,16.62199052,16.71682051,16.69632287,16.71682051,,,,,,,,,,,,,,,,,,,,PF,strong,3,,,,,,,,3,2.64637,,,,,,,,,,,,,,,,,,,,,,,,,,,,6,strong,-52,-85,1,0,0,response5disk,4,4,9,-3,1,0,0,rectangle,9,-3,1,0,0,,2,0.003935,9,-3,1,0,0,0,3,3,56,1,0,,,,,,,,,,,,,,,,,,,,,
,,,,,,,,,,,,,,,,,,,,,,,,,,,,,,,,,,,,,,,,,,5ff818ad08876e553a87bde7,606c0cd161b2e598bc2b178d,2021-04-06_09h35.14.757,Colour_Similarity_Experiment,2020.2.10,Win32,60,6067542a4a25243f4d7d4fcf,17.76020349,17.33609375,16.62199052,16.71682051,16.69632287,16.71682051,,,,,,,,,,,,,,,,,,,,PF,strong,3,,,,,,,,7,1.44916,,,,,,,,,,,,,,,,,,,,,,,,,,,,1,strong,49,99,1,0,0,response1disk,2,5,14,6,1,0,0,rectangle,14,6,1,0,0,,6,0.00407,14,6,1,0,0,0,4,4,2,1,0,,,,,,,,,,,,,,,,,,,,,
,,,,,,,,,,,,,,,,,,,,,,,,,,,,,,,,,,,,,,,,,,5ff818ad08876e553a87bde7,606c0cd161b2e598bc2b178d,2021-04-06_09h35.14.757,Colour_Similarity_Experiment,2020.2.10,Win32,60,6067542a4a25243f4d7d4fcf,17.76020349,17.33609375,16.62199052,16.71682051,16.69632287,16.71682051,,,,,,,,,,,,,,,,,,,,PF,strong,3,,,,,,,,0,1.98305,,,,,,,,,,,,,,,,,,,,,,,,,,,,3,strong,-41,78,1,0,0,response7disk,3,6,6,-3,1,0,0,rectangle,6,-3,1,0,0,,3,0.00302,6,-3,1,0,0,0,5,5,68,1,0,,,,,,,,,,,,,,,,,,,,,
,,,,,,,,,,,,,,,,,,,,,,,,,,,,,,,,,,,,,,,,,,5ff818ad08876e553a87bde7,606c0cd161b2e598bc2b178d,2021-04-06_09h35.14.757,Colour_Similarity_Experiment,2020.2.10,Win32,60,6067542a4a25243f4d7d4fcf,17.76020349,17.33609375,16.62199052,16.71682051,16.69632287,16.71682051,,,,,,,,,,,,,,,,,,,,PF,weak,3,,,,,,,,1,3.34637,,,,,,,,,,,,,,,,,,,,,,,,,,,,7,weak,-80,30,1,0,0,response7disk,5,7,3,-7,1,0,0,rectangle,3,-7,1,0,0,,7,0.00063,3,-7,1,0,0,0,6,6,92,1,0,,,,,,,,,,,,,,,,,,,,,
,,,,,,,,,,,,,,,,,,,,,,,,,,,,,,,,,,,,,,,,,,5ff818ad08876e553a87bde7,606c0cd161b2e598bc2b178d,2021-04-06_09h35.14.757,Colour_Similarity_Experiment,2020.2.10,Win32,60,6067542a4a25243f4d7d4fcf,17.76020349,17.33609375,16.62199052,16.71682051,16.69632287,16.71682051,,,,,,,,,,,,,,,,,,,,PF,weak,3,,,,,,,,7,1.29814,,,,,,,,,,,,,,,,,,,,,,,,,,,,9,weak,44,96,1,0,0,response1disk,6,8,-3,-4,1,0,0,rectangle,-3,-4,1,0,0,,4,0.00417,-3,-4,1,0,0,0,7,7,148,1,0,,,,,,,,,,,,,,,,,,,,,
,,,,,,,,,,,,,,,,,,,,,,,,,,,,,,,,,,,,,,,,,,5ff818ad08876e553a87bde7,606c0cd161b2e598bc2b178d,2021-04-06_09h35.14.757,Colour_Similarity_Experiment,2020.2.10,Win32,60,6067542a4a25243f4d7d4fcf,17.76020349,17.33609375,16.62199052,16.71682051,16.69632287,16.71682051,,,,,,,,,,,,,,,,,,,,PF,strong,3,,,,,,,,0,3.11376,,,,,,,,,,,,,,,,,,,,,,,,,,,,8,strong,-29,98,1,0,0,response7disk,8,9,9,4,1,0,0,rectangle,9,4,1,0,0,,4,0.00048,9,4,1,0,0,0,8,8,48,1,0,,,,,,,,,,,,,,,,,,,,,
,,,,,,,,,,,,,,,,,,,,,,,,,,,,,,,,,,,,,,,,,,5ff818ad08876e553a87bde7,606c0cd161b2e598bc2b178d,2021-04-06_09h35.14.757,Colour_Similarity_Experiment,2020.2.10,Win32,60,6067542a4a25243f4d7d4fcf,17.76020349,17.33609375,16.62199052,16.71682051,16.69632287,16.71682051,,,,,,,,,,,,,,,,,,,,PF,strong,3,,,,,,,,7,2.115205,,,,,,,,,,,,,,,,,,,,,,,,,,,,6,strong,43,99,1,0,0,response1disk,1,10,0,7,1,0,0,rectangle,0,7,1,0,0,,4,0.00017,0,7,1,0,0,0,9,9,5,1,0,,,,,,,,,,,,,,,,,,,,,
,,,,,,,,,,,,,,,,,,,,,,,,,,,,,,,,,,,,,,,,,,5ff818ad08876e553a87bde7,606c0cd161b2e598bc2b178d,2021-04-06_09h35.14.757,Colour_Similarity_Experiment,2020.2.10,Win32,60,6067542a4a25243f4d7d4fcf,17.76020349,17.33609375,16.62199052,16.71682051,16.69632287,16.71682051,,,,,,,,,,,,,,,,,,,,PF,weak,3,,,,,,,,0,1.415195,,,,,,,,,,,,,,,,,,,,,,,,,,,,4,weak,-40,95,1,0,0,response7disk,4,11,5,1,1,0,0,rectangle,5,1,1,0,0,,3,0.004005,5,1,1,0,0,0,10,10,70,1,0,,,,,,,,,,,,,,,,,,,,,
,,,,,,,,,,,,,,,,,,,,,,,,,,,,,,,,,,,,,,,,,,5ff818ad08876e553a87bde7,606c0cd161b2e598bc2b178d,2021-04-06_09h35.14.757,Colour_Similarity_Experiment,2020.2.10,Win32,60,6067542a4a25243f4d7d4fcf,17.76020349,17.33609375,16.62199052,16.71682051,16.69632287,16.71682051,,,,,,,,,,,,,,,,,,,,PF,weak,3,,,,,,,,7,1.34851,,,,,,,,,,,,,,,,,,,,,,,,,,,,6,weak,45,95,1,0,0,response1disk,9,12,-4,0,1,0,0,rectangle,-4,0,1,0,0,,1,0.000835,-4,0,1,0,0,0,11,11,45,1,0,,,,,,,,,,,,,,,,,,,,,
,,,,,,,,,,,,,,,,,,,,,,,,,,,,,,,,,,,,,,,,,,5ff818ad08876e553a87bde7,606c0cd161b2e598bc2b178d,2021-04-06_09h35.14.757,Colour_Similarity_Experiment,2020.2.10,Win32,60,6067542a4a25243f4d7d4fcf,17.76020349,17.33609375,16.62199052,16.71682051,16.69632287,16.71682051,,,,,,,,,,,,,,,,,,,,PF,strong,3,,,,,,,,5,2.613035,,,,,,,,,,,,,,,,,,,,,,,,,,,,1,strong,85,-42,1,0,0,response3disk,1,13,0,-6,1,0,0,rectangle,0,-6,1,0,0,,5,0.001825,0,-6,1,0,0,0,12,12,151,1,0,,,,,,,,,,,,,,,,,,,,,
,,,,,,,,,,,,,,,,,,,,,,,,,,,,,,,,,,,,,,,,,,5ff818ad08876e553a87bde7,606c0cd161b2e598bc2b178d,2021-04-06_09h35.14.757,Colour_Similarity_Experiment,2020.2.10,Win32,60,6067542a4a25243f4d7d4fcf,17.76020349,17.33609375,16.62199052,16.71682051,16.69632287,16.71682051,,,,,,,,,,,,,,,,,,,,PF,weak,3,,,,,,,,7,2.247395,,,,,,,,,,,,,,,,,,,,,,,,,,,,4,weak,41,92,1,0,0,response1disk,2,14,0,-6,1,0,0,rectangle,0,-6,1,0,0,,6,0.004685,0,-6,1,0,0,0,13,13,108,1,0,,,,,,,,,,,,,,,,,,,,,
,,,,,,,,,,,,,,,,,,,,,,,,,,,,,,,,,,,,,,,,,,5ff818ad08876e553a87bde7,606c0cd161b2e598bc2b178d,2021-04-06_09h35.14.757,Colour_Similarity_Experiment,2020.2.10,Win32,60,6067542a4a25243f4d7d4fcf,17.76020349,17.33609375,16.62199052,16.71682051,16.69632287,16.71682051,,,,,,,,,,,,,,,,,,,,PF,strong,3,,,,,,,,3,4.09602,,,,,,,,,,,,,,,,,,,,,,,,,,,,7,strong,-47,-86,1,0,0,response5disk,1,15,15,6,1,0,0,rectangle,15,6,1,0,0,,3,0.000645,15,6,1,0,0,0,14,14,132,1,0,,,,,,,,,,,,,,,,,,,,,
,,,,,,,,,,,,,,,,,,,,,,,,,,,,,,,,,,,,,,,,,,5ff818ad08876e553a87bde7,606c0cd161b2e598bc2b178d,2021-04-06_09h35.14.757,Colour_Similarity_Experiment,2020.2.10,Win32,60,6067542a4a25243f4d7d4fcf,17.76020349,17.33609375,16.62199052,16.71682051,16.69632287,16.71682051,,,,,,,,,,,,,,,,,,,,PF,strong,3,,,,,,,,0,1.516155,,,,,,,,,,,,,,,,,,,,,,,,,,,,3,strong,-37,101,1,0,0,response7disk,2,16,2,2,1,0,0,rectangle,2,2,1,0,0,,0,0.000735,2,2,1,0,0,0,15,15,93,1,0,,,,,,,,,,,,,,,,,,,,,
,,,,,,,,,,,,,,,,,,,,,,,,,,,,,,,,,,,,,,,,,,5ff818ad08876e553a87bde7,606c0cd161b2e598bc2b178d,2021-04-06_09h35.14.757,Colour_Similarity_Experiment,2020.2.10,Win32,60,6067542a4a25243f4d7d4fcf,17.76020349,17.33609375,16.62199052,16.71682051,16.69632287,16.71682051,,,,,,,,,,,,,,,,,,,,PF,strong,3,,,,,,,,7,4.378725,,,,,,,,,,,,,,,,,,,,,,,,,,,,1,strong,39,47,1,0,0,response1disk,4,17,2,2,1,0,0,rectangle,2,2,1,0,0,,6,0.00057,2,2,1,0,0,0,16,16,135,1,0,,,,,,,,,,,,,,,,,,,,,
,,,,,,,,,,,,,,,,,,,,,,,,,,,,,,,,,,,,,,,,,,5ff818ad08876e553a87bde7,606c0cd161b2e598bc2b178d,2021-04-06_09h35.14.757,Colour_Similarity_Experiment,2020.2.10,Win32,60,6067542a4a25243f4d7d4fcf,17.76020349,17.33609375,16.62199052,16.71682051,16.69632287,16.71682051,,,,,,,,,,,,,,,,,,,,PF,weak,3,,,,,,,,7,1.21624,,,,,,,,,,,,,,,,,,,,,,,,,,,,2,weak,35,88,1,0,0,response1disk,9,18,13,-3,1,0,0,rectangle,13,-3,1,0,0,,2,0.00063,13,-3,1,0,0,0,17,17,39,1,0,,,,,,,,,,,,,,,,,,,,,
,,,,,,,,,,,,,,,,,,,,,,,,,,,,,,,,,,,,,,,,,,5ff818ad08876e553a87bde7,606c0cd161b2e598bc2b178d,2021-04-06_09h35.14.757,Colour_Similarity_Experiment,2020.2.10,Win32,60,6067542a4a25243f4d7d4fcf,17.76020349,17.33609375,16.62199052,16.71682051,16.69632287,16.71682051,,,,,,,,,,,,,,,,,,,,PF,weak,3,,,,,,,,7,1.364575,,,,,,,,,,,,,,,,,,,,,,,,,,,,8,weak,38,90,1,0,0,response1disk,6,19,8,-3,1,0,0,rectangle,-32,-74,1,0,0,3,3,4.328865,1,-2,1,0,0,0,18,18,161,1,1,response5disk_3,rectangle,,,,,,,,,,,,,,,,,,,
,,,,,,,,,,,,,,,,,,,,,,,,,,,,,,,,,,,,,,,,,,5ff818ad08876e553a87bde7,606c0cd161b2e598bc2b178d,2021-04-06_09h35.14.757,Colour_Similarity_Experiment,2020.2.10,Win32,60,6067542a4a25243f4d7d4fcf,17.76020349,17.33609375,16.62199052,16.71682051,16.69632287,16.71682051,,,,,,,,,,,,,,,,,,,,PF,strong,3,,,,,,,,3,2.81351,,,,,,,,,,,,,,,,,,,,,,,,,,,,7,strong,-29,-73,1,0,0,response5disk,7,20,0,3,1,0,0,rectangle,0,3,1,0,0,3,4,0.00082,0,3,1,0,0,0,19,19,34,1,0,,,,,,,,,,,,,,,,,,,,,
,,,,,,,,,,,,,,,,,,,,,,,,,,,,,,,,,,,,,,,,,,5ff818ad08876e553a87bde7,606c0cd161b2e598bc2b178d,2021-04-06_09h35.14.757,Colour_Similarity_Experiment,2020.2.10,Win32,60,6067542a4a25243f4d7d4fcf,17.76020349,17.33609375,16.62199052,16.71682051,16.69632287,16.71682051,,,,,,,,,,,,,,,,,,,,PF,strong,3,,,,,,,,7,5.643975,,,,,,,,,,,,,,,,,,,,,,,,,,,,4,strong,71,96,1,0,0,response1disk,9,21,10,-3,1,0,0,rectangle,10,-3,1,0,0,3,1,0.000865,10,-3,1,0,0,0,20,20,90,1,0,,,,,,,,,,,,,,,,,,,,,
,,,,,,,,,,,,,,,,,,,,,,,,,,,,,,,,,,,,,,,,,,5ff818ad08876e553a87bde7,606c0cd161b2e598bc2b178d,2021-04-06_09h35.14.757,Colour_Similarity_Experiment,2020.2.10,Win32,60,6067542a4a25243f4d7d4fcf,17.76020349,17.33609375,16.62199052,16.71682051,16.69632287,16.71682051,,,,,,,,,,,,,,,,,,,,PF,weak,3,,,,,,,,4,1.67567,,,,,,,,,,,,,,,,,,,,,,,,,,,,5,weak,50,-79,1,0,0,response3disk,8,22,0,4,1,0,0,rectangle,0,4,1,0,0,3,7,0.00058,0,4,1,0,0,0,21,21,149,1,0,,,,,,,,,,,,,,,,,,,,,
,,,,,,,,,,,,,,,,,,,,,,,,,,,,,,,,,,,,,,,,,,5ff818ad08876e553a87bde7,606c0cd161b2e598bc2b178d,2021-04-06_09h35.14.757,Colour_Similarity_Experiment,2020.2.10,Win32,60,6067542a4a25243f4d7d4fcf,17.76020349,17.33609375,16.62199052,16.71682051,16.69632287,16.71682051,,,,,,,,,,,,,,,,,,,,PF,strong,3,,,,,,,,3,2.89954,,,,,,,,,,,,,,,,,,,,,,,,,,,,3,strong,-49,-84,1,0,0,response5disk,5,23,4,0,1,0,0,rectangle,4,0,1,0,0,3,7,0.00039,4,0,1,0,0,0,22,22,101,1,0,,,,,,,,,,,,,,,,,,,,,
,,,,,,,,,,,,,,,,,,,,,,,,,,,,,,,,,,,,,,,,,,5ff818ad08876e553a87bde7,606c0cd161b2e598bc2b178d,2021-04-06_09h35.14.757,Colour_Similarity_Experiment,2020.2.10,Win32,60,6067542a4a25243f4d7d4fcf,17.76020349,17.33609375,16.62199052,16.71682051,16.69632287,16.71682051,,,,,,,,,,,,,,,,,,,,PF,strong,3,,,,,,,,4,3.09725,,,,,,,,,,,,,,,,,,,,,,,,,,,,5,strong,47,-79,1,0,0,response3disk,3,24,-8,10,1,0,0,rectangle,-8,10,1,0,0,3,6,0.00238,-8,10,1,0,0,0,23,23,25,1,0,,,,,,,,,,,,,,,,,,,,,
,,,,,,,,,,,,,,,,,,,,,,,,,,,,,,,,,,,,,,,,,,5ff818ad08876e553a87bde7,606c0cd161b2e598bc2b178d,2021-04-06_09h35.14.757,Colour_Similarity_Experiment,2020.2.10,Win32,60,6067542a4a25243f4d7d4fcf,17.76020349,17.33609375,16.62199052,16.71682051,16.69632287,16.71682051,,,,,,,,,,,,,,,,,,,,PF,strong,3,,,,,,,,5,3.829105,,,,,,,,,,,,,,,,,,,,,,,,,,,,6,strong,103,-31,1,0,0,response3disk,6,25,-17,-9,1,0,0,rectangle,-17,-9,1,0,0,3,5,0.004385,-17,-9,1,0,0,0,24,24,91,1,0,,,,,,,,,,,,,,,,,,,,,
,,,,,,,,,,,,,,,,,,,,,,,,,,,,,,,,,,,,,,,,,,5ff818ad08876e553a87bde7,606c0cd161b2e598bc2b178d,2021-04-06_09h35.14.757,Colour_Similarity_Experiment,2020.2.10,Win32,60,6067542a4a25243f4d7d4fcf,17.76020349,17.33609375,16.62199052,16.71682051,16.69632287,16.71682051,,,,,,,,,,,,,,,,,,,,PF,weak,3,,,,,,,,1,1.731915,,,,,,,,,,,,,,,,,,,,,,,,,,,,8,weak,-79,36,1,0,0,response7disk,1,26,-5,5,1,0,0,rectangle,-5,5,1,0,0,3,4,0.00238,-5,5,1,0,0,0,25,25,57,1,0,,,,,,,,,,,,,,,,,,,,,
,,,,,,,,,,,,,,,,,,,,,,,,,,,,,,,,,,,,,,,,,,5ff818ad08876e553a87bde7,606c0cd161b2e598bc2b178d,2021-04-06_09h35.14.757,Colour_Similarity_Experiment,2020.2.10,Win32,60,6067542a4a25243f4d7d4fcf,17.76020349,17.33609375,16.62199052,16.71682051,16.69632287,16.71682051,,,,,,,,,,,,,,,,,,,,PF,strong,3,,,,,,,,7,2.080525,,,,,,,,,,,,,,,,,,,,,,,,,,,,6,strong,33,78,1,0,0,response1disk,8,27,-2,-5,1,0,0,rectangle,-2,-5,1,0,0,3,2,0.00061,-2,-5,1,0,0,0,26,26,133,1,0,,,,,,,,,,,,,,,,,,,,,
,,,,,,,,,,,,,,,,,,,,,,,,,,,,,,,,,,,,,,,,,,5ff818ad08876e553a87bde7,606c0cd161b2e598bc2b178d,2021-04-06_09h35.14.757,Colour_Similarity_Experiment,2020.2.10,Win32,60,6067542a4a25243f4d7d4fcf,17.76020349,17.33609375,16.62199052,16.71682051,16.69632287,16.71682051,,,,,,,,,,,,,,,,,,,,PF,weak,3,,,,,,,,2,2.430995,,,,,,,,,,,,,,,,,,,,,,,,,,,,7,weak,-87,-44,1,0,0,response5disk,7,28,-7,-1,1,0,0,rectangle,-7,-1,1,0,0,3,0,0.003835,-7,-1,1,0,0,0,27,27,51,1,0,,,,,,,,,,,,,,,,,,,,,
,,,,,,,,,,,,,,,,,,,,,,,,,,,,,,,,,,,,,,,,,,5ff818ad08876e553a87bde7,606c0cd161b2e598bc2b178d,2021-04-06_09h35.14.757,Colour_Similarity_Experiment,2020.2.10,Win32,60,6067542a4a25243f4d7d4fcf,17.76020349,17.33609375,16.62199052,16.71682051,16.69632287,16.71682051,,,,,,,,,,,,,,,,,,,,PF,weak,3,,,,,,,,7,1.61523,,,,,,,,,,,,,,,,,,,,,,,,,,,,7,weak,31,84,1,0,0,response1disk,2,29,1,3,1,0,0,rectangle,1,3,1,0,0,3,6,0.000765,1,3,1,0,0,0,28,28,32,1,0,,,,,,,,,,,,,,,,,,,,,
,,,,,,,,,,,,,,,,,,,,,,,,,,,,,,,,,,,,,,,,,,5ff818ad08876e553a87bde7,606c0cd161b2e598bc2b178d,2021-04-06_09h35.14.757,Colour_Similarity_Experiment,2020.2.10,Win32,60,6067542a4a25243f4d7d4fcf,17.76020349,17.33609375,16.62199052,16.71682051,16.69632287,16.71682051,,,,,,,,,,,,,,,,,,,,PF,weak,3,,,,,,,,6,1.448555,,,,,,,,,,,,,,,,,,,,,,,,,,,,5,weak,90,28,1,0,0,response1disk,3,30,10,-5,1,0,0,rectangle,10,-5,1,0,0,3,5,0.00136,10,-5,1,0,0,0,29,29,109,1,0,,,,,,,,,,,,,,,,,,,,,
,,,,,,,,,,,,,,,,,,,,,,,,,,,,,,,,,,,,,,,,,,5ff818ad08876e553a87bde7,606c0cd161b2e598bc2b178d,2021-04-06_09h35.14.757,Colour_Similarity_Experiment,2020.2.10,Win32,60,6067542a4a25243f4d7d4fcf,17.76020349,17.33609375,16.62199052,16.71682051,16.69632287,16.71682051,,,,,,,,,,,,,,,,,,,,PF,weak,3,,,,,,,,7,1.29763,,,,,,,,,,,,,,,,,,,,,,,,,,,,9,weak,40,100,1,0,0,response1disk,2,31,-4,1,1,0,0,rectangle,-4,1,1,0,0,3,3,0.00064,-4,1,1,0,0,0,30,30,157,1,0,,,,,,,,,,,,,,,,,,,,,
,,,,,,,,,,,,,,,,,,,,,,,,,,,,,,,,,,,,,,,,,,5ff818ad08876e553a87bde7,606c0cd161b2e598bc2b178d,2021-04-06_09h35.14.757,Colour_Similarity_Experiment,2020.2.10,Win32,60,6067542a4a25243f4d7d4fcf,17.76020349,17.33609375,16.62199052,16.71682051,16.69632287,16.71682051,,,,,,,,,,,,,,,,,,,,PF,strong,3,,,,,,,,0,2.064725,,,,,,,,,,,,,,,,,,,,,,,,,,,,7,strong,-35,88,1,0,0,response7disk,5,32,7,5,1,0,0,rectangle,7,5,1,0,0,3,3,0.000095,7,5,1,0,0,0,31,31,156,1,0,,,,,,,,,,,,,,,,,,,,,
,,,,,,,,,,,,,,,,,,,,,,,,,,,,,,,,,,,,,,,,,,5ff818ad08876e553a87bde7,606c0cd161b2e598bc2b178d,2021-04-06_09h35.14.757,Colour_Similarity_Experiment,2020.2.10,Win32,60,6067542a4a25243f4d7d4fcf,17.76020349,17.33609375,16.62199052,16.71682051,16.69632287,16.71682051,,,,,,,,,,,,,,,,,,,,PF,weak,3,,,,,,,,1,1.29946,,,,,,,,,,,,,,,,,,,,,,,,,,,,2,weak,-87,36,1,0,0,response7disk,3,33,5,8,1,0,0,rectangle,5,8,1,0,0,3,3,0.00007,5,8,1,0,0,0,32,32,69,1,0,,,,,,,,,,,,,,,,,,,,,
,,,,,,,,,,,,,,,,,,,,,,,,,,,,,,,,,,,,,,,,,,5ff818ad08876e553a87bde7,606c0cd161b2e598bc2b178d,2021-04-06_09h35.14.757,Colour_Similarity_Experiment,2020.2.10,Win32,60,6067542a4a25243f4d7d4fcf,17.76020349,17.33609375,16.62199052,16.71682051,16.69632287,16.71682051,,,,,,,,,,,,,,,,,,,,PF,weak,3,,,,,,,,6,2.440605,,,,,,,,,,,,,,,,,,,,,,,,,,,,1,weak,79,38,1,0,0,response1disk,4,34,3,8,1,0,0,rectangle,3,8,1,0,0,3,0,0.000585,3,8,1,0,0,0,33,33,139,1,0,,,,,,,,,,,,,,,,,,,,,
,,,,,,,,,,,,,,,,,,,,,,,,,,,,,,,,,,,,,,,,,,5ff818ad08876e553a87bde7,606c0cd161b2e598bc2b178d,2021-04-06_09h35.14.757,Colour_Similarity_Experiment,2020.2.10,Win32,60,6067542a4a25243f4d7d4fcf,17.76020349,17.33609375,16.62199052,16.71682051,16.69632287,16.71682051,,,,,,,,,,,,,,,,,,,,PF,weak,3,,,,,,,,4,1.66115,,,,,,,,,,,,,,,,,,,,,,,,,,,,8,weak,35,-87,1,0,0,response3disk,2,35,11,-4,1,0,0,rectangle,11,-4,1,0,0,3,4,0.0006,11,-4,1,0,0,0,34,34,83,1,0,,,,,,,,,,,,,,,,,,,,,
,,,,,,,,,,,,,,,,,,,,,,,,,,,,,,,,,,,,,,,,,,5ff818ad08876e553a87bde7,606c0cd161b2e598bc2b178d,2021-04-06_09h35.14.757,Colour_Similarity_Experiment,2020.2.10,Win32,60,6067542a4a25243f4d7d4fcf,17.76020349,17.33609375,16.62199052,16.71682051,16.69632287,16.71682051,,,,,,,,,,,,,,,,,,,,PF,weak,3,,,,,,,,7,2.546365,,,,,,,,,,,,,,,,,,,,,,,,,,,,3,weak,44,95,1,0,0,response1disk,9,36,-8,-2,1,0,0,rectangle,-8,-2,1,0,0,3,0,0.0006,-8,-2,1,0,0,0,35,35,79,1,0,,,,,,,,,,,,,,,,,,,,,
,,,,,,,,,,,,,,,,,,,,,,,,,,,,,,,,,,,,,,,,,,5ff818ad08876e553a87bde7,606c0cd161b2e598bc2b178d,2021-04-06_09h35.14.757,Colour_Similarity_Experiment,2020.2.10,Win32,60,6067542a4a25243f4d7d4fcf,17.76020349,17.33609375,16.62199052,16.71682051,16.69632287,16.71682051,,,,,,,,,,,,,,,,,,,,PF,weak,3,,,,,,,,0,1.615655,,,,,,,,,,,,,,,,,,,,,,,,,,,,5,weak,-28,80,1,0,0,response7disk,6,37,4,4,1,0,0,rectangle,4,4,1,0,0,3,7,0.00089,4,4,1,0,0,0,36,36,103,1,0,,,,,,,,,,,,,,,,,,,,,
,,,,,,,,,,,,,,,,,,,,,,,,,,,,,,,,,,,,,,,,,,5ff818ad08876e553a87bde7,606c0cd161b2e598bc2b178d,2021-04-06_09h35.14.757,Colour_Similarity_Experiment,2020.2.10,Win32,60,6067542a4a25243f4d7d4fcf,17.76020349,17.33609375,16.62199052,16.71682051,16.69632287,16.71682051,,,,,,,,,,,,,,,,,,,,PF,strong,3,,,,,,,,3,2.146355,,,,,,,,,,,,,,,,,,,,,,,,,,,,8,strong,-29,-68,1,0,0,response5disk,5,38,-8,-3,1,0,0,rectangle,-8,-3,1,0,0,3,4,0.00443,-8,-3,1,0,0,0,37,37,152,1,0,,,,,,,,,,,,,,,,,,,,,
,,,,,,,,,,,,,,,,,,,,,,,,,,,,,,,,,,,,,,,,,,5ff818ad08876e553a87bde7,606c0cd161b2e598bc2b178d,2021-04-06_09h35.14.757,Colour_Similarity_Experiment,2020.2.10,Win32,60,6067542a4a25243f4d7d4fcf,17.76020349,17.33609375,16.62199052,16.71682051,16.69632287,16.71682051,,,,,,,,,,,,,,,,,,,,PF,weak,3,,,,,,,,3,2.29769,,,,,,,,,,,,,,,,,,,,,,,,,,,,7,weak,-26,-73,1,0,0,response5disk,4,39,5,2,1,0,0,rectangle,5,2,1,0,0,3,3,0.00255,5,2,1,0,0,0,38,38,43,1,0,,,,,,,,,,,,,,,,,,,,,
,,,,,,,,,,,,,,,,,,,,,,,,,,,,,,,,,,,,,,,,,,5ff818ad08876e553a87bde7,606c0cd161b2e598bc2b178d,2021-04-06_09h35.14.757,Colour_Similarity_Experiment,2020.2.10,Win32,60,6067542a4a25243f4d7d4fcf,17.76020349,17.33609375,16.62199052,16.71682051,16.69632287,16.71682051,,,,,,,,,,,,,,,,,,,,PF,weak,3,,,,,,,,2,1.46522,,,,,,,,,,,,,,,,,,,,,,,,,,,,5,weak,-52,-34,1,0,0,response5disk,5,40,-3,-7,1,0,0,rectangle,-3,-7,1,0,0,3,1,0.003075,-3,-7,1,0,0,0,39,39,94,1,0,,,,,,,,,,,,,,,,,,,,,
,,,,,,,,,,,,,,,,,,,,,,,,,,,,,,,,,,,,,,,,,,5ff818ad08876e553a87bde7,606c0cd161b2e598bc2b178d,2021-04-06_09h35.14.757,Colour_Similarity_Experiment,2020.2.10,Win32,60,6067542a4a25243f4d7d4fcf,17.76020349,17.33609375,16.62199052,16.71682051,16.69632287,16.71682051,,,,,,,,,,,,,,,,,,,,PF,strong,3,,,,,,,,5,2.080605,,,,,,,,,,,,,,,,,,,,,,,,,,,,3,strong,82,-21,1,0,0,response3disk,9,41,-9,-3,1,0,0,rectangle,-9,-3,1,0,0,3,6,0.000595,-9,-3,1,0,0,0,40,40,143,1,0,,,,,,,,,,,,,,,,,,,,,
,,,,,,,,,,,,,,,,,,,,,,,,,,,,,,,,,,,,,,,,,,5ff818ad08876e553a87bde7,606c0cd161b2e598bc2b178d,2021-04-06_09h35.14.757,Colour_Similarity_Experiment,2020.2.10,Win32,60,6067542a4a25243f4d7d4fcf,17.76020349,17.33609375,16.62199052,16.71682051,16.69632287,16.71682051,,,,,,,,,,,,,,,,,,,,PF,weak,3,,,,,,,,1,1.43203,,,,,,,,,,,,,,,,,,,,,,,,,,,,7,weak,-86,47,1,0,0,response7disk,6,42,-6,5,1,0,0,rectangle,-6,5,1,0,0,3,5,0.00062,-6,5,1,0,0,0,41,41,29,1,0,,,,,,,,,,,,,,,,,,,,,
,,,,,,,,,,,,,,,,,,,,,,,,,,,,,,,,,,,,,,,,,,5ff818ad08876e553a87bde7,606c0cd161b2e598bc2b178d,2021-04-06_09h35.14.757,Colour_Similarity_Experiment,2020.2.10,Win32,60,6067542a4a25243f4d7d4fcf,17.76020349,17.33609375,16.62199052,16.71682051,16.69632287,16.71682051,,,,,,,,,,,,,,,,,,,,PF,weak,3,,,,,,,,7,1.299585,,,,,,,,,,,,,,,,,,,,,,,,,,,,8,weak,41,97,1,0,0,response1disk,5,43,-8,-5,1,0,0,rectangle,-8,-5,1,0,0,3,6,0.000575,-8,-5,1,0,0,0,42,42,98,1,0,,,,,,,,,,,,,,,,,,,,,
,,,,,,,,,,,,,,,,,,,,,,,,,,,,,,,,,,,,,,,,,,5ff818ad08876e553a87bde7,606c0cd161b2e598bc2b178d,2021-04-06_09h35.14.757,Colour_Similarity_Experiment,2020.2.10,Win32,60,6067542a4a25243f4d7d4fcf,17.76020349,17.33609375,16.62199052,16.71682051,16.69632287,16.71682051,,,,,,,,,,,,,,,,,,,,PF,strong,3,,,,,,,,0,1.642175,,,,,,,,,,,,,,,,,,,,,,,,,,,,2,strong,-38,93,1,0,0,response7disk,2,44,0,-10,1,0,0,rectangle,0,-10,1,0,0,3,0,0.002245,0,-10,1,0,0,0,43,43,142,1,0,,,,,,,,,,,,,,,,,,,,,
,,,,,,,,,,,,,,,,,,,,,,,,,,,,,,,,,,,,,,,,,,5ff818ad08876e553a87bde7,606c0cd161b2e598bc2b178d,2021-04-06_09h35.14.757,Colour_Similarity_Experiment,2020.2.10,Win32,60,6067542a4a25243f4d7d4fcf,17.76020349,17.33609375,16.62199052,16.71682051,16.69632287,16.71682051,,,,,,,,,,,,,,,,,,,,PF,weak,3,,,,,,,,3,1.35943,,,,,,,,,,,,,,,,,,,,,,,,,,,,6,weak,-49,-64,1,0,0,response5disk,7,45,4,4,1,0,0,rectangle,4,4,1,0,0,3,1,0.00074,4,4,1,0,0,0,44,44,50,1,0,,,,,,,,,,,,,,,,,,,,,
,,,,,,,,,,,,,,,,,,,,,,,,,,,,,,,,,,,,,,,,,,5ff818ad08876e553a87bde7,606c0cd161b2e598bc2b178d,2021-04-06_09h35.14.757,Colour_Similarity_Experiment,2020.2.10,Win32,60,6067542a4a25243f4d7d4fcf,17.76020349,17.33609375,16.62199052,16.71682051,16.69632287,16.71682051,,,,,,,,,,,,,,,,,,,,PF,strong,3,,,,,,,,2,1.79885,,,,,,,,,,,,,,,,,,,,,,,,,,,,6,strong,-66,-53,1,0,0,response5disk,7,46,-5,-7,1,0,0,rectangle,-5,-7,1,0,0,3,6,0.000865,-5,-7,1,0,0,0,45,45,18,1,0,,,,,,,,,,,,,,,,,,,,,
,,,,,,,,,,,,,,,,,,,,,,,,,,,,,,,,,,,,,,,,,,5ff818ad08876e553a87bde7,606c0cd161b2e598bc2b178d,2021-04-06_09h35.14.757,Colour_Similarity_Experiment,2020.2.10,Win32,60,6067542a4a25243f4d7d4fcf,17.76020349,17.33609375,16.62199052,16.71682051,16.69632287,16.71682051,,,,,,,,,,,,,,,,,,,,PF,weak,3,,,,,,,,3,1.514875,,,,,,,,,,,,,,,,,,,,,,,,,,,,1,weak,-39,-68,1,0,0,response5disk,2,47,-2,3,1,0,0,rectangle,-2,3,1,0,0,3,6,0.000075,-2,3,1,0,0,0,46,46,24,1,0,,,,,,,,,,,,,,,,,,,,,
,,,,,,,,,,,,,,,,,,,,,,,,,,,,,,,,,,,,,,,,,,5ff818ad08876e553a87bde7,606c0cd161b2e598bc2b178d,2021-04-06_09h35.14.757,Colour_Similarity_Experiment,2020.2.10,Win32,60,6067542a4a25243f4d7d4fcf,17.76020349,17.33609375,16.62199052,16.71682051,16.69632287,16.71682051,,,,,,,,,,,,,,,,,,,,PF,strong,3,,,,,,,,5,2.44308,,,,,,,,,,,,,,,,,,,,,,,,,,,,9,strong,79,-37,1,0,0,response3disk,9,48,11,-6,1,0,0,rectangle,11,-6,1,0,0,3,0,0.0018,11,-6,1,0,0,0,47,47,17,1,0,,,,,,,,,,,,,,,,,,,,,
,,,,,,,,,,,,,,,,,,,,,,,,,,,,,,,,,,,,,,,,,,5ff818ad08876e553a87bde7,606c0cd161b2e598bc2b178d,2021-04-06_09h35.14.757,Colour_Similarity_Experiment,2020.2.10,Win32,60,6067542a4a25243f4d7d4fcf,17.76020349,17.33609375,16.62199052,16.71682051,16.69632287,16.71682051,,,,,,,,,,,,,,,,,,,,PF,weak,3,,,,,,,,7,1.347975,,,,,,,,,,,,,,,,,,,,,,,,,,,,4,weak,31,89,1,0,0,response1disk,8,49,2,6,1,0,0,rectangle,2,6,1,0,0,3,4,0.0006,2,6,1,0,0,0,48,48,124,1,0,,,,,,,,,,,,,,,,,,,,,
,,,,,,,,,,,,,,,,,,,,,,,,,,,,,,,,,,,,,,,,,,5ff818ad08876e553a87bde7,606c0cd161b2e598bc2b178d,2021-04-06_09h35.14.757,Colour_Similarity_Experiment,2020.2.10,Win32,60,6067542a4a25243f4d7d4fcf,17.76020349,17.33609375,16.62199052,16.71682051,16.69632287,16.71682051,,,,,,,,,,,,,,,,,,,,PF,weak,3,,,,,,,,7,1.216005,,,,,,,,,,,,,,,,,,,,,,,,,,,,6,weak,44,79,1,0,0,response1disk,2,50,-4,3,1,0,0,rectangle,-4,3,1,0,0,3,1,0.00057,-4,3,1,0,0,0,49,49,130,1,0,,,,,,,,,,,,,,,,,,,,,
,,,,,,,,,,,,,,,,,,,,,,,,,,,,,,,,,,,,,,,,,,5ff818ad08876e553a87bde7,606c0cd161b2e598bc2b178d,2021-04-06_09h35.14.757,Colour_Similarity_Experiment,2020.2.10,Win32,60,6067542a4a25243f4d7d4fcf,17.76020349,17.33609375,16.62199052,16.71682051,16.69632287,16.71682051,,,,,,,,,,,,,,,,,,,,PF,weak,3,,,,,,,,0,1.265135,,,,,,,,,,,,,,,,,,,,,,,,,,,,3,weak,-37,72,1,0,0,response7disk,2,51,1,0,1,0,0,rectangle,-50,-82,1,0,0,3,3,2.286545,1,5,1,0,0,0,50,50,36,1,1,response5disk_3,rectangle,,,,,,,,,,,,,,,,,,,
,,,,,,,,,,,,,,,,,,,,,,,,,,,,,,,,,,,,,,,,,,5ff818ad08876e553a87bde7,606c0cd161b2e598bc2b178d,2021-04-06_09h35.14.757,Colour_Similarity_Experiment,2020.2.10,Win32,60,6067542a4a25243f4d7d4fcf,17.76020349,17.33609375,16.62199052,16.71682051,16.69632287,16.71682051,,,,,,,,,,,,,,,,,,,,PF,strong,3,,,,,,,,6,2.963985,,,,,,,,,,,,,,,,,,,,,,,,,,,,2,strong,79,65,1,0,0,response1disk,8,52,0,4,1,0,0,rectangle,0,4,1,0,0,3,0,0.003145,0,4,1,0,0,0,51,51,62,1,0,,,,,,,,,,,,,,,,,,,,,
,,,,,,,,,,,,,,,,,,,,,,,,,,,,,,,,,,,,,,,,,,5ff818ad08876e553a87bde7,606c0cd161b2e598bc2b178d,2021-04-06_09h35.14.757,Colour_Similarity_Experiment,2020.2.10,Win32,60,6067542a4a25243f4d7d4fcf,17.76020349,17.33609375,16.62199052,16.71682051,16.69632287,16.71682051,,,,,,,,,,,,,,,,,,,,PF,strong,3,,,,,,,,5,1.731765,,,,,,,,,,,,,,,,,,,,,,,,,,,,1,strong,83,-33,1,0,0,response3disk,6,53,4,-3,1,0,0,rectangle,4,-3,1,0,0,3,3,0.003295,4,-3,1,0,0,0,52,52,58,1,0,,,,,,,,,,,,,,,,,,,,,
,,,,,,,,,,,,,,,,,,,,,,,,,,,,,,,,,,,,,,,,,,5ff818ad08876e553a87bde7,606c0cd161b2e598bc2b178d,2021-04-06_09h35.14.757,Colour_Similarity_Experiment,2020.2.10,Win32,60,6067542a4a25243f4d7d4fcf,17.76020349,17.33609375,16.62199052,16.71682051,16.69632287,16.71682051,,,,,,,,,,,,,,,,,,,,PF,strong,3,,,,,,,,7,2.8135,,,,,,,,,,,,,,,,,,,,,,,,,,,,5,strong,29,50,1,0,0,response1disk,9,54,5,-3,1,0,0,rectangle,5,-3,1,0,0,3,5,0.00248,5,-3,1,0,0,0,53,53,61,1,0,,,,,,,,,,,,,,,,,,,,,
,,,,,,,,,,,,,,,,,,,,,,,,,,,,,,,,,,,,,,,,,,5ff818ad08876e553a87bde7,606c0cd161b2e598bc2b178d,2021-04-06_09h35.14.757,Colour_Similarity_Experiment,2020.2.10,Win32,60,6067542a4a25243f4d7d4fcf,17.76020349,17.33609375,16.62199052,16.71682051,16.69632287,16.71682051,,,,,,,,,,,,,,,,,,,,PF,strong,3,,,,,,,,7,4.128835,,,,,,,,,,,,,,,,,,,,,,,,,,,,6,strong,46,94,1,0,0,response1disk,9,55,6,4,1,0,0,rectangle,38,-71,1,0,0,4,4,2.74487,-3,14,1,0,0,0,54,54,160,1,1,response3disk_3,rectangle,,,,,,,,,,,,,,,,,,,
,,,,,,,,,,,,,,,,,,,,,,,,,,,,,,,,,,,,,,,,,,5ff818ad08876e553a87bde7,606c0cd161b2e598bc2b178d,2021-04-06_09h35.14.757,Colour_Similarity_Experiment,2020.2.10,Win32,60,6067542a4a25243f4d7d4fcf,17.76020349,17.33609375,16.62199052,16.71682051,16.69632287,16.71682051,,,,,,,,,,,,,,,,,,,,PF,weak,3,,,,,,,,7,1.14797,,,,,,,,,,,,,,,,,,,,,,,,,,,,7,weak,52,83,1,0,0,response1disk,1,56,1,0,1,0,0,rectangle,1,0,1,0,0,4,3,0.002615,1,0,1,0,0,0,55,55,53,1,0,,,,,,,,,,,,,,,,,,,,,
,,,,,,,,,,,,,,,,,,,,,,,,,,,,,,,,,,,,,,,,,,5ff818ad08876e553a87bde7,606c0cd161b2e598bc2b178d,2021-04-06_09h35.14.757,Colour_Similarity_Experiment,2020.2.10,Win32,60,6067542a4a25243f4d7d4fcf,17.76020349,17.33609375,16.62199052,16.71682051,16.69632287,16.71682051,,,,,,,,,,,,,,,,,,,,PF,strong,3,,,,,,,,0,1.69829,,,,,,,,,,,,,,,,,,,,,,,,,,,,2,strong,-51,86,1,0,0,response7disk,5,57,-2,-1,1,0,0,rectangle,-2,-1,1,0,0,4,4,0.00458,-2,-1,1,0,0,0,56,56,80,1,0,,,,,,,,,,,,,,,,,,,,,
,,,,,,,,,,,,,,,,,,,,,,,,,,,,,,,,,,,,,,,,,,5ff818ad08876e553a87bde7,606c0cd161b2e598bc2b178d,2021-04-06_09h35.14.757,Colour_Similarity_Experiment,2020.2.10,Win32,60,6067542a4a25243f4d7d4fcf,17.76020349,17.33609375,16.62199052,16.71682051,16.69632287,16.71682051,,,,,,,,,,,,,,,,,,,,PF,strong,3,,,,,,,,1,1.415585,,,,,,,,,,,,,,,,,,,,,,,,,,,,9,strong,-72,32,1,0,0,response7disk,1,58,3,6,1,0,0,rectangle,3,6,1,0,0,4,4,0.000525,3,6,1,0,0,0,57,57,111,1,0,,,,,,,,,,,,,,,,,,,,,
,,,,,,,,,,,,,,,,,,,,,,,,,,,,,,,,,,,,,,,,,,5ff818ad08876e553a87bde7,606c0cd161b2e598bc2b178d,2021-04-06_09h35.14.757,Colour_Similarity_Experiment,2020.2.10,Win32,60,6067542a4a25243f4d7d4fcf,17.76020349,17.33609375,16.62199052,16.71682051,16.69632287,16.71682051,,,,,,,,,,,,,,,,,,,,PF,weak,3,,,,,,,,2,1.79758,,,,,,,,,,,,,,,,,,,,,,,,,,,,9,weak,-68,-47,1,0,0,response5disk,8,59,1,-8,1,0,0,rectangle,1,-8,1,0,0,4,3,0.005155,1,-8,1,0,0,0,58,58,67,1,0,,,,,,,,,,,,,,,,,,,,,
,,,,,,,,,,,,,,,,,,,,,,,,,,,,,,,,,,,,,,,,,,5ff818ad08876e553a87bde7,606c0cd161b2e598bc2b178d,2021-04-06_09h35.14.757,Colour_Similarity_Experiment,2020.2.10,Win32,60,6067542a4a25243f4d7d4fcf,17.76020349,17.33609375,16.62199052,16.71682051,16.69632287,16.71682051,,,,,,,,,,,,,,,,,,,,PF,strong,3,,,,,,,,0,2.612715,,,,,,,,,,,,,,,,,,,,,,,,,,,,3,strong,-36,80,1,0,0,response7disk,6,60,-6,9,1,0,0,rectangle,-6,9,1,0,0,4,7,0.003085,-6,9,1,0,0,0,59,59,95,1,0,,,,,,,,,,,,,,,,,,,,,
,,,,,,,,,,,,,,,,,,,,,,,,,,,,,,,,,,,,,,,,,,5ff818ad08876e553a87bde7,606c0cd161b2e598bc2b178d,2021-04-06_09h35.14.757,Colour_Similarity_Experiment,2020.2.10,Win32,60,6067542a4a25243f4d7d4fcf,17.76020349,17.33609375,16.62199052,16.71682051,16.69632287,16.71682051,,,,,,,,,,,,,,,,,,,,PF,strong,3,,,,,,,,7,1.698735,,,,,,,,,,,,,,,,,,,,,,,,,,,,9,strong,29,71,1,0,0,response1disk,6,61,4,-1,1,0,0,rectangle,4,-1,1,0,0,4,6,0.002895,4,-1,1,0,0,0,60,60,117,1,0,,,,,,,,,,,,,,,,,,,,,
,,,,,,,,,,,,,,,,,,,,,,,,,,,,,,,,,,,,,,,,,,5ff818ad08876e553a87bde7,606c0cd161b2e598bc2b178d,2021-04-06_09h35.14.757,Colour_Similarity_Experiment,2020.2.10,Win32,60,6067542a4a25243f4d7d4fcf,17.76020349,17.33609375,16.62199052,16.71682051,16.69632287,16.71682051,,,,,,,,,,,,,,,,,,,,PF,strong,3,,,,,,,,0,1.59874,,,,,,,,,,,,,,,,,,,,,,,,,,,,6,strong,-31,81,1,0,0,response7disk,5,62,-13,13,1,0,0,rectangle,-13,13,1,0,0,4,2,0.000875,-13,13,1,0,0,0,61,61,126,1,0,,,,,,,,,,,,,,,,,,,,,
,,,,,,,,,,,,,,,,,,,,,,,,,,,,,,,,,,,,,,,,,,5ff818ad08876e553a87bde7,606c0cd161b2e598bc2b178d,2021-04-06_09h35.14.757,Colour_Similarity_Experiment,2020.2.10,Win32,60,6067542a4a25243f4d7d4fcf,17.76020349,17.33609375,16.62199052,16.71682051,16.69632287,16.71682051,,,,,,,,,,,,,,,,,,,,PF,weak,3,,,,,,,,7,2.414015,,,,,,,,,,,,,,,,,,,,,,,,,,,,5,weak,43,79,1,0,0,response1disk,9,63,4,-5,1,0,0,rectangle,-90,-41,1,0,0,4,2,2.2654,-13,-1,1,0,0,0,62,62,136,1,1,response5disk_3,rectangle,,,,,,,,,,,,,,,,,,,
,,,,,,,,,,,,,,,,,,,,,,,,,,,,,,,,,,,,,,,,,,5ff818ad08876e553a87bde7,606c0cd161b2e598bc2b178d,2021-04-06_09h35.14.757,Colour_Similarity_Experiment,2020.2.10,Win32,60,6067542a4a25243f4d7d4fcf,17.76020349,17.33609375,16.62199052,16.71682051,16.69632287,16.71682051,,,,,,,,,,,,,,,,,,,,PF,strong,3,,,,,,,,7,1.782185,,,,,,,,,,,,,,,,,,,,,,,,,,,,9,strong,40,79,1,0,0,response1disk,8,64,-3,-1,1,0,0,rectangle,-3,-1,1,0,0,4,2,0.00018,-3,-1,1,0,0,0,63,63,6,1,0,,,,,,,,,,,,,,,,,,,,,
,,,,,,,,,,,,,,,,,,,,,,,,,,,,,,,,,,,,,,,,,,5ff818ad08876e553a87bde7,606c0cd161b2e598bc2b178d,2021-04-06_09h35.14.757,Colour_Similarity_Experiment,2020.2.10,Win32,60,6067542a4a25243f4d7d4fcf,17.76020349,17.33609375,16.62199052,16.71682051,16.69632287,16.71682051,,,,,,,,,,,,,,,,,,,,PF,strong,3,,,,,,,,4,1.4486,,,,,,,,,,,,,,,,,,,,,,,,,,,,8,strong,33,-73,1,0,0,response3disk,6,65,2,2,1,0,0,rectangle,2,2,1,0,0,4,5,0.00345,2,2,1,0,0,0,64,64,37,1,0,,,,,,,,,,,,,,,,,,,,,
,,,,,,,,,,,,,,,,,,,,,,,,,,,,,,,,,,,,,,,,,,5ff818ad08876e553a87bde7,606c0cd161b2e598bc2b178d,2021-04-06_09h35.14.757,Colour_Similarity_Experiment,2020.2.10,Win32,60,6067542a4a25243f4d7d4fcf,17.76020349,17.33609375,16.62199052,16.71682051,16.69632287,16.71682051,,,,,,,,,,,,,,,,,,,,PF,weak,3,,,,,,,,0,1.24872,,,,,,,,,,,,,,,,,,,,,,,,,,,,6,weak,-35,73,1,0,0,response7disk,5,66,2,-7,1,0,0,rectangle,2,-7,1,0,0,4,3,0.003795,2,-7,1,0,0,0,65,65,59,1,0,,,,,,,,,,,,,,,,,,,,,
,,,,,,,,,,,,,,,,,,,,,,,,,,,,,,,,,,,,,,,,,,5ff818ad08876e553a87bde7,606c0cd161b2e598bc2b178d,2021-04-06_09h35.14.757,Colour_Similarity_Experiment,2020.2.10,Win32,60,6067542a4a25243f4d7d4fcf,17.76020349,17.33609375,16.62199052,16.71682051,16.69632287,16.71682051,,,,,,,,,,,,,,,,,,,,PF,weak,3,,,,,,,,0,2.24714,,,,,,,,,,,,,,,,,,,,,,,,,,,,8,weak,-37,86,1,0,0,response7disk,9,67,-2,7,1,0,0,rectangle,-2,7,1,0,0,4,3,0.000325,-2,7,1,0,0,0,66,66,42,1,0,,,,,,,,,,,,,,,,,,,,,
,,,,,,,,,,,,,,,,,,,,,,,,,,,,,,,,,,,,,,,,,,5ff818ad08876e553a87bde7,606c0cd161b2e598bc2b178d,2021-04-06_09h35.14.757,Colour_Similarity_Experiment,2020.2.10,Win32,60,6067542a4a25243f4d7d4fcf,17.76020349,17.33609375,16.62199052,16.71682051,16.69632287,16.71682051,,,,,,,,,,,,,,,,,,,,PF,weak,3,,,,,,,,7,1.232565,,,,,,,,,,,,,,,,,,,,,,,,,,,,3,weak,42,83,1,0,0,response1disk,7,68,-4,1,1,0,0,rectangle,-4,1,1,0,0,4,1,0.0008,-4,1,1,0,0,0,67,67,41,1,0,,,,,,,,,,,,,,,,,,,,,
,,,,,,,,,,,,,,,,,,,,,,,,,,,,,,,,,,,,,,,,,,5ff818ad08876e553a87bde7,606c0cd161b2e598bc2b178d,2021-04-06_09h35.14.757,Colour_Similarity_Experiment,2020.2.10,Win32,60,6067542a4a25243f4d7d4fcf,17.76020349,17.33609375,16.62199052,16.71682051,16.69632287,16.71682051,,,,,,,,,,,,,,,,,,,,PF,weak,3,,,,,,,,5,1.931195,,,,,,,,,,,,,,,,,,,,,,,,,,,,2,weak,72,-38,1,0,0,response3disk,8,69,-1,-4,1,0,0,rectangle,-1,-4,1,0,0,4,3,0.000625,-1,-4,1,0,0,0,68,68,52,1,0,,,,,,,,,,,,,,,,,,,,,
,,,,,,,,,,,,,,,,,,,,,,,,,,,,,,,,,,,,,,,,,,5ff818ad08876e553a87bde7,606c0cd161b2e598bc2b178d,2021-04-06_09h35.14.757,Colour_Similarity_Experiment,2020.2.10,Win32,60,6067542a4a25243f4d7d4fcf,17.76020349,17.33609375,16.62199052,16.71682051,16.69632287,16.71682051,,,,,,,,,,,,,,,,,,,,PF,weak,3,,,,,,,,7,1.575745,,,,,,,,,,,,,,,,,,,,,,,,,,,,9,weak,38,93,1,0,0,response1disk,4,70,-3,5,1,0,0,rectangle,-3,5,1,0,0,4,7,0.000605,-3,5,1,0,0,0,69,69,114,1,0,,,,,,,,,,,,,,,,,,,,,
,,,,,,,,,,,,,,,,,,,,,,,,,,,,,,,,,,,,,,,,,,5ff818ad08876e553a87bde7,606c0cd161b2e598bc2b178d,2021-04-06_09h35.14.757,Colour_Similarity_Experiment,2020.2.10,Win32,60,6067542a4a25243f4d7d4fcf,17.76020349,17.33609375,16.62199052,16.71682051,16.69632287,16.71682051,,,,,,,,,,,,,,,,,,,,PF,weak,3,,,,,,,,3,1.74853,,,,,,,,,,,,,,,,,,,,,,,,,,,,5,weak,-47,-82,1,0,0,response5disk,4,71,1,-11,1,0,0,rectangle,1,-11,1,0,0,4,3,0.0043,1,-11,1,0,0,0,70,70,54,1,0,,,,,,,,,,,,,,,,,,,,,
,,,,,,,,,,,,,,,,,,,,,,,,,,,,,,,,,,,,,,,,,,5ff818ad08876e553a87bde7,606c0cd161b2e598bc2b178d,2021-04-06_09h35.14.757,Colour_Similarity_Experiment,2020.2.10,Win32,60,6067542a4a25243f4d7d4fcf,17.76020349,17.33609375,16.62199052,16.71682051,16.69632287,16.71682051,,,,,,,,,,,,,,,,,,,,PF,strong,3,,,,,,,,6,1.91424,,,,,,,,,,,,,,,,,,,,,,,,,,,,9,strong,77,29,1,0,0,response1disk,5,72,12,8,1,0,0,rectangle,12,8,1,0,0,4,4,0.003945,12,8,1,0,0,0,71,71,128,1,0,,,,,,,,,,,,,,,,,,,,,
,,,,,,,,,,,,,,,,,,,,,,,,,,,,,,,,,,,,,,,,,,5ff818ad08876e553a87bde7,606c0cd161b2e598bc2b178d,2021-04-06_09h35.14.757,Colour_Similarity_Experiment,2020.2.10,Win32,60,6067542a4a25243f4d7d4fcf,17.76020349,17.33609375,16.62199052,16.71682051,16.69632287,16.71682051,,,,,,,,,,,,,,,,,,,,PF,strong,3,,,,,,,,7,1.331215,,,,,,,,,,,,,,,,,,,,,,,,,,,,4,strong,59,80,1,0,0,response1disk,1,73,9,-1,1,0,0,rectangle,9,-1,1,0,0,4,2,0.003515,9,-1,1,0,0,0,72,72,102,1,0,,,,,,,,,,,,,,,,,,,,,
,,,,,,,,,,,,,,,,,,,,,,,,,,,,,,,,,,,,,,,,,,5ff818ad08876e553a87bde7,606c0cd161b2e598bc2b178d,2021-04-06_09h35.14.757,Colour_Similarity_Experiment,2020.2.10,Win32,60,6067542a4a25243f4d7d4fcf,17.76020349,17.33609375,16.62199052,16.71682051,16.69632287,16.71682051,,,,,,,,,,,,,,,,,,,,PF,strong,3,,,,,,,,7,1.31592,,,,,,,,,,,,,,,,,,,,,,,,,,,,5,strong,41,89,1,0,0,response1disk,1,74,-2,-3,1,0,0,rectangle,-2,-3,1,0,0,4,4,0.0007,-2,-3,1,0,0,0,73,73,131,1,0,,,,,,,,,,,,,,,,,,,,,
,,,,,,,,,,,,,,,,,,,,,,,,,,,,,,,,,,,,,,,,,,5ff818ad08876e553a87bde7,606c0cd161b2e598bc2b178d,2021-04-06_09h35.14.757,Colour_Similarity_Experiment,2020.2.10,Win32,60,6067542a4a25243f4d7d4fcf,17.76020349,17.33609375,16.62199052,16.71682051,16.69632287,16.71682051,,,,,,,,,,,,,,,,,,,,PF,strong,3,,,,,,,,5,2.030555,,,,,,,,,,,,,,,,,,,,,,,,,,,,3,strong,71,-28,1,0,0,response3disk,1,75,13,-6,1,0,0,rectangle,13,-6,1,0,0,4,1,0.00443,13,-6,1,0,0,0,74,74,125,1,0,,,,,,,,,,,,,,,,,,,,,
,,,,,,,,,,,,,,,,,,,,,,,,,,,,,,,,,,,,,,,,,,5ff818ad08876e553a87bde7,606c0cd161b2e598bc2b178d,2021-04-06_09h35.14.757,Colour_Similarity_Experiment,2020.2.10,Win32,60,6067542a4a25243f4d7d4fcf,17.76020349,17.33609375,16.62199052,16.71682051,16.69632287,16.71682051,,,,,,,,,,,,,,,,,,,,PF,strong,3,,,,,,,,7,1.549815,,,,,,,,,,,,,,,,,,,,,,,,,,,,7,strong,47,88,1,0,0,response1disk,2,76,-1,1,1,0,0,rectangle,-1,1,1,0,0,4,7,0.00147,-1,1,1,0,0,0,75,75,138,1,0,,,,,,,,,,,,,,,,,,,,,
,,,,,,,,,,,,,,,,,,,,,,,,,,,,,,,,,,,,,,,,,,5ff818ad08876e553a87bde7,606c0cd161b2e598bc2b178d,2021-04-06_09h35.14.757,Colour_Similarity_Experiment,2020.2.10,Win32,60,6067542a4a25243f4d7d4fcf,17.76020349,17.33609375,16.62199052,16.71682051,16.69632287,16.71682051,,,,,,,,,,,,,,,,,,,,PF,strong,3,,,,,,,,4,1.865985,,,,,,,,,,,,,,,,,,,,,,,,,,,,8,strong,28,-70,1,0,0,response3disk,1,77,-1,0,1,0,0,rectangle,-1,0,1,0,0,4,1,0.003395,-1,0,1,0,0,0,76,76,20,1,0,,,,,,,,,,,,,,,,,,,,,
,,,,,,,,,,,,,,,,,,,,,,,,,,,,,,,,,,,,,,,,,,5ff818ad08876e553a87bde7,606c0cd161b2e598bc2b178d,2021-04-06_09h35.14.757,Colour_Similarity_Experiment,2020.2.10,Win32,60,6067542a4a25243f4d7d4fcf,17.76020349,17.33609375,16.62199052,16.71682051,16.69632287,16.71682051,,,,,,,,,,,,,,,,,,,,PF,strong,3,,,,,,,,7,1.53176,,,,,,,,,,,,,,,,,,,,,,,,,,,,5,strong,42,92,1,0,0,response1disk,8,78,-3,2,1,0,0,rectangle,-3,2,1,0,0,4,4,0.00073,-3,2,1,0,0,0,77,77,16,1,0,,,,,,,,,,,,,,,,,,,,,
,,,,,,,,,,,,,,,,,,,,,,,,,,,,,,,,,,,,,,,,,,5ff818ad08876e553a87bde7,606c0cd161b2e598bc2b178d,2021-04-06_09h35.14.757,Colour_Similarity_Experiment,2020.2.10,Win32,60,6067542a4a25243f4d7d4fcf,17.76020349,17.33609375,16.62199052,16.71682051,16.69632287,16.71682051,,,,,,,,,,,,,,,,,,,,PF,strong,3,,,,,,,,6,1.66515,,,,,,,,,,,,,,,,,,,,,,,,,,,,2,strong,104,40,1,0,0,response1disk,9,79,-1,-7,1,0,0,rectangle,-1,-7,1,0,0,4,0,0.002685,-1,-7,1,0,0,0,78,78,72,1,0,,,,,,,,,,,,,,,,,,,,,
,,,,,,,,,,,,,,,,,,,,,,,,,,,,,,,,,,,,,,,,,,5ff818ad08876e553a87bde7,606c0cd161b2e598bc2b178d,2021-04-06_09h35.14.757,Colour_Similarity_Experiment,2020.2.10,Win32,60,6067542a4a25243f4d7d4fcf,17.76020349,17.33609375,16.62199052,16.71682051,16.69632287,16.71682051,,,,,,,,,,,,,,,,,,,,PF,weak,3,,,,,,,,6,1.913445,,,,,,,,,,,,,,,,,,,,,,,,,,,,3,weak,95,37,1,0,0,response1disk,1,80,15,-4,1,0,0,rectangle,15,-4,1,0,0,4,7,0.00312,15,-4,1,0,0,0,79,79,96,1,0,,,,,,,,,,,,,,,,,,,,,
,,,,,,,,,,,,,,,,,,,,,,,,,,,,,,,,,,,,,,,,,,5ff818ad08876e553a87bde7,606c0cd161b2e598bc2b178d,2021-04-06_09h35.14.757,Colour_Similarity_Experiment,2020.2.10,Win32,60,6067542a4a25243f4d7d4fcf,17.76020349,17.33609375,16.62199052,16.71682051,16.69632287,16.71682051,,,,,,,,,,,,,,,,,,,,PF,weak,3,,,,,,,,6,1.16368,,,,,,,,,,,,,,,,,,,,,,,,,,,,1,weak,82,33,1,0,0,response1disk,7,81,4,12,1,0,0,rectangle,4,12,1,0,0,4,3,0.00409,4,12,1,0,0,0,80,80,150,1,0,,,,,,,,,,,,,,,,,,,,,
,,,,,,,,,,,,,,,,,,,,,,,,,,,,,,,,,,,,,,,,,,5ff818ad08876e553a87bde7,606c0cd161b2e598bc2b178d,2021-04-06_09h35.14.757,Colour_Similarity_Experiment,2020.2.10,Win32,60,6067542a4a25243f4d7d4fcf,17.76020349,17.33609375,16.62199052,16.71682051,16.69632287,16.71682051,,,,,,,,,,,,,,,,,,,,PF,weak,3,,,,,,,,0,1.23185,,,,,,,,,,,,,,,,,,,,,,,,,,,,1,weak,-34,66,1,0,0,response7disk,1,82,2,1,1,0,0,rectangle,57,105,1,0,0,7,7,3.1988,-4,-2,1,0,0,0,81,81,76,1,1,response1disk_3,rectangle,,,,,,,,,,,,,,,,,,,
,,,,,,,,,,,,,,,,,,,,,,,,,,,,,,,,,,,,,,,,,,5ff818ad08876e553a87bde7,606c0cd161b2e598bc2b178d,2021-04-06_09h35.14.757,Colour_Similarity_Experiment,2020.2.10,Win32,60,6067542a4a25243f4d7d4fcf,17.76020349,17.33609375,16.62199052,16.71682051,16.69632287,16.71682051,,,,,,,,,,,,,,,,,,,,PF,weak,3,,,,,,,,7,2.68031,,,,,,,,,,,,,,,,,,,,,,,,,,,,3,weak,55,107,1,0,0,response1disk,8,83,-3,3,1,0,0,rectangle,-3,3,1,0,0,7,0,0.00459,-3,3,1,0,0,0,82,82,3,1,0,,,,,,,,,,,,,,,,,,,,,
,,,,,,,,,,,,,,,,,,,,,,,,,,,,,,,,,,,,,,,,,,5ff818ad08876e553a87bde7,606c0cd161b2e598bc2b178d,2021-04-06_09h35.14.757,Colour_Similarity_Experiment,2020.2.10,Win32,60,6067542a4a25243f4d7d4fcf,17.76020349,17.33609375,16.62199052,16.71682051,16.69632287,16.71682051,,,,,,,,,,,,,,,,,,,,PF,strong,3,,,,,,,,7,2.866755,,,,,,,,,,,,,,,,,,,,,,,,,,,,6,strong,41,80,1,0,0,response1disk,3,84,6,8,1,0,0,rectangle,6,8,1,0,0,7,6,0.003645,6,8,1,0,0,0,83,83,21,1,0,,,,,,,,,,,,,,,,,,,,,
,,,,,,,,,,,,,,,,,,,,,,,,,,,,,,,,,,,,,,,,,,5ff818ad08876e553a87bde7,606c0cd161b2e598bc2b178d,2021-04-06_09h35.14.757,Colour_Similarity_Experiment,2020.2.10,Win32,60,6067542a4a25243f4d7d4fcf,17.76020349,17.33609375,16.62199052,16.71682051,16.69632287,16.71682051,,,,,,,,,,,,,,,,,,,,PF,weak,3,,,,,,,,3,1.94213,,,,,,,,,,,,,,,,,,,,,,,,,,,,1,weak,-46,-71,1,0,0,response5disk,9,85,8,2,1,0,0,rectangle,8,2,1,0,0,7,6,0.00013,8,2,1,0,0,0,84,84,15,1,0,,,,,,,,,,,,,,,,,,,,,
,,,,,,,,,,,,,,,,,,,,,,,,,,,,,,,,,,,,,,,,,,5ff818ad08876e553a87bde7,606c0cd161b2e598bc2b178d,2021-04-06_09h35.14.757,Colour_Similarity_Experiment,2020.2.10,Win32,60,6067542a4a25243f4d7d4fcf,17.76020349,17.33609375,16.62199052,16.71682051,16.69632287,16.71682051,,,,,,,,,,,,,,,,,,,,PF,weak,3,,,,,,,,5,2.536005,,,,,,,,,,,,,,,,,,,,,,,,,,,,2,weak,88,-34,1,0,0,response3disk,4,86,4,-2,1,0,0,rectangle,4,-2,1,0,0,7,7,0.00082,4,-2,1,0,0,0,85,85,127,1,0,,,,,,,,,,,,,,,,,,,,,
,,,,,,,,,,,,,,,,,,,,,,,,,,,,,,,,,,,,,,,,,,5ff818ad08876e553a87bde7,606c0cd161b2e598bc2b178d,2021-04-06_09h35.14.757,Colour_Similarity_Experiment,2020.2.10,Win32,60,6067542a4a25243f4d7d4fcf,17.76020349,17.33609375,16.62199052,16.71682051,16.69632287,16.71682051,,,,,,,,,,,,,,,,,,,,PF,weak,3,,,,,,,,7,1.115185,,,,,,,,,,,,,,,,,,,,,,,,,,,,1,weak,40,103,1,0,0,response1disk,3,87,-2,-3,1,0,0,rectangle,-2,-3,1,0,0,7,5,0.00521,-2,-3,1,0,0,0,86,86,1,1,0,,,,,,,,,,,,,,,,,,,,,
,,,,,,,,,,,,,,,,,,,,,,,,,,,,,,,,,,,,,,,,,,5ff818ad08876e553a87bde7,606c0cd161b2e598bc2b178d,2021-04-06_09h35.14.757,Colour_Similarity_Experiment,2020.2.10,Win32,60,6067542a4a25243f4d7d4fcf,17.76020349,17.33609375,16.62199052,16.71682051,16.69632287,16.71682051,,,,,,,,,,,,,,,,,,,,PF,strong,3,,,,,,,,3,2.095945,,,,,,,,,,,,,,,,,,,,,,,,,,,,4,strong,-41,-76,1,0,0,response5disk,3,88,1,-1,1,0,0,rectangle,1,-1,1,0,0,7,7,0.00156,1,-1,1,0,0,0,87,87,77,1,0,,,,,,,,,,,,,,,,,,,,,
,,,,,,,,,,,,,,,,,,,,,,,,,,,,,,,,,,,,,,,,,,5ff818ad08876e553a87bde7,606c0cd161b2e598bc2b178d,2021-04-06_09h35.14.757,Colour_Similarity_Experiment,2020.2.10,Win32,60,6067542a4a25243f4d7d4fcf,17.76020349,17.33609375,16.62199052,16.71682051,16.69632287,16.71682051,,,,,,,,,,,,,,,,,,,,PF,weak,3,,,,,,,,2,1.69299,,,,,,,,,,,,,,,,,,,,,,,,,,,,4,weak,-64,-36,1,0,0,response5disk,5,89,1,-4,1,0,0,rectangle,1,-4,1,0,0,7,5,0.003555,1,-4,1,0,0,0,88,88,49,1,0,,,,,,,,,,,,,,,,,,,,,
,,,,,,,,,,,,,,,,,,,,,,,,,,,,,,,,,,,,,,,,,,5ff818ad08876e553a87bde7,606c0cd161b2e598bc2b178d,2021-04-06_09h35.14.757,Colour_Similarity_Experiment,2020.2.10,Win32,60,6067542a4a25243f4d7d4fcf,17.76020349,17.33609375,16.62199052,16.71682051,16.69632287,16.71682051,,,,,,,,,,,,,,,,,,,,PF,strong,3,,,,,,,,5,2.113575,,,,,,,,,,,,,,,,,,,,,,,,,,,,1,strong,79,-36,1,0,0,response3disk,9,90,3,-2,1,0,0,rectangle,3,-2,1,0,0,7,1,0.003365,3,-2,1,0,0,0,89,89,123,1,0,,,,,,,,,,,,,,,,,,,,,
,,,,,,,,,,,,,,,,,,,,,,,,,,,,,,,,,,,,,,,,,,5ff818ad08876e553a87bde7,606c0cd161b2e598bc2b178d,2021-04-06_09h35.14.757,Colour_Similarity_Experiment,2020.2.10,Win32,60,6067542a4a25243f4d7d4fcf,17.76020349,17.33609375,16.62199052,16.71682051,16.69632287,16.71682051,,,,,,,,,,,,,,,,,,,,PF,weak,3,,,,,,,,7,1.868185,,,,,,,,,,,,,,,,,,,,,,,,,,,,9,weak,48,87,1,0,0,response1disk,5,91,8,8,1,0,0,rectangle,8,8,1,0,0,7,7,0.00307,8,8,1,0,0,0,90,90,134,1,0,,,,,,,,,,,,,,,,,,,,,
,,,,,,,,,,,,,,,,,,,,,,,,,,,,,,,,,,,,,,,,,,5ff818ad08876e553a87bde7,606c0cd161b2e598bc2b178d,2021-04-06_09h35.14.757,Colour_Similarity_Experiment,2020.2.10,Win32,60,6067542a4a25243f4d7d4fcf,17.76020349,17.33609375,16.62199052,16.71682051,16.69632287,16.71682051,,,,,,,,,,,,,,,,,,,,PF,strong,3,,,,,,,,6,3.66238,,,,,,,,,,,,,,,,,,,,,,,,,,,,7,strong,118,60,1,0,0,response1disk,9,92,2,4,1,0,0,rectangle,2,4,1,0,0,7,0,0.00387,2,4,1,0,0,0,91,91,155,1,0,,,,,,,,,,,,,,,,,,,,,
,,,,,,,,,,,,,,,,,,,,,,,,,,,,,,,,,,,,,,,,,,5ff818ad08876e553a87bde7,606c0cd161b2e598bc2b178d,2021-04-06_09h35.14.757,Colour_Similarity_Experiment,2020.2.10,Win32,60,6067542a4a25243f4d7d4fcf,17.76020349,17.33609375,16.62199052,16.71682051,16.69632287,16.71682051,,,,,,,,,,,,,,,,,,,,PF,weak,3,,,,,,,,0,1.365485,,,,,,,,,,,,,,,,,,,,,,,,,,,,2,weak,-36,92,1,0,0,response7disk,2,93,-10,5,1,0,0,rectangle,-10,5,1,0,0,7,3,0.000855,-10,5,1,0,0,0,92,92,14,1,0,,,,,,,,,,,,,,,,,,,,,
,,,,,,,,,,,,,,,,,,,,,,,,,,,,,,,,,,,,,,,,,,5ff818ad08876e553a87bde7,606c0cd161b2e598bc2b178d,2021-04-06_09h35.14.757,Colour_Similarity_Experiment,2020.2.10,Win32,60,6067542a4a25243f4d7d4fcf,17.76020349,17.33609375,16.62199052,16.71682051,16.69632287,16.71682051,,,,,,,,,,,,,,,,,,,,PF,weak,3,,,,,,,,7,2.06568,,,,,,,,,,,,,,,,,,,,,,,,,,,,7,weak,67,95,1,0,0,response1disk,9,94,-7,-2,1,0,0,rectangle,-7,-2,1,0,0,7,3,0.000135,-7,-2,1,0,0,0,93,93,10,1,0,,,,,,,,,,,,,,,,,,,,,
,,,,,,,,,,,,,,,,,,,,,,,,,,,,,,,,,,,,,,,,,,5ff818ad08876e553a87bde7,606c0cd161b2e598bc2b178d,2021-04-06_09h35.14.757,Colour_Similarity_Experiment,2020.2.10,Win32,60,6067542a4a25243f4d7d4fcf,17.76020349,17.33609375,16.62199052,16.71682051,16.69632287,16.71682051,,,,,,,,,,,,,,,,,,,,PF,strong,3,,,,,,,,2,1.615255,,,,,,,,,,,,,,,,,,,,,,,,,,,,1,strong,-61,-40,1,0,0,response5disk,8,95,6,-2,1,0,0,rectangle,6,-2,1,0,0,7,5,0.001235,6,-2,1,0,0,0,94,94,27,1,0,,,,,,,,,,,,,,,,,,,,,
,,,,,,,,,,,,,,,,,,,,,,,,,,,,,,,,,,,,,,,,,,5ff818ad08876e553a87bde7,606c0cd161b2e598bc2b178d,2021-04-06_09h35.14.757,Colour_Similarity_Experiment,2020.2.10,Win32,60,6067542a4a25243f4d7d4fcf,17.76020349,17.33609375,16.62199052,16.71682051,16.69632287,16.71682051,,,,,,,,,,,,,,,,,,,,PF,weak,3,,,,,,,,7,3.096525,,,,,,,,,,,,,,,,,,,,,,,,,,,,3,weak,36,77,1,0,0,response1disk,5,96,5,3,1,0,0,rectangle,5,3,1,0,0,7,5,0.000455,5,3,1,0,0,0,95,95,66,1,0,,,,,,,,,,,,,,,,,,,,,
,,,,,,,,,,,,,,,,,,,,,,,,,,,,,,,,,,,,,,,,,,5ff818ad08876e553a87bde7,606c0cd161b2e598bc2b178d,2021-04-06_09h35.14.757,Colour_Similarity_Experiment,2020.2.10,Win32,60,6067542a4a25243f4d7d4fcf,17.76020349,17.33609375,16.62199052,16.71682051,16.69632287,16.71682051,,,,,,,,,,,,,,,,,,,,PF,strong,3,,,,,,,,6,1.898035,,,,,,,,,,,,,,,,,,,,,,,,,,,,4,strong,74,30,1,0,0,response1disk,2,97,5,-8,1,0,0,rectangle,5,-8,1,0,0,7,6,0.002635,5,-8,1,0,0,0,96,96,13,1,0,,,,,,,,,,,,,,,,,,,,,
,,,,,,,,,,,,,,,,,,,,,,,,,,,,,,,,,,,,,,,,,,5ff818ad08876e553a87bde7,606c0cd161b2e598bc2b178d,2021-04-06_09h35.14.757,Colour_Similarity_Experiment,2020.2.10,Win32,60,6067542a4a25243f4d7d4fcf,17.76020349,17.33609375,16.62199052,16.71682051,16.69632287,16.71682051,,,,,,,,,,,,,,,,,,,,PF,weak,3,,,,,,,,6,1.73093,,,,,,,,,,,,,,,,,,,,,,,,,,,,2,weak,74,40,1,0,0,response1disk,5,98,10,2,1,0,0,rectangle,10,2,1,0,0,7,0,0.003635,10,2,1,0,0,0,97,97,147,1,0,,,,,,,,,,,,,,,,,,,,,
,,,,,,,,,,,,,,,,,,,,,,,,,,,,,,,,,,,,,,,,,,5ff818ad08876e553a87bde7,606c0cd161b2e598bc2b178d,2021-04-06_09h35.14.757,Colour_Similarity_Experiment,2020.2.10,Win32,60,6067542a4a25243f4d7d4fcf,17.76020349,17.33609375,16.62199052,16.71682051,16.69632287,16.71682051,,,,,,,,,,,,,,,,,,,,PF,weak,3,,,,,,,,2,1.56653,,,,,,,,,,,,,,,,,,,,,,,,,,,,4,weak,-85,-42,1,0,0,response5disk,6,99,6,-5,1,0,0,rectangle,6,-5,1,0,0,7,5,0.003735,6,-5,1,0,0,0,98,98,120,1,0,,,,,,,,,,,,,,,,,,,,,
,,,,,,,,,,,,,,,,,,,,,,,,,,,,,,,,,,,,,,,,,,5ff818ad08876e553a87bde7,606c0cd161b2e598bc2b178d,2021-04-06_09h35.14.757,Colour_Similarity_Experiment,2020.2.10,Win32,60,6067542a4a25243f4d7d4fcf,17.76020349,17.33609375,16.62199052,16.71682051,16.69632287,16.71682051,,,,,,,,,,,,,,,,,,,,PF,weak,3,,,,,,,,7,1.29881,,,,,,,,,,,,,,,,,,,,,,,,,,,,2,weak,41,97,1,0,0,response1disk,7,100,-2,-5,1,0,0,rectangle,-2,-5,1,0,0,7,3,0.004365,-2,-5,1,0,0,0,99,99,107,1,0,,,,,,,,,,,,,,,,,,,,,
,,,,,,,,,,,,,,,,,,,,,,,,,,,,,,,,,,,,,,,,,,5ff818ad08876e553a87bde7,606c0cd161b2e598bc2b178d,2021-04-06_09h35.14.757,Colour_Similarity_Experiment,2020.2.10,Win32,60,6067542a4a25243f4d7d4fcf,17.76020349,17.33609375,16.62199052,16.71682051,16.69632287,16.71682051,,,,,,,,,,,,,,,,,,,,PF,weak,3,,,,,,,,7,1.548185,,,,,,,,,,,,,,,,,,,,,,,,,,,,2,weak,27,78,1,0,0,response1disk,1,101,-2,6,1,0,0,rectangle,-2,6,1,0,0,7,0,0.00073,-2,6,1,0,0,0,100,100,9,1,0,,,,,,,,,,,,,,,,,,,,,
,,,,,,,,,,,,,,,,,,,,,,,,,,,,,,,,,,,,,,,,,,5ff818ad08876e553a87bde7,606c0cd161b2e598bc2b178d,2021-04-06_09h35.14.757,Colour_Similarity_Experiment,2020.2.10,Win32,60,6067542a4a25243f4d7d4fcf,17.76020349,17.33609375,16.62199052,16.71682051,16.69632287,16.71682051,,,,,,,,,,,,,,,,,,,,PF,strong,3,,,,,,,,7,1.21598,,,,,,,,,,,,,,,,,,,,,,,,,,,,2,strong,42,73,1,0,0,response1disk,1,102,2,1,1,0,0,rectangle,2,1,1,0,0,7,2,0.00063,2,1,1,0,0,0,101,101,85,1,0,,,,,,,,,,,,,,,,,,,,,
,,,,,,,,,,,,,,,,,,,,,,,,,,,,,,,,,,,,,,,,,,5ff818ad08876e553a87bde7,606c0cd161b2e598bc2b178d,2021-04-06_09h35.14.757,Colour_Similarity_Experiment,2020.2.10,Win32,60,6067542a4a25243f4d7d4fcf,17.76020349,17.33609375,16.62199052,16.71682051,16.69632287,16.71682051,,,,,,,,,,,,,,,,,,,,PF,weak,3,,,,,,,,3,2.45804,,,,,,,,,,,,,,,,,,,,,,,,,,,,4,weak,-21,-63,1,0,0,response5disk,7,103,19,-12,1,0,0,rectangle,19,-12,1,0,0,7,1,0.00179,19,-12,1,0,0,0,102,102,38,1,0,,,,,,,,,,,,,,,,,,,,,
,,,,,,,,,,,,,,,,,,,,,,,,,,,,,,,,,,,,,,,,,,5ff818ad08876e553a87bde7,606c0cd161b2e598bc2b178d,2021-04-06_09h35.14.757,Colour_Similarity_Experiment,2020.2.10,Win32,60,6067542a4a25243f4d7d4fcf,17.76020349,17.33609375,16.62199052,16.71682051,16.69632287,16.71682051,,,,,,,,,,,,,,,,,,,,PF,strong,3,,,,,,,,1,2.713415,,,,,,,,,,,,,,,,,,,,,,,,,,,,8,strong,-78,31,1,0,0,response7disk,2,104,-14,9,1,0,0,rectangle,-14,9,1,0,0,7,3,0.00059,-14,9,1,0,0,0,103,103,22,1,0,,,,,,,,,,,,,,,,,,,,,
,,,,,,,,,,,,,,,,,,,,,,,,,,,,,,,,,,,,,,,,,,5ff818ad08876e553a87bde7,606c0cd161b2e598bc2b178d,2021-04-06_09h35.14.757,Colour_Similarity_Experiment,2020.2.10,Win32,60,6067542a4a25243f4d7d4fcf,17.76020349,17.33609375,16.62199052,16.71682051,16.69632287,16.71682051,,,,,,,,,,,,,,,,,,,,PF,weak,3,,,,,,,,2,1.366015,,,,,,,,,,,,,,,,,,,,,,,,,,,,8,weak,-69,-33,1,0,0,response5disk,7,105,3,5,1,0,0,rectangle,3,5,1,0,0,7,6,0.000545,3,5,1,0,0,0,104,104,23,1,0,,,,,,,,,,,,,,,,,,,,,
,,,,,,,,,,,,,,,,,,,,,,,,,,,,,,,,,,,,,,,,,,5ff818ad08876e553a87bde7,606c0cd161b2e598bc2b178d,2021-04-06_09h35.14.757,Colour_Similarity_Experiment,2020.2.10,Win32,60,6067542a4a25243f4d7d4fcf,17.76020349,17.33609375,16.62199052,16.71682051,16.69632287,16.71682051,,,,,,,,,,,,,,,,,,,,PF,strong,3,,,,,,,,2,1.613665,,,,,,,,,,,,,,,,,,,,,,,,,,,,9,strong,-77,-31,1,0,0,response5disk,7,106,-20,-9,1,0,0,rectangle,-20,-9,1,0,0,7,6,0.00006,-20,-9,1,0,0,0,105,105,100,1,0,,,,,,,,,,,,,,,,,,,,,
,,,,,,,,,,,,,,,,,,,,,,,,,,,,,,,,,,,,,,,,,,5ff818ad08876e553a87bde7,606c0cd161b2e598bc2b178d,2021-04-06_09h35.14.757,Colour_Similarity_Experiment,2020.2.10,Win32,60,6067542a4a25243f4d7d4fcf,17.76020349,17.33609375,16.62199052,16.71682051,16.69632287,16.71682051,,,,,,,,,,,,,,,,,,,,PF,weak,3,,,,,,,,7,1.530365,,,,,,,,,,,,,,,,,,,,,,,,,,,,6,weak,52,92,1,0,0,response1disk,1,107,0,6,1,0,0,rectangle,0,6,1,0,0,7,2,0.000615,0,6,1,0,0,0,106,106,46,1,0,,,,,,,,,,,,,,,,,,,,,
,,,,,,,,,,,,,,,,,,,,,,,,,,,,,,,,,,,,,,,,,,5ff818ad08876e553a87bde7,606c0cd161b2e598bc2b178d,2021-04-06_09h35.14.757,Colour_Similarity_Experiment,2020.2.10,Win32,60,6067542a4a25243f4d7d4fcf,17.76020349,17.33609375,16.62199052,16.71682051,16.69632287,16.71682051,,,,,,,,,,,,,,,,,,,,PF,strong,3,,,,,,,,7,1.35889,,,,,,,,,,,,,,,,,,,,,,,,,,,,7,strong,26,76,1,0,0,response1disk,8,108,-3,0,1,0,0,rectangle,38,-75,1,0,0,4,4,1.952905,-7,0,1,0,0,0,107,107,97,1,1,response3disk_3,rectangle,,,,,,,,,,,,,,,,,,,
,,,,,,,,,,,,,,,,,,,,,,,,,,,,,,,,,,,,,,,,,,5ff818ad08876e553a87bde7,606c0cd161b2e598bc2b178d,2021-04-06_09h35.14.757,Colour_Similarity_Experiment,2020.2.10,Win32,60,6067542a4a25243f4d7d4fcf,17.76020349,17.33609375,16.62199052,16.71682051,16.69632287,16.71682051,,,,,,,,,,,,,,,,,,,,PF,weak,3,,,,,,,,7,1.097355,,,,,,,,,,,,,,,,,,,,,,,,,,,,1,weak,35,79,1,0,0,response1disk,5,109,-1,-5,1,0,0,rectangle,-1,-5,1,0,0,4,7,0.00373,-1,-5,1,0,0,0,108,108,28,1,0,,,,,,,,,,,,,,,,,,,,,
,,,,,,,,,,,,,,,,,,,,,,,,,,,,,,,,,,,,,,,,,,5ff818ad08876e553a87bde7,606c0cd161b2e598bc2b178d,2021-04-06_09h35.14.757,Colour_Similarity_Experiment,2020.2.10,Win32,60,6067542a4a25243f4d7d4fcf,17.76020349,17.33609375,16.62199052,16.71682051,16.69632287,16.71682051,,,,,,,,,,,,,,,,,,,,PF,strong,3,,,,,,,,0,1.4646,,,,,,,,,,,,,,,,,,,,,,,,,,,,4,strong,-38,86,1,0,0,response7disk,4,110,8,4,1,0,0,rectangle,8,4,1,0,0,4,4,0.003245,8,4,1,0,0,0,109,109,84,1,0,,,,,,,,,,,,,,,,,,,,,
,,,,,,,,,,,,,,,,,,,,,,,,,,,,,,,,,,,,,,,,,,5ff818ad08876e553a87bde7,606c0cd161b2e598bc2b178d,2021-04-06_09h35.14.757,Colour_Similarity_Experiment,2020.2.10,Win32,60,6067542a4a25243f4d7d4fcf,17.76020349,17.33609375,16.62199052,16.71682051,16.69632287,16.71682051,,,,,,,,,,,,,,,,,,,,PF,weak,3,,,,,,,,3,1.665185,,,,,,,,,,,,,,,,,,,,,,,,,,,,4,weak,-45,-69,1,0,0,response5disk,3,111,3,11,1,0,0,rectangle,3,11,1,0,0,4,1,0.002405,3,11,1,0,0,0,110,110,89,1,0,,,,,,,,,,,,,,,,,,,,,
,,,,,,,,,,,,,,,,,,,,,,,,,,,,,,,,,,,,,,,,,,5ff818ad08876e553a87bde7,606c0cd161b2e598bc2b178d,2021-04-06_09h35.14.757,Colour_Similarity_Experiment,2020.2.10,Win32,60,6067542a4a25243f4d7d4fcf,17.76020349,17.33609375,16.62199052,16.71682051,16.69632287,16.71682051,,,,,,,,,,,,,,,,,,,,PF,weak,3,,,,,,,,7,1.447695,,,,,,,,,,,,,,,,,,,,,,,,,,,,6,weak,41,86,1,0,0,response1disk,8,112,-2,6,1,0,0,rectangle,-2,6,1,0,0,4,0,0.003665,-2,6,1,0,0,0,111,111,64,1,0,,,,,,,,,,,,,,,,,,,,,
,,,,,,,,,,,,,,,,,,,,,,,,,,,,,,,,,,,,,,,,,,5ff818ad08876e553a87bde7,606c0cd161b2e598bc2b178d,2021-04-06_09h35.14.757,Colour_Similarity_Experiment,2020.2.10,Win32,60,6067542a4a25243f4d7d4fcf,17.76020349,17.33609375,16.62199052,16.71682051,16.69632287,16.71682051,,,,,,,,,,,,,,,,,,,,PF,strong,3,,,,,,,,6,1.864995,,,,,,,,,,,,,,,,,,,,,,,,,,,,9,strong,75,46,1,0,0,response1disk,3,113,-4,1,1,0,0,rectangle,-4,1,1,0,0,4,1,0.00329,-4,1,1,0,0,0,112,112,141,1,0,,,,,,,,,,,,,,,,,,,,,
,,,,,,,,,,,,,,,,,,,,,,,,,,,,,,,,,,,,,,,,,,5ff818ad08876e553a87bde7,606c0cd161b2e598bc2b178d,2021-04-06_09h35.14.757,Colour_Similarity_Experiment,2020.2.10,Win32,60,6067542a4a25243f4d7d4fcf,17.76020349,17.33609375,16.62199052,16.71682051,16.69632287,16.71682051,,,,,,,,,,,,,,,,,,,,PF,strong,3,,,,,,,,3,2.031235,,,,,,,,,,,,,,,,,,,,,,,,,,,,7,strong,-52,-73,1,0,0,response5disk,6,114,-9,-1,1,0,0,rectangle,-9,-1,1,0,0,4,6,0.00333,-9,-1,1,0,0,0,113,113,31,1,0,,,,,,,,,,,,,,,,,,,,,
,,,,,,,,,,,,,,,,,,,,,,,,,,,,,,,,,,,,,,,,,,5ff818ad08876e553a87bde7,606c0cd161b2e598bc2b178d,2021-04-06_09h35.14.757,Colour_Similarity_Experiment,2020.2.10,Win32,60,6067542a4a25243f4d7d4fcf,17.76020349,17.33609375,16.62199052,16.71682051,16.69632287,16.71682051,,,,,,,,,,,,,,,,,,,,PF,strong,3,,,,,,,,7,2.695935,,,,,,,,,,,,,,,,,,,,,,,,,,,,6,strong,46,93,1,0,0,response1disk,2,115,6,5,1,0,0,rectangle,6,5,1,0,0,4,5,0.00281,6,5,1,0,0,0,114,114,112,1,0,,,,,,,,,,,,,,,,,,,,,
,,,,,,,,,,,,,,,,,,,,,,,,,,,,,,,,,,,,,,,,,,5ff818ad08876e553a87bde7,606c0cd161b2e598bc2b178d,2021-04-06_09h35.14.757,Colour_Similarity_Experiment,2020.2.10,Win32,60,6067542a4a25243f4d7d4fcf,17.76020349,17.33609375,16.62199052,16.71682051,16.69632287,16.71682051,,,,,,,,,,,,,,,,,,,,PF,strong,3,,,,,,,,7,1.400435,,,,,,,,,,,,,,,,,,,,,,,,,,,,8,strong,53,80,1,0,0,response1disk,3,116,10,1,1,0,0,rectangle,10,1,1,0,0,4,2,0.003635,10,1,1,0,0,0,115,115,154,1,0,,,,,,,,,,,,,,,,,,,,,
,,,,,,,,,,,,,,,,,,,,,,,,,,,,,,,,,,,,,,,,,,5ff818ad08876e553a87bde7,606c0cd161b2e598bc2b178d,2021-04-06_09h35.14.757,Colour_Similarity_Experiment,2020.2.10,Win32,60,6067542a4a25243f4d7d4fcf,17.76020349,17.33609375,16.62199052,16.71682051,16.69632287,16.71682051,,,,,,,,,,,,,,,,,,,,PF,weak,3,,,,,,,,7,1.51463,,,,,,,,,,,,,,,,,,,,,,,,,,,,3,weak,48,82,1,0,0,response1disk,6,117,10,1,1,0,0,rectangle,10,1,1,0,0,4,0,0.003985,10,1,1,0,0,0,116,116,47,1,0,,,,,,,,,,,,,,,,,,,,,
,,,,,,,,,,,,,,,,,,,,,,,,,,,,,,,,,,,,,,,,,,5ff818ad08876e553a87bde7,606c0cd161b2e598bc2b178d,2021-04-06_09h35.14.757,Colour_Similarity_Experiment,2020.2.10,Win32,60,6067542a4a25243f4d7d4fcf,17.76020349,17.33609375,16.62199052,16.71682051,16.69632287,16.71682051,,,,,,,,,,,,,,,,,,,,PF,strong,3,,,,,,,,4,1.564725,,,,,,,,,,,,,,,,,,,,,,,,,,,,1,strong,31,-67,1,0,0,response3disk,5,118,12,-7,1,0,0,rectangle,12,-7,1,0,0,4,3,0.004345,12,-7,1,0,0,0,117,117,82,1,0,,,,,,,,,,,,,,,,,,,,,
,,,,,,,,,,,,,,,,,,,,,,,,,,,,,,,,,,,,,,,,,,5ff818ad08876e553a87bde7,606c0cd161b2e598bc2b178d,2021-04-06_09h35.14.757,Colour_Similarity_Experiment,2020.2.10,Win32,60,6067542a4a25243f4d7d4fcf,17.76020349,17.33609375,16.62199052,16.71682051,16.69632287,16.71682051,,,,,,,,,,,,,,,,,,,,PF,strong,3,,,,,,,,0,1.44964,,,,,,,,,,,,,,,,,,,,,,,,,,,,5,strong,-44,82,1,0,0,response7disk,6,119,-4,5,1,0,0,rectangle,-4,5,1,0,0,4,2,0.00061,-4,5,1,0,0,0,118,118,12,1,0,,,,,,,,,,,,,,,,,,,,,
,,,,,,,,,,,,,,,,,,,,,,,,,,,,,,,,,,,,,,,,,,5ff818ad08876e553a87bde7,606c0cd161b2e598bc2b178d,2021-04-06_09h35.14.757,Colour_Similarity_Experiment,2020.2.10,Win32,60,6067542a4a25243f4d7d4fcf,17.76020349,17.33609375,16.62199052,16.71682051,16.69632287,16.71682051,,,,,,,,,,,,,,,,,,,,PF,weak,3,,,,,,,,7,1.23253,,,,,,,,,,,,,,,,,,,,,,,,,,,,1,weak,42,81,1,0,0,response1disk,6,120,-1,2,1,0,0,rectangle,-1,2,1,0,0,4,5,0.000915,-1,2,1,0,0,0,119,119,144,1,0,,,,,,,,,,,,,,,,,,,,,
,,,,,,,,,,,,,,,,,,,,,,,,,,,,,,,,,,,,,,,,,,5ff818ad08876e553a87bde7,606c0cd161b2e598bc2b178d,2021-04-06_09h35.14.757,Colour_Similarity_Experiment,2020.2.10,Win32,60,6067542a4a25243f4d7d4fcf,17.76020349,17.33609375,16.62199052,16.71682051,16.69632287,16.71682051,,,,,,,,,,,,,,,,,,,,PF,weak,3,,,,,,,,7,2.097565,,,,,,,,,,,,,,,,,,,,,,,,,,,,4,weak,32,74,1,0,0,response1disk,1,121,6,-1,1,0,0,rectangle,6,-1,1,0,0,4,3,0.000625,6,-1,1,0,0,0,120,120,115,1,0,,,,,,,,,,,,,,,,,,,,,
,,,,,,,,,,,,,,,,,,,,,,,,,,,,,,,,,,,,,,,,,,5ff818ad08876e553a87bde7,606c0cd161b2e598bc2b178d,2021-04-06_09h35.14.757,Colour_Similarity_Experiment,2020.2.10,Win32,60,6067542a4a25243f4d7d4fcf,17.76020349,17.33609375,16.62199052,16.71682051,16.69632287,16.71682051,,,,,,,,,,,,,,,,,,,,PF,strong,3,,,,,,,,7,1.61473,,,,,,,,,,,,,,,,,,,,,,,,,,,,1,strong,46,84,1,0,0,response1disk,7,122,3,3,1,0,0,rectangle,3,3,1,0,0,4,4,0.000715,3,3,1,0,0,0,121,121,137,1,0,,,,,,,,,,,,,,,,,,,,,
,,,,,,,,,,,,,,,,,,,,,,,,,,,,,,,,,,,,,,,,,,5ff818ad08876e553a87bde7,606c0cd161b2e598bc2b178d,2021-04-06_09h35.14.757,Colour_Similarity_Experiment,2020.2.10,Win32,60,6067542a4a25243f4d7d4fcf,17.76020349,17.33609375,16.62199052,16.71682051,16.69632287,16.71682051,,,,,,,,,,,,,,,,,,,,PF,strong,3,,,,,,,,3,1.702795,,,,,,,,,,,,,,,,,,,,,,,,,,,,2,strong,-38,-92,1,0,0,response5disk,4,123,-4,1,1,0,0,rectangle,-4,1,1,0,0,4,2,0.003265,-4,1,1,0,0,0,122,122,145,1,0,,,,,,,,,,,,,,,,,,,,,
,,,,,,,,,,,,,,,,,,,,,,,,,,,,,,,,,,,,,,,,,,5ff818ad08876e553a87bde7,606c0cd161b2e598bc2b178d,2021-04-06_09h35.14.757,Colour_Similarity_Experiment,2020.2.10,Win32,60,6067542a4a25243f4d7d4fcf,17.76020349,17.33609375,16.62199052,16.71682051,16.69632287,16.71682051,,,,,,,,,,,,,,,,,,,,PF,weak,3,,,,,,,,7,1.265165,,,,,,,,,,,,,,,,,,,,,,,,,,,,9,weak,36,85,1,0,0,response1disk,3,124,-1,-7,1,0,0,rectangle,-1,-7,1,0,0,4,7,0.004235,-1,-7,1,0,0,0,123,123,119,1,0,,,,,,,,,,,,,,,,,,,,,
,,,,,,,,,,,,,,,,,,,,,,,,,,,,,,,,,,,,,,,,,,5ff818ad08876e553a87bde7,606c0cd161b2e598bc2b178d,2021-04-06_09h35.14.757,Colour_Similarity_Experiment,2020.2.10,Win32,60,6067542a4a25243f4d7d4fcf,17.76020349,17.33609375,16.62199052,16.71682051,16.69632287,16.71682051,,,,,,,,,,,,,,,,,,,,PF,strong,3,,,,,,,,4,1.78114,,,,,,,,,,,,,,,,,,,,,,,,,,,,3,strong,32,-68,1,0,0,response3disk,8,125,9,-9,1,0,0,rectangle,9,-9,1,0,0,4,0,0.003275,9,-9,1,0,0,0,124,124,44,1,0,,,,,,,,,,,,,,,,,,,,,
,,,,,,,,,,,,,,,,,,,,,,,,,,,,,,,,,,,,,,,,,,5ff818ad08876e553a87bde7,606c0cd161b2e598bc2b178d,2021-04-06_09h35.14.757,Colour_Similarity_Experiment,2020.2.10,Win32,60,6067542a4a25243f4d7d4fcf,17.76020349,17.33609375,16.62199052,16.71682051,16.69632287,16.71682051,,,,,,,,,,,,,,,,,,,,PF,weak,3,,,,,,,,7,1.249705,,,,,,,,,,,,,,,,,,,,,,,,,,,,4,weak,48,80,1,0,0,response1disk,9,126,8,4,1,0,0,rectangle,8,4,1,0,0,4,1,0.002305,8,4,1,0,0,0,125,125,75,1,0,,,,,,,,,,,,,,,,,,,,,
,,,,,,,,,,,,,,,,,,,,,,,,,,,,,,,,,,,,,,,,,,5ff818ad08876e553a87bde7,606c0cd161b2e598bc2b178d,2021-04-06_09h35.14.757,Colour_Similarity_Experiment,2020.2.10,Win32,60,6067542a4a25243f4d7d4fcf,17.76020349,17.33609375,16.62199052,16.71682051,16.69632287,16.71682051,,,,,,,,,,,,,,,,,,,,PF,weak,3,,,,,,,,7,1.165525,,,,,,,,,,,,,,,,,,,,,,,,,,,,7,weak,45,84,1,0,0,response1disk,3,127,7,5,1,0,0,rectangle,7,5,1,0,0,4,2,0.002765,7,5,1,0,0,0,126,126,81,1,0,,,,,,,,,,,,,,,,,,,,,
,,,,,,,,,,,,,,,,,,,,,,,,,,,,,,,,,,,,,,,,,,5ff818ad08876e553a87bde7,606c0cd161b2e598bc2b178d,2021-04-06_09h35.14.757,Colour_Similarity_Experiment,2020.2.10,Win32,60,6067542a4a25243f4d7d4fcf,17.76020349,17.33609375,16.62199052,16.71682051,16.69632287,16.71682051,,,,,,,,,,,,,,,,,,,,PF,strong,3,,,,,,,,3,2.52991,,,,,,,,,,,,,,,,,,,,,,,,,,,,8,strong,-29,-80,1,0,0,response5disk,9,128,-2,-9,1,0,0,rectangle,-2,-9,1,0,0,4,1,0.003015,-2,-9,1,0,0,0,127,127,105,1,0,,,,,,,,,,,,,,,,,,,,,
,,,,,,,,,,,,,,,,,,,,,,,,,,,,,,,,,,,,,,,,,,5ff818ad08876e553a87bde7,606c0cd161b2e598bc2b178d,2021-04-06_09h35.14.757,Colour_Similarity_Experiment,2020.2.10,Win32,60,6067542a4a25243f4d7d4fcf,17.76020349,17.33609375,16.62199052,16.71682051,16.69632287,16.71682051,,,,,,,,,,,,,,,,,,,,PF,strong,3,,,,,,,,7,1.34797,,,,,,,,,,,,,,,,,,,,,,,,,,,,2,strong,44,79,1,0,0,response1disk,7,129,1,-1,1,0,0,rectangle,1,-1,1,0,0,4,7,0.00198,1,-1,1,0,0,0,128,128,63,1,0,,,,,,,,,,,,,,,,,,,,,
,,,,,,,,,,,,,,,,,,,,,,,,,,,,,,,,,,,,,,,,,,5ff818ad08876e553a87bde7,606c0cd161b2e598bc2b178d,2021-04-06_09h35.14.757,Colour_Similarity_Experiment,2020.2.10,Win32,60,6067542a4a25243f4d7d4fcf,17.76020349,17.33609375,16.62199052,16.71682051,16.69632287,16.71682051,,,,,,,,,,,,,,,,,,,,PF,strong,3,,,,,,,,6,1.68154,,,,,,,,,,,,,,,,,,,,,,,,,,,,2,strong,85,38,1,0,0,response1disk,6,130,7,-6,1,0,0,rectangle,7,-6,1,0,0,4,6,0.00262,7,-6,1,0,0,0,129,129,40,1,0,,,,,,,,,,,,,,,,,,,,,
,,,,,,,,,,,,,,,,,,,,,,,,,,,,,,,,,,,,,,,,,,5ff818ad08876e553a87bde7,606c0cd161b2e598bc2b178d,2021-04-06_09h35.14.757,Colour_Similarity_Experiment,2020.2.10,Win32,60,6067542a4a25243f4d7d4fcf,17.76020349,17.33609375,16.62199052,16.71682051,16.69632287,16.71682051,,,,,,,,,,,,,,,,,,,,PF,strong,3,,,,,,,,0,1.61446,,,,,,,,,,,,,,,,,,,,,,,,,,,,8,strong,-39,73,1,0,0,response7disk,4,131,6,7,1,0,0,rectangle,6,7,1,0,0,4,6,0.00046,6,7,1,0,0,0,130,130,88,1,0,,,,,,,,,,,,,,,,,,,,,
,,,,,,,,,,,,,,,,,,,,,,,,,,,,,,,,,,,,,,,,,,5ff818ad08876e553a87bde7,606c0cd161b2e598bc2b178d,2021-04-06_09h35.14.757,Colour_Similarity_Experiment,2020.2.10,Win32,60,6067542a4a25243f4d7d4fcf,17.76020349,17.33609375,16.62199052,16.71682051,16.69632287,16.71682051,,,,,,,,,,,,,,,,,,,,PF,weak,3,,,,,,,,2,1.34876,,,,,,,,,,,,,,,,,,,,,,,,,,,,6,weak,-70,-31,1,0,0,response5disk,4,132,-4,-3,1,0,0,rectangle,-4,-3,1,0,0,4,3,0.00056,-4,-3,1,0,0,0,131,131,33,1,0,,,,,,,,,,,,,,,,,,,,,
,,,,,,,,,,,,,,,,,,,,,,,,,,,,,,,,,,,,,,,,,,5ff818ad08876e553a87bde7,606c0cd161b2e598bc2b178d,2021-04-06_09h35.14.757,Colour_Similarity_Experiment,2020.2.10,Win32,60,6067542a4a25243f4d7d4fcf,17.76020349,17.33609375,16.62199052,16.71682051,16.69632287,16.71682051,,,,,,,,,,,,,,,,,,,,PF,strong,3,,,,,,,,7,1.297655,,,,,,,,,,,,,,,,,,,,,,,,,,,,5,strong,56,77,1,0,0,response1disk,2,133,3,-2,1,0,0,rectangle,84,36,1,0,0,6,6,5.01419,5,5,1,0,0,0,132,132,55,1,1,response1disk_3,rectangle,,,,,,,,,,,,,,,,,,,
,,,,,,,,,,,,,,,,,,,,,,,,,,,,,,,,,,,,,,,,,,5ff818ad08876e553a87bde7,606c0cd161b2e598bc2b178d,2021-04-06_09h35.14.757,Colour_Similarity_Experiment,2020.2.10,Win32,60,6067542a4a25243f4d7d4fcf,17.76020349,17.33609375,16.62199052,16.71682051,16.69632287,16.71682051,,,,,,,,,,,,,,,,,,,,PF,weak,3,,,,,,,,0,1.359895,,,,,,,,,,,,,,,,,,,,,,,,,,,,9,weak,-62,94,1,0,0,response7disk,9,134,-1,-7,1,0,0,rectangle,-1,-7,1,0,0,6,1,0.002605,-1,-7,1,0,0,0,133,133,106,1,0,,,,,,,,,,,,,,,,,,,,,
,,,,,,,,,,,,,,,,,,,,,,,,,,,,,,,,,,,,,,,,,,5ff818ad08876e553a87bde7,606c0cd161b2e598bc2b178d,2021-04-06_09h35.14.757,Colour_Similarity_Experiment,2020.2.10,Win32,60,6067542a4a25243f4d7d4fcf,17.76020349,17.33609375,16.62199052,16.71682051,16.69632287,16.71682051,,,,,,,,,,,,,,,,,,,,PF,strong,3,,,,,,,,3,1.43213,,,,,,,,,,,,,,,,,,,,,,,,,,,,4,strong,-52,-77,1,0,0,response5disk,7,135,-8,1,1,0,0,rectangle,-8,1,1,0,0,6,5,0.00383,-8,1,1,0,0,0,134,134,87,1,0,,,,,,,,,,,,,,,,,,,,,
,,,,,,,,,,,,,,,,,,,,,,,,,,,,,,,,,,,,,,,,,,5ff818ad08876e553a87bde7,606c0cd161b2e598bc2b178d,2021-04-06_09h35.14.757,Colour_Similarity_Experiment,2020.2.10,Win32,60,6067542a4a25243f4d7d4fcf,17.76020349,17.33609375,16.62199052,16.71682051,16.69632287,16.71682051,,,,,,,,,,,,,,,,,,,,PF,weak,3,,,,,,,,7,1.4315,,,,,,,,,,,,,,,,,,,,,,,,,,,,8,weak,39,89,1,0,0,response1disk,4,136,6,12,1,0,0,rectangle,6,12,1,0,0,6,7,0.00233,6,12,1,0,0,0,135,135,78,1,0,,,,,,,,,,,,,,,,,,,,,
,,,,,,,,,,,,,,,,,,,,,,,,,,,,,,,,,,,,,,,,,,5ff818ad08876e553a87bde7,606c0cd161b2e598bc2b178d,2021-04-06_09h35.14.757,Colour_Similarity_Experiment,2020.2.10,Win32,60,6067542a4a25243f4d7d4fcf,17.76020349,17.33609375,16.62199052,16.71682051,16.69632287,16.71682051,,,,,,,,,,,,,,,,,,,,PF,strong,3,,,,,,,,1,2.89871,,,,,,,,,,,,,,,,,,,,,,,,,,,,1,strong,-64,45,1,0,0,response7disk,3,137,-8,7,1,0,0,rectangle,-8,7,1,0,0,6,5,0.004585,-8,7,1,0,0,0,136,136,99,1,0,,,,,,,,,,,,,,,,,,,,,
,,,,,,,,,,,,,,,,,,,,,,,,,,,,,,,,,,,,,,,,,,5ff818ad08876e553a87bde7,606c0cd161b2e598bc2b178d,2021-04-06_09h35.14.757,Colour_Similarity_Experiment,2020.2.10,Win32,60,6067542a4a25243f4d7d4fcf,17.76020349,17.33609375,16.62199052,16.71682051,16.69632287,16.71682051,,,,,,,,,,,,,,,,,,,,PF,strong,3,,,,,,,,7,1.84749,,,,,,,,,,,,,,,,,,,,,,,,,,,,3,strong,47,93,1,0,0,response1disk,4,138,0,4,1,0,0,rectangle,0,4,1,0,0,6,0,0.004245,0,4,1,0,0,0,137,137,110,1,0,,,,,,,,,,,,,,,,,,,,,
,,,,,,,,,,,,,,,,,,,,,,,,,,,,,,,,,,,,,,,,,,5ff818ad08876e553a87bde7,606c0cd161b2e598bc2b178d,2021-04-06_09h35.14.757,Colour_Similarity_Experiment,2020.2.10,Win32,60,6067542a4a25243f4d7d4fcf,17.76020349,17.33609375,16.62199052,16.71682051,16.69632287,16.71682051,,,,,,,,,,,,,,,,,,,,PF,strong,3,,,,,,,,6,1.614965,,,,,,,,,,,,,,,,,,,,,,,,,,,,7,strong,76,33,1,0,0,response1disk,3,139,-7,-7,1,0,0,rectangle,-7,-7,1,0,0,6,3,0.003215,-7,-7,1,0,0,0,138,138,73,1,0,,,,,,,,,,,,,,,,,,,,,
,,,,,,,,,,,,,,,,,,,,,,,,,,,,,,,,,,,,,,,,,,5ff818ad08876e553a87bde7,606c0cd161b2e598bc2b178d,2021-04-06_09h35.14.757,Colour_Similarity_Experiment,2020.2.10,Win32,60,6067542a4a25243f4d7d4fcf,17.76020349,17.33609375,16.62199052,16.71682051,16.69632287,16.71682051,,,,,,,,,,,,,,,,,,,,PF,weak,3,,,,,,,,7,1.16656,,,,,,,,,,,,,,,,,,,,,,,,,,,,5,weak,49,90,1,0,0,response1disk,1,140,2,-2,1,0,0,rectangle,34,84,1,0,0,7,7,2.396995,0,3,1,0,0,0,139,139,159,1,1,response1disk_3,rectangle,,,,,,,,,,,,,,,,,,,
,,,,,,,,,,,,,,,,,,,,,,,,,,,,,,,,,,,,,,,,,,5ff818ad08876e553a87bde7,606c0cd161b2e598bc2b178d,2021-04-06_09h35.14.757,Colour_Similarity_Experiment,2020.2.10,Win32,60,6067542a4a25243f4d7d4fcf,17.76020349,17.33609375,16.62199052,16.71682051,16.69632287,16.71682051,,,,,,,,,,,,,,,,,,,,PF,weak,3,,,,,,,,7,1.14883,,,,,,,,,,,,,,,,,,,,,,,,,,,,9,weak,41,88,1,0,0,response1disk,7,141,0,6,1,0,0,rectangle,0,6,1,0,0,7,7,0.0005,0,6,1,0,0,0,140,140,121,1,0,,,,,,,,,,,,,,,,,,,,,
,,,,,,,,,,,,,,,,,,,,,,,,,,,,,,,,,,,,,,,,,,5ff818ad08876e553a87bde7,606c0cd161b2e598bc2b178d,2021-04-06_09h35.14.757,Colour_Similarity_Experiment,2020.2.10,Win32,60,6067542a4a25243f4d7d4fcf,17.76020349,17.33609375,16.62199052,16.71682051,16.69632287,16.71682051,,,,,,,,,,,,,,,,,,,,PF,weak,3,,,,,,,,1,1.51481,,,,,,,,,,,,,,,,,,,,,,,,,,,,9,weak,-82,41,1,0,0,response7disk,1,142,1,7,1,0,0,rectangle,1,7,1,0,0,7,5,0.003775,1,7,1,0,0,0,141,141,74,1,0,,,,,,,,,,,,,,,,,,,,,
,,,,,,,,,,,,,,,,,,,,,,,,,,,,,,,,,,,,,,,,,,5ff818ad08876e553a87bde7,606c0cd161b2e598bc2b178d,2021-04-06_09h35.14.757,Colour_Similarity_Experiment,2020.2.10,Win32,60,6067542a4a25243f4d7d4fcf,17.76020349,17.33609375,16.62199052,16.71682051,16.69632287,16.71682051,,,,,,,,,,,,,,,,,,,,PF,weak,3,,,,,,,,0,1.559575,,,,,,,,,,,,,,,,,,,,,,,,,,,,6,weak,-47,62,1,0,0,response7disk,6,143,0,-1,1,0,0,rectangle,0,-1,1,0,0,7,0,0.00125,0,-1,1,0,0,0,142,142,0,1,0,,,,,,,,,,,,,,,,,,,,,
,,,,,,,,,,,,,,,,,,,,,,,,,,,,,,,,,,,,,,,,,,5ff818ad08876e553a87bde7,606c0cd161b2e598bc2b178d,2021-04-06_09h35.14.757,Colour_Similarity_Experiment,2020.2.10,Win32,60,6067542a4a25243f4d7d4fcf,17.76020349,17.33609375,16.62199052,16.71682051,16.69632287,16.71682051,,,,,,,,,,,,,,,,,,,,PF,strong,3,,,,,,,,7,1.48217,,,,,,,,,,,,,,,,,,,,,,,,,,,,4,strong,51,92,1,0,0,response1disk,8,144,6,12,1,0,0,rectangle,6,12,1,0,0,7,5,0.000605,6,12,1,0,0,0,143,143,35,1,0,,,,,,,,,,,,,,,,,,,,,
,,,,,,,,,,,,,,,,,,,,,,,,,,,,,,,,,,,,,,,,,,5ff818ad08876e553a87bde7,606c0cd161b2e598bc2b178d,2021-04-06_09h35.14.757,Colour_Similarity_Experiment,2020.2.10,Win32,60,6067542a4a25243f4d7d4fcf,17.76020349,17.33609375,16.62199052,16.71682051,16.69632287,16.71682051,,,,,,,,,,,,,,,,,,,,PF,strong,3,,,,,,,,7,1.77568,,,,,,,,,,,,,,,,,,,,,,,,,,,,3,strong,31,95,1,0,0,response1disk,7,145,5,2,1,0,0,rectangle,5,2,1,0,0,7,7,0.00071,5,2,1,0,0,0,144,144,118,1,0,,,,,,,,,,,,,,,,,,,,,
,,,,,,,,,,,,,,,,,,,,,,,,,,,,,,,,,,,,,,,,,,5ff818ad08876e553a87bde7,606c0cd161b2e598bc2b178d,2021-04-06_09h35.14.757,Colour_Similarity_Experiment,2020.2.10,Win32,60,6067542a4a25243f4d7d4fcf,17.76020349,17.33609375,16.62199052,16.71682051,16.69632287,16.71682051,,,,,,,,,,,,,,,,,,,,PF,weak,3,,,,,,,,0,1.30935,,,,,,,,,,,,,,,,,,,,,,,,,,,,3,weak,-34,89,1,0,0,response7disk,3,146,3,0,1,0,0,rectangle,3,0,1,0,0,7,0,0.00063,3,0,1,0,0,0,145,145,4,1,0,,,,,,,,,,,,,,,,,,,,,
,,,,,,,,,,,,,,,,,,,,,,,,,,,,,,,,,,,,,,,,,,5ff818ad08876e553a87bde7,606c0cd161b2e598bc2b178d,2021-04-06_09h35.14.757,Colour_Similarity_Experiment,2020.2.10,Win32,60,6067542a4a25243f4d7d4fcf,17.76020349,17.33609375,16.62199052,16.71682051,16.69632287,16.71682051,,,,,,,,,,,,,,,,,,,,PF,strong,3,,,,,,,,0,1.48171,,,,,,,,,,,,,,,,,,,,,,,,,,,,5,strong,-31,111,1,0,0,response7disk,5,147,7,0,1,0,0,rectangle,7,0,1,0,0,7,2,0.00061,7,0,1,0,0,0,146,146,19,1,0,,,,,,,,,,,,,,,,,,,,,
,,,,,,,,,,,,,,,,,,,,,,,,,,,,,,,,,,,,,,,,,,5ff818ad08876e553a87bde7,606c0cd161b2e598bc2b178d,2021-04-06_09h35.14.757,Colour_Similarity_Experiment,2020.2.10,Win32,60,6067542a4a25243f4d7d4fcf,17.76020349,17.33609375,16.62199052,16.71682051,16.69632287,16.71682051,,,,,,,,,,,,,,,,,,,,PF,strong,3,,,,,,,,4,2.315215,,,,,,,,,,,,,,,,,,,,,,,,,,,,8,strong,20,-62,1,0,0,response3disk,7,148,-6,5,1,0,0,rectangle,-6,5,1,0,0,7,4,0.00061,-6,5,1,0,0,0,147,147,86,1,0,,,,,,,,,,,,,,,,,,,,,
,,,,,,,,,,,,,,,,,,,,,,,,,,,,,,,,,,,,,,,,,,5ff818ad08876e553a87bde7,606c0cd161b2e598bc2b178d,2021-04-06_09h35.14.757,Colour_Similarity_Experiment,2020.2.10,Win32,60,6067542a4a25243f4d7d4fcf,17.76020349,17.33609375,16.62199052,16.71682051,16.69632287,16.71682051,,,,,,,,,,,,,,,,,,,,PF,weak,3,,,,,,,,7,1.266275,,,,,,,,,,,,,,,,,,,,,,,,,,,,5,weak,39,68,1,0,0,response1disk,2,149,4,-5,1,0,0,rectangle,4,-5,1,0,0,7,3,0.004395,4,-5,1,0,0,0,148,148,129,1,0,,,,,,,,,,,,,,,,,,,,,
,,,,,,,,,,,,,,,,,,,,,,,,,,,,,,,,,,,,,,,,,,5ff818ad08876e553a87bde7,606c0cd161b2e598bc2b178d,2021-04-06_09h35.14.757,Colour_Similarity_Experiment,2020.2.10,Win32,60,6067542a4a25243f4d7d4fcf,17.76020349,17.33609375,16.62199052,16.71682051,16.69632287,16.71682051,,,,,,,,,,,,,,,,,,,,PF,weak,3,,,,,,,,7,1.181835,,,,,,,,,,,,,,,,,,,,,,,,,,,,3,weak,35,80,1,0,0,response1disk,4,150,7,-5,1,0,0,rectangle,7,-5,1,0,0,7,3,0.0005,7,-5,1,0,0,0,149,149,30,1,0,,,,,,,,,,,,,,,,,,,,,
,,,,,,,,,,,,,,,,,,,,,,,,,,,,,,,,,,,,,,,,,,5ff818ad08876e553a87bde7,606c0cd161b2e598bc2b178d,2021-04-06_09h35.14.757,Colour_Similarity_Experiment,2020.2.10,Win32,60,6067542a4a25243f4d7d4fcf,17.76020349,17.33609375,16.62199052,16.71682051,16.69632287,16.71682051,,,,,,,,,,,,,,,,,,,,PF,weak,3,,,,,,,,7,1.23354,,,,,,,,,,,,,,,,,,,,,,,,,,,,8,weak,43,68,1,0,0,response1disk,3,151,0,-5,1,0,0,rectangle,0,-5,1,0,0,7,0,0.000565,0,-5,1,0,0,0,150,150,71,1,0,,,,,,,,,,,,,,,,,,,,,
,,,,,,,,,,,,,,,,,,,,,,,,,,,,,,,,,,,,,,,,,,5ff818ad08876e553a87bde7,606c0cd161b2e598bc2b178d,2021-04-06_09h35.14.757,Colour_Similarity_Experiment,2020.2.10,Win32,60,6067542a4a25243f4d7d4fcf,17.76020349,17.33609375,16.62199052,16.71682051,16.69632287,16.71682051,,,,,,,,,,,,,,,,,,,,PF,weak,3,,,,,,,,0,1.21623,,,,,,,,,,,,,,,,,,,,,,,,,,,,8,weak,-41,55,1,0,0,response7disk,8,152,1,-9,1,0,0,rectangle,1,-9,1,0,0,7,5,0.003885,1,-9,1,0,0,0,151,151,153,1,0,,,,,,,,,,,,,,,,,,,,,
,,,,,,,,,,,,,,,,,,,,,,,,,,,,,,,,,,,,,,,,,,5ff818ad08876e553a87bde7,606c0cd161b2e598bc2b178d,2021-04-06_09h35.14.757,Colour_Similarity_Experiment,2020.2.10,Win32,60,6067542a4a25243f4d7d4fcf,17.76020349,17.33609375,16.62199052,16.71682051,16.69632287,16.71682051,,,,,,,,,,,,,,,,,,,,PF,weak,3,,,,,,,,2,1.599285,,,,,,,,,,,,,,,,,,,,,,,,,,,,1,weak,-71,-30,1,0,0,response5disk,8,153,-16,0,1,0,0,rectangle,-16,0,1,0,0,7,2,0.002935,-16,0,1,0,0,0,152,152,65,1,0,,,,,,,,,,,,,,,,,,,,,
,,,,,,,,,,,,,,,,,,,,,,,,,,,,,,,,,,,,,,,,,,5ff818ad08876e553a87bde7,606c0cd161b2e598bc2b178d,2021-04-06_09h35.14.757,Colour_Similarity_Experiment,2020.2.10,Win32,60,6067542a4a25243f4d7d4fcf,17.76020349,17.33609375,16.62199052,16.71682051,16.69632287,16.71682051,,,,,,,,,,,,,,,,,,,,PF,weak,3,,,,,,,,4,1.442505,,,,,,,,,,,,,,,,,,,,,,,,,,,,5,weak,44,-69,1,0,0,response3disk,7,154,9,-5,1,0,0,rectangle,9,-5,1,0,0,7,2,0.000095,9,-5,1,0,0,0,153,153,146,1,0,,,,,,,,,,,,,,,,,,,,,
,,,,,,,,,,,,,,,,,,,,,,,,,,,,,,,,,,,,,,,,,,5ff818ad08876e553a87bde7,606c0cd161b2e598bc2b178d,2021-04-06_09h35.14.757,Colour_Similarity_Experiment,2020.2.10,Win32,60,6067542a4a25243f4d7d4fcf,17.76020349,17.33609375,16.62199052,16.71682051,16.69632287,16.71682051,,,,,,,,,,,,,,,,,,,,PF,strong,3,,,,,,,,6,2.064695,,,,,,,,,,,,,,,,,,,,,,,,,,,,7,strong,83,38,1,0,0,response1disk,4,155,10,6,1,0,0,rectangle,10,6,1,0,0,7,2,0.00039,10,6,1,0,0,0,154,154,158,1,0,,,,,,,,,,,,,,,,,,,,,
,,,,,,,,,,,,,,,,,,,,,,,,,,,,,,,,,,,,,,,,,,5ff818ad08876e553a87bde7,606c0cd161b2e598bc2b178d,2021-04-06_09h35.14.757,Colour_Similarity_Experiment,2020.2.10,Win32,60,6067542a4a25243f4d7d4fcf,17.76020349,17.33609375,16.62199052,16.71682051,16.69632287,16.71682051,,,,,,,,,,,,,,,,,,,,PF,strong,3,,,,,,,,3,1.71473,,,,,,,,,,,,,,,,,,,,,,,,,,,,5,strong,-41,-86,1,0,0,response5disk,4,156,-4,-9,1,0,0,rectangle,-4,-9,1,0,0,7,7,0.004025,-4,-9,1,0,0,0,155,155,8,1,0,,,,,,,,,,,,,,,,,,,,,
,,,,,,,,,,,,,,,,,,,,,,,,,,,,,,,,,,,,,,,,,,5ff818ad08876e553a87bde7,606c0cd161b2e598bc2b178d,2021-04-06_09h35.14.757,Colour_Similarity_Experiment,2020.2.10,Win32,60,6067542a4a25243f4d7d4fcf,17.76020349,17.33609375,16.62199052,16.71682051,16.69632287,16.71682051,,,,,,,,,,,,,,,,,,,,PF,strong,3,,,,,,,,7,1.44801,,,,,,,,,,,,,,,,,,,,,,,,,,,,9,strong,40,99,1,0,0,response1disk,2,157,-2,13,1,0,0,rectangle,36,103,1,0,0,7,7,2.846635,12,6,1,0,0,0,156,156,11,1,1,response1disk_3,rectangle,,,,,,,,,,,,,,,,,,,
,,,,,,,,,,,,,,,,,,,,,,,,,,,,,,,,,,,,,,,,,,5ff818ad08876e553a87bde7,606c0cd161b2e598bc2b178d,2021-04-06_09h35.14.757,Colour_Similarity_Experiment,2020.2.10,Win32,60,6067542a4a25243f4d7d4fcf,17.76020349,17.33609375,16.62199052,16.71682051,16.69632287,16.71682051,,,,,,,,,,,,,,,,,,,,PF,weak,3,,,,,,,,3,1.43211,,,,,,,,,,,,,,,,,,,,,,,,,,,,7,weak,-32,-80,1,0,0,response5disk,8,158,2,13,1,0,0,rectangle,2,13,1,0,0,7,5,0.002435,2,13,1,0,0,0,157,157,140,1,0,,,,,,,,,,,,,,,,,,,,,
,,,,,,,,,,,,,,,,,,,,,,,,,,,,,,,,,,,,,,,,,,5ff818ad08876e553a87bde7,606c0cd161b2e598bc2b178d,2021-04-06_09h35.14.757,Colour_Similarity_Experiment,2020.2.10,Win32,60,6067542a4a25243f4d7d4fcf,17.76020349,17.33609375,16.62199052,16.71682051,16.69632287,16.71682051,,,,,,,,,,,,,,,,,,,,PF,strong,3,,,,,,,,3,1.41585,,,,,,,,,,,,,,,,,,,,,,,,,,,,4,strong,-43,-84,1,0,0,response5disk,6,159,-7,-1,1,0,0,rectangle,-7,-1,1,0,0,7,1,0.00057,-7,-1,1,0,0,0,158,158,122,1,0,,,,,,,,,,,,,,,,,,,,,
,,,,,,,,,,,,,,,,,,,,,,,,,,,,,,,,,,,,,,,,,,5ff818ad08876e553a87bde7,606c0cd161b2e598bc2b178d,2021-04-06_09h35.14.757,Colour_Similarity_Experiment,2020.2.10,Win32,60,6067542a4a25243f4d7d4fcf,17.76020349,17.33609375,16.62199052,16.71682051,16.69632287,16.71682051,,,,,,,,,,,,,,,,,,,,PF,strong,3,,,,,,,,3,1.33229,,,,,,,,,,,,,,,,,,,,,,,,,,,,4,strong,-43,-82,1,0,0,response5disk,5,160,-12,-12,1,0,0,rectangle,-12,-12,1,0,0,7,2,0.00305,-12,-12,1,0,0,0,159,159,116,1,0,,,,,,,,,,,,,,,,,,,,,
,,,,,,,,,,,,,,,,,,,,,,,,,,,,,,,,,,,,,,,,,,5ff818ad08876e553a87bde7,606c0cd161b2e598bc2b178d,2021-04-06_09h35.14.757,Colour_Similarity_Experiment,2020.2.10,Win32,60,6067542a4a25243f4d7d4fcf,17.76020349,17.33609375,16.62199052,16.71682051,16.69632287,16.71682051,,,,,,,,,,,,,,,,,,,,PF,strong,3,,,,,,,,0,1.165635,,,,,,,,,,,,,,,,,,,,,,,,,,,,2,strong,-29,83,1,0,0,response7disk,3,161,-10,11,1,0,0,rectangle,41,72,1,0,0,7,7,2.315655,7,-3,1,0,0,0,160,160,104,1,1,response1disk_3,rectangle,,,,,,,,,,,,,,,,,,,
,,,,,,,,,,,,,,,,,,,,,,,,,,,,,,,,,,,,,,,,,,5ff818ad08876e553a87bde7,606c0cd161b2e598bc2b178d,2021-04-06_09h35.14.757,Colour_Similarity_Experiment,2020.2.10,Win32,60,6067542a4a25243f4d7d4fcf,17.76020349,17.33609375,16.62199052,16.71682051,16.69632287,16.71682051,,,,,,,,,,,,,,,,,,,,PF,weak,3,,,,,,,,7,2.281305,,,,,,,,,,,,,,,,,,,,,,,,,,,,6,weak,44,108,1,0,0,response1disk,3,162,-5,3,1,0,0,rectangle,-5,3,1,0,0,7,3,0.00261,-5,3,1,0,0,0,161,161,26,1,0,,,,,,,,,,,,,,,,,,,,,
,,,,,,,,,,,,,,,,,,,,,,,,,,,,,,,,,,,,,,,,,,5ff818ad08876e553a87bde7,606c0cd161b2e598bc2b178d,2021-04-06_09h35.14.757,Colour_Similarity_Experiment,2020.2.10,Win32,60,6067542a4a25243f4d7d4fcf,17.76020349,17.33609375,16.62199052,16.71682051,16.69632287,16.71682051,,,,,,,,,,,,,,,,,,,,,,,,,,,,,,,,,,,,,,,,,,,,,,,,,,,,,,,,,,,,,,,,,,,,,,,,,,,,,,,,,,,,,,,,,,,,,,,,0,0,0,0,1,,,,,,,,,,,,,,
,,,,,,,,,,,,,,,,,,,,,,,,,,,,,,,,,,,,,,,,,,5ff818ad08876e553a87bde7,606c0cd161b2e598bc2b178d,2021-04-06_09h35.14.757,Colour_Similarity_Experiment,2020.2.10,Win32,60,6067542a4a25243f4d7d4fcf,17.76020349,17.33609375,16.62199052,16.71682051,16.69632287,16.71682051,,,,,,,,,,,,,,,,,,,,PF,weak,3,,,,,,,,7,1.797415,,,,,,,,,,,,,,,,,,,,,,,,,,,,2,weak,38,75,1,0,0,response1disk,6,163,8,9,1,0,0,rectangle,8,9,1,0,0,7,5,0.0042,8,9,1,0,0,0,0,0,113,1,0,,,,,,,,,,,,,,,,,,,,,
,,,,,,,,,,,,,,,,,,,,,,,,,,,,,,,,,,,,,,,,,,5ff818ad08876e553a87bde7,606c0cd161b2e598bc2b178d,2021-04-06_09h35.14.757,Colour_Similarity_Experiment,2020.2.10,Win32,60,6067542a4a25243f4d7d4fcf,17.76020349,17.33609375,16.62199052,16.71682051,16.69632287,16.71682051,,,,,,,,,,,,,,,,,,,,PF,strong,3,,,,,,,,3,1.94746,,,,,,,,,,,,,,,,,,,,,,,,,,,,9,strong,-36,-76,1,0,0,response5disk,4,164,-8,5,1,0,0,rectangle,-8,5,1,0,0,7,2,0.004035,-8,5,1,0,0,0,1,1,60,1,0,,,,,,,,,,,,,,,,,,,,,
,,,,,,,,,,,,,,,,,,,,,,,,,,,,,,,,,,,,,,,,,,5ff818ad08876e553a87bde7,606c0cd161b2e598bc2b178d,2021-04-06_09h35.14.757,Colour_Similarity_Experiment,2020.2.10,Win32,60,6067542a4a25243f4d7d4fcf,17.76020349,17.33609375,16.62199052,16.71682051,16.69632287,16.71682051,,,,,,,,,,,,,,,,,,,,PF,strong,3,,,,,,,,2,2.480625,,,,,,,,,,,,,,,,,,,,,,,,,,,,5,strong,-76,-44,1,0,0,response5disk,7,165,-2,1,1,0,0,rectangle,-2,1,1,0,0,7,3,0.005415,-2,1,1,0,0,0,2,2,7,1,0,,,,,,,,,,,,,,,,,,,,,
,,,,,,,,,,,,,,,,,,,,,,,,,,,,,,,,,,,,,,,,,,5ff818ad08876e553a87bde7,606c0cd161b2e598bc2b178d,2021-04-06_09h35.14.757,Colour_Similarity_Experiment,2020.2.10,Win32,60,6067542a4a25243f4d7d4fcf,17.76020349,17.33609375,16.62199052,16.71682051,16.69632287,16.71682051,,,,,,,,,,,,,,,,,,,,PF,strong,3,,,,,,,,2,1.666065,,,,,,,,,,,,,,,,,,,,,,,,,,,,6,strong,-71,-47,1,0,0,response5disk,4,166,-1,-7,1,0,0,rectangle,-1,-7,1,0,0,7,2,0.0039,-1,-7,1,0,0,0,3,3,56,1,0,,,,,,,,,,,,,,,,,,,,,
,,,,,,,,,,,,,,,,,,,,,,,,,,,,,,,,,,,,,,,,,,5ff818ad08876e553a87bde7,606c0cd161b2e598bc2b178d,2021-04-06_09h35.14.757,Colour_Similarity_Experiment,2020.2.10,Win32,60,6067542a4a25243f4d7d4fcf,17.76020349,17.33609375,16.62199052,16.71682051,16.69632287,16.71682051,,,,,,,,,,,,,,,,,,,,PF,strong,3,,,,,,,,1,1.54774,,,,,,,,,,,,,,,,,,,,,,,,,,,,1,strong,-67,31,1,0,0,response7disk,2,167,10,2,1,0,0,rectangle,10,2,1,0,0,7,6,0.003,10,2,1,0,0,0,4,4,2,1,0,,,,,,,,,,,,,,,,,,,,,
,,,,,,,,,,,,,,,,,,,,,,,,,,,,,,,,,,,,,,,,,,5ff818ad08876e553a87bde7,606c0cd161b2e598bc2b178d,2021-04-06_09h35.14.757,Colour_Similarity_Experiment,2020.2.10,Win32,60,6067542a4a25243f4d7d4fcf,17.76020349,17.33609375,16.62199052,16.71682051,16.69632287,16.71682051,,,,,,,,,,,,,,,,,,,,PF,strong,3,,,,,,,,0,1.23239,,,,,,,,,,,,,,,,,,,,,,,,,,,,3,strong,-39,83,1,0,0,response7disk,3,168,1,-3,1,0,0,rectangle,1,-3,1,0,0,7,3,0.000615,1,-3,1,0,0,0,5,5,68,1,0,,,,,,,,,,,,,,,,,,,,,
,,,,,,,,,,,,,,,,,,,,,,,,,,,,,,,,,,,,,,,,,,5ff818ad08876e553a87bde7,606c0cd161b2e598bc2b178d,2021-04-06_09h35.14.757,Colour_Similarity_Experiment,2020.2.10,Win32,60,6067542a4a25243f4d7d4fcf,17.76020349,17.33609375,16.62199052,16.71682051,16.69632287,16.71682051,,,,,,,,,,,,,,,,,,,,PF,weak,3,,,,,,,,7,1.33189,,,,,,,,,,,,,,,,,,,,,,,,,,,,7,weak,27,77,1,0,0,response1disk,5,169,-8,-2,1,0,0,rectangle,-8,-2,1,0,0,7,7,0.001875,-8,-2,1,0,0,0,6,6,92,1,0,,,,,,,,,,,,,,,,,,,,,
,,,,,,,,,,,,,,,,,,,,,,,,,,,,,,,,,,,,,,,,,,5ff818ad08876e553a87bde7,606c0cd161b2e598bc2b178d,2021-04-06_09h35.14.757,Colour_Similarity_Experiment,2020.2.10,Win32,60,6067542a4a25243f4d7d4fcf,17.76020349,17.33609375,16.62199052,16.71682051,16.69632287,16.71682051,,,,,,,,,,,,,,,,,,,,PF,weak,3,,,,,,,,7,1.14308,,,,,,,,,,,,,,,,,,,,,,,,,,,,9,weak,45,70,1,0,0,response1disk,6,170,1,-8,1,0,0,rectangle,1,-8,1,0,0,7,4,0.003795,1,-8,1,0,0,0,7,7,148,1,0,,,,,,,,,,,,,,,,,,,,,
,,,,,,,,,,,,,,,,,,,,,,,,,,,,,,,,,,,,,,,,,,5ff818ad08876e553a87bde7,606c0cd161b2e598bc2b178d,2021-04-06_09h35.14.757,Colour_Similarity_Experiment,2020.2.10,Win32,60,6067542a4a25243f4d7d4fcf,17.76020349,17.33609375,16.62199052,16.71682051,16.69632287,16.71682051,,,,,,,,,,,,,,,,,,,,PF,strong,3,,,,,,,,4,2.13043,,,,,,,,,,,,,,,,,,,,,,,,,,,,8,strong,24,-45,1,0,0,response3disk,8,171,-4,6,1,0,0,rectangle,-4,6,1,0,0,7,4,0.001135,-4,6,1,0,0,0,8,8,48,1,0,,,,,,,,,,,,,,,,,,,,,
,,,,,,,,,,,,,,,,,,,,,,,,,,,,,,,,,,,,,,,,,,5ff818ad08876e553a87bde7,606c0cd161b2e598bc2b178d,2021-04-06_09h35.14.757,Colour_Similarity_Experiment,2020.2.10,Win32,60,6067542a4a25243f4d7d4fcf,17.76020349,17.33609375,16.62199052,16.71682051,16.69632287,16.71682051,,,,,,,,,,,,,,,,,,,,PF,strong,3,,,,,,,,7,1.48206,,,,,,,,,,,,,,,,,,,,,,,,,,,,6,strong,41,74,1,0,0,response1disk,1,172,8,2,1,0,0,rectangle,8,2,1,0,0,7,4,0.000335,8,2,1,0,0,0,9,9,5,1,0,,,,,,,,,,,,,,,,,,,,,
,,,,,,,,,,,,,,,,,,,,,,,,,,,,,,,,,,,,,,,,,,5ff818ad08876e553a87bde7,606c0cd161b2e598bc2b178d,2021-04-06_09h35.14.757,Colour_Similarity_Experiment,2020.2.10,Win32,60,6067542a4a25243f4d7d4fcf,17.76020349,17.33609375,16.62199052,16.71682051,16.69632287,16.71682051,,,,,,,,,,,,,,,,,,,,PF,weak,3,,,,,,,,0,1.398565,,,,,,,,,,,,,,,,,,,,,,,,,,,,4,weak,-39,93,1,0,0,response7disk,4,173,-4,1,1,0,0,rectangle,-4,1,1,0,0,7,3,0.005745,-4,1,1,0,0,0,10,10,70,1,0,,,,,,,,,,,,,,,,,,,,,
,,,,,,,,,,,,,,,,,,,,,,,,,,,,,,,,,,,,,,,,,,5ff818ad08876e553a87bde7,606c0cd161b2e598bc2b178d,2021-04-06_09h35.14.757,Colour_Similarity_Experiment,2020.2.10,Win32,60,6067542a4a25243f4d7d4fcf,17.76020349,17.33609375,16.62199052,16.71682051,16.69632287,16.71682051,,,,,,,,,,,,,,,,,,,,PF,weak,3,,,,,,,,7,1.064815,,,,,,,,,,,,,,,,,,,,,,,,,,,,6,weak,43,66,1,0,0,response1disk,9,174,8,2,1,0,0,rectangle,8,2,1,0,0,7,1,0.00301,8,2,1,0,0,0,11,11,45,1,0,,,,,,,,,,,,,,,,,,,,,
,,,,,,,,,,,,,,,,,,,,,,,,,,,,,,,,,,,,,,,,,,5ff818ad08876e553a87bde7,606c0cd161b2e598bc2b178d,2021-04-06_09h35.14.757,Colour_Similarity_Experiment,2020.2.10,Win32,60,6067542a4a25243f4d7d4fcf,17.76020349,17.33609375,16.62199052,16.71682051,16.69632287,16.71682051,,,,,,,,,,,,,,,,,,,,PF,strong,3,,,,,,,,3,2.181045,,,,,,,,,,,,,,,,,,,,,,,,,,,,1,strong,-35,-61,1,0,0,response5disk,1,175,-4,5,1,0,0,rectangle,-4,5,1,0,0,7,5,0.002645,-4,5,1,0,0,0,12,12,151,1,0,,,,,,,,,,,,,,,,,,,,,
,,,,,,,,,,,,,,,,,,,,,,,,,,,,,,,,,,,,,,,,,,5ff818ad08876e553a87bde7,606c0cd161b2e598bc2b178d,2021-04-06_09h35.14.757,Colour_Similarity_Experiment,2020.2.10,Win32,60,6067542a4a25243f4d7d4fcf,17.76020349,17.33609375,16.62199052,16.71682051,16.69632287,16.71682051,,,,,,,,,,,,,,,,,,,,PF,weak,3,,,,,,,,7,1.4978,,,,,,,,,,,,,,,,,,,,,,,,,,,,4,weak,36,67,1,0,0,response1disk,2,176,8,10,1,0,0,rectangle,8,10,1,0,0,7,6,0.003765,8,10,1,0,0,0,13,13,108,1,0,,,,,,,,,,,,,,,,,,,,,
,,,,,,,,,,,,,,,,,,,,,,,,,,,,,,,,,,,,,,,,,,5ff818ad08876e553a87bde7,606c0cd161b2e598bc2b178d,2021-04-06_09h35.14.757,Colour_Similarity_Experiment,2020.2.10,Win32,60,6067542a4a25243f4d7d4fcf,17.76020349,17.33609375,16.62199052,16.71682051,16.69632287,16.71682051,,,,,,,,,,,,,,,,,,,,PF,strong,3,,,,,,,,7,1.180525,,,,,,,,,,,,,,,,,,,,,,,,,,,,7,strong,44,63,1,0,0,response1disk,1,177,12,4,1,0,0,rectangle,12,4,1,0,0,7,3,0.002905,12,4,1,0,0,0,14,14,132,1,0,,,,,,,,,,,,,,,,,,,,,
,,,,,,,,,,,,,,,,,,,,,,,,,,,,,,,,,,,,,,,,,,5ff818ad08876e553a87bde7,606c0cd161b2e598bc2b178d,2021-04-06_09h35.14.757,Colour_Similarity_Experiment,2020.2.10,Win32,60,6067542a4a25243f4d7d4fcf,17.76020349,17.33609375,16.62199052,16.71682051,16.69632287,16.71682051,,,,,,,,,,,,,,,,,,,,PF,strong,3,,,,,,,,0,1.598135,,,,,,,,,,,,,,,,,,,,,,,,,,,,3,strong,-31,83,1,0,0,response7disk,2,178,1,1,1,0,0,rectangle,1,1,1,0,0,7,0,0.002515,1,1,1,0,0,0,15,15,93,1,0,,,,,,,,,,,,,,,,,,,,,
,,,,,,,,,,,,,,,,,,,,,,,,,,,,,,,,,,,,,,,,,,5ff818ad08876e553a87bde7,606c0cd161b2e598bc2b178d,2021-04-06_09h35.14.757,Colour_Similarity_Experiment,2020.2.10,Win32,60,6067542a4a25243f4d7d4fcf,17.76020349,17.33609375,16.62199052,16.71682051,16.69632287,16.71682051,,,,,,,,,,,,,,,,,,,,PF,strong,3,,,,,,,,7,1.14795,,,,,,,,,,,,,,,,,,,,,,,,,,,,1,strong,43,78,1,0,0,response1disk,4,179,2,-6,1,0,0,rectangle,2,-6,1,0,0,7,6,0.002215,2,-6,1,0,0,0,16,16,135,1,0,,,,,,,,,,,,,,,,,,,,,
,,,,,,,,,,,,,,,,,,,,,,,,,,,,,,,,,,,,,,,,,,5ff818ad08876e553a87bde7,606c0cd161b2e598bc2b178d,2021-04-06_09h35.14.757,Colour_Similarity_Experiment,2020.2.10,Win32,60,6067542a4a25243f4d7d4fcf,17.76020349,17.33609375,16.62199052,16.71682051,16.69632287,16.71682051,,,,,,,,,,,,,,,,,,,,PF,weak,3,,,,,,,,7,1.91522,,,,,,,,,,,,,,,,,,,,,,,,,,,,2,weak,53,102,1,0,0,response1disk,9,180,-9,-2,1,0,0,rectangle,-9,-2,1,0,0,7,2,0.00295,-9,-2,1,0,0,0,17,17,39,1,0,,,,,,,,,,,,,,,,,,,,,
,,,,,,,,,,,,,,,,,,,,,,,,,,,,,,,,,,,,,,,,,,5ff818ad08876e553a87bde7,606c0cd161b2e598bc2b178d,2021-04-06_09h35.14.757,Colour_Similarity_Experiment,2020.2.10,Win32,60,6067542a4a25243f4d7d4fcf,17.76020349,17.33609375,16.62199052,16.71682051,16.69632287,16.71682051,,,,,,,,,,,,,,,,,,,,PF,weak,3,,,,,,,,7,1.03199,,,,,,,,,,,,,,,,,,,,,,,,,,,,8,weak,37,72,1,0,0,response1disk,6,181,0,4,1,0,0,rectangle,-48,-84,1,0,0,3,3,2.880155,-2,-1,1,0,0,0,18,18,161,1,1,response5disk_3,rectangle,,,,,,,,,,,,,,,,,,,
,,,,,,,,,,,,,,,,,,,,,,,,,,,,,,,,,,,,,,,,,,5ff818ad08876e553a87bde7,606c0cd161b2e598bc2b178d,2021-04-06_09h35.14.757,Colour_Similarity_Experiment,2020.2.10,Win32,60,6067542a4a25243f4d7d4fcf,17.76020349,17.33609375,16.62199052,16.71682051,16.69632287,16.71682051,,,,,,,,,,,,,,,,,,,,PF,strong,3,,,,,,,,3,1.73246,,,,,,,,,,,,,,,,,,,,,,,,,,,,7,strong,-48,-80,1,0,0,response5disk,7,182,-6,-1,1,0,0,rectangle,-6,-1,1,0,0,3,4,0.00308,-6,-1,1,0,0,0,19,19,34,1,0,,,,,,,,,,,,,,,,,,,,,
,,,,,,,,,,,,,,,,,,,,,,,,,,,,,,,,,,,,,,,,,,5ff818ad08876e553a87bde7,606c0cd161b2e598bc2b178d,2021-04-06_09h35.14.757,Colour_Similarity_Experiment,2020.2.10,Win32,60,6067542a4a25243f4d7d4fcf,17.76020349,17.33609375,16.62199052,16.71682051,16.69632287,16.71682051,,,,,,,,,,,,,,,,,,,,PF,strong,3,,,,,,,,7,1.14825,,,,,,,,,,,,,,,,,,,,,,,,,,,,4,strong,44,80,1,0,0,response1disk,9,183,3,-4,1,0,0,rectangle,3,-4,1,0,0,3,1,0.00228,3,-4,1,0,0,0,20,20,90,1,0,,,,,,,,,,,,,,,,,,,,,
,,,,,,,,,,,,,,,,,,,,,,,,,,,,,,,,,,,,,,,,,,5ff818ad08876e553a87bde7,606c0cd161b2e598bc2b178d,2021-04-06_09h35.14.757,Colour_Similarity_Experiment,2020.2.10,Win32,60,6067542a4a25243f4d7d4fcf,17.76020349,17.33609375,16.62199052,16.71682051,16.69632287,16.71682051,,,,,,,,,,,,,,,,,,,,PF,weak,3,,,,,,,,7,1.10116,,,,,,,,,,,,,,,,,,,,,,,,,,,,5,weak,45,70,1,0,0,response1disk,8,184,8,-7,1,0,0,rectangle,8,-7,1,0,0,3,7,0.003555,8,-7,1,0,0,0,21,21,149,1,0,,,,,,,,,,,,,,,,,,,,,
,,,,,,,,,,,,,,,,,,,,,,,,,,,,,,,,,,,,,,,,,,5ff818ad08876e553a87bde7,606c0cd161b2e598bc2b178d,2021-04-06_09h35.14.757,Colour_Similarity_Experiment,2020.2.10,Win32,60,6067542a4a25243f4d7d4fcf,17.76020349,17.33609375,16.62199052,16.71682051,16.69632287,16.71682051,,,,,,,,,,,,,,,,,,,,PF,strong,3,,,,,,,,4,1.498915,,,,,,,,,,,,,,,,,,,,,,,,,,,,3,strong,29,-64,1,0,0,response3disk,5,185,3,-5,1,0,0,rectangle,3,-5,1,0,0,3,7,0.000205,3,-5,1,0,0,0,22,22,101,1,0,,,,,,,,,,,,,,,,,,,,,
,,,,,,,,,,,,,,,,,,,,,,,,,,,,,,,,,,,,,,,,,,5ff818ad08876e553a87bde7,606c0cd161b2e598bc2b178d,2021-04-06_09h35.14.757,Colour_Similarity_Experiment,2020.2.10,Win32,60,6067542a4a25243f4d7d4fcf,17.76020349,17.33609375,16.62199052,16.71682051,16.69632287,16.71682051,,,,,,,,,,,,,,,,,,,,PF,strong,3,,,,,,,,7,1.69291,,,,,,,,,,,,,,,,,,,,,,,,,,,,5,strong,24,68,1,0,0,response1disk,3,186,-3,-2,1,0,0,rectangle,-3,-2,1,0,0,3,6,0.00055,-3,-2,1,0,0,0,23,23,25,1,0,,,,,,,,,,,,,,,,,,,,,
,,,,,,,,,,,,,,,,,,,,,,,,,,,,,,,,,,,,,,,,,,5ff818ad08876e553a87bde7,606c0cd161b2e598bc2b178d,2021-04-06_09h35.14.757,Colour_Similarity_Experiment,2020.2.10,Win32,60,6067542a4a25243f4d7d4fcf,17.76020349,17.33609375,16.62199052,16.71682051,16.69632287,16.71682051,,,,,,,,,,,,,,,,,,,,PF,strong,3,,,,,,,,0,1.19991,,,,,,,,,,,,,,,,,,,,,,,,,,,,6,strong,-50,104,1,0,0,response7disk,6,187,-6,-1,1,0,0,rectangle,-6,-1,1,0,0,3,5,0.0019,-6,-1,1,0,0,0,24,24,91,1,0,,,,,,,,,,,,,,,,,,,,,
,,,,,,,,,,,,,,,,,,,,,,,,,,,,,,,,,,,,,,,,,,5ff818ad08876e553a87bde7,606c0cd161b2e598bc2b178d,2021-04-06_09h35.14.757,Colour_Similarity_Experiment,2020.2.10,Win32,60,6067542a4a25243f4d7d4fcf,17.76020349,17.33609375,16.62199052,16.71682051,16.69632287,16.71682051,,,,,,,,,,,,,,,,,,,,PF,weak,3,,,,,,,,1,1.34294,,,,,,,,,,,,,,,,,,,,,,,,,,,,8,weak,-88,43,1,0,0,response7disk,1,188,0,0,1,0,0,rectangle,0,0,1,0,0,3,4,0.00352,0,0,1,0,0,0,25,25,57,1,0,,,,,,,,,,,,,,,,,,,,,
,,,,,,,,,,,,,,,,,,,,,,,,,,,,,,,,,,,,,,,,,,5ff818ad08876e553a87bde7,606c0cd161b2e598bc2b178d,2021-04-06_09h35.14.757,Colour_Similarity_Experiment,2020.2.10,Win32,60,6067542a4a25243f4d7d4fcf,17.76020349,17.33609375,16.62199052,16.71682051,16.69632287,16.71682051,,,,,,,,,,,,,,,,,,,,PF,strong,3,,,,,,,,7,1.18284,,,,,,,,,,,,,,,,,,,,,,,,,,,,6,strong,38,70,1,0,0,response1disk,8,189,1,2,1,0,0,rectangle,1,2,1,0,0,3,2,0.00319,1,2,1,0,0,0,26,26,133,1,0,,,,,,,,,,,,,,,,,,,,,
,,,,,,,,,,,,,,,,,,,,,,,,,,,,,,,,,,,,,,,,,,5ff818ad08876e553a87bde7,606c0cd161b2e598bc2b178d,2021-04-06_09h35.14.757,Colour_Similarity_Experiment,2020.2.10,Win32,60,6067542a4a25243f4d7d4fcf,17.76020349,17.33609375,16.62199052,16.71682051,16.69632287,16.71682051,,,,,,,,,,,,,,,,,,,,PF,weak,3,,,,,,,,0,1.21003,,,,,,,,,,,,,,,,,,,,,,,,,,,,7,weak,-40,97,1,0,0,response7disk,7,190,-10,5,1,0,0,rectangle,-10,5,1,0,0,3,0,0.00059,-10,5,1,0,0,0,27,27,51,1,0,,,,,,,,,,,,,,,,,,,,,
,,,,,,,,,,,,,,,,,,,,,,,,,,,,,,,,,,,,,,,,,,5ff818ad08876e553a87bde7,606c0cd161b2e598bc2b178d,2021-04-06_09h35.14.757,Colour_Similarity_Experiment,2020.2.10,Win32,60,6067542a4a25243f4d7d4fcf,17.76020349,17.33609375,16.62199052,16.71682051,16.69632287,16.71682051,,,,,,,,,,,,,,,,,,,,PF,weak,3,,,,,,,,7,1.23203,,,,,,,,,,,,,,,,,,,,,,,,,,,,7,weak,38,78,1,0,0,response1disk,2,191,1,1,1,0,0,rectangle,1,1,1,0,0,3,6,0.002365,1,1,1,0,0,0,28,28,32,1,0,,,,,,,,,,,,,,,,,,,,,
,,,,,,,,,,,,,,,,,,,,,,,,,,,,,,,,,,,,,,,,,,5ff818ad08876e553a87bde7,606c0cd161b2e598bc2b178d,2021-04-06_09h35.14.757,Colour_Similarity_Experiment,2020.2.10,Win32,60,6067542a4a25243f4d7d4fcf,17.76020349,17.33609375,16.62199052,16.71682051,16.69632287,16.71682051,,,,,,,,,,,,,,,,,,,,PF,weak,3,,,,,,,,3,1.481925,,,,,,,,,,,,,,,,,,,,,,,,,,,,5,weak,-47,-79,1,0,0,response5disk,3,192,-9,-8,1,0,0,rectangle,-9,-8,1,0,0,3,5,0.004425,-9,-8,1,0,0,0,29,29,109,1,0,,,,,,,,,,,,,,,,,,,,,
,,,,,,,,,,,,,,,,,,,,,,,,,,,,,,,,,,,,,,,,,,5ff818ad08876e553a87bde7,606c0cd161b2e598bc2b178d,2021-04-06_09h35.14.757,Colour_Similarity_Experiment,2020.2.10,Win32,60,6067542a4a25243f4d7d4fcf,17.76020349,17.33609375,16.62199052,16.71682051,16.69632287,16.71682051,,,,,,,,,,,,,,,,,,,,PF,weak,3,,,,,,,,7,1.14968,,,,,,,,,,,,,,,,,,,,,,,,,,,,9,weak,39,83,1,0,0,response1disk,2,193,-2,-7,1,0,0,rectangle,-2,-7,1,0,0,3,3,0.00352,-2,-7,1,0,0,0,30,30,157,1,0,,,,,,,,,,,,,,,,,,,,,
,,,,,,,,,,,,,,,,,,,,,,,,,,,,,,,,,,,,,,,,,,5ff818ad08876e553a87bde7,606c0cd161b2e598bc2b178d,2021-04-06_09h35.14.757,Colour_Similarity_Experiment,2020.2.10,Win32,60,6067542a4a25243f4d7d4fcf,17.76020349,17.33609375,16.62199052,16.71682051,16.69632287,16.71682051,,,,,,,,,,,,,,,,,,,,PF,strong,3,,,,,,,,1,1.63029,,,,,,,,,,,,,,,,,,,,,,,,,,,,7,strong,-68,46,1,0,0,response7disk,5,194,2,6,1,0,0,rectangle,2,6,1,0,0,3,3,0.000255,2,6,1,0,0,0,31,31,156,1,0,,,,,,,,,,,,,,,,,,,,,
,,,,,,,,,,,,,,,,,,,,,,,,,,,,,,,,,,,,,,,,,,5ff818ad08876e553a87bde7,606c0cd161b2e598bc2b178d,2021-04-06_09h35.14.757,Colour_Similarity_Experiment,2020.2.10,Win32,60,6067542a4a25243f4d7d4fcf,17.76020349,17.33609375,16.62199052,16.71682051,16.69632287,16.71682051,,,,,,,,,,,,,,,,,,,,PF,weak,3,,,,,,,,1,1.64837,,,,,,,,,,,,,,,,,,,,,,,,,,,,2,weak,-78,21,1,0,0,response7disk,3,195,-7,2,1,0,0,rectangle,-7,2,1,0,0,3,3,0.000365,-7,2,1,0,0,0,32,32,69,1,0,,,,,,,,,,,,,,,,,,,,,
