key_resp.keys,key_resp.rt,key_resp_16.keys,key_resp_16.rt,key_resp_2.keys,key_resp_2.rt,X Scale,ratio_pxpermm,screen_size_x,screen_size_y,testsize,key_resp_3.keys,key_resp_3.rt,key_resp_4.keys,key_resp_4.rt,line_size,key_resp_5.keys,key_resp_5.rt,key_resp_6.keys,key_resp_6.rt,key_resp_8.keys,key_resp_8.rt,key_resp_7.keys,key_resp_7.rt,key_resp_12.keys,key_resp_12.rt,key_resp_11.keys,key_resp_11.rt,key_resp_18.keys,key_resp_18.rt,key_resp_21.keys,key_resp_21.rt,key_resp_13.keys,key_resp_13.rt,key_resp_19.keys,key_resp_19.rt,ballposx,viewer_distance,trials.thisRepN,trials.thisTrialN,trials.thisN,trials.thisIndex,trials.ran,participant,session,date,expName,psychopyVersion,OS,frameRate,study_id,realFrameRate1,realFrameRate2,realFrameRate3,realFrameRate4,realFrameRate5,realFrameRate,viewerdistancecm,DVA_to_distance,radius_F,radius_P,r_F,R_P,key_resp_20.keys,key_resp_20.rt,key_resp_14.keys,key_resp_14.rt,key_resp_15.keys,key_resp_15.rt,key_resp_17.keys,key_resp_17.rt,key_resp_9.keys,key_resp_9.rt,key_resp_10.keys,key_resp_10.rt,Colour_1,Ecc,maskCon,mask_frames,mouse_5.x,mouse_5.y,mouse_5.leftButton,mouse_5.midButton,mouse_5.rightButton,mouse_5.clicked_name,Colour_2,similarity,response_time,mouse_10.x,mouse_10.y,mouse_10.leftButton,mouse_10.midButton,mouse_10.rightButton,mouse_10.clicked_name,mouse_7.x,mouse_7.y,mouse_7.leftButton,mouse_7.midButton,mouse_7.rightButton,mouse_7.clicked_name,catchprac,catchnumberprac,mouse_6.x,mouse_6.y,mouse_6.leftButton,mouse_6.midButton,mouse_6.rightButton,mouse_6.clicked_name,duringprac.thisRepN,duringprac.thisTrialN,duringprac.thisN,duringprac.thisIndex,duringprac.ran,key_resp_22.keys,key_resp_22.rt,Colour1,maskCon1,mouse.x,mouse.y,mouse.leftButton,mouse.midButton,mouse.rightButton,mouse.clicked_name,Colour2,trialnumber,mouse_2.x,mouse_2.y,mouse_2.leftButton,mouse_2.midButton,mouse_2.rightButton,mouse_2.clicked_name,mouse_3.x,mouse_3.y,mouse_3.leftButton,mouse_3.midButton,mouse_3.rightButton,catchresponse,catchnumber,response_time_catch,mouse_11.x,mouse_11.y,mouse_11.leftButton,mouse_11.midButton,mouse_11.rightButton,trials_2.thisRepN,trials_2.thisTrialN,trials_2.thisN,trials_2.thisIndex,trials_2.ran,Catch,mouse_3.clicked_name,mouse_11.clicked_name,trials_3.thisRepN,trials_3.thisTrialN,trials_3.thisN,trials_3.thisIndex,trials_3.ran,answer1,rt1,answer2,rt2,answer3,rt3,answer4,rt4,answer5,rt5,answer6,rt6,answer7,rt7
space,0.604615,space,7.8438,space,6.8271,39.2,3.92,348.4693878,195.9183673,1366,space,8.68625,space,8.28202,78.4,space,7.714515,space,4.397895,space,4.1313,space,3.834155,space,37.754215,space,3.343535,space,7.15642,space,7.60904,space,15.01525,return,4.8856,-90.156,676.3896797,0,0,0,0,1,602d7e1c3ecd7d7db842933c,606c0c6fbecf1d7b67fb583e,2021-04-06_09h24.51.126,Colour_Similarity_Experiment,2020.2.10,Win32,60,6067542a4a25243f4d7d4fcf,17.02555195,16.75748936,16.71570888,16.7303125,16.7187543,16.7303125,,,,,,,,,,,,,,,,,,,,,,,,,,,,,,,,,,,,,,,,,,,,,,,,,,,,,,,,,,,,,,,,,,,,,,,,,,,,,,,,,,,,,,,,,,,,,,,,,,,,,,,,,,,,,,,,,,
,,,,,,,,,,,,,,,,,,,,,,,,,,,,,,,,,,return,6.889885,-333.987,935.4788596,1,0,1,0,1,602d7e1c3ecd7d7db842933c,606c0c6fbecf1d7b67fb583e,2021-04-06_09h24.51.126,Colour_Similarity_Experiment,2020.2.10,Win32,60,6067542a4a25243f4d7d4fcf,17.02555195,16.75748936,16.71570888,16.7303125,16.7187543,16.7303125,,,,,,,,,,,,,,,,,,,,,,,,,,,,,,,,,,,,,,,,,,,,,,,,,,,,,,,,,,,,,,,,,,,,,,,,,,,,,,,,,,,,,,,,,,,,,,,,,,,,,,,,,,,,,,,,,,
,,,,,,,,,,,,,,,,,,,,,,,,,,,,,,,,,,return,8.81276,-569.622,1185.85916,2,0,2,0,1,602d7e1c3ecd7d7db842933c,606c0c6fbecf1d7b67fb583e,2021-04-06_09h24.51.126,Colour_Similarity_Experiment,2020.2.10,Win32,60,6067542a4a25243f4d7d4fcf,17.02555195,16.75748936,16.71570888,16.7303125,16.7187543,16.7303125,,,,,,,,,,,,,,,,,,,,,,,,,,,,,,,,,,,,,,,,,,,,,,,,,,,,,,,,,,,,,,,,,,,,,,,,,,,,,,,,,,,,,,,,,,,,,,,,,,,,,,,,,,,,,,,,,,
,,,,,,,,,,,,,,,,,,,,,,,,,,,,,,,,,,return,8.25368,-499.956,1111.83368,3,0,3,0,1,602d7e1c3ecd7d7db842933c,606c0c6fbecf1d7b67fb583e,2021-04-06_09h24.51.126,Colour_Similarity_Experiment,2020.2.10,Win32,60,6067542a4a25243f4d7d4fcf,17.02555195,16.75748936,16.71570888,16.7303125,16.7187543,16.7303125,,,,,,,,,,,,,,,,,,,,,,,,,,,,,,,,,,,,,,,,,,,,,,,,,,,,,,,,,,,,,,,,,,,,,,,,,,,,,,,,,,,,,,,,,,,,,,,,,,,,,,,,,,,,,,,,,,
,,,,,,,,,,,,,,,,,,,,,,,,,,,,,,,,,,return,9.449875,-647.484,1268.593519,4,0,4,0,1,602d7e1c3ecd7d7db842933c,606c0c6fbecf1d7b67fb583e,2021-04-06_09h24.51.126,Colour_Similarity_Experiment,2020.2.10,Win32,60,6067542a4a25243f4d7d4fcf,17.02555195,16.75748936,16.71570888,16.7303125,16.7187543,16.7303125,,,,,,,,,,,,,,,,,,,,,,,,,,,,,,,,,,,,,,,,,,,,,,,,,,,,,,,,,,,,,,,,,,,,,,,,,,,,,,,,,,,,,,,,,,,,,,,,,,,,,,,,,,,,,,,,,,
,,,,,,,,,,,,,,,,,,,,,,,,,,,,,,,,,,,,,,,,,,,602d7e1c3ecd7d7db842933c,606c0c6fbecf1d7b67fb583e,2021-04-06_09h24.51.126,Colour_Similarity_Experiment,2020.2.10,Win32,60,6067542a4a25243f4d7d4fcf,17.02555195,16.75748936,16.71570888,16.7303125,16.7187543,16.7303125,127,22.16792453,130.3473962,868.9826416,86.89826416,391.0421887,space,3.021965,space,14.0832,space,25.444155,space,8.938745,space,1.93825,space,5.885175,6,PF,strong,3,66,-37.5,1,0,0,response3disk_5,8,5,8.8518,-5,1.5,1,0,0,rectangle_8,-76,37.5,1,0,0,response7disk_7,1,1,23,-1.5,1,0,0,rectangle_4,0,0,0,2,1,,,,,,,,,,,,,,,,,,,,,,,,,,,,,,,,,,,,,,,,,,,,,,,,,,,,,,,,,,
,,,,,,,,,,,,,,,,,,,,,,,,,,,,,,,,,,,,,,,,,,,602d7e1c3ecd7d7db842933c,606c0c6fbecf1d7b67fb583e,2021-04-06_09h24.51.126,Colour_Similarity_Experiment,2020.2.10,Win32,60,6067542a4a25243f4d7d4fcf,17.02555195,16.75748936,16.71570888,16.7303125,16.7187543,16.7303125,,,,,,,,,,,,,,,,,,,3,PF,weak,3,51,91.5,1,0,0,response1disk_5,5,7,5.686705,-5,-5.5,1,0,0,rectangle_8,-5,-5.5,1,0,0,,,1,-5,-5.5,1,0,0,,0,1,1,4,1,,,,,,,,,,,,,,,,,,,,,,,,,,,,,,,,,,,,,,,,,,,,,,,,,,,,,,,,,,
,,,,,,,,,,,,,,,,,,,,,,,,,,,,,,,,,,,,,,,,,,,602d7e1c3ecd7d7db842933c,606c0c6fbecf1d7b67fb583e,2021-04-06_09h24.51.126,Colour_Similarity_Experiment,2020.2.10,Win32,60,6067542a4a25243f4d7d4fcf,17.02555195,16.75748936,16.71570888,16.7303125,16.7187543,16.7303125,,,,,,,,,,,,,,,,,,,2,PF,strong,3,-56,83.5,1,0,0,response7disk_5,1,0,3.948655,12,0.5,1,0,0,rectangle_8,12,0.5,1,0,0,,,1,12,0.5,1,0,0,,0,2,2,3,1,,,,,,,,,,,,,,,,,,,,,,,,,,,,,,,,,,,,,,,,,,,,,,,,,,,,,,,,,,
,,,,,,,,,,,,,,,,,,,,,,,,,,,,,,,,,,,,,,,,,,,602d7e1c3ecd7d7db842933c,606c0c6fbecf1d7b67fb583e,2021-04-06_09h24.51.126,Colour_Similarity_Experiment,2020.2.10,Win32,60,6067542a4a25243f4d7d4fcf,17.02555195,16.75748936,16.71570888,16.7303125,16.7187543,16.7303125,,,,,,,,,,,,,,,,,,,5,PF,weak,3,40,-92.5,1,0,0,response3disk_5,2,4,3.729675,-4,-1.5,1,0,0,rectangle_8,-4,-1.5,1,0,0,,,1,-4,-1.5,1,0,0,,0,3,3,1,1,,,,,,,,,,,,,,,,,,,,,,,,,,,,,,,,,,,,,,,,,,,,,,,,,,,,,,,,,,
,,,,,,,,,,,,,,,,,,,,,,,,,,,,,,,,,,,,,,,,,,,602d7e1c3ecd7d7db842933c,606c0c6fbecf1d7b67fb583e,2021-04-06_09h24.51.126,Colour_Similarity_Experiment,2020.2.10,Win32,60,6067542a4a25243f4d7d4fcf,17.02555195,16.75748936,16.71570888,16.7303125,16.7187543,16.7303125,,,,,,,,,,,,,,,,,,,5,PF,weak,3,-71,-38.5,1,0,0,response5disk_5,6,2,2.779855,14,-4.5,1,0,0,rectangle_8,14,-4.5,1,0,0,,,1,14,-4.5,1,0,0,,0,4,4,6,1,,,,,,,,,,,,,,,,,,,,,,,,,,,,,,,,,,,,,,,,,,,,,,,,,,,,,,,,,,
,,,,,,,,,,,,,,,,,,,,,,,,,,,,,,,,,,,,,,,,,,,602d7e1c3ecd7d7db842933c,606c0c6fbecf1d7b67fb583e,2021-04-06_09h24.51.126,Colour_Similarity_Experiment,2020.2.10,Win32,60,6067542a4a25243f4d7d4fcf,17.02555195,16.75748936,16.71570888,16.7303125,16.7187543,16.7303125,,,,,,,,,,,,,,,,,,,6,PF,weak,3,-69,-93.5,1,0,0,response5disk_5,7,3,1.62452,-5,1.5,1,0,0,rectangle_8,-5,1.5,1,0,0,,,1,-5,1.5,1,0,0,,0,5,5,5,1,,,,,,,,,,,,,,,,,,,,,,,,,,,,,,,,,,,,,,,,,,,,,,,,,,,,,,,,,,
,,,,,,,,,,,,,,,,,,,,,,,,,,,,,,,,,,,,,,,,,,,602d7e1c3ecd7d7db842933c,606c0c6fbecf1d7b67fb583e,2021-04-06_09h24.51.126,Colour_Similarity_Experiment,2020.2.10,Win32,60,6067542a4a25243f4d7d4fcf,17.02555195,16.75748936,16.71570888,16.7303125,16.7187543,16.7303125,,,,,,,,,,,,,,,,,,,4,PF,strong,3,-69,-32.5,1,0,0,response5disk_5,3,2,1.81134,-16,-3.5,1,0,0,rectangle_8,-16,-3.5,1,0,0,,,1,-16,-3.5,1,0,0,,0,6,6,0,1,,,,,,,,,,,,,,,,,,,,,,,,,,,,,,,,,,,,,,,,,,,,,,,,,,,,,,,,,,
,,,,,,,,,,,,,,,,,,,,,,,,,,,,,,,,,,,,,,,,,,,602d7e1c3ecd7d7db842933c,606c0c6fbecf1d7b67fb583e,2021-04-06_09h24.51.126,Colour_Similarity_Experiment,2020.2.10,Win32,60,6067542a4a25243f4d7d4fcf,17.02555195,16.75748936,16.71570888,16.7303125,16.7187543,16.7303125,,,,,,,,,,,,,,,,,,,,PF,weak,3,,,,,,,,4,2.459035,,,,,,,,,,,,,,,,,,,,,,,,,,space,5.06366,6,weak,17,-81.5,1,0,0,response3disk,9,1,-6,1.5,1,0,0,rectangle,-6,1.5,1,0,0,,0,0.002965,-6,1.5,1,0,0,0,0,0,45,1,0,,,,,,,,,,,,,,,,,,,,,
,,,,,,,,,,,,,,,,,,,,,,,,,,,,,,,,,,,,,,,,,,,602d7e1c3ecd7d7db842933c,606c0c6fbecf1d7b67fb583e,2021-04-06_09h24.51.126,Colour_Similarity_Experiment,2020.2.10,Win32,60,6067542a4a25243f4d7d4fcf,17.02555195,16.75748936,16.71570888,16.7303125,16.7187543,16.7303125,,,,,,,,,,,,,,,,,,,,PF,weak,3,,,,,,,,2,1.340255,,,,,,,,,,,,,,,,,,,,,,,,,,,,5,weak,-77,-53.5,1,0,0,response5disk,4,2,10,5.5,1,0,0,rectangle,10,5.5,1,0,0,,0,0.00025,10,5.5,1,0,0,0,1,1,54,1,0,,,,,,,,,,,,,,,,,,,,,
,,,,,,,,,,,,,,,,,,,,,,,,,,,,,,,,,,,,,,,,,,,602d7e1c3ecd7d7db842933c,606c0c6fbecf1d7b67fb583e,2021-04-06_09h24.51.126,Colour_Similarity_Experiment,2020.2.10,Win32,60,6067542a4a25243f4d7d4fcf,17.02555195,16.75748936,16.71570888,16.7303125,16.7187543,16.7303125,,,,,,,,,,,,,,,,,,,,PF,strong,3,,,,,,,,3,1.74229,,,,,,,,,,,,,,,,,,,,,,,,,,,,6,strong,-38,-75.5,1,0,0,response5disk,3,3,8,-2.5,1,0,0,rectangle,8,-2.5,1,0,0,,7,0.002375,8,-2.5,1,0,0,0,2,2,21,1,0,,,,,,,,,,,,,,,,,,,,,
,,,,,,,,,,,,,,,,,,,,,,,,,,,,,,,,,,,,,,,,,,,602d7e1c3ecd7d7db842933c,606c0c6fbecf1d7b67fb583e,2021-04-06_09h24.51.126,Colour_Similarity_Experiment,2020.2.10,Win32,60,6067542a4a25243f4d7d4fcf,17.02555195,16.75748936,16.71570888,16.7303125,16.7187543,16.7303125,,,,,,,,,,,,,,,,,,,,PF,strong,3,,,,,,,,5,1.97538,,,,,,,,,,,,,,,,,,,,,,,,,,,,8,strong,85,-41.5,1,0,0,response3disk,5,4,14,-2.5,1,0,0,rectangle,14,-2.5,1,0,0,,7,0.000355,14,-2.5,1,0,0,0,3,3,152,1,0,,,,,,,,,,,,,,,,,,,,,
,,,,,,,,,,,,,,,,,,,,,,,,,,,,,,,,,,,,,,,,,,,602d7e1c3ecd7d7db842933c,606c0c6fbecf1d7b67fb583e,2021-04-06_09h24.51.126,Colour_Similarity_Experiment,2020.2.10,Win32,60,6067542a4a25243f4d7d4fcf,17.02555195,16.75748936,16.71570888,16.7303125,16.7187543,16.7303125,,,,,,,,,,,,,,,,,,,,PF,strong,3,,,,,,,,4,2.627485,,,,,,,,,,,,,,,,,,,,,,,,,,,,1,strong,30,-90.5,1,0,0,response3disk,4,5,-10,3.5,1,0,0,rectangle,-10,3.5,1,0,0,,7,0.000405,-10,3.5,1,0,0,0,4,4,135,1,0,,,,,,,,,,,,,,,,,,,,,
,,,,,,,,,,,,,,,,,,,,,,,,,,,,,,,,,,,,,,,,,,,602d7e1c3ecd7d7db842933c,606c0c6fbecf1d7b67fb583e,2021-04-06_09h24.51.126,Colour_Similarity_Experiment,2020.2.10,Win32,60,6067542a4a25243f4d7d4fcf,17.02555195,16.75748936,16.71570888,16.7303125,16.7187543,16.7303125,,,,,,,,,,,,,,,,,,,,PF,strong,3,,,,,,,,2,1.991985,,,,,,,,,,,,,,,,,,,,,,,,,,,,7,strong,-73,-38.5,1,0,0,response5disk,5,6,2,5.5,1,0,0,rectangle,2,5.5,1,0,0,,0,0.00207,2,5.5,1,0,0,0,5,5,156,1,0,,,,,,,,,,,,,,,,,,,,,
,,,,,,,,,,,,,,,,,,,,,,,,,,,,,,,,,,,,,,,,,,,602d7e1c3ecd7d7db842933c,606c0c6fbecf1d7b67fb583e,2021-04-06_09h24.51.126,Colour_Similarity_Experiment,2020.2.10,Win32,60,6067542a4a25243f4d7d4fcf,17.02555195,16.75748936,16.71570888,16.7303125,16.7187543,16.7303125,,,,,,,,,,,,,,,,,,,,PF,strong,3,,,,,,,,2,1.73988,,,,,,,,,,,,,,,,,,,,,,,,,,,,8,strong,-81,-37.5,1,0,0,response5disk,8,7,10,-2.5,1,0,0,rectangle,10,-2.5,1,0,0,,2,0.001325,10,-2.5,1,0,0,0,6,6,48,1,0,,,,,,,,,,,,,,,,,,,,,
,,,,,,,,,,,,,,,,,,,,,,,,,,,,,,,,,,,,,,,,,,,602d7e1c3ecd7d7db842933c,606c0c6fbecf1d7b67fb583e,2021-04-06_09h24.51.126,Colour_Similarity_Experiment,2020.2.10,Win32,60,6067542a4a25243f4d7d4fcf,17.02555195,16.75748936,16.71570888,16.7303125,16.7187543,16.7303125,,,,,,,,,,,,,,,,,,,,PF,weak,3,,,,,,,,4,2.24514,,,,,,,,,,,,,,,,,,,,,,,,,,,,5,weak,28,-85.5,1,0,0,response3disk,3,8,2,10.5,1,0,0,rectangle,2,10.5,1,0,0,,4,0.001575,2,10.5,1,0,0,0,7,7,109,1,0,,,,,,,,,,,,,,,,,,,,,
,,,,,,,,,,,,,,,,,,,,,,,,,,,,,,,,,,,,,,,,,,,602d7e1c3ecd7d7db842933c,606c0c6fbecf1d7b67fb583e,2021-04-06_09h24.51.126,Colour_Similarity_Experiment,2020.2.10,Win32,60,6067542a4a25243f4d7d4fcf,17.02555195,16.75748936,16.71570888,16.7303125,16.7187543,16.7303125,,,,,,,,,,,,,,,,,,,,PF,strong,3,,,,,,,,1,1.44055,,,,,,,,,,,,,,,,,,,,,,,,,,,,2,strong,-70,14.5,1,0,0,response7disk,2,9,31,2.5,1,0,0,rectangle,31,2.5,1,0,0,,4,0.000195,31,2.5,1,0,0,0,8,8,142,1,0,,,,,,,,,,,,,,,,,,,,,
,,,,,,,,,,,,,,,,,,,,,,,,,,,,,,,,,,,,,,,,,,,602d7e1c3ecd7d7db842933c,606c0c6fbecf1d7b67fb583e,2021-04-06_09h24.51.126,Colour_Similarity_Experiment,2020.2.10,Win32,60,6067542a4a25243f4d7d4fcf,17.02555195,16.75748936,16.71570888,16.7303125,16.7187543,16.7303125,,,,,,,,,,,,,,,,,,,,PF,weak,3,,,,,,,,3,2.94705,,,,,,,,,,,,,,,,,,,,,,,,,,,,7,weak,-26,-89.5,1,0,0,response5disk,8,10,5,8.5,1,0,0,rectangle,5,8.5,1,0,0,,3,0.001705,5,8.5,1,0,0,0,9,9,140,1,0,,,,,,,,,,,,,,,,,,,,,
,,,,,,,,,,,,,,,,,,,,,,,,,,,,,,,,,,,,,,,,,,,602d7e1c3ecd7d7db842933c,606c0c6fbecf1d7b67fb583e,2021-04-06_09h24.51.126,Colour_Similarity_Experiment,2020.2.10,Win32,60,6067542a4a25243f4d7d4fcf,17.02555195,16.75748936,16.71570888,16.7303125,16.7187543,16.7303125,,,,,,,,,,,,,,,,,,,,PF,strong,3,,,,,,,,3,2.24223,,,,,,,,,,,,,,,,,,,,,,,,,,,,9,strong,-46,-85.5,1,0,0,response5disk,1,11,4,-1.5,1,0,0,rectangle,4,-1.5,1,0,0,,0,0.001555,4,-1.5,1,0,0,0,10,10,111,1,0,,,,,,,,,,,,,,,,,,,,,
,,,,,,,,,,,,,,,,,,,,,,,,,,,,,,,,,,,,,,,,,,,602d7e1c3ecd7d7db842933c,606c0c6fbecf1d7b67fb583e,2021-04-06_09h24.51.126,Colour_Similarity_Experiment,2020.2.10,Win32,60,6067542a4a25243f4d7d4fcf,17.02555195,16.75748936,16.71570888,16.7303125,16.7187543,16.7303125,,,,,,,,,,,,,,,,,,,,PF,strong,3,,,,,,,,2,1.874955,,,,,,,,,,,,,,,,,,,,,,,,,,,,3,strong,-75,-39.5,1,0,0,response5disk,4,12,19,4.5,1,0,0,rectangle,19,4.5,1,0,0,,7,0.001865,19,4.5,1,0,0,0,11,11,110,1,0,,,,,,,,,,,,,,,,,,,,,
,,,,,,,,,,,,,,,,,,,,,,,,,,,,,,,,,,,,,,,,,,,602d7e1c3ecd7d7db842933c,606c0c6fbecf1d7b67fb583e,2021-04-06_09h24.51.126,Colour_Similarity_Experiment,2020.2.10,Win32,60,6067542a4a25243f4d7d4fcf,17.02555195,16.75748936,16.71570888,16.7303125,16.7187543,16.7303125,,,,,,,,,,,,,,,,,,,,PF,strong,3,,,,,,,,7,3.49699,,,,,,,,,,,,,,,,,,,,,,,,,,,,6,strong,40,71.5,1,0,0,response1disk,1,13,-13,11.5,1,0,0,rectangle,-13,11.5,1,0,0,,1,0.001525,-13,11.5,1,0,0,0,12,12,5,1,0,,,,,,,,,,,,,,,,,,,,,
,,,,,,,,,,,,,,,,,,,,,,,,,,,,,,,,,,,,,,,,,,,602d7e1c3ecd7d7db842933c,606c0c6fbecf1d7b67fb583e,2021-04-06_09h24.51.126,Colour_Similarity_Experiment,2020.2.10,Win32,60,6067542a4a25243f4d7d4fcf,17.02555195,16.75748936,16.71570888,16.7303125,16.7187543,16.7303125,,,,,,,,,,,,,,,,,,,,PF,weak,3,,,,,,,,7,1.321815,,,,,,,,,,,,,,,,,,,,,,,,,,,,7,weak,44,73.5,1,0,0,response1disk,1,14,-2,-1.5,1,0,0,rectangle,-2,-1.5,1,0,0,,4,0.002145,-2,-1.5,1,0,0,0,13,13,53,1,0,,,,,,,,,,,,,,,,,,,,,
,,,,,,,,,,,,,,,,,,,,,,,,,,,,,,,,,,,,,,,,,,,602d7e1c3ecd7d7db842933c,606c0c6fbecf1d7b67fb583e,2021-04-06_09h24.51.126,Colour_Similarity_Experiment,2020.2.10,Win32,60,6067542a4a25243f4d7d4fcf,17.02555195,16.75748936,16.71570888,16.7303125,16.7187543,16.7303125,,,,,,,,,,,,,,,,,,,,PF,weak,3,,,,,,,,1,0.99011,,,,,,,,,,,,,,,,,,,,,,,,,,,,9,weak,-80,38.5,1,0,0,response7disk,9,15,-4,-2.5,1,0,0,rectangle,-4,-2.5,1,0,0,,1,0.001635,-4,-2.5,1,0,0,0,14,14,106,1,0,,,,,,,,,,,,,,,,,,,,,
,,,,,,,,,,,,,,,,,,,,,,,,,,,,,,,,,,,,,,,,,,,602d7e1c3ecd7d7db842933c,606c0c6fbecf1d7b67fb583e,2021-04-06_09h24.51.126,Colour_Similarity_Experiment,2020.2.10,Win32,60,6067542a4a25243f4d7d4fcf,17.02555195,16.75748936,16.71570888,16.7303125,16.7187543,16.7303125,,,,,,,,,,,,,,,,,,,,PF,strong,3,,,,,,,,4,1.808525,,,,,,,,,,,,,,,,,,,,,,,,,,,,7,strong,33,-68.5,1,0,0,response3disk,4,16,3,5.5,1,0,0,rectangle,3,5.5,1,0,0,,2,0.001235,3,5.5,1,0,0,0,15,15,158,1,0,,,,,,,,,,,,,,,,,,,,,
,,,,,,,,,,,,,,,,,,,,,,,,,,,,,,,,,,,,,,,,,,,602d7e1c3ecd7d7db842933c,606c0c6fbecf1d7b67fb583e,2021-04-06_09h24.51.126,Colour_Similarity_Experiment,2020.2.10,Win32,60,6067542a4a25243f4d7d4fcf,17.02555195,16.75748936,16.71570888,16.7303125,16.7187543,16.7303125,,,,,,,,,,,,,,,,,,,,PF,strong,3,,,,,,,,5,3.280525,,,,,,,,,,,,,,,,,,,,,,,,,,,,2,strong,74,-50.5,1,0,0,response3disk,4,17,5,-0.5,1,0,0,rectangle,5,-0.5,1,0,0,,4,0.00163,5,-0.5,1,0,0,0,16,16,145,1,0,,,,,,,,,,,,,,,,,,,,,
,,,,,,,,,,,,,,,,,,,,,,,,,,,,,,,,,,,,,,,,,,,602d7e1c3ecd7d7db842933c,606c0c6fbecf1d7b67fb583e,2021-04-06_09h24.51.126,Colour_Similarity_Experiment,2020.2.10,Win32,60,6067542a4a25243f4d7d4fcf,17.02555195,16.75748936,16.71570888,16.7303125,16.7187543,16.7303125,,,,,,,,,,,,,,,,,,,,PF,strong,3,,,,,,,,2,2.5775,,,,,,,,,,,,,,,,,,,,,,,,,,,,6,strong,-60,-38.5,1,0,0,response5disk,4,18,-1,-7.5,1,0,0,rectangle,-1,-7.5,1,0,0,,6,0.003205,-1,-7.5,1,0,0,0,17,17,56,1,0,,,,,,,,,,,,,,,,,,,,,
,,,,,,,,,,,,,,,,,,,,,,,,,,,,,,,,,,,,,,,,,,,602d7e1c3ecd7d7db842933c,606c0c6fbecf1d7b67fb583e,2021-04-06_09h24.51.126,Colour_Similarity_Experiment,2020.2.10,Win32,60,6067542a4a25243f4d7d4fcf,17.02555195,16.75748936,16.71570888,16.7303125,16.7187543,16.7303125,,,,,,,,,,,,,,,,,,,,PF,strong,3,,,,,,,,5,1.79103,,,,,,,,,,,,,,,,,,,,,,,,,,,,3,strong,62,-45.5,1,0,0,response3disk,1,19,6,-4.5,1,0,0,rectangle,6,-4.5,1,0,0,,0,0.000755,6,-4.5,1,0,0,0,18,18,125,1,0,,,,,,,,,,,,,,,,,,,,,
,,,,,,,,,,,,,,,,,,,,,,,,,,,,,,,,,,,,,,,,,,,602d7e1c3ecd7d7db842933c,606c0c6fbecf1d7b67fb583e,2021-04-06_09h24.51.126,Colour_Similarity_Experiment,2020.2.10,Win32,60,6067542a4a25243f4d7d4fcf,17.02555195,16.75748936,16.71570888,16.7303125,16.7187543,16.7303125,,,,,,,,,,,,,,,,,,,,PF,strong,3,,,,,,,,7,1.43928,,,,,,,,,,,,,,,,,,,,,,,,,,,,1,strong,39,84.5,1,0,0,response1disk,5,20,14,0.5,1,0,0,rectangle,14,0.5,1,0,0,,3,0.00192,14,0.5,1,0,0,0,19,19,82,1,0,,,,,,,,,,,,,,,,,,,,,
,,,,,,,,,,,,,,,,,,,,,,,,,,,,,,,,,,,,,,,,,,,602d7e1c3ecd7d7db842933c,606c0c6fbecf1d7b67fb583e,2021-04-06_09h24.51.126,Colour_Similarity_Experiment,2020.2.10,Win32,60,6067542a4a25243f4d7d4fcf,17.02555195,16.75748936,16.71570888,16.7303125,16.7187543,16.7303125,,,,,,,,,,,,,,,,,,,,PF,weak,3,,,,,,,,1,1.840765,,,,,,,,,,,,,,,,,,,,,,,,,,,,4,weak,-70,49.5,1,0,0,response7disk,4,21,-11,-1.5,1,0,0,rectangle,-11,-1.5,1,0,0,,1,0.0013,-11,-1.5,1,0,0,0,20,20,70,1,0,,,,,,,,,,,,,,,,,,,,,
,,,,,,,,,,,,,,,,,,,,,,,,,,,,,,,,,,,,,,,,,,,602d7e1c3ecd7d7db842933c,606c0c6fbecf1d7b67fb583e,2021-04-06_09h24.51.126,Colour_Similarity_Experiment,2020.2.10,Win32,60,6067542a4a25243f4d7d4fcf,17.02555195,16.75748936,16.71570888,16.7303125,16.7187543,16.7303125,,,,,,,,,,,,,,,,,,,,PF,weak,3,,,,,,,,7,1.672445,,,,,,,,,,,,,,,,,,,,,,,,,,,,8,weak,40,62.5,1,0,0,response1disk,3,22,0,-1.5,1,0,0,rectangle,0,-1.5,1,0,0,,7,0.00162,0,-1.5,1,0,0,0,21,21,71,1,0,,,,,,,,,,,,,,,,,,,,,
,,,,,,,,,,,,,,,,,,,,,,,,,,,,,,,,,,,,,,,,,,,602d7e1c3ecd7d7db842933c,606c0c6fbecf1d7b67fb583e,2021-04-06_09h24.51.126,Colour_Similarity_Experiment,2020.2.10,Win32,60,6067542a4a25243f4d7d4fcf,17.02555195,16.75748936,16.71570888,16.7303125,16.7187543,16.7303125,,,,,,,,,,,,,,,,,,,,PF,weak,3,,,,,,,,2,1.974265,,,,,,,,,,,,,,,,,,,,,,,,,,,,5,weak,-64,-39.5,1,0,0,response5disk,6,23,-15,-0.5,1,0,0,rectangle,-15,-0.5,1,0,0,,6,0.001735,-15,-0.5,1,0,0,0,22,22,103,1,0,,,,,,,,,,,,,,,,,,,,,
,,,,,,,,,,,,,,,,,,,,,,,,,,,,,,,,,,,,,,,,,,,602d7e1c3ecd7d7db842933c,606c0c6fbecf1d7b67fb583e,2021-04-06_09h24.51.126,Colour_Similarity_Experiment,2020.2.10,Win32,60,6067542a4a25243f4d7d4fcf,17.02555195,16.75748936,16.71570888,16.7303125,16.7187543,16.7303125,,,,,,,,,,,,,,,,,,,,PF,strong,3,,,,,,,,3,2.309895,,,,,,,,,,,,,,,,,,,,,,,,,,,,4,strong,-28,-65.5,1,0,0,response5disk,8,24,4,-2.5,1,0,0,rectangle,4,-2.5,1,0,0,,1,0.00138,4,-2.5,1,0,0,0,23,23,35,1,0,,,,,,,,,,,,,,,,,,,,,
,,,,,,,,,,,,,,,,,,,,,,,,,,,,,,,,,,,,,,,,,,,602d7e1c3ecd7d7db842933c,606c0c6fbecf1d7b67fb583e,2021-04-06_09h24.51.126,Colour_Similarity_Experiment,2020.2.10,Win32,60,6067542a4a25243f4d7d4fcf,17.02555195,16.75748936,16.71570888,16.7303125,16.7187543,16.7303125,,,,,,,,,,,,,,,,,,,,PF,strong,3,,,,,,,,6,1.623165,,,,,,,,,,,,,,,,,,,,,,,,,,,,6,strong,68,36.5,1,0,0,response1disk,9,25,-3,-0.5,1,0,0,rectangle,-95,-55.5,1,0,0,,2,5.7028,9,8.5,1,0,0,0,24,24,160,1,1,response5disk_3,rectangle,,,,,,,,,,,,,,,,,,,
,,,,,,,,,,,,,,,,,,,,,,,,,,,,,,,,,,,,,,,,,,,602d7e1c3ecd7d7db842933c,606c0c6fbecf1d7b67fb583e,2021-04-06_09h24.51.126,Colour_Similarity_Experiment,2020.2.10,Win32,60,6067542a4a25243f4d7d4fcf,17.02555195,16.75748936,16.71570888,16.7303125,16.7187543,16.7303125,,,,,,,,,,,,,,,,,,,,PF,weak,3,,,,,,,,1,1.77441,,,,,,,,,,,,,,,,,,,,,,,,,,,,3,weak,-73,35.5,1,0,0,response7disk,2,26,1,-0.5,1,0,0,rectangle,57,93.5,1,0,0,7,7,2.191355,-5,-12.5,1,0,0,0,25,25,36,1,1,response1disk_3,rectangle,,,,,,,,,,,,,,,,,,,
,,,,,,,,,,,,,,,,,,,,,,,,,,,,,,,,,,,,,,,,,,,602d7e1c3ecd7d7db842933c,606c0c6fbecf1d7b67fb583e,2021-04-06_09h24.51.126,Colour_Similarity_Experiment,2020.2.10,Win32,60,6067542a4a25243f4d7d4fcf,17.02555195,16.75748936,16.71570888,16.7303125,16.7187543,16.7303125,,,,,,,,,,,,,,,,,,,,PF,strong,3,,,,,,,,4,2.612895,,,,,,,,,,,,,,,,,,,,,,,,,,,,5,strong,34,-81.5,1,0,0,response3disk,5,27,2,-3.5,1,0,0,rectangle,2,-3.5,1,0,0,7,0,0.0023,2,-3.5,1,0,0,0,26,26,19,1,0,,,,,,,,,,,,,,,,,,,,,
,,,,,,,,,,,,,,,,,,,,,,,,,,,,,,,,,,,,,,,,,,,602d7e1c3ecd7d7db842933c,606c0c6fbecf1d7b67fb583e,2021-04-06_09h24.51.126,Colour_Similarity_Experiment,2020.2.10,Win32,60,6067542a4a25243f4d7d4fcf,17.02555195,16.75748936,16.71570888,16.7303125,16.7187543,16.7303125,,,,,,,,,,,,,,,,,,,,PF,weak,3,,,,,,,,3,1.538845,,,,,,,,,,,,,,,,,,,,,,,,,,,,9,weak,-31,-77.5,1,0,0,response5disk,1,28,6,5.5,1,0,0,rectangle,6,5.5,1,0,0,7,2,0.00154,6,5.5,1,0,0,0,27,27,74,1,0,,,,,,,,,,,,,,,,,,,,,
,,,,,,,,,,,,,,,,,,,,,,,,,,,,,,,,,,,,,,,,,,,602d7e1c3ecd7d7db842933c,606c0c6fbecf1d7b67fb583e,2021-04-06_09h24.51.126,Colour_Similarity_Experiment,2020.2.10,Win32,60,6067542a4a25243f4d7d4fcf,17.02555195,16.75748936,16.71570888,16.7303125,16.7187543,16.7303125,,,,,,,,,,,,,,,,,,,,PF,strong,3,,,,,,,,7,1.48932,,,,,,,,,,,,,,,,,,,,,,,,,,,,1,strong,45,48.5,1,0,0,response1disk,6,29,-10,-4.5,1,0,0,rectangle,-10,-4.5,1,0,0,7,1,0.002055,-10,-4.5,1,0,0,0,28,28,58,1,0,,,,,,,,,,,,,,,,,,,,,
,,,,,,,,,,,,,,,,,,,,,,,,,,,,,,,,,,,,,,,,,,,602d7e1c3ecd7d7db842933c,606c0c6fbecf1d7b67fb583e,2021-04-06_09h24.51.126,Colour_Similarity_Experiment,2020.2.10,Win32,60,6067542a4a25243f4d7d4fcf,17.02555195,16.75748936,16.71570888,16.7303125,16.7187543,16.7303125,,,,,,,,,,,,,,,,,,,,PF,weak,3,,,,,,,,7,2.057785,,,,,,,,,,,,,,,,,,,,,,,,,,,,8,weak,43,62.5,1,0,0,response1disk,1,30,14,-1.5,1,0,0,rectangle,14,-1.5,1,0,0,7,5,0.001685,14,-1.5,1,0,0,0,29,29,57,1,0,,,,,,,,,,,,,,,,,,,,,
,,,,,,,,,,,,,,,,,,,,,,,,,,,,,,,,,,,,,,,,,,,602d7e1c3ecd7d7db842933c,606c0c6fbecf1d7b67fb583e,2021-04-06_09h24.51.126,Colour_Similarity_Experiment,2020.2.10,Win32,60,6067542a4a25243f4d7d4fcf,17.02555195,16.75748936,16.71570888,16.7303125,16.7187543,16.7303125,,,,,,,,,,,,,,,,,,,,PF,strong,3,,,,,,,,7,1.17168,,,,,,,,,,,,,,,,,,,,,,,,,,,,8,strong,33,69.5,1,0,0,response1disk,4,31,14,-8.5,1,0,0,rectangle,14,-8.5,1,0,0,7,1,0.00147,14,-8.5,1,0,0,0,30,30,88,1,0,,,,,,,,,,,,,,,,,,,,,
,,,,,,,,,,,,,,,,,,,,,,,,,,,,,,,,,,,,,,,,,,,602d7e1c3ecd7d7db842933c,606c0c6fbecf1d7b67fb583e,2021-04-06_09h24.51.126,Colour_Similarity_Experiment,2020.2.10,Win32,60,6067542a4a25243f4d7d4fcf,17.02555195,16.75748936,16.71570888,16.7303125,16.7187543,16.7303125,,,,,,,,,,,,,,,,,,,,PF,weak,3,,,,,,,,7,1.25542,,,,,,,,,,,,,,,,,,,,,,,,,,,,7,weak,47,74.5,1,0,0,response1disk,3,32,15,4.5,1,0,0,rectangle,15,4.5,1,0,0,7,6,0.00208,15,4.5,1,0,0,0,31,31,81,1,0,,,,,,,,,,,,,,,,,,,,,
,,,,,,,,,,,,,,,,,,,,,,,,,,,,,,,,,,,,,,,,,,,602d7e1c3ecd7d7db842933c,606c0c6fbecf1d7b67fb583e,2021-04-06_09h24.51.126,Colour_Similarity_Experiment,2020.2.10,Win32,60,6067542a4a25243f4d7d4fcf,17.02555195,16.75748936,16.71570888,16.7303125,16.7187543,16.7303125,,,,,,,,,,,,,,,,,,,,PF,strong,3,,,,,,,,6,1.539645,,,,,,,,,,,,,,,,,,,,,,,,,,,,4,strong,71,38.5,1,0,0,response1disk,1,33,-7,-2.5,1,0,0,rectangle,-7,-2.5,1,0,0,7,1,0.001625,-7,-2.5,1,0,0,0,32,32,102,1,0,,,,,,,,,,,,,,,,,,,,,
,,,,,,,,,,,,,,,,,,,,,,,,,,,,,,,,,,,,,,,,,,,602d7e1c3ecd7d7db842933c,606c0c6fbecf1d7b67fb583e,2021-04-06_09h24.51.126,Colour_Similarity_Experiment,2020.2.10,Win32,60,6067542a4a25243f4d7d4fcf,17.02555195,16.75748936,16.71570888,16.7303125,16.7187543,16.7303125,,,,,,,,,,,,,,,,,,,,PF,strong,3,,,,,,,,6,1.23877,,,,,,,,,,,,,,,,,,,,,,,,,,,,8,strong,64,33.5,1,0,0,response1disk,6,34,-8,-2.5,1,0,0,rectangle,-8,-2.5,1,0,0,7,7,0.00155,-8,-2.5,1,0,0,0,33,33,37,1,0,,,,,,,,,,,,,,,,,,,,,
,,,,,,,,,,,,,,,,,,,,,,,,,,,,,,,,,,,,,,,,,,,602d7e1c3ecd7d7db842933c,606c0c6fbecf1d7b67fb583e,2021-04-06_09h24.51.126,Colour_Similarity_Experiment,2020.2.10,Win32,60,6067542a4a25243f4d7d4fcf,17.02555195,16.75748936,16.71570888,16.7303125,16.7187543,16.7303125,,,,,,,,,,,,,,,,,,,,PF,strong,3,,,,,,,,2,1.456865,,,,,,,,,,,,,,,,,,,,,,,,,,,,5,strong,-64,-40.5,1,0,0,response5disk,1,35,-3,0.5,1,0,0,rectangle,-3,0.5,1,0,0,7,4,0.002025,-3,0.5,1,0,0,0,34,34,131,1,0,,,,,,,,,,,,,,,,,,,,,
,,,,,,,,,,,,,,,,,,,,,,,,,,,,,,,,,,,,,,,,,,,602d7e1c3ecd7d7db842933c,606c0c6fbecf1d7b67fb583e,2021-04-06_09h24.51.126,Colour_Similarity_Experiment,2020.2.10,Win32,60,6067542a4a25243f4d7d4fcf,17.02555195,16.75748936,16.71570888,16.7303125,16.7187543,16.7303125,,,,,,,,,,,,,,,,,,,,PF,weak,3,,,,,,,,7,1.17206,,,,,,,,,,,,,,,,,,,,,,,,,,,,9,weak,38,79.5,1,0,0,response1disk,3,36,9,-2.5,1,0,0,rectangle,9,-2.5,1,0,0,7,6,0.001745,9,-2.5,1,0,0,0,35,35,119,1,0,,,,,,,,,,,,,,,,,,,,,
,,,,,,,,,,,,,,,,,,,,,,,,,,,,,,,,,,,,,,,,,,,602d7e1c3ecd7d7db842933c,606c0c6fbecf1d7b67fb583e,2021-04-06_09h24.51.126,Colour_Similarity_Experiment,2020.2.10,Win32,60,6067542a4a25243f4d7d4fcf,17.02555195,16.75748936,16.71570888,16.7303125,16.7187543,16.7303125,,,,,,,,,,,,,,,,,,,,PF,strong,3,,,,,,,,5,2.71443,,,,,,,,,,,,,,,,,,,,,,,,,,,,1,strong,84,-24.5,1,0,0,response3disk,2,37,-8,6.5,1,0,0,rectangle,-8,6.5,1,0,0,7,1,0.001365,-8,6.5,1,0,0,0,36,36,2,1,0,,,,,,,,,,,,,,,,,,,,,
,,,,,,,,,,,,,,,,,,,,,,,,,,,,,,,,,,,,,,,,,,,602d7e1c3ecd7d7db842933c,606c0c6fbecf1d7b67fb583e,2021-04-06_09h24.51.126,Colour_Similarity_Experiment,2020.2.10,Win32,60,6067542a4a25243f4d7d4fcf,17.02555195,16.75748936,16.71570888,16.7303125,16.7187543,16.7303125,,,,,,,,,,,,,,,,,,,,PF,weak,3,,,,,,,,7,1.522965,,,,,,,,,,,,,,,,,,,,,,,,,,,,5,weak,37,80.5,1,0,0,response1disk,1,38,-2.5,0.5,1,0,0,rectangle,-98.5,38.5,1,0,0,1,1,2.02187,-2.5,1.5,1,0,0,0,37,37,159,1,1,response7disk_3,rectangle,,,,,,,,,,,,,,,,,,,
,,,,,,,,,,,,,,,,,,,,,,,,,,,,,,,,,,,,,,,,,,,602d7e1c3ecd7d7db842933c,606c0c6fbecf1d7b67fb583e,2021-04-06_09h24.51.126,Colour_Similarity_Experiment,2020.2.10,Win32,60,6067542a4a25243f4d7d4fcf,17.02555195,16.75748936,16.71570888,16.7303125,16.7187543,16.7303125,,,,,,,,,,,,,,,,,,,,PF,weak,3,,,,,,,,6,5.65315,,,,,,,,,,,,,,,,,,,,,,,,,,,,3,weak,92,38.5,1,0,0,response1disk,9,39,2,2.5,1,0,0,rectangle,2,2.5,1,0,0,1,6,0.001455,2,2.5,1,0,0,0,38,38,79,1,0,,,,,,,,,,,,,,,,,,,,,
,,,,,,,,,,,,,,,,,,,,,,,,,,,,,,,,,,,,,,,,,,,602d7e1c3ecd7d7db842933c,606c0c6fbecf1d7b67fb583e,2021-04-06_09h24.51.126,Colour_Similarity_Experiment,2020.2.10,Win32,60,6067542a4a25243f4d7d4fcf,17.02555195,16.75748936,16.71570888,16.7303125,16.7187543,16.7303125,,,,,,,,,,,,,,,,,,,,PF,strong,3,,,,,,,,7,3.194655,,,,,,,,,,,,,,,,,,,,,,,,,,,,9,strong,59,79.5,1,0,0,response1disk,6,40,10,-8.5,1,0,0,rectangle,10,-8.5,1,0,0,1,2,0.00154,10,-8.5,1,0,0,0,39,39,117,1,0,,,,,,,,,,,,,,,,,,,,,
,,,,,,,,,,,,,,,,,,,,,,,,,,,,,,,,,,,,,,,,,,,602d7e1c3ecd7d7db842933c,606c0c6fbecf1d7b67fb583e,2021-04-06_09h24.51.126,Colour_Similarity_Experiment,2020.2.10,Win32,60,6067542a4a25243f4d7d4fcf,17.02555195,16.75748936,16.71570888,16.7303125,16.7187543,16.7303125,,,,,,,,,,,,,,,,,,,,PF,weak,3,,,,,,,,6,1.63935,,,,,,,,,,,,,,,,,,,,,,,,,,,,3,weak,103,44.5,1,0,0,response1disk,1,41,11,-2.5,1,0,0,rectangle,11,-2.5,1,0,0,1,2,0.00029,11,-2.5,1,0,0,0,40,40,96,1,0,,,,,,,,,,,,,,,,,,,,,
,,,,,,,,,,,,,,,,,,,,,,,,,,,,,,,,,,,,,,,,,,,602d7e1c3ecd7d7db842933c,606c0c6fbecf1d7b67fb583e,2021-04-06_09h24.51.126,Colour_Similarity_Experiment,2020.2.10,Win32,60,6067542a4a25243f4d7d4fcf,17.02555195,16.75748936,16.71570888,16.7303125,16.7187543,16.7303125,,,,,,,,,,,,,,,,,,,,PF,weak,3,,,,,,,,6,1.13976,,,,,,,,,,,,,,,,,,,,,,,,,,,,9,weak,85,44.5,1,0,0,response1disk,4,42,-2,3.5,1,0,0,rectangle,-2,3.5,1,0,0,1,0,0.00184,-2,3.5,1,0,0,0,41,41,114,1,0,,,,,,,,,,,,,,,,,,,,,
,,,,,,,,,,,,,,,,,,,,,,,,,,,,,,,,,,,,,,,,,,,602d7e1c3ecd7d7db842933c,606c0c6fbecf1d7b67fb583e,2021-04-06_09h24.51.126,Colour_Similarity_Experiment,2020.2.10,Win32,60,6067542a4a25243f4d7d4fcf,17.02555195,16.75748936,16.71570888,16.7303125,16.7187543,16.7303125,,,,,,,,,,,,,,,,,,,,PF,weak,3,,,,,,,,4,2.02643,,,,,,,,,,,,,,,,,,,,,,,,,,,,7,weak,37,-83.5,1,0,0,response3disk,9,43,13,0.5,1,0,0,rectangle,13,0.5,1,0,0,1,3,0.0013,13,0.5,1,0,0,0,42,42,10,1,0,,,,,,,,,,,,,,,,,,,,,
,,,,,,,,,,,,,,,,,,,,,,,,,,,,,,,,,,,,,,,,,,,602d7e1c3ecd7d7db842933c,606c0c6fbecf1d7b67fb583e,2021-04-06_09h24.51.126,Colour_Similarity_Experiment,2020.2.10,Win32,60,6067542a4a25243f4d7d4fcf,17.02555195,16.75748936,16.71570888,16.7303125,16.7187543,16.7303125,,,,,,,,,,,,,,,,,,,,PF,weak,3,,,,,,,,5,2.409325,,,,,,,,,,,,,,,,,,,,,,,,,,,,2,weak,86,-32.5,1,0,0,response3disk,6,44,3,6.5,1,0,0,rectangle,3,6.5,1,0,0,1,3,0.00018,3,6.5,1,0,0,0,43,43,113,1,0,,,,,,,,,,,,,,,,,,,,,
,,,,,,,,,,,,,,,,,,,,,,,,,,,,,,,,,,,,,,,,,,,602d7e1c3ecd7d7db842933c,606c0c6fbecf1d7b67fb583e,2021-04-06_09h24.51.126,Colour_Similarity_Experiment,2020.2.10,Win32,60,6067542a4a25243f4d7d4fcf,17.02555195,16.75748936,16.71570888,16.7303125,16.7187543,16.7303125,,,,,,,,,,,,,,,,,,,,PF,strong,3,,,,,,,,7,1.47245,,,,,,,,,,,,,,,,,,,,,,,,,,,,9,strong,53,69.5,1,0,0,response1disk,3,45,0,4.5,1,0,0,rectangle,0,4.5,1,0,0,1,0,0.001815,0,4.5,1,0,0,0,44,44,141,1,0,,,,,,,,,,,,,,,,,,,,,
,,,,,,,,,,,,,,,,,,,,,,,,,,,,,,,,,,,,,,,,,,,602d7e1c3ecd7d7db842933c,606c0c6fbecf1d7b67fb583e,2021-04-06_09h24.51.126,Colour_Similarity_Experiment,2020.2.10,Win32,60,6067542a4a25243f4d7d4fcf,17.02555195,16.75748936,16.71570888,16.7303125,16.7187543,16.7303125,,,,,,,,,,,,,,,,,,,,PF,weak,3,,,,,,,,4,2.74559,,,,,,,,,,,,,,,,,,,,,,,,,,,,6,weak,43,-82.5,1,0,0,response3disk,3,46,0,3.5,1,0,0,rectangle,0,3.5,1,0,0,1,3,0.001405,0,3.5,1,0,0,0,45,45,26,1,0,,,,,,,,,,,,,,,,,,,,,
,,,,,,,,,,,,,,,,,,,,,,,,,,,,,,,,,,,,,,,,,,,602d7e1c3ecd7d7db842933c,606c0c6fbecf1d7b67fb583e,2021-04-06_09h24.51.126,Colour_Similarity_Experiment,2020.2.10,Win32,60,6067542a4a25243f4d7d4fcf,17.02555195,16.75748936,16.71570888,16.7303125,16.7187543,16.7303125,,,,,,,,,,,,,,,,,,,,PF,strong,3,,,,,,,,6,1.73958,,,,,,,,,,,,,,,,,,,,,,,,,,,,4,strong,62,32.5,1,0,0,response1disk,7,47,8,2.5,1,0,0,rectangle,8,2.5,1,0,0,1,5,0.002005,8,2.5,1,0,0,0,46,46,87,1,0,,,,,,,,,,,,,,,,,,,,,
,,,,,,,,,,,,,,,,,,,,,,,,,,,,,,,,,,,,,,,,,,,602d7e1c3ecd7d7db842933c,606c0c6fbecf1d7b67fb583e,2021-04-06_09h24.51.126,Colour_Similarity_Experiment,2020.2.10,Win32,60,6067542a4a25243f4d7d4fcf,17.02555195,16.75748936,16.71570888,16.7303125,16.7187543,16.7303125,,,,,,,,,,,,,,,,,,,,PF,weak,3,,,,,,,,3,2.442795,,,,,,,,,,,,,,,,,,,,,,,,,,,,9,weak,-27,-83.5,1,0,0,response5disk,7,48,3,-0.5,1,0,0,rectangle,3,-0.5,1,0,0,1,0,0.001495,3,-0.5,1,0,0,0,47,47,121,1,0,,,,,,,,,,,,,,,,,,,,,
,,,,,,,,,,,,,,,,,,,,,,,,,,,,,,,,,,,,,,,,,,,602d7e1c3ecd7d7db842933c,606c0c6fbecf1d7b67fb583e,2021-04-06_09h24.51.126,Colour_Similarity_Experiment,2020.2.10,Win32,60,6067542a4a25243f4d7d4fcf,17.02555195,16.75748936,16.71570888,16.7303125,16.7187543,16.7303125,,,,,,,,,,,,,,,,,,,,PF,strong,3,,,,,,,,4,1.49396,,,,,,,,,,,,,,,,,,,,,,,,,,,,9,strong,41,-87.5,1,0,0,response3disk,5,49,4,5.5,1,0,0,rectangle,4,5.5,1,0,0,1,5,0.00195,4,5.5,1,0,0,0,48,48,128,1,0,,,,,,,,,,,,,,,,,,,,,
,,,,,,,,,,,,,,,,,,,,,,,,,,,,,,,,,,,,,,,,,,,602d7e1c3ecd7d7db842933c,606c0c6fbecf1d7b67fb583e,2021-04-06_09h24.51.126,Colour_Similarity_Experiment,2020.2.10,Win32,60,6067542a4a25243f4d7d4fcf,17.02555195,16.75748936,16.71570888,16.7303125,16.7187543,16.7303125,,,,,,,,,,,,,,,,,,,,PF,weak,3,,,,,,,,6,1.82362,,,,,,,,,,,,,,,,,,,,,,,,,,,,1,weak,87,37.5,1,0,0,response1disk,6,50,-5,-2.5,1,0,0,rectangle,-5,-2.5,1,0,0,1,0,0.001835,-5,-2.5,1,0,0,0,49,49,144,1,0,,,,,,,,,,,,,,,,,,,,,
,,,,,,,,,,,,,,,,,,,,,,,,,,,,,,,,,,,,,,,,,,,602d7e1c3ecd7d7db842933c,606c0c6fbecf1d7b67fb583e,2021-04-06_09h24.51.126,Colour_Similarity_Experiment,2020.2.10,Win32,60,6067542a4a25243f4d7d4fcf,17.02555195,16.75748936,16.71570888,16.7303125,16.7187543,16.7303125,,,,,,,,,,,,,,,,,,,,PF,strong,3,,,,,,,,1,1.572765,,,,,,,,,,,,,,,,,,,,,,,,,,,,2,strong,-68,37.5,1,0,0,response7disk,3,51,-1,1.5,1,0,0,rectangle,-25,-68.5,1,0,0,3,3,1.956475,0,-9.5,1,0,0,0,50,50,104,1,1,response5disk_3,rectangle,,,,,,,,,,,,,,,,,,,
,,,,,,,,,,,,,,,,,,,,,,,,,,,,,,,,,,,,,,,,,,,602d7e1c3ecd7d7db842933c,606c0c6fbecf1d7b67fb583e,2021-04-06_09h24.51.126,Colour_Similarity_Experiment,2020.2.10,Win32,60,6067542a4a25243f4d7d4fcf,17.02555195,16.75748936,16.71570888,16.7303125,16.7187543,16.7303125,,,,,,,,,,,,,,,,,,,,PF,weak,3,,,,,,,,6,2.994385,,,,,,,,,,,,,,,,,,,,,,,,,,,,6,weak,95,42.5,1,0,0,response1disk,2,52,-6,3.5,1,0,0,rectangle,-6,3.5,1,0,0,3,1,0.001965,-6,3.5,1,0,0,0,51,51,130,1,0,,,,,,,,,,,,,,,,,,,,,
,,,,,,,,,,,,,,,,,,,,,,,,,,,,,,,,,,,,,,,,,,,602d7e1c3ecd7d7db842933c,606c0c6fbecf1d7b67fb583e,2021-04-06_09h24.51.126,Colour_Similarity_Experiment,2020.2.10,Win32,60,6067542a4a25243f4d7d4fcf,17.02555195,16.75748936,16.71570888,16.7303125,16.7187543,16.7303125,,,,,,,,,,,,,,,,,,,,PF,weak,3,,,,,,,,2,1.825,,,,,,,,,,,,,,,,,,,,,,,,,,,,1,weak,-85,-32.5,1,0,0,response5disk,2,53,-6,-1.5,1,0,0,rectangle,-6,-1.5,1,0,0,3,5,0.00147,-6,-1.5,1,0,0,0,52,52,24,1,0,,,,,,,,,,,,,,,,,,,,,
,,,,,,,,,,,,,,,,,,,,,,,,,,,,,,,,,,,,,,,,,,,602d7e1c3ecd7d7db842933c,606c0c6fbecf1d7b67fb583e,2021-04-06_09h24.51.126,Colour_Similarity_Experiment,2020.2.10,Win32,60,6067542a4a25243f4d7d4fcf,17.02555195,16.75748936,16.71570888,16.7303125,16.7187543,16.7303125,,,,,,,,,,,,,,,,,,,,PF,strong,3,,,,,,,,4,1.473775,,,,,,,,,,,,,,,,,,,,,,,,,,,,2,strong,35,-73.5,1,0,0,response3disk,5,54,-2,7.5,1,0,0,rectangle,-2,7.5,1,0,0,3,3,0.001475,-2,7.5,1,0,0,0,53,53,80,1,0,,,,,,,,,,,,,,,,,,,,,
,,,,,,,,,,,,,,,,,,,,,,,,,,,,,,,,,,,,,,,,,,,602d7e1c3ecd7d7db842933c,606c0c6fbecf1d7b67fb583e,2021-04-06_09h24.51.126,Colour_Similarity_Experiment,2020.2.10,Win32,60,6067542a4a25243f4d7d4fcf,17.02555195,16.75748936,16.71570888,16.7303125,16.7187543,16.7303125,,,,,,,,,,,,,,,,,,,,PF,strong,3,,,,,,,,6,1.58939,,,,,,,,,,,,,,,,,,,,,,,,,,,,7,strong,72,23.5,1,0,0,response1disk,2,55,-2,-5.5,1,0,0,rectangle,-2,-5.5,1,0,0,3,3,0.000375,-2,-5.5,1,0,0,0,54,54,138,1,0,,,,,,,,,,,,,,,,,,,,,
,,,,,,,,,,,,,,,,,,,,,,,,,,,,,,,,,,,,,,,,,,,602d7e1c3ecd7d7db842933c,606c0c6fbecf1d7b67fb583e,2021-04-06_09h24.51.126,Colour_Similarity_Experiment,2020.2.10,Win32,60,6067542a4a25243f4d7d4fcf,17.02555195,16.75748936,16.71570888,16.7303125,16.7187543,16.7303125,,,,,,,,,,,,,,,,,,,,PF,weak,3,,,,,,,,7,1.08804,,,,,,,,,,,,,,,,,,,,,,,,,,,,3,weak,42,75.5,1,0,0,response1disk,8,56,1,-3.5,1,0,0,rectangle,1,-3.5,1,0,0,3,5,0.00145,1,-3.5,1,0,0,0,55,55,3,1,0,,,,,,,,,,,,,,,,,,,,,
,,,,,,,,,,,,,,,,,,,,,,,,,,,,,,,,,,,,,,,,,,,602d7e1c3ecd7d7db842933c,606c0c6fbecf1d7b67fb583e,2021-04-06_09h24.51.126,Colour_Similarity_Experiment,2020.2.10,Win32,60,6067542a4a25243f4d7d4fcf,17.02555195,16.75748936,16.71570888,16.7303125,16.7187543,16.7303125,,,,,,,,,,,,,,,,,,,,PF,strong,3,,,,,,,,5,2.108245,,,,,,,,,,,,,,,,,,,,,,,,,,,,2,strong,70,-40.5,1,0,0,response3disk,6,57,6,4.5,1,0,0,rectangle,6,4.5,1,0,0,3,5,0.00021,6,4.5,1,0,0,0,56,56,40,1,0,,,,,,,,,,,,,,,,,,,,,
,,,,,,,,,,,,,,,,,,,,,,,,,,,,,,,,,,,,,,,,,,,602d7e1c3ecd7d7db842933c,606c0c6fbecf1d7b67fb583e,2021-04-06_09h24.51.126,Colour_Similarity_Experiment,2020.2.10,Win32,60,6067542a4a25243f4d7d4fcf,17.02555195,16.75748936,16.71570888,16.7303125,16.7187543,16.7303125,,,,,,,,,,,,,,,,,,,,PF,weak,3,,,,,,,,2,1.95997,,,,,,,,,,,,,,,,,,,,,,,,,,,,7,weak,-83,-38.5,1,0,0,response5disk,6,58,-4,-2.5,1,0,0,rectangle,-4,-2.5,1,0,0,3,5,0.000315,-4,-2.5,1,0,0,0,57,57,29,1,0,,,,,,,,,,,,,,,,,,,,,
,,,,,,,,,,,,,,,,,,,,,,,,,,,,,,,,,,,,,,,,,,,602d7e1c3ecd7d7db842933c,606c0c6fbecf1d7b67fb583e,2021-04-06_09h24.51.126,Colour_Similarity_Experiment,2020.2.10,Win32,60,6067542a4a25243f4d7d4fcf,17.02555195,16.75748936,16.71570888,16.7303125,16.7187543,16.7303125,,,,,,,,,,,,,,,,,,,,PF,weak,3,,,,,,,,1,2.241845,,,,,,,,,,,,,,,,,,,,,,,,,,,,7,weak,-88,19.5,1,0,0,response7disk,7,59,3,0.5,1,0,0,rectangle,3,0.5,1,0,0,3,7,0.00175,3,0.5,1,0,0,0,58,58,51,1,0,,,,,,,,,,,,,,,,,,,,,
,,,,,,,,,,,,,,,,,,,,,,,,,,,,,,,,,,,,,,,,,,,602d7e1c3ecd7d7db842933c,606c0c6fbecf1d7b67fb583e,2021-04-06_09h24.51.126,Colour_Similarity_Experiment,2020.2.10,Win32,60,6067542a4a25243f4d7d4fcf,17.02555195,16.75748936,16.71570888,16.7303125,16.7187543,16.7303125,,,,,,,,,,,,,,,,,,,,PF,weak,3,,,,,,,,4,7.20967,,,,,,,,,,,,,,,,,,,,,,,,,,,,4,weak,46,-69.5,1,0,0,response3disk,2,60,-3,4.5,1,0,0,rectangle,-3,4.5,1,0,0,3,1,0.001345,-3,4.5,1,0,0,0,59,59,108,1,0,,,,,,,,,,,,,,,,,,,,,
,,,,,,,,,,,,,,,,,,,,,,,,,,,,,,,,,,,,,,,,,,,602d7e1c3ecd7d7db842933c,606c0c6fbecf1d7b67fb583e,2021-04-06_09h24.51.126,Colour_Similarity_Experiment,2020.2.10,Win32,60,6067542a4a25243f4d7d4fcf,17.02555195,16.75748936,16.71570888,16.7303125,16.7187543,16.7303125,,,,,,,,,,,,,,,,,,,,PF,strong,3,,,,,,,,7,1.491625,,,,,,,,,,,,,,,,,,,,,,,,,,,,9,strong,54,73.5,1,0,0,response1disk,4,61,15,2.5,1,0,0,rectangle,15,2.5,1,0,0,3,0,0.001955,15,2.5,1,0,0,0,60,60,60,1,0,,,,,,,,,,,,,,,,,,,,,
,,,,,,,,,,,,,,,,,,,,,,,,,,,,,,,,,,,,,,,,,,,602d7e1c3ecd7d7db842933c,606c0c6fbecf1d7b67fb583e,2021-04-06_09h24.51.126,Colour_Similarity_Experiment,2020.2.10,Win32,60,6067542a4a25243f4d7d4fcf,17.02555195,16.75748936,16.71570888,16.7303125,16.7187543,16.7303125,,,,,,,,,,,,,,,,,,,,PF,strong,3,,,,,,,,6,1.154315,,,,,,,,,,,,,,,,,,,,,,,,,,,,4,strong,87,38.5,1,0,0,response1disk,9,62,-13,-5.5,1,0,0,rectangle,-13,-5.5,1,0,0,3,4,0.001235,-13,-5.5,1,0,0,0,61,61,90,1,0,,,,,,,,,,,,,,,,,,,,,
,,,,,,,,,,,,,,,,,,,,,,,,,,,,,,,,,,,,,,,,,,,602d7e1c3ecd7d7db842933c,606c0c6fbecf1d7b67fb583e,2021-04-06_09h24.51.126,Colour_Similarity_Experiment,2020.2.10,Win32,60,6067542a4a25243f4d7d4fcf,17.02555195,16.75748936,16.71570888,16.7303125,16.7187543,16.7303125,,,,,,,,,,,,,,,,,,,,PF,strong,3,,,,,,,,3,1.959245,,,,,,,,,,,,,,,,,,,,,,,,,,,,9,strong,-44,-79.5,1,0,0,response5disk,7,63,5,6.5,1,0,0,rectangle,5,6.5,1,0,0,3,0,0.001535,5,6.5,1,0,0,0,62,62,100,1,0,,,,,,,,,,,,,,,,,,,,,
,,,,,,,,,,,,,,,,,,,,,,,,,,,,,,,,,,,,,,,,,,,602d7e1c3ecd7d7db842933c,606c0c6fbecf1d7b67fb583e,2021-04-06_09h24.51.126,Colour_Similarity_Experiment,2020.2.10,Win32,60,6067542a4a25243f4d7d4fcf,17.02555195,16.75748936,16.71570888,16.7303125,16.7187543,16.7303125,,,,,,,,,,,,,,,,,,,,PF,strong,3,,,,,,,,4,1.82322,,,,,,,,,,,,,,,,,,,,,,,,,,,,2,strong,43,-94.5,1,0,0,response3disk,9,64,0,-9.5,1,0,0,rectangle,0,-9.5,1,0,0,3,0,0.000105,0,-9.5,1,0,0,0,63,63,72,1,0,,,,,,,,,,,,,,,,,,,,,
,,,,,,,,,,,,,,,,,,,,,,,,,,,,,,,,,,,,,,,,,,,602d7e1c3ecd7d7db842933c,606c0c6fbecf1d7b67fb583e,2021-04-06_09h24.51.126,Colour_Similarity_Experiment,2020.2.10,Win32,60,6067542a4a25243f4d7d4fcf,17.02555195,16.75748936,16.71570888,16.7303125,16.7187543,16.7303125,,,,,,,,,,,,,,,,,,,,PF,strong,3,,,,,,,,5,1.05746,,,,,,,,,,,,,,,,,,,,,,,,,,,,7,strong,70,-25.5,1,0,0,response3disk,3,65,-4,0.5,1,0,0,rectangle,-4,0.5,1,0,0,3,3,0.000905,-4,0.5,1,0,0,0,64,64,73,1,0,,,,,,,,,,,,,,,,,,,,,
,,,,,,,,,,,,,,,,,,,,,,,,,,,,,,,,,,,,,,,,,,,602d7e1c3ecd7d7db842933c,606c0c6fbecf1d7b67fb583e,2021-04-06_09h24.51.126,Colour_Similarity_Experiment,2020.2.10,Win32,60,6067542a4a25243f4d7d4fcf,17.02555195,16.75748936,16.71570888,16.7303125,16.7187543,16.7303125,,,,,,,,,,,,,,,,,,,,PF,strong,3,,,,,,,,2,1.823515,,,,,,,,,,,,,,,,,,,,,,,,,,,,1,strong,-65,-47.5,1,0,0,response5disk,9,66,3,7.5,1,0,0,rectangle,3,7.5,1,0,0,3,0,0.0017,3,7.5,1,0,0,0,65,65,123,1,0,,,,,,,,,,,,,,,,,,,,,
,,,,,,,,,,,,,,,,,,,,,,,,,,,,,,,,,,,,,,,,,,,602d7e1c3ecd7d7db842933c,606c0c6fbecf1d7b67fb583e,2021-04-06_09h24.51.126,Colour_Similarity_Experiment,2020.2.10,Win32,60,6067542a4a25243f4d7d4fcf,17.02555195,16.75748936,16.71570888,16.7303125,16.7187543,16.7303125,,,,,,,,,,,,,,,,,,,,PF,strong,3,,,,,,,,1,1.22206,,,,,,,,,,,,,,,,,,,,,,,,,,,,9,strong,-67,37.5,1,0,0,response7disk,8,67,-2,0.5,1,0,0,rectangle,-2,0.5,1,0,0,3,4,0.00165,-2,0.5,1,0,0,0,66,66,6,1,0,,,,,,,,,,,,,,,,,,,,,
,,,,,,,,,,,,,,,,,,,,,,,,,,,,,,,,,,,,,,,,,,,602d7e1c3ecd7d7db842933c,606c0c6fbecf1d7b67fb583e,2021-04-06_09h24.51.126,Colour_Similarity_Experiment,2020.2.10,Win32,60,6067542a4a25243f4d7d4fcf,17.02555195,16.75748936,16.71570888,16.7303125,16.7187543,16.7303125,,,,,,,,,,,,,,,,,,,,PF,weak,3,,,,,,,,5,1.789685,,,,,,,,,,,,,,,,,,,,,,,,,,,,4,weak,74,-27.5,1,0,0,response3disk,8,68,-9,1.5,1,0,0,rectangle,-9,1.5,1,0,0,3,7,0.00169,-9,1.5,1,0,0,0,67,67,124,1,0,,,,,,,,,,,,,,,,,,,,,
,,,,,,,,,,,,,,,,,,,,,,,,,,,,,,,,,,,,,,,,,,,602d7e1c3ecd7d7db842933c,606c0c6fbecf1d7b67fb583e,2021-04-06_09h24.51.126,Colour_Similarity_Experiment,2020.2.10,Win32,60,6067542a4a25243f4d7d4fcf,17.02555195,16.75748936,16.71570888,16.7303125,16.7187543,16.7303125,,,,,,,,,,,,,,,,,,,,PF,weak,3,,,,,,,,5,1.57278,,,,,,,,,,,,,,,,,,,,,,,,,,,,8,weak,86,-42.5,1,0,0,response3disk,4,69,25,1.5,1,0,0,rectangle,25,1.5,1,0,0,3,5,0.001365,25,1.5,1,0,0,0,68,68,78,1,0,,,,,,,,,,,,,,,,,,,,,
,,,,,,,,,,,,,,,,,,,,,,,,,,,,,,,,,,,,,,,,,,,602d7e1c3ecd7d7db842933c,606c0c6fbecf1d7b67fb583e,2021-04-06_09h24.51.126,Colour_Similarity_Experiment,2020.2.10,Win32,60,6067542a4a25243f4d7d4fcf,17.02555195,16.75748936,16.71570888,16.7303125,16.7187543,16.7303125,,,,,,,,,,,,,,,,,,,,PF,weak,3,,,,,,,,1,1.60557,,,,,,,,,,,,,,,,,,,,,,,,,,,,6,weak,-59,40.5,1,0,0,response7disk,6,70,3,-5.5,1,0,0,rectangle,3,-5.5,1,0,0,3,5,0.0004,3,-5.5,1,0,0,0,69,69,0,1,0,,,,,,,,,,,,,,,,,,,,,
,,,,,,,,,,,,,,,,,,,,,,,,,,,,,,,,,,,,,,,,,,,602d7e1c3ecd7d7db842933c,606c0c6fbecf1d7b67fb583e,2021-04-06_09h24.51.126,Colour_Similarity_Experiment,2020.2.10,Win32,60,6067542a4a25243f4d7d4fcf,17.02555195,16.75748936,16.71570888,16.7303125,16.7187543,16.7303125,,,,,,,,,,,,,,,,,,,,PF,weak,3,,,,,,,,1,1.07111,,,,,,,,,,,,,,,,,,,,,,,,,,,,6,weak,-63,31.5,1,0,0,response7disk,7,71,-3,4.5,1,0,0,rectangle,-3,4.5,1,0,0,3,1,0.001635,-3,4.5,1,0,0,0,70,70,50,1,0,,,,,,,,,,,,,,,,,,,,,
,,,,,,,,,,,,,,,,,,,,,,,,,,,,,,,,,,,,,,,,,,,602d7e1c3ecd7d7db842933c,606c0c6fbecf1d7b67fb583e,2021-04-06_09h24.51.126,Colour_Similarity_Experiment,2020.2.10,Win32,60,6067542a4a25243f4d7d4fcf,17.02555195,16.75748936,16.71570888,16.7303125,16.7187543,16.7303125,,,,,,,,,,,,,,,,,,,,PF,strong,3,,,,,,,,2,1.28824,,,,,,,,,,,,,,,,,,,,,,,,,,,,6,strong,-65,-33.5,1,0,0,response5disk,5,72,-3,2.5,1,0,0,rectangle,-3,2.5,1,0,0,3,3,0.001375,-3,2.5,1,0,0,0,71,71,126,1,0,,,,,,,,,,,,,,,,,,,,,
,,,,,,,,,,,,,,,,,,,,,,,,,,,,,,,,,,,,,,,,,,,602d7e1c3ecd7d7db842933c,606c0c6fbecf1d7b67fb583e,2021-04-06_09h24.51.126,Colour_Similarity_Experiment,2020.2.10,Win32,60,6067542a4a25243f4d7d4fcf,17.02555195,16.75748936,16.71570888,16.7303125,16.7187543,16.7303125,,,,,,,,,,,,,,,,,,,,PF,weak,3,,,,,,,,6,1.43886,,,,,,,,,,,,,,,,,,,,,,,,,,,,3,weak,80,33.5,1,0,0,response1disk,7,73,-2,-2.5,1,0,0,rectangle,-2,-2.5,1,0,0,3,2,0.00137,-2,-2.5,1,0,0,0,72,72,41,1,0,,,,,,,,,,,,,,,,,,,,,
,,,,,,,,,,,,,,,,,,,,,,,,,,,,,,,,,,,,,,,,,,,602d7e1c3ecd7d7db842933c,606c0c6fbecf1d7b67fb583e,2021-04-06_09h24.51.126,Colour_Similarity_Experiment,2020.2.10,Win32,60,6067542a4a25243f4d7d4fcf,17.02555195,16.75748936,16.71570888,16.7303125,16.7187543,16.7303125,,,,,,,,,,,,,,,,,,,,PF,strong,3,,,,,,,,5,4.132075,,,,,,,,,,,,,,,,,,,,,,,,,,,,2,strong,92,-44.5,1,0,0,response3disk,8,74,-1,1.5,1,0,0,rectangle,-1,1.5,1,0,0,3,3,0.00188,-1,1.5,1,0,0,0,73,73,62,1,0,,,,,,,,,,,,,,,,,,,,,
,,,,,,,,,,,,,,,,,,,,,,,,,,,,,,,,,,,,,,,,,,,602d7e1c3ecd7d7db842933c,606c0c6fbecf1d7b67fb583e,2021-04-06_09h24.51.126,Colour_Similarity_Experiment,2020.2.10,Win32,60,6067542a4a25243f4d7d4fcf,17.02555195,16.75748936,16.71570888,16.7303125,16.7187543,16.7303125,,,,,,,,,,,,,,,,,,,,PF,strong,3,,,,,,,,3,3.713075,,,,,,,,,,,,,,,,,,,,,,,,,,,,8,strong,-26,-93.5,1,0,0,response5disk,7,75,-5,2.5,1,0,0,rectangle,-5,2.5,1,0,0,3,3,0.000345,-5,2.5,1,0,0,0,74,74,86,1,0,,,,,,,,,,,,,,,,,,,,,
,,,,,,,,,,,,,,,,,,,,,,,,,,,,,,,,,,,,,,,,,,,602d7e1c3ecd7d7db842933c,606c0c6fbecf1d7b67fb583e,2021-04-06_09h24.51.126,Colour_Similarity_Experiment,2020.2.10,Win32,60,6067542a4a25243f4d7d4fcf,17.02555195,16.75748936,16.71570888,16.7303125,16.7187543,16.7303125,,,,,,,,,,,,,,,,,,,,PF,weak,3,,,,,,,,1,1.622545,,,,,,,,,,,,,,,,,,,,,,,,,,,,6,weak,-82,31.5,1,0,0,response7disk,8,76,-9,-0.5,1,0,0,rectangle,-9,-0.5,1,0,0,3,1,0.00168,-9,-0.5,1,0,0,0,75,75,64,1,0,,,,,,,,,,,,,,,,,,,,,
,,,,,,,,,,,,,,,,,,,,,,,,,,,,,,,,,,,,,,,,,,,602d7e1c3ecd7d7db842933c,606c0c6fbecf1d7b67fb583e,2021-04-06_09h24.51.126,Colour_Similarity_Experiment,2020.2.10,Win32,60,6067542a4a25243f4d7d4fcf,17.02555195,16.75748936,16.71570888,16.7303125,16.7187543,16.7303125,,,,,,,,,,,,,,,,,,,,PF,weak,3,,,,,,,,3,1.80738,,,,,,,,,,,,,,,,,,,,,,,,,,,,5,weak,-38,-71.5,1,0,0,response5disk,9,77,-5,-1.5,1,0,0,rectangle,-35,-89.5,1,0,0,3,3,1.73805,2,-6.5,1,0,0,0,76,76,136,1,1,response5disk_3,rectangle,,,,,,,,,,,,,,,,,,,
,,,,,,,,,,,,,,,,,,,,,,,,,,,,,,,,,,,,,,,,,,,602d7e1c3ecd7d7db842933c,606c0c6fbecf1d7b67fb583e,2021-04-06_09h24.51.126,Colour_Similarity_Experiment,2020.2.10,Win32,60,6067542a4a25243f4d7d4fcf,17.02555195,16.75748936,16.71570888,16.7303125,16.7187543,16.7303125,,,,,,,,,,,,,,,,,,,,PF,weak,3,,,,,,,,1,1.707,,,,,,,,,,,,,,,,,,,,,,,,,,,,8,weak,-70,33.5,1,0,0,response7disk,7,78,4,-1.5,1,0,0,rectangle,4,-1.5,1,0,0,3,6,0.00153,4,-1.5,1,0,0,0,77,77,23,1,0,,,,,,,,,,,,,,,,,,,,,
,,,,,,,,,,,,,,,,,,,,,,,,,,,,,,,,,,,,,,,,,,,602d7e1c3ecd7d7db842933c,606c0c6fbecf1d7b67fb583e,2021-04-06_09h24.51.126,Colour_Similarity_Experiment,2020.2.10,Win32,60,6067542a4a25243f4d7d4fcf,17.02555195,16.75748936,16.71570888,16.7303125,16.7187543,16.7303125,,,,,,,,,,,,,,,,,,,,PF,weak,3,,,,,,,,2,2.27548,,,,,,,,,,,,,,,,,,,,,,,,,,,,8,weak,-66,-47.5,1,0,0,response5disk,2,79,2,-1.5,1,0,0,rectangle,2,-1.5,1,0,0,3,1,0.001375,2,-1.5,1,0,0,0,78,78,83,1,0,,,,,,,,,,,,,,,,,,,,,
,,,,,,,,,,,,,,,,,,,,,,,,,,,,,,,,,,,,,,,,,,,602d7e1c3ecd7d7db842933c,606c0c6fbecf1d7b67fb583e,2021-04-06_09h24.51.126,Colour_Similarity_Experiment,2020.2.10,Win32,60,6067542a4a25243f4d7d4fcf,17.02555195,16.75748936,16.71570888,16.7303125,16.7187543,16.7303125,,,,,,,,,,,,,,,,,,,,PF,strong,3,,,,,,,,0,1.82339,,,,,,,,,,,,,,,,,,,,,,,,,,,,1,strong,-46,77.5,1,0,0,response7disk,7,80,-2,-3.5,1,0,0,rectangle,-2,-3.5,1,0,0,3,5,0.002045,-2,-3.5,1,0,0,0,79,79,137,1,0,,,,,,,,,,,,,,,,,,,,,
,,,,,,,,,,,,,,,,,,,,,,,,,,,,,,,,,,,,,,,,,,,602d7e1c3ecd7d7db842933c,606c0c6fbecf1d7b67fb583e,2021-04-06_09h24.51.126,Colour_Similarity_Experiment,2020.2.10,Win32,60,6067542a4a25243f4d7d4fcf,17.02555195,16.75748936,16.71570888,16.7303125,16.7187543,16.7303125,,,,,,,,,,,,,,,,,,,,PF,weak,3,,,,,,,,3,2.091895,,,,,,,,,,,,,,,,,,,,,,,,,,,,5,weak,-22,-89.5,1,0,0,response5disk,2,81,-1,-0.5,1,0,0,rectangle,-1,-0.5,1,0,0,3,3,0.001195,-1,-0.5,1,0,0,0,80,80,129,1,0,,,,,,,,,,,,,,,,,,,,,
,,,,,,,,,,,,,,,,,,,,,,,,,,,,,,,,,,,,,,,,,,,602d7e1c3ecd7d7db842933c,606c0c6fbecf1d7b67fb583e,2021-04-06_09h24.51.126,Colour_Similarity_Experiment,2020.2.10,Win32,60,6067542a4a25243f4d7d4fcf,17.02555195,16.75748936,16.71570888,16.7303125,16.7187543,16.7303125,,,,,,,,,,,,,,,,,,,,PF,strong,3,,,,,,,,5,1.656545,,,,,,,,,,,,,,,,,,,,,,,,,,,,1,strong,68,-36.5,1,0,0,response3disk,3,82,-1,-0.5,1,0,0,rectangle,-1,-0.5,1,0,0,3,1,0.001355,-1,-0.5,1,0,0,0,81,81,99,1,0,,,,,,,,,,,,,,,,,,,,,
,,,,,,,,,,,,,,,,,,,,,,,,,,,,,,,,,,,,,,,,,,,602d7e1c3ecd7d7db842933c,606c0c6fbecf1d7b67fb583e,2021-04-06_09h24.51.126,Colour_Similarity_Experiment,2020.2.10,Win32,60,6067542a4a25243f4d7d4fcf,17.02555195,16.75748936,16.71570888,16.7303125,16.7187543,16.7303125,,,,,,,,,,,,,,,,,,,,PF,strong,3,,,,,,,,2,1.40675,,,,,,,,,,,,,,,,,,,,,,,,,,,,5,strong,-72,-24.5,1,0,0,response5disk,6,83,4,-3.5,1,0,0,rectangle,4,-3.5,1,0,0,3,6,0.0013,4,-3.5,1,0,0,0,82,82,12,1,0,,,,,,,,,,,,,,,,,,,,,
,,,,,,,,,,,,,,,,,,,,,,,,,,,,,,,,,,,,,,,,,,,602d7e1c3ecd7d7db842933c,606c0c6fbecf1d7b67fb583e,2021-04-06_09h24.51.126,Colour_Similarity_Experiment,2020.2.10,Win32,60,6067542a4a25243f4d7d4fcf,17.02555195,16.75748936,16.71570888,16.7303125,16.7187543,16.7303125,,,,,,,,,,,,,,,,,,,,PF,weak,3,,,,,,,,0,1.188755,,,,,,,,,,,,,,,,,,,,,,,,,,,,5,weak,-45,74.5,1,0,0,response7disk,5,84,7,-4.5,1,0,0,rectangle,7,-4.5,1,0,0,3,4,0.001705,7,-4.5,1,0,0,0,83,83,94,1,0,,,,,,,,,,,,,,,,,,,,,
,,,,,,,,,,,,,,,,,,,,,,,,,,,,,,,,,,,,,,,,,,,602d7e1c3ecd7d7db842933c,606c0c6fbecf1d7b67fb583e,2021-04-06_09h24.51.126,Colour_Similarity_Experiment,2020.2.10,Win32,60,6067542a4a25243f4d7d4fcf,17.02555195,16.75748936,16.71570888,16.7303125,16.7187543,16.7303125,,,,,,,,,,,,,,,,,,,,PF,weak,3,,,,,,,,0,0.97097,,,,,,,,,,,,,,,,,,,,,,,,,,,,2,weak,-41,67.5,1,0,0,response7disk,2,85,-6,0.5,1,0,0,rectangle,-6,0.5,1,0,0,3,3,0.001515,-6,0.5,1,0,0,0,84,84,14,1,0,,,,,,,,,,,,,,,,,,,,,
,,,,,,,,,,,,,,,,,,,,,,,,,,,,,,,,,,,,,,,,,,,602d7e1c3ecd7d7db842933c,606c0c6fbecf1d7b67fb583e,2021-04-06_09h24.51.126,Colour_Similarity_Experiment,2020.2.10,Win32,60,6067542a4a25243f4d7d4fcf,17.02555195,16.75748936,16.71570888,16.7303125,16.7187543,16.7303125,,,,,,,,,,,,,,,,,,,,PF,strong,3,,,,,,,,5,1.79258,,,,,,,,,,,,,,,,,,,,,,,,,,,,8,strong,69,-30.5,1,0,0,response3disk,2,86,-7,-8.5,1,0,0,rectangle,-7,-8.5,1,0,0,3,0,0.00142,-7,-8.5,1,0,0,0,85,85,22,1,0,,,,,,,,,,,,,,,,,,,,,
,,,,,,,,,,,,,,,,,,,,,,,,,,,,,,,,,,,,,,,,,,,602d7e1c3ecd7d7db842933c,606c0c6fbecf1d7b67fb583e,2021-04-06_09h24.51.126,Colour_Similarity_Experiment,2020.2.10,Win32,60,6067542a4a25243f4d7d4fcf,17.02555195,16.75748936,16.71570888,16.7303125,16.7187543,16.7303125,,,,,,,,,,,,,,,,,,,,PF,strong,3,,,,,,,,6,1.74111,,,,,,,,,,,,,,,,,,,,,,,,,,,,2,strong,84,38.5,1,0,0,response1disk,7,87,3,-4.5,1,0,0,rectangle,3,-4.5,1,0,0,3,2,0.00145,3,-4.5,1,0,0,0,86,86,63,1,0,,,,,,,,,,,,,,,,,,,,,
,,,,,,,,,,,,,,,,,,,,,,,,,,,,,,,,,,,,,,,,,,,602d7e1c3ecd7d7db842933c,606c0c6fbecf1d7b67fb583e,2021-04-06_09h24.51.126,Colour_Similarity_Experiment,2020.2.10,Win32,60,6067542a4a25243f4d7d4fcf,17.02555195,16.75748936,16.71570888,16.7303125,16.7187543,16.7303125,,,,,,,,,,,,,,,,,,,,PF,strong,3,,,,,,,,1,1.5056,,,,,,,,,,,,,,,,,,,,,,,,,,,,8,strong,-69,34.5,1,0,0,response7disk,9,88,-1,3.5,1,0,0,rectangle,-1,3.5,1,0,0,3,5,0.001895,-1,3.5,1,0,0,0,87,87,105,1,0,,,,,,,,,,,,,,,,,,,,,
,,,,,,,,,,,,,,,,,,,,,,,,,,,,,,,,,,,,,,,,,,,602d7e1c3ecd7d7db842933c,606c0c6fbecf1d7b67fb583e,2021-04-06_09h24.51.126,Colour_Similarity_Experiment,2020.2.10,Win32,60,6067542a4a25243f4d7d4fcf,17.02555195,16.75748936,16.71570888,16.7303125,16.7187543,16.7303125,,,,,,,,,,,,,,,,,,,,PF,strong,3,,,,,,,,3,2.24309,,,,,,,,,,,,,,,,,,,,,,,,,,,,5,strong,-45,-74.5,1,0,0,response5disk,3,89,-7,-7.5,1,0,0,rectangle,-7,-7.5,1,0,0,3,6,0.0014,-7,-7.5,1,0,0,0,88,88,25,1,0,,,,,,,,,,,,,,,,,,,,,
,,,,,,,,,,,,,,,,,,,,,,,,,,,,,,,,,,,,,,,,,,,602d7e1c3ecd7d7db842933c,606c0c6fbecf1d7b67fb583e,2021-04-06_09h24.51.126,Colour_Similarity_Experiment,2020.2.10,Win32,60,6067542a4a25243f4d7d4fcf,17.02555195,16.75748936,16.71570888,16.7303125,16.7187543,16.7303125,,,,,,,,,,,,,,,,,,,,PF,weak,3,,,,,,,,4,1.25523,,,,,,,,,,,,,,,,,,,,,,,,,,,,1,weak,49,-85.5,1,0,0,response3disk,3,90,10,-5.5,1,0,0,rectangle,10,-5.5,1,0,0,3,7,0.001935,10,-5.5,1,0,0,0,89,89,1,1,0,,,,,,,,,,,,,,,,,,,,,
,,,,,,,,,,,,,,,,,,,,,,,,,,,,,,,,,,,,,,,,,,,602d7e1c3ecd7d7db842933c,606c0c6fbecf1d7b67fb583e,2021-04-06_09h24.51.126,Colour_Similarity_Experiment,2020.2.10,Win32,60,6067542a4a25243f4d7d4fcf,17.02555195,16.75748936,16.71570888,16.7303125,16.7187543,16.7303125,,,,,,,,,,,,,,,,,,,,PF,strong,3,,,,,,,,2,2.00659,,,,,,,,,,,,,,,,,,,,,,,,,,,,1,strong,-62,-28.5,1,0,0,response5disk,1,91,22,1.5,1,0,0,rectangle,22,1.5,1,0,0,3,5,0.00151,22,1.5,1,0,0,0,90,90,151,1,0,,,,,,,,,,,,,,,,,,,,,
,,,,,,,,,,,,,,,,,,,,,,,,,,,,,,,,,,,,,,,,,,,602d7e1c3ecd7d7db842933c,606c0c6fbecf1d7b67fb583e,2021-04-06_09h24.51.126,Colour_Similarity_Experiment,2020.2.10,Win32,60,6067542a4a25243f4d7d4fcf,17.02555195,16.75748936,16.71570888,16.7303125,16.7187543,16.7303125,,,,,,,,,,,,,,,,,,,,PF,strong,3,,,,,,,,3,1.92431,,,,,,,,,,,,,,,,,,,,,,,,,,,,3,strong,-42,-78.5,1,0,0,response5disk,2,92,3,5.5,1,0,0,rectangle,3,5.5,1,0,0,3,7,0.001545,3,5.5,1,0,0,0,91,91,93,1,0,,,,,,,,,,,,,,,,,,,,,
,,,,,,,,,,,,,,,,,,,,,,,,,,,,,,,,,,,,,,,,,,,602d7e1c3ecd7d7db842933c,606c0c6fbecf1d7b67fb583e,2021-04-06_09h24.51.126,Colour_Similarity_Experiment,2020.2.10,Win32,60,6067542a4a25243f4d7d4fcf,17.02555195,16.75748936,16.71570888,16.7303125,16.7187543,16.7303125,,,,,,,,,,,,,,,,,,,,PF,strong,3,,,,,,,,4,2.64677,,,,,,,,,,,,,,,,,,,,,,,,,,,,9,strong,35,-76.5,1,0,0,response3disk,9,93,2,-3.5,1,0,0,rectangle,2,-3.5,1,0,0,3,2,0.00143,2,-3.5,1,0,0,0,92,92,17,1,0,,,,,,,,,,,,,,,,,,,,,
,,,,,,,,,,,,,,,,,,,,,,,,,,,,,,,,,,,,,,,,,,,602d7e1c3ecd7d7db842933c,606c0c6fbecf1d7b67fb583e,2021-04-06_09h24.51.126,Colour_Similarity_Experiment,2020.2.10,Win32,60,6067542a4a25243f4d7d4fcf,17.02555195,16.75748936,16.71570888,16.7303125,16.7187543,16.7303125,,,,,,,,,,,,,,,,,,,,PF,weak,3,,,,,,,,0,1.23867,,,,,,,,,,,,,,,,,,,,,,,,,,,,1,weak,-43,73.5,1,0,0,response7disk,1,94,3,1.5,1,0,0,rectangle,-72,42.5,1,0,0,1,1,1.77733,-4,-4.5,1,0,0,0,93,93,76,1,1,response7disk_3,rectangle,,,,,,,,,,,,,,,,,,,
,,,,,,,,,,,,,,,,,,,,,,,,,,,,,,,,,,,,,,,,,,,602d7e1c3ecd7d7db842933c,606c0c6fbecf1d7b67fb583e,2021-04-06_09h24.51.126,Colour_Similarity_Experiment,2020.2.10,Win32,60,6067542a4a25243f4d7d4fcf,17.02555195,16.75748936,16.71570888,16.7303125,16.7187543,16.7303125,,,,,,,,,,,,,,,,,,,,PF,strong,3,,,,,,,,1,1.137925,,,,,,,,,,,,,,,,,,,,,,,,,,,,6,strong,-70,40.5,1,0,0,response7disk,6,95,-6,4.5,1,0,0,rectangle,-6,4.5,1,0,0,1,7,0.00198,-6,4.5,1,0,0,0,94,94,91,1,0,,,,,,,,,,,,,,,,,,,,,
,,,,,,,,,,,,,,,,,,,,,,,,,,,,,,,,,,,,,,,,,,,602d7e1c3ecd7d7db842933c,606c0c6fbecf1d7b67fb583e,2021-04-06_09h24.51.126,Colour_Similarity_Experiment,2020.2.10,Win32,60,6067542a4a25243f4d7d4fcf,17.02555195,16.75748936,16.71570888,16.7303125,16.7187543,16.7303125,,,,,,,,,,,,,,,,,,,,PF,weak,3,,,,,,,,4,1.13794,,,,,,,,,,,,,,,,,,,,,,,,,,,,9,weak,28,-80.5,1,0,0,response3disk,5,96,-9,-7.5,1,0,0,rectangle,-9,-7.5,1,0,0,1,4,0.001495,-9,-7.5,1,0,0,0,95,95,134,1,0,,,,,,,,,,,,,,,,,,,,,
,,,,,,,,,,,,,,,,,,,,,,,,,,,,,,,,,,,,,,,,,,,602d7e1c3ecd7d7db842933c,606c0c6fbecf1d7b67fb583e,2021-04-06_09h24.51.126,Colour_Similarity_Experiment,2020.2.10,Win32,60,6067542a4a25243f4d7d4fcf,17.02555195,16.75748936,16.71570888,16.7303125,16.7187543,16.7303125,,,,,,,,,,,,,,,,,,,,PF,strong,3,,,,,,,,3,1.790265,,,,,,,,,,,,,,,,,,,,,,,,,,,,4,strong,-34,-97.5,1,0,0,response5disk,3,97,-5,-2.5,1,0,0,rectangle,-5,-2.5,1,0,0,1,0,0.001255,-5,-2.5,1,0,0,0,96,96,77,1,0,,,,,,,,,,,,,,,,,,,,,
,,,,,,,,,,,,,,,,,,,,,,,,,,,,,,,,,,,,,,,,,,,602d7e1c3ecd7d7db842933c,606c0c6fbecf1d7b67fb583e,2021-04-06_09h24.51.126,Colour_Similarity_Experiment,2020.2.10,Win32,60,6067542a4a25243f4d7d4fcf,17.02555195,16.75748936,16.71570888,16.7303125,16.7187543,16.7303125,,,,,,,,,,,,,,,,,,,,PF,weak,3,,,,,,,,2,2.208505,,,,,,,,,,,,,,,,,,,,,,,,,,,,4,weak,-81,-40.5,1,0,0,response5disk,3,98,14,10.5,1,0,0,rectangle,14,10.5,1,0,0,1,5,0.001975,14,10.5,1,0,0,0,97,97,89,1,0,,,,,,,,,,,,,,,,,,,,,
,,,,,,,,,,,,,,,,,,,,,,,,,,,,,,,,,,,,,,,,,,,602d7e1c3ecd7d7db842933c,606c0c6fbecf1d7b67fb583e,2021-04-06_09h24.51.126,Colour_Similarity_Experiment,2020.2.10,Win32,60,6067542a4a25243f4d7d4fcf,17.02555195,16.75748936,16.71570888,16.7303125,16.7187543,16.7303125,,,,,,,,,,,,,,,,,,,,PF,strong,3,,,,,,,,2,1.321505,,,,,,,,,,,,,,,,,,,,,,,,,,,,4,strong,-77,-46.5,1,0,0,response5disk,2,99,8,-5.5,1,0,0,rectangle,8,-5.5,1,0,0,1,1,0.0013,8,-5.5,1,0,0,0,98,98,13,1,0,,,,,,,,,,,,,,,,,,,,,
,,,,,,,,,,,,,,,,,,,,,,,,,,,,,,,,,,,,,,,,,,,602d7e1c3ecd7d7db842933c,606c0c6fbecf1d7b67fb583e,2021-04-06_09h24.51.126,Colour_Similarity_Experiment,2020.2.10,Win32,60,6067542a4a25243f4d7d4fcf,17.02555195,16.75748936,16.71570888,16.7303125,16.7187543,16.7303125,,,,,,,,,,,,,,,,,,,,PF,weak,3,,,,,,,,5,1.3732,,,,,,,,,,,,,,,,,,,,,,,,,,,,1,weak,66,-35.5,1,0,0,response3disk,4,100,4,0.5,1,0,0,rectangle,4,0.5,1,0,0,1,7,0.001475,4,0.5,1,0,0,0,99,99,139,1,0,,,,,,,,,,,,,,,,,,,,,
,,,,,,,,,,,,,,,,,,,,,,,,,,,,,,,,,,,,,,,,,,,602d7e1c3ecd7d7db842933c,606c0c6fbecf1d7b67fb583e,2021-04-06_09h24.51.126,Colour_Similarity_Experiment,2020.2.10,Win32,60,6067542a4a25243f4d7d4fcf,17.02555195,16.75748936,16.71570888,16.7303125,16.7187543,16.7303125,,,,,,,,,,,,,,,,,,,,PF,weak,3,,,,,,,,3,1.622915,,,,,,,,,,,,,,,,,,,,,,,,,,,,4,weak,-32,-78.5,1,0,0,response5disk,5,101,-12,-9.5,1,0,0,rectangle,-12,-9.5,1,0,0,1,5,0.001325,-12,-9.5,1,0,0,0,100,100,49,1,0,,,,,,,,,,,,,,,,,,,,,
,,,,,,,,,,,,,,,,,,,,,,,,,,,,,,,,,,,,,,,,,,,602d7e1c3ecd7d7db842933c,606c0c6fbecf1d7b67fb583e,2021-04-06_09h24.51.126,Colour_Similarity_Experiment,2020.2.10,Win32,60,6067542a4a25243f4d7d4fcf,17.02555195,16.75748936,16.71570888,16.7303125,16.7187543,16.7303125,,,,,,,,,,,,,,,,,,,,PF,weak,3,,,,,,,,2,1.02101,,,,,,,,,,,,,,,,,,,,,,,,,,,,8,weak,-70,-54.5,1,0,0,response5disk,9,102,2,-1.5,1,0,0,rectangle,2,-1.5,1,0,0,1,3,0.00403,2,-1.5,1,0,0,0,101,101,42,1,0,,,,,,,,,,,,,,,,,,,,,
,,,,,,,,,,,,,,,,,,,,,,,,,,,,,,,,,,,,,,,,,,,602d7e1c3ecd7d7db842933c,606c0c6fbecf1d7b67fb583e,2021-04-06_09h24.51.126,Colour_Similarity_Experiment,2020.2.10,Win32,60,6067542a4a25243f4d7d4fcf,17.02555195,16.75748936,16.71570888,16.7303125,16.7187543,16.7303125,,,,,,,,,,,,,,,,,,,,PF,weak,3,,,,,,,,4,1.438845,,,,,,,,,,,,,,,,,,,,,,,,,,,,1,weak,31,-92.5,1,0,0,response3disk,7,103,10,-11.5,1,0,0,rectangle,10,-11.5,1,0,0,1,1,0.00129,10,-11.5,1,0,0,0,102,102,150,1,0,,,,,,,,,,,,,,,,,,,,,
,,,,,,,,,,,,,,,,,,,,,,,,,,,,,,,,,,,,,,,,,,,602d7e1c3ecd7d7db842933c,606c0c6fbecf1d7b67fb583e,2021-04-06_09h24.51.126,Colour_Similarity_Experiment,2020.2.10,Win32,60,6067542a4a25243f4d7d4fcf,17.02555195,16.75748936,16.71570888,16.7303125,16.7187543,16.7303125,,,,,,,,,,,,,,,,,,,,PF,weak,3,,,,,,,,3,1.539075,,,,,,,,,,,,,,,,,,,,,,,,,,,,3,weak,-30,-80.5,1,0,0,response5disk,4,104,6,0.5,1,0,0,rectangle,6,0.5,1,0,0,1,3,0.00142,6,0.5,1,0,0,0,103,103,30,1,0,,,,,,,,,,,,,,,,,,,,,
,,,,,,,,,,,,,,,,,,,,,,,,,,,,,,,,,,,,,,,,,,,602d7e1c3ecd7d7db842933c,606c0c6fbecf1d7b67fb583e,2021-04-06_09h24.51.126,Colour_Similarity_Experiment,2020.2.10,Win32,60,6067542a4a25243f4d7d4fcf,17.02555195,16.75748936,16.71570888,16.7303125,16.7187543,16.7303125,,,,,,,,,,,,,,,,,,,,PF,weak,3,,,,,,,,5,1.55846,,,,,,,,,,,,,,,,,,,,,,,,,,,,3,weak,68,-43.5,1,0,0,response3disk,6,105,4,5.5,1,0,0,rectangle,4,5.5,1,0,0,1,2,0.002015,4,5.5,1,0,0,0,104,104,47,1,0,,,,,,,,,,,,,,,,,,,,,
,,,,,,,,,,,,,,,,,,,,,,,,,,,,,,,,,,,,,,,,,,,602d7e1c3ecd7d7db842933c,606c0c6fbecf1d7b67fb583e,2021-04-06_09h24.51.126,Colour_Similarity_Experiment,2020.2.10,Win32,60,6067542a4a25243f4d7d4fcf,17.02555195,16.75748936,16.71570888,16.7303125,16.7187543,16.7303125,,,,,,,,,,,,,,,,,,,,PF,weak,3,,,,,,,,2,1.439105,,,,,,,,,,,,,,,,,,,,,,,,,,,,9,weak,-67,-30.5,1,0,0,response5disk,8,106,11,4.5,1,0,0,rectangle,11,4.5,1,0,0,1,3,0.00132,11,4.5,1,0,0,0,105,105,67,1,0,,,,,,,,,,,,,,,,,,,,,
,,,,,,,,,,,,,,,,,,,,,,,,,,,,,,,,,,,,,,,,,,,602d7e1c3ecd7d7db842933c,606c0c6fbecf1d7b67fb583e,2021-04-06_09h24.51.126,Colour_Similarity_Experiment,2020.2.10,Win32,60,6067542a4a25243f4d7d4fcf,17.02555195,16.75748936,16.71570888,16.7303125,16.7187543,16.7303125,,,,,,,,,,,,,,,,,,,,PF,strong,3,,,,,,,,3,1.757275,,,,,,,,,,,,,,,,,,,,,,,,,,,,6,strong,-37,-74.5,1,0,0,response5disk,7,107,-2,3.5,1,0,0,rectangle,-2,3.5,1,0,0,1,2,0.00128,-2,3.5,1,0,0,0,106,106,18,1,0,,,,,,,,,,,,,,,,,,,,,
,,,,,,,,,,,,,,,,,,,,,,,,,,,,,,,,,,,,,,,,,,,602d7e1c3ecd7d7db842933c,606c0c6fbecf1d7b67fb583e,2021-04-06_09h24.51.126,Colour_Similarity_Experiment,2020.2.10,Win32,60,6067542a4a25243f4d7d4fcf,17.02555195,16.75748936,16.71570888,16.7303125,16.7187543,16.7303125,,,,,,,,,,,,,,,,,,,,PF,strong,3,,,,,,,,3,1.037665,,,,,,,,,,,,,,,,,,,,,,,,,,,,5,strong,-36,-54.5,1,0,0,response5disk,7,108,-11,-0.5,1,0,0,rectangle,-11,-0.5,1,0,0,1,7,0.001365,-11,-0.5,1,0,0,0,107,107,7,1,0,,,,,,,,,,,,,,,,,,,,,
,,,,,,,,,,,,,,,,,,,,,,,,,,,,,,,,,,,,,,,,,,,602d7e1c3ecd7d7db842933c,606c0c6fbecf1d7b67fb583e,2021-04-06_09h24.51.126,Colour_Similarity_Experiment,2020.2.10,Win32,60,6067542a4a25243f4d7d4fcf,17.02555195,16.75748936,16.71570888,16.7303125,16.7187543,16.7303125,,,,,,,,,,,,,,,,,,,,PF,weak,3,,,,,,,,3,0.96703,,,,,,,,,,,,,,,,,,,,,,,,,,,,7,weak,-31,-78.5,1,0,0,response5disk,5,109,-3,3.5,1,0,0,rectangle,-3,3.5,1,0,0,1,6,0.001335,-3,3.5,1,0,0,0,108,108,92,1,0,,,,,,,,,,,,,,,,,,,,,
,,,,,,,,,,,,,,,,,,,,,,,,,,,,,,,,,,,,,,,,,,,602d7e1c3ecd7d7db842933c,606c0c6fbecf1d7b67fb583e,2021-04-06_09h24.51.126,Colour_Similarity_Experiment,2020.2.10,Win32,60,6067542a4a25243f4d7d4fcf,17.02555195,16.75748936,16.71570888,16.7303125,16.7187543,16.7303125,,,,,,,,,,,,,,,,,,,,PF,weak,3,,,,,,,,1,1.940895,,,,,,,,,,,,,,,,,,,,,,,,,,,,8,weak,-87,26.5,1,0,0,response7disk,6,110,-7,4.5,1,0,0,rectangle,53,-95.5,1,0,0,4,4,1.571635,2,3.5,1,0,0,0,109,109,161,1,1,response3disk_3,rectangle,,,,,,,,,,,,,,,,,,,
,,,,,,,,,,,,,,,,,,,,,,,,,,,,,,,,,,,,,,,,,,,602d7e1c3ecd7d7db842933c,606c0c6fbecf1d7b67fb583e,2021-04-06_09h24.51.126,Colour_Similarity_Experiment,2020.2.10,Win32,60,6067542a4a25243f4d7d4fcf,17.02555195,16.75748936,16.71570888,16.7303125,16.7187543,16.7303125,,,,,,,,,,,,,,,,,,,,PF,weak,3,,,,,,,,4,1.28864,,,,,,,,,,,,,,,,,,,,,,,,,,,,2,weak,58,-61.5,1,0,0,response3disk,9,111,6,0.5,1,0,0,rectangle,6,0.5,1,0,0,4,5,0.001545,6,0.5,1,0,0,0,110,110,39,1,0,,,,,,,,,,,,,,,,,,,,,
,,,,,,,,,,,,,,,,,,,,,,,,,,,,,,,,,,,,,,,,,,,602d7e1c3ecd7d7db842933c,606c0c6fbecf1d7b67fb583e,2021-04-06_09h24.51.126,Colour_Similarity_Experiment,2020.2.10,Win32,60,6067542a4a25243f4d7d4fcf,17.02555195,16.75748936,16.71570888,16.7303125,16.7187543,16.7303125,,,,,,,,,,,,,,,,,,,,PF,weak,3,,,,,,,,5,3.181025,,,,,,,,,,,,,,,,,,,,,,,,,,,,9,weak,72,-45.5,1,0,0,response3disk,2,112,11,-0.5,1,0,0,rectangle,11,-0.5,1,0,0,4,1,0.00199,11,-0.5,1,0,0,0,111,111,157,1,0,,,,,,,,,,,,,,,,,,,,,
,,,,,,,,,,,,,,,,,,,,,,,,,,,,,,,,,,,,,,,,,,,602d7e1c3ecd7d7db842933c,606c0c6fbecf1d7b67fb583e,2021-04-06_09h24.51.126,Colour_Similarity_Experiment,2020.2.10,Win32,60,6067542a4a25243f4d7d4fcf,17.02555195,16.75748936,16.71570888,16.7303125,16.7187543,16.7303125,,,,,,,,,,,,,,,,,,,,PF,weak,3,,,,,,,,3,1.03877,,,,,,,,,,,,,,,,,,,,,,,,,,,,4,weak,-37,-87.5,1,0,0,response5disk,6,113,-15,-8.5,1,0,0,rectangle,-15,-8.5,1,0,0,4,3,0.00145,-15,-8.5,1,0,0,0,112,112,120,1,0,,,,,,,,,,,,,,,,,,,,,
,,,,,,,,,,,,,,,,,,,,,,,,,,,,,,,,,,,,,,,,,,,602d7e1c3ecd7d7db842933c,606c0c6fbecf1d7b67fb583e,2021-04-06_09h24.51.126,Colour_Similarity_Experiment,2020.2.10,Win32,60,6067542a4a25243f4d7d4fcf,17.02555195,16.75748936,16.71570888,16.7303125,16.7187543,16.7303125,,,,,,,,,,,,,,,,,,,,PF,weak,3,,,,,,,,4,1.807115,,,,,,,,,,,,,,,,,,,,,,,,,,,,2,weak,26,-73.5,1,0,0,response3disk,4,114,-2,-0.5,1,0,0,rectangle,-2,-0.5,1,0,0,4,0,0.00166,-2,-0.5,1,0,0,0,113,113,127,1,0,,,,,,,,,,,,,,,,,,,,,
,,,,,,,,,,,,,,,,,,,,,,,,,,,,,,,,,,,,,,,,,,,602d7e1c3ecd7d7db842933c,606c0c6fbecf1d7b67fb583e,2021-04-06_09h24.51.126,Colour_Similarity_Experiment,2020.2.10,Win32,60,6067542a4a25243f4d7d4fcf,17.02555195,16.75748936,16.71570888,16.7303125,16.7187543,16.7303125,,,,,,,,,,,,,,,,,,,,PF,strong,3,,,,,,,,3,1.707365,,,,,,,,,,,,,,,,,,,,,,,,,,,,7,strong,-39,-80.5,1,0,0,response5disk,1,115,10,-7.5,1,0,0,rectangle,10,-7.5,1,0,0,4,6,0.001515,10,-7.5,1,0,0,0,114,114,132,1,0,,,,,,,,,,,,,,,,,,,,,
,,,,,,,,,,,,,,,,,,,,,,,,,,,,,,,,,,,,,,,,,,,602d7e1c3ecd7d7db842933c,606c0c6fbecf1d7b67fb583e,2021-04-06_09h24.51.126,Colour_Similarity_Experiment,2020.2.10,Win32,60,6067542a4a25243f4d7d4fcf,17.02555195,16.75748936,16.71570888,16.7303125,16.7187543,16.7303125,,,,,,,,,,,,,,,,,,,,PF,weak,3,,,,,,,,3,1.57311,,,,,,,,,,,,,,,,,,,,,,,,,,,,1,weak,-38,-89.5,1,0,0,response5disk,8,116,-8,-1.5,1,0,0,rectangle,-8,-1.5,1,0,0,4,2,0.002265,-8,-1.5,1,0,0,0,115,115,65,1,0,,,,,,,,,,,,,,,,,,,,,
,,,,,,,,,,,,,,,,,,,,,,,,,,,,,,,,,,,,,,,,,,,602d7e1c3ecd7d7db842933c,606c0c6fbecf1d7b67fb583e,2021-04-06_09h24.51.126,Colour_Similarity_Experiment,2020.2.10,Win32,60,6067542a4a25243f4d7d4fcf,17.02555195,16.75748936,16.71570888,16.7303125,16.7187543,16.7303125,,,,,,,,,,,,,,,,,,,,PF,weak,3,,,,,,,,2,1.289335,,,,,,,,,,,,,,,,,,,,,,,,,,,,8,weak,-71,-45.5,1,0,0,response5disk,5,117,-4,-12.5,1,0,0,rectangle,-4,-12.5,1,0,0,4,2,0.00018,-4,-12.5,1,0,0,0,116,116,98,1,0,,,,,,,,,,,,,,,,,,,,,
,,,,,,,,,,,,,,,,,,,,,,,,,,,,,,,,,,,,,,,,,,,602d7e1c3ecd7d7db842933c,606c0c6fbecf1d7b67fb583e,2021-04-06_09h24.51.126,Colour_Similarity_Experiment,2020.2.10,Win32,60,6067542a4a25243f4d7d4fcf,17.02555195,16.75748936,16.71570888,16.7303125,16.7187543,16.7303125,,,,,,,,,,,,,,,,,,,,PF,strong,3,,,,,,,,2,1.690035,,,,,,,,,,,,,,,,,,,,,,,,,,,,6,strong,-69,-25.5,1,0,0,response5disk,8,118,14,-7.5,1,0,0,rectangle,14,-7.5,1,0,0,4,7,0.00128,14,-7.5,1,0,0,0,117,117,133,1,0,,,,,,,,,,,,,,,,,,,,,
,,,,,,,,,,,,,,,,,,,,,,,,,,,,,,,,,,,,,,,,,,,602d7e1c3ecd7d7db842933c,606c0c6fbecf1d7b67fb583e,2021-04-06_09h24.51.126,Colour_Similarity_Experiment,2020.2.10,Win32,60,6067542a4a25243f4d7d4fcf,17.02555195,16.75748936,16.71570888,16.7303125,16.7187543,16.7303125,,,,,,,,,,,,,,,,,,,,PF,weak,3,,,,,,,,7,2.91049,,,,,,,,,,,,,,,,,,,,,,,,,,,,4,weak,57,82.5,1,0,0,response1disk,9,119,15,0.5,1,0,0,rectangle,15,0.5,1,0,0,4,7,0.001115,15,0.5,1,0,0,0,118,118,75,1,0,,,,,,,,,,,,,,,,,,,,,
,,,,,,,,,,,,,,,,,,,,,,,,,,,,,,,,,,,,,,,,,,,602d7e1c3ecd7d7db842933c,606c0c6fbecf1d7b67fb583e,2021-04-06_09h24.51.126,Colour_Similarity_Experiment,2020.2.10,Win32,60,6067542a4a25243f4d7d4fcf,17.02555195,16.75748936,16.71570888,16.7303125,16.7187543,16.7303125,,,,,,,,,,,,,,,,,,,,PF,weak,3,,,,,,,,4,1.911495,,,,,,,,,,,,,,,,,,,,,,,,,,,,2,weak,37,-90.5,1,0,0,response3disk,1,120,6,7.5,1,0,0,rectangle,6,7.5,1,0,0,4,5,0.001765,6,7.5,1,0,0,0,119,119,9,1,0,,,,,,,,,,,,,,,,,,,,,
,,,,,,,,,,,,,,,,,,,,,,,,,,,,,,,,,,,,,,,,,,,602d7e1c3ecd7d7db842933c,606c0c6fbecf1d7b67fb583e,2021-04-06_09h24.51.126,Colour_Similarity_Experiment,2020.2.10,Win32,60,6067542a4a25243f4d7d4fcf,17.02555195,16.75748936,16.71570888,16.7303125,16.7187543,16.7303125,,,,,,,,,,,,,,,,,,,,PF,weak,3,,,,,,,,1,1.206495,,,,,,,,,,,,,,,,,,,,,,,,,,,,8,weak,-88,57.5,1,0,0,response7disk,8,121,-2,0.5,1,0,0,rectangle,-2,0.5,1,0,0,4,0,0.001635,-2,0.5,1,0,0,0,120,120,153,1,0,,,,,,,,,,,,,,,,,,,,,
,,,,,,,,,,,,,,,,,,,,,,,,,,,,,,,,,,,,,,,,,,,602d7e1c3ecd7d7db842933c,606c0c6fbecf1d7b67fb583e,2021-04-06_09h24.51.126,Colour_Similarity_Experiment,2020.2.10,Win32,60,6067542a4a25243f4d7d4fcf,17.02555195,16.75748936,16.71570888,16.7303125,16.7187543,16.7303125,,,,,,,,,,,,,,,,,,,,PF,weak,3,,,,,,,,5,2.8126,,,,,,,,,,,,,,,,,,,,,,,,,,,,7,weak,86,-33.5,1,0,0,response3disk,2,122,12,1.5,1,0,0,rectangle,12,1.5,1,0,0,4,5,0.001515,12,1.5,1,0,0,0,121,121,32,1,0,,,,,,,,,,,,,,,,,,,,,
,,,,,,,,,,,,,,,,,,,,,,,,,,,,,,,,,,,,,,,,,,,602d7e1c3ecd7d7db842933c,606c0c6fbecf1d7b67fb583e,2021-04-06_09h24.51.126,Colour_Similarity_Experiment,2020.2.10,Win32,60,6067542a4a25243f4d7d4fcf,17.02555195,16.75748936,16.71570888,16.7303125,16.7187543,16.7303125,,,,,,,,,,,,,,,,,,,,PF,strong,3,,,,,,,,7,2.71119,,,,,,,,,,,,,,,,,,,,,,,,,,,,3,strong,44,71.5,1,0,0,response1disk,7,123,2,2.5,1,0,0,rectangle,2,2.5,1,0,0,4,2,0.001575,2,2.5,1,0,0,0,122,122,118,1,0,,,,,,,,,,,,,,,,,,,,,
,,,,,,,,,,,,,,,,,,,,,,,,,,,,,,,,,,,,,,,,,,,602d7e1c3ecd7d7db842933c,606c0c6fbecf1d7b67fb583e,2021-04-06_09h24.51.126,Colour_Similarity_Experiment,2020.2.10,Win32,60,6067542a4a25243f4d7d4fcf,17.02555195,16.75748936,16.71570888,16.7303125,16.7187543,16.7303125,,,,,,,,,,,,,,,,,,,,PF,strong,3,,,,,,,,7,3.73269,,,,,,,,,,,,,,,,,,,,,,,,,,,,9,strong,40,89.5,1,0,0,response1disk,2,124,11,-1.5,1,0,0,rectangle,-119,-37.5,1,0,0,4,2,1.556285,7,0.5,1,0,0,0,123,123,11,1,1,response5disk_3,rectangle,,,,,,,,,,,,,,,,,,,
,,,,,,,,,,,,,,,,,,,,,,,,,,,,,,,,,,,,,,,,,,,602d7e1c3ecd7d7db842933c,606c0c6fbecf1d7b67fb583e,2021-04-06_09h24.51.126,Colour_Similarity_Experiment,2020.2.10,Win32,60,6067542a4a25243f4d7d4fcf,17.02555195,16.75748936,16.71570888,16.7303125,16.7187543,16.7303125,,,,,,,,,,,,,,,,,,,,PF,weak,3,,,,,,,,2,1.50656,,,,,,,,,,,,,,,,,,,,,,,,,,,,6,weak,-91,-39.5,1,0,0,response5disk,4,125,20,0.5,1,0,0,rectangle,20,0.5,1,0,0,4,4,0.002075,20,0.5,1,0,0,0,124,124,33,1,0,,,,,,,,,,,,,,,,,,,,,
,,,,,,,,,,,,,,,,,,,,,,,,,,,,,,,,,,,,,,,,,,,602d7e1c3ecd7d7db842933c,606c0c6fbecf1d7b67fb583e,2021-04-06_09h24.51.126,Colour_Similarity_Experiment,2020.2.10,Win32,60,6067542a4a25243f4d7d4fcf,17.02555195,16.75748936,16.71570888,16.7303125,16.7187543,16.7303125,,,,,,,,,,,,,,,,,,,,PF,weak,3,,,,,,,,1,1.591885,,,,,,,,,,,,,,,,,,,,,,,,,,,,3,weak,-69,17.5,1,0,0,response7disk,3,126,-7,-5.5,1,0,0,rectangle,-7,-5.5,1,0,0,4,3,0.00127,-7,-5.5,1,0,0,0,125,125,4,1,0,,,,,,,,,,,,,,,,,,,,,
,,,,,,,,,,,,,,,,,,,,,,,,,,,,,,,,,,,,,,,,,,,602d7e1c3ecd7d7db842933c,606c0c6fbecf1d7b67fb583e,2021-04-06_09h24.51.126,Colour_Similarity_Experiment,2020.2.10,Win32,60,6067542a4a25243f4d7d4fcf,17.02555195,16.75748936,16.71570888,16.7303125,16.7187543,16.7303125,,,,,,,,,,,,,,,,,,,,PF,weak,3,,,,,,,,5,1.422635,,,,,,,,,,,,,,,,,,,,,,,,,,,,2,weak,82,-42.5,1,0,0,response3disk,8,127,-5,6.5,1,0,0,rectangle,-5,6.5,1,0,0,4,3,0.000365,-5,6.5,1,0,0,0,126,126,52,1,0,,,,,,,,,,,,,,,,,,,,,
,,,,,,,,,,,,,,,,,,,,,,,,,,,,,,,,,,,,,,,,,,,602d7e1c3ecd7d7db842933c,606c0c6fbecf1d7b67fb583e,2021-04-06_09h24.51.126,Colour_Similarity_Experiment,2020.2.10,Win32,60,6067542a4a25243f4d7d4fcf,17.02555195,16.75748936,16.71570888,16.7303125,16.7187543,16.7303125,,,,,,,,,,,,,,,,,,,,PF,strong,3,,,,,,,,2,1.458425,,,,,,,,,,,,,,,,,,,,,,,,,,,,3,strong,-54,-29.5,1,0,0,response5disk,3,128,-4,-4.5,1,0,0,rectangle,-4,-4.5,1,0,0,4,2,0.00144,-4,-4.5,1,0,0,0,127,127,68,1,0,,,,,,,,,,,,,,,,,,,,,
,,,,,,,,,,,,,,,,,,,,,,,,,,,,,,,,,,,,,,,,,,,602d7e1c3ecd7d7db842933c,606c0c6fbecf1d7b67fb583e,2021-04-06_09h24.51.126,Colour_Similarity_Experiment,2020.2.10,Win32,60,6067542a4a25243f4d7d4fcf,17.02555195,16.75748936,16.71570888,16.7303125,16.7187543,16.7303125,,,,,,,,,,,,,,,,,,,,PF,weak,3,,,,,,,,6,2.29239,,,,,,,,,,,,,,,,,,,,,,,,,,,,2,weak,88,24.5,1,0,0,response1disk,5,129,31,1.5,1,0,0,rectangle,31,1.5,1,0,0,4,2,0.000435,31,1.5,1,0,0,0,128,128,147,1,0,,,,,,,,,,,,,,,,,,,,,
,,,,,,,,,,,,,,,,,,,,,,,,,,,,,,,,,,,,,,,,,,,602d7e1c3ecd7d7db842933c,606c0c6fbecf1d7b67fb583e,2021-04-06_09h24.51.126,Colour_Similarity_Experiment,2020.2.10,Win32,60,6067542a4a25243f4d7d4fcf,17.02555195,16.75748936,16.71570888,16.7303125,16.7187543,16.7303125,,,,,,,,,,,,,,,,,,,,PF,strong,3,,,,,,,,7,1.724565,,,,,,,,,,,,,,,,,,,,,,,,,,,,6,strong,38,88.5,1,0,0,response1disk,2,130,13,6.5,1,0,0,rectangle,13,6.5,1,0,0,4,7,0.001615,13,6.5,1,0,0,0,129,129,112,1,0,,,,,,,,,,,,,,,,,,,,,
,,,,,,,,,,,,,,,,,,,,,,,,,,,,,,,,,,,,,,,,,,,602d7e1c3ecd7d7db842933c,606c0c6fbecf1d7b67fb583e,2021-04-06_09h24.51.126,Colour_Similarity_Experiment,2020.2.10,Win32,60,6067542a4a25243f4d7d4fcf,17.02555195,16.75748936,16.71570888,16.7303125,16.7187543,16.7303125,,,,,,,,,,,,,,,,,,,,PF,strong,3,,,,,,,,3,1.338445,,,,,,,,,,,,,,,,,,,,,,,,,,,,7,strong,-33,-103.5,1,0,0,response5disk,6,131,11,-1.5,1,0,0,rectangle,11,-1.5,1,0,0,4,7,0.00021,11,-1.5,1,0,0,0,130,130,31,1,0,,,,,,,,,,,,,,,,,,,,,
,,,,,,,,,,,,,,,,,,,,,,,,,,,,,,,,,,,,,,,,,,,602d7e1c3ecd7d7db842933c,606c0c6fbecf1d7b67fb583e,2021-04-06_09h24.51.126,Colour_Similarity_Experiment,2020.2.10,Win32,60,6067542a4a25243f4d7d4fcf,17.02555195,16.75748936,16.71570888,16.7303125,16.7187543,16.7303125,,,,,,,,,,,,,,,,,,,,PF,weak,3,,,,,,,,5,1.55625,,,,,,,,,,,,,,,,,,,,,,,,,,,,6,weak,81,-35.5,1,0,0,response3disk,1,132,27,0.5,1,0,0,rectangle,27,0.5,1,0,0,4,1,0.002385,27,0.5,1,0,0,0,131,131,46,1,0,,,,,,,,,,,,,,,,,,,,,
,,,,,,,,,,,,,,,,,,,,,,,,,,,,,,,,,,,,,,,,,,,602d7e1c3ecd7d7db842933c,606c0c6fbecf1d7b67fb583e,2021-04-06_09h24.51.126,Colour_Similarity_Experiment,2020.2.10,Win32,60,6067542a4a25243f4d7d4fcf,17.02555195,16.75748936,16.71570888,16.7303125,16.7187543,16.7303125,,,,,,,,,,,,,,,,,,,,PF,weak,3,,,,,,,,0,1.255205,,,,,,,,,,,,,,,,,,,,,,,,,,,,6,weak,-44,82.5,1,0,0,response7disk,5,133,-14,-1.5,1,0,0,rectangle,-14,-1.5,1,0,0,4,3,0.00181,-14,-1.5,1,0,0,0,132,132,59,1,0,,,,,,,,,,,,,,,,,,,,,
,,,,,,,,,,,,,,,,,,,,,,,,,,,,,,,,,,,,,,,,,,,602d7e1c3ecd7d7db842933c,606c0c6fbecf1d7b67fb583e,2021-04-06_09h24.51.126,Colour_Similarity_Experiment,2020.2.10,Win32,60,6067542a4a25243f4d7d4fcf,17.02555195,16.75748936,16.71570888,16.7303125,16.7187543,16.7303125,,,,,,,,,,,,,,,,,,,,PF,weak,3,,,,,,,,3,1.37215,,,,,,,,,,,,,,,,,,,,,,,,,,,,2,weak,-24,-65.5,1,0,0,response5disk,3,134,20,4.5,1,0,0,rectangle,20,4.5,1,0,0,4,1,0.001555,20,4.5,1,0,0,0,133,133,69,1,0,,,,,,,,,,,,,,,,,,,,,
,,,,,,,,,,,,,,,,,,,,,,,,,,,,,,,,,,,,,,,,,,,602d7e1c3ecd7d7db842933c,606c0c6fbecf1d7b67fb583e,2021-04-06_09h24.51.126,Colour_Similarity_Experiment,2020.2.10,Win32,60,6067542a4a25243f4d7d4fcf,17.02555195,16.75748936,16.71570888,16.7303125,16.7187543,16.7303125,,,,,,,,,,,,,,,,,,,,PF,strong,3,,,,,,,,5,2.02451,,,,,,,,,,,,,,,,,,,,,,,,,,,,5,strong,83,-43.5,1,0,0,response3disk,2,135,24,-8.5,1,0,0,rectangle,18,-88.5,1,0,0,4,4,1.521685,-8,5.5,1,0,0,0,134,134,55,1,1,response3disk_3,rectangle,,,,,,,,,,,,,,,,,,,
,,,,,,,,,,,,,,,,,,,,,,,,,,,,,,,,,,,,,,,,,,,602d7e1c3ecd7d7db842933c,606c0c6fbecf1d7b67fb583e,2021-04-06_09h24.51.126,Colour_Similarity_Experiment,2020.2.10,Win32,60,6067542a4a25243f4d7d4fcf,17.02555195,16.75748936,16.71570888,16.7303125,16.7187543,16.7303125,,,,,,,,,,,,,,,,,,,,PF,strong,3,,,,,,,,4,2.12491,,,,,,,,,,,,,,,,,,,,,,,,,,,,3,strong,35,-82.5,1,0,0,response3disk,8,136,-2,8.5,1,0,0,rectangle,-2,8.5,1,0,0,4,7,0.00179,-2,8.5,1,0,0,0,135,135,44,1,0,,,,,,,,,,,,,,,,,,,,,
,,,,,,,,,,,,,,,,,,,,,,,,,,,,,,,,,,,,,,,,,,,602d7e1c3ecd7d7db842933c,606c0c6fbecf1d7b67fb583e,2021-04-06_09h24.51.126,Colour_Similarity_Experiment,2020.2.10,Win32,60,6067542a4a25243f4d7d4fcf,17.02555195,16.75748936,16.71570888,16.7303125,16.7187543,16.7303125,,,,,,,,,,,,,,,,,,,,PF,strong,3,,,,,,,,2,1.791215,,,,,,,,,,,,,,,,,,,,,,,,,,,,5,strong,-88,-59.5,1,0,0,response5disk,4,137,-11,-1.5,1,0,0,rectangle,-11,-1.5,1,0,0,4,4,0.00147,-11,-1.5,1,0,0,0,136,136,8,1,0,,,,,,,,,,,,,,,,,,,,,
,,,,,,,,,,,,,,,,,,,,,,,,,,,,,,,,,,,,,,,,,,,602d7e1c3ecd7d7db842933c,606c0c6fbecf1d7b67fb583e,2021-04-06_09h24.51.126,Colour_Similarity_Experiment,2020.2.10,Win32,60,6067542a4a25243f4d7d4fcf,17.02555195,16.75748936,16.71570888,16.7303125,16.7187543,16.7303125,,,,,,,,,,,,,,,,,,,,PF,strong,3,,,,,,,,3,1.089725,,,,,,,,,,,,,,,,,,,,,,,,,,,,5,strong,-37,-66.5,1,0,0,response5disk,9,138,-10,0.5,1,0,0,rectangle,-10,0.5,1,0,0,4,1,0.001405,-10,0.5,1,0,0,0,137,137,61,1,0,,,,,,,,,,,,,,,,,,,,,
,,,,,,,,,,,,,,,,,,,,,,,,,,,,,,,,,,,,,,,,,,,602d7e1c3ecd7d7db842933c,606c0c6fbecf1d7b67fb583e,2021-04-06_09h24.51.126,Colour_Similarity_Experiment,2020.2.10,Win32,60,6067542a4a25243f4d7d4fcf,17.02555195,16.75748936,16.71570888,16.7303125,16.7187543,16.7303125,,,,,,,,,,,,,,,,,,,,PF,strong,3,,,,,,,,5,1.25714,,,,,,,,,,,,,,,,,,,,,,,,,,,,8,strong,70,-31.5,1,0,0,response3disk,3,139,-17,6.5,1,0,0,rectangle,-17,6.5,1,0,0,4,5,0.001405,-17,6.5,1,0,0,0,138,138,154,1,0,,,,,,,,,,,,,,,,,,,,,
,,,,,,,,,,,,,,,,,,,,,,,,,,,,,,,,,,,,,,,,,,,602d7e1c3ecd7d7db842933c,606c0c6fbecf1d7b67fb583e,2021-04-06_09h24.51.126,Colour_Similarity_Experiment,2020.2.10,Win32,60,6067542a4a25243f4d7d4fcf,17.02555195,16.75748936,16.71570888,16.7303125,16.7187543,16.7303125,,,,,,,,,,,,,,,,,,,,PF,strong,3,,,,,,,,3,2.944025,,,,,,,,,,,,,,,,,,,,,,,,,,,,5,strong,-27,-82.5,1,0,0,response5disk,8,140,23,10.5,1,0,0,rectangle,23,10.5,1,0,0,4,7,0.00323,23,10.5,1,0,0,0,139,139,16,1,0,,,,,,,,,,,,,,,,,,,,,
,,,,,,,,,,,,,,,,,,,,,,,,,,,,,,,,,,,,,,,,,,,602d7e1c3ecd7d7db842933c,606c0c6fbecf1d7b67fb583e,2021-04-06_09h24.51.126,Colour_Similarity_Experiment,2020.2.10,Win32,60,6067542a4a25243f4d7d4fcf,17.02555195,16.75748936,16.71570888,16.7303125,16.7187543,16.7303125,,,,,,,,,,,,,,,,,,,,PF,strong,3,,,,,,,,3,2.380795,,,,,,,,,,,,,,,,,,,,,,,,,,,,4,strong,-17,-77.5,1,0,0,response5disk,5,141,4,-4.5,1,0,0,rectangle,4,-4.5,1,0,0,4,6,0.00095,4,-4.5,1,0,0,0,140,140,116,1,0,,,,,,,,,,,,,,,,,,,,,
,,,,,,,,,,,,,,,,,,,,,,,,,,,,,,,,,,,,,,,,,,,602d7e1c3ecd7d7db842933c,606c0c6fbecf1d7b67fb583e,2021-04-06_09h24.51.126,Colour_Similarity_Experiment,2020.2.10,Win32,60,6067542a4a25243f4d7d4fcf,17.02555195,16.75748936,16.71570888,16.7303125,16.7187543,16.7303125,,,,,,,,,,,,,,,,,,,,PF,weak,3,,,,,,,,2,1.18856,,,,,,,,,,,,,,,,,,,,,,,,,,,,1,weak,-104,-49.5,1,0,0,response5disk,9,142,-12,-2.5,1,0,0,rectangle,-12,-2.5,1,0,0,4,5,0.00231,-12,-2.5,1,0,0,0,141,141,15,1,0,,,,,,,,,,,,,,,,,,,,,
,,,,,,,,,,,,,,,,,,,,,,,,,,,,,,,,,,,,,,,,,,,602d7e1c3ecd7d7db842933c,606c0c6fbecf1d7b67fb583e,2021-04-06_09h24.51.126,Colour_Similarity_Experiment,2020.2.10,Win32,60,6067542a4a25243f4d7d4fcf,17.02555195,16.75748936,16.71570888,16.7303125,16.7187543,16.7303125,,,,,,,,,,,,,,,,,,,,PF,strong,3,,,,,,,,4,1.94157,,,,,,,,,,,,,,,,,,,,,,,,,,,,4,strong,46,-90.5,1,0,0,response3disk,6,143,-2,-2.5,1,0,0,rectangle,-2,-2.5,1,0,0,4,2,0.00153,-2,-2.5,1,0,0,0,142,142,122,1,0,,,,,,,,,,,,,,,,,,,,,
,,,,,,,,,,,,,,,,,,,,,,,,,,,,,,,,,,,,,,,,,,,602d7e1c3ecd7d7db842933c,606c0c6fbecf1d7b67fb583e,2021-04-06_09h24.51.126,Colour_Similarity_Experiment,2020.2.10,Win32,60,6067542a4a25243f4d7d4fcf,17.02555195,16.75748936,16.71570888,16.7303125,16.7187543,16.7303125,,,,,,,,,,,,,,,,,,,,PF,weak,3,,,,,,,,2,3.379255,,,,,,,,,,,,,,,,,,,,,,,,,,,,9,weak,-70,-34.5,1,0,0,response5disk,6,144,25,6.5,1,0,0,rectangle,25,6.5,1,0,0,4,3,0.002245,25,6.5,1,0,0,0,143,143,148,1,0,,,,,,,,,,,,,,,,,,,,,
,,,,,,,,,,,,,,,,,,,,,,,,,,,,,,,,,,,,,,,,,,,602d7e1c3ecd7d7db842933c,606c0c6fbecf1d7b67fb583e,2021-04-06_09h24.51.126,Colour_Similarity_Experiment,2020.2.10,Win32,60,6067542a4a25243f4d7d4fcf,17.02555195,16.75748936,16.71570888,16.7303125,16.7187543,16.7303125,,,,,,,,,,,,,,,,,,,,PF,weak,3,,,,,,,,7,2.27197,,,,,,,,,,,,,,,,,,,,,,,,,,,,4,weak,48,84.5,1,0,0,response1disk,1,145,23,4.5,1,0,0,rectangle,23,4.5,1,0,0,4,2,0.0022,23,4.5,1,0,0,0,144,144,115,1,0,,,,,,,,,,,,,,,,,,,,,
,,,,,,,,,,,,,,,,,,,,,,,,,,,,,,,,,,,,,,,,,,,602d7e1c3ecd7d7db842933c,606c0c6fbecf1d7b67fb583e,2021-04-06_09h24.51.126,Colour_Similarity_Experiment,2020.2.10,Win32,60,6067542a4a25243f4d7d4fcf,17.02555195,16.75748936,16.71570888,16.7303125,16.7187543,16.7303125,,,,,,,,,,,,,,,,,,,,PF,weak,3,,,,,,,,1,2.07464,,,,,,,,,,,,,,,,,,,,,,,,,,,,5,weak,-60,39.5,1,0,0,response7disk,7,146,-16,-3.5,1,0,0,rectangle,-16,-3.5,1,0,0,4,4,0.00158,-16,-3.5,1,0,0,0,145,145,146,1,0,,,,,,,,,,,,,,,,,,,,,
,,,,,,,,,,,,,,,,,,,,,,,,,,,,,,,,,,,,,,,,,,,602d7e1c3ecd7d7db842933c,606c0c6fbecf1d7b67fb583e,2021-04-06_09h24.51.126,Colour_Similarity_Experiment,2020.2.10,Win32,60,6067542a4a25243f4d7d4fcf,17.02555195,16.75748936,16.71570888,16.7303125,16.7187543,16.7303125,,,,,,,,,,,,,,,,,,,,PF,strong,3,,,,,,,,3,1.104695,,,,,,,,,,,,,,,,,,,,,,,,,,,,8,strong,-40,-89.5,1,0,0,response5disk,1,147,-5,2.5,1,0,0,rectangle,-5,2.5,1,0,0,4,3,0.0017,-5,2.5,1,0,0,0,146,146,20,1,0,,,,,,,,,,,,,,,,,,,,,
,,,,,,,,,,,,,,,,,,,,,,,,,,,,,,,,,,,,,,,,,,,602d7e1c3ecd7d7db842933c,606c0c6fbecf1d7b67fb583e,2021-04-06_09h24.51.126,Colour_Similarity_Experiment,2020.2.10,Win32,60,6067542a4a25243f4d7d4fcf,17.02555195,16.75748936,16.71570888,16.7303125,16.7187543,16.7303125,,,,,,,,,,,,,,,,,,,,PF,weak,3,,,,,,,,4,2.811685,,,,,,,,,,,,,,,,,,,,,,,,,,,,5,weak,49,-77.5,1,0,0,response3disk,8,148,-1,0.5,1,0,0,rectangle,-1,0.5,1,0,0,4,2,0.00153,-1,0.5,1,0,0,0,147,147,149,1,0,,,,,,,,,,,,,,,,,,,,,
,,,,,,,,,,,,,,,,,,,,,,,,,,,,,,,,,,,,,,,,,,,602d7e1c3ecd7d7db842933c,606c0c6fbecf1d7b67fb583e,2021-04-06_09h24.51.126,Colour_Similarity_Experiment,2020.2.10,Win32,60,6067542a4a25243f4d7d4fcf,17.02555195,16.75748936,16.71570888,16.7303125,16.7187543,16.7303125,,,,,,,,,,,,,,,,,,,,PF,strong,3,,,,,,,,6,1.96161,,,,,,,,,,,,,,,,,,,,,,,,,,,,3,strong,73,24.5,1,0,0,response1disk,9,149,15,-7.5,1,0,0,rectangle,15,-7.5,1,0,0,4,0,0.00147,15,-7.5,1,0,0,0,148,148,143,1,0,,,,,,,,,,,,,,,,,,,,,
,,,,,,,,,,,,,,,,,,,,,,,,,,,,,,,,,,,,,,,,,,,602d7e1c3ecd7d7db842933c,606c0c6fbecf1d7b67fb583e,2021-04-06_09h24.51.126,Colour_Similarity_Experiment,2020.2.10,Win32,60,6067542a4a25243f4d7d4fcf,17.02555195,16.75748936,16.71570888,16.7303125,16.7187543,16.7303125,,,,,,,,,,,,,,,,,,,,PF,weak,3,,,,,,,,5,2.141675,,,,,,,,,,,,,,,,,,,,,,,,,,,,4,weak,63,-52.5,1,0,0,response3disk,7,150,0,-6.5,1,0,0,rectangle,0,-6.5,1,0,0,4,4,0.00225,0,-6.5,1,0,0,0,149,149,38,1,0,,,,,,,,,,,,,,,,,,,,,
,,,,,,,,,,,,,,,,,,,,,,,,,,,,,,,,,,,,,,,,,,,602d7e1c3ecd7d7db842933c,606c0c6fbecf1d7b67fb583e,2021-04-06_09h24.51.126,Colour_Similarity_Experiment,2020.2.10,Win32,60,6067542a4a25243f4d7d4fcf,17.02555195,16.75748936,16.71570888,16.7303125,16.7187543,16.7303125,,,,,,,,,,,,,,,,,,,,PF,strong,3,,,,,,,,2,2.175995,,,,,,,,,,,,,,,,,,,,,,,,,,,,7,strong,-69,-56.5,1,0,0,response5disk,9,151,18,-2.5,1,0,0,rectangle,18,-2.5,1,0,0,4,2,0.001855,18,-2.5,1,0,0,0,150,150,155,1,0,,,,,,,,,,,,,,,,,,,,,
,,,,,,,,,,,,,,,,,,,,,,,,,,,,,,,,,,,,,,,,,,,602d7e1c3ecd7d7db842933c,606c0c6fbecf1d7b67fb583e,2021-04-06_09h24.51.126,Colour_Similarity_Experiment,2020.2.10,Win32,60,6067542a4a25243f4d7d4fcf,17.02555195,16.75748936,16.71570888,16.7303125,16.7187543,16.7303125,,,,,,,,,,,,,,,,,,,,PF,weak,3,,,,,,,,3,1.68991,,,,,,,,,,,,,,,,,,,,,,,,,,,,3,weak,-44,-89.5,1,0,0,response5disk,5,152,11,0.5,1,0,0,rectangle,11,0.5,1,0,0,4,0,0.001785,11,0.5,1,0,0,0,151,151,66,1,0,,,,,,,,,,,,,,,,,,,,,
,,,,,,,,,,,,,,,,,,,,,,,,,,,,,,,,,,,,,,,,,,,602d7e1c3ecd7d7db842933c,606c0c6fbecf1d7b67fb583e,2021-04-06_09h24.51.126,Colour_Similarity_Experiment,2020.2.10,Win32,60,6067542a4a25243f4d7d4fcf,17.02555195,16.75748936,16.71570888,16.7303125,16.7187543,16.7303125,,,,,,,,,,,,,,,,,,,,PF,weak,3,,,,,,,,4,1.02084,,,,,,,,,,,,,,,,,,,,,,,,,,,,7,weak,27,-81.5,1,0,0,response3disk,4,153,-6,-5.5,1,0,0,rectangle,-6,-5.5,1,0,0,4,2,0.001895,-6,-5.5,1,0,0,0,152,152,43,1,0,,,,,,,,,,,,,,,,,,,,,
,,,,,,,,,,,,,,,,,,,,,,,,,,,,,,,,,,,,,,,,,,,602d7e1c3ecd7d7db842933c,606c0c6fbecf1d7b67fb583e,2021-04-06_09h24.51.126,Colour_Similarity_Experiment,2020.2.10,Win32,60,6067542a4a25243f4d7d4fcf,17.02555195,16.75748936,16.71570888,16.7303125,16.7187543,16.7303125,,,,,,,,,,,,,,,,,,,,PF,weak,3,,,,,,,,7,1.305215,,,,,,,,,,,,,,,,,,,,,,,,,,,,2,weak,42,70.5,1,0,0,response1disk,7,154,17,-0.5,1,0,0,rectangle,17,-0.5,1,0,0,4,1,0.00121,17,-0.5,1,0,0,0,153,153,107,1,0,,,,,,,,,,,,,,,,,,,,,
,,,,,,,,,,,,,,,,,,,,,,,,,,,,,,,,,,,,,,,,,,,602d7e1c3ecd7d7db842933c,606c0c6fbecf1d7b67fb583e,2021-04-06_09h24.51.126,Colour_Similarity_Experiment,2020.2.10,Win32,60,6067542a4a25243f4d7d4fcf,17.02555195,16.75748936,16.71570888,16.7303125,16.7187543,16.7303125,,,,,,,,,,,,,,,,,,,,PF,strong,3,,,,,,,,5,2.60967,,,,,,,,,,,,,,,,,,,,,,,,,,,,3,strong,74,-46.5,1,0,0,response3disk,6,155,8,-2.5,1,0,0,rectangle,8,-2.5,1,0,0,4,2,0.001315,8,-2.5,1,0,0,0,154,154,95,1,0,,,,,,,,,,,,,,,,,,,,,
,,,,,,,,,,,,,,,,,,,,,,,,,,,,,,,,,,,,,,,,,,,602d7e1c3ecd7d7db842933c,606c0c6fbecf1d7b67fb583e,2021-04-06_09h24.51.126,Colour_Similarity_Experiment,2020.2.10,Win32,60,6067542a4a25243f4d7d4fcf,17.02555195,16.75748936,16.71570888,16.7303125,16.7187543,16.7303125,,,,,,,,,,,,,,,,,,,,PF,strong,3,,,,,,,,4,2.093625,,,,,,,,,,,,,,,,,,,,,,,,,,,,3,strong,51,-87.5,1,0,0,response3disk,5,156,-4,0.5,1,0,0,rectangle,-4,0.5,1,0,0,4,1,0.00144,-4,0.5,1,0,0,0,155,155,101,1,0,,,,,,,,,,,,,,,,,,,,,
,,,,,,,,,,,,,,,,,,,,,,,,,,,,,,,,,,,,,,,,,,,602d7e1c3ecd7d7db842933c,606c0c6fbecf1d7b67fb583e,2021-04-06_09h24.51.126,Colour_Similarity_Experiment,2020.2.10,Win32,60,6067542a4a25243f4d7d4fcf,17.02555195,16.75748936,16.71570888,16.7303125,16.7187543,16.7303125,,,,,,,,,,,,,,,,,,,,PF,strong,3,,,,,,,,5,2.15978,,,,,,,,,,,,,,,,,,,,,,,,,,,,2,strong,72,-40.5,1,0,0,response3disk,1,157,14,4.5,1,0,0,rectangle,14,4.5,1,0,0,4,3,0.00118,14,4.5,1,0,0,0,156,156,85,1,0,,,,,,,,,,,,,,,,,,,,,
,,,,,,,,,,,,,,,,,,,,,,,,,,,,,,,,,,,,,,,,,,,602d7e1c3ecd7d7db842933c,606c0c6fbecf1d7b67fb583e,2021-04-06_09h24.51.126,Colour_Similarity_Experiment,2020.2.10,Win32,60,6067542a4a25243f4d7d4fcf,17.02555195,16.75748936,16.71570888,16.7303125,16.7187543,16.7303125,,,,,,,,,,,,,,,,,,,,PF,strong,3,,,,,,,,3,1.62506,,,,,,,,,,,,,,,,,,,,,,,,,,,,1,strong,-47,-85.5,1,0,0,response5disk,8,158,-8,3.5,1,0,0,rectangle,-8,3.5,1,0,0,4,1,0.001425,-8,3.5,1,0,0,0,157,157,27,1,0,,,,,,,,,,,,,,,,,,,,,
,,,,,,,,,,,,,,,,,,,,,,,,,,,,,,,,,,,,,,,,,,,602d7e1c3ecd7d7db842933c,606c0c6fbecf1d7b67fb583e,2021-04-06_09h24.51.126,Colour_Similarity_Experiment,2020.2.10,Win32,60,6067542a4a25243f4d7d4fcf,17.02555195,16.75748936,16.71570888,16.7303125,16.7187543,16.7303125,,,,,,,,,,,,,,,,,,,,PF,strong,3,,,,,,,,2,2.84335,,,,,,,,,,,,,,,,,,,,,,,,,,,,7,strong,-72,-49.5,1,0,0,response5disk,8,159,14,1.5,1,0,0,rectangle,55,90.5,1,0,0,7,7,2.023065,-13,-9.5,1,0,0,0,158,158,97,1,1,response1disk_3,rectangle,,,,,,,,,,,,,,,,,,,
,,,,,,,,,,,,,,,,,,,,,,,,,,,,,,,,,,,,,,,,,,,602d7e1c3ecd7d7db842933c,606c0c6fbecf1d7b67fb583e,2021-04-06_09h24.51.126,Colour_Similarity_Experiment,2020.2.10,Win32,60,6067542a4a25243f4d7d4fcf,17.02555195,16.75748936,16.71570888,16.7303125,16.7187543,16.7303125,,,,,,,,,,,,,,,,,,,,PF,strong,3,,,,,,,,0,2.208655,,,,,,,,,,,,,,,,,,,,,,,,,,,,4,strong,-30,95.5,1,0,0,response7disk,4,160,-23,1.5,1,0,0,rectangle,-23,1.5,1,0,0,7,7,0.00026,-23,1.5,1,0,0,0,159,159,84,1,0,,,,,,,,,,,,,,,,,,,,,
,,,,,,,,,,,,,,,,,,,,,,,,,,,,,,,,,,,,,,,,,,,602d7e1c3ecd7d7db842933c,606c0c6fbecf1d7b67fb583e,2021-04-06_09h24.51.126,Colour_Similarity_Experiment,2020.2.10,Win32,60,6067542a4a25243f4d7d4fcf,17.02555195,16.75748936,16.71570888,16.7303125,16.7187543,16.7303125,,,,,,,,,,,,,,,,,,,,PF,strong,3,,,,,,,,1,1.40985,,,,,,,,,,,,,,,,,,,,,,,,,,,,7,strong,-76,31.5,1,0,0,response7disk,7,161,-16,-0.5,1,0,0,rectangle,-16,-0.5,1,0,0,7,7,0.000185,-16,-0.5,1,0,0,0,160,160,34,1,0,,,,,,,,,,,,,,,,,,,,,
,,,,,,,,,,,,,,,,,,,,,,,,,,,,,,,,,,,,,,,,,,,602d7e1c3ecd7d7db842933c,606c0c6fbecf1d7b67fb583e,2021-04-06_09h24.51.126,Colour_Similarity_Experiment,2020.2.10,Win32,60,6067542a4a25243f4d7d4fcf,17.02555195,16.75748936,16.71570888,16.7303125,16.7187543,16.7303125,,,,,,,,,,,,,,,,,,,,PF,weak,3,,,,,,,,4,1.35723,,,,,,,,,,,,,,,,,,,,,,,,,,,,1,weak,39,-92.5,1,0,0,response3disk,5,162,2,4.5,1,0,0,rectangle,2,4.5,1,0,0,7,0,0.001515,2,4.5,1,0,0,0,161,161,28,1,0,,,,,,,,,,,,,,,,,,,,,
,,,,,,,,,,,,,,,,,,,,,,,,,,,,,,,,,,,,,,,,,,,602d7e1c3ecd7d7db842933c,606c0c6fbecf1d7b67fb583e,2021-04-06_09h24.51.126,Colour_Similarity_Experiment,2020.2.10,Win32,60,6067542a4a25243f4d7d4fcf,17.02555195,16.75748936,16.71570888,16.7303125,16.7187543,16.7303125,,,,,,,,,,,,,,,,,,,,,,,,,,,,,,,,,,,,,,,,,,,,,,,,,,,,,,,,,,,,,,,,,,,,,,,,,,,,,,,,,,,,,,,,,,,,,,,,0,0,0,0,1,,,,,,,,,,,,,,
,,,,,,,,,,,,,,,,,,,,,,,,,,,,,,,,,,,,,,,,,,,602d7e1c3ecd7d7db842933c,606c0c6fbecf1d7b67fb583e,2021-04-06_09h24.51.126,Colour_Similarity_Experiment,2020.2.10,Win32,60,6067542a4a25243f4d7d4fcf,17.02555195,16.75748936,16.71570888,16.7303125,16.7187543,16.7303125,,,,,,,,,,,,,,,,,,,,PF,weak,3,,,,,,,,6,1.64173,,,,,,,,,,,,,,,,,,,,,,,,,,,,6,weak,66,28.5,1,0,0,response1disk,9,163,-2,-7.5,1,0,0,rectangle,-2,-7.5,1,0,0,7,0,0.000935,-2,-7.5,1,0,0,0,0,0,45,1,0,,,,,,,,,,,,,,,,,,,,,
,,,,,,,,,,,,,,,,,,,,,,,,,,,,,,,,,,,,,,,,,,,602d7e1c3ecd7d7db842933c,606c0c6fbecf1d7b67fb583e,2021-04-06_09h24.51.126,Colour_Similarity_Experiment,2020.2.10,Win32,60,6067542a4a25243f4d7d4fcf,17.02555195,16.75748936,16.71570888,16.7303125,16.7187543,16.7303125,,,,,,,,,,,,,,,,,,,,PF,weak,3,,,,,,,,4,2.342,,,,,,,,,,,,,,,,,,,,,,,,,,,,5,weak,35,-89.5,1,0,0,response3disk,4,164,12,5.5,1,0,0,rectangle,12,5.5,1,0,0,7,0,0.00105,12,5.5,1,0,0,0,1,1,54,1,0,,,,,,,,,,,,,,,,,,,,,
,,,,,,,,,,,,,,,,,,,,,,,,,,,,,,,,,,,,,,,,,,,602d7e1c3ecd7d7db842933c,606c0c6fbecf1d7b67fb583e,2021-04-06_09h24.51.126,Colour_Similarity_Experiment,2020.2.10,Win32,60,6067542a4a25243f4d7d4fcf,17.02555195,16.75748936,16.71570888,16.7303125,16.7187543,16.7303125,,,,,,,,,,,,,,,,,,,,PF,strong,3,,,,,,,,3,2.024825,,,,,,,,,,,,,,,,,,,,,,,,,,,,6,strong,-41,-88.5,1,0,0,response5disk,3,165,9,-0.5,1,0,0,rectangle,9,-0.5,1,0,0,7,7,0.001395,9,-0.5,1,0,0,0,2,2,21,1,0,,,,,,,,,,,,,,,,,,,,,
,,,,,,,,,,,,,,,,,,,,,,,,,,,,,,,,,,,,,,,,,,,602d7e1c3ecd7d7db842933c,606c0c6fbecf1d7b67fb583e,2021-04-06_09h24.51.126,Colour_Similarity_Experiment,2020.2.10,Win32,60,6067542a4a25243f4d7d4fcf,17.02555195,16.75748936,16.71570888,16.7303125,16.7187543,16.7303125,,,,,,,,,,,,,,,,,,,,PF,strong,3,,,,,,,,5,0.987325,,,,,,,,,,,,,,,,,,,,,,,,,,,,8,strong,64,-26.5,1,0,0,response3disk,5,166,28,-1.5,1,0,0,rectangle,28,-1.5,1,0,0,7,7,0.000175,28,-1.5,1,0,0,0,3,3,152,1,0,,,,,,,,,,,,,,,,,,,,,
,,,,,,,,,,,,,,,,,,,,,,,,,,,,,,,,,,,,,,,,,,,602d7e1c3ecd7d7db842933c,606c0c6fbecf1d7b67fb583e,2021-04-06_09h24.51.126,Colour_Similarity_Experiment,2020.2.10,Win32,60,6067542a4a25243f4d7d4fcf,17.02555195,16.75748936,16.71570888,16.7303125,16.7187543,16.7303125,,,,,,,,,,,,,,,,,,,,PF,strong,3,,,,,,,,5,1.85833,,,,,,,,,,,,,,,,,,,,,,,,,,,,1,strong,70,-43.5,1,0,0,response3disk,4,167,21,6.5,1,0,0,rectangle,21,6.5,1,0,0,7,7,0.000325,21,6.5,1,0,0,0,4,4,135,1,0,,,,,,,,,,,,,,,,,,,,,
,,,,,,,,,,,,,,,,,,,,,,,,,,,,,,,,,,,,,,,,,,,602d7e1c3ecd7d7db842933c,606c0c6fbecf1d7b67fb583e,2021-04-06_09h24.51.126,Colour_Similarity_Experiment,2020.2.10,Win32,60,6067542a4a25243f4d7d4fcf,17.02555195,16.75748936,16.71570888,16.7303125,16.7187543,16.7303125,,,,,,,,,,,,,,,,,,,,PF,strong,3,,,,,,,,4,0.972835,,,,,,,,,,,,,,,,,,,,,,,,,,,,7,strong,36,-70.5,1,0,0,response3disk,5,168,6,-6.5,1,0,0,rectangle,6,-6.5,1,0,0,7,0,0.001395,6,-6.5,1,0,0,0,5,5,156,1,0,,,,,,,,,,,,,,,,,,,,,
,,,,,,,,,,,,,,,,,,,,,,,,,,,,,,,,,,,,,,,,,,,602d7e1c3ecd7d7db842933c,606c0c6fbecf1d7b67fb583e,2021-04-06_09h24.51.126,Colour_Similarity_Experiment,2020.2.10,Win32,60,6067542a4a25243f4d7d4fcf,17.02555195,16.75748936,16.71570888,16.7303125,16.7187543,16.7303125,,,,,,,,,,,,,,,,,,,,PF,strong,3,,,,,,,,2,1.29015,,,,,,,,,,,,,,,,,,,,,,,,,,,,8,strong,-70,-37.5,1,0,0,response5disk,8,169,-5,-3.5,1,0,0,rectangle,-5,-3.5,1,0,0,7,2,0.00154,-5,-3.5,1,0,0,0,6,6,48,1,0,,,,,,,,,,,,,,,,,,,,,
,,,,,,,,,,,,,,,,,,,,,,,,,,,,,,,,,,,,,,,,,,,602d7e1c3ecd7d7db842933c,606c0c6fbecf1d7b67fb583e,2021-04-06_09h24.51.126,Colour_Similarity_Experiment,2020.2.10,Win32,60,6067542a4a25243f4d7d4fcf,17.02555195,16.75748936,16.71570888,16.7303125,16.7187543,16.7303125,,,,,,,,,,,,,,,,,,,,PF,weak,3,,,,,,,,3,2.07443,,,,,,,,,,,,,,,,,,,,,,,,,,,,5,weak,-36,-81.5,1,0,0,response5disk,3,170,3,4.5,1,0,0,rectangle,3,4.5,1,0,0,7,4,0.00174,3,4.5,1,0,0,0,7,7,109,1,0,,,,,,,,,,,,,,,,,,,,,
,,,,,,,,,,,,,,,,,,,,,,,,,,,,,,,,,,,,,,,,,,,602d7e1c3ecd7d7db842933c,606c0c6fbecf1d7b67fb583e,2021-04-06_09h24.51.126,Colour_Similarity_Experiment,2020.2.10,Win32,60,6067542a4a25243f4d7d4fcf,17.02555195,16.75748936,16.71570888,16.7303125,16.7187543,16.7303125,,,,,,,,,,,,,,,,,,,,PF,strong,3,,,,,,,,6,2.577865,,,,,,,,,,,,,,,,,,,,,,,,,,,,2,strong,71,31.5,1,0,0,response1disk,2,171,3,1.5,1,0,0,rectangle,3,1.5,1,0,0,7,4,0.00105,3,1.5,1,0,0,0,8,8,142,1,0,,,,,,,,,,,,,,,,,,,,,
,,,,,,,,,,,,,,,,,,,,,,,,,,,,,,,,,,,,,,,,,,,602d7e1c3ecd7d7db842933c,606c0c6fbecf1d7b67fb583e,2021-04-06_09h24.51.126,Colour_Similarity_Experiment,2020.2.10,Win32,60,6067542a4a25243f4d7d4fcf,17.02555195,16.75748936,16.71570888,16.7303125,16.7187543,16.7303125,,,,,,,,,,,,,,,,,,,,PF,weak,3,,,,,,,,1,1.271075,,,,,,,,,,,,,,,,,,,,,,,,,,,,7,weak,-70,53.5,1,0,0,response7disk,8,172,-15,6.5,1,0,0,rectangle,-15,6.5,1,0,0,7,3,0.00219,-15,6.5,1,0,0,0,9,9,140,1,0,,,,,,,,,,,,,,,,,,,,,
,,,,,,,,,,,,,,,,,,,,,,,,,,,,,,,,,,,,,,,,,,,602d7e1c3ecd7d7db842933c,606c0c6fbecf1d7b67fb583e,2021-04-06_09h24.51.126,Colour_Similarity_Experiment,2020.2.10,Win32,60,6067542a4a25243f4d7d4fcf,17.02555195,16.75748936,16.71570888,16.7303125,16.7187543,16.7303125,,,,,,,,,,,,,,,,,,,,PF,strong,3,,,,,,,,2,1.222645,,,,,,,,,,,,,,,,,,,,,,,,,,,,9,strong,-62,-31.5,1,0,0,response5disk,1,173,1,-2.5,1,0,0,rectangle,1,-2.5,1,0,0,7,0,0.001365,1,-2.5,1,0,0,0,10,10,111,1,0,,,,,,,,,,,,,,,,,,,,,
,,,,,,,,,,,,,,,,,,,,,,,,,,,,,,,,,,,,,,,,,,,602d7e1c3ecd7d7db842933c,606c0c6fbecf1d7b67fb583e,2021-04-06_09h24.51.126,Colour_Similarity_Experiment,2020.2.10,Win32,60,6067542a4a25243f4d7d4fcf,17.02555195,16.75748936,16.71570888,16.7303125,16.7187543,16.7303125,,,,,,,,,,,,,,,,,,,,PF,strong,3,,,,,,,,3,1.08976,,,,,,,,,,,,,,,,,,,,,,,,,,,,3,strong,-35,-71.5,1,0,0,response5disk,4,174,-4,3.5,1,0,0,rectangle,-4,3.5,1,0,0,7,7,0.001345,-4,3.5,1,0,0,0,11,11,110,1,0,,,,,,,,,,,,,,,,,,,,,
,,,,,,,,,,,,,,,,,,,,,,,,,,,,,,,,,,,,,,,,,,,602d7e1c3ecd7d7db842933c,606c0c6fbecf1d7b67fb583e,2021-04-06_09h24.51.126,Colour_Similarity_Experiment,2020.2.10,Win32,60,6067542a4a25243f4d7d4fcf,17.02555195,16.75748936,16.71570888,16.7303125,16.7187543,16.7303125,,,,,,,,,,,,,,,,,,,,PF,strong,3,,,,,,,,5,2.126365,,,,,,,,,,,,,,,,,,,,,,,,,,,,6,strong,80,-46.5,1,0,0,response3disk,1,175,23,-7.5,1,0,0,rectangle,23,-7.5,1,0,0,7,1,0.002025,23,-7.5,1,0,0,0,12,12,5,1,0,,,,,,,,,,,,,,,,,,,,,
,,,,,,,,,,,,,,,,,,,,,,,,,,,,,,,,,,,,,,,,,,,602d7e1c3ecd7d7db842933c,606c0c6fbecf1d7b67fb583e,2021-04-06_09h24.51.126,Colour_Similarity_Experiment,2020.2.10,Win32,60,6067542a4a25243f4d7d4fcf,17.02555195,16.75748936,16.71570888,16.7303125,16.7187543,16.7303125,,,,,,,,,,,,,,,,,,,,PF,weak,3,,,,,,,,3,1.72493,,,,,,,,,,,,,,,,,,,,,,,,,,,,7,weak,-21,-98.5,1,0,0,response5disk,1,176,27,9.5,1,0,0,rectangle,27,9.5,1,0,0,7,4,0.001325,27,9.5,1,0,0,0,13,13,53,1,0,,,,,,,,,,,,,,,,,,,,,
,,,,,,,,,,,,,,,,,,,,,,,,,,,,,,,,,,,,,,,,,,,602d7e1c3ecd7d7db842933c,606c0c6fbecf1d7b67fb583e,2021-04-06_09h24.51.126,Colour_Similarity_Experiment,2020.2.10,Win32,60,6067542a4a25243f4d7d4fcf,17.02555195,16.75748936,16.71570888,16.7303125,16.7187543,16.7303125,,,,,,,,,,,,,,,,,,,,PF,weak,3,,,,,,,,1,1.389055,,,,,,,,,,,,,,,,,,,,,,,,,,,,9,weak,-54,44.5,1,0,0,response7disk,9,177,4,4.5,1,0,0,rectangle,4,4.5,1,0,0,7,1,0.001275,4,4.5,1,0,0,0,14,14,106,1,0,,,,,,,,,,,,,,,,,,,,,
,,,,,,,,,,,,,,,,,,,,,,,,,,,,,,,,,,,,,,,,,,,602d7e1c3ecd7d7db842933c,606c0c6fbecf1d7b67fb583e,2021-04-06_09h24.51.126,Colour_Similarity_Experiment,2020.2.10,Win32,60,6067542a4a25243f4d7d4fcf,17.02555195,16.75748936,16.71570888,16.7303125,16.7187543,16.7303125,,,,,,,,,,,,,,,,,,,,PF,strong,3,,,,,,,,5,2.927565,,,,,,,,,,,,,,,,,,,,,,,,,,,,7,strong,75,-49.5,1,0,0,response3disk,4,178,-5,-1.5,1,0,0,rectangle,-5,-1.5,1,0,0,7,2,0.001395,-5,-1.5,1,0,0,0,15,15,158,1,0,,,,,,,,,,,,,,,,,,,,,
,,,,,,,,,,,,,,,,,,,,,,,,,,,,,,,,,,,,,,,,,,,602d7e1c3ecd7d7db842933c,606c0c6fbecf1d7b67fb583e,2021-04-06_09h24.51.126,Colour_Similarity_Experiment,2020.2.10,Win32,60,6067542a4a25243f4d7d4fcf,17.02555195,16.75748936,16.71570888,16.7303125,16.7187543,16.7303125,,,,,,,,,,,,,,,,,,,,PF,strong,3,,,,,,,,4,1.57436,,,,,,,,,,,,,,,,,,,,,,,,,,,,2,strong,34,-93.5,1,0,0,response3disk,4,179,1,-2.5,1,0,0,rectangle,1,-2.5,1,0,0,7,4,0.001505,1,-2.5,1,0,0,0,16,16,145,1,0,,,,,,,,,,,,,,,,,,,,,
,,,,,,,,,,,,,,,,,,,,,,,,,,,,,,,,,,,,,,,,,,,602d7e1c3ecd7d7db842933c,606c0c6fbecf1d7b67fb583e,2021-04-06_09h24.51.126,Colour_Similarity_Experiment,2020.2.10,Win32,60,6067542a4a25243f4d7d4fcf,17.02555195,16.75748936,16.71570888,16.7303125,16.7187543,16.7303125,,,,,,,,,,,,,,,,,,,,PF,strong,3,,,,,,,,3,1.372625,,,,,,,,,,,,,,,,,,,,,,,,,,,,6,strong,-65,-89.5,1,0,0,response5disk,4,180,-8,-3.5,1,0,0,rectangle,-8,-3.5,1,0,0,7,6,0.001655,-8,-3.5,1,0,0,0,17,17,56,1,0,,,,,,,,,,,,,,,,,,,,,
,,,,,,,,,,,,,,,,,,,,,,,,,,,,,,,,,,,,,,,,,,,602d7e1c3ecd7d7db842933c,606c0c6fbecf1d7b67fb583e,2021-04-06_09h24.51.126,Colour_Similarity_Experiment,2020.2.10,Win32,60,6067542a4a25243f4d7d4fcf,17.02555195,16.75748936,16.71570888,16.7303125,16.7187543,16.7303125,,,,,,,,,,,,,,,,,,,,PF,strong,3,,,,,,,,7,2.49237,,,,,,,,,,,,,,,,,,,,,,,,,,,,3,strong,45,80.5,1,0,0,response1disk,1,181,8,-7.5,1,0,0,rectangle,8,-7.5,1,0,0,7,0,0.001805,8,-7.5,1,0,0,0,18,18,125,1,0,,,,,,,,,,,,,,,,,,,,,
,,,,,,,,,,,,,,,,,,,,,,,,,,,,,,,,,,,,,,,,,,,602d7e1c3ecd7d7db842933c,606c0c6fbecf1d7b67fb583e,2021-04-06_09h24.51.126,Colour_Similarity_Experiment,2020.2.10,Win32,60,6067542a4a25243f4d7d4fcf,17.02555195,16.75748936,16.71570888,16.7303125,16.7187543,16.7303125,,,,,,,,,,,,,,,,,,,,PF,strong,3,,,,,,,,5,2.378185,,,,,,,,,,,,,,,,,,,,,,,,,,,,1,strong,107,-33.5,1,0,0,response3disk,5,182,14,-7.5,1,0,0,rectangle,14,-7.5,1,0,0,7,3,0.00162,14,-7.5,1,0,0,0,19,19,82,1,0,,,,,,,,,,,,,,,,,,,,,
,,,,,,,,,,,,,,,,,,,,,,,,,,,,,,,,,,,,,,,,,,,602d7e1c3ecd7d7db842933c,606c0c6fbecf1d7b67fb583e,2021-04-06_09h24.51.126,Colour_Similarity_Experiment,2020.2.10,Win32,60,6067542a4a25243f4d7d4fcf,17.02555195,16.75748936,16.71570888,16.7303125,16.7187543,16.7303125,,,,,,,,,,,,,,,,,,,,PF,weak,3,,,,,,,,1,2.12468,,,,,,,,,,,,,,,,,,,,,,,,,,,,4,weak,-77,42.5,1,0,0,response7disk,4,183,-4,1.5,1,0,0,rectangle,-4,1.5,1,0,0,7,1,0.002055,-4,1.5,1,0,0,0,20,20,70,1,0,,,,,,,,,,,,,,,,,,,,,
,,,,,,,,,,,,,,,,,,,,,,,,,,,,,,,,,,,,,,,,,,,602d7e1c3ecd7d7db842933c,606c0c6fbecf1d7b67fb583e,2021-04-06_09h24.51.126,Colour_Similarity_Experiment,2020.2.10,Win32,60,6067542a4a25243f4d7d4fcf,17.02555195,16.75748936,16.71570888,16.7303125,16.7187543,16.7303125,,,,,,,,,,,,,,,,,,,,PF,weak,3,,,,,,,,5,1.30758,,,,,,,,,,,,,,,,,,,,,,,,,,,,8,weak,53,-44.5,1,0,0,response3disk,3,184,-12,3.5,1,0,0,rectangle,-12,3.5,1,0,0,7,7,0.002085,-12,3.5,1,0,0,0,21,21,71,1,0,,,,,,,,,,,,,,,,,,,,,
,,,,,,,,,,,,,,,,,,,,,,,,,,,,,,,,,,,,,,,,,,,602d7e1c3ecd7d7db842933c,606c0c6fbecf1d7b67fb583e,2021-04-06_09h24.51.126,Colour_Similarity_Experiment,2020.2.10,Win32,60,6067542a4a25243f4d7d4fcf,17.02555195,16.75748936,16.71570888,16.7303125,16.7187543,16.7303125,,,,,,,,,,,,,,,,,,,,PF,weak,3,,,,,,,,2,1.72322,,,,,,,,,,,,,,,,,,,,,,,,,,,,5,weak,-72,-42.5,1,0,0,response5disk,6,185,24,9.5,1,0,0,rectangle,24,9.5,1,0,0,7,6,0.001545,24,9.5,1,0,0,0,22,22,103,1,0,,,,,,,,,,,,,,,,,,,,,
,,,,,,,,,,,,,,,,,,,,,,,,,,,,,,,,,,,,,,,,,,,602d7e1c3ecd7d7db842933c,606c0c6fbecf1d7b67fb583e,2021-04-06_09h24.51.126,Colour_Similarity_Experiment,2020.2.10,Win32,60,6067542a4a25243f4d7d4fcf,17.02555195,16.75748936,16.71570888,16.7303125,16.7187543,16.7303125,,,,,,,,,,,,,,,,,,,,PF,strong,3,,,,,,,,5,2.175795,,,,,,,,,,,,,,,,,,,,,,,,,,,,4,strong,59,-57.5,1,0,0,response3disk,8,186,1,-4.5,1,0,0,rectangle,1,-4.5,1,0,0,7,1,0.001535,1,-4.5,1,0,0,0,23,23,35,1,0,,,,,,,,,,,,,,,,,,,,,
,,,,,,,,,,,,,,,,,,,,,,,,,,,,,,,,,,,,,,,,,,,602d7e1c3ecd7d7db842933c,606c0c6fbecf1d7b67fb583e,2021-04-06_09h24.51.126,Colour_Similarity_Experiment,2020.2.10,Win32,60,6067542a4a25243f4d7d4fcf,17.02555195,16.75748936,16.71570888,16.7303125,16.7187543,16.7303125,,,,,,,,,,,,,,,,,,,,PF,strong,3,,,,,,,,7,1.78978,,,,,,,,,,,,,,,,,,,,,,,,,,,,6,strong,35,69.5,1,0,0,response1disk,9,187,20,-1.5,1,0,0,rectangle,-74,-32.5,1,0,0,7,2,1.50562,5,-0.5,1,0,0,0,24,24,160,1,1,response5disk_3,rectangle,,,,,,,,,,,,,,,,,,,
,,,,,,,,,,,,,,,,,,,,,,,,,,,,,,,,,,,,,,,,,,,602d7e1c3ecd7d7db842933c,606c0c6fbecf1d7b67fb583e,2021-04-06_09h24.51.126,Colour_Similarity_Experiment,2020.2.10,Win32,60,6067542a4a25243f4d7d4fcf,17.02555195,16.75748936,16.71570888,16.7303125,16.7187543,16.7303125,,,,,,,,,,,,,,,,,,,,PF,weak,3,,,,,,,,6,2.07498,,,,,,,,,,,,,,,,,,,,,,,,,,,,3,weak,70,28.5,1,0,0,response1disk,2,188,15,-1.5,1,0,0,rectangle,27,76.5,1,0,0,7,7,2.005235,11,11.5,1,0,0,0,25,25,36,1,1,response1disk_3,rectangle,,,,,,,,,,,,,,,,,,,
,,,,,,,,,,,,,,,,,,,,,,,,,,,,,,,,,,,,,,,,,,,602d7e1c3ecd7d7db842933c,606c0c6fbecf1d7b67fb583e,2021-04-06_09h24.51.126,Colour_Similarity_Experiment,2020.2.10,Win32,60,6067542a4a25243f4d7d4fcf,17.02555195,16.75748936,16.71570888,16.7303125,16.7187543,16.7303125,,,,,,,,,,,,,,,,,,,,PF,strong,3,,,,,,,,1,1.640135,,,,,,,,,,,,,,,,,,,,,,,,,,,,5,strong,-57,20.5,1,0,0,response7disk,5,189,-11,-5.5,1,0,0,rectangle,-11,-5.5,1,0,0,7,0,0.00261,-11,-5.5,1,0,0,0,26,26,19,1,0,,,,,,,,,,,,,,,,,,,,,
,,,,,,,,,,,,,,,,,,,,,,,,,,,,,,,,,,,,,,,,,,,602d7e1c3ecd7d7db842933c,606c0c6fbecf1d7b67fb583e,2021-04-06_09h24.51.126,Colour_Similarity_Experiment,2020.2.10,Win32,60,6067542a4a25243f4d7d4fcf,17.02555195,16.75748936,16.71570888,16.7303125,16.7187543,16.7303125,,,,,,,,,,,,,,,,,,,,PF,weak,3,,,,,,,,3,1.79124,,,,,,,,,,,,,,,,,,,,,,,,,,,,9,weak,-28,-86.5,1,0,0,response5disk,1,190,-3,-2.5,1,0,0,rectangle,-3,-2.5,1,0,0,7,2,0.00184,-3,-2.5,1,0,0,0,27,27,74,1,0,,,,,,,,,,,,,,,,,,,,,
,,,,,,,,,,,,,,,,,,,,,,,,,,,,,,,,,,,,,,,,,,,602d7e1c3ecd7d7db842933c,606c0c6fbecf1d7b67fb583e,2021-04-06_09h24.51.126,Colour_Similarity_Experiment,2020.2.10,Win32,60,6067542a4a25243f4d7d4fcf,17.02555195,16.75748936,16.71570888,16.7303125,16.7187543,16.7303125,,,,,,,,,,,,,,,,,,,,PF,strong,3,,,,,,,,4,1.23789,,,,,,,,,,,,,,,,,,,,,,,,,,,,1,strong,48,-80.5,1,0,0,response3disk,6,191,9,-10.5,1,0,0,rectangle,9,-10.5,1,0,0,7,1,0.001845,9,-10.5,1,0,0,0,28,28,58,1,0,,,,,,,,,,,,,,,,,,,,,
,,,,,,,,,,,,,,,,,,,,,,,,,,,,,,,,,,,,,,,,,,,602d7e1c3ecd7d7db842933c,606c0c6fbecf1d7b67fb583e,2021-04-06_09h24.51.126,Colour_Similarity_Experiment,2020.2.10,Win32,60,6067542a4a25243f4d7d4fcf,17.02555195,16.75748936,16.71570888,16.7303125,16.7187543,16.7303125,,,,,,,,,,,,,,,,,,,,PF,weak,3,,,,,,,,4,1.95769,,,,,,,,,,,,,,,,,,,,,,,,,,,,8,weak,38,-76.5,1,0,0,response3disk,1,192,17,-6.5,1,0,0,rectangle,17,-6.5,1,0,0,7,5,0.00164,17,-6.5,1,0,0,0,29,29,57,1,0,,,,,,,,,,,,,,,,,,,,,
