key_resp.keys,key_resp.rt,key_resp_16.keys,key_resp_16.rt,key_resp_2.keys,key_resp_2.rt,X Scale,ratio_pxpermm,screen_size_x,screen_size_y,testsize,key_resp_3.keys,key_resp_3.rt,key_resp_4.keys,key_resp_4.rt,line_size,key_resp_5.keys,key_resp_5.rt,key_resp_6.keys,key_resp_6.rt,key_resp_8.keys,key_resp_8.rt,key_resp_7.keys,key_resp_7.rt,key_resp_12.keys,key_resp_12.rt,key_resp_11.keys,key_resp_11.rt,key_resp_18.keys,key_resp_18.rt,key_resp_21.keys,key_resp_21.rt,key_resp_13.keys,key_resp_13.rt,key_resp_19.keys,key_resp_19.rt,ballposx,viewer_distance,trials.thisRepN,trials.thisTrialN,trials.thisN,trials.thisIndex,trials.ran,participant,session,date,expName,psychopyVersion,OS,frameRate,study_id,realFrameRate1,realFrameRate2,realFrameRate3,realFrameRate4,realFrameRate5,realFrameRate,viewerdistancecm,DVA_to_distance,radius_F,radius_P,r_F,R_P,key_resp_20.keys,key_resp_20.rt,key_resp_14.keys,key_resp_14.rt,key_resp_15.keys,key_resp_15.rt,key_resp_17.keys,key_resp_17.rt,key_resp_9.keys,key_resp_9.rt,key_resp_10.keys,key_resp_10.rt,Colour_1,Ecc,maskCon,mask_frames,mouse_5.x,mouse_5.y,mouse_5.leftButton,mouse_5.midButton,mouse_5.rightButton,mouse_5.clicked_name,Colour_2,similarity,response_time,mouse_10.x,mouse_10.y,mouse_10.leftButton,mouse_10.midButton,mouse_10.rightButton,mouse_10.clicked_name,mouse_7.x,mouse_7.y,mouse_7.leftButton,mouse_7.midButton,mouse_7.rightButton,mouse_7.clicked_name,catchprac,catchnumberprac,mouse_6.x,mouse_6.y,mouse_6.leftButton,mouse_6.midButton,mouse_6.rightButton,mouse_6.clicked_name,duringprac.thisRepN,duringprac.thisTrialN,duringprac.thisN,duringprac.thisIndex,duringprac.ran,key_resp_22.keys,key_resp_22.rt,Colour1,maskCon1,mouse.x,mouse.y,mouse.leftButton,mouse.midButton,mouse.rightButton,mouse.clicked_name,Colour2,trialnumber,mouse_2.x,mouse_2.y,mouse_2.leftButton,mouse_2.midButton,mouse_2.rightButton,mouse_2.clicked_name,mouse_3.x,mouse_3.y,mouse_3.leftButton,mouse_3.midButton,mouse_3.rightButton,catchresponse,catchnumber,response_time_catch,mouse_11.x,mouse_11.y,mouse_11.leftButton,mouse_11.midButton,mouse_11.rightButton,trials_2.thisRepN,trials_2.thisTrialN,trials_2.thisN,trials_2.thisIndex,trials_2.ran,Catch,mouse_3.clicked_name,mouse_11.clicked_name,trials_3.thisRepN,trials_3.thisTrialN,trials_3.thisN,trials_3.thisIndex,trials_3.ran,answer1,rt1,answer2,rt2,answer3,rt3,answer4,rt4,answer5,rt5,answer6,rt6,answer7,rt7
space,1.074125,space,35.26891,space,19.276435,59.9,5.99,320.5342237,180.3005008,1920,space,3.20015,space,45.199055,119.8,space,1.467805,space,3.40866,space,2.65664,space,1.767145,space,3.98951,space,0.724585,space,1.40265,space,0.18538,space,107.244185,return,8.425435,-740.16,1048.738036,0,0,0,0,1,603d75c3cd5c8ec37b0700a1,606c0cc47622866935915eb7,2021-04-06_09h25.14.719,Colour_Similarity_Experiment,2020.2.10,Win32,60,6067542a4a25243f4d7d4fcf,18.52181548,17.33069921,17.01020767,16.9388997,16.64738095,17.01020767,,,,,,,,,,,,,,,,,,,,,,,,,,,,,,,,,,,,,,,,,,,,,,,,,,,,,,,,,,,,,,,,,,,,,,,,,,,,,,,,,,,,,,,,,,,,,,,,,,,,,,,,,,,,,,,,,,
,,,,,,,,,,,,,,,,,,,,,,,,,,,,,,,,,,return,7.31516,-547.2,914.5583123,1,0,1,0,1,603d75c3cd5c8ec37b0700a1,606c0cc47622866935915eb7,2021-04-06_09h25.14.719,Colour_Similarity_Experiment,2020.2.10,Win32,60,6067542a4a25243f4d7d4fcf,18.52181548,17.33069921,17.01020767,16.9388997,16.64738095,17.01020767,,,,,,,,,,,,,,,,,,,,,,,,,,,,,,,,,,,,,,,,,,,,,,,,,,,,,,,,,,,,,,,,,,,,,,,,,,,,,,,,,,,,,,,,,,,,,,,,,,,,,,,,,,,,,,,,,,
,,,,,,,,,,,,,,,,,,,,,,,,,,,,,,,,,,return,7.76407,-624.96,968.6307381,2,0,2,0,1,603d75c3cd5c8ec37b0700a1,606c0cc47622866935915eb7,2021-04-06_09h25.14.719,Colour_Similarity_Experiment,2020.2.10,Win32,60,6067542a4a25243f4d7d4fcf,18.52181548,17.33069921,17.01020767,16.9388997,16.64738095,17.01020767,,,,,,,,,,,,,,,,,,,,,,,,,,,,,,,,,,,,,,,,,,,,,,,,,,,,,,,,,,,,,,,,,,,,,,,,,,,,,,,,,,,,,,,,,,,,,,,,,,,,,,,,,,,,,,,,,,
,,,,,,,,,,,,,,,,,,,,,,,,,,,,,,,,,,return,6.864805,-469.44,860.4858866,3,0,3,0,1,603d75c3cd5c8ec37b0700a1,606c0cc47622866935915eb7,2021-04-06_09h25.14.719,Colour_Similarity_Experiment,2020.2.10,Win32,60,6067542a4a25243f4d7d4fcf,18.52181548,17.33069921,17.01020767,16.9388997,16.64738095,17.01020767,,,,,,,,,,,,,,,,,,,,,,,,,,,,,,,,,,,,,,,,,,,,,,,,,,,,,,,,,,,,,,,,,,,,,,,,,,,,,,,,,,,,,,,,,,,,,,,,,,,,,,,,,,,,,,,,,,
,,,,,,,,,,,,,,,,,,,,,,,,,,,,,,,,,,return,9.53623,-930.24,1180.915076,4,0,4,0,1,603d75c3cd5c8ec37b0700a1,606c0cc47622866935915eb7,2021-04-06_09h25.14.719,Colour_Similarity_Experiment,2020.2.10,Win32,60,6067542a4a25243f4d7d4fcf,18.52181548,17.33069921,17.01020767,16.9388997,16.64738095,17.01020767,,,,,,,,,,,,,,,,,,,,,,,,,,,,,,,,,,,,,,,,,,,,,,,,,,,,,,,,,,,,,,,,,,,,,,,,,,,,,,,,,,,,,,,,,,,,,,,,,,,,,,,,,,,,,,,,,,
,,,,,,,,,,,,,,,,,,,,,,,,,,,,,,,,,,,,,,,,,,,603d75c3cd5c8ec37b0700a1,606c0cc47622866935915eb7,2021-04-06_09h25.14.719,Colour_Similarity_Experiment,2020.2.10,Win32,60,6067542a4a25243f4d7d4fcf,18.52181548,17.33069921,17.01020767,16.9388997,16.64738095,17.01020767,86,15.01135047,134.876984,899.1798931,89.91798931,404.6309519,space,3.00466,space,9.553835,space,17.93119,space,10.8077,space,13.67451,space,2.650065,4,PF,weak,3,66,40,1,0,0,response1disk_5,3,6,5.55931,12,14,1,0,0,rectangle_8,-31,-78,1,0,0,response5disk_7,3,3,12,-4,1,0,0,rectangle_4,0,0,0,6,1,,,,,,,,,,,,,,,,,,,,,,,,,,,,,,,,,,,,,,,,,,,,,,,,,,,,,,,,,,
,,,,,,,,,,,,,,,,,,,,,,,,,,,,,,,,,,,,,,,,,,,603d75c3cd5c8ec37b0700a1,606c0cc47622866935915eb7,2021-04-06_09h25.14.719,Colour_Similarity_Experiment,2020.2.10,Win32,60,6067542a4a25243f4d7d4fcf,18.52181548,17.33069921,17.01020767,16.9388997,16.64738095,17.01020767,,,,,,,,,,,,,,,,,,,3,PF,strong,3,84,24,1,0,0,response1disk_5,5,6,2.266735,-2,-4,1,0,0,rectangle_8,-2,-4,1,0,0,,,3,-2,-4,1,0,0,,0,1,1,0,1,,,,,,,,,,,,,,,,,,,,,,,,,,,,,,,,,,,,,,,,,,,,,,,,,,,,,,,,,,
,,,,,,,,,,,,,,,,,,,,,,,,,,,,,,,,,,,,,,,,,,,603d75c3cd5c8ec37b0700a1,606c0cc47622866935915eb7,2021-04-06_09h25.14.719,Colour_Similarity_Experiment,2020.2.10,Win32,60,6067542a4a25243f4d7d4fcf,18.52181548,17.33069921,17.01020767,16.9388997,16.64738095,17.01020767,,,,,,,,,,,,,,,,,,,4,PF,weak,3,-78,-64,1,0,0,response5disk_5,2,2,1.350075,-13,12,1,0,0,rectangle_8,-13,12,1,0,0,,1,3,-13,12,1,0,0,,0,2,2,4,1,,,,,,,,,,,,,,,,,,,,,,,,,,,,,,,,,,,,,,,,,,,,,,,,,,,,,,,,,,
,,,,,,,,,,,,,,,,,,,,,,,,,,,,,,,,,,,,,,,,,,,603d75c3cd5c8ec37b0700a1,606c0cc47622866935915eb7,2021-04-06_09h25.14.719,Colour_Similarity_Experiment,2020.2.10,Win32,60,6067542a4a25243f4d7d4fcf,18.52181548,17.33069921,17.01020767,16.9388997,16.64738095,17.01020767,,,,,,,,,,,,,,,,,,,3,PF,strong,3,78,-18,1,0,0,response3disk_5,5,5,1.59506,4,-1,1,0,0,rectangle_8,-24,-66,1,0,0,response5disk_7,3,3,-1,-3,1,0,0,rectangle_4,0,3,3,2,1,,,,,,,,,,,,,,,,,,,,,,,,,,,,,,,,,,,,,,,,,,,,,,,,,,,,,,,,,,
,,,,,,,,,,,,,,,,,,,,,,,,,,,,,,,,,,,,,,,,,,,603d75c3cd5c8ec37b0700a1,606c0cc47622866935915eb7,2021-04-06_09h25.14.719,Colour_Similarity_Experiment,2020.2.10,Win32,60,6067542a4a25243f4d7d4fcf,18.52181548,17.33069921,17.01020767,16.9388997,16.64738095,17.01020767,,,,,,,,,,,,,,,,,,,7,PF,weak,3,81,-87,1,0,0,response3disk_5,7,4,2.455285,-19,1,1,0,0,rectangle_8,-19,1,1,0,0,,,3,-19,1,1,0,0,,0,4,4,5,1,,,,,,,,,,,,,,,,,,,,,,,,,,,,,,,,,,,,,,,,,,,,,,,,,,,,,,,,,,
,,,,,,,,,,,,,,,,,,,,,,,,,,,,,,,,,,,,,,,,,,,603d75c3cd5c8ec37b0700a1,606c0cc47622866935915eb7,2021-04-06_09h25.14.719,Colour_Similarity_Experiment,2020.2.10,Win32,60,6067542a4a25243f4d7d4fcf,18.52181548,17.33069921,17.01020767,16.9388997,16.64738095,17.01020767,,,,,,,,,,,,,,,,,,,6,PF,strong,3,81,14,1,0,0,response1disk_5,4,6,5.981035,2,1,1,0,0,rectangle_8,2,1,1,0,0,,,3,2,1,1,0,0,,0,5,5,3,1,,,,,,,,,,,,,,,,,,,,,,,,,,,,,,,,,,,,,,,,,,,,,,,,,,,,,,,,,,
,,,,,,,,,,,,,,,,,,,,,,,,,,,,,,,,,,,,,,,,,,,603d75c3cd5c8ec37b0700a1,606c0cc47622866935915eb7,2021-04-06_09h25.14.719,Colour_Similarity_Experiment,2020.2.10,Win32,60,6067542a4a25243f4d7d4fcf,18.52181548,17.33069921,17.01020767,16.9388997,16.64738095,17.01020767,,,,,,,,,,,,,,,,,,,3,PF,weak,3,70,-80,1,0,0,response3disk_5,7,4,0.768135,7,3,1,0,0,rectangle_8,7,3,1,0,0,,,3,7,3,1,0,0,,0,6,6,1,1,,,,,,,,,,,,,,,,,,,,,,,,,,,,,,,,,,,,,,,,,,,,,,,,,,,,,,,,,,
,,,,,,,,,,,,,,,,,,,,,,,,,,,,,,,,,,,,,,,,,,,603d75c3cd5c8ec37b0700a1,606c0cc47622866935915eb7,2021-04-06_09h25.14.719,Colour_Similarity_Experiment,2020.2.10,Win32,60,6067542a4a25243f4d7d4fcf,18.52181548,17.33069921,17.01020767,16.9388997,16.64738095,17.01020767,,,,,,,,,,,,,,,,,,,,PF,strong,3,,,,,,,,4,0.96959,,,,,,,,,,,,,,,,,,,,,,,,,,space,3.12346,9,strong,49,-73,1,0,0,response3disk,7,1,17,-3,1,0,0,rectangle,17,-3,1,0,0,,2,0.00276,17,-3,1,0,0,0,0,0,100,1,0,,,,,,,,,,,,,,,,,,,,,
,,,,,,,,,,,,,,,,,,,,,,,,,,,,,,,,,,,,,,,,,,,603d75c3cd5c8ec37b0700a1,606c0cc47622866935915eb7,2021-04-06_09h25.14.719,Colour_Similarity_Experiment,2020.2.10,Win32,60,6067542a4a25243f4d7d4fcf,18.52181548,17.33069921,17.01020767,16.9388997,16.64738095,17.01020767,,,,,,,,,,,,,,,,,,,,PF,strong,3,,,,,,,,1,1.064835,,,,,,,,,,,,,,,,,,,,,,,,,,,,7,strong,-52,18,1,0,0,response7disk,7,2,-10,-6,1,0,0,rectangle,-10,-6,1,0,0,,2,0.00031,-10,-6,1,0,0,0,1,1,34,1,0,,,,,,,,,,,,,,,,,,,,,
,,,,,,,,,,,,,,,,,,,,,,,,,,,,,,,,,,,,,,,,,,,603d75c3cd5c8ec37b0700a1,606c0cc47622866935915eb7,2021-04-06_09h25.14.719,Colour_Similarity_Experiment,2020.2.10,Win32,60,6067542a4a25243f4d7d4fcf,18.52181548,17.33069921,17.01020767,16.9388997,16.64738095,17.01020767,,,,,,,,,,,,,,,,,,,,PF,strong,3,,,,,,,,1,0.54986,,,,,,,,,,,,,,,,,,,,,,,,,,,,2,strong,-70,35,1,0,0,response7disk,6,3,8,0,1,0,0,rectangle,8,0,1,0,0,,0,0.003765,8,0,1,0,0,0,2,2,40,1,0,,,,,,,,,,,,,,,,,,,,,
,,,,,,,,,,,,,,,,,,,,,,,,,,,,,,,,,,,,,,,,,,,603d75c3cd5c8ec37b0700a1,606c0cc47622866935915eb7,2021-04-06_09h25.14.719,Colour_Similarity_Experiment,2020.2.10,Win32,60,6067542a4a25243f4d7d4fcf,18.52181548,17.33069921,17.01020767,16.9388997,16.64738095,17.01020767,,,,,,,,,,,,,,,,,,,,PF,weak,3,,,,,,,,6,0.54957,,,,,,,,,,,,,,,,,,,,,,,,,,,,1,weak,78,18,1,0,0,response1disk,2,4,12,1,1,0,0,rectangle,12,1,1,0,0,,2,0.00387,12,1,1,0,0,0,3,3,24,1,0,,,,,,,,,,,,,,,,,,,,,
,,,,,,,,,,,,,,,,,,,,,,,,,,,,,,,,,,,,,,,,,,,603d75c3cd5c8ec37b0700a1,606c0cc47622866935915eb7,2021-04-06_09h25.14.719,Colour_Similarity_Experiment,2020.2.10,Win32,60,6067542a4a25243f4d7d4fcf,18.52181548,17.33069921,17.01020767,16.9388997,16.64738095,17.01020767,,,,,,,,,,,,,,,,,,,,PF,strong,3,,,,,,,,6,0.54972,,,,,,,,,,,,,,,,,,,,,,,,,,,,8,strong,66,20,1,0,0,response1disk,5,5,12,-1,1,0,0,rectangle,12,-1,1,0,0,,5,0.00381,12,-1,1,0,0,0,4,4,152,1,0,,,,,,,,,,,,,,,,,,,,,
,,,,,,,,,,,,,,,,,,,,,,,,,,,,,,,,,,,,,,,,,,,603d75c3cd5c8ec37b0700a1,606c0cc47622866935915eb7,2021-04-06_09h25.14.719,Colour_Similarity_Experiment,2020.2.10,Win32,60,6067542a4a25243f4d7d4fcf,18.52181548,17.33069921,17.01020767,16.9388997,16.64738095,17.01020767,,,,,,,,,,,,,,,,,,,,PF,strong,3,,,,,,,,5,0.681665,,,,,,,,,,,,,,,,,,,,,,,,,,,,4,strong,74,-73,1,0,0,response3disk,6,6,6,3,1,0,0,rectangle,6,3,1,0,0,,6,0.001685,6,3,1,0,0,0,5,5,122,1,0,,,,,,,,,,,,,,,,,,,,,
,,,,,,,,,,,,,,,,,,,,,,,,,,,,,,,,,,,,,,,,,,,603d75c3cd5c8ec37b0700a1,606c0cc47622866935915eb7,2021-04-06_09h25.14.719,Colour_Similarity_Experiment,2020.2.10,Win32,60,6067542a4a25243f4d7d4fcf,18.52181548,17.33069921,17.01020767,16.9388997,16.64738095,17.01020767,,,,,,,,,,,,,,,,,,,,PF,weak,3,,,,,,,,0,0.633145,,,,,,,,,,,,,,,,,,,,,,,,,,,,9,weak,-37,69,1,0,0,response7disk,5,7,12,0,1,0,0,rectangle,12,0,1,0,0,,6,0.000285,12,0,1,0,0,0,6,6,134,1,0,,,,,,,,,,,,,,,,,,,,,
,,,,,,,,,,,,,,,,,,,,,,,,,,,,,,,,,,,,,,,,,,,603d75c3cd5c8ec37b0700a1,606c0cc47622866935915eb7,2021-04-06_09h25.14.719,Colour_Similarity_Experiment,2020.2.10,Win32,60,6067542a4a25243f4d7d4fcf,18.52181548,17.33069921,17.01020767,16.9388997,16.64738095,17.01020767,,,,,,,,,,,,,,,,,,,,PF,weak,3,,,,,,,,3,0.68214,,,,,,,,,,,,,,,,,,,,,,,,,,,,8,weak,-63,-79,1,0,0,response5disk,6,8,-4,1,1,0,0,rectangle,73,27,1,0,0,6,6,2.81652,1,-6,1,0,0,0,7,7,161,1,1,response1disk_3,rectangle,,,,,,,,,,,,,,,,,,,
,,,,,,,,,,,,,,,,,,,,,,,,,,,,,,,,,,,,,,,,,,,603d75c3cd5c8ec37b0700a1,606c0cc47622866935915eb7,2021-04-06_09h25.14.719,Colour_Similarity_Experiment,2020.2.10,Win32,60,6067542a4a25243f4d7d4fcf,18.52181548,17.33069921,17.01020767,16.9388997,16.64738095,17.01020767,,,,,,,,,,,,,,,,,,,,PF,weak,3,,,,,,,,1,0.543565,,,,,,,,,,,,,,,,,,,,,,,,,,,,6,weak,-62,24,1,0,0,response7disk,3,9,17,-15,1,0,0,rectangle,17,-15,1,0,0,5,0,0.00107,17,-15,1,0,0,0,8,8,26,1,0,,,,,,,,,,,,,,,,,,,,,
,,,,,,,,,,,,,,,,,,,,,,,,,,,,,,,,,,,,,,,,,,,603d75c3cd5c8ec37b0700a1,606c0cc47622866935915eb7,2021-04-06_09h25.14.719,Colour_Similarity_Experiment,2020.2.10,Win32,60,6067542a4a25243f4d7d4fcf,18.52181548,17.33069921,17.01020767,16.9388997,16.64738095,17.01020767,,,,,,,,,,,,,,,,,,,,PF,strong,3,,,,,,,,6,0.555605,,,,,,,,,,,,,,,,,,,,,,,,,,,,3,strong,66,28,1,0,0,response1disk,6,10,9,4,1,0,0,rectangle,9,4,1,0,0,5,5,0.00279,9,4,1,0,0,0,9,9,95,1,0,,,,,,,,,,,,,,,,,,,,,
,,,,,,,,,,,,,,,,,,,,,,,,,,,,,,,,,,,,,,,,,,,603d75c3cd5c8ec37b0700a1,606c0cc47622866935915eb7,2021-04-06_09h25.14.719,Colour_Similarity_Experiment,2020.2.10,Win32,60,6067542a4a25243f4d7d4fcf,18.52181548,17.33069921,17.01020767,16.9388997,16.64738095,17.01020767,,,,,,,,,,,,,,,,,,,,PF,strong,3,,,,,,,,5,0.58853,,,,,,,,,,,,,,,,,,,,,,,,,,,,1,strong,73,-45,1,0,0,response3disk,2,11,13,-4,1,0,0,rectangle,13,-4,1,0,0,5,0,0.0049,13,-4,1,0,0,0,10,10,2,1,0,,,,,,,,,,,,,,,,,,,,,
,,,,,,,,,,,,,,,,,,,,,,,,,,,,,,,,,,,,,,,,,,,603d75c3cd5c8ec37b0700a1,606c0cc47622866935915eb7,2021-04-06_09h25.14.719,Colour_Similarity_Experiment,2020.2.10,Win32,60,6067542a4a25243f4d7d4fcf,18.52181548,17.33069921,17.01020767,16.9388997,16.64738095,17.01020767,,,,,,,,,,,,,,,,,,,,PF,strong,3,,,,,,,,6,0.78264,,,,,,,,,,,,,,,,,,,,,,,,,,,,4,strong,81,25,1,0,0,response1disk,2,12,14,-3,1,0,0,rectangle,14,-3,1,0,0,5,3,0.0045,14,-3,1,0,0,0,11,11,13,1,0,,,,,,,,,,,,,,,,,,,,,
,,,,,,,,,,,,,,,,,,,,,,,,,,,,,,,,,,,,,,,,,,,603d75c3cd5c8ec37b0700a1,606c0cc47622866935915eb7,2021-04-06_09h25.14.719,Colour_Similarity_Experiment,2020.2.10,Win32,60,6067542a4a25243f4d7d4fcf,18.52181548,17.33069921,17.01020767,16.9388997,16.64738095,17.01020767,,,,,,,,,,,,,,,,,,,,PF,strong,3,,,,,,,,2,0.86343,,,,,,,,,,,,,,,,,,,,,,,,,,,,3,strong,-79,-67,1,0,0,response5disk,5,13,10,2,1,0,0,rectangle,10,2,1,0,0,5,5,0.002215,10,2,1,0,0,0,12,12,101,1,0,,,,,,,,,,,,,,,,,,,,,
,,,,,,,,,,,,,,,,,,,,,,,,,,,,,,,,,,,,,,,,,,,603d75c3cd5c8ec37b0700a1,606c0cc47622866935915eb7,2021-04-06_09h25.14.719,Colour_Similarity_Experiment,2020.2.10,Win32,60,6067542a4a25243f4d7d4fcf,18.52181548,17.33069921,17.01020767,16.9388997,16.64738095,17.01020767,,,,,,,,,,,,,,,,,,,,PF,strong,3,,,,,,,,2,0.53627,,,,,,,,,,,,,,,,,,,,,,,,,,,,2,strong,-83,-55,1,0,0,response5disk,9,14,-11,-1,1,0,0,rectangle,-11,-1,1,0,0,5,2,0.00535,-11,-1,1,0,0,0,13,13,72,1,0,,,,,,,,,,,,,,,,,,,,,
,,,,,,,,,,,,,,,,,,,,,,,,,,,,,,,,,,,,,,,,,,,603d75c3cd5c8ec37b0700a1,606c0cc47622866935915eb7,2021-04-06_09h25.14.719,Colour_Similarity_Experiment,2020.2.10,Win32,60,6067542a4a25243f4d7d4fcf,18.52181548,17.33069921,17.01020767,16.9388997,16.64738095,17.01020767,,,,,,,,,,,,,,,,,,,,PF,weak,3,,,,,,,,2,0.958565,,,,,,,,,,,,,,,,,,,,,,,,,,,,8,weak,-83,-47,1,0,0,response5disk,7,15,-6,2,1,0,0,rectangle,-6,2,1,0,0,5,3,0.006355,-6,2,1,0,0,0,14,14,23,1,0,,,,,,,,,,,,,,,,,,,,,
,,,,,,,,,,,,,,,,,,,,,,,,,,,,,,,,,,,,,,,,,,,603d75c3cd5c8ec37b0700a1,606c0cc47622866935915eb7,2021-04-06_09h25.14.719,Colour_Similarity_Experiment,2020.2.10,Win32,60,6067542a4a25243f4d7d4fcf,18.52181548,17.33069921,17.01020767,16.9388997,16.64738095,17.01020767,,,,,,,,,,,,,,,,,,,,PF,strong,3,,,,,,,,2,0.66101,,,,,,,,,,,,,,,,,,,,,,,,,,,,4,strong,-61,-24,1,0,0,response5disk,9,16,-18,-6,1,0,0,rectangle,-18,-6,1,0,0,5,3,0.000185,-18,-6,1,0,0,0,15,15,90,1,0,,,,,,,,,,,,,,,,,,,,,
,,,,,,,,,,,,,,,,,,,,,,,,,,,,,,,,,,,,,,,,,,,603d75c3cd5c8ec37b0700a1,606c0cc47622866935915eb7,2021-04-06_09h25.14.719,Colour_Similarity_Experiment,2020.2.10,Win32,60,6067542a4a25243f4d7d4fcf,18.52181548,17.33069921,17.01020767,16.9388997,16.64738095,17.01020767,,,,,,,,,,,,,,,,,,,,PF,strong,3,,,,,,,,2,0.570885,,,,,,,,,,,,,,,,,,,,,,,,,,,,1,strong,-70,-32,1,0,0,response5disk,6,17,-7,-1,1,0,0,rectangle,-7,-1,1,0,0,5,1,0.003565,-7,-1,1,0,0,0,16,16,58,1,0,,,,,,,,,,,,,,,,,,,,,
,,,,,,,,,,,,,,,,,,,,,,,,,,,,,,,,,,,,,,,,,,,603d75c3cd5c8ec37b0700a1,606c0cc47622866935915eb7,2021-04-06_09h25.14.719,Colour_Similarity_Experiment,2020.2.10,Win32,60,6067542a4a25243f4d7d4fcf,18.52181548,17.33069921,17.01020767,16.9388997,16.64738095,17.01020767,,,,,,,,,,,,,,,,,,,,PF,strong,3,,,,,,,,3,0.833275,,,,,,,,,,,,,,,,,,,,,,,,,,,,5,strong,-40,-82,1,0,0,response5disk,2,18,1,-10,1,0,0,rectangle,-54,-35,1,0,0,5,2,2.267395,-9,-12,1,0,0,0,17,17,55,1,1,response5disk_3,rectangle,,,,,,,,,,,,,,,,,,,
,,,,,,,,,,,,,,,,,,,,,,,,,,,,,,,,,,,,,,,,,,,603d75c3cd5c8ec37b0700a1,606c0cc47622866935915eb7,2021-04-06_09h25.14.719,Colour_Similarity_Experiment,2020.2.10,Win32,60,6067542a4a25243f4d7d4fcf,18.52181548,17.33069921,17.01020767,16.9388997,16.64738095,17.01020767,,,,,,,,,,,,,,,,,,,,PF,weak,3,,,,,,,,2,0.601615,,,,,,,,,,,,,,,,,,,,,,,,,,,,5,weak,-60,-37,1,0,0,response5disk,2,19,-6,-2,1,0,0,rectangle,-6,-2,1,0,0,5,1,0.00389,-6,-2,1,0,0,0,18,18,129,1,0,,,,,,,,,,,,,,,,,,,,,
,,,,,,,,,,,,,,,,,,,,,,,,,,,,,,,,,,,,,,,,,,,603d75c3cd5c8ec37b0700a1,606c0cc47622866935915eb7,2021-04-06_09h25.14.719,Colour_Similarity_Experiment,2020.2.10,Win32,60,6067542a4a25243f4d7d4fcf,18.52181548,17.33069921,17.01020767,16.9388997,16.64738095,17.01020767,,,,,,,,,,,,,,,,,,,,PF,strong,3,,,,,,,,6,0.58321,,,,,,,,,,,,,,,,,,,,,,,,,,,,7,strong,70,30,1,0,0,response1disk,8,20,6,5,1,0,0,rectangle,-21,-57,1,0,0,3,3,2.87205,10,8,1,0,0,0,19,19,97,1,1,response5disk_3,rectangle,,,,,,,,,,,,,,,,,,,
,,,,,,,,,,,,,,,,,,,,,,,,,,,,,,,,,,,,,,,,,,,603d75c3cd5c8ec37b0700a1,606c0cc47622866935915eb7,2021-04-06_09h25.14.719,Colour_Similarity_Experiment,2020.2.10,Win32,60,6067542a4a25243f4d7d4fcf,18.52181548,17.33069921,17.01020767,16.9388997,16.64738095,17.01020767,,,,,,,,,,,,,,,,,,,,PF,weak,3,,,,,,,,6,0.495015,,,,,,,,,,,,,,,,,,,,,,,,,,,,6,weak,63,36,1,0,0,response1disk,4,21,2,11,1,0,0,rectangle,2,11,1,0,0,3,1,0.00313,2,11,1,0,0,0,20,20,33,1,0,,,,,,,,,,,,,,,,,,,,,
,,,,,,,,,,,,,,,,,,,,,,,,,,,,,,,,,,,,,,,,,,,603d75c3cd5c8ec37b0700a1,606c0cc47622866935915eb7,2021-04-06_09h25.14.719,Colour_Similarity_Experiment,2020.2.10,Win32,60,6067542a4a25243f4d7d4fcf,18.52181548,17.33069921,17.01020767,16.9388997,16.64738095,17.01020767,,,,,,,,,,,,,,,,,,,,PF,strong,3,,,,,,,,5,0.6664,,,,,,,,,,,,,,,,,,,,,,,,,,,,7,strong,52,-20,1,0,0,response3disk,5,22,6,-1,1,0,0,rectangle,6,-1,1,0,0,3,7,0.00304,6,-1,1,0,0,0,21,21,156,1,0,,,,,,,,,,,,,,,,,,,,,
,,,,,,,,,,,,,,,,,,,,,,,,,,,,,,,,,,,,,,,,,,,603d75c3cd5c8ec37b0700a1,606c0cc47622866935915eb7,2021-04-06_09h25.14.719,Colour_Similarity_Experiment,2020.2.10,Win32,60,6067542a4a25243f4d7d4fcf,18.52181548,17.33069921,17.01020767,16.9388997,16.64738095,17.01020767,,,,,,,,,,,,,,,,,,,,PF,strong,3,,,,,,,,1,1.37768,,,,,,,,,,,,,,,,,,,,,,,,,,,,4,strong,-84,30,1,0,0,response7disk,1,23,-17,10,1,0,0,rectangle,-17,10,1,0,0,3,3,0.001715,-17,10,1,0,0,0,22,22,102,1,0,,,,,,,,,,,,,,,,,,,,,
,,,,,,,,,,,,,,,,,,,,,,,,,,,,,,,,,,,,,,,,,,,603d75c3cd5c8ec37b0700a1,606c0cc47622866935915eb7,2021-04-06_09h25.14.719,Colour_Similarity_Experiment,2020.2.10,Win32,60,6067542a4a25243f4d7d4fcf,18.52181548,17.33069921,17.01020767,16.9388997,16.64738095,17.01020767,,,,,,,,,,,,,,,,,,,,PF,weak,3,,,,,,,,6,0.695685,,,,,,,,,,,,,,,,,,,,,,,,,,,,2,weak,81,22,1,0,0,response1disk,5,24,1,0,1,0,0,rectangle,1,0,1,0,0,3,5,0.00424,1,0,1,0,0,0,23,23,147,1,0,,,,,,,,,,,,,,,,,,,,,
,,,,,,,,,,,,,,,,,,,,,,,,,,,,,,,,,,,,,,,,,,,603d75c3cd5c8ec37b0700a1,606c0cc47622866935915eb7,2021-04-06_09h25.14.719,Colour_Similarity_Experiment,2020.2.10,Win32,60,6067542a4a25243f4d7d4fcf,18.52181548,17.33069921,17.01020767,16.9388997,16.64738095,17.01020767,,,,,,,,,,,,,,,,,,,,PF,weak,3,,,,,,,,2,1.13228,,,,,,,,,,,,,,,,,,,,,,,,,,,,7,weak,-70,-12,1,0,0,response5disk,2,25,-20,7,1,0,0,rectangle,-20,7,1,0,0,3,3,0.003215,-20,7,1,0,0,0,24,24,32,1,0,,,,,,,,,,,,,,,,,,,,,
,,,,,,,,,,,,,,,,,,,,,,,,,,,,,,,,,,,,,,,,,,,603d75c3cd5c8ec37b0700a1,606c0cc47622866935915eb7,2021-04-06_09h25.14.719,Colour_Similarity_Experiment,2020.2.10,Win32,60,6067542a4a25243f4d7d4fcf,18.52181548,17.33069921,17.01020767,16.9388997,16.64738095,17.01020767,,,,,,,,,,,,,,,,,,,,PF,weak,3,,,,,,,,5,1.011105,,,,,,,,,,,,,,,,,,,,,,,,,,,,8,weak,83,-59,1,0,0,response3disk,9,26,15,-2,1,0,0,rectangle,15,-2,1,0,0,3,5,0.00098,15,-2,1,0,0,0,25,25,42,1,0,,,,,,,,,,,,,,,,,,,,,
,,,,,,,,,,,,,,,,,,,,,,,,,,,,,,,,,,,,,,,,,,,603d75c3cd5c8ec37b0700a1,606c0cc47622866935915eb7,2021-04-06_09h25.14.719,Colour_Similarity_Experiment,2020.2.10,Win32,60,6067542a4a25243f4d7d4fcf,18.52181548,17.33069921,17.01020767,16.9388997,16.64738095,17.01020767,,,,,,,,,,,,,,,,,,,,PF,weak,3,,,,,,,,5,0.8796,,,,,,,,,,,,,,,,,,,,,,,,,,,,9,weak,64,-48,1,0,0,response3disk,2,27,0,0,1,0,0,rectangle,0,0,1,0,0,3,0,0.003375,0,0,1,0,0,0,26,26,157,1,0,,,,,,,,,,,,,,,,,,,,,
,,,,,,,,,,,,,,,,,,,,,,,,,,,,,,,,,,,,,,,,,,,603d75c3cd5c8ec37b0700a1,606c0cc47622866935915eb7,2021-04-06_09h25.14.719,Colour_Similarity_Experiment,2020.2.10,Win32,60,6067542a4a25243f4d7d4fcf,18.52181548,17.33069921,17.01020767,16.9388997,16.64738095,17.01020767,,,,,,,,,,,,,,,,,,,,PF,strong,3,,,,,,,,5,0.985245,,,,,,,,,,,,,,,,,,,,,,,,,,,,6,strong,74,-51,1,0,0,response3disk,2,28,14,5,1,0,0,rectangle,14,5,1,0,0,3,6,0.000945,14,5,1,0,0,0,27,27,112,1,0,,,,,,,,,,,,,,,,,,,,,
,,,,,,,,,,,,,,,,,,,,,,,,,,,,,,,,,,,,,,,,,,,603d75c3cd5c8ec37b0700a1,606c0cc47622866935915eb7,2021-04-06_09h25.14.719,Colour_Similarity_Experiment,2020.2.10,Win32,60,6067542a4a25243f4d7d4fcf,18.52181548,17.33069921,17.01020767,16.9388997,16.64738095,17.01020767,,,,,,,,,,,,,,,,,,,,PF,strong,3,,,,,,,,5,1.000245,,,,,,,,,,,,,,,,,,,,,,,,,,,,9,strong,66,-41,1,0,0,response3disk,6,29,21,-13,1,0,0,rectangle,21,-13,1,0,0,5,7,0.00185,21,-13,1,0,0,0,28,28,117,1,0,,,,,,,,,,,,,,,,,,,,,
,,,,,,,,,,,,,,,,,,,,,,,,,,,,,,,,,,,,,,,,,,,603d75c3cd5c8ec37b0700a1,606c0cc47622866935915eb7,2021-04-06_09h25.14.719,Colour_Similarity_Experiment,2020.2.10,Win32,60,6067542a4a25243f4d7d4fcf,18.52181548,17.33069921,17.01020767,16.9388997,16.64738095,17.01020767,,,,,,,,,,,,,,,,,,,,PF,weak,3,,,,,,,,5,0.59164,,,,,,,,,,,,,,,,,,,,,,,,,,,,4,weak,78,-27,1,0,0,response3disk,2,30,8,3,1,0,0,rectangle,8,3,1,0,0,5,1,0.00099,8,3,1,0,0,0,29,29,108,1,0,,,,,,,,,,,,,,,,,,,,,
,,,,,,,,,,,,,,,,,,,,,,,,,,,,,,,,,,,,,,,,,,,603d75c3cd5c8ec37b0700a1,606c0cc47622866935915eb7,2021-04-06_09h25.14.719,Colour_Similarity_Experiment,2020.2.10,Win32,60,6067542a4a25243f4d7d4fcf,18.52181548,17.33069921,17.01020767,16.9388997,16.64738095,17.01020767,,,,,,,,,,,,,,,,,,,,PF,weak,3,,,,,,,,2,0.70123,,,,,,,,,,,,,,,,,,,,,,,,,,,,7,weak,-60,-33,1,0,0,response5disk,1,31,4,-2,1,0,0,rectangle,4,-2,1,0,0,5,4,0.00388,4,-2,1,0,0,0,30,30,53,1,0,,,,,,,,,,,,,,,,,,,,,
,,,,,,,,,,,,,,,,,,,,,,,,,,,,,,,,,,,,,,,,,,,603d75c3cd5c8ec37b0700a1,606c0cc47622866935915eb7,2021-04-06_09h25.14.719,Colour_Similarity_Experiment,2020.2.10,Win32,60,6067542a4a25243f4d7d4fcf,18.52181548,17.33069921,17.01020767,16.9388997,16.64738095,17.01020767,,,,,,,,,,,,,,,,,,,,PF,weak,3,,,,,,,,4,0.80005,,,,,,,,,,,,,,,,,,,,,,,,,,,,7,weak,31,-67,1,0,0,response3disk,3,32,4,2,1,0,0,rectangle,4,2,1,0,0,5,2,0.001435,4,2,1,0,0,0,31,31,81,1,0,,,,,,,,,,,,,,,,,,,,,
,,,,,,,,,,,,,,,,,,,,,,,,,,,,,,,,,,,,,,,,,,,603d75c3cd5c8ec37b0700a1,606c0cc47622866935915eb7,2021-04-06_09h25.14.719,Colour_Similarity_Experiment,2020.2.10,Win32,60,6067542a4a25243f4d7d4fcf,18.52181548,17.33069921,17.01020767,16.9388997,16.64738095,17.01020767,,,,,,,,,,,,,,,,,,,,PF,strong,3,,,,,,,,2,2.14813,,,,,,,,,,,,,,,,,,,,,,,,,,,,8,strong,-63,-39,1,0,0,response5disk,9,33,17,-10,1,0,0,rectangle,17,-10,1,0,0,5,5,0.00151,17,-10,1,0,0,0,32,32,105,1,0,,,,,,,,,,,,,,,,,,,,,
,,,,,,,,,,,,,,,,,,,,,,,,,,,,,,,,,,,,,,,,,,,603d75c3cd5c8ec37b0700a1,606c0cc47622866935915eb7,2021-04-06_09h25.14.719,Colour_Similarity_Experiment,2020.2.10,Win32,60,6067542a4a25243f4d7d4fcf,18.52181548,17.33069921,17.01020767,16.9388997,16.64738095,17.01020767,,,,,,,,,,,,,,,,,,,,PF,weak,3,,,,,,,,6,0.65937,,,,,,,,,,,,,,,,,,,,,,,,,,,,9,weak,60,37,1,0,0,response1disk,4,34,-7,-1,1,0,0,rectangle,-7,-1,1,0,0,5,3,0.00217,-7,-1,1,0,0,0,33,33,114,1,0,,,,,,,,,,,,,,,,,,,,,
,,,,,,,,,,,,,,,,,,,,,,,,,,,,,,,,,,,,,,,,,,,603d75c3cd5c8ec37b0700a1,606c0cc47622866935915eb7,2021-04-06_09h25.14.719,Colour_Similarity_Experiment,2020.2.10,Win32,60,6067542a4a25243f4d7d4fcf,18.52181548,17.33069921,17.01020767,16.9388997,16.64738095,17.01020767,,,,,,,,,,,,,,,,,,,,PF,strong,3,,,,,,,,2,0.672235,,,,,,,,,,,,,,,,,,,,,,,,,,,,1,strong,-76,-41,1,0,0,response5disk,4,35,-12,6,1,0,0,rectangle,-12,6,1,0,0,5,6,0.001425,-12,6,1,0,0,0,34,34,135,1,0,,,,,,,,,,,,,,,,,,,,,
,,,,,,,,,,,,,,,,,,,,,,,,,,,,,,,,,,,,,,,,,,,603d75c3cd5c8ec37b0700a1,606c0cc47622866935915eb7,2021-04-06_09h25.14.719,Colour_Similarity_Experiment,2020.2.10,Win32,60,6067542a4a25243f4d7d4fcf,18.52181548,17.33069921,17.01020767,16.9388997,16.64738095,17.01020767,,,,,,,,,,,,,,,,,,,,PF,weak,3,,,,,,,,6,0.60963,,,,,,,,,,,,,,,,,,,,,,,,,,,,8,weak,53,15,1,0,0,response1disk,5,36,-6,-2,1,0,0,rectangle,-6,-2,1,0,0,5,0,0.00133,-6,-2,1,0,0,0,35,35,98,1,0,,,,,,,,,,,,,,,,,,,,,
,,,,,,,,,,,,,,,,,,,,,,,,,,,,,,,,,,,,,,,,,,,603d75c3cd5c8ec37b0700a1,606c0cc47622866935915eb7,2021-04-06_09h25.14.719,Colour_Similarity_Experiment,2020.2.10,Win32,60,6067542a4a25243f4d7d4fcf,18.52181548,17.33069921,17.01020767,16.9388997,16.64738095,17.01020767,,,,,,,,,,,,,,,,,,,,PF,strong,3,,,,,,,,6,0.616785,,,,,,,,,,,,,,,,,,,,,,,,,,,,6,strong,79,37,1,0,0,response1disk,7,37,-15,7,1,0,0,rectangle,-15,7,1,0,0,5,5,0.004015,-15,7,1,0,0,0,36,36,18,1,0,,,,,,,,,,,,,,,,,,,,,
,,,,,,,,,,,,,,,,,,,,,,,,,,,,,,,,,,,,,,,,,,,603d75c3cd5c8ec37b0700a1,606c0cc47622866935915eb7,2021-04-06_09h25.14.719,Colour_Similarity_Experiment,2020.2.10,Win32,60,6067542a4a25243f4d7d4fcf,18.52181548,17.33069921,17.01020767,16.9388997,16.64738095,17.01020767,,,,,,,,,,,,,,,,,,,,PF,strong,3,,,,,,,,2,0.734115,,,,,,,,,,,,,,,,,,,,,,,,,,,,9,strong,-59,-15,1,0,0,response5disk,1,38,3,8,1,0,0,rectangle,3,8,1,0,0,5,5,0.0003,3,8,1,0,0,0,37,37,111,1,0,,,,,,,,,,,,,,,,,,,,,
,,,,,,,,,,,,,,,,,,,,,,,,,,,,,,,,,,,,,,,,,,,603d75c3cd5c8ec37b0700a1,606c0cc47622866935915eb7,2021-04-06_09h25.14.719,Colour_Similarity_Experiment,2020.2.10,Win32,60,6067542a4a25243f4d7d4fcf,18.52181548,17.33069921,17.01020767,16.9388997,16.64738095,17.01020767,,,,,,,,,,,,,,,,,,,,PF,strong,3,,,,,,,,2,0.574985,,,,,,,,,,,,,,,,,,,,,,,,,,,,5,strong,-75,-26,1,0,0,response5disk,7,39,4,6,1,0,0,rectangle,4,6,1,0,0,5,4,0.001585,4,6,1,0,0,0,38,38,7,1,0,,,,,,,,,,,,,,,,,,,,,
,,,,,,,,,,,,,,,,,,,,,,,,,,,,,,,,,,,,,,,,,,,603d75c3cd5c8ec37b0700a1,606c0cc47622866935915eb7,2021-04-06_09h25.14.719,Colour_Similarity_Experiment,2020.2.10,Win32,60,6067542a4a25243f4d7d4fcf,18.52181548,17.33069921,17.01020767,16.9388997,16.64738095,17.01020767,,,,,,,,,,,,,,,,,,,,PF,strong,3,,,,,,,,3,0.71396,,,,,,,,,,,,,,,,,,,,,,,,,,,,2,strong,-42,-47,1,0,0,response5disk,8,40,2,8,1,0,0,rectangle,2,8,1,0,0,5,5,0.004005,2,8,1,0,0,0,39,39,62,1,0,,,,,,,,,,,,,,,,,,,,,
,,,,,,,,,,,,,,,,,,,,,,,,,,,,,,,,,,,,,,,,,,,603d75c3cd5c8ec37b0700a1,606c0cc47622866935915eb7,2021-04-06_09h25.14.719,Colour_Similarity_Experiment,2020.2.10,Win32,60,6067542a4a25243f4d7d4fcf,18.52181548,17.33069921,17.01020767,16.9388997,16.64738095,17.01020767,,,,,,,,,,,,,,,,,,,,PF,weak,3,,,,,,,,3,0.56731,,,,,,,,,,,,,,,,,,,,,,,,,,,,8,weak,-35,-58,1,0,0,response5disk,1,41,0,-9,1,0,0,rectangle,0,-9,1,0,0,5,7,0.0037,0,-9,1,0,0,0,40,40,57,1,0,,,,,,,,,,,,,,,,,,,,,
,,,,,,,,,,,,,,,,,,,,,,,,,,,,,,,,,,,,,,,,,,,603d75c3cd5c8ec37b0700a1,606c0cc47622866935915eb7,2021-04-06_09h25.14.719,Colour_Similarity_Experiment,2020.2.10,Win32,60,6067542a4a25243f4d7d4fcf,18.52181548,17.33069921,17.01020767,16.9388997,16.64738095,17.01020767,,,,,,,,,,,,,,,,,,,,PF,strong,3,,,,,,,,1,0.999905,,,,,,,,,,,,,,,,,,,,,,,,,,,,6,strong,-62,21,1,0,0,response7disk,5,42,-8,-5,1,0,0,rectangle,-8,-5,1,0,0,5,2,0.00422,-8,-5,1,0,0,0,41,41,126,1,0,,,,,,,,,,,,,,,,,,,,,
,,,,,,,,,,,,,,,,,,,,,,,,,,,,,,,,,,,,,,,,,,,603d75c3cd5c8ec37b0700a1,606c0cc47622866935915eb7,2021-04-06_09h25.14.719,Colour_Similarity_Experiment,2020.2.10,Win32,60,6067542a4a25243f4d7d4fcf,18.52181548,17.33069921,17.01020767,16.9388997,16.64738095,17.01020767,,,,,,,,,,,,,,,,,,,,PF,strong,3,,,,,,,,1,0.825525,,,,,,,,,,,,,,,,,,,,,,,,,,,,7,strong,-82,12,1,0,0,response7disk,4,43,-24,12,1,0,0,rectangle,-24,12,1,0,0,1,7,0.001055,-24,12,1,0,0,0,42,42,158,1,0,,,,,,,,,,,,,,,,,,,,,
,,,,,,,,,,,,,,,,,,,,,,,,,,,,,,,,,,,,,,,,,,,603d75c3cd5c8ec37b0700a1,606c0cc47622866935915eb7,2021-04-06_09h25.14.719,Colour_Similarity_Experiment,2020.2.10,Win32,60,6067542a4a25243f4d7d4fcf,18.52181548,17.33069921,17.01020767,16.9388997,16.64738095,17.01020767,,,,,,,,,,,,,,,,,,,,PF,weak,3,,,,,,,,2,0.478625,,,,,,,,,,,,,,,,,,,,,,,,,,,,2,weak,-75,-26,1,0,0,response5disk,7,44,-2,16,1,0,0,rectangle,-2,16,1,0,0,1,5,0.002315,-2,16,1,0,0,0,43,43,107,1,0,,,,,,,,,,,,,,,,,,,,,
,,,,,,,,,,,,,,,,,,,,,,,,,,,,,,,,,,,,,,,,,,,603d75c3cd5c8ec37b0700a1,606c0cc47622866935915eb7,2021-04-06_09h25.14.719,Colour_Similarity_Experiment,2020.2.10,Win32,60,6067542a4a25243f4d7d4fcf,18.52181548,17.33069921,17.01020767,16.9388997,16.64738095,17.01020767,,,,,,,,,,,,,,,,,,,,PF,weak,3,,,,,,,,3,0.572615,,,,,,,,,,,,,,,,,,,,,,,,,,,,6,weak,-22,-61,1,0,0,response5disk,1,45,2,-6,1,0,0,rectangle,2,-6,1,0,0,1,1,0.002315,2,-6,1,0,0,0,44,44,46,1,0,,,,,,,,,,,,,,,,,,,,,
,,,,,,,,,,,,,,,,,,,,,,,,,,,,,,,,,,,,,,,,,,,603d75c3cd5c8ec37b0700a1,606c0cc47622866935915eb7,2021-04-06_09h25.14.719,Colour_Similarity_Experiment,2020.2.10,Win32,60,6067542a4a25243f4d7d4fcf,18.52181548,17.33069921,17.01020767,16.9388997,16.64738095,17.01020767,,,,,,,,,,,,,,,,,,,,PF,weak,3,,,,,,,,2,0.466935,,,,,,,,,,,,,,,,,,,,,,,,,,,,2,weak,-87,-33,1,0,0,response5disk,8,46,1,-2,1,0,0,rectangle,1,-2,1,0,0,1,0,0.00135,1,-2,1,0,0,0,45,45,52,1,0,,,,,,,,,,,,,,,,,,,,,
,,,,,,,,,,,,,,,,,,,,,,,,,,,,,,,,,,,,,,,,,,,603d75c3cd5c8ec37b0700a1,606c0cc47622866935915eb7,2021-04-06_09h25.14.719,Colour_Similarity_Experiment,2020.2.10,Win32,60,6067542a4a25243f4d7d4fcf,18.52181548,17.33069921,17.01020767,16.9388997,16.64738095,17.01020767,,,,,,,,,,,,,,,,,,,,PF,weak,3,,,,,,,,6,0.466595,,,,,,,,,,,,,,,,,,,,,,,,,,,,1,weak,67,29,1,0,0,response1disk,4,47,4,2,1,0,0,rectangle,4,2,1,0,0,1,6,0.004085,4,2,1,0,0,0,46,46,139,1,0,,,,,,,,,,,,,,,,,,,,,
,,,,,,,,,,,,,,,,,,,,,,,,,,,,,,,,,,,,,,,,,,,603d75c3cd5c8ec37b0700a1,606c0cc47622866935915eb7,2021-04-06_09h25.14.719,Colour_Similarity_Experiment,2020.2.10,Win32,60,6067542a4a25243f4d7d4fcf,18.52181548,17.33069921,17.01020767,16.9388997,16.64738095,17.01020767,,,,,,,,,,,,,,,,,,,,PF,strong,3,,,,,,,,2,0.667345,,,,,,,,,,,,,,,,,,,,,,,,,,,,1,strong,-59,-19,1,0,0,response5disk,1,48,-1,12,1,0,0,rectangle,-1,12,1,0,0,1,6,0.000305,-1,12,1,0,0,0,47,47,151,1,0,,,,,,,,,,,,,,,,,,,,,
,,,,,,,,,,,,,,,,,,,,,,,,,,,,,,,,,,,,,,,,,,,603d75c3cd5c8ec37b0700a1,606c0cc47622866935915eb7,2021-04-06_09h25.14.719,Colour_Similarity_Experiment,2020.2.10,Win32,60,6067542a4a25243f4d7d4fcf,18.52181548,17.33069921,17.01020767,16.9388997,16.64738095,17.01020767,,,,,,,,,,,,,,,,,,,,PF,strong,3,,,,,,,,4,0.94628,,,,,,,,,,,,,,,,,,,,,,,,,,,,8,strong,32,-67,1,0,0,response3disk,7,49,17,3,1,0,0,rectangle,17,3,1,0,0,1,3,0.001385,17,3,1,0,0,0,48,48,86,1,0,,,,,,,,,,,,,,,,,,,,,
,,,,,,,,,,,,,,,,,,,,,,,,,,,,,,,,,,,,,,,,,,,603d75c3cd5c8ec37b0700a1,606c0cc47622866935915eb7,2021-04-06_09h25.14.719,Colour_Similarity_Experiment,2020.2.10,Win32,60,6067542a4a25243f4d7d4fcf,18.52181548,17.33069921,17.01020767,16.9388997,16.64738095,17.01020767,,,,,,,,,,,,,,,,,,,,PF,strong,3,,,,,,,,6,0.557195,,,,,,,,,,,,,,,,,,,,,,,,,,,,9,strong,79,36,1,0,0,response1disk,2,50,13,-2,1,0,0,rectangle,26,-58,1,0,0,4,4,1.749575,22,-5,1,0,0,0,49,49,11,1,1,response3disk_3,rectangle,,,,,,,,,,,,,,,,,,,
,,,,,,,,,,,,,,,,,,,,,,,,,,,,,,,,,,,,,,,,,,,603d75c3cd5c8ec37b0700a1,606c0cc47622866935915eb7,2021-04-06_09h25.14.719,Colour_Similarity_Experiment,2020.2.10,Win32,60,6067542a4a25243f4d7d4fcf,18.52181548,17.33069921,17.01020767,16.9388997,16.64738095,17.01020767,,,,,,,,,,,,,,,,,,,,PF,weak,3,,,,,,,,7,0.745205,,,,,,,,,,,,,,,,,,,,,,,,,,,,3,weak,41,62,1,0,0,response1disk,3,51,21,6,1,0,0,rectangle,21,6,1,0,0,4,6,0.00183,21,6,1,0,0,0,50,50,4,1,0,,,,,,,,,,,,,,,,,,,,,
,,,,,,,,,,,,,,,,,,,,,,,,,,,,,,,,,,,,,,,,,,,603d75c3cd5c8ec37b0700a1,606c0cc47622866935915eb7,2021-04-06_09h25.14.719,Colour_Similarity_Experiment,2020.2.10,Win32,60,6067542a4a25243f4d7d4fcf,18.52181548,17.33069921,17.01020767,16.9388997,16.64738095,17.01020767,,,,,,,,,,,,,,,,,,,,PF,strong,3,,,,,,,,1,0.617735,,,,,,,,,,,,,,,,,,,,,,,,,,,,8,strong,-59,16,1,0,0,response7disk,2,52,-14,6,1,0,0,rectangle,-14,6,1,0,0,4,7,0.003435,-14,6,1,0,0,0,51,51,22,1,0,,,,,,,,,,,,,,,,,,,,,
,,,,,,,,,,,,,,,,,,,,,,,,,,,,,,,,,,,,,,,,,,,603d75c3cd5c8ec37b0700a1,606c0cc47622866935915eb7,2021-04-06_09h25.14.719,Colour_Similarity_Experiment,2020.2.10,Win32,60,6067542a4a25243f4d7d4fcf,18.52181548,17.33069921,17.01020767,16.9388997,16.64738095,17.01020767,,,,,,,,,,,,,,,,,,,,PF,weak,3,,,,,,,,6,0.432065,,,,,,,,,,,,,,,,,,,,,,,,,,,,8,weak,57,30,1,0,0,response1disk,8,53,0,-14,1,0,0,rectangle,0,-14,1,0,0,4,2,0.001025,0,-14,1,0,0,0,52,52,153,1,0,,,,,,,,,,,,,,,,,,,,,
,,,,,,,,,,,,,,,,,,,,,,,,,,,,,,,,,,,,,,,,,,,603d75c3cd5c8ec37b0700a1,606c0cc47622866935915eb7,2021-04-06_09h25.14.719,Colour_Similarity_Experiment,2020.2.10,Win32,60,6067542a4a25243f4d7d4fcf,18.52181548,17.33069921,17.01020767,16.9388997,16.64738095,17.01020767,,,,,,,,,,,,,,,,,,,,PF,weak,3,,,,,,,,6,0.417,,,,,,,,,,,,,,,,,,,,,,,,,,,,3,weak,51,34,1,0,0,response1disk,6,54,5,3,1,0,0,rectangle,5,3,1,0,0,4,5,0.00349,5,3,1,0,0,0,53,53,47,1,0,,,,,,,,,,,,,,,,,,,,,
,,,,,,,,,,,,,,,,,,,,,,,,,,,,,,,,,,,,,,,,,,,603d75c3cd5c8ec37b0700a1,606c0cc47622866935915eb7,2021-04-06_09h25.14.719,Colour_Similarity_Experiment,2020.2.10,Win32,60,6067542a4a25243f4d7d4fcf,18.52181548,17.33069921,17.01020767,16.9388997,16.64738095,17.01020767,,,,,,,,,,,,,,,,,,,,PF,strong,3,,,,,,,,6,9.9544,,,,,,,,,,,,,,,,,,,,,,,,,,,,5,strong,90,22,1,0,0,response1disk,3,55,-17,4,1,0,0,rectangle,-17,4,1,0,0,4,6,0.001345,-17,4,1,0,0,0,54,54,25,1,0,,,,,,,,,,,,,,,,,,,,,
,,,,,,,,,,,,,,,,,,,,,,,,,,,,,,,,,,,,,,,,,,,603d75c3cd5c8ec37b0700a1,606c0cc47622866935915eb7,2021-04-06_09h25.14.719,Colour_Similarity_Experiment,2020.2.10,Win32,60,6067542a4a25243f4d7d4fcf,18.52181548,17.33069921,17.01020767,16.9388997,16.64738095,17.01020767,,,,,,,,,,,,,,,,,,,,PF,weak,3,,,,,,,,6,0.458355,,,,,,,,,,,,,,,,,,,,,,,,,,,,7,weak,75,38,1,0,0,response1disk,5,56,0,-7,1,0,0,rectangle,0,-7,1,0,0,4,6,0.00065,0,-7,1,0,0,0,55,55,92,1,0,,,,,,,,,,,,,,,,,,,,,
,,,,,,,,,,,,,,,,,,,,,,,,,,,,,,,,,,,,,,,,,,,603d75c3cd5c8ec37b0700a1,606c0cc47622866935915eb7,2021-04-06_09h25.14.719,Colour_Similarity_Experiment,2020.2.10,Win32,60,6067542a4a25243f4d7d4fcf,18.52181548,17.33069921,17.01020767,16.9388997,16.64738095,17.01020767,,,,,,,,,,,,,,,,,,,,PF,weak,3,,,,,,,,6,0.58294,,,,,,,,,,,,,,,,,,,,,,,,,,,,5,weak,76,21,1,0,0,response1disk,5,57,16,-8,1,0,0,rectangle,16,-8,1,0,0,4,1,0.003245,16,-8,1,0,0,0,56,56,94,1,0,,,,,,,,,,,,,,,,,,,,,
,,,,,,,,,,,,,,,,,,,,,,,,,,,,,,,,,,,,,,,,,,,603d75c3cd5c8ec37b0700a1,606c0cc47622866935915eb7,2021-04-06_09h25.14.719,Colour_Similarity_Experiment,2020.2.10,Win32,60,6067542a4a25243f4d7d4fcf,18.52181548,17.33069921,17.01020767,16.9388997,16.64738095,17.01020767,,,,,,,,,,,,,,,,,,,,PF,weak,3,,,,,,,,7,0.63386,,,,,,,,,,,,,,,,,,,,,,,,,,,,9,weak,45,70,1,0,0,response1disk,3,58,7,-1,1,0,0,rectangle,7,-1,1,0,0,4,0,0.00206,7,-1,1,0,0,0,57,57,119,1,0,,,,,,,,,,,,,,,,,,,,,
,,,,,,,,,,,,,,,,,,,,,,,,,,,,,,,,,,,,,,,,,,,603d75c3cd5c8ec37b0700a1,606c0cc47622866935915eb7,2021-04-06_09h25.14.719,Colour_Similarity_Experiment,2020.2.10,Win32,60,6067542a4a25243f4d7d4fcf,18.52181548,17.33069921,17.01020767,16.9388997,16.64738095,17.01020767,,,,,,,,,,,,,,,,,,,,PF,weak,3,,,,,,,,2,0.829225,,,,,,,,,,,,,,,,,,,,,,,,,,,,4,weak,-91,-35,1,0,0,response5disk,6,59,-9,7,1,0,0,rectangle,-9,7,1,0,0,4,2,0.00094,-9,7,1,0,0,0,58,58,120,1,0,,,,,,,,,,,,,,,,,,,,,
,,,,,,,,,,,,,,,,,,,,,,,,,,,,,,,,,,,,,,,,,,,603d75c3cd5c8ec37b0700a1,606c0cc47622866935915eb7,2021-04-06_09h25.14.719,Colour_Similarity_Experiment,2020.2.10,Win32,60,6067542a4a25243f4d7d4fcf,18.52181548,17.33069921,17.01020767,16.9388997,16.64738095,17.01020767,,,,,,,,,,,,,,,,,,,,PF,strong,3,,,,,,,,2,0.551015,,,,,,,,,,,,,,,,,,,,,,,,,,,,5,strong,-60,-26,1,0,0,response5disk,8,60,-8,-5,1,0,0,rectangle,-8,-5,1,0,0,4,7,0.003575,-8,-5,1,0,0,0,59,59,16,1,0,,,,,,,,,,,,,,,,,,,,,
,,,,,,,,,,,,,,,,,,,,,,,,,,,,,,,,,,,,,,,,,,,603d75c3cd5c8ec37b0700a1,606c0cc47622866935915eb7,2021-04-06_09h25.14.719,Colour_Similarity_Experiment,2020.2.10,Win32,60,6067542a4a25243f4d7d4fcf,18.52181548,17.33069921,17.01020767,16.9388997,16.64738095,17.01020767,,,,,,,,,,,,,,,,,,,,PF,strong,3,,,,,,,,1,0.80055,,,,,,,,,,,,,,,,,,,,,,,,,,,,3,strong,-72,34,1,0,0,response7disk,3,61,-7,-9,1,0,0,rectangle,-7,-9,1,0,0,4,7,0.00015,-7,-9,1,0,0,0,60,60,68,1,0,,,,,,,,,,,,,,,,,,,,,
,,,,,,,,,,,,,,,,,,,,,,,,,,,,,,,,,,,,,,,,,,,603d75c3cd5c8ec37b0700a1,606c0cc47622866935915eb7,2021-04-06_09h25.14.719,Colour_Similarity_Experiment,2020.2.10,Win32,60,6067542a4a25243f4d7d4fcf,18.52181548,17.33069921,17.01020767,16.9388997,16.64738095,17.01020767,,,,,,,,,,,,,,,,,,,,PF,strong,3,,,,,,,,2,0.814305,,,,,,,,,,,,,,,,,,,,,,,,,,,,3,strong,-79,-27,1,0,0,response5disk,4,62,-5,-6,1,0,0,rectangle,-5,-6,1,0,0,4,2,0.0019,-5,-6,1,0,0,0,61,61,110,1,0,,,,,,,,,,,,,,,,,,,,,
,,,,,,,,,,,,,,,,,,,,,,,,,,,,,,,,,,,,,,,,,,,603d75c3cd5c8ec37b0700a1,606c0cc47622866935915eb7,2021-04-06_09h25.14.719,Colour_Similarity_Experiment,2020.2.10,Win32,60,6067542a4a25243f4d7d4fcf,18.52181548,17.33069921,17.01020767,16.9388997,16.64738095,17.01020767,,,,,,,,,,,,,,,,,,,,PF,weak,3,,,,,,,,0,0.849625,,,,,,,,,,,,,,,,,,,,,,,,,,,,3,weak,-32,64,1,0,0,response7disk,7,63,-14,3,1,0,0,rectangle,-14,3,1,0,0,4,6,0.001665,-14,3,1,0,0,0,62,62,41,1,0,,,,,,,,,,,,,,,,,,,,,
,,,,,,,,,,,,,,,,,,,,,,,,,,,,,,,,,,,,,,,,,,,603d75c3cd5c8ec37b0700a1,606c0cc47622866935915eb7,2021-04-06_09h25.14.719,Colour_Similarity_Experiment,2020.2.10,Win32,60,6067542a4a25243f4d7d4fcf,18.52181548,17.33069921,17.01020767,16.9388997,16.64738095,17.01020767,,,,,,,,,,,,,,,,,,,,PF,strong,3,,,,,,,,0,0.64989,,,,,,,,,,,,,,,,,,,,,,,,,,,,3,strong,-40,74,1,0,0,response7disk,2,64,13,-9,1,0,0,rectangle,13,-9,1,0,0,4,1,0.00351,13,-9,1,0,0,0,63,63,93,1,0,,,,,,,,,,,,,,,,,,,,,
,,,,,,,,,,,,,,,,,,,,,,,,,,,,,,,,,,,,,,,,,,,603d75c3cd5c8ec37b0700a1,606c0cc47622866935915eb7,2021-04-06_09h25.14.719,Colour_Similarity_Experiment,2020.2.10,Win32,60,6067542a4a25243f4d7d4fcf,18.52181548,17.33069921,17.01020767,16.9388997,16.64738095,17.01020767,,,,,,,,,,,,,,,,,,,,PF,weak,3,,,,,,,,4,0.665715,,,,,,,,,,,,,,,,,,,,,,,,,,,,4,weak,29,-79,1,0,0,response3disk,1,65,12,0,1,0,0,rectangle,12,0,1,0,0,4,0,0.00152,12,0,1,0,0,0,64,64,115,1,0,,,,,,,,,,,,,,,,,,,,,
,,,,,,,,,,,,,,,,,,,,,,,,,,,,,,,,,,,,,,,,,,,603d75c3cd5c8ec37b0700a1,606c0cc47622866935915eb7,2021-04-06_09h25.14.719,Colour_Similarity_Experiment,2020.2.10,Win32,60,6067542a4a25243f4d7d4fcf,18.52181548,17.33069921,17.01020767,16.9388997,16.64738095,17.01020767,,,,,,,,,,,,,,,,,,,,PF,strong,3,,,,,,,,6,0.54897,,,,,,,,,,,,,,,,,,,,,,,,,,,,9,strong,52,29,1,0,0,response1disk,8,66,18,-3,1,0,0,rectangle,18,-3,1,0,0,4,1,0.00175,18,-3,1,0,0,0,65,65,6,1,0,,,,,,,,,,,,,,,,,,,,,
,,,,,,,,,,,,,,,,,,,,,,,,,,,,,,,,,,,,,,,,,,,603d75c3cd5c8ec37b0700a1,606c0cc47622866935915eb7,2021-04-06_09h25.14.719,Colour_Similarity_Experiment,2020.2.10,Win32,60,6067542a4a25243f4d7d4fcf,18.52181548,17.33069921,17.01020767,16.9388997,16.64738095,17.01020767,,,,,,,,,,,,,,,,,,,,PF,weak,3,,,,,,,,3,0.64829,,,,,,,,,,,,,,,,,,,,,,,,,,,,1,weak,-28,-71,1,0,0,response5disk,3,67,1,1,1,0,0,rectangle,1,1,1,0,0,4,6,0.00422,1,1,1,0,0,0,66,66,1,1,0,,,,,,,,,,,,,,,,,,,,,
,,,,,,,,,,,,,,,,,,,,,,,,,,,,,,,,,,,,,,,,,,,603d75c3cd5c8ec37b0700a1,606c0cc47622866935915eb7,2021-04-06_09h25.14.719,Colour_Similarity_Experiment,2020.2.10,Win32,60,6067542a4a25243f4d7d4fcf,18.52181548,17.33069921,17.01020767,16.9388997,16.64738095,17.01020767,,,,,,,,,,,,,,,,,,,,PF,weak,3,,,,,,,,3,0.71013,,,,,,,,,,,,,,,,,,,,,,,,,,,,5,weak,-32,-70,1,0,0,response5disk,6,68,0,-7,1,0,0,rectangle,0,-7,1,0,0,4,3,0.00251,0,-7,1,0,0,0,67,67,103,1,0,,,,,,,,,,,,,,,,,,,,,
,,,,,,,,,,,,,,,,,,,,,,,,,,,,,,,,,,,,,,,,,,,603d75c3cd5c8ec37b0700a1,606c0cc47622866935915eb7,2021-04-06_09h25.14.719,Colour_Similarity_Experiment,2020.2.10,Win32,60,6067542a4a25243f4d7d4fcf,18.52181548,17.33069921,17.01020767,16.9388997,16.64738095,17.01020767,,,,,,,,,,,,,,,,,,,,PF,weak,3,,,,,,,,6,0.41532,,,,,,,,,,,,,,,,,,,,,,,,,,,,3,weak,62,24,1,0,0,response1disk,8,69,-24,-21,1,0,0,rectangle,-24,-21,1,0,0,4,1,0.002755,-24,-21,1,0,0,0,68,68,3,1,0,,,,,,,,,,,,,,,,,,,,,
,,,,,,,,,,,,,,,,,,,,,,,,,,,,,,,,,,,,,,,,,,,603d75c3cd5c8ec37b0700a1,606c0cc47622866935915eb7,2021-04-06_09h25.14.719,Colour_Similarity_Experiment,2020.2.10,Win32,60,6067542a4a25243f4d7d4fcf,18.52181548,17.33069921,17.01020767,16.9388997,16.64738095,17.01020767,,,,,,,,,,,,,,,,,,,,PF,weak,3,,,,,,,,5,0.466785,,,,,,,,,,,,,,,,,,,,,,,,,,,,9,weak,73,-29,1,0,0,response3disk,8,70,5,-8,1,0,0,rectangle,5,-8,1,0,0,4,4,0.00327,5,-8,1,0,0,0,69,69,67,1,0,,,,,,,,,,,,,,,,,,,,,
,,,,,,,,,,,,,,,,,,,,,,,,,,,,,,,,,,,,,,,,,,,603d75c3cd5c8ec37b0700a1,606c0cc47622866935915eb7,2021-04-06_09h25.14.719,Colour_Similarity_Experiment,2020.2.10,Win32,60,6067542a4a25243f4d7d4fcf,18.52181548,17.33069921,17.01020767,16.9388997,16.64738095,17.01020767,,,,,,,,,,,,,,,,,,,,PF,strong,3,,,,,,,,6,0.4819,,,,,,,,,,,,,,,,,,,,,,,,,,,,2,strong,56,29,1,0,0,response1disk,7,71,-7,-7,1,0,0,rectangle,-7,-7,1,0,0,4,0,0.001755,-7,-7,1,0,0,0,70,70,63,1,0,,,,,,,,,,,,,,,,,,,,,
,,,,,,,,,,,,,,,,,,,,,,,,,,,,,,,,,,,,,,,,,,,603d75c3cd5c8ec37b0700a1,606c0cc47622866935915eb7,2021-04-06_09h25.14.719,Colour_Similarity_Experiment,2020.2.10,Win32,60,6067542a4a25243f4d7d4fcf,18.52181548,17.33069921,17.01020767,16.9388997,16.64738095,17.01020767,,,,,,,,,,,,,,,,,,,,PF,strong,3,,,,,,,,7,0.481395,,,,,,,,,,,,,,,,,,,,,,,,,,,,1,strong,44,68,1,0,0,response1disk,9,72,3,0,1,0,0,rectangle,3,0,1,0,0,4,5,0.00238,3,0,1,0,0,0,71,71,123,1,0,,,,,,,,,,,,,,,,,,,,,
,,,,,,,,,,,,,,,,,,,,,,,,,,,,,,,,,,,,,,,,,,,603d75c3cd5c8ec37b0700a1,606c0cc47622866935915eb7,2021-04-06_09h25.14.719,Colour_Similarity_Experiment,2020.2.10,Win32,60,6067542a4a25243f4d7d4fcf,18.52181548,17.33069921,17.01020767,16.9388997,16.64738095,17.01020767,,,,,,,,,,,,,,,,,,,,PF,weak,3,,,,,,,,3,0.533335,,,,,,,,,,,,,,,,,,,,,,,,,,,,6,weak,-35,-70,1,0,0,response5disk,7,73,12,17,1,0,0,rectangle,12,17,1,0,0,7,3,0.00353,12,17,1,0,0,0,72,72,50,1,0,,,,,,,,,,,,,,,,,,,,,
,,,,,,,,,,,,,,,,,,,,,,,,,,,,,,,,,,,,,,,,,,,603d75c3cd5c8ec37b0700a1,606c0cc47622866935915eb7,2021-04-06_09h25.14.719,Colour_Similarity_Experiment,2020.2.10,Win32,60,6067542a4a25243f4d7d4fcf,18.52181548,17.33069921,17.01020767,16.9388997,16.64738095,17.01020767,,,,,,,,,,,,,,,,,,,,PF,strong,3,,,,,,,,3,0.5668,,,,,,,,,,,,,,,,,,,,,,,,,,,,5,strong,-36,-80,1,0,0,response5disk,9,74,-7,-2,1,0,0,rectangle,-7,-2,1,0,0,7,1,0.003835,-7,-2,1,0,0,0,73,73,61,1,0,,,,,,,,,,,,,,,,,,,,,
,,,,,,,,,,,,,,,,,,,,,,,,,,,,,,,,,,,,,,,,,,,603d75c3cd5c8ec37b0700a1,606c0cc47622866935915eb7,2021-04-06_09h25.14.719,Colour_Similarity_Experiment,2020.2.10,Win32,60,6067542a4a25243f4d7d4fcf,18.52181548,17.33069921,17.01020767,16.9388997,16.64738095,17.01020767,,,,,,,,,,,,,,,,,,,,PF,strong,3,,,,,,,,6,0.863785,,,,,,,,,,,,,,,,,,,,,,,,,,,,6,strong,73,33,1,0,0,response1disk,9,75,17,-3,1,0,0,rectangle,-63,-38,1,0,0,7,2,1.720285,5,-3,1,0,0,0,74,74,160,1,1,response5disk_3,rectangle,,,,,,,,,,,,,,,,,,,
,,,,,,,,,,,,,,,,,,,,,,,,,,,,,,,,,,,,,,,,,,,603d75c3cd5c8ec37b0700a1,606c0cc47622866935915eb7,2021-04-06_09h25.14.719,Colour_Similarity_Experiment,2020.2.10,Win32,60,6067542a4a25243f4d7d4fcf,18.52181548,17.33069921,17.01020767,16.9388997,16.64738095,17.01020767,,,,,,,,,,,,,,,,,,,,PF,strong,3,,,,,,,,6,0.551035,,,,,,,,,,,,,,,,,,,,,,,,,,,,5,strong,42,35,1,0,0,response1disk,6,76,-1,3,1,0,0,rectangle,-1,3,1,0,0,7,7,0.001515,-1,3,1,0,0,0,75,75,12,1,0,,,,,,,,,,,,,,,,,,,,,
,,,,,,,,,,,,,,,,,,,,,,,,,,,,,,,,,,,,,,,,,,,603d75c3cd5c8ec37b0700a1,606c0cc47622866935915eb7,2021-04-06_09h25.14.719,Colour_Similarity_Experiment,2020.2.10,Win32,60,6067542a4a25243f4d7d4fcf,18.52181548,17.33069921,17.01020767,16.9388997,16.64738095,17.01020767,,,,,,,,,,,,,,,,,,,,PF,strong,3,,,,,,,,1,0.49956,,,,,,,,,,,,,,,,,,,,,,,,,,,,8,strong,-68,41,1,0,0,response7disk,3,77,-4,1,1,0,0,rectangle,-4,1,1,0,0,7,7,0.00082,-4,1,1,0,0,0,76,76,154,1,0,,,,,,,,,,,,,,,,,,,,,
,,,,,,,,,,,,,,,,,,,,,,,,,,,,,,,,,,,,,,,,,,,603d75c3cd5c8ec37b0700a1,606c0cc47622866935915eb7,2021-04-06_09h25.14.719,Colour_Similarity_Experiment,2020.2.10,Win32,60,6067542a4a25243f4d7d4fcf,18.52181548,17.33069921,17.01020767,16.9388997,16.64738095,17.01020767,,,,,,,,,,,,,,,,,,,,PF,strong,3,,,,,,,,4,0.533485,,,,,,,,,,,,,,,,,,,,,,,,,,,,7,strong,23,-73,1,0,0,response3disk,3,78,-6,8,1,0,0,rectangle,-6,8,1,0,0,7,4,0.00413,-6,8,1,0,0,0,77,77,73,1,0,,,,,,,,,,,,,,,,,,,,,
,,,,,,,,,,,,,,,,,,,,,,,,,,,,,,,,,,,,,,,,,,,603d75c3cd5c8ec37b0700a1,606c0cc47622866935915eb7,2021-04-06_09h25.14.719,Colour_Similarity_Experiment,2020.2.10,Win32,60,6067542a4a25243f4d7d4fcf,18.52181548,17.33069921,17.01020767,16.9388997,16.64738095,17.01020767,,,,,,,,,,,,,,,,,,,,PF,weak,3,,,,,,,,4,0.38327,,,,,,,,,,,,,,,,,,,,,,,,,,,,8,weak,23,-61,1,0,0,response3disk,2,79,12,-7,1,0,0,rectangle,12,-7,1,0,0,7,0,0.00305,12,-7,1,0,0,0,78,78,83,1,0,,,,,,,,,,,,,,,,,,,,,
,,,,,,,,,,,,,,,,,,,,,,,,,,,,,,,,,,,,,,,,,,,603d75c3cd5c8ec37b0700a1,606c0cc47622866935915eb7,2021-04-06_09h25.14.719,Colour_Similarity_Experiment,2020.2.10,Win32,60,6067542a4a25243f4d7d4fcf,18.52181548,17.33069921,17.01020767,16.9388997,16.64738095,17.01020767,,,,,,,,,,,,,,,,,,,,PF,weak,3,,,,,,,,4,0.43328,,,,,,,,,,,,,,,,,,,,,,,,,,,,1,weak,26,-52,1,0,0,response3disk,1,80,5,16,1,0,0,rectangle,35,84,1,0,0,7,7,1.53775,26,-3,1,0,0,0,79,79,76,1,1,response1disk_3,rectangle,,,,,,,,,,,,,,,,,,,
,,,,,,,,,,,,,,,,,,,,,,,,,,,,,,,,,,,,,,,,,,,603d75c3cd5c8ec37b0700a1,606c0cc47622866935915eb7,2021-04-06_09h25.14.719,Colour_Similarity_Experiment,2020.2.10,Win32,60,6067542a4a25243f4d7d4fcf,18.52181548,17.33069921,17.01020767,16.9388997,16.64738095,17.01020767,,,,,,,,,,,,,,,,,,,,PF,weak,3,,,,,,,,5,0.59579,,,,,,,,,,,,,,,,,,,,,,,,,,,,5,weak,69,-34,1,0,0,response3disk,3,81,11,3,1,0,0,rectangle,11,3,1,0,0,7,0,0.004125,11,3,1,0,0,0,80,80,109,1,0,,,,,,,,,,,,,,,,,,,,,
,,,,,,,,,,,,,,,,,,,,,,,,,,,,,,,,,,,,,,,,,,,603d75c3cd5c8ec37b0700a1,606c0cc47622866935915eb7,2021-04-06_09h25.14.719,Colour_Similarity_Experiment,2020.2.10,Win32,60,6067542a4a25243f4d7d4fcf,18.52181548,17.33069921,17.01020767,16.9388997,16.64738095,17.01020767,,,,,,,,,,,,,,,,,,,,PF,weak,3,,,,,,,,6,0.48315,,,,,,,,,,,,,,,,,,,,,,,,,,,,6,weak,73,24,1,0,0,response1disk,2,82,29,3,1,0,0,rectangle,29,3,1,0,0,7,3,0.00139,29,3,1,0,0,0,81,81,130,1,0,,,,,,,,,,,,,,,,,,,,,
,,,,,,,,,,,,,,,,,,,,,,,,,,,,,,,,,,,,,,,,,,,603d75c3cd5c8ec37b0700a1,606c0cc47622866935915eb7,2021-04-06_09h25.14.719,Colour_Similarity_Experiment,2020.2.10,Win32,60,6067542a4a25243f4d7d4fcf,18.52181548,17.33069921,17.01020767,16.9388997,16.64738095,17.01020767,,,,,,,,,,,,,,,,,,,,PF,strong,3,,,,,,,,1,0.65568,,,,,,,,,,,,,,,,,,,,,,,,,,,,7,strong,-37,20,1,0,0,response7disk,1,83,-36,-2,1,0,0,rectangle,-36,-2,1,0,0,7,3,0.000335,-36,-2,1,0,0,0,82,82,132,1,0,,,,,,,,,,,,,,,,,,,,,
,,,,,,,,,,,,,,,,,,,,,,,,,,,,,,,,,,,,,,,,,,,603d75c3cd5c8ec37b0700a1,606c0cc47622866935915eb7,2021-04-06_09h25.14.719,Colour_Similarity_Experiment,2020.2.10,Win32,60,6067542a4a25243f4d7d4fcf,18.52181548,17.33069921,17.01020767,16.9388997,16.64738095,17.01020767,,,,,,,,,,,,,,,,,,,,PF,strong,3,,,,,,,,6,0.44914,,,,,,,,,,,,,,,,,,,,,,,,,,,,2,strong,51,32,1,0,0,response1disk,3,84,0,6,1,0,0,rectangle,-59,-27,1,0,0,7,2,1.417395,15,-6,1,0,0,0,83,83,104,1,1,response5disk_3,rectangle,,,,,,,,,,,,,,,,,,,
,,,,,,,,,,,,,,,,,,,,,,,,,,,,,,,,,,,,,,,,,,,603d75c3cd5c8ec37b0700a1,606c0cc47622866935915eb7,2021-04-06_09h25.14.719,Colour_Similarity_Experiment,2020.2.10,Win32,60,6067542a4a25243f4d7d4fcf,18.52181548,17.33069921,17.01020767,16.9388997,16.64738095,17.01020767,,,,,,,,,,,,,,,,,,,,PF,weak,3,,,,,,,,6,0.400125,,,,,,,,,,,,,,,,,,,,,,,,,,,,6,weak,54,39,1,0,0,response1disk,8,85,10,17,1,0,0,rectangle,10,17,1,0,0,7,7,0.003755,10,17,1,0,0,0,84,84,64,1,0,,,,,,,,,,,,,,,,,,,,,
,,,,,,,,,,,,,,,,,,,,,,,,,,,,,,,,,,,,,,,,,,,603d75c3cd5c8ec37b0700a1,606c0cc47622866935915eb7,2021-04-06_09h25.14.719,Colour_Similarity_Experiment,2020.2.10,Win32,60,6067542a4a25243f4d7d4fcf,18.52181548,17.33069921,17.01020767,16.9388997,16.64738095,17.01020767,,,,,,,,,,,,,,,,,,,,PF,strong,3,,,,,,,,2,0.48015,,,,,,,,,,,,,,,,,,,,,,,,,,,,8,strong,-69,-27,1,0,0,response5disk,8,86,2,7,1,0,0,rectangle,2,7,1,0,0,7,6,0.00454,2,7,1,0,0,0,85,85,48,1,0,,,,,,,,,,,,,,,,,,,,,
,,,,,,,,,,,,,,,,,,,,,,,,,,,,,,,,,,,,,,,,,,,603d75c3cd5c8ec37b0700a1,606c0cc47622866935915eb7,2021-04-06_09h25.14.719,Colour_Similarity_Experiment,2020.2.10,Win32,60,6067542a4a25243f4d7d4fcf,18.52181548,17.33069921,17.01020767,16.9388997,16.64738095,17.01020767,,,,,,,,,,,,,,,,,,,,PF,weak,3,,,,,,,,5,0.44389,,,,,,,,,,,,,,,,,,,,,,,,,,,,1,weak,47,-27,1,0,0,response3disk,9,87,4,-9,1,0,0,rectangle,4,-9,1,0,0,7,2,0.001775,4,-9,1,0,0,0,86,86,15,1,0,,,,,,,,,,,,,,,,,,,,,
,,,,,,,,,,,,,,,,,,,,,,,,,,,,,,,,,,,,,,,,,,,603d75c3cd5c8ec37b0700a1,606c0cc47622866935915eb7,2021-04-06_09h25.14.719,Colour_Similarity_Experiment,2020.2.10,Win32,60,6067542a4a25243f4d7d4fcf,18.52181548,17.33069921,17.01020767,16.9388997,16.64738095,17.01020767,,,,,,,,,,,,,,,,,,,,PF,strong,3,,,,,,,,5,1.33653,,,,,,,,,,,,,,,,,,,,,,,,,,,,9,strong,61,-21,1,0,0,response3disk,5,88,13,12,1,0,0,rectangle,13,12,1,0,0,6,7,0.002025,13,12,1,0,0,0,87,87,128,1,0,,,,,,,,,,,,,,,,,,,,,
,,,,,,,,,,,,,,,,,,,,,,,,,,,,,,,,,,,,,,,,,,,603d75c3cd5c8ec37b0700a1,606c0cc47622866935915eb7,2021-04-06_09h25.14.719,Colour_Similarity_Experiment,2020.2.10,Win32,60,6067542a4a25243f4d7d4fcf,18.52181548,17.33069921,17.01020767,16.9388997,16.64738095,17.01020767,,,,,,,,,,,,,,,,,,,,PF,strong,3,,,,,,,,3,0.68323,,,,,,,,,,,,,,,,,,,,,,,,,,,,7,strong,-46,-73,1,0,0,response5disk,6,89,2,-1,1,0,0,rectangle,2,-1,1,0,0,6,1,0.003845,2,-1,1,0,0,0,88,88,31,1,0,,,,,,,,,,,,,,,,,,,,,
,,,,,,,,,,,,,,,,,,,,,,,,,,,,,,,,,,,,,,,,,,,603d75c3cd5c8ec37b0700a1,606c0cc47622866935915eb7,2021-04-06_09h25.14.719,Colour_Similarity_Experiment,2020.2.10,Win32,60,6067542a4a25243f4d7d4fcf,18.52181548,17.33069921,17.01020767,16.9388997,16.64738095,17.01020767,,,,,,,,,,,,,,,,,,,,PF,weak,3,,,,,,,,4,0.71695,,,,,,,,,,,,,,,,,,,,,,,,,,,,9,weak,43,-73,1,0,0,response3disk,7,90,5,-3,1,0,0,rectangle,5,-3,1,0,0,6,0,0.003895,5,-3,1,0,0,0,89,89,121,1,0,,,,,,,,,,,,,,,,,,,,,
,,,,,,,,,,,,,,,,,,,,,,,,,,,,,,,,,,,,,,,,,,,603d75c3cd5c8ec37b0700a1,606c0cc47622866935915eb7,2021-04-06_09h25.14.719,Colour_Similarity_Experiment,2020.2.10,Win32,60,6067542a4a25243f4d7d4fcf,18.52181548,17.33069921,17.01020767,16.9388997,16.64738095,17.01020767,,,,,,,,,,,,,,,,,,,,PF,strong,3,,,,,,,,5,1.242145,,,,,,,,,,,,,,,,,,,,,,,,,,,,1,strong,50,-47,1,0,0,response3disk,5,91,-10,2,1,0,0,rectangle,-10,2,1,0,0,6,6,0.00106,-10,2,1,0,0,0,90,90,82,1,0,,,,,,,,,,,,,,,,,,,,,
,,,,,,,,,,,,,,,,,,,,,,,,,,,,,,,,,,,,,,,,,,,603d75c3cd5c8ec37b0700a1,606c0cc47622866935915eb7,2021-04-06_09h25.14.719,Colour_Similarity_Experiment,2020.2.10,Win32,60,6067542a4a25243f4d7d4fcf,18.52181548,17.33069921,17.01020767,16.9388997,16.64738095,17.01020767,,,,,,,,,,,,,,,,,,,,PF,weak,3,,,,,,,,6,0.78322,,,,,,,,,,,,,,,,,,,,,,,,,,,,7,weak,82,28,1,0,0,response1disk,9,92,15,5,1,0,0,rectangle,15,5,1,0,0,6,3,0.001995,15,5,1,0,0,0,91,91,10,1,0,,,,,,,,,,,,,,,,,,,,,
,,,,,,,,,,,,,,,,,,,,,,,,,,,,,,,,,,,,,,,,,,,603d75c3cd5c8ec37b0700a1,606c0cc47622866935915eb7,2021-04-06_09h25.14.719,Colour_Similarity_Experiment,2020.2.10,Win32,60,6067542a4a25243f4d7d4fcf,18.52181548,17.33069921,17.01020767,16.9388997,16.64738095,17.01020767,,,,,,,,,,,,,,,,,,,,PF,weak,3,,,,,,,,3,8.952445,,,,,,,,,,,,,,,,,,,,,,,,,,,,2,weak,-59,-60,1,0,0,response5disk,3,93,-10,-15,1,0,0,rectangle,-10,-15,1,0,0,6,4,0.003725,-10,-15,1,0,0,0,92,92,69,1,0,,,,,,,,,,,,,,,,,,,,,
,,,,,,,,,,,,,,,,,,,,,,,,,,,,,,,,,,,,,,,,,,,603d75c3cd5c8ec37b0700a1,606c0cc47622866935915eb7,2021-04-06_09h25.14.719,Colour_Similarity_Experiment,2020.2.10,Win32,60,6067542a4a25243f4d7d4fcf,18.52181548,17.33069921,17.01020767,16.9388997,16.64738095,17.01020767,,,,,,,,,,,,,,,,,,,,PF,weak,3,,,,,,,,7,5.93178,,,,,,,,,,,,,,,,,,,,,,,,,,,,5,weak,12,84,1,0,0,response1disk,7,94,-12,11,1,0,0,rectangle,-12,11,1,0,0,6,4,0.00157,-12,11,1,0,0,0,93,93,146,1,0,,,,,,,,,,,,,,,,,,,,,
,,,,,,,,,,,,,,,,,,,,,,,,,,,,,,,,,,,,,,,,,,,603d75c3cd5c8ec37b0700a1,606c0cc47622866935915eb7,2021-04-06_09h25.14.719,Colour_Similarity_Experiment,2020.2.10,Win32,60,6067542a4a25243f4d7d4fcf,18.52181548,17.33069921,17.01020767,16.9388997,16.64738095,17.01020767,,,,,,,,,,,,,,,,,,,,PF,strong,3,,,,,,,,1,2.317815,,,,,,,,,,,,,,,,,,,,,,,,,,,,8,strong,-76,41,1,0,0,response7disk,1,95,-6,-3,1,0,0,rectangle,-6,-3,1,0,0,6,7,0.0012,-6,-3,1,0,0,0,94,94,20,1,0,,,,,,,,,,,,,,,,,,,,,
,,,,,,,,,,,,,,,,,,,,,,,,,,,,,,,,,,,,,,,,,,,603d75c3cd5c8ec37b0700a1,606c0cc47622866935915eb7,2021-04-06_09h25.14.719,Colour_Similarity_Experiment,2020.2.10,Win32,60,6067542a4a25243f4d7d4fcf,18.52181548,17.33069921,17.01020767,16.9388997,16.64738095,17.01020767,,,,,,,,,,,,,,,,,,,,PF,weak,3,,,,,,,,6,0.883505,,,,,,,,,,,,,,,,,,,,,,,,,,,,5,weak,73,26,1,0,0,response1disk,8,96,0,-8,1,0,0,rectangle,0,-8,1,0,0,6,3,0.00377,0,-8,1,0,0,0,95,95,149,1,0,,,,,,,,,,,,,,,,,,,,,
,,,,,,,,,,,,,,,,,,,,,,,,,,,,,,,,,,,,,,,,,,,603d75c3cd5c8ec37b0700a1,606c0cc47622866935915eb7,2021-04-06_09h25.14.719,Colour_Similarity_Experiment,2020.2.10,Win32,60,6067542a4a25243f4d7d4fcf,18.52181548,17.33069921,17.01020767,16.9388997,16.64738095,17.01020767,,,,,,,,,,,,,,,,,,,,PF,strong,3,,,,,,,,7,0.99994,,,,,,,,,,,,,,,,,,,,,,,,,,,,6,strong,31,72,1,0,0,response1disk,4,97,-2,3,1,0,0,rectangle,-2,3,1,0,0,6,1,0.003345,-2,3,1,0,0,0,96,96,56,1,0,,,,,,,,,,,,,,,,,,,,,
,,,,,,,,,,,,,,,,,,,,,,,,,,,,,,,,,,,,,,,,,,,603d75c3cd5c8ec37b0700a1,606c0cc47622866935915eb7,2021-04-06_09h25.14.719,Colour_Similarity_Experiment,2020.2.10,Win32,60,6067542a4a25243f4d7d4fcf,18.52181548,17.33069921,17.01020767,16.9388997,16.64738095,17.01020767,,,,,,,,,,,,,,,,,,,,PF,strong,3,,,,,,,,7,0.66607,,,,,,,,,,,,,,,,,,,,,,,,,,,,8,strong,54,70,1,0,0,response1disk,6,98,15,-1,1,0,0,rectangle,15,-1,1,0,0,6,6,0.00409,15,-1,1,0,0,0,97,97,37,1,0,,,,,,,,,,,,,,,,,,,,,
,,,,,,,,,,,,,,,,,,,,,,,,,,,,,,,,,,,,,,,,,,,603d75c3cd5c8ec37b0700a1,606c0cc47622866935915eb7,2021-04-06_09h25.14.719,Colour_Similarity_Experiment,2020.2.10,Win32,60,6067542a4a25243f4d7d4fcf,18.52181548,17.33069921,17.01020767,16.9388997,16.64738095,17.01020767,,,,,,,,,,,,,,,,,,,,PF,weak,3,,,,,,,,7,0.56644,,,,,,,,,,,,,,,,,,,,,,,,,,,,5,weak,30,67,1,0,0,response1disk,1,99,-18,5,1,0,0,rectangle,25,-62,1,0,0,4,4,1.557665,1,3,1,0,0,0,98,98,159,1,1,response3disk_3,rectangle,,,,,,,,,,,,,,,,,,,
,,,,,,,,,,,,,,,,,,,,,,,,,,,,,,,,,,,,,,,,,,,603d75c3cd5c8ec37b0700a1,606c0cc47622866935915eb7,2021-04-06_09h25.14.719,Colour_Similarity_Experiment,2020.2.10,Win32,60,6067542a4a25243f4d7d4fcf,18.52181548,17.33069921,17.01020767,16.9388997,16.64738095,17.01020767,,,,,,,,,,,,,,,,,,,,PF,weak,3,,,,,,,,6,0.768815,,,,,,,,,,,,,,,,,,,,,,,,,,,,4,weak,69,51,1,0,0,response1disk,8,100,19,11,1,0,0,rectangle,19,11,1,0,0,4,4,0.00017,19,11,1,0,0,0,99,99,124,1,0,,,,,,,,,,,,,,,,,,,,,
,,,,,,,,,,,,,,,,,,,,,,,,,,,,,,,,,,,,,,,,,,,603d75c3cd5c8ec37b0700a1,606c0cc47622866935915eb7,2021-04-06_09h25.14.719,Colour_Similarity_Experiment,2020.2.10,Win32,60,6067542a4a25243f4d7d4fcf,18.52181548,17.33069921,17.01020767,16.9388997,16.64738095,17.01020767,,,,,,,,,,,,,,,,,,,,PF,weak,3,,,,,,,,0,1.62964,,,,,,,,,,,,,,,,,,,,,,,,,,,,7,weak,-27,32,1,0,0,response7disk,6,101,-33,-15,1,0,0,rectangle,-33,-15,1,0,0,4,4,0.000225,-33,-15,1,0,0,0,100,100,29,1,0,,,,,,,,,,,,,,,,,,,,,
,,,,,,,,,,,,,,,,,,,,,,,,,,,,,,,,,,,,,,,,,,,603d75c3cd5c8ec37b0700a1,606c0cc47622866935915eb7,2021-04-06_09h25.14.719,Colour_Similarity_Experiment,2020.2.10,Win32,60,6067542a4a25243f4d7d4fcf,18.52181548,17.33069921,17.01020767,16.9388997,16.64738095,17.01020767,,,,,,,,,,,,,,,,,,,,PF,strong,3,,,,,,,,4,0.639865,,,,,,,,,,,,,,,,,,,,,,,,,,,,9,strong,50,-78,1,0,0,response3disk,3,102,27,3,1,0,0,rectangle,27,3,1,0,0,4,4,0.000215,27,3,1,0,0,0,101,101,141,1,0,,,,,,,,,,,,,,,,,,,,,
,,,,,,,,,,,,,,,,,,,,,,,,,,,,,,,,,,,,,,,,,,,603d75c3cd5c8ec37b0700a1,606c0cc47622866935915eb7,2021-04-06_09h25.14.719,Colour_Similarity_Experiment,2020.2.10,Win32,60,6067542a4a25243f4d7d4fcf,18.52181548,17.33069921,17.01020767,16.9388997,16.64738095,17.01020767,,,,,,,,,,,,,,,,,,,,PF,weak,3,,,,,,,,5,0.93345,,,,,,,,,,,,,,,,,,,,,,,,,,,,1,weak,63,-34,1,0,0,response3disk,5,103,22,1,1,0,0,rectangle,22,1,1,0,0,4,1,0.001405,22,1,1,0,0,0,102,102,28,1,0,,,,,,,,,,,,,,,,,,,,,
,,,,,,,,,,,,,,,,,,,,,,,,,,,,,,,,,,,,,,,,,,,603d75c3cd5c8ec37b0700a1,606c0cc47622866935915eb7,2021-04-06_09h25.14.719,Colour_Similarity_Experiment,2020.2.10,Win32,60,6067542a4a25243f4d7d4fcf,18.52181548,17.33069921,17.01020767,16.9388997,16.64738095,17.01020767,,,,,,,,,,,,,,,,,,,,PF,weak,3,,,,,,,,5,0.657725,,,,,,,,,,,,,,,,,,,,,,,,,,,,8,weak,61,-14,1,0,0,response3disk,4,104,19,2,1,0,0,rectangle,19,2,1,0,0,4,7,0.00135,19,2,1,0,0,0,103,103,78,1,0,,,,,,,,,,,,,,,,,,,,,
,,,,,,,,,,,,,,,,,,,,,,,,,,,,,,,,,,,,,,,,,,,603d75c3cd5c8ec37b0700a1,606c0cc47622866935915eb7,2021-04-06_09h25.14.719,Colour_Similarity_Experiment,2020.2.10,Win32,60,6067542a4a25243f4d7d4fcf,18.52181548,17.33069921,17.01020767,16.9388997,16.64738095,17.01020767,,,,,,,,,,,,,,,,,,,,PF,weak,3,,,,,,,,0,7.13228,,,,,,,,,,,,,,,,,,,,,,,,,,,,4,weak,-26,61,1,0,0,response7disk,3,105,-14,15,1,0,0,rectangle,-14,15,1,0,0,0,6,0.001895,-14,15,1,0,0,0,104,104,89,1,0,,,,,,,,,,,,,,,,,,,,,
,,,,,,,,,,,,,,,,,,,,,,,,,,,,,,,,,,,,,,,,,,,603d75c3cd5c8ec37b0700a1,606c0cc47622866935915eb7,2021-04-06_09h25.14.719,Colour_Similarity_Experiment,2020.2.10,Win32,60,6067542a4a25243f4d7d4fcf,18.52181548,17.33069921,17.01020767,16.9388997,16.64738095,17.01020767,,,,,,,,,,,,,,,,,,,,PF,strong,3,,,,,,,,0,4.104705,,,,,,,,,,,,,,,,,,,,,,,,,,,,5,strong,-32,63,1,0,0,response7disk,4,106,6,7,1,0,0,rectangle,6,7,1,0,0,0,4,0.002005,6,7,1,0,0,0,105,105,8,1,0,,,,,,,,,,,,,,,,,,,,,
,,,,,,,,,,,,,,,,,,,,,,,,,,,,,,,,,,,,,,,,,,,603d75c3cd5c8ec37b0700a1,606c0cc47622866935915eb7,2021-04-06_09h25.14.719,Colour_Similarity_Experiment,2020.2.10,Win32,60,6067542a4a25243f4d7d4fcf,18.52181548,17.33069921,17.01020767,16.9388997,16.64738095,17.01020767,,,,,,,,,,,,,,,,,,,,PF,strong,3,,,,,,,,0,0.70369,,,,,,,,,,,,,,,,,,,,,,,,,,,,3,strong,-48,87,1,0,0,response7disk,7,107,-20,-7,1,0,0,rectangle,-20,-7,1,0,0,0,7,0.00131,-20,-7,1,0,0,0,106,106,118,1,0,,,,,,,,,,,,,,,,,,,,,
,,,,,,,,,,,,,,,,,,,,,,,,,,,,,,,,,,,,,,,,,,,603d75c3cd5c8ec37b0700a1,606c0cc47622866935915eb7,2021-04-06_09h25.14.719,Colour_Similarity_Experiment,2020.2.10,Win32,60,6067542a4a25243f4d7d4fcf,18.52181548,17.33069921,17.01020767,16.9388997,16.64738095,17.01020767,,,,,,,,,,,,,,,,,,,,PF,strong,3,,,,,,,,0,0.789855,,,,,,,,,,,,,,,,,,,,,,,,,,,,2,strong,-45,55,1,0,0,response7disk,1,108,-19,-5,1,0,0,rectangle,-19,-5,1,0,0,0,1,0.001585,-19,-5,1,0,0,0,107,107,85,1,0,,,,,,,,,,,,,,,,,,,,,
,,,,,,,,,,,,,,,,,,,,,,,,,,,,,,,,,,,,,,,,,,,603d75c3cd5c8ec37b0700a1,606c0cc47622866935915eb7,2021-04-06_09h25.14.719,Colour_Similarity_Experiment,2020.2.10,Win32,60,6067542a4a25243f4d7d4fcf,18.52181548,17.33069921,17.01020767,16.9388997,16.64738095,17.01020767,,,,,,,,,,,,,,,,,,,,PF,weak,3,,,,,,,,2,3.537015,,,,,,,,,,,,,,,,,,,,,,,,,,,,2,weak,-72,-34,1,0,0,response5disk,6,109,21,7,1,0,0,rectangle,21,7,1,0,0,0,0,0.00146,21,7,1,0,0,0,108,108,113,1,0,,,,,,,,,,,,,,,,,,,,,
,,,,,,,,,,,,,,,,,,,,,,,,,,,,,,,,,,,,,,,,,,,603d75c3cd5c8ec37b0700a1,606c0cc47622866935915eb7,2021-04-06_09h25.14.719,Colour_Similarity_Experiment,2020.2.10,Win32,60,6067542a4a25243f4d7d4fcf,18.52181548,17.33069921,17.01020767,16.9388997,16.64738095,17.01020767,,,,,,,,,,,,,,,,,,,,PF,weak,3,,,,,,,,0,1.569605,,,,,,,,,,,,,,,,,,,,,,,,,,,,3,weak,-39,59,1,0,0,response7disk,1,110,-40,13,1,0,0,rectangle,-40,13,1,0,0,1,2,0.00166,-40,13,1,0,0,0,109,109,96,1,0,,,,,,,,,,,,,,,,,,,,,
,,,,,,,,,,,,,,,,,,,,,,,,,,,,,,,,,,,,,,,,,,,603d75c3cd5c8ec37b0700a1,606c0cc47622866935915eb7,2021-04-06_09h25.14.719,Colour_Similarity_Experiment,2020.2.10,Win32,60,6067542a4a25243f4d7d4fcf,18.52181548,17.33069921,17.01020767,16.9388997,16.64738095,17.01020767,,,,,,,,,,,,,,,,,,,,PF,strong,3,,,,,,,,7,1.780205,,,,,,,,,,,,,,,,,,,,,,,,,,,,4,strong,55,81,1,0,0,response1disk,5,111,-34,-10,1,0,0,rectangle,-34,-10,1,0,0,1,6,0.003315,-34,-10,1,0,0,0,110,110,116,1,0,,,,,,,,,,,,,,,,,,,,,
,,,,,,,,,,,,,,,,,,,,,,,,,,,,,,,,,,,,,,,,,,,603d75c3cd5c8ec37b0700a1,606c0cc47622866935915eb7,2021-04-06_09h25.14.719,Colour_Similarity_Experiment,2020.2.10,Win32,60,6067542a4a25243f4d7d4fcf,18.52181548,17.33069921,17.01020767,16.9388997,16.64738095,17.01020767,,,,,,,,,,,,,,,,,,,,PF,strong,3,,,,,,,,7,0.812905,,,,,,,,,,,,,,,,,,,,,,,,,,,,9,strong,15,76,1,0,0,response1disk,4,112,-27,1,1,0,0,rectangle,-27,1,1,0,0,1,5,0.001695,-27,1,1,0,0,0,111,111,60,1,0,,,,,,,,,,,,,,,,,,,,,
,,,,,,,,,,,,,,,,,,,,,,,,,,,,,,,,,,,,,,,,,,,603d75c3cd5c8ec37b0700a1,606c0cc47622866935915eb7,2021-04-06_09h25.14.719,Colour_Similarity_Experiment,2020.2.10,Win32,60,6067542a4a25243f4d7d4fcf,18.52181548,17.33069921,17.01020767,16.9388997,16.64738095,17.01020767,,,,,,,,,,,,,,,,,,,,PF,weak,3,,,,,,,,7,0.665565,,,,,,,,,,,,,,,,,,,,,,,,,,,,2,weak,41,84,1,0,0,response1disk,4,113,-20,12,1,0,0,rectangle,-20,12,1,0,0,1,1,0.001955,-20,12,1,0,0,0,112,112,127,1,0,,,,,,,,,,,,,,,,,,,,,
,,,,,,,,,,,,,,,,,,,,,,,,,,,,,,,,,,,,,,,,,,,603d75c3cd5c8ec37b0700a1,606c0cc47622866935915eb7,2021-04-06_09h25.14.719,Colour_Similarity_Experiment,2020.2.10,Win32,60,6067542a4a25243f4d7d4fcf,18.52181548,17.33069921,17.01020767,16.9388997,16.64738095,17.01020767,,,,,,,,,,,,,,,,,,,,PF,strong,3,,,,,,,,7,1.01708,,,,,,,,,,,,,,,,,,,,,,,,,,,,8,strong,38,66,1,0,0,response1disk,4,114,-11,2,1,0,0,rectangle,-11,2,1,0,0,1,2,0.00328,-11,2,1,0,0,0,113,113,88,1,0,,,,,,,,,,,,,,,,,,,,,
,,,,,,,,,,,,,,,,,,,,,,,,,,,,,,,,,,,,,,,,,,,603d75c3cd5c8ec37b0700a1,606c0cc47622866935915eb7,2021-04-06_09h25.14.719,Colour_Similarity_Experiment,2020.2.10,Win32,60,6067542a4a25243f4d7d4fcf,18.52181548,17.33069921,17.01020767,16.9388997,16.64738095,17.01020767,,,,,,,,,,,,,,,,,,,,PF,weak,3,,,,,,,,7,0.703215,,,,,,,,,,,,,,,,,,,,,,,,,,,,3,weak,35,78,1,0,0,response1disk,9,115,-23,-3,1,0,0,rectangle,-23,-3,1,0,0,1,5,0.001235,-23,-3,1,0,0,0,114,114,79,1,0,,,,,,,,,,,,,,,,,,,,,
,,,,,,,,,,,,,,,,,,,,,,,,,,,,,,,,,,,,,,,,,,,603d75c3cd5c8ec37b0700a1,606c0cc47622866935915eb7,2021-04-06_09h25.14.719,Colour_Similarity_Experiment,2020.2.10,Win32,60,6067542a4a25243f4d7d4fcf,18.52181548,17.33069921,17.01020767,16.9388997,16.64738095,17.01020767,,,,,,,,,,,,,,,,,,,,PF,strong,3,,,,,,,,7,1.08395,,,,,,,,,,,,,,,,,,,,,,,,,,,,6,strong,59,83,1,0,0,response1disk,6,116,0,-1,1,0,0,rectangle,0,-1,1,0,0,1,5,0.00042,0,-1,1,0,0,0,115,115,91,1,0,,,,,,,,,,,,,,,,,,,,,
,,,,,,,,,,,,,,,,,,,,,,,,,,,,,,,,,,,,,,,,,,,603d75c3cd5c8ec37b0700a1,606c0cc47622866935915eb7,2021-04-06_09h25.14.719,Colour_Similarity_Experiment,2020.2.10,Win32,60,6067542a4a25243f4d7d4fcf,18.52181548,17.33069921,17.01020767,16.9388997,16.64738095,17.01020767,,,,,,,,,,,,,,,,,,,,PF,strong,3,,,,,,,,0,1.299675,,,,,,,,,,,,,,,,,,,,,,,,,,,,5,strong,-19,74,1,0,0,response7disk,1,117,-21,-7,1,0,0,rectangle,-21,-7,1,0,0,1,6,0.00151,-21,-7,1,0,0,0,116,116,131,1,0,,,,,,,,,,,,,,,,,,,,,
,,,,,,,,,,,,,,,,,,,,,,,,,,,,,,,,,,,,,,,,,,,603d75c3cd5c8ec37b0700a1,606c0cc47622866935915eb7,2021-04-06_09h25.14.719,Colour_Similarity_Experiment,2020.2.10,Win32,60,6067542a4a25243f4d7d4fcf,18.52181548,17.33069921,17.01020767,16.9388997,16.64738095,17.01020767,,,,,,,,,,,,,,,,,,,,PF,strong,3,,,,,,,,7,0.73351,,,,,,,,,,,,,,,,,,,,,,,,,,,,5,strong,36,75,1,0,0,response1disk,5,118,-17,-5,1,0,0,rectangle,-17,-5,1,0,0,1,4,0.00518,-17,-5,1,0,0,0,117,117,19,1,0,,,,,,,,,,,,,,,,,,,,,
,,,,,,,,,,,,,,,,,,,,,,,,,,,,,,,,,,,,,,,,,,,603d75c3cd5c8ec37b0700a1,606c0cc47622866935915eb7,2021-04-06_09h25.14.719,Colour_Similarity_Experiment,2020.2.10,Win32,60,6067542a4a25243f4d7d4fcf,18.52181548,17.33069921,17.01020767,16.9388997,16.64738095,17.01020767,,,,,,,,,,,,,,,,,,,,PF,strong,3,,,,,,,,7,1.73374,,,,,,,,,,,,,,,,,,,,,,,,,,,,1,strong,32,61,1,0,0,response1disk,8,119,-7,13,1,0,0,rectangle,-7,13,1,0,0,1,0,0.003595,-7,13,1,0,0,0,118,118,27,1,0,,,,,,,,,,,,,,,,,,,,,
,,,,,,,,,,,,,,,,,,,,,,,,,,,,,,,,,,,,,,,,,,,603d75c3cd5c8ec37b0700a1,606c0cc47622866935915eb7,2021-04-06_09h25.14.719,Colour_Similarity_Experiment,2020.2.10,Win32,60,6067542a4a25243f4d7d4fcf,18.52181548,17.33069921,17.01020767,16.9388997,16.64738095,17.01020767,,,,,,,,,,,,,,,,,,,,PF,weak,3,,,,,,,,3,2.14986,,,,,,,,,,,,,,,,,,,,,,,,,,,,4,weak,-43,-82,1,0,0,response5disk,4,120,2,1,1,0,0,rectangle,2,1,1,0,0,1,4,0.00482,2,1,1,0,0,0,119,119,70,1,0,,,,,,,,,,,,,,,,,,,,,
,,,,,,,,,,,,,,,,,,,,,,,,,,,,,,,,,,,,,,,,,,,603d75c3cd5c8ec37b0700a1,606c0cc47622866935915eb7,2021-04-06_09h25.14.719,Colour_Similarity_Experiment,2020.2.10,Win32,60,6067542a4a25243f4d7d4fcf,18.52181548,17.33069921,17.01020767,16.9388997,16.64738095,17.01020767,,,,,,,,,,,,,,,,,,,,PF,weak,3,,,,,,,,3,1.316445,,,,,,,,,,,,,,,,,,,,,,,,,,,,9,weak,-48,-78,1,0,0,response5disk,1,121,4,14,1,0,0,rectangle,4,14,1,0,0,1,7,0.002885,4,14,1,0,0,0,120,120,74,1,0,,,,,,,,,,,,,,,,,,,,,
,,,,,,,,,,,,,,,,,,,,,,,,,,,,,,,,,,,,,,,,,,,603d75c3cd5c8ec37b0700a1,606c0cc47622866935915eb7,2021-04-06_09h25.14.719,Colour_Similarity_Experiment,2020.2.10,Win32,60,6067542a4a25243f4d7d4fcf,18.52181548,17.33069921,17.01020767,16.9388997,16.64738095,17.01020767,,,,,,,,,,,,,,,,,,,,PF,strong,3,,,,,,,,3,1.160175,,,,,,,,,,,,,,,,,,,,,,,,,,,,1,strong,-25,-62,1,0,0,response5disk,3,122,2,-2,1,0,0,rectangle,2,-2,1,0,0,1,2,0.00149,2,-2,1,0,0,0,121,121,99,1,0,,,,,,,,,,,,,,,,,,,,,
,,,,,,,,,,,,,,,,,,,,,,,,,,,,,,,,,,,,,,,,,,,603d75c3cd5c8ec37b0700a1,606c0cc47622866935915eb7,2021-04-06_09h25.14.719,Colour_Similarity_Experiment,2020.2.10,Win32,60,6067542a4a25243f4d7d4fcf,18.52181548,17.33069921,17.01020767,16.9388997,16.64738095,17.01020767,,,,,,,,,,,,,,,,,,,,PF,weak,3,,,,,,,,6,1.216625,,,,,,,,,,,,,,,,,,,,,,,,,,,,3,weak,56,28,1,0,0,response1disk,5,123,12,3,1,0,0,rectangle,12,3,1,0,0,1,7,0.00235,12,3,1,0,0,0,122,122,66,1,0,,,,,,,,,,,,,,,,,,,,,
,,,,,,,,,,,,,,,,,,,,,,,,,,,,,,,,,,,,,,,,,,,603d75c3cd5c8ec37b0700a1,606c0cc47622866935915eb7,2021-04-06_09h25.14.719,Colour_Similarity_Experiment,2020.2.10,Win32,60,6067542a4a25243f4d7d4fcf,18.52181548,17.33069921,17.01020767,16.9388997,16.64738095,17.01020767,,,,,,,,,,,,,,,,,,,,PF,weak,3,,,,,,,,2,0.83382,,,,,,,,,,,,,,,,,,,,,,,,,,,,1,weak,-72,-34,1,0,0,response5disk,7,124,-5,11,1,0,0,rectangle,-5,11,1,0,0,1,5,0.003695,-5,11,1,0,0,0,123,123,150,1,0,,,,,,,,,,,,,,,,,,,,,
,,,,,,,,,,,,,,,,,,,,,,,,,,,,,,,,,,,,,,,,,,,603d75c3cd5c8ec37b0700a1,606c0cc47622866935915eb7,2021-04-06_09h25.14.719,Colour_Similarity_Experiment,2020.2.10,Win32,60,6067542a4a25243f4d7d4fcf,18.52181548,17.33069921,17.01020767,16.9388997,16.64738095,17.01020767,,,,,,,,,,,,,,,,,,,,PF,strong,3,,,,,,,,5,0.93556,,,,,,,,,,,,,,,,,,,,,,,,,,,,6,strong,46,-25,1,0,0,response3disk,3,125,15,-7,1,0,0,rectangle,15,-7,1,0,0,1,5,0.00052,15,-7,1,0,0,0,124,124,21,1,0,,,,,,,,,,,,,,,,,,,,,
,,,,,,,,,,,,,,,,,,,,,,,,,,,,,,,,,,,,,,,,,,,603d75c3cd5c8ec37b0700a1,606c0cc47622866935915eb7,2021-04-06_09h25.14.719,Colour_Similarity_Experiment,2020.2.10,Win32,60,6067542a4a25243f4d7d4fcf,18.52181548,17.33069921,17.01020767,16.9388997,16.64738095,17.01020767,,,,,,,,,,,,,,,,,,,,PF,strong,3,,,,,,,,5,0.533015,,,,,,,,,,,,,,,,,,,,,,,,,,,,7,strong,45,-17,1,0,0,response3disk,2,126,10,-7,1,0,0,rectangle,10,-7,1,0,0,1,2,0.004175,10,-7,1,0,0,0,125,125,138,1,0,,,,,,,,,,,,,,,,,,,,,
,,,,,,,,,,,,,,,,,,,,,,,,,,,,,,,,,,,,,,,,,,,603d75c3cd5c8ec37b0700a1,606c0cc47622866935915eb7,2021-04-06_09h25.14.719,Colour_Similarity_Experiment,2020.2.10,Win32,60,6067542a4a25243f4d7d4fcf,18.52181548,17.33069921,17.01020767,16.9388997,16.64738095,17.01020767,,,,,,,,,,,,,,,,,,,,PF,strong,3,,,,,,,,6,0.63143,,,,,,,,,,,,,,,,,,,,,,,,,,,,2,strong,72,21,1,0,0,response1disk,2,127,15,-2,1,0,0,rectangle,15,-2,1,0,0,1,2,0.000425,15,-2,1,0,0,0,126,126,142,1,0,,,,,,,,,,,,,,,,,,,,,
,,,,,,,,,,,,,,,,,,,,,,,,,,,,,,,,,,,,,,,,,,,603d75c3cd5c8ec37b0700a1,606c0cc47622866935915eb7,2021-04-06_09h25.14.719,Colour_Similarity_Experiment,2020.2.10,Win32,60,6067542a4a25243f4d7d4fcf,18.52181548,17.33069921,17.01020767,16.9388997,16.64738095,17.01020767,,,,,,,,,,,,,,,,,,,,PF,weak,3,,,,,,,,7,0.903185,,,,,,,,,,,,,,,,,,,,,,,,,,,,6,weak,38,59,1,0,0,response1disk,6,128,-9,20,1,0,0,rectangle,-9,20,1,0,0,1,6,0.001135,-9,20,1,0,0,0,127,127,0,1,0,,,,,,,,,,,,,,,,,,,,,
,,,,,,,,,,,,,,,,,,,,,,,,,,,,,,,,,,,,,,,,,,,603d75c3cd5c8ec37b0700a1,606c0cc47622866935915eb7,2021-04-06_09h25.14.719,Colour_Similarity_Experiment,2020.2.10,Win32,60,6067542a4a25243f4d7d4fcf,18.52181548,17.33069921,17.01020767,16.9388997,16.64738095,17.01020767,,,,,,,,,,,,,,,,,,,,PF,weak,3,,,,,,,,0,0.616645,,,,,,,,,,,,,,,,,,,,,,,,,,,,1,weak,-26,71,1,0,0,response7disk,6,129,-17,3,1,0,0,rectangle,-17,3,1,0,0,1,0,0.00206,-17,3,1,0,0,0,128,128,144,1,0,,,,,,,,,,,,,,,,,,,,,
,,,,,,,,,,,,,,,,,,,,,,,,,,,,,,,,,,,,,,,,,,,603d75c3cd5c8ec37b0700a1,606c0cc47622866935915eb7,2021-04-06_09h25.14.719,Colour_Similarity_Experiment,2020.2.10,Win32,60,6067542a4a25243f4d7d4fcf,18.52181548,17.33069921,17.01020767,16.9388997,16.64738095,17.01020767,,,,,,,,,,,,,,,,,,,,PF,weak,3,,,,,,,,7,1.396145,,,,,,,,,,,,,,,,,,,,,,,,,,,,4,weak,16,69,1,0,0,response1disk,7,130,-6,10,1,0,0,rectangle,-6,10,1,0,0,1,3,0.00378,-6,10,1,0,0,0,129,129,38,1,0,,,,,,,,,,,,,,,,,,,,,
,,,,,,,,,,,,,,,,,,,,,,,,,,,,,,,,,,,,,,,,,,,603d75c3cd5c8ec37b0700a1,606c0cc47622866935915eb7,2021-04-06_09h25.14.719,Colour_Similarity_Experiment,2020.2.10,Win32,60,6067542a4a25243f4d7d4fcf,18.52181548,17.33069921,17.01020767,16.9388997,16.64738095,17.01020767,,,,,,,,,,,,,,,,,,,,PF,weak,3,,,,,,,,0,1.110945,,,,,,,,,,,,,,,,,,,,,,,,,,,,2,weak,-28,67,1,0,0,response7disk,2,131,-8,17,1,0,0,rectangle,-8,17,1,0,0,1,6,0.00328,-8,17,1,0,0,0,130,130,14,1,0,,,,,,,,,,,,,,,,,,,,,
,,,,,,,,,,,,,,,,,,,,,,,,,,,,,,,,,,,,,,,,,,,603d75c3cd5c8ec37b0700a1,606c0cc47622866935915eb7,2021-04-06_09h25.14.719,Colour_Similarity_Experiment,2020.2.10,Win32,60,6067542a4a25243f4d7d4fcf,18.52181548,17.33069921,17.01020767,16.9388997,16.64738095,17.01020767,,,,,,,,,,,,,,,,,,,,PF,weak,3,,,,,,,,0,0.42066,,,,,,,,,,,,,,,,,,,,,,,,,,,,4,weak,-18,74,1,0,0,response7disk,5,132,3,0,1,0,0,rectangle,3,0,1,0,0,1,3,0.001815,3,0,1,0,0,0,131,131,49,1,0,,,,,,,,,,,,,,,,,,,,,
,,,,,,,,,,,,,,,,,,,,,,,,,,,,,,,,,,,,,,,,,,,603d75c3cd5c8ec37b0700a1,606c0cc47622866935915eb7,2021-04-06_09h25.14.719,Colour_Similarity_Experiment,2020.2.10,Win32,60,6067542a4a25243f4d7d4fcf,18.52181548,17.33069921,17.01020767,16.9388997,16.64738095,17.01020767,,,,,,,,,,,,,,,,,,,,PF,weak,3,,,,,,,,5,1.0214,,,,,,,,,,,,,,,,,,,,,,,,,,,,2,weak,36,-16,1,0,0,response3disk,9,133,15,-8,1,0,0,rectangle,15,-8,1,0,0,1,0,0.001115,15,-8,1,0,0,0,132,132,39,1,0,,,,,,,,,,,,,,,,,,,,,
,,,,,,,,,,,,,,,,,,,,,,,,,,,,,,,,,,,,,,,,,,,603d75c3cd5c8ec37b0700a1,606c0cc47622866935915eb7,2021-04-06_09h25.14.719,Colour_Similarity_Experiment,2020.2.10,Win32,60,6067542a4a25243f4d7d4fcf,18.52181548,17.33069921,17.01020767,16.9388997,16.64738095,17.01020767,,,,,,,,,,,,,,,,,,,,PF,weak,3,,,,,,,,5,0.38393,,,,,,,,,,,,,,,,,,,,,,,,,,,,7,weak,40,-23,1,0,0,response3disk,4,134,15,-10,1,0,0,rectangle,15,-10,1,0,0,1,5,0.00358,15,-10,1,0,0,0,133,133,43,1,0,,,,,,,,,,,,,,,,,,,,,
,,,,,,,,,,,,,,,,,,,,,,,,,,,,,,,,,,,,,,,,,,,603d75c3cd5c8ec37b0700a1,606c0cc47622866935915eb7,2021-04-06_09h25.14.719,Colour_Similarity_Experiment,2020.2.10,Win32,60,6067542a4a25243f4d7d4fcf,18.52181548,17.33069921,17.01020767,16.9388997,16.64738095,17.01020767,,,,,,,,,,,,,,,,,,,,PF,strong,3,,,,,,,,6,0.54791,,,,,,,,,,,,,,,,,,,,,,,,,,,,6,strong,85,33,1,0,0,response1disk,8,135,35,-2,1,0,0,rectangle,35,-2,1,0,0,1,4,0.002065,35,-2,1,0,0,0,134,134,133,1,0,,,,,,,,,,,,,,,,,,,,,
,,,,,,,,,,,,,,,,,,,,,,,,,,,,,,,,,,,,,,,,,,,603d75c3cd5c8ec37b0700a1,606c0cc47622866935915eb7,2021-04-06_09h25.14.719,Colour_Similarity_Experiment,2020.2.10,Win32,60,6067542a4a25243f4d7d4fcf,18.52181548,17.33069921,17.01020767,16.9388997,16.64738095,17.01020767,,,,,,,,,,,,,,,,,,,,PF,weak,3,,,,,,,,5,0.179505,,,,,,,,,,,,,,,,,,,,,,,,,,,,9,weak,63,-36,1,0,0,response3disk,6,136,17,11,1,0,0,rectangle,17,11,1,0,0,1,0,0.003675,17,11,1,0,0,0,135,135,148,1,0,,,,,,,,,,,,,,,,,,,,,
,,,,,,,,,,,,,,,,,,,,,,,,,,,,,,,,,,,,,,,,,,,603d75c3cd5c8ec37b0700a1,606c0cc47622866935915eb7,2021-04-06_09h25.14.719,Colour_Similarity_Experiment,2020.2.10,Win32,60,6067542a4a25243f4d7d4fcf,18.52181548,17.33069921,17.01020767,16.9388997,16.64738095,17.01020767,,,,,,,,,,,,,,,,,,,,PF,weak,3,,,,,,,,3,0.33837,,,,,,,,,,,,,,,,,,,,,,,,,,,,6,weak,-23,-30,1,0,0,response5disk,5,137,-17,0,1,0,0,rectangle,-17,0,1,0,0,1,1,0.00295,-17,0,1,0,0,0,136,136,59,1,0,,,,,,,,,,,,,,,,,,,,,
,,,,,,,,,,,,,,,,,,,,,,,,,,,,,,,,,,,,,,,,,,,603d75c3cd5c8ec37b0700a1,606c0cc47622866935915eb7,2021-04-06_09h25.14.719,Colour_Similarity_Experiment,2020.2.10,Win32,60,6067542a4a25243f4d7d4fcf,18.52181548,17.33069921,17.01020767,16.9388997,16.64738095,17.01020767,,,,,,,,,,,,,,,,,,,,PF,strong,3,,,,,,,,2,0.96219,,,,,,,,,,,,,,,,,,,,,,,,,,,,9,strong,-49,-32,1,0,0,response5disk,9,138,2,-17,1,0,0,rectangle,2,-17,1,0,0,1,6,0.00224,2,-17,1,0,0,0,137,137,17,1,0,,,,,,,,,,,,,,,,,,,,,
,,,,,,,,,,,,,,,,,,,,,,,,,,,,,,,,,,,,,,,,,,,603d75c3cd5c8ec37b0700a1,606c0cc47622866935915eb7,2021-04-06_09h25.14.719,Colour_Similarity_Experiment,2020.2.10,Win32,60,6067542a4a25243f4d7d4fcf,18.52181548,17.33069921,17.01020767,16.9388997,16.64738095,17.01020767,,,,,,,,,,,,,,,,,,,,PF,weak,3,,,,,,,,3,0.598485,,,,,,,,,,,,,,,,,,,,,,,,,,,,3,weak,-35,-75,1,0,0,response5disk,4,139,7,-2,1,0,0,rectangle,7,-2,1,0,0,1,1,0.00121,7,-2,1,0,0,0,138,138,30,1,0,,,,,,,,,,,,,,,,,,,,,
,,,,,,,,,,,,,,,,,,,,,,,,,,,,,,,,,,,,,,,,,,,603d75c3cd5c8ec37b0700a1,606c0cc47622866935915eb7,2021-04-06_09h25.14.719,Colour_Similarity_Experiment,2020.2.10,Win32,60,6067542a4a25243f4d7d4fcf,18.52181548,17.33069921,17.01020767,16.9388997,16.64738095,17.01020767,,,,,,,,,,,,,,,,,,,,PF,strong,3,,,,,,,,7,1.03149,,,,,,,,,,,,,,,,,,,,,,,,,,,,3,strong,32,54,1,0,0,response1disk,8,140,15,-7,1,0,0,rectangle,15,-7,1,0,0,1,2,0.0016,15,-7,1,0,0,0,139,139,44,1,0,,,,,,,,,,,,,,,,,,,,,
,,,,,,,,,,,,,,,,,,,,,,,,,,,,,,,,,,,,,,,,,,,603d75c3cd5c8ec37b0700a1,606c0cc47622866935915eb7,2021-04-06_09h25.14.719,Colour_Similarity_Experiment,2020.2.10,Win32,60,6067542a4a25243f4d7d4fcf,18.52181548,17.33069921,17.01020767,16.9388997,16.64738095,17.01020767,,,,,,,,,,,,,,,,,,,,PF,weak,3,,,,,,,,0,0.9465,,,,,,,,,,,,,,,,,,,,,,,,,,,,3,weak,-34,62,1,0,0,response7disk,2,141,-7,10,1,0,0,rectangle,-31,82,1,0,0,0,0,2.251005,-6,9,1,0,0,0,140,140,36,1,1,response7disk_3,rectangle,,,,,,,,,,,,,,,,,,,
,,,,,,,,,,,,,,,,,,,,,,,,,,,,,,,,,,,,,,,,,,,603d75c3cd5c8ec37b0700a1,606c0cc47622866935915eb7,2021-04-06_09h25.14.719,Colour_Similarity_Experiment,2020.2.10,Win32,60,6067542a4a25243f4d7d4fcf,18.52181548,17.33069921,17.01020767,16.9388997,16.64738095,17.01020767,,,,,,,,,,,,,,,,,,,,PF,strong,3,,,,,,,,0,0.84461,,,,,,,,,,,,,,,,,,,,,,,,,,,,3,strong,-34,60,1,0,0,response7disk,9,142,-11,8,1,0,0,rectangle,-11,8,1,0,0,0,1,0.00486,-11,8,1,0,0,0,141,141,143,1,0,,,,,,,,,,,,,,,,,,,,,
,,,,,,,,,,,,,,,,,,,,,,,,,,,,,,,,,,,,,,,,,,,603d75c3cd5c8ec37b0700a1,606c0cc47622866935915eb7,2021-04-06_09h25.14.719,Colour_Similarity_Experiment,2020.2.10,Win32,60,6067542a4a25243f4d7d4fcf,18.52181548,17.33069921,17.01020767,16.9388997,16.64738095,17.01020767,,,,,,,,,,,,,,,,,,,,PF,strong,3,,,,,,,,0,0.81717,,,,,,,,,,,,,,,,,,,,,,,,,,,,7,strong,-36,61,1,0,0,response7disk,9,143,-14,-1,1,0,0,rectangle,-14,-1,1,0,0,0,3,0.00273,-14,-1,1,0,0,0,142,142,155,1,0,,,,,,,,,,,,,,,,,,,,,
,,,,,,,,,,,,,,,,,,,,,,,,,,,,,,,,,,,,,,,,,,,603d75c3cd5c8ec37b0700a1,606c0cc47622866935915eb7,2021-04-06_09h25.14.719,Colour_Similarity_Experiment,2020.2.10,Win32,60,6067542a4a25243f4d7d4fcf,18.52181548,17.33069921,17.01020767,16.9388997,16.64738095,17.01020767,,,,,,,,,,,,,,,,,,,,PF,weak,3,,,,,,,,0,0.867265,,,,,,,,,,,,,,,,,,,,,,,,,,,,5,weak,-28,60,1,0,0,response7disk,4,144,-10,6,1,0,0,rectangle,-10,6,1,0,0,0,4,0.003645,-10,6,1,0,0,0,143,143,54,1,0,,,,,,,,,,,,,,,,,,,,,
,,,,,,,,,,,,,,,,,,,,,,,,,,,,,,,,,,,,,,,,,,,603d75c3cd5c8ec37b0700a1,606c0cc47622866935915eb7,2021-04-06_09h25.14.719,Colour_Similarity_Experiment,2020.2.10,Win32,60,6067542a4a25243f4d7d4fcf,18.52181548,17.33069921,17.01020767,16.9388997,16.64738095,17.01020767,,,,,,,,,,,,,,,,,,,,PF,weak,3,,,,,,,,0,0.48371,,,,,,,,,,,,,,,,,,,,,,,,,,,,1,weak,-32,71,1,0,0,response7disk,8,145,-8,18,1,0,0,rectangle,-8,18,1,0,0,0,6,0.00325,-8,18,1,0,0,0,144,144,65,1,0,,,,,,,,,,,,,,,,,,,,,
,,,,,,,,,,,,,,,,,,,,,,,,,,,,,,,,,,,,,,,,,,,603d75c3cd5c8ec37b0700a1,606c0cc47622866935915eb7,2021-04-06_09h25.14.719,Colour_Similarity_Experiment,2020.2.10,Win32,60,6067542a4a25243f4d7d4fcf,18.52181548,17.33069921,17.01020767,16.9388997,16.64738095,17.01020767,,,,,,,,,,,,,,,,,,,,PF,weak,3,,,,,,,,7,0.566075,,,,,,,,,,,,,,,,,,,,,,,,,,,,9,weak,29,53,1,0,0,response1disk,9,146,-9,10,1,0,0,rectangle,-9,10,1,0,0,0,0,0.00205,-9,10,1,0,0,0,145,145,106,1,0,,,,,,,,,,,,,,,,,,,,,
,,,,,,,,,,,,,,,,,,,,,,,,,,,,,,,,,,,,,,,,,,,603d75c3cd5c8ec37b0700a1,606c0cc47622866935915eb7,2021-04-06_09h25.14.719,Colour_Similarity_Experiment,2020.2.10,Win32,60,6067542a4a25243f4d7d4fcf,18.52181548,17.33069921,17.01020767,16.9388997,16.64738095,17.01020767,,,,,,,,,,,,,,,,,,,,PF,weak,3,,,,,,,,6,1.35912,,,,,,,,,,,,,,,,,,,,,,,,,,,,4,weak,50,20,1,0,0,response1disk,9,147,5,4,1,0,0,rectangle,5,4,1,0,0,0,6,0.00405,5,4,1,0,0,0,146,146,75,1,0,,,,,,,,,,,,,,,,,,,,,
,,,,,,,,,,,,,,,,,,,,,,,,,,,,,,,,,,,,,,,,,,,603d75c3cd5c8ec37b0700a1,606c0cc47622866935915eb7,2021-04-06_09h25.14.719,Colour_Similarity_Experiment,2020.2.10,Win32,60,6067542a4a25243f4d7d4fcf,18.52181548,17.33069921,17.01020767,16.9388997,16.64738095,17.01020767,,,,,,,,,,,,,,,,,,,,PF,strong,3,,,,,,,,0,1.58047,,,,,,,,,,,,,,,,,,,,,,,,,,,,2,strong,-36,72,1,0,0,response7disk,4,148,-4,3,1,0,0,rectangle,-4,3,1,0,0,0,5,0.00255,-4,3,1,0,0,0,147,147,145,1,0,,,,,,,,,,,,,,,,,,,,,
,,,,,,,,,,,,,,,,,,,,,,,,,,,,,,,,,,,,,,,,,,,603d75c3cd5c8ec37b0700a1,606c0cc47622866935915eb7,2021-04-06_09h25.14.719,Colour_Similarity_Experiment,2020.2.10,Win32,60,6067542a4a25243f4d7d4fcf,18.52181548,17.33069921,17.01020767,16.9388997,16.64738095,17.01020767,,,,,,,,,,,,,,,,,,,,PF,weak,3,,,,,,,,7,1.59992,,,,,,,,,,,,,,,,,,,,,,,,,,,,6,weak,49,88,1,0,0,response1disk,9,149,8,18,1,0,0,rectangle,8,18,1,0,0,0,5,0.000215,8,18,1,0,0,0,148,148,45,1,0,,,,,,,,,,,,,,,,,,,,,
,,,,,,,,,,,,,,,,,,,,,,,,,,,,,,,,,,,,,,,,,,,603d75c3cd5c8ec37b0700a1,606c0cc47622866935915eb7,2021-04-06_09h25.14.719,Colour_Similarity_Experiment,2020.2.10,Win32,60,6067542a4a25243f4d7d4fcf,18.52181548,17.33069921,17.01020767,16.9388997,16.64738095,17.01020767,,,,,,,,,,,,,,,,,,,,PF,strong,3,,,,,,,,6,0.833525,,,,,,,,,,,,,,,,,,,,,,,,,,,,4,strong,94,37,1,0,0,response1disk,4,150,16,8,1,0,0,rectangle,16,8,1,0,0,0,0,0.00235,16,8,1,0,0,0,149,149,84,1,0,,,,,,,,,,,,,,,,,,,,,
,,,,,,,,,,,,,,,,,,,,,,,,,,,,,,,,,,,,,,,,,,,603d75c3cd5c8ec37b0700a1,606c0cc47622866935915eb7,2021-04-06_09h25.14.719,Colour_Similarity_Experiment,2020.2.10,Win32,60,6067542a4a25243f4d7d4fcf,18.52181548,17.33069921,17.01020767,16.9388997,16.64738095,17.01020767,,,,,,,,,,,,,,,,,,,,PF,weak,3,,,,,,,,4,0.852355,,,,,,,,,,,,,,,,,,,,,,,,,,,,7,weak,33,-75,1,0,0,response3disk,7,151,14,2,1,0,0,rectangle,14,2,1,0,0,0,5,0.002035,14,2,1,0,0,0,150,150,51,1,0,,,,,,,,,,,,,,,,,,,,,
,,,,,,,,,,,,,,,,,,,,,,,,,,,,,,,,,,,,,,,,,,,603d75c3cd5c8ec37b0700a1,606c0cc47622866935915eb7,2021-04-06_09h25.14.719,Colour_Similarity_Experiment,2020.2.10,Win32,60,6067542a4a25243f4d7d4fcf,18.52181548,17.33069921,17.01020767,16.9388997,16.64738095,17.01020767,,,,,,,,,,,,,,,,,,,,PF,strong,3,,,,,,,,0,1.183275,,,,,,,,,,,,,,,,,,,,,,,,,,,,4,strong,-36,57,1,0,0,response7disk,3,152,-7,3,1,0,0,rectangle,-7,3,1,0,0,0,0,0.00268,-7,3,1,0,0,0,151,151,77,1,0,,,,,,,,,,,,,,,,,,,,,
,,,,,,,,,,,,,,,,,,,,,,,,,,,,,,,,,,,,,,,,,,,603d75c3cd5c8ec37b0700a1,606c0cc47622866935915eb7,2021-04-06_09h25.14.719,Colour_Similarity_Experiment,2020.2.10,Win32,60,6067542a4a25243f4d7d4fcf,18.52181548,17.33069921,17.01020767,16.9388997,16.64738095,17.01020767,,,,,,,,,,,,,,,,,,,,PF,strong,3,,,,,,,,0,0.680055,,,,,,,,,,,,,,,,,,,,,,,,,,,,4,strong,-28,71,1,0,0,response7disk,8,153,-10,13,1,0,0,rectangle,-10,13,1,0,0,0,7,0.001615,-10,13,1,0,0,0,152,152,35,1,0,,,,,,,,,,,,,,,,,,,,,
,,,,,,,,,,,,,,,,,,,,,,,,,,,,,,,,,,,,,,,,,,,603d75c3cd5c8ec37b0700a1,606c0cc47622866935915eb7,2021-04-06_09h25.14.719,Colour_Similarity_Experiment,2020.2.10,Win32,60,6067542a4a25243f4d7d4fcf,18.52181548,17.33069921,17.01020767,16.9388997,16.64738095,17.01020767,,,,,,,,,,,,,,,,,,,,PF,strong,3,,,,,,,,0,0.61578,,,,,,,,,,,,,,,,,,,,,,,,,,,,2,strong,-21,57,1,0,0,response7disk,5,154,2,-10,1,0,0,rectangle,2,-10,1,0,0,0,2,0.00356,2,-10,1,0,0,0,153,153,80,1,0,,,,,,,,,,,,,,,,,,,,,
,,,,,,,,,,,,,,,,,,,,,,,,,,,,,,,,,,,,,,,,,,,603d75c3cd5c8ec37b0700a1,606c0cc47622866935915eb7,2021-04-06_09h25.14.719,Colour_Similarity_Experiment,2020.2.10,Win32,60,6067542a4a25243f4d7d4fcf,18.52181548,17.33069921,17.01020767,16.9388997,16.64738095,17.01020767,,,,,,,,,,,,,,,,,,,,PF,weak,3,,,,,,,,3,1.349795,,,,,,,,,,,,,,,,,,,,,,,,,,,,7,weak,-32,-51,1,0,0,response5disk,8,155,-3,19,1,0,0,rectangle,-3,19,1,0,0,0,4,0.00381,-3,19,1,0,0,0,154,154,140,1,0,,,,,,,,,,,,,,,,,,,,,
,,,,,,,,,,,,,,,,,,,,,,,,,,,,,,,,,,,,,,,,,,,603d75c3cd5c8ec37b0700a1,606c0cc47622866935915eb7,2021-04-06_09h25.14.719,Colour_Similarity_Experiment,2020.2.10,Win32,60,6067542a4a25243f4d7d4fcf,18.52181548,17.33069921,17.01020767,16.9388997,16.64738095,17.01020767,,,,,,,,,,,,,,,,,,,,PF,strong,3,,,,,,,,4,1.150345,,,,,,,,,,,,,,,,,,,,,,,,,,,,1,strong,23,-59,1,0,0,response3disk,7,156,7,-4,1,0,0,rectangle,7,-4,1,0,0,0,1,0.003285,7,-4,1,0,0,0,155,155,137,1,0,,,,,,,,,,,,,,,,,,,,,
,,,,,,,,,,,,,,,,,,,,,,,,,,,,,,,,,,,,,,,,,,,603d75c3cd5c8ec37b0700a1,606c0cc47622866935915eb7,2021-04-06_09h25.14.719,Colour_Similarity_Experiment,2020.2.10,Win32,60,6067542a4a25243f4d7d4fcf,18.52181548,17.33069921,17.01020767,16.9388997,16.64738095,17.01020767,,,,,,,,,,,,,,,,,,,,PF,strong,3,,,,,,,,4,0.7545,,,,,,,,,,,,,,,,,,,,,,,,,,,,4,strong,17,-73,1,0,0,response3disk,7,157,-10,9,1,0,0,rectangle,-10,9,1,0,0,0,2,0.003995,-10,9,1,0,0,0,156,156,87,1,0,,,,,,,,,,,,,,,,,,,,,
,,,,,,,,,,,,,,,,,,,,,,,,,,,,,,,,,,,,,,,,,,,603d75c3cd5c8ec37b0700a1,606c0cc47622866935915eb7,2021-04-06_09h25.14.719,Colour_Similarity_Experiment,2020.2.10,Win32,60,6067542a4a25243f4d7d4fcf,18.52181548,17.33069921,17.01020767,16.9388997,16.64738095,17.01020767,,,,,,,,,,,,,,,,,,,,PF,strong,3,,,,,,,,0,0.466455,,,,,,,,,,,,,,,,,,,,,,,,,,,,6,strong,-32,51,1,0,0,response7disk,1,158,10,4,1,0,0,rectangle,10,4,1,0,0,0,4,0.001015,10,4,1,0,0,0,157,157,5,1,0,,,,,,,,,,,,,,,,,,,,,
,,,,,,,,,,,,,,,,,,,,,,,,,,,,,,,,,,,,,,,,,,,603d75c3cd5c8ec37b0700a1,606c0cc47622866935915eb7,2021-04-06_09h25.14.719,Colour_Similarity_Experiment,2020.2.10,Win32,60,6067542a4a25243f4d7d4fcf,18.52181548,17.33069921,17.01020767,16.9388997,16.64738095,17.01020767,,,,,,,,,,,,,,,,,,,,PF,strong,3,,,,,,,,7,0.96639,,,,,,,,,,,,,,,,,,,,,,,,,,,,3,strong,33,67,1,0,0,response1disk,1,159,10,-18,1,0,0,rectangle,10,-18,1,0,0,0,5,0.003845,10,-18,1,0,0,0,158,158,125,1,0,,,,,,,,,,,,,,,,,,,,,
,,,,,,,,,,,,,,,,,,,,,,,,,,,,,,,,,,,,,,,,,,,603d75c3cd5c8ec37b0700a1,606c0cc47622866935915eb7,2021-04-06_09h25.14.719,Colour_Similarity_Experiment,2020.2.10,Win32,60,6067542a4a25243f4d7d4fcf,18.52181548,17.33069921,17.01020767,16.9388997,16.64738095,17.01020767,,,,,,,,,,,,,,,,,,,,PF,weak,3,,,,,,,,7,0.533265,,,,,,,,,,,,,,,,,,,,,,,,,,,,2,weak,14,57,1,0,0,response1disk,1,160,4,-8,1,0,0,rectangle,4,-8,1,0,0,0,6,0.00253,4,-8,1,0,0,0,159,159,9,1,0,,,,,,,,,,,,,,,,,,,,,
,,,,,,,,,,,,,,,,,,,,,,,,,,,,,,,,,,,,,,,,,,,603d75c3cd5c8ec37b0700a1,606c0cc47622866935915eb7,2021-04-06_09h25.14.719,Colour_Similarity_Experiment,2020.2.10,Win32,60,6067542a4a25243f4d7d4fcf,18.52181548,17.33069921,17.01020767,16.9388997,16.64738095,17.01020767,,,,,,,,,,,,,,,,,,,,PF,weak,3,,,,,,,,0,0.69984,,,,,,,,,,,,,,,,,,,,,,,,,,,,5,weak,-33,61,1,0,0,response7disk,9,161,-13,13,1,0,0,rectangle,77,-32,1,0,0,5,5,1.86976,20,7,1,0,0,0,160,160,136,1,1,response3disk_3,rectangle,,,,,,,,,,,,,,,,,,,
,,,,,,,,,,,,,,,,,,,,,,,,,,,,,,,,,,,,,,,,,,,603d75c3cd5c8ec37b0700a1,606c0cc47622866935915eb7,2021-04-06_09h25.14.719,Colour_Similarity_Experiment,2020.2.10,Win32,60,6067542a4a25243f4d7d4fcf,18.52181548,17.33069921,17.01020767,16.9388997,16.64738095,17.01020767,,,,,,,,,,,,,,,,,,,,PF,weak,3,,,,,,,,0,0.978125,,,,,,,,,,,,,,,,,,,,,,,,,,,,8,weak,-21,63,1,0,0,response7disk,3,162,9,3,1,0,0,rectangle,9,3,1,0,0,5,5,0.00026,9,3,1,0,0,0,161,161,71,1,0,,,,,,,,,,,,,,,,,,,,,
,,,,,,,,,,,,,,,,,,,,,,,,,,,,,,,,,,,,,,,,,,,603d75c3cd5c8ec37b0700a1,606c0cc47622866935915eb7,2021-04-06_09h25.14.719,Colour_Similarity_Experiment,2020.2.10,Win32,60,6067542a4a25243f4d7d4fcf,18.52181548,17.33069921,17.01020767,16.9388997,16.64738095,17.01020767,,,,,,,,,,,,,,,,,,,,,,,,,,,,,,,,,,,,,,,,,,,,,,,,,,,,,,,,,,,,,,,,,,,,,,,,,,,,,,,,,,,,,,,,,,,,,,,,0,0,0,0,1,,,,,,,,,,,,,,
,,,,,,,,,,,,,,,,,,,,,,,,,,,,,,,,,,,,,,,,,,,603d75c3cd5c8ec37b0700a1,606c0cc47622866935915eb7,2021-04-06_09h25.14.719,Colour_Similarity_Experiment,2020.2.10,Win32,60,6067542a4a25243f4d7d4fcf,18.52181548,17.33069921,17.01020767,16.9388997,16.64738095,17.01020767,,,,,,,,,,,,,,,,,,,,PF,strong,3,,,,,,,,0,0.58404,,,,,,,,,,,,,,,,,,,,,,,,,,,,9,strong,-17,54,1,0,0,response7disk,7,163,4,11,1,0,0,rectangle,4,11,1,0,0,5,2,0.001945,4,11,1,0,0,0,0,0,100,1,0,,,,,,,,,,,,,,,,,,,,,
,,,,,,,,,,,,,,,,,,,,,,,,,,,,,,,,,,,,,,,,,,,603d75c3cd5c8ec37b0700a1,606c0cc47622866935915eb7,2021-04-06_09h25.14.719,Colour_Similarity_Experiment,2020.2.10,Win32,60,6067542a4a25243f4d7d4fcf,18.52181548,17.33069921,17.01020767,16.9388997,16.64738095,17.01020767,,,,,,,,,,,,,,,,,,,,PF,strong,3,,,,,,,,7,1.03422,,,,,,,,,,,,,,,,,,,,,,,,,,,,7,strong,45,56,1,0,0,response1disk,7,164,4,-12,1,0,0,rectangle,4,-12,1,0,0,5,2,0.000685,4,-12,1,0,0,0,1,1,34,1,0,,,,,,,,,,,,,,,,,,,,,
,,,,,,,,,,,,,,,,,,,,,,,,,,,,,,,,,,,,,,,,,,,603d75c3cd5c8ec37b0700a1,606c0cc47622866935915eb7,2021-04-06_09h25.14.719,Colour_Similarity_Experiment,2020.2.10,Win32,60,6067542a4a25243f4d7d4fcf,18.52181548,17.33069921,17.01020767,16.9388997,16.64738095,17.01020767,,,,,,,,,,,,,,,,,,,,PF,strong,3,,,,,,,,7,0.613615,,,,,,,,,,,,,,,,,,,,,,,,,,,,2,strong,43,75,1,0,0,response1disk,6,165,-12,12,1,0,0,rectangle,-12,12,1,0,0,1,0,0.001015,-12,12,1,0,0,0,2,2,40,1,0,,,,,,,,,,,,,,,,,,,,,
,,,,,,,,,,,,,,,,,,,,,,,,,,,,,,,,,,,,,,,,,,,603d75c3cd5c8ec37b0700a1,606c0cc47622866935915eb7,2021-04-06_09h25.14.719,Colour_Similarity_Experiment,2020.2.10,Win32,60,6067542a4a25243f4d7d4fcf,18.52181548,17.33069921,17.01020767,16.9388997,16.64738095,17.01020767,,,,,,,,,,,,,,,,,,,,PF,weak,3,,,,,,,,0,1.216005,,,,,,,,,,,,,,,,,,,,,,,,,,,,1,weak,-29,77,1,0,0,response7disk,2,166,-4,17,1,0,0,rectangle,-4,17,1,0,0,1,2,0.001445,-4,17,1,0,0,0,3,3,24,1,0,,,,,,,,,,,,,,,,,,,,,
,,,,,,,,,,,,,,,,,,,,,,,,,,,,,,,,,,,,,,,,,,,603d75c3cd5c8ec37b0700a1,606c0cc47622866935915eb7,2021-04-06_09h25.14.719,Colour_Similarity_Experiment,2020.2.10,Win32,60,6067542a4a25243f4d7d4fcf,18.52181548,17.33069921,17.01020767,16.9388997,16.64738095,17.01020767,,,,,,,,,,,,,,,,,,,,PF,strong,3,,,,,,,,0,0.719865,,,,,,,,,,,,,,,,,,,,,,,,,,,,8,strong,-47,75,1,0,0,response7disk,5,167,5,2,1,0,0,rectangle,5,2,1,0,0,1,5,0.00211,5,2,1,0,0,0,4,4,152,1,0,,,,,,,,,,,,,,,,,,,,,
,,,,,,,,,,,,,,,,,,,,,,,,,,,,,,,,,,,,,,,,,,,603d75c3cd5c8ec37b0700a1,606c0cc47622866935915eb7,2021-04-06_09h25.14.719,Colour_Similarity_Experiment,2020.2.10,Win32,60,6067542a4a25243f4d7d4fcf,18.52181548,17.33069921,17.01020767,16.9388997,16.64738095,17.01020767,,,,,,,,,,,,,,,,,,,,PF,strong,3,,,,,,,,7,0.812235,,,,,,,,,,,,,,,,,,,,,,,,,,,,4,strong,37,85,1,0,0,response1disk,6,168,11,2,1,0,0,rectangle,11,2,1,0,0,1,6,0.003815,11,2,1,0,0,0,5,5,122,1,0,,,,,,,,,,,,,,,,,,,,,
,,,,,,,,,,,,,,,,,,,,,,,,,,,,,,,,,,,,,,,,,,,603d75c3cd5c8ec37b0700a1,606c0cc47622866935915eb7,2021-04-06_09h25.14.719,Colour_Similarity_Experiment,2020.2.10,Win32,60,6067542a4a25243f4d7d4fcf,18.52181548,17.33069921,17.01020767,16.9388997,16.64738095,17.01020767,,,,,,,,,,,,,,,,,,,,PF,weak,3,,,,,,,,0,0.849855,,,,,,,,,,,,,,,,,,,,,,,,,,,,9,weak,-20,57,1,0,0,response7disk,5,169,-6,-3,1,0,0,rectangle,-6,-3,1,0,0,1,6,0.00018,-6,-3,1,0,0,0,6,6,134,1,0,,,,,,,,,,,,,,,,,,,,,
,,,,,,,,,,,,,,,,,,,,,,,,,,,,,,,,,,,,,,,,,,,603d75c3cd5c8ec37b0700a1,606c0cc47622866935915eb7,2021-04-06_09h25.14.719,Colour_Similarity_Experiment,2020.2.10,Win32,60,6067542a4a25243f4d7d4fcf,18.52181548,17.33069921,17.01020767,16.9388997,16.64738095,17.01020767,,,,,,,,,,,,,,,,,,,,PF,weak,3,,,,,,,,7,0.68793,,,,,,,,,,,,,,,,,,,,,,,,,,,,8,weak,12,66,1,0,0,response1disk,6,170,-8,15,1,0,0,rectangle,74,31,1,0,0,6,6,1.69657,27,-5,1,0,0,0,7,7,161,1,1,response1disk_3,rectangle,,,,,,,,,,,,,,,,,,,
,,,,,,,,,,,,,,,,,,,,,,,,,,,,,,,,,,,,,,,,,,,603d75c3cd5c8ec37b0700a1,606c0cc47622866935915eb7,2021-04-06_09h25.14.719,Colour_Similarity_Experiment,2020.2.10,Win32,60,6067542a4a25243f4d7d4fcf,18.52181548,17.33069921,17.01020767,16.9388997,16.64738095,17.01020767,,,,,,,,,,,,,,,,,,,,PF,weak,3,,,,,,,,0,0.77645,,,,,,,,,,,,,,,,,,,,,,,,,,,,6,weak,-29,85,1,0,0,response7disk,3,171,-2,9,1,0,0,rectangle,-2,9,1,0,0,6,0,0.004355,-2,9,1,0,0,0,8,8,26,1,0,,,,,,,,,,,,,,,,,,,,,
,,,,,,,,,,,,,,,,,,,,,,,,,,,,,,,,,,,,,,,,,,,603d75c3cd5c8ec37b0700a1,606c0cc47622866935915eb7,2021-04-06_09h25.14.719,Colour_Similarity_Experiment,2020.2.10,Win32,60,6067542a4a25243f4d7d4fcf,18.52181548,17.33069921,17.01020767,16.9388997,16.64738095,17.01020767,,,,,,,,,,,,,,,,,,,,PF,strong,3,,,,,,,,0,0.524645,,,,,,,,,,,,,,,,,,,,,,,,,,,,3,strong,-21,59,1,0,0,response7disk,6,172,1,5,1,0,0,rectangle,1,5,1,0,0,6,5,0.0017,1,5,1,0,0,0,9,9,95,1,0,,,,,,,,,,,,,,,,,,,,,
,,,,,,,,,,,,,,,,,,,,,,,,,,,,,,,,,,,,,,,,,,,603d75c3cd5c8ec37b0700a1,606c0cc47622866935915eb7,2021-04-06_09h25.14.719,Colour_Similarity_Experiment,2020.2.10,Win32,60,6067542a4a25243f4d7d4fcf,18.52181548,17.33069921,17.01020767,16.9388997,16.64738095,17.01020767,,,,,,,,,,,,,,,,,,,,PF,strong,3,,,,,,,,7,0.74889,,,,,,,,,,,,,,,,,,,,,,,,,,,,1,strong,25,69,1,0,0,response1disk,2,173,11,0,1,0,0,rectangle,11,0,1,0,0,6,0,0.00304,11,0,1,0,0,0,10,10,2,1,0,,,,,,,,,,,,,,,,,,,,,
,,,,,,,,,,,,,,,,,,,,,,,,,,,,,,,,,,,,,,,,,,,603d75c3cd5c8ec37b0700a1,606c0cc47622866935915eb7,2021-04-06_09h25.14.719,Colour_Similarity_Experiment,2020.2.10,Win32,60,6067542a4a25243f4d7d4fcf,18.52181548,17.33069921,17.01020767,16.9388997,16.64738095,17.01020767,,,,,,,,,,,,,,,,,,,,PF,strong,3,,,,,,,,7,1.35766,,,,,,,,,,,,,,,,,,,,,,,,,,,,4,strong,39,53,1,0,0,response1disk,2,174,17,0,1,0,0,rectangle,17,0,1,0,0,6,3,0.000925,17,0,1,0,0,0,11,11,13,1,0,,,,,,,,,,,,,,,,,,,,,
,,,,,,,,,,,,,,,,,,,,,,,,,,,,,,,,,,,,,,,,,,,603d75c3cd5c8ec37b0700a1,606c0cc47622866935915eb7,2021-04-06_09h25.14.719,Colour_Similarity_Experiment,2020.2.10,Win32,60,6067542a4a25243f4d7d4fcf,18.52181548,17.33069921,17.01020767,16.9388997,16.64738095,17.01020767,,,,,,,,,,,,,,,,,,,,PF,strong,3,,,,,,,,7,0.999855,,,,,,,,,,,,,,,,,,,,,,,,,,,,3,strong,21,63,1,0,0,response1disk,5,175,0,12,1,0,0,rectangle,0,12,1,0,0,6,5,0.00367,0,12,1,0,0,0,12,12,101,1,0,,,,,,,,,,,,,,,,,,,,,
,,,,,,,,,,,,,,,,,,,,,,,,,,,,,,,,,,,,,,,,,,,603d75c3cd5c8ec37b0700a1,606c0cc47622866935915eb7,2021-04-06_09h25.14.719,Colour_Similarity_Experiment,2020.2.10,Win32,60,6067542a4a25243f4d7d4fcf,18.52181548,17.33069921,17.01020767,16.9388997,16.64738095,17.01020767,,,,,,,,,,,,,,,,,,,,PF,strong,3,,,,,,,,0,0.79867,,,,,,,,,,,,,,,,,,,,,,,,,,,,2,strong,-38,62,1,0,0,response7disk,9,176,-5,1,1,0,0,rectangle,-5,1,1,0,0,6,2,0.0015,-5,1,1,0,0,0,13,13,72,1,0,,,,,,,,,,,,,,,,,,,,,
,,,,,,,,,,,,,,,,,,,,,,,,,,,,,,,,,,,,,,,,,,,603d75c3cd5c8ec37b0700a1,606c0cc47622866935915eb7,2021-04-06_09h25.14.719,Colour_Similarity_Experiment,2020.2.10,Win32,60,6067542a4a25243f4d7d4fcf,18.52181548,17.33069921,17.01020767,16.9388997,16.64738095,17.01020767,,,,,,,,,,,,,,,,,,,,PF,weak,3,,,,,,,,0,0.433445,,,,,,,,,,,,,,,,,,,,,,,,,,,,8,weak,-37,56,1,0,0,response7disk,7,177,-11,-1,1,0,0,rectangle,-11,-1,1,0,0,6,3,0.00377,-11,-1,1,0,0,0,14,14,23,1,0,,,,,,,,,,,,,,,,,,,,,
,,,,,,,,,,,,,,,,,,,,,,,,,,,,,,,,,,,,,,,,,,,603d75c3cd5c8ec37b0700a1,606c0cc47622866935915eb7,2021-04-06_09h25.14.719,Colour_Similarity_Experiment,2020.2.10,Win32,60,6067542a4a25243f4d7d4fcf,18.52181548,17.33069921,17.01020767,16.9388997,16.64738095,17.01020767,,,,,,,,,,,,,,,,,,,,PF,strong,3,,,,,,,,7,0.733115,,,,,,,,,,,,,,,,,,,,,,,,,,,,4,strong,51,61,1,0,0,response1disk,9,178,-8,-3,1,0,0,rectangle,-8,-3,1,0,0,6,3,0.00018,-8,-3,1,0,0,0,15,15,90,1,0,,,,,,,,,,,,,,,,,,,,,
,,,,,,,,,,,,,,,,,,,,,,,,,,,,,,,,,,,,,,,,,,,603d75c3cd5c8ec37b0700a1,606c0cc47622866935915eb7,2021-04-06_09h25.14.719,Colour_Similarity_Experiment,2020.2.10,Win32,60,6067542a4a25243f4d7d4fcf,18.52181548,17.33069921,17.01020767,16.9388997,16.64738095,17.01020767,,,,,,,,,,,,,,,,,,,,PF,strong,3,,,,,,,,0,0.93091,,,,,,,,,,,,,,,,,,,,,,,,,,,,1,strong,-41,66,1,0,0,response7disk,6,179,6,13,1,0,0,rectangle,6,13,1,0,0,6,1,0.004635,6,13,1,0,0,0,16,16,58,1,0,,,,,,,,,,,,,,,,,,,,,
,,,,,,,,,,,,,,,,,,,,,,,,,,,,,,,,,,,,,,,,,,,603d75c3cd5c8ec37b0700a1,606c0cc47622866935915eb7,2021-04-06_09h25.14.719,Colour_Similarity_Experiment,2020.2.10,Win32,60,6067542a4a25243f4d7d4fcf,18.52181548,17.33069921,17.01020767,16.9388997,16.64738095,17.01020767,,,,,,,,,,,,,,,,,,,,PF,strong,3,,,,,,,,0,0.93242,,,,,,,,,,,,,,,,,,,,,,,,,,,,5,strong,-42,74,1,0,0,response7disk,2,180,-10,8,1,0,0,rectangle,-58,-32,1,0,0,6,2,1.76611,8,7,1,0,0,0,17,17,55,1,1,response5disk_3,rectangle,,,,,,,,,,,,,,,,,,,
,,,,,,,,,,,,,,,,,,,,,,,,,,,,,,,,,,,,,,,,,,,603d75c3cd5c8ec37b0700a1,606c0cc47622866935915eb7,2021-04-06_09h25.14.719,Colour_Similarity_Experiment,2020.2.10,Win32,60,6067542a4a25243f4d7d4fcf,18.52181548,17.33069921,17.01020767,16.9388997,16.64738095,17.01020767,,,,,,,,,,,,,,,,,,,,PF,weak,3,,,,,,,,0,0.679255,,,,,,,,,,,,,,,,,,,,,,,,,,,,5,weak,-29,50,1,0,0,response7disk,2,181,-13,8,1,0,0,rectangle,-13,8,1,0,0,6,1,0.00133,-13,8,1,0,0,0,18,18,129,1,0,,,,,,,,,,,,,,,,,,,,,
,,,,,,,,,,,,,,,,,,,,,,,,,,,,,,,,,,,,,,,,,,,603d75c3cd5c8ec37b0700a1,606c0cc47622866935915eb7,2021-04-06_09h25.14.719,Colour_Similarity_Experiment,2020.2.10,Win32,60,6067542a4a25243f4d7d4fcf,18.52181548,17.33069921,17.01020767,16.9388997,16.64738095,17.01020767,,,,,,,,,,,,,,,,,,,,PF,strong,3,,,,,,,,5,1.533595,,,,,,,,,,,,,,,,,,,,,,,,,,,,7,strong,67,-34,1,0,0,response3disk,8,182,6,17,1,0,0,rectangle,-35,-74,1,0,0,3,3,1.76566,-7,6,1,0,0,0,19,19,97,1,1,response5disk_3,rectangle,,,,,,,,,,,,,,,,,,,
,,,,,,,,,,,,,,,,,,,,,,,,,,,,,,,,,,,,,,,,,,,603d75c3cd5c8ec37b0700a1,606c0cc47622866935915eb7,2021-04-06_09h25.14.719,Colour_Similarity_Experiment,2020.2.10,Win32,60,6067542a4a25243f4d7d4fcf,18.52181548,17.33069921,17.01020767,16.9388997,16.64738095,17.01020767,,,,,,,,,,,,,,,,,,,,PF,weak,3,,,,,,,,5,1.582875,,,,,,,,,,,,,,,,,,,,,,,,,,,,6,weak,48,-19,1,0,0,response3disk,4,183,-3,11,1,0,0,rectangle,-3,11,1,0,0,3,1,0.00143,-3,11,1,0,0,0,20,20,33,1,0,,,,,,,,,,,,,,,,,,,,,
,,,,,,,,,,,,,,,,,,,,,,,,,,,,,,,,,,,,,,,,,,,603d75c3cd5c8ec37b0700a1,606c0cc47622866935915eb7,2021-04-06_09h25.14.719,Colour_Similarity_Experiment,2020.2.10,Win32,60,6067542a4a25243f4d7d4fcf,18.52181548,17.33069921,17.01020767,16.9388997,16.64738095,17.01020767,,,,,,,,,,,,,,,,,,,,PF,strong,3,,,,,,,,0,0.9176,,,,,,,,,,,,,,,,,,,,,,,,,,,,7,strong,-45,66,1,0,0,response7disk,5,184,-8,-6,1,0,0,rectangle,-8,-6,1,0,0,3,7,0.001285,-8,-6,1,0,0,0,21,21,156,1,0,,,,,,,,,,,,,,,,,,,,,
,,,,,,,,,,,,,,,,,,,,,,,,,,,,,,,,,,,,,,,,,,,603d75c3cd5c8ec37b0700a1,606c0cc47622866935915eb7,2021-04-06_09h25.14.719,Colour_Similarity_Experiment,2020.2.10,Win32,60,6067542a4a25243f4d7d4fcf,18.52181548,17.33069921,17.01020767,16.9388997,16.64738095,17.01020767,,,,,,,,,,,,,,,,,,,,PF,strong,3,,,,,,,,3,1.516495,,,,,,,,,,,,,,,,,,,,,,,,,,,,4,strong,-40,-52,1,0,0,response5disk,1,185,-4,18,1,0,0,rectangle,-4,18,1,0,0,3,3,0.0022,-4,18,1,0,0,0,22,22,102,1,0,,,,,,,,,,,,,,,,,,,,,
,,,,,,,,,,,,,,,,,,,,,,,,,,,,,,,,,,,,,,,,,,,603d75c3cd5c8ec37b0700a1,606c0cc47622866935915eb7,2021-04-06_09h25.14.719,Colour_Similarity_Experiment,2020.2.10,Win32,60,6067542a4a25243f4d7d4fcf,18.52181548,17.33069921,17.01020767,16.9388997,16.64738095,17.01020767,,,,,,,,,,,,,,,,,,,,PF,weak,3,,,,,,,,6,1.22456,,,,,,,,,,,,,,,,,,,,,,,,,,,,2,weak,82,37,1,0,0,response1disk,5,186,-5,16,1,0,0,rectangle,-5,16,1,0,0,3,5,0.003005,-5,16,1,0,0,0,23,23,147,1,0,,,,,,,,,,,,,,,,,,,,,
,,,,,,,,,,,,,,,,,,,,,,,,,,,,,,,,,,,,,,,,,,,603d75c3cd5c8ec37b0700a1,606c0cc47622866935915eb7,2021-04-06_09h25.14.719,Colour_Similarity_Experiment,2020.2.10,Win32,60,6067542a4a25243f4d7d4fcf,18.52181548,17.33069921,17.01020767,16.9388997,16.64738095,17.01020767,,,,,,,,,,,,,,,,,,,,PF,weak,3,,,,,,,,0,0.56873,,,,,,,,,,,,,,,,,,,,,,,,,,,,7,weak,-34,64,1,0,0,response7disk,2,187,-3,13,1,0,0,rectangle,-3,13,1,0,0,3,3,0.00365,-3,13,1,0,0,0,24,24,32,1,0,,,,,,,,,,,,,,,,,,,,,
,,,,,,,,,,,,,,,,,,,,,,,,,,,,,,,,,,,,,,,,,,,603d75c3cd5c8ec37b0700a1,606c0cc47622866935915eb7,2021-04-06_09h25.14.719,Colour_Similarity_Experiment,2020.2.10,Win32,60,6067542a4a25243f4d7d4fcf,18.52181548,17.33069921,17.01020767,16.9388997,16.64738095,17.01020767,,,,,,,,,,,,,,,,,,,,PF,weak,3,,,,,,,,0,0.83252,,,,,,,,,,,,,,,,,,,,,,,,,,,,8,weak,-32,73,1,0,0,response7disk,9,188,6,-2,1,0,0,rectangle,6,-2,1,0,0,3,5,0.003545,6,-2,1,0,0,0,25,25,42,1,0,,,,,,,,,,,,,,,,,,,,,
,,,,,,,,,,,,,,,,,,,,,,,,,,,,,,,,,,,,,,,,,,,603d75c3cd5c8ec37b0700a1,606c0cc47622866935915eb7,2021-04-06_09h25.14.719,Colour_Similarity_Experiment,2020.2.10,Win32,60,6067542a4a25243f4d7d4fcf,18.52181548,17.33069921,17.01020767,16.9388997,16.64738095,17.01020767,,,,,,,,,,,,,,,,,,,,PF,weak,3,,,,,,,,0,0.638995,,,,,,,,,,,,,,,,,,,,,,,,,,,,9,weak,-33,64,1,0,0,response7disk,2,189,10,-1,1,0,0,rectangle,10,-1,1,0,0,3,0,0.001575,10,-1,1,0,0,0,26,26,157,1,0,,,,,,,,,,,,,,,,,,,,,
,,,,,,,,,,,,,,,,,,,,,,,,,,,,,,,,,,,,,,,,,,,603d75c3cd5c8ec37b0700a1,606c0cc47622866935915eb7,2021-04-06_09h25.14.719,Colour_Similarity_Experiment,2020.2.10,Win32,60,6067542a4a25243f4d7d4fcf,18.52181548,17.33069921,17.01020767,16.9388997,16.64738095,17.01020767,,,,,,,,,,,,,,,,,,,,PF,strong,3,,,,,,,,0,0.74996,,,,,,,,,,,,,,,,,,,,,,,,,,,,6,strong,-55,85,1,0,0,response7disk,2,190,-15,7,1,0,0,rectangle,-15,7,1,0,0,3,6,0.00171,-15,7,1,0,0,0,27,27,112,1,0,,,,,,,,,,,,,,,,,,,,,
,,,,,,,,,,,,,,,,,,,,,,,,,,,,,,,,,,,,,,,,,,,603d75c3cd5c8ec37b0700a1,606c0cc47622866935915eb7,2021-04-06_09h25.14.719,Colour_Similarity_Experiment,2020.2.10,Win32,60,6067542a4a25243f4d7d4fcf,18.52181548,17.33069921,17.01020767,16.9388997,16.64738095,17.01020767,,,,,,,,,,,,,,,,,,,,PF,strong,3,,,,,,,,0,0.54948,,,,,,,,,,,,,,,,,,,,,,,,,,,,9,strong,-53,75,1,0,0,response7disk,6,191,-14,0,1,0,0,rectangle,-14,0,1,0,0,3,7,0.003615,-14,0,1,0,0,0,28,28,117,1,0,,,,,,,,,,,,,,,,,,,,,
,,,,,,,,,,,,,,,,,,,,,,,,,,,,,,,,,,,,,,,,,,,603d75c3cd5c8ec37b0700a1,606c0cc47622866935915eb7,2021-04-06_09h25.14.719,Colour_Similarity_Experiment,2020.2.10,Win32,60,6067542a4a25243f4d7d4fcf,18.52181548,17.33069921,17.01020767,16.9388997,16.64738095,17.01020767,,,,,,,,,,,,,,,,,,,,PF,weak,3,,,,,,,,7,0.770885,,,,,,,,,,,,,,,,,,,,,,,,,,,,4,weak,53,65,1,0,0,response1disk,2,192,-1,-15,1,0,0,rectangle,-1,-15,1,0,0,3,1,0.00418,-1,-15,1,0,0,0,29,29,108,1,0,,,,,,,,,,,,,,,,,,,,,
,,,,,,,,,,,,,,,,,,,,,,,,,,,,,,,,,,,,,,,,,,,603d75c3cd5c8ec37b0700a1,606c0cc47622866935915eb7,2021-04-06_09h25.14.719,Colour_Similarity_Experiment,2020.2.10,Win32,60,6067542a4a25243f4d7d4fcf,18.52181548,17.33069921,17.01020767,16.9388997,16.64738095,17.01020767,,,,,,,,,,,,,,,,,,,,PF,weak,3,,,,,,,,7,1.3027,,,,,,,,,,,,,,,,,,,,,,,,,,,,7,weak,27,54,1,0,0,response1disk,1,193,5,11,1,0,0,rectangle,5,11,1,0,0,3,4,0.002835,5,11,1,0,0,0,30,30,53,1,0,,,,,,,,,,,,,,,,,,,,,
,,,,,,,,,,,,,,,,,,,,,,,,,,,,,,,,,,,,,,,,,,,603d75c3cd5c8ec37b0700a1,606c0cc47622866935915eb7,2021-04-06_09h25.14.719,Colour_Similarity_Experiment,2020.2.10,Win32,60,6067542a4a25243f4d7d4fcf,18.52181548,17.33069921,17.01020767,16.9388997,16.64738095,17.01020767,,,,,,,,,,,,,,,,,,,,PF,weak,3,,,,,,,,0,0.80495,,,,,,,,,,,,,,,,,,,,,,,,,,,,7,weak,-46,73,1,0,0,response7disk,3,194,-10,7,1,0,0,rectangle,-10,7,1,0,0,3,2,0.000995,-10,7,1,0,0,0,31,31,81,1,0,,,,,,,,,,,,,,,,,,,,,
