key_resp.keys,key_resp.rt,key_resp_16.keys,key_resp_16.rt,key_resp_2.keys,key_resp_2.rt,X Scale,ratio_pxpermm,screen_size_x,screen_size_y,testsize,key_resp_3.keys,key_resp_4.keys,key_resp_4.rt,line_size,key_resp_5.keys,key_resp_5.rt,key_resp_6.keys,key_resp_6.rt,key_resp_8.keys,key_resp_8.rt,key_resp_7.keys,key_resp_7.rt,key_resp_12.keys,key_resp_12.rt,key_resp_11.keys,key_resp_11.rt,key_resp_18.keys,key_resp_18.rt,key_resp_21.keys,key_resp_21.rt,key_resp_13.keys,key_resp_13.rt,key_resp_19.keys,key_resp_19.rt,ballposx,viewer_distance,trials.thisRepN,trials.thisTrialN,trials.thisN,trials.thisIndex,trials.ran,participant,session,date,expName,psychopyVersion,OS,frameRate,study_id,realFrameRate1,realFrameRate2,realFrameRate3,realFrameRate4,realFrameRate5,realFrameRate,viewerdistancecm,DVA_to_distance,radius_F,radius_P,r_F,R_P,key_resp_20.keys,key_resp_20.rt,key_resp_14.keys,key_resp_14.rt,key_resp_15.keys,key_resp_15.rt,key_resp_17.keys,key_resp_17.rt,key_resp_9.keys,key_resp_9.rt,key_resp_10.keys,key_resp_10.rt,Colour_1,Ecc,maskCon,mask_frames,mouse_5.x,mouse_5.y,mouse_5.leftButton,mouse_5.midButton,mouse_5.rightButton,mouse_5.clicked_name,Colour_2,similarity,response_time,mouse_10.x,mouse_10.y,mouse_10.leftButton,mouse_10.midButton,mouse_10.rightButton,mouse_10.clicked_name,mouse_7.x,mouse_7.y,mouse_7.leftButton,mouse_7.midButton,mouse_7.rightButton,mouse_7.clicked_name,catchnumberprac,mouse_6.x,mouse_6.y,mouse_6.leftButton,mouse_6.midButton,mouse_6.rightButton,mouse_6.clicked_name,duringprac.thisRepN,duringprac.thisTrialN,duringprac.thisN,duringprac.thisIndex,duringprac.ran,key_resp_22.keys,key_resp_22.rt,Colour1,maskCon1,mouse.x,mouse.y,mouse.leftButton,mouse.midButton,mouse.rightButton,mouse.clicked_name,Colour2,trialnumber,mouse_2.x,mouse_2.y,mouse_2.leftButton,mouse_2.midButton,mouse_2.rightButton,mouse_2.clicked_name,mouse_3.x,mouse_3.y,mouse_3.leftButton,mouse_3.midButton,mouse_3.rightButton,catchresponse,catchnumber,response_time_catch,mouse_11.x,mouse_11.y,mouse_11.leftButton,mouse_11.midButton,mouse_11.rightButton,trials_2.thisRepN,trials_2.thisTrialN,trials_2.thisN,trials_2.thisIndex,trials_2.ran,Catch,mouse_3.clicked_name,mouse_11.clicked_name,trials_3.thisRepN,trials_3.thisTrialN,trials_3.thisN,trials_3.thisIndex,trials_3.ran,answer1,rt1,answer2,rt2,answer3,rt3,answer4,rt4,answer5,rt5,answer6,rt6,answer7,rt7
space,2.378615,space,16.87222,space,8.821275,43.9,4.39,311.1617312,174.9430524,1366,,space,24.20489,87.8,space,13.20307,space,5.69547,space,1.15735,space,4.71688,space,21.139375,space,14.07844,space,12.04465,space,11.18218,space,16.86752,return,4.82414,-84.009,598.1420131,0,0,0,0,1,60480c2fe7f49a1419ca1cf1,606c0eae442b8c99a7f27c15,2021-04-06_02h35.30.783,Colour_Similarity_Experiment,2020.2.10,Win32,60,6067542a4a25243f4d7d4fcf,18.09530738,16.88857285,17.35356,16.72039546,16.69781798,16.88857285,,,,,,,,,,,,,,,,,,,,,,,,,,,,,,,,,,,,,,,,,,,,,,,,,,,,,,,,,,,,,,,,,,,,,,,,,,,,,,,,,,,,,,,,,,,,,,,,,,,,,,,,,,,,,,,,,
,,,,,,,,,,,,,,,,,,,,,,,,,,,,,,,,,return,4.730315,-71.715,586.4772717,1,0,1,0,1,60480c2fe7f49a1419ca1cf1,606c0eae442b8c99a7f27c15,2021-04-06_02h35.30.783,Colour_Similarity_Experiment,2020.2.10,Win32,60,6067542a4a25243f4d7d4fcf,18.09530738,16.88857285,17.35356,16.72039546,16.69781798,16.88857285,,,,,,,,,,,,,,,,,,,,,,,,,,,,,,,,,,,,,,,,,,,,,,,,,,,,,,,,,,,,,,,,,,,,,,,,,,,,,,,,,,,,,,,,,,,,,,,,,,,,,,,,,,,,,,,,,
,,,,,,,,,,,,,,,,,,,,,,,,,,,,,,,,,return,4.536655,-47.127,563.1477891,2,0,2,0,1,60480c2fe7f49a1419ca1cf1,606c0eae442b8c99a7f27c15,2021-04-06_02h35.30.783,Colour_Similarity_Experiment,2020.2.10,Win32,60,6067542a4a25243f4d7d4fcf,18.09530738,16.88857285,17.35356,16.72039546,16.69781798,16.88857285,,,,,,,,,,,,,,,,,,,,,,,,,,,,,,,,,,,,,,,,,,,,,,,,,,,,,,,,,,,,,,,,,,,,,,,,,,,,,,,,,,,,,,,,,,,,,,,,,,,,,,,,,,,,,,,,,
,,,,,,,,,,,,,,,,,,,,,,,,,,,,,,,,,return,4.160045,0,518.4329474,3,0,3,0,1,60480c2fe7f49a1419ca1cf1,606c0eae442b8c99a7f27c15,2021-04-06_02h35.30.783,Colour_Similarity_Experiment,2020.2.10,Win32,60,6067542a4a25243f4d7d4fcf,18.09530738,16.88857285,17.35356,16.72039546,16.69781798,16.88857285,,,,,,,,,,,,,,,,,,,,,,,,,,,,,,,,,,,,,,,,,,,,,,,,,,,,,,,,,,,,,,,,,,,,,,,,,,,,,,,,,,,,,,,,,,,,,,,,,,,,,,,,,,,,,,,,,
,,,,,,,,,,,,,,,,,,,,,,,,,,,,,,,,,return,4.66063,-63.519,578.7007775,4,0,4,0,1,60480c2fe7f49a1419ca1cf1,606c0eae442b8c99a7f27c15,2021-04-06_02h35.30.783,Colour_Similarity_Experiment,2020.2.10,Win32,60,6067542a4a25243f4d7d4fcf,18.09530738,16.88857285,17.35356,16.72039546,16.69781798,16.88857285,,,,,,,,,,,,,,,,,,,,,,,,,,,,,,,,,,,,,,,,,,,,,,,,,,,,,,,,,,,,,,,,,,,,,,,,,,,,,,,,,,,,,,,,,,,,,,,,,,,,,,,,,,,,,,,,,
,,,,,,,,,,,,,,,,,,,,,,,,,,,,,,,,,,,,,,,,,,60480c2fe7f49a1419ca1cf1,606c0eae442b8c99a7f27c15,2021-04-06_02h35.30.783,Colour_Similarity_Experiment,2020.2.10,Win32,60,6067542a4a25243f4d7d4fcf,18.09530738,16.88857285,17.35356,16.72039546,16.69781798,16.88857285,58,10.12393404,66.66610564,444.4407043,44.44407043,199.9983169,space,7.645705,space,53.400395,space,23.518395,space,8.89315,space,3.312395,space,5.248155,8,PF,strong,3,-76,37,1,0,0,response7disk_5,6,1,10.83371,4,-2,1,0,0,rectangle_8,-79,-32,1,0,0,response5disk_7,2,-4,2,1,0,0,rectangle_4,0,0,0,2,1,,,,,,,,,,,,,,,,,,,,,,,,,,,,,,,,,,,,,,,,,,,,,,,,,,,,,,,,,,
,,,,,,,,,,,,,,,,,,,,,,,,,,,,,,,,,,,,,,,,,,60480c2fe7f49a1419ca1cf1,606c0eae442b8c99a7f27c15,2021-04-06_02h35.30.783,Colour_Similarity_Experiment,2020.2.10,Win32,60,6067542a4a25243f4d7d4fcf,18.09530738,16.88857285,17.35356,16.72039546,16.69781798,16.88857285,,,,,,,,,,,,,,,,,,,7,PF,strong,3,-41,-99,1,0,0,response5disk_5,4,3,10.95638,0,5,1,0,0,rectangle_8,0,5,1,0,0,,2,0,5,1,0,0,,0,1,1,3,1,,,,,,,,,,,,,,,,,,,,,,,,,,,,,,,,,,,,,,,,,,,,,,,,,,,,,,,,,,
,,,,,,,,,,,,,,,,,,,,,,,,,,,,,,,,,,,,,,,,,,60480c2fe7f49a1419ca1cf1,606c0eae442b8c99a7f27c15,2021-04-06_02h35.30.783,Colour_Similarity_Experiment,2020.2.10,Win32,60,6067542a4a25243f4d7d4fcf,18.09530738,16.88857285,17.35356,16.72039546,16.69781798,16.88857285,,,,,,,,,,,,,,,,,,,2,PF,strong,3,-36,-82,1,0,0,response5disk_5,1,3,4.176535,11,-2,1,0,0,rectangle_8,11,-2,1,0,0,,2,11,-2,1,0,0,,0,2,2,0,1,,,,,,,,,,,,,,,,,,,,,,,,,,,,,,,,,,,,,,,,,,,,,,,,,,,,,,,,,,
,,,,,,,,,,,,,,,,,,,,,,,,,,,,,,,,,,,,,,,,,,60480c2fe7f49a1419ca1cf1,606c0eae442b8c99a7f27c15,2021-04-06_02h35.30.783,Colour_Similarity_Experiment,2020.2.10,Win32,60,6067542a4a25243f4d7d4fcf,18.09530738,16.88857285,17.35356,16.72039546,16.69781798,16.88857285,,,,,,,,,,,,,,,,,,,6,PF,weak,3,-44,82,1,0,0,response7disk_5,6,0,4.144055,22,3,1,0,0,rectangle_8,22,3,1,0,0,,2,22,3,1,0,0,,0,3,3,1,1,,,,,,,,,,,,,,,,,,,,,,,,,,,,,,,,,,,,,,,,,,,,,,,,,,,,,,,,,,
,,,,,,,,,,,,,,,,,,,,,,,,,,,,,,,,,,,,,,,,,,60480c2fe7f49a1419ca1cf1,606c0eae442b8c99a7f27c15,2021-04-06_02h35.30.783,Colour_Similarity_Experiment,2020.2.10,Win32,60,6067542a4a25243f4d7d4fcf,18.09530738,16.88857285,17.35356,16.72039546,16.69781798,16.88857285,,,,,,,,,,,,,,,,,,,6,PF,weak,3,30,-89,1,0,0,response3disk_5,2,4,12.96386,-8,4,1,0,0,rectangle_8,-8,4,1,0,0,,2,-8,4,1,0,0,,0,4,4,4,1,,,,,,,,,,,,,,,,,,,,,,,,,,,,,,,,,,,,,,,,,,,,,,,,,,,,,,,,,,
,,,,,,,,,,,,,,,,,,,,,,,,,,,,,,,,,,,,,,,,,,60480c2fe7f49a1419ca1cf1,606c0eae442b8c99a7f27c15,2021-04-06_02h35.30.783,Colour_Similarity_Experiment,2020.2.10,Win32,60,6067542a4a25243f4d7d4fcf,18.09530738,16.88857285,17.35356,16.72039546,16.69781798,16.88857285,,,,,,,,,,,,,,,,,,,2,PF,weak,3,45,-98,1,0,0,response3disk_5,6,4,1.89897,-6,9,1,0,0,rectangle_8,-6,9,1,0,0,,2,-6,9,1,0,0,,0,5,5,6,1,,,,,,,,,,,,,,,,,,,,,,,,,,,,,,,,,,,,,,,,,,,,,,,,,,,,,,,,,,
,,,,,,,,,,,,,,,,,,,,,,,,,,,,,,,,,,,,,,,,,,60480c2fe7f49a1419ca1cf1,606c0eae442b8c99a7f27c15,2021-04-06_02h35.30.783,Colour_Similarity_Experiment,2020.2.10,Win32,60,6067542a4a25243f4d7d4fcf,18.09530738,16.88857285,17.35356,16.72039546,16.69781798,16.88857285,,,,,,,,,,,,,,,,,,,3,PF,weak,3,-33,-99,1,0,0,response5disk_5,5,3,5.37766,3,1,1,0,0,rectangle_8,3,1,1,0,0,,2,3,1,1,0,0,,0,6,6,5,1,,,,,,,,,,,,,,,,,,,,,,,,,,,,,,,,,,,,,,,,,,,,,,,,,,,,,,,,,,
,,,,,,,,,,,,,,,,,,,,,,,,,,,,,,,,,,,,,,,,,,60480c2fe7f49a1419ca1cf1,606c0eae442b8c99a7f27c15,2021-04-06_02h35.30.783,Colour_Similarity_Experiment,2020.2.10,Win32,60,6067542a4a25243f4d7d4fcf,18.09530738,16.88857285,17.35356,16.72039546,16.69781798,16.88857285,,,,,,,,,,,,,,,,,,,,PF,weak,3,,,,,,,,5,10.77427,,,,,,,,,,,,,,,,,,,,,,,,,space,4.398775,1,weak,74,-53,1,0,0,response3disk,7,1,-6,0,1,0,0,rectangle,-6,0,1,0,0,,5,0.003395,-6,0,1,0,0,0,0,0,150,1,0,,,,,,,,,,,,,,,,,,,,,
,,,,,,,,,,,,,,,,,,,,,,,,,,,,,,,,,,,,,,,,,,60480c2fe7f49a1419ca1cf1,606c0eae442b8c99a7f27c15,2021-04-06_02h35.30.783,Colour_Similarity_Experiment,2020.2.10,Win32,60,6067542a4a25243f4d7d4fcf,18.09530738,16.88857285,17.35356,16.72039546,16.69781798,16.88857285,,,,,,,,,,,,,,,,,,,,PF,weak,3,,,,,,,,5,2.175465,,,,,,,,,,,,,,,,,,,,,,,,,,,1,weak,79,-52,1,0,0,response3disk,5,2,-23,5,1,0,0,rectangle,-23,5,1,0,0,,6,0.0024,-23,5,1,0,0,0,1,1,28,1,0,,,,,,,,,,,,,,,,,,,,,
,,,,,,,,,,,,,,,,,,,,,,,,,,,,,,,,,,,,,,,,,,60480c2fe7f49a1419ca1cf1,606c0eae442b8c99a7f27c15,2021-04-06_02h35.30.783,Colour_Similarity_Experiment,2020.2.10,Win32,60,6067542a4a25243f4d7d4fcf,18.09530738,16.88857285,17.35356,16.72039546,16.69781798,16.88857285,,,,,,,,,,,,,,,,,,,,PF,weak,3,,,,,,,,2,2.333335,,,,,,,,,,,,,,,,,,,,,,,,,,,5,weak,-85,-48,1,0,0,response5disk,7,3,14,-5,1,0,0,rectangle,14,-5,1,0,0,,4,0.002415,14,-5,1,0,0,0,2,2,146,1,0,,,,,,,,,,,,,,,,,,,,,
,,,,,,,,,,,,,,,,,,,,,,,,,,,,,,,,,,,,,,,,,,60480c2fe7f49a1419ca1cf1,606c0eae442b8c99a7f27c15,2021-04-06_02h35.30.783,Colour_Similarity_Experiment,2020.2.10,Win32,60,6067542a4a25243f4d7d4fcf,18.09530738,16.88857285,17.35356,16.72039546,16.69781798,16.88857285,,,,,,,,,,,,,,,,,,,,PF,strong,3,,,,,,,,4,6.36987,,,,,,,,,,,,,,,,,,,,,,,,,,,4,strong,27,-107,1,0,0,response3disk,2,4,-4,2,1,0,0,rectangle,-4,2,1,0,0,,0,0.00173,-4,2,1,0,0,0,3,3,13,1,0,,,,,,,,,,,,,,,,,,,,,
,,,,,,,,,,,,,,,,,,,,,,,,,,,,,,,,,,,,,,,,,,60480c2fe7f49a1419ca1cf1,606c0eae442b8c99a7f27c15,2021-04-06_02h35.30.783,Colour_Similarity_Experiment,2020.2.10,Win32,60,6067542a4a25243f4d7d4fcf,18.09530738,16.88857285,17.35356,16.72039546,16.69781798,16.88857285,,,,,,,,,,,,,,,,,,,,PF,weak,3,,,,,,,,4,2.53945,,,,,,,,,,,,,,,,,,,,,,,,,,,2,weak,42,-99,1,0,0,response3disk,8,5,-5,2,1,0,0,rectangle,-5,2,1,0,0,,7,0.002125,-5,2,1,0,0,0,4,4,52,1,0,,,,,,,,,,,,,,,,,,,,,
,,,,,,,,,,,,,,,,,,,,,,,,,,,,,,,,,,,,,,,,,,60480c2fe7f49a1419ca1cf1,606c0eae442b8c99a7f27c15,2021-04-06_02h35.30.783,Colour_Similarity_Experiment,2020.2.10,Win32,60,6067542a4a25243f4d7d4fcf,18.09530738,16.88857285,17.35356,16.72039546,16.69781798,16.88857285,,,,,,,,,,,,,,,,,,,,PF,weak,3,,,,,,,,4,1.20997,,,,,,,,,,,,,,,,,,,,,,,,,,,2,weak,38,-87,1,0,0,response3disk,4,6,-11,0,1,0,0,rectangle,-11,0,1,0,0,,6,0.00209,-11,0,1,0,0,0,5,5,127,1,0,,,,,,,,,,,,,,,,,,,,,
,,,,,,,,,,,,,,,,,,,,,,,,,,,,,,,,,,,,,,,,,,60480c2fe7f49a1419ca1cf1,606c0eae442b8c99a7f27c15,2021-04-06_02h35.30.783,Colour_Similarity_Experiment,2020.2.10,Win32,60,6067542a4a25243f4d7d4fcf,18.09530738,16.88857285,17.35356,16.72039546,16.69781798,16.88857285,,,,,,,,,,,,,,,,,,,,PF,strong,3,,,,,,,,1,1.563045,,,,,,,,,,,,,,,,,,,,,,,,,,,8,strong,-92,36,1,0,0,response7disk,9,7,2,12,1,0,0,rectangle,2,12,1,0,0,,4,0.00212,2,12,1,0,0,0,6,6,105,1,0,,,,,,,,,,,,,,,,,,,,,
,,,,,,,,,,,,,,,,,,,,,,,,,,,,,,,,,,,,,,,,,,60480c2fe7f49a1419ca1cf1,606c0eae442b8c99a7f27c15,2021-04-06_02h35.30.783,Colour_Similarity_Experiment,2020.2.10,Win32,60,6067542a4a25243f4d7d4fcf,18.09530738,16.88857285,17.35356,16.72039546,16.69781798,16.88857285,,,,,,,,,,,,,,,,,,,,PF,weak,3,,,,,,,,3,1.90703,,,,,,,,,,,,,,,,,,,,,,,,,,,4,weak,-33,-92,1,0,0,response5disk,8,8,13,-5,1,0,0,rectangle,13,-5,1,0,0,,4,0.00033,13,-5,1,0,0,0,7,7,124,1,0,,,,,,,,,,,,,,,,,,,,,
,,,,,,,,,,,,,,,,,,,,,,,,,,,,,,,,,,,,,,,,,,60480c2fe7f49a1419ca1cf1,606c0eae442b8c99a7f27c15,2021-04-06_02h35.30.783,Colour_Similarity_Experiment,2020.2.10,Win32,60,6067542a4a25243f4d7d4fcf,18.09530738,16.88857285,17.35356,16.72039546,16.69781798,16.88857285,,,,,,,,,,,,,,,,,,,,PF,strong,3,,,,,,,,4,2.627265,,,,,,,,,,,,,,,,,,,,,,,,,,,7,strong,54,-111,1,0,0,response3disk,1,9,-14,6,1,0,0,rectangle,-14,6,1,0,0,,5,0.001645,-14,6,1,0,0,0,8,8,132,1,0,,,,,,,,,,,,,,,,,,,,,
,,,,,,,,,,,,,,,,,,,,,,,,,,,,,,,,,,,,,,,,,,60480c2fe7f49a1419ca1cf1,606c0eae442b8c99a7f27c15,2021-04-06_02h35.30.783,Colour_Similarity_Experiment,2020.2.10,Win32,60,6067542a4a25243f4d7d4fcf,18.09530738,16.88857285,17.35356,16.72039546,16.69781798,16.88857285,,,,,,,,,,,,,,,,,,,,PF,strong,3,,,,,,,,6,1.62313,,,,,,,,,,,,,,,,,,,,,,,,,,,7,strong,91,26,1,0,0,response1disk,2,10,-7,4,1,0,0,rectangle,-7,4,1,0,0,,4,0.004595,-7,4,1,0,0,0,9,9,138,1,0,,,,,,,,,,,,,,,,,,,,,
,,,,,,,,,,,,,,,,,,,,,,,,,,,,,,,,,,,,,,,,,,60480c2fe7f49a1419ca1cf1,606c0eae442b8c99a7f27c15,2021-04-06_02h35.30.783,Colour_Similarity_Experiment,2020.2.10,Win32,60,6067542a4a25243f4d7d4fcf,18.09530738,16.88857285,17.35356,16.72039546,16.69781798,16.88857285,,,,,,,,,,,,,,,,,,,,PF,strong,3,,,,,,,,3,2.632425,,,,,,,,,,,,,,,,,,,,,,,,,,,1,strong,-55,-82,1,0,0,response5disk,8,11,4,-6,1,0,0,rectangle,4,-6,1,0,0,,0,0.00191,4,-6,1,0,0,0,10,10,27,1,0,,,,,,,,,,,,,,,,,,,,,
,,,,,,,,,,,,,,,,,,,,,,,,,,,,,,,,,,,,,,,,,,60480c2fe7f49a1419ca1cf1,606c0eae442b8c99a7f27c15,2021-04-06_02h35.30.783,Colour_Similarity_Experiment,2020.2.10,Win32,60,6067542a4a25243f4d7d4fcf,18.09530738,16.88857285,17.35356,16.72039546,16.69781798,16.88857285,,,,,,,,,,,,,,,,,,,,PF,strong,3,,,,,,,,5,1.36944,,,,,,,,,,,,,,,,,,,,,,,,,,,3,strong,83,-51,1,0,0,response3disk,9,12,13,-8,1,0,0,rectangle,13,-8,1,0,0,,1,0.00165,13,-8,1,0,0,0,11,11,143,1,0,,,,,,,,,,,,,,,,,,,,,
,,,,,,,,,,,,,,,,,,,,,,,,,,,,,,,,,,,,,,,,,,60480c2fe7f49a1419ca1cf1,606c0eae442b8c99a7f27c15,2021-04-06_02h35.30.783,Colour_Similarity_Experiment,2020.2.10,Win32,60,6067542a4a25243f4d7d4fcf,18.09530738,16.88857285,17.35356,16.72039546,16.69781798,16.88857285,,,,,,,,,,,,,,,,,,,,PF,weak,3,,,,,,,,5,2.38071,,,,,,,,,,,,,,,,,,,,,,,,,,,9,weak,85,-37,1,0,0,response3disk,2,13,11,-3,1,0,0,rectangle,11,-3,1,0,0,,5,0.00175,11,-3,1,0,0,0,12,12,157,1,0,,,,,,,,,,,,,,,,,,,,,
,,,,,,,,,,,,,,,,,,,,,,,,,,,,,,,,,,,,,,,,,,60480c2fe7f49a1419ca1cf1,606c0eae442b8c99a7f27c15,2021-04-06_02h35.30.783,Colour_Similarity_Experiment,2020.2.10,Win32,60,6067542a4a25243f4d7d4fcf,18.09530738,16.88857285,17.35356,16.72039546,16.69781798,16.88857285,,,,,,,,,,,,,,,,,,,,PF,strong,3,,,,,,,,4,7.37873,,,,,,,,,,,,,,,,,,,,,,,,,,,2,strong,20,-92,1,0,0,response3disk,6,14,-15,13,1,0,0,rectangle,-15,13,1,0,0,,4,0.001565,-15,13,1,0,0,0,13,13,40,1,0,,,,,,,,,,,,,,,,,,,,,
,,,,,,,,,,,,,,,,,,,,,,,,,,,,,,,,,,,,,,,,,,60480c2fe7f49a1419ca1cf1,606c0eae442b8c99a7f27c15,2021-04-06_02h35.30.783,Colour_Similarity_Experiment,2020.2.10,Win32,60,6067542a4a25243f4d7d4fcf,18.09530738,16.88857285,17.35356,16.72039546,16.69781798,16.88857285,,,,,,,,,,,,,,,,,,,,PF,weak,3,,,,,,,,2,1.64617,,,,,,,,,,,,,,,,,,,,,,,,,,,8,weak,-74,-36,1,0,0,response5disk,9,15,15,-2,1,0,0,rectangle,15,-2,1,0,0,,6,0.00219,15,-2,1,0,0,0,14,14,42,1,0,,,,,,,,,,,,,,,,,,,,,
,,,,,,,,,,,,,,,,,,,,,,,,,,,,,,,,,,,,,,,,,,60480c2fe7f49a1419ca1cf1,606c0eae442b8c99a7f27c15,2021-04-06_02h35.30.783,Colour_Similarity_Experiment,2020.2.10,Win32,60,6067542a4a25243f4d7d4fcf,18.09530738,16.88857285,17.35356,16.72039546,16.69781798,16.88857285,,,,,,,,,,,,,,,,,,,,PF,weak,3,,,,,,,,4,2.70005,,,,,,,,,,,,,,,,,,,,,,,,,,,5,weak,60,-93,1,0,0,response3disk,1,16,-2,3,1,0,0,rectangle,-35,-84,1,0,0,3,3,12.481375,6,8,1,0,0,0,15,15,159,1,1,response5disk_3,rectangle,,,,,,,,,,,,,,,,,,,
,,,,,,,,,,,,,,,,,,,,,,,,,,,,,,,,,,,,,,,,,,60480c2fe7f49a1419ca1cf1,606c0eae442b8c99a7f27c15,2021-04-06_02h35.30.783,Colour_Similarity_Experiment,2020.2.10,Win32,60,6067542a4a25243f4d7d4fcf,18.09530738,16.88857285,17.35356,16.72039546,16.69781798,16.88857285,,,,,,,,,,,,,,,,,,,,PF,strong,3,,,,,,,,2,1.46422,,,,,,,,,,,,,,,,,,,,,,,,,,,7,strong,-78,-43,1,0,0,response5disk,6,17,-2,4,1,0,0,rectangle,-2,4,1,0,0,3,4,0.002725,-2,4,1,0,0,0,16,16,31,1,0,,,,,,,,,,,,,,,,,,,,,
,,,,,,,,,,,,,,,,,,,,,,,,,,,,,,,,,,,,,,,,,,60480c2fe7f49a1419ca1cf1,606c0eae442b8c99a7f27c15,2021-04-06_02h35.30.783,Colour_Similarity_Experiment,2020.2.10,Win32,60,6067542a4a25243f4d7d4fcf,18.09530738,16.88857285,17.35356,16.72039546,16.69781798,16.88857285,,,,,,,,,,,,,,,,,,,,PF,weak,3,,,,,,,,3,1.103455,,,,,,,,,,,,,,,,,,,,,,,,,,,7,weak,-43,-108,1,0,0,response5disk,9,18,15,14,1,0,0,rectangle,15,14,1,0,0,3,7,0.002445,15,14,1,0,0,0,17,17,10,1,0,,,,,,,,,,,,,,,,,,,,,
,,,,,,,,,,,,,,,,,,,,,,,,,,,,,,,,,,,,,,,,,,60480c2fe7f49a1419ca1cf1,606c0eae442b8c99a7f27c15,2021-04-06_02h35.30.783,Colour_Similarity_Experiment,2020.2.10,Win32,60,6067542a4a25243f4d7d4fcf,18.09530738,16.88857285,17.35356,16.72039546,16.69781798,16.88857285,,,,,,,,,,,,,,,,,,,,PF,weak,3,,,,,,,,5,1.685755,,,,,,,,,,,,,,,,,,,,,,,,,,,8,weak,80,-63,1,0,0,response3disk,4,19,3,3,1,0,0,rectangle,3,3,1,0,0,3,5,0.00224,3,3,1,0,0,0,18,18,78,1,0,,,,,,,,,,,,,,,,,,,,,
,,,,,,,,,,,,,,,,,,,,,,,,,,,,,,,,,,,,,,,,,,60480c2fe7f49a1419ca1cf1,606c0eae442b8c99a7f27c15,2021-04-06_02h35.30.783,Colour_Similarity_Experiment,2020.2.10,Win32,60,6067542a4a25243f4d7d4fcf,18.09530738,16.88857285,17.35356,16.72039546,16.69781798,16.88857285,,,,,,,,,,,,,,,,,,,,PF,weak,3,,,,,,,,2,1.348185,,,,,,,,,,,,,,,,,,,,,,,,,,,2,weak,-79,-48,1,0,0,response5disk,3,20,20,6,1,0,0,rectangle,20,6,1,0,0,3,4,0.001725,20,6,1,0,0,0,19,19,69,1,0,,,,,,,,,,,,,,,,,,,,,
,,,,,,,,,,,,,,,,,,,,,,,,,,,,,,,,,,,,,,,,,,60480c2fe7f49a1419ca1cf1,606c0eae442b8c99a7f27c15,2021-04-06_02h35.30.783,Colour_Similarity_Experiment,2020.2.10,Win32,60,6067542a4a25243f4d7d4fcf,18.09530738,16.88857285,17.35356,16.72039546,16.69781798,16.88857285,,,,,,,,,,,,,,,,,,,,PF,weak,3,,,,,,,,6,2.82633,,,,,,,,,,,,,,,,,,,,,,,,,,,9,weak,90,30,1,0,0,response1disk,5,21,-5,4,1,0,0,rectangle,-5,4,1,0,0,3,3,0.00261,-5,4,1,0,0,0,20,20,134,1,0,,,,,,,,,,,,,,,,,,,,,
,,,,,,,,,,,,,,,,,,,,,,,,,,,,,,,,,,,,,,,,,,60480c2fe7f49a1419ca1cf1,606c0eae442b8c99a7f27c15,2021-04-06_02h35.30.783,Colour_Similarity_Experiment,2020.2.10,Win32,60,6067542a4a25243f4d7d4fcf,18.09530738,16.88857285,17.35356,16.72039546,16.69781798,16.88857285,,,,,,,,,,,,,,,,,,,,PF,weak,3,,,,,,,,5,1.960505,,,,,,,,,,,,,,,,,,,,,,,,,,,8,weak,80,-49,1,0,0,response3disk,2,22,7,-4,1,0,0,rectangle,7,-4,1,0,0,3,4,0.00378,7,-4,1,0,0,0,21,21,83,1,0,,,,,,,,,,,,,,,,,,,,,
,,,,,,,,,,,,,,,,,,,,,,,,,,,,,,,,,,,,,,,,,,60480c2fe7f49a1419ca1cf1,606c0eae442b8c99a7f27c15,2021-04-06_02h35.30.783,Colour_Similarity_Experiment,2020.2.10,Win32,60,6067542a4a25243f4d7d4fcf,18.09530738,16.88857285,17.35356,16.72039546,16.69781798,16.88857285,,,,,,,,,,,,,,,,,,,,PF,weak,3,,,,,,,,2,1.641325,,,,,,,,,,,,,,,,,,,,,,,,,,,7,weak,-77,-37,1,0,0,response5disk,6,23,5,3,1,0,0,rectangle,5,3,1,0,0,3,3,0.001745,5,3,1,0,0,0,22,22,29,1,0,,,,,,,,,,,,,,,,,,,,,
,,,,,,,,,,,,,,,,,,,,,,,,,,,,,,,,,,,,,,,,,,60480c2fe7f49a1419ca1cf1,606c0eae442b8c99a7f27c15,2021-04-06_02h35.30.783,Colour_Similarity_Experiment,2020.2.10,Win32,60,6067542a4a25243f4d7d4fcf,18.09530738,16.88857285,17.35356,16.72039546,16.69781798,16.88857285,,,,,,,,,,,,,,,,,,,,PF,strong,3,,,,,,,,0,1.391305,,,,,,,,,,,,,,,,,,,,,,,,,,,6,strong,-53,92,1,0,0,response7disk,6,24,-8,11,1,0,0,rectangle,-8,11,1,0,0,3,6,0.003475,-8,11,1,0,0,0,23,23,91,1,0,,,,,,,,,,,,,,,,,,,,,
,,,,,,,,,,,,,,,,,,,,,,,,,,,,,,,,,,,,,,,,,,60480c2fe7f49a1419ca1cf1,606c0eae442b8c99a7f27c15,2021-04-06_02h35.30.783,Colour_Similarity_Experiment,2020.2.10,Win32,60,6067542a4a25243f4d7d4fcf,18.09530738,16.88857285,17.35356,16.72039546,16.69781798,16.88857285,,,,,,,,,,,,,,,,,,,,PF,strong,3,,,,,,,,1,2.98482,,,,,,,,,,,,,,,,,,,,,,,,,,,9,strong,-84,49,1,0,0,response7disk,9,25,2,3,1,0,0,rectangle,2,3,1,0,0,3,5,0.00162,2,3,1,0,0,0,24,24,17,1,0,,,,,,,,,,,,,,,,,,,,,
,,,,,,,,,,,,,,,,,,,,,,,,,,,,,,,,,,,,,,,,,,60480c2fe7f49a1419ca1cf1,606c0eae442b8c99a7f27c15,2021-04-06_02h35.30.783,Colour_Similarity_Experiment,2020.2.10,Win32,60,6067542a4a25243f4d7d4fcf,18.09530738,16.88857285,17.35356,16.72039546,16.69781798,16.88857285,,,,,,,,,,,,,,,,,,,,PF,weak,3,,,,,,,,2,1.07459,,,,,,,,,,,,,,,,,,,,,,,,,,,6,weak,-78,-52,1,0,0,response5disk,5,26,14,-5,1,0,0,rectangle,14,-5,1,0,0,3,6,0.00151,14,-5,1,0,0,0,25,25,59,1,0,,,,,,,,,,,,,,,,,,,,,
,,,,,,,,,,,,,,,,,,,,,,,,,,,,,,,,,,,,,,,,,,60480c2fe7f49a1419ca1cf1,606c0eae442b8c99a7f27c15,2021-04-06_02h35.30.783,Colour_Similarity_Experiment,2020.2.10,Win32,60,6067542a4a25243f4d7d4fcf,18.09530738,16.88857285,17.35356,16.72039546,16.69781798,16.88857285,,,,,,,,,,,,,,,,,,,,PF,strong,3,,,,,,,,5,1.069915,,,,,,,,,,,,,,,,,,,,,,,,,,,1,strong,84,-40,1,0,0,response3disk,5,27,14,-4,1,0,0,rectangle,14,-4,1,0,0,3,7,0.001575,14,-4,1,0,0,0,26,26,82,1,0,,,,,,,,,,,,,,,,,,,,,
,,,,,,,,,,,,,,,,,,,,,,,,,,,,,,,,,,,,,,,,,,60480c2fe7f49a1419ca1cf1,606c0eae442b8c99a7f27c15,2021-04-06_02h35.30.783,Colour_Similarity_Experiment,2020.2.10,Win32,60,6067542a4a25243f4d7d4fcf,18.09530738,16.88857285,17.35356,16.72039546,16.69781798,16.88857285,,,,,,,,,,,,,,,,,,,,PF,weak,3,,,,,,,,3,6.096555,,,,,,,,,,,,,,,,,,,,,,,,,,,5,weak,-34,-95,1,0,0,response5disk,3,28,13,3,1,0,0,rectangle,13,3,1,0,0,3,3,0.00259,13,3,1,0,0,0,27,27,109,1,0,,,,,,,,,,,,,,,,,,,,,
,,,,,,,,,,,,,,,,,,,,,,,,,,,,,,,,,,,,,,,,,,60480c2fe7f49a1419ca1cf1,606c0eae442b8c99a7f27c15,2021-04-06_02h35.30.783,Colour_Similarity_Experiment,2020.2.10,Win32,60,6067542a4a25243f4d7d4fcf,18.09530738,16.88857285,17.35356,16.72039546,16.69781798,16.88857285,,,,,,,,,,,,,,,,,,,,PF,strong,3,,,,,,,,2,3.353975,,,,,,,,,,,,,,,,,,,,,,,,,,,4,strong,-74,-50,1,0,0,response5disk,3,29,28,7,1,0,0,rectangle,28,7,1,0,0,3,2,0.001805,28,7,1,0,0,0,28,28,77,1,0,,,,,,,,,,,,,,,,,,,,,
,,,,,,,,,,,,,,,,,,,,,,,,,,,,,,,,,,,,,,,,,,60480c2fe7f49a1419ca1cf1,606c0eae442b8c99a7f27c15,2021-04-06_02h35.30.783,Colour_Similarity_Experiment,2020.2.10,Win32,60,6067542a4a25243f4d7d4fcf,18.09530738,16.88857285,17.35356,16.72039546,16.69781798,16.88857285,,,,,,,,,,,,,,,,,,,,PF,strong,3,,,,,,,,4,4.82587,,,,,,,,,,,,,,,,,,,,,,,,,,,3,strong,40,-98,1,0,0,response3disk,6,30,16,-1,1,0,0,rectangle,16,-1,1,0,0,3,6,0.001655,16,-1,1,0,0,0,29,29,95,1,0,,,,,,,,,,,,,,,,,,,,,
,,,,,,,,,,,,,,,,,,,,,,,,,,,,,,,,,,,,,,,,,,60480c2fe7f49a1419ca1cf1,606c0eae442b8c99a7f27c15,2021-04-06_02h35.30.783,Colour_Similarity_Experiment,2020.2.10,Win32,60,6067542a4a25243f4d7d4fcf,18.09530738,16.88857285,17.35356,16.72039546,16.69781798,16.88857285,,,,,,,,,,,,,,,,,,,,PF,weak,3,,,,,,,,6,1.75835,,,,,,,,,,,,,,,,,,,,,,,,,,,7,weak,90,53,1,0,0,response1disk,1,31,1,1,1,0,0,rectangle,1,1,1,0,0,3,0,0.00188,1,1,1,0,0,0,30,30,53,1,0,,,,,,,,,,,,,,,,,,,,,
,,,,,,,,,,,,,,,,,,,,,,,,,,,,,,,,,,,,,,,,,,60480c2fe7f49a1419ca1cf1,606c0eae442b8c99a7f27c15,2021-04-06_02h35.30.783,Colour_Similarity_Experiment,2020.2.10,Win32,60,6067542a4a25243f4d7d4fcf,18.09530738,16.88857285,17.35356,16.72039546,16.69781798,16.88857285,,,,,,,,,,,,,,,,,,,,PF,weak,3,,,,,,,,7,1.46722,,,,,,,,,,,,,,,,,,,,,,,,,,,3,weak,52,86,1,0,0,response1disk,8,32,2,1,1,0,0,rectangle,2,1,1,0,0,3,6,0.00165,2,1,1,0,0,0,31,31,3,1,0,,,,,,,,,,,,,,,,,,,,,
,,,,,,,,,,,,,,,,,,,,,,,,,,,,,,,,,,,,,,,,,,60480c2fe7f49a1419ca1cf1,606c0eae442b8c99a7f27c15,2021-04-06_02h35.30.783,Colour_Similarity_Experiment,2020.2.10,Win32,60,6067542a4a25243f4d7d4fcf,18.09530738,16.88857285,17.35356,16.72039546,16.69781798,16.88857285,,,,,,,,,,,,,,,,,,,,PF,strong,3,,,,,,,,7,1.109755,,,,,,,,,,,,,,,,,,,,,,,,,,,4,strong,44,66,1,0,0,response1disk,9,33,-5,-4,1,0,0,rectangle,-5,-4,1,0,0,3,7,0.00238,-5,-4,1,0,0,0,32,32,90,1,0,,,,,,,,,,,,,,,,,,,,,
,,,,,,,,,,,,,,,,,,,,,,,,,,,,,,,,,,,,,,,,,,60480c2fe7f49a1419ca1cf1,606c0eae442b8c99a7f27c15,2021-04-06_02h35.30.783,Colour_Similarity_Experiment,2020.2.10,Win32,60,6067542a4a25243f4d7d4fcf,18.09530738,16.88857285,17.35356,16.72039546,16.69781798,16.88857285,,,,,,,,,,,,,,,,,,,,PF,strong,3,,,,,,,,7,1.9114,,,,,,,,,,,,,,,,,,,,,,,,,,,6,strong,45,84,1,0,0,response1disk,1,34,-4,-1,1,0,0,rectangle,-4,-1,1,0,0,3,2,0.001675,-4,-1,1,0,0,0,33,33,5,1,0,,,,,,,,,,,,,,,,,,,,,
,,,,,,,,,,,,,,,,,,,,,,,,,,,,,,,,,,,,,,,,,,60480c2fe7f49a1419ca1cf1,606c0eae442b8c99a7f27c15,2021-04-06_02h35.30.783,Colour_Similarity_Experiment,2020.2.10,Win32,60,6067542a4a25243f4d7d4fcf,18.09530738,16.88857285,17.35356,16.72039546,16.69781798,16.88857285,,,,,,,,,,,,,,,,,,,,PF,strong,3,,,,,,,,6,1.78617,,,,,,,,,,,,,,,,,,,,,,,,,,,9,strong,82,41,1,0,0,response1disk,3,35,11,2,1,0,0,rectangle,11,2,1,0,0,3,3,0.003565,11,2,1,0,0,0,34,34,141,1,0,,,,,,,,,,,,,,,,,,,,,
,,,,,,,,,,,,,,,,,,,,,,,,,,,,,,,,,,,,,,,,,,60480c2fe7f49a1419ca1cf1,606c0eae442b8c99a7f27c15,2021-04-06_02h35.30.783,Colour_Similarity_Experiment,2020.2.10,Win32,60,6067542a4a25243f4d7d4fcf,18.09530738,16.88857285,17.35356,16.72039546,16.69781798,16.88857285,,,,,,,,,,,,,,,,,,,,PF,weak,3,,,,,,,,6,2.897245,,,,,,,,,,,,,,,,,,,,,,,,,,,4,weak,98,43,1,0,0,response1disk,9,36,8,-6,1,0,0,rectangle,8,-6,1,0,0,3,4,0.00235,8,-6,1,0,0,0,35,35,75,1,0,,,,,,,,,,,,,,,,,,,,,
,,,,,,,,,,,,,,,,,,,,,,,,,,,,,,,,,,,,,,,,,,60480c2fe7f49a1419ca1cf1,606c0eae442b8c99a7f27c15,2021-04-06_02h35.30.783,Colour_Similarity_Experiment,2020.2.10,Win32,60,6067542a4a25243f4d7d4fcf,18.09530738,16.88857285,17.35356,16.72039546,16.69781798,16.88857285,,,,,,,,,,,,,,,,,,,,PF,weak,3,,,,,,,,2,1.381255,,,,,,,,,,,,,,,,,,,,,,,,,,,2,weak,-58,-35,1,0,0,response5disk,2,37,-4,0,1,0,0,rectangle,-4,0,1,0,0,3,6,0.002285,-4,0,1,0,0,0,36,36,14,1,0,,,,,,,,,,,,,,,,,,,,,
,,,,,,,,,,,,,,,,,,,,,,,,,,,,,,,,,,,,,,,,,,60480c2fe7f49a1419ca1cf1,606c0eae442b8c99a7f27c15,2021-04-06_02h35.30.783,Colour_Similarity_Experiment,2020.2.10,Win32,60,6067542a4a25243f4d7d4fcf,18.09530738,16.88857285,17.35356,16.72039546,16.69781798,16.88857285,,,,,,,,,,,,,,,,,,,,PF,strong,3,,,,,,,,6,1.458205,,,,,,,,,,,,,,,,,,,,,,,,,,,9,strong,106,30,1,0,0,response1disk,4,38,1,3,1,0,0,rectangle,1,3,1,0,0,3,4,0.00453,1,3,1,0,0,0,37,37,60,1,0,,,,,,,,,,,,,,,,,,,,,
,,,,,,,,,,,,,,,,,,,,,,,,,,,,,,,,,,,,,,,,,,60480c2fe7f49a1419ca1cf1,606c0eae442b8c99a7f27c15,2021-04-06_02h35.30.783,Colour_Similarity_Experiment,2020.2.10,Win32,60,6067542a4a25243f4d7d4fcf,18.09530738,16.88857285,17.35356,16.72039546,16.69781798,16.88857285,,,,,,,,,,,,,,,,,,,,PF,strong,3,,,,,,,,3,2.941275,,,,,,,,,,,,,,,,,,,,,,,,,,,9,strong,-54,-93,1,0,0,response5disk,1,39,-12,0,1,0,0,rectangle,-12,0,1,0,0,3,2,0.002395,-12,0,1,0,0,0,38,38,111,1,0,,,,,,,,,,,,,,,,,,,,,
,,,,,,,,,,,,,,,,,,,,,,,,,,,,,,,,,,,,,,,,,,60480c2fe7f49a1419ca1cf1,606c0eae442b8c99a7f27c15,2021-04-06_02h35.30.783,Colour_Similarity_Experiment,2020.2.10,Win32,60,6067542a4a25243f4d7d4fcf,18.09530738,16.88857285,17.35356,16.72039546,16.69781798,16.88857285,,,,,,,,,,,,,,,,,,,,PF,weak,3,,,,,,,,2,3.612675,,,,,,,,,,,,,,,,,,,,,,,,,,,5,weak,-78,-41,1,0,0,response5disk,4,40,-7,-9,1,0,0,rectangle,-7,-9,1,0,0,3,3,0.00269,-7,-9,1,0,0,0,39,39,54,1,0,,,,,,,,,,,,,,,,,,,,,
,,,,,,,,,,,,,,,,,,,,,,,,,,,,,,,,,,,,,,,,,,60480c2fe7f49a1419ca1cf1,606c0eae442b8c99a7f27c15,2021-04-06_02h35.30.783,Colour_Similarity_Experiment,2020.2.10,Win32,60,6067542a4a25243f4d7d4fcf,18.09530738,16.88857285,17.35356,16.72039546,16.69781798,16.88857285,,,,,,,,,,,,,,,,,,,,PF,weak,3,,,,,,,,4,2.316495,,,,,,,,,,,,,,,,,,,,,,,,,,,4,weak,33,-86,1,0,0,response3disk,6,41,-17,9,1,0,0,rectangle,-17,9,1,0,0,3,0,0.001545,-17,9,1,0,0,0,40,40,120,1,0,,,,,,,,,,,,,,,,,,,,,
,,,,,,,,,,,,,,,,,,,,,,,,,,,,,,,,,,,,,,,,,,60480c2fe7f49a1419ca1cf1,606c0eae442b8c99a7f27c15,2021-04-06_02h35.30.783,Colour_Similarity_Experiment,2020.2.10,Win32,60,6067542a4a25243f4d7d4fcf,18.09530738,16.88857285,17.35356,16.72039546,16.69781798,16.88857285,,,,,,,,,,,,,,,,,,,,PF,weak,3,,,,,,,,6,1.870505,,,,,,,,,,,,,,,,,,,,,,,,,,,7,weak,94,46,1,0,0,response1disk,3,42,-3,4,1,0,0,rectangle,-3,4,1,0,0,3,1,0.00231,-3,4,1,0,0,0,41,41,81,1,0,,,,,,,,,,,,,,,,,,,,,
,,,,,,,,,,,,,,,,,,,,,,,,,,,,,,,,,,,,,,,,,,60480c2fe7f49a1419ca1cf1,606c0eae442b8c99a7f27c15,2021-04-06_02h35.30.783,Colour_Similarity_Experiment,2020.2.10,Win32,60,6067542a4a25243f4d7d4fcf,18.09530738,16.88857285,17.35356,16.72039546,16.69781798,16.88857285,,,,,,,,,,,,,,,,,,,,PF,weak,3,,,,,,,,6,1.671,,,,,,,,,,,,,,,,,,,,,,,,,,,5,weak,87,35,1,0,0,response1disk,9,43,-11,4,1,0,0,rectangle,106,38,1,0,0,6,6,2.93463,-5,14,1,0,0,0,42,42,136,1,1,response1disk_3,rectangle,,,,,,,,,,,,,,,,,,,
,,,,,,,,,,,,,,,,,,,,,,,,,,,,,,,,,,,,,,,,,,60480c2fe7f49a1419ca1cf1,606c0eae442b8c99a7f27c15,2021-04-06_02h35.30.783,Colour_Similarity_Experiment,2020.2.10,Win32,60,6067542a4a25243f4d7d4fcf,18.09530738,16.88857285,17.35356,16.72039546,16.69781798,16.88857285,,,,,,,,,,,,,,,,,,,,PF,weak,3,,,,,,,,2,5.19821,,,,,,,,,,,,,,,,,,,,,,,,,,,3,weak,-86,-43,1,0,0,response5disk,3,44,2,-7,1,0,0,rectangle,2,-7,1,0,0,6,1,0.001535,2,-7,1,0,0,0,43,43,4,1,0,,,,,,,,,,,,,,,,,,,,,
,,,,,,,,,,,,,,,,,,,,,,,,,,,,,,,,,,,,,,,,,,60480c2fe7f49a1419ca1cf1,606c0eae442b8c99a7f27c15,2021-04-06_02h35.30.783,Colour_Similarity_Experiment,2020.2.10,Win32,60,6067542a4a25243f4d7d4fcf,18.09530738,16.88857285,17.35356,16.72039546,16.69781798,16.88857285,,,,,,,,,,,,,,,,,,,,PF,strong,3,,,,,,,,6,4.142445,,,,,,,,,,,,,,,,,,,,,,,,,,,4,strong,102,34,1,0,0,response1disk,8,45,8,2,1,0,0,rectangle,8,2,1,0,0,6,3,0.0029,8,2,1,0,0,0,44,44,35,1,0,,,,,,,,,,,,,,,,,,,,,
,,,,,,,,,,,,,,,,,,,,,,,,,,,,,,,,,,,,,,,,,,60480c2fe7f49a1419ca1cf1,606c0eae442b8c99a7f27c15,2021-04-06_02h35.30.783,Colour_Similarity_Experiment,2020.2.10,Win32,60,6067542a4a25243f4d7d4fcf,18.09530738,16.88857285,17.35356,16.72039546,16.69781798,16.88857285,,,,,,,,,,,,,,,,,,,,PF,strong,3,,,,,,,,4,2.06309,,,,,,,,,,,,,,,,,,,,,,,,,,,2,strong,30,-88,1,0,0,response3disk,1,46,9,6,1,0,0,rectangle,9,6,1,0,0,6,6,0.002345,9,6,1,0,0,0,45,45,85,1,0,,,,,,,,,,,,,,,,,,,,,
,,,,,,,,,,,,,,,,,,,,,,,,,,,,,,,,,,,,,,,,,,60480c2fe7f49a1419ca1cf1,606c0eae442b8c99a7f27c15,2021-04-06_02h35.30.783,Colour_Similarity_Experiment,2020.2.10,Win32,60,6067542a4a25243f4d7d4fcf,18.09530738,16.88857285,17.35356,16.72039546,16.69781798,16.88857285,,,,,,,,,,,,,,,,,,,,PF,weak,3,,,,,,,,4,5.719555,,,,,,,,,,,,,,,,,,,,,,,,,,,3,weak,47,-88,1,0,0,response3disk,6,47,1,-5,1,0,0,rectangle,1,-5,1,0,0,6,6,0.000195,1,-5,1,0,0,0,46,46,47,1,0,,,,,,,,,,,,,,,,,,,,,
,,,,,,,,,,,,,,,,,,,,,,,,,,,,,,,,,,,,,,,,,,60480c2fe7f49a1419ca1cf1,606c0eae442b8c99a7f27c15,2021-04-06_02h35.30.783,Colour_Similarity_Experiment,2020.2.10,Win32,60,6067542a4a25243f4d7d4fcf,18.09530738,16.88857285,17.35356,16.72039546,16.69781798,16.88857285,,,,,,,,,,,,,,,,,,,,PF,strong,3,,,,,,,,5,32.65153,,,,,,,,,,,,,,,,,,,,,,,,,,,5,strong,79,-42,1,0,0,response3disk,2,48,-2,3,1,0,0,rectangle,113,37,1,0,0,6,6,2.733435,-10,3,1,0,0,0,47,47,55,1,1,response1disk_3,rectangle,,,,,,,,,,,,,,,,,,,
,,,,,,,,,,,,,,,,,,,,,,,,,,,,,,,,,,,,,,,,,,60480c2fe7f49a1419ca1cf1,606c0eae442b8c99a7f27c15,2021-04-06_02h35.30.783,Colour_Similarity_Experiment,2020.2.10,Win32,60,6067542a4a25243f4d7d4fcf,18.09530738,16.88857285,17.35356,16.72039546,16.69781798,16.88857285,,,,,,,,,,,,,,,,,,,,PF,strong,3,,,,,,,,3,1.61572,,,,,,,,,,,,,,,,,,,,,,,,,,,7,strong,-37,-93,1,0,0,response5disk,5,49,-1,3,1,0,0,rectangle,-1,3,1,0,0,6,1,0.002545,-1,3,1,0,0,0,48,48,156,1,0,,,,,,,,,,,,,,,,,,,,,
,,,,,,,,,,,,,,,,,,,,,,,,,,,,,,,,,,,,,,,,,,60480c2fe7f49a1419ca1cf1,606c0eae442b8c99a7f27c15,2021-04-06_02h35.30.783,Colour_Similarity_Experiment,2020.2.10,Win32,60,6067542a4a25243f4d7d4fcf,18.09530738,16.88857285,17.35356,16.72039546,16.69781798,16.88857285,,,,,,,,,,,,,,,,,,,,PF,strong,3,,,,,,,,6,5.132345,,,,,,,,,,,,,,,,,,,,,,,,,,,2,strong,94,56,1,0,0,response1disk,8,50,8,14,1,0,0,rectangle,8,14,1,0,0,6,6,0.003165,8,14,1,0,0,0,49,49,62,1,0,,,,,,,,,,,,,,,,,,,,,
,,,,,,,,,,,,,,,,,,,,,,,,,,,,,,,,,,,,,,,,,,60480c2fe7f49a1419ca1cf1,606c0eae442b8c99a7f27c15,2021-04-06_02h35.30.783,Colour_Similarity_Experiment,2020.2.10,Win32,60,6067542a4a25243f4d7d4fcf,18.09530738,16.88857285,17.35356,16.72039546,16.69781798,16.88857285,,,,,,,,,,,,,,,,,,,,PF,weak,3,,,,,,,,1,1.337715,,,,,,,,,,,,,,,,,,,,,,,,,,,9,weak,-74,29,1,0,0,response7disk,9,51,3,-13,1,0,0,rectangle,3,-13,1,0,0,6,1,0.016095,3,-13,1,0,0,0,50,50,106,1,0,,,,,,,,,,,,,,,,,,,,,
,,,,,,,,,,,,,,,,,,,,,,,,,,,,,,,,,,,,,,,,,,60480c2fe7f49a1419ca1cf1,606c0eae442b8c99a7f27c15,2021-04-06_02h35.30.783,Colour_Similarity_Experiment,2020.2.10,Win32,60,6067542a4a25243f4d7d4fcf,18.09530738,16.88857285,17.35356,16.72039546,16.69781798,16.88857285,,,,,,,,,,,,,,,,,,,,PF,strong,3,,,,,,,,3,4.159085,,,,,,,,,,,,,,,,,,,,,,,,,,,2,strong,-26,-101,1,0,0,response5disk,3,52,-5,4,1,0,0,rectangle,-74,-32,1,0,0,6,2,2.438335,9,8,1,0,0,0,51,51,104,1,1,response5disk_3,rectangle,,,,,,,,,,,,,,,,,,,
,,,,,,,,,,,,,,,,,,,,,,,,,,,,,,,,,,,,,,,,,,60480c2fe7f49a1419ca1cf1,606c0eae442b8c99a7f27c15,2021-04-06_02h35.30.783,Colour_Similarity_Experiment,2020.2.10,Win32,60,6067542a4a25243f4d7d4fcf,18.09530738,16.88857285,17.35356,16.72039546,16.69781798,16.88857285,,,,,,,,,,,,,,,,,,,,PF,strong,3,,,,,,,,3,4.13352,,,,,,,,,,,,,,,,,,,,,,,,,,,5,strong,-44,-98,1,0,0,response5disk,7,53,-4,8,1,0,0,rectangle,-4,8,1,0,0,6,1,0.004405,-4,8,1,0,0,0,52,52,7,1,0,,,,,,,,,,,,,,,,,,,,,
,,,,,,,,,,,,,,,,,,,,,,,,,,,,,,,,,,,,,,,,,,60480c2fe7f49a1419ca1cf1,606c0eae442b8c99a7f27c15,2021-04-06_02h35.30.783,Colour_Similarity_Experiment,2020.2.10,Win32,60,6067542a4a25243f4d7d4fcf,18.09530738,16.88857285,17.35356,16.72039546,16.69781798,16.88857285,,,,,,,,,,,,,,,,,,,,PF,strong,3,,,,,,,,4,10.298795,,,,,,,,,,,,,,,,,,,,,,,,,,,7,strong,50,-112,1,0,0,response3disk,4,54,0,0,1,0,0,rectangle,0,0,1,0,0,6,6,0.002455,0,0,1,0,0,0,53,53,158,1,0,,,,,,,,,,,,,,,,,,,,,
,,,,,,,,,,,,,,,,,,,,,,,,,,,,,,,,,,,,,,,,,,60480c2fe7f49a1419ca1cf1,606c0eae442b8c99a7f27c15,2021-04-06_02h35.30.783,Colour_Similarity_Experiment,2020.2.10,Win32,60,6067542a4a25243f4d7d4fcf,18.09530738,16.88857285,17.35356,16.72039546,16.69781798,16.88857285,,,,,,,,,,,,,,,,,,,,PF,strong,3,,,,,,,,3,2.115665,,,,,,,,,,,,,,,,,,,,,,,,,,,5,strong,-28,-105,1,0,0,response5disk,3,55,0,15,1,0,0,rectangle,0,15,1,0,0,6,2,0.00197,0,15,1,0,0,0,54,54,25,1,0,,,,,,,,,,,,,,,,,,,,,
,,,,,,,,,,,,,,,,,,,,,,,,,,,,,,,,,,,,,,,,,,60480c2fe7f49a1419ca1cf1,606c0eae442b8c99a7f27c15,2021-04-06_02h35.30.783,Colour_Similarity_Experiment,2020.2.10,Win32,60,6067542a4a25243f4d7d4fcf,18.09530738,16.88857285,17.35356,16.72039546,16.69781798,16.88857285,,,,,,,,,,,,,,,,,,,,PF,strong,3,,,,,,,,3,1.1246,,,,,,,,,,,,,,,,,,,,,,,,,,,3,strong,-38,-96,1,0,0,response5disk,4,56,11,5,1,0,0,rectangle,11,5,1,0,0,6,2,0.00072,11,5,1,0,0,0,55,55,110,1,0,,,,,,,,,,,,,,,,,,,,,
,,,,,,,,,,,,,,,,,,,,,,,,,,,,,,,,,,,,,,,,,,60480c2fe7f49a1419ca1cf1,606c0eae442b8c99a7f27c15,2021-04-06_02h35.30.783,Colour_Similarity_Experiment,2020.2.10,Win32,60,6067542a4a25243f4d7d4fcf,18.09530738,16.88857285,17.35356,16.72039546,16.69781798,16.88857285,,,,,,,,,,,,,,,,,,,,PF,strong,3,,,,,,,,6,1.0958,,,,,,,,,,,,,,,,,,,,,,,,,,,1,strong,72,40,1,0,0,response1disk,7,57,-30,2,1,0,0,rectangle,-30,2,1,0,0,6,2,0.000155,-30,2,1,0,0,0,56,56,137,1,0,,,,,,,,,,,,,,,,,,,,,
,,,,,,,,,,,,,,,,,,,,,,,,,,,,,,,,,,,,,,,,,,60480c2fe7f49a1419ca1cf1,606c0eae442b8c99a7f27c15,2021-04-06_02h35.30.783,Colour_Similarity_Experiment,2020.2.10,Win32,60,6067542a4a25243f4d7d4fcf,18.09530738,16.88857285,17.35356,16.72039546,16.69781798,16.88857285,,,,,,,,,,,,,,,,,,,,PF,strong,3,,,,,,,,6,1.593895,,,,,,,,,,,,,,,,,,,,,,,,,,,1,strong,96,28,1,0,0,response1disk,4,58,-3,4,1,0,0,rectangle,-3,4,1,0,0,6,2,0.000335,-3,4,1,0,0,0,57,57,135,1,0,,,,,,,,,,,,,,,,,,,,,
,,,,,,,,,,,,,,,,,,,,,,,,,,,,,,,,,,,,,,,,,,60480c2fe7f49a1419ca1cf1,606c0eae442b8c99a7f27c15,2021-04-06_02h35.30.783,Colour_Similarity_Experiment,2020.2.10,Win32,60,6067542a4a25243f4d7d4fcf,18.09530738,16.88857285,17.35356,16.72039546,16.69781798,16.88857285,,,,,,,,,,,,,,,,,,,,PF,strong,3,,,,,,,,6,3.563095,,,,,,,,,,,,,,,,,,,,,,,,,,,8,strong,96,40,1,0,0,response1disk,3,59,-13,3,1,0,0,rectangle,-13,3,1,0,0,6,0,0.001875,-13,3,1,0,0,0,58,58,154,1,0,,,,,,,,,,,,,,,,,,,,,
,,,,,,,,,,,,,,,,,,,,,,,,,,,,,,,,,,,,,,,,,,60480c2fe7f49a1419ca1cf1,606c0eae442b8c99a7f27c15,2021-04-06_02h35.30.783,Colour_Similarity_Experiment,2020.2.10,Win32,60,6067542a4a25243f4d7d4fcf,18.09530738,16.88857285,17.35356,16.72039546,16.69781798,16.88857285,,,,,,,,,,,,,,,,,,,,PF,strong,3,,,,,,,,3,1.04362,,,,,,,,,,,,,,,,,,,,,,,,,,,3,strong,-51,-104,1,0,0,response5disk,5,60,0,-3,1,0,0,rectangle,0,-3,1,0,0,6,7,0.00272,0,-3,1,0,0,0,59,59,101,1,0,,,,,,,,,,,,,,,,,,,,,
,,,,,,,,,,,,,,,,,,,,,,,,,,,,,,,,,,,,,,,,,,60480c2fe7f49a1419ca1cf1,606c0eae442b8c99a7f27c15,2021-04-06_02h35.30.783,Colour_Similarity_Experiment,2020.2.10,Win32,60,6067542a4a25243f4d7d4fcf,18.09530738,16.88857285,17.35356,16.72039546,16.69781798,16.88857285,,,,,,,,,,,,,,,,,,,,PF,weak,3,,,,,,,,5,4.38056,,,,,,,,,,,,,,,,,,,,,,,,,,,1,weak,89,-51,1,0,0,response3disk,6,61,7,1,1,0,0,rectangle,7,1,1,0,0,6,5,0.001625,7,1,1,0,0,0,60,60,144,1,0,,,,,,,,,,,,,,,,,,,,,
,,,,,,,,,,,,,,,,,,,,,,,,,,,,,,,,,,,,,,,,,,60480c2fe7f49a1419ca1cf1,606c0eae442b8c99a7f27c15,2021-04-06_02h35.30.783,Colour_Similarity_Experiment,2020.2.10,Win32,60,6067542a4a25243f4d7d4fcf,18.09530738,16.88857285,17.35356,16.72039546,16.69781798,16.88857285,,,,,,,,,,,,,,,,,,,,PF,weak,3,,,,,,,,3,2.598725,,,,,,,,,,,,,,,,,,,,,,,,,,,3,weak,-56,-88,1,0,0,response5disk,2,62,-2,-7,1,0,0,rectangle,-45,93,1,0,0,0,0,2.17982,0,1,1,0,0,0,61,61,36,1,1,response7disk_3,rectangle,,,,,,,,,,,,,,,,,,,
,,,,,,,,,,,,,,,,,,,,,,,,,,,,,,,,,,,,,,,,,,60480c2fe7f49a1419ca1cf1,606c0eae442b8c99a7f27c15,2021-04-06_02h35.30.783,Colour_Similarity_Experiment,2020.2.10,Win32,60,6067542a4a25243f4d7d4fcf,18.09530738,16.88857285,17.35356,16.72039546,16.69781798,16.88857285,,,,,,,,,,,,,,,,,,,,PF,strong,3,,,,,,,,3,1.338665,,,,,,,,,,,,,,,,,,,,,,,,,,,8,strong,-43,-75,1,0,0,response5disk,1,63,-3,1,1,0,0,rectangle,-3,1,1,0,0,0,0,0.000145,-3,1,1,0,0,0,62,62,20,1,0,,,,,,,,,,,,,,,,,,,,,
,,,,,,,,,,,,,,,,,,,,,,,,,,,,,,,,,,,,,,,,,,60480c2fe7f49a1419ca1cf1,606c0eae442b8c99a7f27c15,2021-04-06_02h35.30.783,Colour_Similarity_Experiment,2020.2.10,Win32,60,6067542a4a25243f4d7d4fcf,18.09530738,16.88857285,17.35356,16.72039546,16.69781798,16.88857285,,,,,,,,,,,,,,,,,,,,PF,strong,3,,,,,,,,5,3.65193,,,,,,,,,,,,,,,,,,,,,,,,,,,8,strong,83,-61,1,0,0,response3disk,6,64,-10,8,1,0,0,rectangle,-10,8,1,0,0,0,7,0.021165,-10,8,1,0,0,0,63,63,37,1,0,,,,,,,,,,,,,,,,,,,,,
,,,,,,,,,,,,,,,,,,,,,,,,,,,,,,,,,,,,,,,,,,60480c2fe7f49a1419ca1cf1,606c0eae442b8c99a7f27c15,2021-04-06_02h35.30.783,Colour_Similarity_Experiment,2020.2.10,Win32,60,6067542a4a25243f4d7d4fcf,18.09530738,16.88857285,17.35356,16.72039546,16.69781798,16.88857285,,,,,,,,,,,,,,,,,,,,PF,weak,3,,,,,,,,4,2.992445,,,,,,,,,,,,,,,,,,,,,,,,,,,2,weak,38,-90,1,0,0,response3disk,9,65,-4,5,1,0,0,rectangle,-4,5,1,0,0,0,2,0.001995,-4,5,1,0,0,0,64,64,39,1,0,,,,,,,,,,,,,,,,,,,,,
,,,,,,,,,,,,,,,,,,,,,,,,,,,,,,,,,,,,,,,,,,60480c2fe7f49a1419ca1cf1,606c0eae442b8c99a7f27c15,2021-04-06_02h35.30.783,Colour_Similarity_Experiment,2020.2.10,Win32,60,6067542a4a25243f4d7d4fcf,18.09530738,16.88857285,17.35356,16.72039546,16.69781798,16.88857285,,,,,,,,,,,,,,,,,,,,PF,weak,3,,,,,,,,1,1.46739,,,,,,,,,,,,,,,,,,,,,,,,,,,4,weak,-67,42,1,0,0,response7disk,4,66,-3,2,1,0,0,rectangle,-3,2,1,0,0,0,7,0.007385,-3,2,1,0,0,0,65,65,70,1,0,,,,,,,,,,,,,,,,,,,,,
,,,,,,,,,,,,,,,,,,,,,,,,,,,,,,,,,,,,,,,,,,60480c2fe7f49a1419ca1cf1,606c0eae442b8c99a7f27c15,2021-04-06_02h35.30.783,Colour_Similarity_Experiment,2020.2.10,Win32,60,6067542a4a25243f4d7d4fcf,18.09530738,16.88857285,17.35356,16.72039546,16.69781798,16.88857285,,,,,,,,,,,,,,,,,,,,PF,strong,3,,,,,,,,0,1.09759,,,,,,,,,,,,,,,,,,,,,,,,,,,2,strong,-48,92,1,0,0,response7disk,2,67,-4,-12,1,0,0,rectangle,-4,-12,1,0,0,0,1,0.004385,-4,-12,1,0,0,0,66,66,142,1,0,,,,,,,,,,,,,,,,,,,,,
,,,,,,,,,,,,,,,,,,,,,,,,,,,,,,,,,,,,,,,,,,60480c2fe7f49a1419ca1cf1,606c0eae442b8c99a7f27c15,2021-04-06_02h35.30.783,Colour_Similarity_Experiment,2020.2.10,Win32,60,6067542a4a25243f4d7d4fcf,18.09530738,16.88857285,17.35356,16.72039546,16.69781798,16.88857285,,,,,,,,,,,,,,,,,,,,PF,strong,3,,,,,,,,5,1.834875,,,,,,,,,,,,,,,,,,,,,,,,,,,2,strong,89,-52,1,0,0,response3disk,5,68,-8,1,1,0,0,rectangle,-8,1,1,0,0,0,3,0.002775,-8,1,1,0,0,0,67,67,80,1,0,,,,,,,,,,,,,,,,,,,,,
,,,,,,,,,,,,,,,,,,,,,,,,,,,,,,,,,,,,,,,,,,60480c2fe7f49a1419ca1cf1,606c0eae442b8c99a7f27c15,2021-04-06_02h35.30.783,Colour_Similarity_Experiment,2020.2.10,Win32,60,6067542a4a25243f4d7d4fcf,18.09530738,16.88857285,17.35356,16.72039546,16.69781798,16.88857285,,,,,,,,,,,,,,,,,,,,PF,weak,3,,,,,,,,3,5.76434,,,,,,,,,,,,,,,,,,,,,,,,,,,8,weak,-37,-84,1,0,0,response5disk,1,69,0,8,1,0,0,rectangle,0,8,1,0,0,0,0,0.00271,0,8,1,0,0,0,68,68,57,1,0,,,,,,,,,,,,,,,,,,,,,
,,,,,,,,,,,,,,,,,,,,,,,,,,,,,,,,,,,,,,,,,,60480c2fe7f49a1419ca1cf1,606c0eae442b8c99a7f27c15,2021-04-06_02h35.30.783,Colour_Similarity_Experiment,2020.2.10,Win32,60,6067542a4a25243f4d7d4fcf,18.09530738,16.88857285,17.35356,16.72039546,16.69781798,16.88857285,,,,,,,,,,,,,,,,,,,,PF,weak,3,,,,,,,,3,1.12018,,,,,,,,,,,,,,,,,,,,,,,,,,,5,weak,-34,-103,1,0,0,response5disk,6,70,-3,3,1,0,0,rectangle,-3,3,1,0,0,0,0,0.00017,-3,3,1,0,0,0,69,69,103,1,0,,,,,,,,,,,,,,,,,,,,,
,,,,,,,,,,,,,,,,,,,,,,,,,,,,,,,,,,,,,,,,,,60480c2fe7f49a1419ca1cf1,606c0eae442b8c99a7f27c15,2021-04-06_02h35.30.783,Colour_Similarity_Experiment,2020.2.10,Win32,60,6067542a4a25243f4d7d4fcf,18.09530738,16.88857285,17.35356,16.72039546,16.69781798,16.88857285,,,,,,,,,,,,,,,,,,,,PF,weak,3,,,,,,,,5,2.964965,,,,,,,,,,,,,,,,,,,,,,,,,,,5,weak,86,-59,1,0,0,response3disk,2,71,-5,3,1,0,0,rectangle,-5,3,1,0,0,0,4,0.002175,-5,3,1,0,0,0,70,70,129,1,0,,,,,,,,,,,,,,,,,,,,,
,,,,,,,,,,,,,,,,,,,,,,,,,,,,,,,,,,,,,,,,,,60480c2fe7f49a1419ca1cf1,606c0eae442b8c99a7f27c15,2021-04-06_02h35.30.783,Colour_Similarity_Experiment,2020.2.10,Win32,60,6067542a4a25243f4d7d4fcf,18.09530738,16.88857285,17.35356,16.72039546,16.69781798,16.88857285,,,,,,,,,,,,,,,,,,,,PF,strong,3,,,,,,,,5,1.697235,,,,,,,,,,,,,,,,,,,,,,,,,,,6,strong,86,-37,1,0,0,response3disk,9,72,1,9,1,0,0,rectangle,-38,-90,1,0,0,3,3,3.00478,-5,5,1,0,0,0,71,71,160,1,1,response5disk_3,rectangle,,,,,,,,,,,,,,,,,,,
,,,,,,,,,,,,,,,,,,,,,,,,,,,,,,,,,,,,,,,,,,60480c2fe7f49a1419ca1cf1,606c0eae442b8c99a7f27c15,2021-04-06_02h35.30.783,Colour_Similarity_Experiment,2020.2.10,Win32,60,6067542a4a25243f4d7d4fcf,18.09530738,16.88857285,17.35356,16.72039546,16.69781798,16.88857285,,,,,,,,,,,,,,,,,,,,PF,strong,3,,,,,,,,1,2.18143,,,,,,,,,,,,,,,,,,,,,,,,,,,3,strong,-76,33,1,0,0,response7disk,3,73,-5,3,1,0,0,rectangle,-5,3,1,0,0,3,6,0.003795,-5,3,1,0,0,0,72,72,68,1,0,,,,,,,,,,,,,,,,,,,,,
,,,,,,,,,,,,,,,,,,,,,,,,,,,,,,,,,,,,,,,,,,60480c2fe7f49a1419ca1cf1,606c0eae442b8c99a7f27c15,2021-04-06_02h35.30.783,Colour_Similarity_Experiment,2020.2.10,Win32,60,6067542a4a25243f4d7d4fcf,18.09530738,16.88857285,17.35356,16.72039546,16.69781798,16.88857285,,,,,,,,,,,,,,,,,,,,PF,weak,3,,,,,,,,3,1.320905,,,,,,,,,,,,,,,,,,,,,,,,,,,7,weak,-36,-106,1,0,0,response5disk,8,74,0,-2,1,0,0,rectangle,0,-2,1,0,0,3,5,0.002195,0,-2,1,0,0,0,73,73,140,1,0,,,,,,,,,,,,,,,,,,,,,
,,,,,,,,,,,,,,,,,,,,,,,,,,,,,,,,,,,,,,,,,,60480c2fe7f49a1419ca1cf1,606c0eae442b8c99a7f27c15,2021-04-06_02h35.30.783,Colour_Similarity_Experiment,2020.2.10,Win32,60,6067542a4a25243f4d7d4fcf,18.09530738,16.88857285,17.35356,16.72039546,16.69781798,16.88857285,,,,,,,,,,,,,,,,,,,,PF,weak,3,,,,,,,,2,2.15477,,,,,,,,,,,,,,,,,,,,,,,,,,,4,weak,-85,-49,1,0,0,response5disk,3,75,-1,-6,1,0,0,rectangle,-1,-6,1,0,0,3,3,0.009225,-1,-6,1,0,0,0,74,74,89,1,0,,,,,,,,,,,,,,,,,,,,,
,,,,,,,,,,,,,,,,,,,,,,,,,,,,,,,,,,,,,,,,,,60480c2fe7f49a1419ca1cf1,606c0eae442b8c99a7f27c15,2021-04-06_02h35.30.783,Colour_Similarity_Experiment,2020.2.10,Win32,60,6067542a4a25243f4d7d4fcf,18.09530738,16.88857285,17.35356,16.72039546,16.69781798,16.88857285,,,,,,,,,,,,,,,,,,,,PF,strong,3,,,,,,,,5,1.94591,,,,,,,,,,,,,,,,,,,,,,,,,,,6,strong,93,-56,1,0,0,response3disk,2,76,-7,5,1,0,0,rectangle,-7,5,1,0,0,3,5,0.001925,-7,5,1,0,0,0,75,75,112,1,0,,,,,,,,,,,,,,,,,,,,,
,,,,,,,,,,,,,,,,,,,,,,,,,,,,,,,,,,,,,,,,,,60480c2fe7f49a1419ca1cf1,606c0eae442b8c99a7f27c15,2021-04-06_02h35.30.783,Colour_Similarity_Experiment,2020.2.10,Win32,60,6067542a4a25243f4d7d4fcf,18.09530738,16.88857285,17.35356,16.72039546,16.69781798,16.88857285,,,,,,,,,,,,,,,,,,,,PF,strong,3,,,,,,,,4,3.672895,,,,,,,,,,,,,,,,,,,,,,,,,,,7,strong,36,-100,1,0,0,response3disk,9,77,-3,2,1,0,0,rectangle,-3,2,1,0,0,3,4,0.002305,-3,2,1,0,0,0,76,76,155,1,0,,,,,,,,,,,,,,,,,,,,,
,,,,,,,,,,,,,,,,,,,,,,,,,,,,,,,,,,,,,,,,,,60480c2fe7f49a1419ca1cf1,606c0eae442b8c99a7f27c15,2021-04-06_02h35.30.783,Colour_Similarity_Experiment,2020.2.10,Win32,60,6067542a4a25243f4d7d4fcf,18.09530738,16.88857285,17.35356,16.72039546,16.69781798,16.88857285,,,,,,,,,,,,,,,,,,,,PF,weak,3,,,,,,,,5,2.511555,,,,,,,,,,,,,,,,,,,,,,,,,,,6,weak,84,-58,1,0,0,response3disk,8,78,-2,13,1,0,0,rectangle,-2,13,1,0,0,3,2,0.002035,-2,13,1,0,0,0,77,77,64,1,0,,,,,,,,,,,,,,,,,,,,,
,,,,,,,,,,,,,,,,,,,,,,,,,,,,,,,,,,,,,,,,,,60480c2fe7f49a1419ca1cf1,606c0eae442b8c99a7f27c15,2021-04-06_02h35.30.783,Colour_Similarity_Experiment,2020.2.10,Win32,60,6067542a4a25243f4d7d4fcf,18.09530738,16.88857285,17.35356,16.72039546,16.69781798,16.88857285,,,,,,,,,,,,,,,,,,,,PF,weak,3,,,,,,,,4,1.531545,,,,,,,,,,,,,,,,,,,,,,,,,,,6,weak,33,-100,1,0,0,response3disk,3,79,-7,7,1,0,0,rectangle,-7,7,1,0,0,3,6,0.002415,-7,7,1,0,0,0,78,78,26,1,0,,,,,,,,,,,,,,,,,,,,,
,,,,,,,,,,,,,,,,,,,,,,,,,,,,,,,,,,,,,,,,,,60480c2fe7f49a1419ca1cf1,606c0eae442b8c99a7f27c15,2021-04-06_02h35.30.783,Colour_Similarity_Experiment,2020.2.10,Win32,60,6067542a4a25243f4d7d4fcf,18.09530738,16.88857285,17.35356,16.72039546,16.69781798,16.88857285,,,,,,,,,,,,,,,,,,,,PF,weak,3,,,,,,,,5,2.44774,,,,,,,,,,,,,,,,,,,,,,,,,,,1,weak,99,-56,1,0,0,response3disk,3,80,-1,-1,1,0,0,rectangle,-1,-1,1,0,0,3,6,0.00105,-1,-1,1,0,0,0,79,79,1,1,0,,,,,,,,,,,,,,,,,,,,,
,,,,,,,,,,,,,,,,,,,,,,,,,,,,,,,,,,,,,,,,,,60480c2fe7f49a1419ca1cf1,606c0eae442b8c99a7f27c15,2021-04-06_02h35.30.783,Colour_Similarity_Experiment,2020.2.10,Win32,60,6067542a4a25243f4d7d4fcf,18.09530738,16.88857285,17.35356,16.72039546,16.69781798,16.88857285,,,,,,,,,,,,,,,,,,,,PF,strong,3,,,,,,,,2,2.88054,,,,,,,,,,,,,,,,,,,,,,,,,,,4,strong,-73,-49,1,0,0,response5disk,4,81,-4,4,1,0,0,rectangle,-4,4,1,0,0,3,5,0.001445,-4,4,1,0,0,0,80,80,84,1,0,,,,,,,,,,,,,,,,,,,,,
,,,,,,,,,,,,,,,,,,,,,,,,,,,,,,,,,,,,,,,,,,60480c2fe7f49a1419ca1cf1,606c0eae442b8c99a7f27c15,2021-04-06_02h35.30.783,Colour_Similarity_Experiment,2020.2.10,Win32,60,6067542a4a25243f4d7d4fcf,18.09530738,16.88857285,17.35356,16.72039546,16.69781798,16.88857285,,,,,,,,,,,,,,,,,,,,PF,strong,3,,,,,,,,5,1.398645,,,,,,,,,,,,,,,,,,,,,,,,,,,9,strong,71,-47,1,0,0,response3disk,5,82,-3,4,1,0,0,rectangle,-3,4,1,0,0,3,2,0.002685,-3,4,1,0,0,0,81,81,128,1,0,,,,,,,,,,,,,,,,,,,,,
,,,,,,,,,,,,,,,,,,,,,,,,,,,,,,,,,,,,,,,,,,60480c2fe7f49a1419ca1cf1,606c0eae442b8c99a7f27c15,2021-04-06_02h35.30.783,Colour_Similarity_Experiment,2020.2.10,Win32,60,6067542a4a25243f4d7d4fcf,18.09530738,16.88857285,17.35356,16.72039546,16.69781798,16.88857285,,,,,,,,,,,,,,,,,,,,PF,strong,3,,,,,,,,4,1.689995,,,,,,,,,,,,,,,,,,,,,,,,,,,8,strong,34,-75,1,0,0,response3disk,7,83,-2,0,1,0,0,rectangle,-2,0,1,0,0,3,0,0.00185,-2,0,1,0,0,0,82,82,86,1,0,,,,,,,,,,,,,,,,,,,,,
,,,,,,,,,,,,,,,,,,,,,,,,,,,,,,,,,,,,,,,,,,60480c2fe7f49a1419ca1cf1,606c0eae442b8c99a7f27c15,2021-04-06_02h35.30.783,Colour_Similarity_Experiment,2020.2.10,Win32,60,6067542a4a25243f4d7d4fcf,18.09530738,16.88857285,17.35356,16.72039546,16.69781798,16.88857285,,,,,,,,,,,,,,,,,,,,PF,strong,3,,,,,,,,6,2.199225,,,,,,,,,,,,,,,,,,,,,,,,,,,1,strong,98,45,1,0,0,response1disk,3,84,-6,4,1,0,0,rectangle,-6,4,1,0,0,3,1,0.002815,-6,4,1,0,0,0,83,83,99,1,0,,,,,,,,,,,,,,,,,,,,,
,,,,,,,,,,,,,,,,,,,,,,,,,,,,,,,,,,,,,,,,,,60480c2fe7f49a1419ca1cf1,606c0eae442b8c99a7f27c15,2021-04-06_02h35.30.783,Colour_Similarity_Experiment,2020.2.10,Win32,60,6067542a4a25243f4d7d4fcf,18.09530738,16.88857285,17.35356,16.72039546,16.69781798,16.88857285,,,,,,,,,,,,,,,,,,,,PF,weak,3,,,,,,,,6,1.0995,,,,,,,,,,,,,,,,,,,,,,,,,,,8,weak,82,44,1,0,0,response1disk,3,85,-7,-12,1,0,0,rectangle,-7,-12,1,0,0,3,5,0.00238,-7,-12,1,0,0,0,84,84,71,1,0,,,,,,,,,,,,,,,,,,,,,
,,,,,,,,,,,,,,,,,,,,,,,,,,,,,,,,,,,,,,,,,,60480c2fe7f49a1419ca1cf1,606c0eae442b8c99a7f27c15,2021-04-06_02h35.30.783,Colour_Similarity_Experiment,2020.2.10,Win32,60,6067542a4a25243f4d7d4fcf,18.09530738,16.88857285,17.35356,16.72039546,16.69781798,16.88857285,,,,,,,,,,,,,,,,,,,,PF,strong,3,,,,,,,,6,2.31522,,,,,,,,,,,,,,,,,,,,,,,,,,,8,strong,95,43,1,0,0,response1disk,2,86,-14,14,1,0,0,rectangle,-14,14,1,0,0,3,3,0.001495,-14,14,1,0,0,0,85,85,22,1,0,,,,,,,,,,,,,,,,,,,,,
,,,,,,,,,,,,,,,,,,,,,,,,,,,,,,,,,,,,,,,,,,60480c2fe7f49a1419ca1cf1,606c0eae442b8c99a7f27c15,2021-04-06_02h35.30.783,Colour_Similarity_Experiment,2020.2.10,Win32,60,6067542a4a25243f4d7d4fcf,18.09530738,16.88857285,17.35356,16.72039546,16.69781798,16.88857285,,,,,,,,,,,,,,,,,,,,PF,weak,3,,,,,,,,6,1.43276,,,,,,,,,,,,,,,,,,,,,,,,,,,3,weak,103,42,1,0,0,response1disk,1,87,4,-5,1,0,0,rectangle,4,-5,1,0,0,3,7,0.00226,4,-5,1,0,0,0,86,86,96,1,0,,,,,,,,,,,,,,,,,,,,,
,,,,,,,,,,,,,,,,,,,,,,,,,,,,,,,,,,,,,,,,,,60480c2fe7f49a1419ca1cf1,606c0eae442b8c99a7f27c15,2021-04-06_02h35.30.783,Colour_Similarity_Experiment,2020.2.10,Win32,60,6067542a4a25243f4d7d4fcf,18.09530738,16.88857285,17.35356,16.72039546,16.69781798,16.88857285,,,,,,,,,,,,,,,,,,,,PF,strong,3,,,,,,,,3,1.82539,,,,,,,,,,,,,,,,,,,,,,,,,,,7,strong,-54,-88,1,0,0,response5disk,7,88,-6,4,1,0,0,rectangle,-6,4,1,0,0,3,2,0.002675,-6,4,1,0,0,0,87,87,34,1,0,,,,,,,,,,,,,,,,,,,,,
,,,,,,,,,,,,,,,,,,,,,,,,,,,,,,,,,,,,,,,,,,60480c2fe7f49a1419ca1cf1,606c0eae442b8c99a7f27c15,2021-04-06_02h35.30.783,Colour_Similarity_Experiment,2020.2.10,Win32,60,6067542a4a25243f4d7d4fcf,18.09530738,16.88857285,17.35356,16.72039546,16.69781798,16.88857285,,,,,,,,,,,,,,,,,,,,PF,weak,3,,,,,,,,6,1.8774,,,,,,,,,,,,,,,,,,,,,,,,,,,2,weak,97,26,1,0,0,response1disk,6,89,-5,-4,1,0,0,rectangle,-5,-4,1,0,0,3,7,0.00273,-5,-4,1,0,0,0,88,88,113,1,0,,,,,,,,,,,,,,,,,,,,,
,,,,,,,,,,,,,,,,,,,,,,,,,,,,,,,,,,,,,,,,,,60480c2fe7f49a1419ca1cf1,606c0eae442b8c99a7f27c15,2021-04-06_02h35.30.783,Colour_Similarity_Experiment,2020.2.10,Win32,60,6067542a4a25243f4d7d4fcf,18.09530738,16.88857285,17.35356,16.72039546,16.69781798,16.88857285,,,,,,,,,,,,,,,,,,,,PF,weak,3,,,,,,,,6,2.80629,,,,,,,,,,,,,,,,,,,,,,,,,,,3,weak,95,44,1,0,0,response1disk,7,90,-16,-4,1,0,0,rectangle,-16,-4,1,0,0,3,7,0.00021,-16,-4,1,0,0,0,89,89,41,1,0,,,,,,,,,,,,,,,,,,,,,
,,,,,,,,,,,,,,,,,,,,,,,,,,,,,,,,,,,,,,,,,,60480c2fe7f49a1419ca1cf1,606c0eae442b8c99a7f27c15,2021-04-06_02h35.30.783,Colour_Similarity_Experiment,2020.2.10,Win32,60,6067542a4a25243f4d7d4fcf,18.09530738,16.88857285,17.35356,16.72039546,16.69781798,16.88857285,,,,,,,,,,,,,,,,,,,,PF,strong,3,,,,,,,,7,1.062265,,,,,,,,,,,,,,,,,,,,,,,,,,,9,strong,48,84,1,0,0,response1disk,7,91,1,-4,1,0,0,rectangle,1,-4,1,0,0,3,0,0.001445,1,-4,1,0,0,0,90,90,100,1,0,,,,,,,,,,,,,,,,,,,,,
,,,,,,,,,,,,,,,,,,,,,,,,,,,,,,,,,,,,,,,,,,60480c2fe7f49a1419ca1cf1,606c0eae442b8c99a7f27c15,2021-04-06_02h35.30.783,Colour_Similarity_Experiment,2020.2.10,Win32,60,6067542a4a25243f4d7d4fcf,18.09530738,16.88857285,17.35356,16.72039546,16.69781798,16.88857285,,,,,,,,,,,,,,,,,,,,PF,weak,3,,,,,,,,3,1.31129,,,,,,,,,,,,,,,,,,,,,,,,,,,7,weak,-43,-81,1,0,0,response5disk,5,92,16,6,1,0,0,rectangle,16,6,1,0,0,3,2,0.00494,16,6,1,0,0,0,91,91,92,1,0,,,,,,,,,,,,,,,,,,,,,
,,,,,,,,,,,,,,,,,,,,,,,,,,,,,,,,,,,,,,,,,,60480c2fe7f49a1419ca1cf1,606c0eae442b8c99a7f27c15,2021-04-06_02h35.30.783,Colour_Similarity_Experiment,2020.2.10,Win32,60,6067542a4a25243f4d7d4fcf,18.09530738,16.88857285,17.35356,16.72039546,16.69781798,16.88857285,,,,,,,,,,,,,,,,,,,,PF,strong,3,,,,,,,,5,1.945815,,,,,,,,,,,,,,,,,,,,,,,,,,,9,strong,86,-56,1,0,0,response3disk,2,93,-4,1,1,0,0,rectangle,37,-89,1,0,0,4,4,2.65255,-12,0,1,0,0,0,92,92,11,1,1,response3disk_3,rectangle,,,,,,,,,,,,,,,,,,,
,,,,,,,,,,,,,,,,,,,,,,,,,,,,,,,,,,,,,,,,,,60480c2fe7f49a1419ca1cf1,606c0eae442b8c99a7f27c15,2021-04-06_02h35.30.783,Colour_Similarity_Experiment,2020.2.10,Win32,60,6067542a4a25243f4d7d4fcf,18.09530738,16.88857285,17.35356,16.72039546,16.69781798,16.88857285,,,,,,,,,,,,,,,,,,,,PF,strong,3,,,,,,,,2,1.41294,,,,,,,,,,,,,,,,,,,,,,,,,,,8,strong,-87,-54,1,0,0,response5disk,8,94,8,-7,1,0,0,rectangle,8,-7,1,0,0,4,4,0.00015,8,-7,1,0,0,0,93,93,48,1,0,,,,,,,,,,,,,,,,,,,,,
,,,,,,,,,,,,,,,,,,,,,,,,,,,,,,,,,,,,,,,,,,60480c2fe7f49a1419ca1cf1,606c0eae442b8c99a7f27c15,2021-04-06_02h35.30.783,Colour_Similarity_Experiment,2020.2.10,Win32,60,6067542a4a25243f4d7d4fcf,18.09530738,16.88857285,17.35356,16.72039546,16.69781798,16.88857285,,,,,,,,,,,,,,,,,,,,PF,weak,3,,,,,,,,1,1.01762,,,,,,,,,,,,,,,,,,,,,,,,,,,1,weak,-93,52,1,0,0,response7disk,1,95,-1,3,1,0,0,rectangle,37,-94,1,0,0,4,4,1.83489,1,-2,1,0,0,0,94,94,76,1,1,response3disk_3,rectangle,,,,,,,,,,,,,,,,,,,
,,,,,,,,,,,,,,,,,,,,,,,,,,,,,,,,,,,,,,,,,,60480c2fe7f49a1419ca1cf1,606c0eae442b8c99a7f27c15,2021-04-06_02h35.30.783,Colour_Similarity_Experiment,2020.2.10,Win32,60,6067542a4a25243f4d7d4fcf,18.09530738,16.88857285,17.35356,16.72039546,16.69781798,16.88857285,,,,,,,,,,,,,,,,,,,,PF,weak,3,,,,,,,,5,1.498275,,,,,,,,,,,,,,,,,,,,,,,,,,,7,weak,84,-56,1,0,0,response3disk,4,96,3,2,1,0,0,rectangle,3,2,1,0,0,4,3,0.00172,3,2,1,0,0,0,95,95,43,1,0,,,,,,,,,,,,,,,,,,,,,
,,,,,,,,,,,,,,,,,,,,,,,,,,,,,,,,,,,,,,,,,,60480c2fe7f49a1419ca1cf1,606c0eae442b8c99a7f27c15,2021-04-06_02h35.30.783,Colour_Similarity_Experiment,2020.2.10,Win32,60,6067542a4a25243f4d7d4fcf,18.09530738,16.88857285,17.35356,16.72039546,16.69781798,16.88857285,,,,,,,,,,,,,,,,,,,,PF,weak,3,,,,,,,,6,2.451665,,,,,,,,,,,,,,,,,,,,,,,,,,,2,weak,94,35,1,0,0,response1disk,7,97,5,4,1,0,0,rectangle,5,4,1,0,0,4,1,0.00268,5,4,1,0,0,0,96,96,107,1,0,,,,,,,,,,,,,,,,,,,,,
,,,,,,,,,,,,,,,,,,,,,,,,,,,,,,,,,,,,,,,,,,60480c2fe7f49a1419ca1cf1,606c0eae442b8c99a7f27c15,2021-04-06_02h35.30.783,Colour_Similarity_Experiment,2020.2.10,Win32,60,6067542a4a25243f4d7d4fcf,18.09530738,16.88857285,17.35356,16.72039546,16.69781798,16.88857285,,,,,,,,,,,,,,,,,,,,PF,strong,3,,,,,,,,5,6.338495,,,,,,,,,,,,,,,,,,,,,,,,,,,3,strong,95,-39,1,0,0,response3disk,8,98,1,6,1,0,0,rectangle,1,6,1,0,0,4,1,0.00016,1,6,1,0,0,0,97,97,44,1,0,,,,,,,,,,,,,,,,,,,,,
,,,,,,,,,,,,,,,,,,,,,,,,,,,,,,,,,,,,,,,,,,60480c2fe7f49a1419ca1cf1,606c0eae442b8c99a7f27c15,2021-04-06_02h35.30.783,Colour_Similarity_Experiment,2020.2.10,Win32,60,6067542a4a25243f4d7d4fcf,18.09530738,16.88857285,17.35356,16.72039546,16.69781798,16.88857285,,,,,,,,,,,,,,,,,,,,PF,weak,3,,,,,,,,0,1.223685,,,,,,,,,,,,,,,,,,,,,,,,,,,5,weak,-52,104,1,0,0,response7disk,5,99,-6,3,1,0,0,rectangle,-6,3,1,0,0,4,1,0.000175,-6,3,1,0,0,0,98,98,94,1,0,,,,,,,,,,,,,,,,,,,,,
,,,,,,,,,,,,,,,,,,,,,,,,,,,,,,,,,,,,,,,,,,60480c2fe7f49a1419ca1cf1,606c0eae442b8c99a7f27c15,2021-04-06_02h35.30.783,Colour_Similarity_Experiment,2020.2.10,Win32,60,6067542a4a25243f4d7d4fcf,18.09530738,16.88857285,17.35356,16.72039546,16.69781798,16.88857285,,,,,,,,,,,,,,,,,,,,PF,weak,3,,,,,,,,3,1.83365,,,,,,,,,,,,,,,,,,,,,,,,,,,2,weak,-49,-100,1,0,0,response5disk,1,100,-7,-1,1,0,0,rectangle,-7,-1,1,0,0,4,3,0.00191,-7,-1,1,0,0,0,99,99,9,1,0,,,,,,,,,,,,,,,,,,,,,
,,,,,,,,,,,,,,,,,,,,,,,,,,,,,,,,,,,,,,,,,,60480c2fe7f49a1419ca1cf1,606c0eae442b8c99a7f27c15,2021-04-06_02h35.30.783,Colour_Similarity_Experiment,2020.2.10,Win32,60,6067542a4a25243f4d7d4fcf,18.09530738,16.88857285,17.35356,16.72039546,16.69781798,16.88857285,,,,,,,,,,,,,,,,,,,,PF,weak,3,,,,,,,,5,1.267975,,,,,,,,,,,,,,,,,,,,,,,,,,,4,weak,85,-21,1,0,0,response3disk,1,101,6,8,1,0,0,rectangle,6,8,1,0,0,4,4,0.00174,6,8,1,0,0,0,100,100,115,1,0,,,,,,,,,,,,,,,,,,,,,
,,,,,,,,,,,,,,,,,,,,,,,,,,,,,,,,,,,,,,,,,,60480c2fe7f49a1419ca1cf1,606c0eae442b8c99a7f27c15,2021-04-06_02h35.30.783,Colour_Similarity_Experiment,2020.2.10,Win32,60,6067542a4a25243f4d7d4fcf,18.09530738,16.88857285,17.35356,16.72039546,16.69781798,16.88857285,,,,,,,,,,,,,,,,,,,,PF,weak,3,,,,,,,,5,1.72337,,,,,,,,,,,,,,,,,,,,,,,,,,,9,weak,100,-36,1,0,0,response3disk,3,102,-5,7,1,0,0,rectangle,-5,7,1,0,0,4,7,0.002525,-5,7,1,0,0,0,101,101,119,1,0,,,,,,,,,,,,,,,,,,,,,
,,,,,,,,,,,,,,,,,,,,,,,,,,,,,,,,,,,,,,,,,,60480c2fe7f49a1419ca1cf1,606c0eae442b8c99a7f27c15,2021-04-06_02h35.30.783,Colour_Similarity_Experiment,2020.2.10,Win32,60,6067542a4a25243f4d7d4fcf,18.09530738,16.88857285,17.35356,16.72039546,16.69781798,16.88857285,,,,,,,,,,,,,,,,,,,,PF,weak,3,,,,,,,,1,1.31365,,,,,,,,,,,,,,,,,,,,,,,,,,,6,weak,-84,31,1,0,0,response7disk,6,103,-3,2,1,0,0,rectangle,-3,2,1,0,0,4,4,0.002305,-3,2,1,0,0,0,102,102,0,1,0,,,,,,,,,,,,,,,,,,,,,
,,,,,,,,,,,,,,,,,,,,,,,,,,,,,,,,,,,,,,,,,,60480c2fe7f49a1419ca1cf1,606c0eae442b8c99a7f27c15,2021-04-06_02h35.30.783,Colour_Similarity_Experiment,2020.2.10,Win32,60,6067542a4a25243f4d7d4fcf,18.09530738,16.88857285,17.35356,16.72039546,16.69781798,16.88857285,,,,,,,,,,,,,,,,,,,,PF,strong,3,,,,,,,,4,4.73721,,,,,,,,,,,,,,,,,,,,,,,,,,,2,strong,59,-91,1,0,0,response3disk,9,104,-7,11,1,0,0,rectangle,-7,11,1,0,0,4,5,0.00252,-7,11,1,0,0,0,103,103,72,1,0,,,,,,,,,,,,,,,,,,,,,
,,,,,,,,,,,,,,,,,,,,,,,,,,,,,,,,,,,,,,,,,,60480c2fe7f49a1419ca1cf1,606c0eae442b8c99a7f27c15,2021-04-06_02h35.30.783,Colour_Similarity_Experiment,2020.2.10,Win32,60,6067542a4a25243f4d7d4fcf,18.09530738,16.88857285,17.35356,16.72039546,16.69781798,16.88857285,,,,,,,,,,,,,,,,,,,,PF,weak,3,,,,,,,,3,4.384365,,,,,,,,,,,,,,,,,,,,,,,,,,,9,weak,-43,-91,1,0,0,response5disk,1,105,-1,3,1,0,0,rectangle,-1,3,1,0,0,4,5,0.000295,-1,3,1,0,0,0,104,104,74,1,0,,,,,,,,,,,,,,,,,,,,,
,,,,,,,,,,,,,,,,,,,,,,,,,,,,,,,,,,,,,,,,,,60480c2fe7f49a1419ca1cf1,606c0eae442b8c99a7f27c15,2021-04-06_02h35.30.783,Colour_Similarity_Experiment,2020.2.10,Win32,60,6067542a4a25243f4d7d4fcf,18.09530738,16.88857285,17.35356,16.72039546,16.69781798,16.88857285,,,,,,,,,,,,,,,,,,,,PF,strong,3,,,,,,,,1,1.81845,,,,,,,,,,,,,,,,,,,,,,,,,,,1,strong,-75,35,1,0,0,response7disk,1,106,0,1,1,0,0,rectangle,0,1,1,0,0,4,1,0.00216,0,1,1,0,0,0,105,105,151,1,0,,,,,,,,,,,,,,,,,,,,,
,,,,,,,,,,,,,,,,,,,,,,,,,,,,,,,,,,,,,,,,,,60480c2fe7f49a1419ca1cf1,606c0eae442b8c99a7f27c15,2021-04-06_02h35.30.783,Colour_Similarity_Experiment,2020.2.10,Win32,60,6067542a4a25243f4d7d4fcf,18.09530738,16.88857285,17.35356,16.72039546,16.69781798,16.88857285,,,,,,,,,,,,,,,,,,,,PF,weak,3,,,,,,,,3,1.48662,,,,,,,,,,,,,,,,,,,,,,,,,,,3,weak,-44,-91,1,0,0,response5disk,4,107,0,9,1,0,0,rectangle,0,9,1,0,0,4,0,0.00168,0,9,1,0,0,0,106,106,30,1,0,,,,,,,,,,,,,,,,,,,,,
,,,,,,,,,,,,,,,,,,,,,,,,,,,,,,,,,,,,,,,,,,60480c2fe7f49a1419ca1cf1,606c0eae442b8c99a7f27c15,2021-04-06_02h35.30.783,Colour_Similarity_Experiment,2020.2.10,Win32,60,6067542a4a25243f4d7d4fcf,18.09530738,16.88857285,17.35356,16.72039546,16.69781798,16.88857285,,,,,,,,,,,,,,,,,,,,PF,strong,3,,,,,,,,5,4.68763,,,,,,,,,,,,,,,,,,,,,,,,,,,5,strong,75,-37,1,0,0,response3disk,8,108,7,1,1,0,0,rectangle,7,1,1,0,0,4,6,0.00141,7,1,1,0,0,0,107,107,16,1,0,,,,,,,,,,,,,,,,,,,,,
,,,,,,,,,,,,,,,,,,,,,,,,,,,,,,,,,,,,,,,,,,60480c2fe7f49a1419ca1cf1,606c0eae442b8c99a7f27c15,2021-04-06_02h35.30.783,Colour_Similarity_Experiment,2020.2.10,Win32,60,6067542a4a25243f4d7d4fcf,18.09530738,16.88857285,17.35356,16.72039546,16.69781798,16.88857285,,,,,,,,,,,,,,,,,,,,PF,strong,3,,,,,,,,5,3.835085,,,,,,,,,,,,,,,,,,,,,,,,,,,7,strong,84,-30,1,0,0,response3disk,3,109,-9,10,1,0,0,rectangle,-9,10,1,0,0,4,6,0.000205,-9,10,1,0,0,0,108,108,73,1,0,,,,,,,,,,,,,,,,,,,,,
,,,,,,,,,,,,,,,,,,,,,,,,,,,,,,,,,,,,,,,,,,60480c2fe7f49a1419ca1cf1,606c0eae442b8c99a7f27c15,2021-04-06_02h35.30.783,Colour_Similarity_Experiment,2020.2.10,Win32,60,6067542a4a25243f4d7d4fcf,18.09530738,16.88857285,17.35356,16.72039546,16.69781798,16.88857285,,,,,,,,,,,,,,,,,,,,PF,strong,3,,,,,,,,3,4.202165,,,,,,,,,,,,,,,,,,,,,,,,,,,1,strong,-46,-83,1,0,0,response5disk,9,110,0,3,1,0,0,rectangle,0,3,1,0,0,4,3,0.002775,0,3,1,0,0,0,109,109,123,1,0,,,,,,,,,,,,,,,,,,,,,
,,,,,,,,,,,,,,,,,,,,,,,,,,,,,,,,,,,,,,,,,,60480c2fe7f49a1419ca1cf1,606c0eae442b8c99a7f27c15,2021-04-06_02h35.30.783,Colour_Similarity_Experiment,2020.2.10,Win32,60,6067542a4a25243f4d7d4fcf,18.09530738,16.88857285,17.35356,16.72039546,16.69781798,16.88857285,,,,,,,,,,,,,,,,,,,,PF,weak,3,,,,,,,,2,1.41598,,,,,,,,,,,,,,,,,,,,,,,,,,,1,weak,-83,-52,1,0,0,response5disk,9,111,-5,-3,1,0,0,rectangle,-5,-3,1,0,0,4,7,0.002125,-5,-3,1,0,0,0,110,110,15,1,0,,,,,,,,,,,,,,,,,,,,,
,,,,,,,,,,,,,,,,,,,,,,,,,,,,,,,,,,,,,,,,,,60480c2fe7f49a1419ca1cf1,606c0eae442b8c99a7f27c15,2021-04-06_02h35.30.783,Colour_Similarity_Experiment,2020.2.10,Win32,60,6067542a4a25243f4d7d4fcf,18.09530738,16.88857285,17.35356,16.72039546,16.69781798,16.88857285,,,,,,,,,,,,,,,,,,,,PF,weak,3,,,,,,,,1,1.219125,,,,,,,,,,,,,,,,,,,,,,,,,,,7,weak,-77,45,1,0,0,response7disk,7,112,-6,3,1,0,0,rectangle,-6,3,1,0,0,4,0,0.002205,-6,3,1,0,0,0,111,111,51,1,0,,,,,,,,,,,,,,,,,,,,,
,,,,,,,,,,,,,,,,,,,,,,,,,,,,,,,,,,,,,,,,,,60480c2fe7f49a1419ca1cf1,606c0eae442b8c99a7f27c15,2021-04-06_02h35.30.783,Colour_Similarity_Experiment,2020.2.10,Win32,60,6067542a4a25243f4d7d4fcf,18.09530738,16.88857285,17.35356,16.72039546,16.69781798,16.88857285,,,,,,,,,,,,,,,,,,,,PF,weak,3,,,,,,,,5,5.05326,,,,,,,,,,,,,,,,,,,,,,,,,,,2,weak,87,-32,1,0,0,response3disk,5,113,-3,9,1,0,0,rectangle,-3,9,1,0,0,4,0,0.000135,-3,9,1,0,0,0,112,112,147,1,0,,,,,,,,,,,,,,,,,,,,,
,,,,,,,,,,,,,,,,,,,,,,,,,,,,,,,,,,,,,,,,,,60480c2fe7f49a1419ca1cf1,606c0eae442b8c99a7f27c15,2021-04-06_02h35.30.783,Colour_Similarity_Experiment,2020.2.10,Win32,60,6067542a4a25243f4d7d4fcf,18.09530738,16.88857285,17.35356,16.72039546,16.69781798,16.88857285,,,,,,,,,,,,,,,,,,,,PF,strong,3,,,,,,,,6,1.537425,,,,,,,,,,,,,,,,,,,,,,,,,,,5,strong,93,40,1,0,0,response1disk,9,114,-7,0,1,0,0,rectangle,-7,0,1,0,0,4,3,0.002045,-7,0,1,0,0,0,113,113,61,1,0,,,,,,,,,,,,,,,,,,,,,
,,,,,,,,,,,,,,,,,,,,,,,,,,,,,,,,,,,,,,,,,,60480c2fe7f49a1419ca1cf1,606c0eae442b8c99a7f27c15,2021-04-06_02h35.30.783,Colour_Similarity_Experiment,2020.2.10,Win32,60,6067542a4a25243f4d7d4fcf,18.09530738,16.88857285,17.35356,16.72039546,16.69781798,16.88857285,,,,,,,,,,,,,,,,,,,,PF,strong,3,,,,,,,,3,2.4003,,,,,,,,,,,,,,,,,,,,,,,,,,,6,strong,-22,-99,1,0,0,response5disk,4,115,-4,2,1,0,0,rectangle,-4,2,1,0,0,4,6,0.002045,-4,2,1,0,0,0,114,114,56,1,0,,,,,,,,,,,,,,,,,,,,,
,,,,,,,,,,,,,,,,,,,,,,,,,,,,,,,,,,,,,,,,,,60480c2fe7f49a1419ca1cf1,606c0eae442b8c99a7f27c15,2021-04-06_02h35.30.783,Colour_Similarity_Experiment,2020.2.10,Win32,60,6067542a4a25243f4d7d4fcf,18.09530738,16.88857285,17.35356,16.72039546,16.69781798,16.88857285,,,,,,,,,,,,,,,,,,,,PF,strong,3,,,,,,,,4,9.97568,,,,,,,,,,,,,,,,,,,,,,,,,,,1,strong,42,-71,1,0,0,response3disk,2,116,-2,9,1,0,0,rectangle,-2,9,1,0,0,4,2,0.002325,-2,9,1,0,0,0,115,115,2,1,0,,,,,,,,,,,,,,,,,,,,,
,,,,,,,,,,,,,,,,,,,,,,,,,,,,,,,,,,,,,,,,,,60480c2fe7f49a1419ca1cf1,606c0eae442b8c99a7f27c15,2021-04-06_02h35.30.783,Colour_Similarity_Experiment,2020.2.10,Win32,60,6067542a4a25243f4d7d4fcf,18.09530738,16.88857285,17.35356,16.72039546,16.69781798,16.88857285,,,,,,,,,,,,,,,,,,,,PF,weak,3,,,,,,,,4,2.0324,,,,,,,,,,,,,,,,,,,,,,,,,,,8,weak,51,-84,1,0,0,response3disk,5,117,-3,10,1,0,0,rectangle,-3,10,1,0,0,4,2,0.000395,-3,10,1,0,0,0,116,116,98,1,0,,,,,,,,,,,,,,,,,,,,,
,,,,,,,,,,,,,,,,,,,,,,,,,,,,,,,,,,,,,,,,,,60480c2fe7f49a1419ca1cf1,606c0eae442b8c99a7f27c15,2021-04-06_02h35.30.783,Colour_Similarity_Experiment,2020.2.10,Win32,60,6067542a4a25243f4d7d4fcf,18.09530738,16.88857285,17.35356,16.72039546,16.69781798,16.88857285,,,,,,,,,,,,,,,,,,,,PF,strong,3,,,,,,,,5,1.54841,,,,,,,,,,,,,,,,,,,,,,,,,,,3,strong,88,-29,1,0,0,response3disk,7,118,-5,5,1,0,0,rectangle,-5,5,1,0,0,4,4,0.00333,-5,5,1,0,0,0,117,117,118,1,0,,,,,,,,,,,,,,,,,,,,,
,,,,,,,,,,,,,,,,,,,,,,,,,,,,,,,,,,,,,,,,,,60480c2fe7f49a1419ca1cf1,606c0eae442b8c99a7f27c15,2021-04-06_02h35.30.783,Colour_Similarity_Experiment,2020.2.10,Win32,60,6067542a4a25243f4d7d4fcf,18.09530738,16.88857285,17.35356,16.72039546,16.69781798,16.88857285,,,,,,,,,,,,,,,,,,,,PF,strong,3,,,,,,,,6,4.072725,,,,,,,,,,,,,,,,,,,,,,,,,,,4,strong,89,31,1,0,0,response1disk,7,119,-11,2,1,0,0,rectangle,-11,2,1,0,0,4,5,0.001375,-11,2,1,0,0,0,118,118,87,1,0,,,,,,,,,,,,,,,,,,,,,
,,,,,,,,,,,,,,,,,,,,,,,,,,,,,,,,,,,,,,,,,,60480c2fe7f49a1419ca1cf1,606c0eae442b8c99a7f27c15,2021-04-06_02h35.30.783,Colour_Similarity_Experiment,2020.2.10,Win32,60,6067542a4a25243f4d7d4fcf,18.09530738,16.88857285,17.35356,16.72039546,16.69781798,16.88857285,,,,,,,,,,,,,,,,,,,,PF,strong,3,,,,,,,,7,1.73552,,,,,,,,,,,,,,,,,,,,,,,,,,,4,strong,44,88,1,0,0,response1disk,1,120,-4,-5,1,0,0,rectangle,-4,-5,1,0,0,4,6,0.00236,-4,-5,1,0,0,0,119,119,102,1,0,,,,,,,,,,,,,,,,,,,,,
,,,,,,,,,,,,,,,,,,,,,,,,,,,,,,,,,,,,,,,,,,60480c2fe7f49a1419ca1cf1,606c0eae442b8c99a7f27c15,2021-04-06_02h35.30.783,Colour_Similarity_Experiment,2020.2.10,Win32,60,6067542a4a25243f4d7d4fcf,18.09530738,16.88857285,17.35356,16.72039546,16.69781798,16.88857285,,,,,,,,,,,,,,,,,,,,PF,weak,3,,,,,,,,7,1.093985,,,,,,,,,,,,,,,,,,,,,,,,,,,1,weak,40,83,1,0,0,response1disk,4,121,-2,-3,1,0,0,rectangle,-2,-3,1,0,0,4,5,0.002165,-2,-3,1,0,0,0,120,120,139,1,0,,,,,,,,,,,,,,,,,,,,,
,,,,,,,,,,,,,,,,,,,,,,,,,,,,,,,,,,,,,,,,,,60480c2fe7f49a1419ca1cf1,606c0eae442b8c99a7f27c15,2021-04-06_02h35.30.783,Colour_Similarity_Experiment,2020.2.10,Win32,60,6067542a4a25243f4d7d4fcf,18.09530738,16.88857285,17.35356,16.72039546,16.69781798,16.88857285,,,,,,,,,,,,,,,,,,,,PF,weak,3,,,,,,,,6,1.428835,,,,,,,,,,,,,,,,,,,,,,,,,,,9,weak,65,42,1,0,0,response1disk,6,122,-9,0,1,0,0,rectangle,-9,0,1,0,0,4,1,0.0014,-9,0,1,0,0,0,121,121,148,1,0,,,,,,,,,,,,,,,,,,,,,
,,,,,,,,,,,,,,,,,,,,,,,,,,,,,,,,,,,,,,,,,,60480c2fe7f49a1419ca1cf1,606c0eae442b8c99a7f27c15,2021-04-06_02h35.30.783,Colour_Similarity_Experiment,2020.2.10,Win32,60,6067542a4a25243f4d7d4fcf,18.09530738,16.88857285,17.35356,16.72039546,16.69781798,16.88857285,,,,,,,,,,,,,,,,,,,,PF,weak,3,,,,,,,,4,2.225285,,,,,,,,,,,,,,,,,,,,,,,,,,,9,weak,27,-83,1,0,0,response3disk,8,123,2,6,1,0,0,rectangle,2,6,1,0,0,4,5,0.00177,2,6,1,0,0,0,122,122,67,1,0,,,,,,,,,,,,,,,,,,,,,
,,,,,,,,,,,,,,,,,,,,,,,,,,,,,,,,,,,,,,,,,,60480c2fe7f49a1419ca1cf1,606c0eae442b8c99a7f27c15,2021-04-06_02h35.30.783,Colour_Similarity_Experiment,2020.2.10,Win32,60,6067542a4a25243f4d7d4fcf,18.09530738,16.88857285,17.35356,16.72039546,16.69781798,16.88857285,,,,,,,,,,,,,,,,,,,,PF,strong,3,,,,,,,,5,7.70814,,,,,,,,,,,,,,,,,,,,,,,,,,,6,strong,95,-27,1,0,0,response3disk,8,124,-2,15,1,0,0,rectangle,-2,15,1,0,0,4,1,0.001745,-2,15,1,0,0,0,123,123,133,1,0,,,,,,,,,,,,,,,,,,,,,
,,,,,,,,,,,,,,,,,,,,,,,,,,,,,,,,,,,,,,,,,,60480c2fe7f49a1419ca1cf1,606c0eae442b8c99a7f27c15,2021-04-06_02h35.30.783,Colour_Similarity_Experiment,2020.2.10,Win32,60,6067542a4a25243f4d7d4fcf,18.09530738,16.88857285,17.35356,16.72039546,16.69781798,16.88857285,,,,,,,,,,,,,,,,,,,,PF,weak,3,,,,,,,,5,1.301225,,,,,,,,,,,,,,,,,,,,,,,,,,,6,weak,101,-52,1,0,0,response3disk,2,125,-9,8,1,0,0,rectangle,-9,8,1,0,0,4,7,0.001535,-9,8,1,0,0,0,124,124,130,1,0,,,,,,,,,,,,,,,,,,,,,
,,,,,,,,,,,,,,,,,,,,,,,,,,,,,,,,,,,,,,,,,,60480c2fe7f49a1419ca1cf1,606c0eae442b8c99a7f27c15,2021-04-06_02h35.30.783,Colour_Similarity_Experiment,2020.2.10,Win32,60,6067542a4a25243f4d7d4fcf,18.09530738,16.88857285,17.35356,16.72039546,16.69781798,16.88857285,,,,,,,,,,,,,,,,,,,,PF,weak,3,,,,,,,,3,1.43627,,,,,,,,,,,,,,,,,,,,,,,,,,,6,weak,-47,-84,1,0,0,response5disk,7,126,-9,3,1,0,0,rectangle,-9,3,1,0,0,4,1,0.003925,-9,3,1,0,0,0,125,125,50,1,0,,,,,,,,,,,,,,,,,,,,,
,,,,,,,,,,,,,,,,,,,,,,,,,,,,,,,,,,,,,,,,,,60480c2fe7f49a1419ca1cf1,606c0eae442b8c99a7f27c15,2021-04-06_02h35.30.783,Colour_Similarity_Experiment,2020.2.10,Win32,60,6067542a4a25243f4d7d4fcf,18.09530738,16.88857285,17.35356,16.72039546,16.69781798,16.88857285,,,,,,,,,,,,,,,,,,,,PF,strong,3,,,,,,,,3,1.36465,,,,,,,,,,,,,,,,,,,,,,,,,,,6,strong,-50,-79,1,0,0,response5disk,7,127,2,4,1,0,0,rectangle,2,4,1,0,0,4,7,0.00183,2,4,1,0,0,0,126,126,18,1,0,,,,,,,,,,,,,,,,,,,,,
,,,,,,,,,,,,,,,,,,,,,,,,,,,,,,,,,,,,,,,,,,60480c2fe7f49a1419ca1cf1,606c0eae442b8c99a7f27c15,2021-04-06_02h35.30.783,Colour_Similarity_Experiment,2020.2.10,Win32,60,6067542a4a25243f4d7d4fcf,18.09530738,16.88857285,17.35356,16.72039546,16.69781798,16.88857285,,,,,,,,,,,,,,,,,,,,PF,strong,3,,,,,,,,5,1.75977,,,,,,,,,,,,,,,,,,,,,,,,,,,8,strong,72,-48,1,0,0,response3disk,5,128,-1,2,1,0,0,rectangle,-1,2,1,0,0,4,7,0.000335,-1,2,1,0,0,0,127,127,152,1,0,,,,,,,,,,,,,,,,,,,,,
,,,,,,,,,,,,,,,,,,,,,,,,,,,,,,,,,,,,,,,,,,60480c2fe7f49a1419ca1cf1,606c0eae442b8c99a7f27c15,2021-04-06_02h35.30.783,Colour_Similarity_Experiment,2020.2.10,Win32,60,6067542a4a25243f4d7d4fcf,18.09530738,16.88857285,17.35356,16.72039546,16.69781798,16.88857285,,,,,,,,,,,,,,,,,,,,PF,strong,3,,,,,,,,4,1.894465,,,,,,,,,,,,,,,,,,,,,,,,,,,6,strong,23,-84,1,0,0,response3disk,3,129,-8,5,1,0,0,rectangle,-8,5,1,0,0,4,6,0.003005,-8,5,1,0,0,0,128,128,21,1,0,,,,,,,,,,,,,,,,,,,,,
,,,,,,,,,,,,,,,,,,,,,,,,,,,,,,,,,,,,,,,,,,60480c2fe7f49a1419ca1cf1,606c0eae442b8c99a7f27c15,2021-04-06_02h35.30.783,Colour_Similarity_Experiment,2020.2.10,Win32,60,6067542a4a25243f4d7d4fcf,18.09530738,16.88857285,17.35356,16.72039546,16.69781798,16.88857285,,,,,,,,,,,,,,,,,,,,PF,weak,3,,,,,,,,4,1.87903,,,,,,,,,,,,,,,,,,,,,,,,,,,6,weak,43,-84,1,0,0,response3disk,4,130,-6,4,1,0,0,rectangle,-6,4,1,0,0,4,3,0.00178,-6,4,1,0,0,0,129,129,33,1,0,,,,,,,,,,,,,,,,,,,,,
,,,,,,,,,,,,,,,,,,,,,,,,,,,,,,,,,,,,,,,,,,60480c2fe7f49a1419ca1cf1,606c0eae442b8c99a7f27c15,2021-04-06_02h35.30.783,Colour_Similarity_Experiment,2020.2.10,Win32,60,6067542a4a25243f4d7d4fcf,18.09530738,16.88857285,17.35356,16.72039546,16.69781798,16.88857285,,,,,,,,,,,,,,,,,,,,PF,strong,3,,,,,,,,5,5.32939,,,,,,,,,,,,,,,,,,,,,,,,,,,9,strong,76,-38,1,0,0,response3disk,6,131,-1,11,1,0,0,rectangle,-1,11,1,0,0,4,0,0.00392,-1,11,1,0,0,0,130,130,117,1,0,,,,,,,,,,,,,,,,,,,,,
,,,,,,,,,,,,,,,,,,,,,,,,,,,,,,,,,,,,,,,,,,60480c2fe7f49a1419ca1cf1,606c0eae442b8c99a7f27c15,2021-04-06_02h35.30.783,Colour_Similarity_Experiment,2020.2.10,Win32,60,6067542a4a25243f4d7d4fcf,18.09530738,16.88857285,17.35356,16.72039546,16.69781798,16.88857285,,,,,,,,,,,,,,,,,,,,PF,strong,3,,,,,,,,3,1.143575,,,,,,,,,,,,,,,,,,,,,,,,,,,7,strong,-41,-102,1,0,0,response5disk,8,132,3,-7,1,0,0,rectangle,51,92,1,0,0,7,7,3.31436,0,3,1,0,0,0,131,131,97,1,1,response1disk_3,rectangle,,,,,,,,,,,,,,,,,,,
,,,,,,,,,,,,,,,,,,,,,,,,,,,,,,,,,,,,,,,,,,60480c2fe7f49a1419ca1cf1,606c0eae442b8c99a7f27c15,2021-04-06_02h35.30.783,Colour_Similarity_Experiment,2020.2.10,Win32,60,6067542a4a25243f4d7d4fcf,18.09530738,16.88857285,17.35356,16.72039546,16.69781798,16.88857285,,,,,,,,,,,,,,,,,,,,PF,strong,3,,,,,,,,5,1.08166,,,,,,,,,,,,,,,,,,,,,,,,,,,1,strong,119,-42,1,0,0,response3disk,6,133,-5,4,1,0,0,rectangle,-5,4,1,0,0,7,3,0.00274,-5,4,1,0,0,0,132,132,58,1,0,,,,,,,,,,,,,,,,,,,,,
,,,,,,,,,,,,,,,,,,,,,,,,,,,,,,,,,,,,,,,,,,60480c2fe7f49a1419ca1cf1,606c0eae442b8c99a7f27c15,2021-04-06_02h35.30.783,Colour_Similarity_Experiment,2020.2.10,Win32,60,6067542a4a25243f4d7d4fcf,18.09530738,16.88857285,17.35356,16.72039546,16.69781798,16.88857285,,,,,,,,,,,,,,,,,,,,PF,strong,3,,,,,,,,5,4.28562,,,,,,,,,,,,,,,,,,,,,,,,,,,8,strong,106,-34,1,0,0,response3disk,4,134,-5,4,1,0,0,rectangle,-5,4,1,0,0,7,4,0.001575,-5,4,1,0,0,0,133,133,88,1,0,,,,,,,,,,,,,,,,,,,,,
,,,,,,,,,,,,,,,,,,,,,,,,,,,,,,,,,,,,,,,,,,60480c2fe7f49a1419ca1cf1,606c0eae442b8c99a7f27c15,2021-04-06_02h35.30.783,Colour_Similarity_Experiment,2020.2.10,Win32,60,6067542a4a25243f4d7d4fcf,18.09530738,16.88857285,17.35356,16.72039546,16.69781798,16.88857285,,,,,,,,,,,,,,,,,,,,PF,weak,3,,,,,,,,4,1.9279,,,,,,,,,,,,,,,,,,,,,,,,,,,4,weak,49,-78,1,0,0,response3disk,7,135,-2,5,1,0,0,rectangle,-2,5,1,0,0,7,7,0.00221,-2,5,1,0,0,0,134,134,38,1,0,,,,,,,,,,,,,,,,,,,,,
,,,,,,,,,,,,,,,,,,,,,,,,,,,,,,,,,,,,,,,,,,60480c2fe7f49a1419ca1cf1,606c0eae442b8c99a7f27c15,2021-04-06_02h35.30.783,Colour_Similarity_Experiment,2020.2.10,Win32,60,6067542a4a25243f4d7d4fcf,18.09530738,16.88857285,17.35356,16.72039546,16.69781798,16.88857285,,,,,,,,,,,,,,,,,,,,PF,strong,3,,,,,,,,5,1.820155,,,,,,,,,,,,,,,,,,,,,,,,,,,3,strong,80,-34,1,0,0,response3disk,1,136,-3,6,1,0,0,rectangle,-3,6,1,0,0,7,2,0.0017,-3,6,1,0,0,0,135,135,125,1,0,,,,,,,,,,,,,,,,,,,,,
,,,,,,,,,,,,,,,,,,,,,,,,,,,,,,,,,,,,,,,,,,60480c2fe7f49a1419ca1cf1,606c0eae442b8c99a7f27c15,2021-04-06_02h35.30.783,Colour_Similarity_Experiment,2020.2.10,Win32,60,6067542a4a25243f4d7d4fcf,18.09530738,16.88857285,17.35356,16.72039546,16.69781798,16.88857285,,,,,,,,,,,,,,,,,,,,PF,weak,3,,,,,,,,6,1.60928,,,,,,,,,,,,,,,,,,,,,,,,,,,6,weak,96,40,1,0,0,response1disk,1,137,-2,-1,1,0,0,rectangle,-2,-1,1,0,0,7,6,0.00131,-2,-1,1,0,0,0,136,136,46,1,0,,,,,,,,,,,,,,,,,,,,,
,,,,,,,,,,,,,,,,,,,,,,,,,,,,,,,,,,,,,,,,,,60480c2fe7f49a1419ca1cf1,606c0eae442b8c99a7f27c15,2021-04-06_02h35.30.783,Colour_Similarity_Experiment,2020.2.10,Win32,60,6067542a4a25243f4d7d4fcf,18.09530738,16.88857285,17.35356,16.72039546,16.69781798,16.88857285,,,,,,,,,,,,,,,,,,,,PF,strong,3,,,,,,,,7,1.816225,,,,,,,,,,,,,,,,,,,,,,,,,,,2,strong,55,104,1,0,0,response1disk,7,138,-4,1,1,0,0,rectangle,-4,1,1,0,0,7,1,0.00219,-4,1,1,0,0,0,137,137,63,1,0,,,,,,,,,,,,,,,,,,,,,
,,,,,,,,,,,,,,,,,,,,,,,,,,,,,,,,,,,,,,,,,,60480c2fe7f49a1419ca1cf1,606c0eae442b8c99a7f27c15,2021-04-06_02h35.30.783,Colour_Similarity_Experiment,2020.2.10,Win32,60,6067542a4a25243f4d7d4fcf,18.09530738,16.88857285,17.35356,16.72039546,16.69781798,16.88857285,,,,,,,,,,,,,,,,,,,,PF,weak,3,,,,,,,,6,2.899905,,,,,,,,,,,,,,,,,,,,,,,,,,,9,weak,89,32,1,0,0,response1disk,7,139,-4,2,1,0,0,rectangle,-4,2,1,0,0,7,7,0.00173,-4,2,1,0,0,0,138,138,121,1,0,,,,,,,,,,,,,,,,,,,,,
,,,,,,,,,,,,,,,,,,,,,,,,,,,,,,,,,,,,,,,,,,60480c2fe7f49a1419ca1cf1,606c0eae442b8c99a7f27c15,2021-04-06_02h35.30.783,Colour_Similarity_Experiment,2020.2.10,Win32,60,6067542a4a25243f4d7d4fcf,18.09530738,16.88857285,17.35356,16.72039546,16.69781798,16.88857285,,,,,,,,,,,,,,,,,,,,PF,weak,3,,,,,,,,7,1.78281,,,,,,,,,,,,,,,,,,,,,,,,,,,3,weak,69,91,1,0,0,response1disk,9,140,0,0,1,0,0,rectangle,0,0,1,0,0,7,1,0.00281,0,0,1,0,0,0,139,139,79,1,0,,,,,,,,,,,,,,,,,,,,,
,,,,,,,,,,,,,,,,,,,,,,,,,,,,,,,,,,,,,,,,,,60480c2fe7f49a1419ca1cf1,606c0eae442b8c99a7f27c15,2021-04-06_02h35.30.783,Colour_Similarity_Experiment,2020.2.10,Win32,60,6067542a4a25243f4d7d4fcf,18.09530738,16.88857285,17.35356,16.72039546,16.69781798,16.88857285,,,,,,,,,,,,,,,,,,,,PF,strong,3,,,,,,,,7,1.583585,,,,,,,,,,,,,,,,,,,,,,,,,,,5,strong,69,89,1,0,0,response1disk,1,141,3,-2,1,0,0,rectangle,3,-2,1,0,0,7,3,0.00371,3,-2,1,0,0,0,140,140,131,1,0,,,,,,,,,,,,,,,,,,,,,
,,,,,,,,,,,,,,,,,,,,,,,,,,,,,,,,,,,,,,,,,,60480c2fe7f49a1419ca1cf1,606c0eae442b8c99a7f27c15,2021-04-06_02h35.30.783,Colour_Similarity_Experiment,2020.2.10,Win32,60,6067542a4a25243f4d7d4fcf,18.09530738,16.88857285,17.35356,16.72039546,16.69781798,16.88857285,,,,,,,,,,,,,,,,,,,,PF,strong,3,,,,,,,,5,1.48171,,,,,,,,,,,,,,,,,,,,,,,,,,,4,strong,95,-64,1,0,0,response3disk,6,142,-4,6,1,0,0,rectangle,-4,6,1,0,0,7,5,0.00396,-4,6,1,0,0,0,141,141,122,1,0,,,,,,,,,,,,,,,,,,,,,
,,,,,,,,,,,,,,,,,,,,,,,,,,,,,,,,,,,,,,,,,,60480c2fe7f49a1419ca1cf1,606c0eae442b8c99a7f27c15,2021-04-06_02h35.30.783,Colour_Similarity_Experiment,2020.2.10,Win32,60,6067542a4a25243f4d7d4fcf,18.09530738,16.88857285,17.35356,16.72039546,16.69781798,16.88857285,,,,,,,,,,,,,,,,,,,,PF,weak,3,,,,,,,,3,3.682865,,,,,,,,,,,,,,,,,,,,,,,,,,,1,weak,-54,-87,1,0,0,response5disk,2,143,0,4,1,0,0,rectangle,0,4,1,0,0,7,2,0.002945,0,4,1,0,0,0,142,142,24,1,0,,,,,,,,,,,,,,,,,,,,,
,,,,,,,,,,,,,,,,,,,,,,,,,,,,,,,,,,,,,,,,,,60480c2fe7f49a1419ca1cf1,606c0eae442b8c99a7f27c15,2021-04-06_02h35.30.783,Colour_Similarity_Experiment,2020.2.10,Win32,60,6067542a4a25243f4d7d4fcf,18.09530738,16.88857285,17.35356,16.72039546,16.69781798,16.88857285,,,,,,,,,,,,,,,,,,,,PF,weak,3,,,,,,,,6,1.974135,,,,,,,,,,,,,,,,,,,,,,,,,,,7,weak,90,39,1,0,0,response1disk,2,144,-4,-1,1,0,0,rectangle,-4,-1,1,0,0,7,4,0.005095,-4,-1,1,0,0,0,143,143,32,1,0,,,,,,,,,,,,,,,,,,,,,
,,,,,,,,,,,,,,,,,,,,,,,,,,,,,,,,,,,,,,,,,,60480c2fe7f49a1419ca1cf1,606c0eae442b8c99a7f27c15,2021-04-06_02h35.30.783,Colour_Similarity_Experiment,2020.2.10,Win32,60,6067542a4a25243f4d7d4fcf,18.09530738,16.88857285,17.35356,16.72039546,16.69781798,16.88857285,,,,,,,,,,,,,,,,,,,,PF,strong,3,,,,,,,,1,1.24492,,,,,,,,,,,,,,,,,,,,,,,,,,,5,strong,-63,32,1,0,0,response7disk,5,145,-12,0,1,0,0,rectangle,-12,0,1,0,0,7,5,0.004095,-12,0,1,0,0,0,144,144,19,1,0,,,,,,,,,,,,,,,,,,,,,
,,,,,,,,,,,,,,,,,,,,,,,,,,,,,,,,,,,,,,,,,,60480c2fe7f49a1419ca1cf1,606c0eae442b8c99a7f27c15,2021-04-06_02h35.30.783,Colour_Similarity_Experiment,2020.2.10,Win32,60,6067542a4a25243f4d7d4fcf,18.09530738,16.88857285,17.35356,16.72039546,16.69781798,16.88857285,,,,,,,,,,,,,,,,,,,,PF,strong,3,,,,,,,,5,4.96602,,,,,,,,,,,,,,,,,,,,,,,,,,,2,strong,97,-56,1,0,0,response3disk,4,146,-2,-1,1,0,0,rectangle,-2,-1,1,0,0,7,5,0.00024,-2,-1,1,0,0,0,145,145,145,1,0,,,,,,,,,,,,,,,,,,,,,
,,,,,,,,,,,,,,,,,,,,,,,,,,,,,,,,,,,,,,,,,,60480c2fe7f49a1419ca1cf1,606c0eae442b8c99a7f27c15,2021-04-06_02h35.30.783,Colour_Similarity_Experiment,2020.2.10,Win32,60,6067542a4a25243f4d7d4fcf,18.09530738,16.88857285,17.35356,16.72039546,16.69781798,16.88857285,,,,,,,,,,,,,,,,,,,,PF,strong,3,,,,,,,,2,1.354575,,,,,,,,,,,,,,,,,,,,,,,,,,,4,strong,-70,-39,1,0,0,response5disk,5,147,-13,1,1,0,0,rectangle,-13,1,1,0,0,7,0,0.00142,-13,1,1,0,0,0,146,146,116,1,0,,,,,,,,,,,,,,,,,,,,,
,,,,,,,,,,,,,,,,,,,,,,,,,,,,,,,,,,,,,,,,,,60480c2fe7f49a1419ca1cf1,606c0eae442b8c99a7f27c15,2021-04-06_02h35.30.783,Colour_Similarity_Experiment,2020.2.10,Win32,60,6067542a4a25243f4d7d4fcf,18.09530738,16.88857285,17.35356,16.72039546,16.69781798,16.88857285,,,,,,,,,,,,,,,,,,,,PF,weak,3,,,,,,,,6,1.582835,,,,,,,,,,,,,,,,,,,,,,,,,,,6,weak,74,32,1,0,0,response1disk,9,148,-14,-7,1,0,0,rectangle,-14,-7,1,0,0,7,5,0.0019,-14,-7,1,0,0,0,147,147,45,1,0,,,,,,,,,,,,,,,,,,,,,
,,,,,,,,,,,,,,,,,,,,,,,,,,,,,,,,,,,,,,,,,,60480c2fe7f49a1419ca1cf1,606c0eae442b8c99a7f27c15,2021-04-06_02h35.30.783,Colour_Similarity_Experiment,2020.2.10,Win32,60,6067542a4a25243f4d7d4fcf,18.09530738,16.88857285,17.35356,16.72039546,16.69781798,16.88857285,,,,,,,,,,,,,,,,,,,,PF,weak,3,,,,,,,,4,2.87274,,,,,,,,,,,,,,,,,,,,,,,,,,,5,weak,60,-88,1,0,0,response3disk,8,149,5,-10,1,0,0,rectangle,5,-10,1,0,0,7,1,0.00149,5,-10,1,0,0,0,148,148,149,1,0,,,,,,,,,,,,,,,,,,,,,
,,,,,,,,,,,,,,,,,,,,,,,,,,,,,,,,,,,,,,,,,,60480c2fe7f49a1419ca1cf1,606c0eae442b8c99a7f27c15,2021-04-06_02h35.30.783,Colour_Similarity_Experiment,2020.2.10,Win32,60,6067542a4a25243f4d7d4fcf,18.09530738,16.88857285,17.35356,16.72039546,16.69781798,16.88857285,,,,,,,,,,,,,,,,,,,,PF,weak,3,,,,,,,,4,3.445665,,,,,,,,,,,,,,,,,,,,,,,,,,,8,weak,46,-67,1,0,0,response3disk,6,150,-6,2,1,0,0,rectangle,84,24,1,0,0,6,6,2.11599,8,-6,1,0,0,0,149,149,161,1,1,response1disk_3,rectangle,,,,,,,,,,,,,,,,,,,
,,,,,,,,,,,,,,,,,,,,,,,,,,,,,,,,,,,,,,,,,,60480c2fe7f49a1419ca1cf1,606c0eae442b8c99a7f27c15,2021-04-06_02h35.30.783,Colour_Similarity_Experiment,2020.2.10,Win32,60,6067542a4a25243f4d7d4fcf,18.09530738,16.88857285,17.35356,16.72039546,16.69781798,16.88857285,,,,,,,,,,,,,,,,,,,,PF,strong,3,,,,,,,,3,1.979975,,,,,,,,,,,,,,,,,,,,,,,,,,,3,strong,-45,-90,1,0,0,response5disk,2,151,-1,1,1,0,0,rectangle,-1,1,1,0,0,6,6,0.00018,-1,1,1,0,0,0,150,150,93,1,0,,,,,,,,,,,,,,,,,,,,,
,,,,,,,,,,,,,,,,,,,,,,,,,,,,,,,,,,,,,,,,,,60480c2fe7f49a1419ca1cf1,606c0eae442b8c99a7f27c15,2021-04-06_02h35.30.783,Colour_Similarity_Experiment,2020.2.10,Win32,60,6067542a4a25243f4d7d4fcf,18.09530738,16.88857285,17.35356,16.72039546,16.69781798,16.88857285,,,,,,,,,,,,,,,,,,,,PF,weak,3,,,,,,,,3,1.193715,,,,,,,,,,,,,,,,,,,,,,,,,,,4,weak,-42,-66,1,0,0,response5disk,5,152,-10,2,1,0,0,rectangle,-10,2,1,0,0,6,2,0.003625,-10,2,1,0,0,0,151,151,49,1,0,,,,,,,,,,,,,,,,,,,,,
,,,,,,,,,,,,,,,,,,,,,,,,,,,,,,,,,,,,,,,,,,60480c2fe7f49a1419ca1cf1,606c0eae442b8c99a7f27c15,2021-04-06_02h35.30.783,Colour_Similarity_Experiment,2020.2.10,Win32,60,6067542a4a25243f4d7d4fcf,18.09530738,16.88857285,17.35356,16.72039546,16.69781798,16.88857285,,,,,,,,,,,,,,,,,,,,PF,strong,3,,,,,,,,3,1.125075,,,,,,,,,,,,,,,,,,,,,,,,,,,9,strong,-32,-70,1,0,0,response5disk,8,153,-4,-4,1,0,0,rectangle,-4,-4,1,0,0,6,1,0.00153,-4,-4,1,0,0,0,152,152,6,1,0,,,,,,,,,,,,,,,,,,,,,
,,,,,,,,,,,,,,,,,,,,,,,,,,,,,,,,,,,,,,,,,,60480c2fe7f49a1419ca1cf1,606c0eae442b8c99a7f27c15,2021-04-06_02h35.30.783,Colour_Similarity_Experiment,2020.2.10,Win32,60,6067542a4a25243f4d7d4fcf,18.09530738,16.88857285,17.35356,16.72039546,16.69781798,16.88857285,,,,,,,,,,,,,,,,,,,,PF,weak,3,,,,,,,,3,0.951455,,,,,,,,,,,,,,,,,,,,,,,,,,,3,weak,-41,-84,1,0,0,response5disk,5,154,3,8,1,0,0,rectangle,3,8,1,0,0,6,2,0.00186,3,8,1,0,0,0,153,153,66,1,0,,,,,,,,,,,,,,,,,,,,,
,,,,,,,,,,,,,,,,,,,,,,,,,,,,,,,,,,,,,,,,,,60480c2fe7f49a1419ca1cf1,606c0eae442b8c99a7f27c15,2021-04-06_02h35.30.783,Colour_Similarity_Experiment,2020.2.10,Win32,60,6067542a4a25243f4d7d4fcf,18.09530738,16.88857285,17.35356,16.72039546,16.69781798,16.88857285,,,,,,,,,,,,,,,,,,,,PF,weak,3,,,,,,,,5,1.01885,,,,,,,,,,,,,,,,,,,,,,,,,,,4,weak,54,-40,1,0,0,response3disk,2,155,-3,4,1,0,0,rectangle,-3,4,1,0,0,6,6,0.00281,-3,4,1,0,0,0,154,154,108,1,0,,,,,,,,,,,,,,,,,,,,,
,,,,,,,,,,,,,,,,,,,,,,,,,,,,,,,,,,,,,,,,,,60480c2fe7f49a1419ca1cf1,606c0eae442b8c99a7f27c15,2021-04-06_02h35.30.783,Colour_Similarity_Experiment,2020.2.10,Win32,60,6067542a4a25243f4d7d4fcf,18.09530738,16.88857285,17.35356,16.72039546,16.69781798,16.88857285,,,,,,,,,,,,,,,,,,,,PF,weak,3,,,,,,,,1,1.788465,,,,,,,,,,,,,,,,,,,,,,,,,,,8,weak,-87,39,1,0,0,response7disk,8,156,-11,-3,1,0,0,rectangle,-11,-3,1,0,0,6,5,0.00205,-11,-3,1,0,0,0,155,155,153,1,0,,,,,,,,,,,,,,,,,,,,,
,,,,,,,,,,,,,,,,,,,,,,,,,,,,,,,,,,,,,,,,,,60480c2fe7f49a1419ca1cf1,606c0eae442b8c99a7f27c15,2021-04-06_02h35.30.783,Colour_Similarity_Experiment,2020.2.10,Win32,60,6067542a4a25243f4d7d4fcf,18.09530738,16.88857285,17.35356,16.72039546,16.69781798,16.88857285,,,,,,,,,,,,,,,,,,,,PF,weak,3,,,,,,,,5,1.4646,,,,,,,,,,,,,,,,,,,,,,,,,,,1,weak,71,-44,1,0,0,response3disk,8,157,-5,2,1,0,0,rectangle,-5,2,1,0,0,6,1,0.00174,-5,2,1,0,0,0,156,156,65,1,0,,,,,,,,,,,,,,,,,,,,,
,,,,,,,,,,,,,,,,,,,,,,,,,,,,,,,,,,,,,,,,,,60480c2fe7f49a1419ca1cf1,606c0eae442b8c99a7f27c15,2021-04-06_02h35.30.783,Colour_Similarity_Experiment,2020.2.10,Win32,60,6067542a4a25243f4d7d4fcf,18.09530738,16.88857285,17.35356,16.72039546,16.69781798,16.88857285,,,,,,,,,,,,,,,,,,,,PF,strong,3,,,,,,,,2,1.54746,,,,,,,,,,,,,,,,,,,,,,,,,,,6,strong,-89,-39,1,0,0,response5disk,5,158,-6,1,1,0,0,rectangle,-6,1,1,0,0,6,7,0.00161,-6,1,1,0,0,0,157,157,126,1,0,,,,,,,,,,,,,,,,,,,,,
,,,,,,,,,,,,,,,,,,,,,,,,,,,,,,,,,,,,,,,,,,60480c2fe7f49a1419ca1cf1,606c0eae442b8c99a7f27c15,2021-04-06_02h35.30.783,Colour_Similarity_Experiment,2020.2.10,Win32,60,6067542a4a25243f4d7d4fcf,18.09530738,16.88857285,17.35356,16.72039546,16.69781798,16.88857285,,,,,,,,,,,,,,,,,,,,PF,weak,3,,,,,,,,5,4.074175,,,,,,,,,,,,,,,,,,,,,,,,,,,9,weak,99,-26,1,0,0,response3disk,4,159,-2,9,1,0,0,rectangle,-2,9,1,0,0,6,4,0.001935,-2,9,1,0,0,0,158,158,114,1,0,,,,,,,,,,,,,,,,,,,,,
,,,,,,,,,,,,,,,,,,,,,,,,,,,,,,,,,,,,,,,,,,60480c2fe7f49a1419ca1cf1,606c0eae442b8c99a7f27c15,2021-04-06_02h35.30.783,Colour_Similarity_Experiment,2020.2.10,Win32,60,6067542a4a25243f4d7d4fcf,18.09530738,16.88857285,17.35356,16.72039546,16.69781798,16.88857285,,,,,,,,,,,,,,,,,,,,PF,strong,3,,,,,,,,2,1.894755,,,,,,,,,,,,,,,,,,,,,,,,,,,5,strong,-69,-39,1,0,0,response5disk,6,160,12,4,1,0,0,rectangle,12,4,1,0,0,6,6,0.001695,12,4,1,0,0,0,159,159,12,1,0,,,,,,,,,,,,,,,,,,,,,
,,,,,,,,,,,,,,,,,,,,,,,,,,,,,,,,,,,,,,,,,,60480c2fe7f49a1419ca1cf1,606c0eae442b8c99a7f27c15,2021-04-06_02h35.30.783,Colour_Similarity_Experiment,2020.2.10,Win32,60,6067542a4a25243f4d7d4fcf,18.09530738,16.88857285,17.35356,16.72039546,16.69781798,16.88857285,,,,,,,,,,,,,,,,,,,,PF,strong,3,,,,,,,,2,1.459815,,,,,,,,,,,,,,,,,,,,,,,,,,,5,strong,-75,-38,1,0,0,response5disk,4,161,4,5,1,0,0,rectangle,4,5,1,0,0,6,7,0.001575,4,5,1,0,0,0,160,160,8,1,0,,,,,,,,,,,,,,,,,,,,,
,,,,,,,,,,,,,,,,,,,,,,,,,,,,,,,,,,,,,,,,,,60480c2fe7f49a1419ca1cf1,606c0eae442b8c99a7f27c15,2021-04-06_02h35.30.783,Colour_Similarity_Experiment,2020.2.10,Win32,60,6067542a4a25243f4d7d4fcf,18.09530738,16.88857285,17.35356,16.72039546,16.69781798,16.88857285,,,,,,,,,,,,,,,,,,,,PF,weak,3,,,,,,,,4,1.444575,,,,,,,,,,,,,,,,,,,,,,,,,,,8,weak,23,-92,1,0,0,response3disk,7,162,-7,-7,1,0,0,rectangle,-7,-7,1,0,0,6,6,0.00414,-7,-7,1,0,0,0,161,161,23,1,0,,,,,,,,,,,,,,,,,,,,,
,,,,,,,,,,,,,,,,,,,,,,,,,,,,,,,,,,,,,,,,,,60480c2fe7f49a1419ca1cf1,606c0eae442b8c99a7f27c15,2021-04-06_02h35.30.783,Colour_Similarity_Experiment,2020.2.10,Win32,60,6067542a4a25243f4d7d4fcf,18.09530738,16.88857285,17.35356,16.72039546,16.69781798,16.88857285,,,,,,,,,,,,,,,,,,,,,,,,,,,,,,,,,,,,,,,,,,,,,,,,,,,,,,,,,,,,,,,,,,,,,,,,,,,,,,,,,,,,,,,,,,,,,,,0,0,0,0,1,,,,,,,,,,,,,,
,,,,,,,,,,,,,,,,,,,,,,,,,,,,,,,,,,,,,,,,,,60480c2fe7f49a1419ca1cf1,606c0eae442b8c99a7f27c15,2021-04-06_02h35.30.783,Colour_Similarity_Experiment,2020.2.10,Win32,60,6067542a4a25243f4d7d4fcf,18.09530738,16.88857285,17.35356,16.72039546,16.69781798,16.88857285,,,,,,,,,,,,,,,,,,,,PF,weak,3,,,,,,,,5,1.314425,,,,,,,,,,,,,,,,,,,,,,,,,,,1,weak,77,-39,1,0,0,response3disk,7,163,2,11,1,0,0,rectangle,2,11,1,0,0,6,5,0.001475,2,11,1,0,0,0,0,0,150,1,0,,,,,,,,,,,,,,,,,,,,,
,,,,,,,,,,,,,,,,,,,,,,,,,,,,,,,,,,,,,,,,,,60480c2fe7f49a1419ca1cf1,606c0eae442b8c99a7f27c15,2021-04-06_02h35.30.783,Colour_Similarity_Experiment,2020.2.10,Win32,60,6067542a4a25243f4d7d4fcf,18.09530738,16.88857285,17.35356,16.72039546,16.69781798,16.88857285,,,,,,,,,,,,,,,,,,,,PF,weak,3,,,,,,,,5,1.81504,,,,,,,,,,,,,,,,,,,,,,,,,,,1,weak,80,-40,1,0,0,response3disk,5,164,-5,6,1,0,0,rectangle,-5,6,1,0,0,6,6,0.00294,-5,6,1,0,0,0,1,1,28,1,0,,,,,,,,,,,,,,,,,,,,,
,,,,,,,,,,,,,,,,,,,,,,,,,,,,,,,,,,,,,,,,,,60480c2fe7f49a1419ca1cf1,606c0eae442b8c99a7f27c15,2021-04-06_02h35.30.783,Colour_Similarity_Experiment,2020.2.10,Win32,60,6067542a4a25243f4d7d4fcf,18.09530738,16.88857285,17.35356,16.72039546,16.69781798,16.88857285,,,,,,,,,,,,,,,,,,,,PF,weak,3,,,,,,,,3,4.20101,,,,,,,,,,,,,,,,,,,,,,,,,,,5,weak,-40,-86,1,0,0,response5disk,7,165,-4,-8,1,0,0,rectangle,-4,-8,1,0,0,6,4,0.0051,-4,-8,1,0,0,0,2,2,146,1,0,,,,,,,,,,,,,,,,,,,,,
,,,,,,,,,,,,,,,,,,,,,,,,,,,,,,,,,,,,,,,,,,60480c2fe7f49a1419ca1cf1,606c0eae442b8c99a7f27c15,2021-04-06_02h35.30.783,Colour_Similarity_Experiment,2020.2.10,Win32,60,6067542a4a25243f4d7d4fcf,18.09530738,16.88857285,17.35356,16.72039546,16.69781798,16.88857285,,,,,,,,,,,,,,,,,,,,PF,strong,3,,,,,,,,6,1.73472,,,,,,,,,,,,,,,,,,,,,,,,,,,4,strong,92,33,1,0,0,response1disk,2,166,-2,0,1,0,0,rectangle,-2,0,1,0,0,6,0,0.016055,-2,0,1,0,0,0,3,3,13,1,0,,,,,,,,,,,,,,,,,,,,,
,,,,,,,,,,,,,,,,,,,,,,,,,,,,,,,,,,,,,,,,,,60480c2fe7f49a1419ca1cf1,606c0eae442b8c99a7f27c15,2021-04-06_02h35.30.783,Colour_Similarity_Experiment,2020.2.10,Win32,60,6067542a4a25243f4d7d4fcf,18.09530738,16.88857285,17.35356,16.72039546,16.69781798,16.88857285,,,,,,,,,,,,,,,,,,,,PF,weak,3,,,,,,,,5,3.04062,,,,,,,,,,,,,,,,,,,,,,,,,,,2,weak,87,-27,1,0,0,response3disk,8,167,-3,6,1,0,0,rectangle,-3,6,1,0,0,6,7,0.001925,-3,6,1,0,0,0,4,4,52,1,0,,,,,,,,,,,,,,,,,,,,,
,,,,,,,,,,,,,,,,,,,,,,,,,,,,,,,,,,,,,,,,,,60480c2fe7f49a1419ca1cf1,606c0eae442b8c99a7f27c15,2021-04-06_02h35.30.783,Colour_Similarity_Experiment,2020.2.10,Win32,60,6067542a4a25243f4d7d4fcf,18.09530738,16.88857285,17.35356,16.72039546,16.69781798,16.88857285,,,,,,,,,,,,,,,,,,,,PF,weak,3,,,,,,,,6,1.206055,,,,,,,,,,,,,,,,,,,,,,,,,,,2,weak,92,55,1,0,0,response1disk,4,168,-13,9,1,0,0,rectangle,-13,9,1,0,0,6,6,0.002775,-13,9,1,0,0,0,5,5,127,1,0,,,,,,,,,,,,,,,,,,,,,
,,,,,,,,,,,,,,,,,,,,,,,,,,,,,,,,,,,,,,,,,,60480c2fe7f49a1419ca1cf1,606c0eae442b8c99a7f27c15,2021-04-06_02h35.30.783,Colour_Similarity_Experiment,2020.2.10,Win32,60,6067542a4a25243f4d7d4fcf,18.09530738,16.88857285,17.35356,16.72039546,16.69781798,16.88857285,,,,,,,,,,,,,,,,,,,,PF,strong,3,,,,,,,,3,2.93001,,,,,,,,,,,,,,,,,,,,,,,,,,,8,strong,-45,-103,1,0,0,response5disk,9,169,-5,-2,1,0,0,rectangle,-5,-2,1,0,0,6,4,0.004,-5,-2,1,0,0,0,6,6,105,1,0,,,,,,,,,,,,,,,,,,,,,
,,,,,,,,,,,,,,,,,,,,,,,,,,,,,,,,,,,,,,,,,,60480c2fe7f49a1419ca1cf1,606c0eae442b8c99a7f27c15,2021-04-06_02h35.30.783,Colour_Similarity_Experiment,2020.2.10,Win32,60,6067542a4a25243f4d7d4fcf,18.09530738,16.88857285,17.35356,16.72039546,16.69781798,16.88857285,,,,,,,,,,,,,,,,,,,,PF,weak,3,,,,,,,,5,1.26167,,,,,,,,,,,,,,,,,,,,,,,,,,,4,weak,86,-54,1,0,0,response3disk,8,170,-3,0,1,0,0,rectangle,-3,0,1,0,0,6,4,0.00159,-3,0,1,0,0,0,7,7,124,1,0,,,,,,,,,,,,,,,,,,,,,
,,,,,,,,,,,,,,,,,,,,,,,,,,,,,,,,,,,,,,,,,,60480c2fe7f49a1419ca1cf1,606c0eae442b8c99a7f27c15,2021-04-06_02h35.30.783,Colour_Similarity_Experiment,2020.2.10,Win32,60,6067542a4a25243f4d7d4fcf,18.09530738,16.88857285,17.35356,16.72039546,16.69781798,16.88857285,,,,,,,,,,,,,,,,,,,,PF,strong,3,,,,,,,,5,4.31157,,,,,,,,,,,,,,,,,,,,,,,,,,,7,strong,89,-34,1,0,0,response3disk,1,171,-1,-2,1,0,0,rectangle,-1,-2,1,0,0,6,5,0.002155,-1,-2,1,0,0,0,8,8,132,1,0,,,,,,,,,,,,,,,,,,,,,
,,,,,,,,,,,,,,,,,,,,,,,,,,,,,,,,,,,,,,,,,,60480c2fe7f49a1419ca1cf1,606c0eae442b8c99a7f27c15,2021-04-06_02h35.30.783,Colour_Similarity_Experiment,2020.2.10,Win32,60,6067542a4a25243f4d7d4fcf,18.09530738,16.88857285,17.35356,16.72039546,16.69781798,16.88857285,,,,,,,,,,,,,,,,,,,,PF,strong,3,,,,,,,,7,1.36231,,,,,,,,,,,,,,,,,,,,,,,,,,,7,strong,55,98,1,0,0,response1disk,2,172,-3,0,1,0,0,rectangle,-3,0,1,0,0,6,4,0.00246,-3,0,1,0,0,0,9,9,138,1,0,,,,,,,,,,,,,,,,,,,,,
,,,,,,,,,,,,,,,,,,,,,,,,,,,,,,,,,,,,,,,,,,60480c2fe7f49a1419ca1cf1,606c0eae442b8c99a7f27c15,2021-04-06_02h35.30.783,Colour_Similarity_Experiment,2020.2.10,Win32,60,6067542a4a25243f4d7d4fcf,18.09530738,16.88857285,17.35356,16.72039546,16.69781798,16.88857285,,,,,,,,,,,,,,,,,,,,PF,strong,3,,,,,,,,5,1.24963,,,,,,,,,,,,,,,,,,,,,,,,,,,1,strong,78,-30,1,0,0,response3disk,8,173,-7,4,1,0,0,rectangle,-7,4,1,0,0,6,0,0.00217,-7,4,1,0,0,0,10,10,27,1,0,,,,,,,,,,,,,,,,,,,,,
,,,,,,,,,,,,,,,,,,,,,,,,,,,,,,,,,,,,,,,,,,60480c2fe7f49a1419ca1cf1,606c0eae442b8c99a7f27c15,2021-04-06_02h35.30.783,Colour_Similarity_Experiment,2020.2.10,Win32,60,6067542a4a25243f4d7d4fcf,18.09530738,16.88857285,17.35356,16.72039546,16.69781798,16.88857285,,,,,,,,,,,,,,,,,,,,PF,strong,3,,,,,,,,6,8.057775,,,,,,,,,,,,,,,,,,,,,,,,,,,3,strong,96,27,1,0,0,response1disk,9,174,-3,-3,1,0,0,rectangle,-3,-3,1,0,0,6,1,0.00167,-3,-3,1,0,0,0,11,11,143,1,0,,,,,,,,,,,,,,,,,,,,,
,,,,,,,,,,,,,,,,,,,,,,,,,,,,,,,,,,,,,,,,,,60480c2fe7f49a1419ca1cf1,606c0eae442b8c99a7f27c15,2021-04-06_02h35.30.783,Colour_Similarity_Experiment,2020.2.10,Win32,60,6067542a4a25243f4d7d4fcf,18.09530738,16.88857285,17.35356,16.72039546,16.69781798,16.88857285,,,,,,,,,,,,,,,,,,,,PF,weak,3,,,,,,,,6,3.760965,,,,,,,,,,,,,,,,,,,,,,,,,,,9,weak,100,38,1,0,0,response1disk,2,175,3,0,1,0,0,rectangle,3,0,1,0,0,6,5,0.001785,3,0,1,0,0,0,12,12,157,1,0,,,,,,,,,,,,,,,,,,,,,
,,,,,,,,,,,,,,,,,,,,,,,,,,,,,,,,,,,,,,,,,,60480c2fe7f49a1419ca1cf1,606c0eae442b8c99a7f27c15,2021-04-06_02h35.30.783,Colour_Similarity_Experiment,2020.2.10,Win32,60,6067542a4a25243f4d7d4fcf,18.09530738,16.88857285,17.35356,16.72039546,16.69781798,16.88857285,,,,,,,,,,,,,,,,,,,,PF,strong,3,,,,,,,,6,4.185225,,,,,,,,,,,,,,,,,,,,,,,,,,,2,strong,77,36,1,0,0,response1disk,6,176,3,-5,1,0,0,rectangle,3,-5,1,0,0,6,4,0.00163,3,-5,1,0,0,0,13,13,40,1,0,,,,,,,,,,,,,,,,,,,,,
,,,,,,,,,,,,,,,,,,,,,,,,,,,,,,,,,,,,,,,,,,60480c2fe7f49a1419ca1cf1,606c0eae442b8c99a7f27c15,2021-04-06_02h35.30.783,Colour_Similarity_Experiment,2020.2.10,Win32,60,6067542a4a25243f4d7d4fcf,18.09530738,16.88857285,17.35356,16.72039546,16.69781798,16.88857285,,,,,,,,,,,,,,,,,,,,PF,weak,3,,,,,,,,3,1.738435,,,,,,,,,,,,,,,,,,,,,,,,,,,8,weak,-44,-89,1,0,0,response5disk,9,177,-7,-10,1,0,0,rectangle,-7,-10,1,0,0,6,6,0.002095,-7,-10,1,0,0,0,14,14,42,1,0,,,,,,,,,,,,,,,,,,,,,
,,,,,,,,,,,,,,,,,,,,,,,,,,,,,,,,,,,,,,,,,,60480c2fe7f49a1419ca1cf1,606c0eae442b8c99a7f27c15,2021-04-06_02h35.30.783,Colour_Similarity_Experiment,2020.2.10,Win32,60,6067542a4a25243f4d7d4fcf,18.09530738,16.88857285,17.35356,16.72039546,16.69781798,16.88857285,,,,,,,,,,,,,,,,,,,,PF,weak,3,,,,,,,,7,1.26642,,,,,,,,,,,,,,,,,,,,,,,,,,,5,weak,54,83,1,0,0,response1disk,1,178,-5,-6,1,0,0,rectangle,-26,-78,1,0,0,3,3,2.219895,2,-9,1,0,0,0,15,15,159,1,1,response5disk_3,rectangle,,,,,,,,,,,,,,,,,,,
,,,,,,,,,,,,,,,,,,,,,,,,,,,,,,,,,,,,,,,,,,60480c2fe7f49a1419ca1cf1,606c0eae442b8c99a7f27c15,2021-04-06_02h35.30.783,Colour_Similarity_Experiment,2020.2.10,Win32,60,6067542a4a25243f4d7d4fcf,18.09530738,16.88857285,17.35356,16.72039546,16.69781798,16.88857285,,,,,,,,,,,,,,,,,,,,PF,strong,3,,,,,,,,4,0.98903,,,,,,,,,,,,,,,,,,,,,,,,,,,7,strong,43,-96,1,0,0,response3disk,6,179,-1,7,1,0,0,rectangle,-1,7,1,0,0,3,4,0.004025,-1,7,1,0,0,0,16,16,31,1,0,,,,,,,,,,,,,,,,,,,,,
,,,,,,,,,,,,,,,,,,,,,,,,,,,,,,,,,,,,,,,,,,60480c2fe7f49a1419ca1cf1,606c0eae442b8c99a7f27c15,2021-04-06_02h35.30.783,Colour_Similarity_Experiment,2020.2.10,Win32,60,6067542a4a25243f4d7d4fcf,18.09530738,16.88857285,17.35356,16.72039546,16.69781798,16.88857285,,,,,,,,,,,,,,,,,,,,PF,weak,3,,,,,,,,4,1.263805,,,,,,,,,,,,,,,,,,,,,,,,,,,7,weak,49,-81,1,0,0,response3disk,9,180,-3,5,1,0,0,rectangle,-3,5,1,0,0,3,7,0.001485,-3,5,1,0,0,0,17,17,10,1,0,,,,,,,,,,,,,,,,,,,,,
,,,,,,,,,,,,,,,,,,,,,,,,,,,,,,,,,,,,,,,,,,60480c2fe7f49a1419ca1cf1,606c0eae442b8c99a7f27c15,2021-04-06_02h35.30.783,Colour_Similarity_Experiment,2020.2.10,Win32,60,6067542a4a25243f4d7d4fcf,18.09530738,16.88857285,17.35356,16.72039546,16.69781798,16.88857285,,,,,,,,,,,,,,,,,,,,PF,weak,3,,,,,,,,6,1.213165,,,,,,,,,,,,,,,,,,,,,,,,,,,8,weak,89,34,1,0,0,response1disk,4,181,-4,-7,1,0,0,rectangle,-4,-7,1,0,0,3,5,0.004165,-4,-7,1,0,0,0,18,18,78,1,0,,,,,,,,,,,,,,,,,,,,,
,,,,,,,,,,,,,,,,,,,,,,,,,,,,,,,,,,,,,,,,,,60480c2fe7f49a1419ca1cf1,606c0eae442b8c99a7f27c15,2021-04-06_02h35.30.783,Colour_Similarity_Experiment,2020.2.10,Win32,60,6067542a4a25243f4d7d4fcf,18.09530738,16.88857285,17.35356,16.72039546,16.69781798,16.88857285,,,,,,,,,,,,,,,,,,,,PF,weak,3,,,,,,,,3,1.207425,,,,,,,,,,,,,,,,,,,,,,,,,,,2,weak,-52,-102,1,0,0,response5disk,3,182,-1,8,1,0,0,rectangle,-1,8,1,0,0,3,4,0.002,-1,8,1,0,0,0,19,19,69,1,0,,,,,,,,,,,,,,,,,,,,,
,,,,,,,,,,,,,,,,,,,,,,,,,,,,,,,,,,,,,,,,,,60480c2fe7f49a1419ca1cf1,606c0eae442b8c99a7f27c15,2021-04-06_02h35.30.783,Colour_Similarity_Experiment,2020.2.10,Win32,60,6067542a4a25243f4d7d4fcf,18.09530738,16.88857285,17.35356,16.72039546,16.69781798,16.88857285,,,,,,,,,,,,,,,,,,,,PF,weak,3,,,,,,,,5,1.221115,,,,,,,,,,,,,,,,,,,,,,,,,,,9,weak,80,-32,1,0,0,response3disk,5,183,-7,9,1,0,0,rectangle,-7,9,1,0,0,3,3,0.002215,-7,9,1,0,0,0,20,20,134,1,0,,,,,,,,,,,,,,,,,,,,,
,,,,,,,,,,,,,,,,,,,,,,,,,,,,,,,,,,,,,,,,,,60480c2fe7f49a1419ca1cf1,606c0eae442b8c99a7f27c15,2021-04-06_02h35.30.783,Colour_Similarity_Experiment,2020.2.10,Win32,60,6067542a4a25243f4d7d4fcf,18.09530738,16.88857285,17.35356,16.72039546,16.69781798,16.88857285,,,,,,,,,,,,,,,,,,,,PF,weak,3,,,,,,,,6,1.907645,,,,,,,,,,,,,,,,,,,,,,,,,,,8,weak,84,41,1,0,0,response1disk,2,184,-2,3,1,0,0,rectangle,-2,3,1,0,0,3,4,0.003465,-2,3,1,0,0,0,21,21,83,1,0,,,,,,,,,,,,,,,,,,,,,
,,,,,,,,,,,,,,,,,,,,,,,,,,,,,,,,,,,,,,,,,,60480c2fe7f49a1419ca1cf1,606c0eae442b8c99a7f27c15,2021-04-06_02h35.30.783,Colour_Similarity_Experiment,2020.2.10,Win32,60,6067542a4a25243f4d7d4fcf,18.09530738,16.88857285,17.35356,16.72039546,16.69781798,16.88857285,,,,,,,,,,,,,,,,,,,,PF,weak,3,,,,,,,,4,4.295985,,,,,,,,,,,,,,,,,,,,,,,,,,,7,weak,27,-93,1,0,0,response3disk,6,185,0,9,1,0,0,rectangle,0,9,1,0,0,3,3,0.00187,0,9,1,0,0,0,22,22,29,1,0,,,,,,,,,,,,,,,,,,,,,
,,,,,,,,,,,,,,,,,,,,,,,,,,,,,,,,,,,,,,,,,,60480c2fe7f49a1419ca1cf1,606c0eae442b8c99a7f27c15,2021-04-06_02h35.30.783,Colour_Similarity_Experiment,2020.2.10,Win32,60,6067542a4a25243f4d7d4fcf,18.09530738,16.88857285,17.35356,16.72039546,16.69781798,16.88857285,,,,,,,,,,,,,,,,,,,,PF,strong,3,,,,,,,,1,1.51615,,,,,,,,,,,,,,,,,,,,,,,,,,,6,strong,-91,28,1,0,0,response7disk,6,186,-7,3,1,0,0,rectangle,-7,3,1,0,0,3,6,0.004075,-7,3,1,0,0,0,23,23,91,1,0,,,,,,,,,,,,,,,,,,,,,
,,,,,,,,,,,,,,,,,,,,,,,,,,,,,,,,,,,,,,,,,,60480c2fe7f49a1419ca1cf1,606c0eae442b8c99a7f27c15,2021-04-06_02h35.30.783,Colour_Similarity_Experiment,2020.2.10,Win32,60,6067542a4a25243f4d7d4fcf,18.09530738,16.88857285,17.35356,16.72039546,16.69781798,16.88857285,,,,,,,,,,,,,,,,,,,,PF,strong,3,,,,,,,,2,1.48905,,,,,,,,,,,,,,,,,,,,,,,,,,,9,strong,-85,-43,1,0,0,response5disk,9,187,-6,1,1,0,0,rectangle,-6,1,1,0,0,3,5,0.00234,-6,1,1,0,0,0,24,24,17,1,0,,,,,,,,,,,,,,,,,,,,,
,,,,,,,,,,,,,,,,,,,,,,,,,,,,,,,,,,,,,,,,,,60480c2fe7f49a1419ca1cf1,606c0eae442b8c99a7f27c15,2021-04-06_02h35.30.783,Colour_Similarity_Experiment,2020.2.10,Win32,60,6067542a4a25243f4d7d4fcf,18.09530738,16.88857285,17.35356,16.72039546,16.69781798,16.88857285,,,,,,,,,,,,,,,,,,,,PF,weak,3,,,,,,,,2,1.840405,,,,,,,,,,,,,,,,,,,,,,,,,,,6,weak,-90,-46,1,0,0,response5disk,5,188,2,0,1,0,0,rectangle,2,0,1,0,0,3,6,0.056155,2,0,1,0,0,0,25,25,59,1,0,,,,,,,,,,,,,,,,,,,,,
,,,,,,,,,,,,,,,,,,,,,,,,,,,,,,,,,,,,,,,,,,60480c2fe7f49a1419ca1cf1,606c0eae442b8c99a7f27c15,2021-04-06_02h35.30.783,Colour_Similarity_Experiment,2020.2.10,Win32,60,6067542a4a25243f4d7d4fcf,18.09530738,16.88857285,17.35356,16.72039546,16.69781798,16.88857285,,,,,,,,,,,,,,,,,,,,PF,strong,3,,,,,,,,5,1.22106,,,,,,,,,,,,,,,,,,,,,,,,,,,1,strong,86,-48,1,0,0,response3disk,5,189,4,-4,1,0,0,rectangle,4,-4,1,0,0,3,7,0.002025,4,-4,1,0,0,0,26,26,82,1,0,,,,,,,,,,,,,,,,,,,,,
,,,,,,,,,,,,,,,,,,,,,,,,,,,,,,,,,,,,,,,,,,60480c2fe7f49a1419ca1cf1,606c0eae442b8c99a7f27c15,2021-04-06_02h35.30.783,Colour_Similarity_Experiment,2020.2.10,Win32,60,6067542a4a25243f4d7d4fcf,18.09530738,16.88857285,17.35356,16.72039546,16.69781798,16.88857285,,,,,,,,,,,,,,,,,,,,PF,weak,3,,,,,,,,4,1.341695,,,,,,,,,,,,,,,,,,,,,,,,,,,5,weak,42,-88,1,0,0,response3disk,3,190,-6,-1,1,0,0,rectangle,-6,-1,1,0,0,3,3,0.001695,-6,-1,1,0,0,0,27,27,109,1,0,,,,,,,,,,,,,,,,,,,,,
,,,,,,,,,,,,,,,,,,,,,,,,,,,,,,,,,,,,,,,,,,60480c2fe7f49a1419ca1cf1,606c0eae442b8c99a7f27c15,2021-04-06_02h35.30.783,Colour_Similarity_Experiment,2020.2.10,Win32,60,6067542a4a25243f4d7d4fcf,18.09530738,16.88857285,17.35356,16.72039546,16.69781798,16.88857285,,,,,,,,,,,,,,,,,,,,PF,strong,3,,,,,,,,4,1.064425,,,,,,,,,,,,,,,,,,,,,,,,,,,4,strong,51,-108,1,0,0,response3disk,3,191,-3,4,1,0,0,rectangle,-3,4,1,0,0,3,2,0.008205,-3,4,1,0,0,0,28,28,77,1,0,,,,,,,,,,,,,,,,,,,,,
,,,,,,,,,,,,,,,,,,,,,,,,,,,,,,,,,,,,,,,,,,60480c2fe7f49a1419ca1cf1,606c0eae442b8c99a7f27c15,2021-04-06_02h35.30.783,Colour_Similarity_Experiment,2020.2.10,Win32,60,6067542a4a25243f4d7d4fcf,18.09530738,16.88857285,17.35356,16.72039546,16.69781798,16.88857285,,,,,,,,,,,,,,,,,,,,PF,strong,3,,,,,,,,5,3.49997,,,,,,,,,,,,,,,,,,,,,,,,,,,3,strong,94,-36,1,0,0,response3disk,6,192,-5,2,1,0,0,rectangle,-5,2,1,0,0,3,6,0.00251,-5,2,1,0,0,0,29,29,95,1,0,,,,,,,,,,,,,,,,,,,,,
,,,,,,,,,,,,,,,,,,,,,,,,,,,,,,,,,,,,,,,,,,60480c2fe7f49a1419ca1cf1,606c0eae442b8c99a7f27c15,2021-04-06_02h35.30.783,Colour_Similarity_Experiment,2020.2.10,Win32,60,6067542a4a25243f4d7d4fcf,18.09530738,16.88857285,17.35356,16.72039546,16.69781798,16.88857285,,,,,,,,,,,,,,,,,,,,PF,weak,3,,,,,,,,6,3.525375,,,,,,,,,,,,,,,,,,,,,,,,,,,7,weak,98,34,1,0,0,response1disk,1,193,3,2,1,0,0,rectangle,3,2,1,0,0,3,0,0.002075,3,2,1,0,0,0,30,30,53,1,0,,,,,,,,,,,,,,,,,,,,,
,,,,,,,,,,,,,,,,,,,,,,,,,,,,,,,,,,,,,,,,,,60480c2fe7f49a1419ca1cf1,606c0eae442b8c99a7f27c15,2021-04-06_02h35.30.783,Colour_Similarity_Experiment,2020.2.10,Win32,60,6067542a4a25243f4d7d4fcf,18.09530738,16.88857285,17.35356,16.72039546,16.69781798,16.88857285,,,,,,,,,,,,,,,,,,,,PF,weak,3,,,,,,,,6,3.163065,,,,,,,,,,,,,,,,,,,,,,,,,,,3,weak,87,36,1,0,0,response1disk,8,194,-2,1,1,0,0,rectangle,-2,1,1,0,0,3,6,0.00179,-2,1,1,0,0,0,31,31,3,1,0,,,,,,,,,,,,,,,,,,,,,
,,,,,,,,,,,,,,,,,,,,,,,,,,,,,,,,,,,,,,,,,,60480c2fe7f49a1419ca1cf1,606c0eae442b8c99a7f27c15,2021-04-06_02h35.30.783,Colour_Similarity_Experiment,2020.2.10,Win32,60,6067542a4a25243f4d7d4fcf,18.09530738,16.88857285,17.35356,16.72039546,16.69781798,16.88857285,,,,,,,,,,,,,,,,,,,,PF,strong,3,,,,,,,,6,1.544075,,,,,,,,,,,,,,,,,,,,,,,,,,,4,strong,73,32,1,0,0,response1disk,9,195,-8,-6,1,0,0,rectangle,-8,-6,1,0,0,3,7,0.00234,-8,-6,1,0,0,0,32,32,90,1,0,,,,,,,,,,,,,,,,,,,,,
,,,,,,,,,,,,,,,,,,,,,,,,,,,,,,,,,,,,,,,,,,60480c2fe7f49a1419ca1cf1,606c0eae442b8c99a7f27c15,2021-04-06_02h35.30.783,Colour_Similarity_Experiment,2020.2.10,Win32,60,6067542a4a25243f4d7d4fcf,18.09530738,16.88857285,17.35356,16.72039546,16.69781798,16.88857285,,,,,,,,,,,,,,,,,,,,PF,strong,3,,,,,,,,5,3.43606,,,,,,,,,,,,,,,,,,,,,,,,,,,6,strong,75,-34,1,0,0,response3disk,1,196,-4,-7,1,0,0,rectangle,-4,-7,1,0,0,3,2,0.002415,-4,-7,1,0,0,0,33,33,5,1,0,,,,,,,,,,,,,,,,,,,,,
