key_resp.keys,key_resp.rt,key_resp_16.keys,key_resp_16.rt,key_resp_2.keys,key_resp_2.rt,X Scale,ratio_pxpermm,screen_size_x,screen_size_y,testsize,key_resp_3.keys,key_resp_4.keys,key_resp_4.rt,line_size,key_resp_5.keys,key_resp_5.rt,key_resp_6.keys,key_resp_6.rt,key_resp_8.keys,key_resp_8.rt,key_resp_7.keys,key_resp_7.rt,key_resp_12.keys,key_resp_12.rt,key_resp_11.keys,key_resp_11.rt,key_resp_18.keys,key_resp_18.rt,key_resp_21.keys,key_resp_21.rt,key_resp_13.keys,key_resp_13.rt,key_resp_19.keys,key_resp_19.rt,ballposx,viewer_distance,trials.thisRepN,trials.thisTrialN,trials.thisN,trials.thisIndex,trials.ran,participant,session,date,expName,psychopyVersion,OS,frameRate,study_id,realFrameRate1,realFrameRate2,realFrameRate3,realFrameRate4,realFrameRate5,realFrameRate,viewerdistancecm,DVA_to_distance,radius_F,radius_P,r_F,R_P,key_resp_20.keys,key_resp_20.rt,key_resp_14.keys,key_resp_14.rt,key_resp_15.keys,key_resp_15.rt,key_resp_17.keys,key_resp_17.rt,key_resp_9.keys,key_resp_9.rt,key_resp_10.keys,key_resp_10.rt,Colour_1,Ecc,maskCon,mask_frames,mouse_5.x,mouse_5.y,mouse_5.leftButton,mouse_5.midButton,mouse_5.rightButton,mouse_5.clicked_name,Colour_2,similarity,response_time,mouse_10.x,mouse_10.y,mouse_10.leftButton,mouse_10.midButton,mouse_10.rightButton,mouse_10.clicked_name,mouse_7.x,mouse_7.y,mouse_7.leftButton,mouse_7.midButton,mouse_7.rightButton,catchnumberprac,mouse_6.x,mouse_6.y,mouse_6.leftButton,mouse_6.midButton,mouse_6.rightButton,duringprac.thisRepN,duringprac.thisTrialN,duringprac.thisN,duringprac.thisIndex,duringprac.ran,mouse_7.clicked_name,catchprac,mouse_6.clicked_name,key_resp_22.keys,key_resp_22.rt,Colour1,maskCon1,mouse.x,mouse.y,mouse.leftButton,mouse.midButton,mouse.rightButton,mouse.clicked_name,Colour2,trialnumber,mouse_2.x,mouse_2.y,mouse_2.leftButton,mouse_2.midButton,mouse_2.rightButton,mouse_2.clicked_name,mouse_3.x,mouse_3.y,mouse_3.leftButton,mouse_3.midButton,mouse_3.rightButton,catchresponse,catchnumber,response_time_catch,mouse_11.x,mouse_11.y,mouse_11.leftButton,mouse_11.midButton,mouse_11.rightButton,trials_2.thisRepN,trials_2.thisTrialN,trials_2.thisN,trials_2.thisIndex,trials_2.ran,Catch,mouse_3.clicked_name,mouse_11.clicked_name,trials_3.thisRepN,trials_3.thisTrialN,trials_3.thisN,trials_3.thisIndex,trials_3.ran,answer1,rt1,answer2,rt2,answer3,rt3,answer4,rt4,answer5,rt5,answer6,rt6,answer7,rt7
space,3.835,space,51.811,space,11.98,65.7,6.57,292.2374429,164.3835616,1920,,space,28.764,131.4,space,22.565,space,6.564,space,3.75,space,6.998,space,12.033,space,9.95,space,12.262,space,14.127,space,14.562,return,5.533,-239.04,638.4512994,0,0,0,0,1,605c7bd2d23cc89750cd22f6,606c0cd4762c7ea6fb9fda31,2021-04-06_09h25.34.770,Colour_Similarity_Experiment,2020.2.10,Win32,60,6067542a4a25243f4d7d4fcf,18.08333333,16.68725869,16.68095238,16.6801854,16.67186441,16.68095238,,,,,,,,,,,,,,,,,,,,,,,,,,,,,,,,,,,,,,,,,,,,,,,,,,,,,,,,,,,,,,,,,,,,,,,,,,,,,,,,,,,,,,,,,,,,,,,,,,,,,,,,,,,,,,,,,,
,,,,,,,,,,,,,,,,,,,,,,,,,,,,,,,,,return,5.382,-213.12,622.0183299,1,0,1,0,1,605c7bd2d23cc89750cd22f6,606c0cd4762c7ea6fb9fda31,2021-04-06_09h25.34.770,Colour_Similarity_Experiment,2020.2.10,Win32,60,6067542a4a25243f4d7d4fcf,18.08333333,16.68725869,16.68095238,16.6801854,16.67186441,16.68095238,,,,,,,,,,,,,,,,,,,,,,,,,,,,,,,,,,,,,,,,,,,,,,,,,,,,,,,,,,,,,,,,,,,,,,,,,,,,,,,,,,,,,,,,,,,,,,,,,,,,,,,,,,,,,,,,,,
,,,,,,,,,,,,,,,,,,,,,,,,,,,,,,,,,return,4.948,-138.24,574.5453066,2,0,2,0,1,605c7bd2d23cc89750cd22f6,606c0cd4762c7ea6fb9fda31,2021-04-06_09h25.34.770,Colour_Similarity_Experiment,2020.2.10,Win32,60,6067542a4a25243f4d7d4fcf,18.08333333,16.68725869,16.68095238,16.6801854,16.67186441,16.68095238,,,,,,,,,,,,,,,,,,,,,,,,,,,,,,,,,,,,,,,,,,,,,,,,,,,,,,,,,,,,,,,,,,,,,,,,,,,,,,,,,,,,,,,,,,,,,,,,,,,,,,,,,,,,,,,,,,
,,,,,,,,,,,,,,,,,,,,,,,,,,,,,,,,,return,5.386,-210.24,620.1924444,3,0,3,0,1,605c7bd2d23cc89750cd22f6,606c0cd4762c7ea6fb9fda31,2021-04-06_09h25.34.770,Colour_Similarity_Experiment,2020.2.10,Win32,60,6067542a4a25243f4d7d4fcf,18.08333333,16.68725869,16.68095238,16.6801854,16.67186441,16.68095238,,,,,,,,,,,,,,,,,,,,,,,,,,,,,,,,,,,,,,,,,,,,,,,,,,,,,,,,,,,,,,,,,,,,,,,,,,,,,,,,,,,,,,,,,,,,,,,,,,,,,,,,,,,,,,,,,,
,,,,,,,,,,,,,,,,,,,,,,,,,,,,,,,,,return,5.048,-155.52,585.5006197,4,0,4,0,1,605c7bd2d23cc89750cd22f6,606c0cd4762c7ea6fb9fda31,2021-04-06_09h25.34.770,Colour_Similarity_Experiment,2020.2.10,Win32,60,6067542a4a25243f4d7d4fcf,18.08333333,16.68725869,16.68095238,16.6801854,16.67186441,16.68095238,,,,,,,,,,,,,,,,,,,,,,,,,,,,,,,,,,,,,,,,,,,,,,,,,,,,,,,,,,,,,,,,,,,,,,,,,,,,,,,,,,,,,,,,,,,,,,,,,,,,,,,,,,,,,,,,,,
,,,,,,,,,,,,,,,,,,,,,,,,,,,,,,,,,,,,,,,,,,605c7bd2d23cc89750cd22f6,606c0cd4762c7ea6fb9fda31,2021-04-06_09h25.34.770,Colour_Similarity_Experiment,2020.2.10,Win32,60,6067542a4a25243f4d7d4fcf,18.08333333,16.68725869,16.68095238,16.6801854,16.67186441,16.68095238,62,10.82213639,106.6521541,711.0143605,71.10143605,319.9564622,space,72.995,space,13.59,space,28.125,space,11.905,space,8.88,space,11.382,5,PF,strong,3,-84,-136,1,0,0,response5disk_5,7,3,193.736,6,-5,1,0,0,rectangle_8,6,-5,1,0,0,0,6,-5,1,0,0,0,0,0,0,1,,,,,,,,,,,,,,,,,,,,,,,,,,,,,,,,,,,,,,,,,,,,,,,,,,,,,,,,,,,,,
,,,,,,,,,,,,,,,,,,,,,,,,,,,,,,,,,,,,,,,,,,605c7bd2d23cc89750cd22f6,606c0cd4762c7ea6fb9fda31,2021-04-06_09h25.34.770,Colour_Similarity_Experiment,2020.2.10,Win32,60,6067542a4a25243f4d7d4fcf,18.08333333,16.68725869,16.68095238,16.6801854,16.67186441,16.68095238,,,,,,,,,,,,,,,,,,,2,PF,weak,3,70,-128,1,0,0,response3disk_5,1,4,8.547,-18,-4,1,0,0,rectangle_8,-18,-4,1,0,0,0,-18,-4,1,0,0,0,1,1,6,1,,,,,,,,,,,,,,,,,,,,,,,,,,,,,,,,,,,,,,,,,,,,,,,,,,,,,,,,,,,,,
,,,,,,,,,,,,,,,,,,,,,,,,,,,,,,,,,,,,,,,,,,605c7bd2d23cc89750cd22f6,606c0cd4762c7ea6fb9fda31,2021-04-06_09h25.34.770,Colour_Similarity_Experiment,2020.2.10,Win32,60,6067542a4a25243f4d7d4fcf,18.08333333,16.68725869,16.68095238,16.6801854,16.67186441,16.68095238,,,,,,,,,,,,,,,,,,,5,PF,weak,3,120,-58,1,0,0,response3disk_5,2,5,9.539,20,-10,1,0,0,rectangle_8,-45,103,1,0,0,0,1,0,1,0,0,0,2,2,5,1,response7disk_7,0,rectangle_4,,,,,,,,,,,,,,,,,,,,,,,,,,,,,,,,,,,,,,,,,,,,,,,,,,,,,,,,,,
,,,,,,,,,,,,,,,,,,,,,,,,,,,,,,,,,,,,,,,,,,605c7bd2d23cc89750cd22f6,606c0cd4762c7ea6fb9fda31,2021-04-06_09h25.34.770,Colour_Similarity_Experiment,2020.2.10,Win32,60,6067542a4a25243f4d7d4fcf,18.08333333,16.68725869,16.68095238,16.6801854,16.67186441,16.68095238,,,,,,,,,,,,,,,,,,,3,PF,strong,3,112,49,1,0,0,response1disk_5,1,6,20.276,-9,1,1,0,0,rectangle_8,-9,1,1,0,0,0,-9,1,1,0,0,0,3,3,3,1,,,,,,,,,,,,,,,,,,,,,,,,,,,,,,,,,,,,,,,,,,,,,,,,,,,,,,,,,,,,,
,,,,,,,,,,,,,,,,,,,,,,,,,,,,,,,,,,,,,,,,,,605c7bd2d23cc89750cd22f6,606c0cd4762c7ea6fb9fda31,2021-04-06_09h25.34.770,Colour_Similarity_Experiment,2020.2.10,Win32,60,6067542a4a25243f4d7d4fcf,18.08333333,16.68725869,16.68095238,16.6801854,16.67186441,16.68095238,,,,,,,,,,,,,,,,,,,6,PF,weak,3,49,108,1,0,0,response1disk_5,1,7,2.366,-4,-5,1,0,0,rectangle_8,-4,-5,1,0,0,0,-4,-5,1,0,0,0,4,4,1,1,,,,,,,,,,,,,,,,,,,,,,,,,,,,,,,,,,,,,,,,,,,,,,,,,,,,,,,,,,,,,
,,,,,,,,,,,,,,,,,,,,,,,,,,,,,,,,,,,,,,,,,,605c7bd2d23cc89750cd22f6,606c0cd4762c7ea6fb9fda31,2021-04-06_09h25.34.770,Colour_Similarity_Experiment,2020.2.10,Win32,60,6067542a4a25243f4d7d4fcf,18.08333333,16.68725869,16.68095238,16.6801854,16.67186441,16.68095238,,,,,,,,,,,,,,,,,,,8,PF,weak,3,-101,-50,1,0,0,response5disk_5,7,2,3.716,2,-5,1,0,0,rectangle_8,-47,110,1,0,0,0,-14,1,1,0,0,0,5,5,4,1,response7disk_7,0,rectangle_4,,,,,,,,,,,,,,,,,,,,,,,,,,,,,,,,,,,,,,,,,,,,,,,,,,,,,,,,,,
,,,,,,,,,,,,,,,,,,,,,,,,,,,,,,,,,,,,,,,,,,605c7bd2d23cc89750cd22f6,606c0cd4762c7ea6fb9fda31,2021-04-06_09h25.34.770,Colour_Similarity_Experiment,2020.2.10,Win32,60,6067542a4a25243f4d7d4fcf,18.08333333,16.68725869,16.68095238,16.6801854,16.67186441,16.68095238,,,,,,,,,,,,,,,,,,,4,PF,strong,3,37,-116,1,0,0,response3disk_5,2,4,5.282,-18,0,1,0,0,rectangle_8,-18,0,1,0,0,0,-18,0,1,0,0,0,6,6,2,1,,,,,,,,,,,,,,,,,,,,,,,,,,,,,,,,,,,,,,,,,,,,,,,,,,,,,,,,,,,,,
,,,,,,,,,,,,,,,,,,,,,,,,,,,,,,,,,,,,,,,,,,605c7bd2d23cc89750cd22f6,606c0cd4762c7ea6fb9fda31,2021-04-06_09h25.34.770,Colour_Similarity_Experiment,2020.2.10,Win32,60,6067542a4a25243f4d7d4fcf,18.08333333,16.68725869,16.68095238,16.6801854,16.67186441,16.68095238,,,,,,,,,,,,,,,,,,,,PF,strong,3,,,,,,,,1,4.798,,,,,,,,,,,,,,,,,,,,,,,,,,space,6.095,6,strong,-122,66,1,0,0,response7disk,7,1,17,3,1,0,0,rectangle,17,3,1,0,0,,4,0.004,17,3,1,0,0,0,0,0,18,1,0,,,,,,,,,,,,,,,,,,,,,
,,,,,,,,,,,,,,,,,,,,,,,,,,,,,,,,,,,,,,,,,,605c7bd2d23cc89750cd22f6,606c0cd4762c7ea6fb9fda31,2021-04-06_09h25.34.770,Colour_Similarity_Experiment,2020.2.10,Win32,60,6067542a4a25243f4d7d4fcf,18.08333333,16.68725869,16.68095238,16.6801854,16.67186441,16.68095238,,,,,,,,,,,,,,,,,,,,PF,strong,3,,,,,,,,4,4.165,,,,,,,,,,,,,,,,,,,,,,,,,,,,9,strong,44,-82,1,0,0,response3disk,7,2,-13,-1,1,0,0,rectangle,-13,-1,1,0,0,,5,0.004,-13,-1,1,0,0,0,1,1,100,1,0,,,,,,,,,,,,,,,,,,,,,
,,,,,,,,,,,,,,,,,,,,,,,,,,,,,,,,,,,,,,,,,,605c7bd2d23cc89750cd22f6,606c0cd4762c7ea6fb9fda31,2021-04-06_09h25.34.770,Colour_Similarity_Experiment,2020.2.10,Win32,60,6067542a4a25243f4d7d4fcf,18.08333333,16.68725869,16.68095238,16.6801854,16.67186441,16.68095238,,,,,,,,,,,,,,,,,,,,PF,weak,3,,,,,,,,4,2.714,,,,,,,,,,,,,,,,,,,,,,,,,,,,6,weak,40,-111,1,0,0,response3disk,4,3,-2,3,1,0,0,rectangle,-2,3,1,0,0,,3,0.004,-2,3,1,0,0,0,2,2,33,1,0,,,,,,,,,,,,,,,,,,,,,
,,,,,,,,,,,,,,,,,,,,,,,,,,,,,,,,,,,,,,,,,,605c7bd2d23cc89750cd22f6,606c0cd4762c7ea6fb9fda31,2021-04-06_09h25.34.770,Colour_Similarity_Experiment,2020.2.10,Win32,60,6067542a4a25243f4d7d4fcf,18.08333333,16.68725869,16.68095238,16.6801854,16.67186441,16.68095238,,,,,,,,,,,,,,,,,,,,PF,strong,3,,,,,,,,7,2.832,,,,,,,,,,,,,,,,,,,,,,,,,,,,1,strong,79,117,1,0,0,response1disk,5,4,13,1,1,0,0,rectangle,13,1,1,0,0,,6,0.003,13,1,1,0,0,0,3,3,82,1,0,,,,,,,,,,,,,,,,,,,,,
,,,,,,,,,,,,,,,,,,,,,,,,,,,,,,,,,,,,,,,,,,605c7bd2d23cc89750cd22f6,606c0cd4762c7ea6fb9fda31,2021-04-06_09h25.34.770,Colour_Similarity_Experiment,2020.2.10,Win32,60,6067542a4a25243f4d7d4fcf,18.08333333,16.68725869,16.68095238,16.6801854,16.67186441,16.68095238,,,,,,,,,,,,,,,,,,,,PF,weak,3,,,,,,,,6,2.916,,,,,,,,,,,,,,,,,,,,,,,,,,,,3,weak,116,42,1,0,0,response1disk,6,5,0,-5,1,0,0,rectangle,0,-5,1,0,0,,0,0.004,0,-5,1,0,0,0,4,4,47,1,0,,,,,,,,,,,,,,,,,,,,,
,,,,,,,,,,,,,,,,,,,,,,,,,,,,,,,,,,,,,,,,,,605c7bd2d23cc89750cd22f6,606c0cd4762c7ea6fb9fda31,2021-04-06_09h25.34.770,Colour_Similarity_Experiment,2020.2.10,Win32,60,6067542a4a25243f4d7d4fcf,18.08333333,16.68725869,16.68095238,16.6801854,16.67186441,16.68095238,,,,,,,,,,,,,,,,,,,,PF,weak,3,,,,,,,,0,1.983,,,,,,,,,,,,,,,,,,,,,,,,,,,,2,weak,-61,135,1,0,0,response7disk,2,6,-4,0,1,0,0,rectangle,-4,0,1,0,0,,7,0.002,-4,0,1,0,0,0,5,5,14,1,0,,,,,,,,,,,,,,,,,,,,,
,,,,,,,,,,,,,,,,,,,,,,,,,,,,,,,,,,,,,,,,,,605c7bd2d23cc89750cd22f6,606c0cd4762c7ea6fb9fda31,2021-04-06_09h25.34.770,Colour_Similarity_Experiment,2020.2.10,Win32,60,6067542a4a25243f4d7d4fcf,18.08333333,16.68725869,16.68095238,16.6801854,16.67186441,16.68095238,,,,,,,,,,,,,,,,,,,,PF,weak,3,,,,,,,,3,2.633,,,,,,,,,,,,,,,,,,,,,,,,,,,,6,weak,-63,-103,1,0,0,response5disk,5,7,-6,-4,1,0,0,rectangle,-6,-4,1,0,0,,1,0.002,-6,-4,1,0,0,0,6,6,59,1,0,,,,,,,,,,,,,,,,,,,,,
,,,,,,,,,,,,,,,,,,,,,,,,,,,,,,,,,,,,,,,,,,605c7bd2d23cc89750cd22f6,606c0cd4762c7ea6fb9fda31,2021-04-06_09h25.34.770,Colour_Similarity_Experiment,2020.2.10,Win32,60,6067542a4a25243f4d7d4fcf,18.08333333,16.68725869,16.68095238,16.6801854,16.67186441,16.68095238,,,,,,,,,,,,,,,,,,,,PF,strong,3,,,,,,,,1,2.232,,,,,,,,,,,,,,,,,,,,,,,,,,,,3,strong,-88,47,1,0,0,response7disk,3,8,-2,-11,1,0,0,rectangle,-2,-11,1,0,0,,6,0.004,-2,-11,1,0,0,0,7,7,68,1,0,,,,,,,,,,,,,,,,,,,,,
,,,,,,,,,,,,,,,,,,,,,,,,,,,,,,,,,,,,,,,,,,605c7bd2d23cc89750cd22f6,606c0cd4762c7ea6fb9fda31,2021-04-06_09h25.34.770,Colour_Similarity_Experiment,2020.2.10,Win32,60,6067542a4a25243f4d7d4fcf,18.08333333,16.68725869,16.68095238,16.6801854,16.67186441,16.68095238,,,,,,,,,,,,,,,,,,,,PF,weak,3,,,,,,,,7,1.965,,,,,,,,,,,,,,,,,,,,,,,,,,,,7,weak,68,130,1,0,0,response1disk,2,9,1,-10,1,0,0,rectangle,1,-10,1,0,0,,3,0.004,1,-10,1,0,0,0,8,8,32,1,0,,,,,,,,,,,,,,,,,,,,,
,,,,,,,,,,,,,,,,,,,,,,,,,,,,,,,,,,,,,,,,,,605c7bd2d23cc89750cd22f6,606c0cd4762c7ea6fb9fda31,2021-04-06_09h25.34.770,Colour_Similarity_Experiment,2020.2.10,Win32,60,6067542a4a25243f4d7d4fcf,18.08333333,16.68725869,16.68095238,16.6801854,16.67186441,16.68095238,,,,,,,,,,,,,,,,,,,,PF,strong,3,,,,,,,,5,2.599,,,,,,,,,,,,,,,,,,,,,,,,,,,,8,strong,108,-68,1,0,0,response3disk,6,10,25,0,1,0,0,rectangle,25,0,1,0,0,,6,0.002,25,0,1,0,0,0,9,9,37,1,0,,,,,,,,,,,,,,,,,,,,,
,,,,,,,,,,,,,,,,,,,,,,,,,,,,,,,,,,,,,,,,,,605c7bd2d23cc89750cd22f6,606c0cd4762c7ea6fb9fda31,2021-04-06_09h25.34.770,Colour_Similarity_Experiment,2020.2.10,Win32,60,6067542a4a25243f4d7d4fcf,18.08333333,16.68725869,16.68095238,16.6801854,16.67186441,16.68095238,,,,,,,,,,,,,,,,,,,,PF,weak,3,,,,,,,,6,1.599,,,,,,,,,,,,,,,,,,,,,,,,,,,,7,weak,96,45,1,0,0,response1disk,1,11,15,3,1,0,0,rectangle,15,3,1,0,0,,4,0.002,15,3,1,0,0,0,10,10,53,1,0,,,,,,,,,,,,,,,,,,,,,
,,,,,,,,,,,,,,,,,,,,,,,,,,,,,,,,,,,,,,,,,,605c7bd2d23cc89750cd22f6,606c0cd4762c7ea6fb9fda31,2021-04-06_09h25.34.770,Colour_Similarity_Experiment,2020.2.10,Win32,60,6067542a4a25243f4d7d4fcf,18.08333333,16.68725869,16.68095238,16.6801854,16.67186441,16.68095238,,,,,,,,,,,,,,,,,,,,PF,weak,3,,,,,,,,3,2.217,,,,,,,,,,,,,,,,,,,,,,,,,,,,1,weak,-64,-93,1,0,0,response5disk,2,12,-11,-6,1,0,0,rectangle,-11,-6,1,0,0,,1,0.004,-11,-6,1,0,0,0,11,11,24,1,0,,,,,,,,,,,,,,,,,,,,,
,,,,,,,,,,,,,,,,,,,,,,,,,,,,,,,,,,,,,,,,,,605c7bd2d23cc89750cd22f6,606c0cd4762c7ea6fb9fda31,2021-04-06_09h25.34.770,Colour_Similarity_Experiment,2020.2.10,Win32,60,6067542a4a25243f4d7d4fcf,18.08333333,16.68725869,16.68095238,16.6801854,16.67186441,16.68095238,,,,,,,,,,,,,,,,,,,,PF,weak,3,,,,,,,,2,1.649,,,,,,,,,,,,,,,,,,,,,,,,,,,,8,weak,-113,-31,1,0,0,response5disk,6,13,-13,0,1,0,0,rectangle,57,119,1,0,0,7,7,2.632,10,-7,1,0,0,0,12,12,161,1,1,response1disk_3,rectangle,,,,,,,,,,,,,,,,,,,
,,,,,,,,,,,,,,,,,,,,,,,,,,,,,,,,,,,,,,,,,,605c7bd2d23cc89750cd22f6,606c0cd4762c7ea6fb9fda31,2021-04-06_09h25.34.770,Colour_Similarity_Experiment,2020.2.10,Win32,60,6067542a4a25243f4d7d4fcf,18.08333333,16.68725869,16.68095238,16.6801854,16.67186441,16.68095238,,,,,,,,,,,,,,,,,,,,PF,strong,3,,,,,,,,5,2.5,,,,,,,,,,,,,,,,,,,,,,,,,,,,1,strong,117,-26,1,0,0,response3disk,7,14,-10,-7,1,0,0,rectangle,-10,-7,1,0,0,7,3,0.002,-10,-7,1,0,0,0,13,13,137,1,0,,,,,,,,,,,,,,,,,,,,,
,,,,,,,,,,,,,,,,,,,,,,,,,,,,,,,,,,,,,,,,,,605c7bd2d23cc89750cd22f6,606c0cd4762c7ea6fb9fda31,2021-04-06_09h25.34.770,Colour_Similarity_Experiment,2020.2.10,Win32,60,6067542a4a25243f4d7d4fcf,18.08333333,16.68725869,16.68095238,16.6801854,16.67186441,16.68095238,,,,,,,,,,,,,,,,,,,,PF,strong,3,,,,,,,,6,3.349,,,,,,,,,,,,,,,,,,,,,,,,,,,,2,strong,113,42,1,0,0,response1disk,8,15,3,-6,1,0,0,rectangle,3,-6,1,0,0,7,3,0,3,-6,1,0,0,0,14,14,62,1,0,,,,,,,,,,,,,,,,,,,,,
,,,,,,,,,,,,,,,,,,,,,,,,,,,,,,,,,,,,,,,,,,605c7bd2d23cc89750cd22f6,606c0cd4762c7ea6fb9fda31,2021-04-06_09h25.34.770,Colour_Similarity_Experiment,2020.2.10,Win32,60,6067542a4a25243f4d7d4fcf,18.08333333,16.68725869,16.68095238,16.6801854,16.67186441,16.68095238,,,,,,,,,,,,,,,,,,,,PF,weak,3,,,,,,,,5,2.148,,,,,,,,,,,,,,,,,,,,,,,,,,,,7,weak,108,-53,1,0,0,response3disk,3,16,14,-13,1,0,0,rectangle,14,-13,1,0,0,7,1,0.001,14,-13,1,0,0,0,15,15,81,1,0,,,,,,,,,,,,,,,,,,,,,
,,,,,,,,,,,,,,,,,,,,,,,,,,,,,,,,,,,,,,,,,,605c7bd2d23cc89750cd22f6,606c0cd4762c7ea6fb9fda31,2021-04-06_09h25.34.770,Colour_Similarity_Experiment,2020.2.10,Win32,60,6067542a4a25243f4d7d4fcf,18.08333333,16.68725869,16.68095238,16.6801854,16.67186441,16.68095238,,,,,,,,,,,,,,,,,,,,PF,strong,3,,,,,,,,2,1.799,,,,,,,,,,,,,,,,,,,,,,,,,,,,5,strong,-78,-32,1,0,0,response5disk,4,17,-9,0,1,0,0,rectangle,-9,0,1,0,0,7,0,0.001,-9,0,1,0,0,0,16,16,8,1,0,,,,,,,,,,,,,,,,,,,,,
,,,,,,,,,,,,,,,,,,,,,,,,,,,,,,,,,,,,,,,,,,605c7bd2d23cc89750cd22f6,606c0cd4762c7ea6fb9fda31,2021-04-06_09h25.34.770,Colour_Similarity_Experiment,2020.2.10,Win32,60,6067542a4a25243f4d7d4fcf,18.08333333,16.68725869,16.68095238,16.6801854,16.67186441,16.68095238,,,,,,,,,,,,,,,,,,,,PF,weak,3,,,,,,,,7,2.116,,,,,,,,,,,,,,,,,,,,,,,,,,,,1,weak,60,113,1,0,0,response1disk,4,18,-6,1,1,0,0,rectangle,-6,1,1,0,0,7,4,0.004,-6,1,1,0,0,0,17,17,139,1,0,,,,,,,,,,,,,,,,,,,,,
,,,,,,,,,,,,,,,,,,,,,,,,,,,,,,,,,,,,,,,,,,605c7bd2d23cc89750cd22f6,606c0cd4762c7ea6fb9fda31,2021-04-06_09h25.34.770,Colour_Similarity_Experiment,2020.2.10,Win32,60,6067542a4a25243f4d7d4fcf,18.08333333,16.68725869,16.68095238,16.6801854,16.67186441,16.68095238,,,,,,,,,,,,,,,,,,,,PF,weak,3,,,,,,,,7,1.765,,,,,,,,,,,,,,,,,,,,,,,,,,,,2,weak,82,128,1,0,0,response1disk,7,19,1,-5,1,0,0,rectangle,1,-5,1,0,0,7,0,0.001,1,-5,1,0,0,0,18,18,107,1,0,,,,,,,,,,,,,,,,,,,,,
,,,,,,,,,,,,,,,,,,,,,,,,,,,,,,,,,,,,,,,,,,605c7bd2d23cc89750cd22f6,606c0cd4762c7ea6fb9fda31,2021-04-06_09h25.34.770,Colour_Similarity_Experiment,2020.2.10,Win32,60,6067542a4a25243f4d7d4fcf,18.08333333,16.68725869,16.68095238,16.6801854,16.67186441,16.68095238,,,,,,,,,,,,,,,,,,,,PF,weak,3,,,,,,,,3,1.9,,,,,,,,,,,,,,,,,,,,,,,,,,,,1,weak,-65,-107,1,0,0,response5disk,8,20,11,-12,1,0,0,rectangle,11,-12,1,0,0,7,2,0.001,11,-12,1,0,0,0,19,19,65,1,0,,,,,,,,,,,,,,,,,,,,,
,,,,,,,,,,,,,,,,,,,,,,,,,,,,,,,,,,,,,,,,,,605c7bd2d23cc89750cd22f6,606c0cd4762c7ea6fb9fda31,2021-04-06_09h25.34.770,Colour_Similarity_Experiment,2020.2.10,Win32,60,6067542a4a25243f4d7d4fcf,18.08333333,16.68725869,16.68095238,16.6801854,16.67186441,16.68095238,,,,,,,,,,,,,,,,,,,,PF,strong,3,,,,,,,,3,1.967,,,,,,,,,,,,,,,,,,,,,,,,,,,,7,strong,-47,-99,1,0,0,response5disk,9,21,-2,-6,1,0,0,rectangle,-2,-6,1,0,0,7,7,0.004,-2,-6,1,0,0,0,20,20,155,1,0,,,,,,,,,,,,,,,,,,,,,
,,,,,,,,,,,,,,,,,,,,,,,,,,,,,,,,,,,,,,,,,,605c7bd2d23cc89750cd22f6,606c0cd4762c7ea6fb9fda31,2021-04-06_09h25.34.770,Colour_Similarity_Experiment,2020.2.10,Win32,60,6067542a4a25243f4d7d4fcf,18.08333333,16.68725869,16.68095238,16.6801854,16.67186441,16.68095238,,,,,,,,,,,,,,,,,,,,PF,weak,3,,,,,,,,6,2.012,,,,,,,,,,,,,,,,,,,,,,,,,,,,2,weak,118,44,1,0,0,response1disk,6,22,9,5,1,0,0,rectangle,9,5,1,0,0,7,3,0.001,9,5,1,0,0,0,21,21,113,1,0,,,,,,,,,,,,,,,,,,,,,
,,,,,,,,,,,,,,,,,,,,,,,,,,,,,,,,,,,,,,,,,,605c7bd2d23cc89750cd22f6,606c0cd4762c7ea6fb9fda31,2021-04-06_09h25.34.770,Colour_Similarity_Experiment,2020.2.10,Win32,60,6067542a4a25243f4d7d4fcf,18.08333333,16.68725869,16.68095238,16.6801854,16.67186441,16.68095238,,,,,,,,,,,,,,,,,,,,PF,weak,3,,,,,,,,0,1.939,,,,,,,,,,,,,,,,,,,,,,,,,,,,3,weak,-84,121,1,0,0,response7disk,3,23,-14,5,1,0,0,rectangle,-14,5,1,0,0,7,4,0.005,-14,5,1,0,0,0,22,22,4,1,0,,,,,,,,,,,,,,,,,,,,,
,,,,,,,,,,,,,,,,,,,,,,,,,,,,,,,,,,,,,,,,,,605c7bd2d23cc89750cd22f6,606c0cd4762c7ea6fb9fda31,2021-04-06_09h25.34.770,Colour_Similarity_Experiment,2020.2.10,Win32,60,6067542a4a25243f4d7d4fcf,18.08333333,16.68725869,16.68095238,16.6801854,16.67186441,16.68095238,,,,,,,,,,,,,,,,,,,,PF,weak,3,,,,,,,,2,1.949,,,,,,,,,,,,,,,,,,,,,,,,,,,,4,weak,-98,-42,1,0,0,response5disk,3,24,-13,2,1,0,0,rectangle,-13,2,1,0,0,7,1,0.002,-13,2,1,0,0,0,23,23,89,1,0,,,,,,,,,,,,,,,,,,,,,
,,,,,,,,,,,,,,,,,,,,,,,,,,,,,,,,,,,,,,,,,,605c7bd2d23cc89750cd22f6,606c0cd4762c7ea6fb9fda31,2021-04-06_09h25.34.770,Colour_Similarity_Experiment,2020.2.10,Win32,60,6067542a4a25243f4d7d4fcf,18.08333333,16.68725869,16.68095238,16.6801854,16.67186441,16.68095238,,,,,,,,,,,,,,,,,,,,PF,weak,3,,,,,,,,1,1.45,,,,,,,,,,,,,,,,,,,,,,,,,,,,2,weak,-96,39,1,0,0,response7disk,3,25,33,-8,1,0,0,rectangle,33,-8,1,0,0,7,6,0.003,33,-8,1,0,0,0,24,24,69,1,0,,,,,,,,,,,,,,,,,,,,,
,,,,,,,,,,,,,,,,,,,,,,,,,,,,,,,,,,,,,,,,,,605c7bd2d23cc89750cd22f6,606c0cd4762c7ea6fb9fda31,2021-04-06_09h25.34.770,Colour_Similarity_Experiment,2020.2.10,Win32,60,6067542a4a25243f4d7d4fcf,18.08333333,16.68725869,16.68095238,16.6801854,16.67186441,16.68095238,,,,,,,,,,,,,,,,,,,,PF,strong,3,,,,,,,,2,1.949,,,,,,,,,,,,,,,,,,,,,,,,,,,,9,strong,-76,-55,1,0,0,response5disk,8,26,-10,-10,1,0,0,rectangle,-10,-10,1,0,0,7,2,0.001,-10,-10,1,0,0,0,25,25,6,1,0,,,,,,,,,,,,,,,,,,,,,
,,,,,,,,,,,,,,,,,,,,,,,,,,,,,,,,,,,,,,,,,,605c7bd2d23cc89750cd22f6,606c0cd4762c7ea6fb9fda31,2021-04-06_09h25.34.770,Colour_Similarity_Experiment,2020.2.10,Win32,60,6067542a4a25243f4d7d4fcf,18.08333333,16.68725869,16.68095238,16.6801854,16.67186441,16.68095238,,,,,,,,,,,,,,,,,,,,PF,strong,3,,,,,,,,4,2.482,,,,,,,,,,,,,,,,,,,,,,,,,,,,7,strong,37,-99,1,0,0,response3disk,4,27,10,-14,1,0,0,rectangle,10,-14,1,0,0,7,5,0.002,10,-14,1,0,0,0,26,26,158,1,0,,,,,,,,,,,,,,,,,,,,,
,,,,,,,,,,,,,,,,,,,,,,,,,,,,,,,,,,,,,,,,,,605c7bd2d23cc89750cd22f6,606c0cd4762c7ea6fb9fda31,2021-04-06_09h25.34.770,Colour_Similarity_Experiment,2020.2.10,Win32,60,6067542a4a25243f4d7d4fcf,18.08333333,16.68725869,16.68095238,16.6801854,16.67186441,16.68095238,,,,,,,,,,,,,,,,,,,,PF,weak,3,,,,,,,,5,2.132,,,,,,,,,,,,,,,,,,,,,,,,,,,,2,weak,103,-38,1,0,0,response3disk,9,28,-28,-6,1,0,0,rectangle,-28,-6,1,0,0,7,4,0.005,-28,-6,1,0,0,0,27,27,39,1,0,,,,,,,,,,,,,,,,,,,,,
,,,,,,,,,,,,,,,,,,,,,,,,,,,,,,,,,,,,,,,,,,605c7bd2d23cc89750cd22f6,606c0cd4762c7ea6fb9fda31,2021-04-06_09h25.34.770,Colour_Similarity_Experiment,2020.2.10,Win32,60,6067542a4a25243f4d7d4fcf,18.08333333,16.68725869,16.68095238,16.6801854,16.67186441,16.68095238,,,,,,,,,,,,,,,,,,,,PF,weak,3,,,,,,,,4,5.981,,,,,,,,,,,,,,,,,,,,,,,,,,,,7,weak,42,-105,1,0,0,response3disk,4,29,13,-7,1,0,0,rectangle,13,-7,1,0,0,7,5,0.002,13,-7,1,0,0,0,28,28,43,1,0,,,,,,,,,,,,,,,,,,,,,
,,,,,,,,,,,,,,,,,,,,,,,,,,,,,,,,,,,,,,,,,,605c7bd2d23cc89750cd22f6,606c0cd4762c7ea6fb9fda31,2021-04-06_09h25.34.770,Colour_Similarity_Experiment,2020.2.10,Win32,60,6067542a4a25243f4d7d4fcf,18.08333333,16.68725869,16.68095238,16.6801854,16.67186441,16.68095238,,,,,,,,,,,,,,,,,,,,PF,weak,3,,,,,,,,0,1.533,,,,,,,,,,,,,,,,,,,,,,,,,,,,7,weak,-75,122,1,0,0,response7disk,7,30,-12,7,1,0,0,rectangle,-12,7,1,0,0,7,6,0.002,-12,7,1,0,0,0,29,29,51,1,0,,,,,,,,,,,,,,,,,,,,,
,,,,,,,,,,,,,,,,,,,,,,,,,,,,,,,,,,,,,,,,,,605c7bd2d23cc89750cd22f6,606c0cd4762c7ea6fb9fda31,2021-04-06_09h25.34.770,Colour_Similarity_Experiment,2020.2.10,Win32,60,6067542a4a25243f4d7d4fcf,18.08333333,16.68725869,16.68095238,16.6801854,16.67186441,16.68095238,,,,,,,,,,,,,,,,,,,,PF,weak,3,,,,,,,,5,2.45,,,,,,,,,,,,,,,,,,,,,,,,,,,,9,weak,68,-40,1,0,0,response3disk,2,31,-11,10,1,0,0,rectangle,-11,10,1,0,0,7,7,0.002,-11,10,1,0,0,0,30,30,157,1,0,,,,,,,,,,,,,,,,,,,,,
,,,,,,,,,,,,,,,,,,,,,,,,,,,,,,,,,,,,,,,,,,605c7bd2d23cc89750cd22f6,606c0cd4762c7ea6fb9fda31,2021-04-06_09h25.34.770,Colour_Similarity_Experiment,2020.2.10,Win32,60,6067542a4a25243f4d7d4fcf,18.08333333,16.68725869,16.68095238,16.6801854,16.67186441,16.68095238,,,,,,,,,,,,,,,,,,,,PF,weak,3,,,,,,,,3,1.6,,,,,,,,,,,,,,,,,,,,,,,,,,,,3,weak,-67,-89,1,0,0,response5disk,5,32,-1,-4,1,0,0,rectangle,-1,-4,1,0,0,7,6,0.001,-1,-4,1,0,0,0,31,31,66,1,0,,,,,,,,,,,,,,,,,,,,,
,,,,,,,,,,,,,,,,,,,,,,,,,,,,,,,,,,,,,,,,,,605c7bd2d23cc89750cd22f6,606c0cd4762c7ea6fb9fda31,2021-04-06_09h25.34.770,Colour_Similarity_Experiment,2020.2.10,Win32,60,6067542a4a25243f4d7d4fcf,18.08333333,16.68725869,16.68095238,16.6801854,16.67186441,16.68095238,,,,,,,,,,,,,,,,,,,,PF,weak,3,,,,,,,,4,2.7,,,,,,,,,,,,,,,,,,,,,,,,,,,,5,weak,67,-96,1,0,0,response3disk,2,33,11,-6,1,0,0,rectangle,11,-6,1,0,0,7,6,0,11,-6,1,0,0,0,32,32,129,1,0,,,,,,,,,,,,,,,,,,,,,
,,,,,,,,,,,,,,,,,,,,,,,,,,,,,,,,,,,,,,,,,,605c7bd2d23cc89750cd22f6,606c0cd4762c7ea6fb9fda31,2021-04-06_09h25.34.770,Colour_Similarity_Experiment,2020.2.10,Win32,60,6067542a4a25243f4d7d4fcf,18.08333333,16.68725869,16.68095238,16.6801854,16.67186441,16.68095238,,,,,,,,,,,,,,,,,,,,PF,strong,3,,,,,,,,3,1.649,,,,,,,,,,,,,,,,,,,,,,,,,,,,5,strong,-59,-81,1,0,0,response5disk,8,34,2,-12,1,0,0,rectangle,2,-12,1,0,0,7,5,0.003,2,-12,1,0,0,0,33,33,16,1,0,,,,,,,,,,,,,,,,,,,,,
,,,,,,,,,,,,,,,,,,,,,,,,,,,,,,,,,,,,,,,,,,605c7bd2d23cc89750cd22f6,606c0cd4762c7ea6fb9fda31,2021-04-06_09h25.34.770,Colour_Similarity_Experiment,2020.2.10,Win32,60,6067542a4a25243f4d7d4fcf,18.08333333,16.68725869,16.68095238,16.6801854,16.67186441,16.68095238,,,,,,,,,,,,,,,,,,,,PF,weak,3,,,,,,,,1,1.766,,,,,,,,,,,,,,,,,,,,,,,,,,,,5,weak,-60,33,1,0,0,response7disk,5,35,-14,-8,1,0,0,rectangle,-14,-8,1,0,0,7,1,0.005,-14,-8,1,0,0,0,34,34,94,1,0,,,,,,,,,,,,,,,,,,,,,
,,,,,,,,,,,,,,,,,,,,,,,,,,,,,,,,,,,,,,,,,,605c7bd2d23cc89750cd22f6,606c0cd4762c7ea6fb9fda31,2021-04-06_09h25.34.770,Colour_Similarity_Experiment,2020.2.10,Win32,60,6067542a4a25243f4d7d4fcf,18.08333333,16.68725869,16.68095238,16.6801854,16.67186441,16.68095238,,,,,,,,,,,,,,,,,,,,PF,strong,3,,,,,,,,1,1.832,,,,,,,,,,,,,,,,,,,,,,,,,,,,7,strong,-79,37,1,0,0,response7disk,7,36,3,-7,1,0,0,rectangle,3,-7,1,0,0,7,2,0.001,3,-7,1,0,0,0,35,35,34,1,0,,,,,,,,,,,,,,,,,,,,,
,,,,,,,,,,,,,,,,,,,,,,,,,,,,,,,,,,,,,,,,,,605c7bd2d23cc89750cd22f6,606c0cd4762c7ea6fb9fda31,2021-04-06_09h25.34.770,Colour_Similarity_Experiment,2020.2.10,Win32,60,6067542a4a25243f4d7d4fcf,18.08333333,16.68725869,16.68095238,16.6801854,16.67186441,16.68095238,,,,,,,,,,,,,,,,,,,,PF,weak,3,,,,,,,,0,1.25,,,,,,,,,,,,,,,,,,,,,,,,,,,,6,weak,-45,115,1,0,0,response7disk,6,37,-3,1,1,0,0,rectangle,-3,1,1,0,0,7,3,0.001,-3,1,1,0,0,0,36,36,0,1,0,,,,,,,,,,,,,,,,,,,,,
,,,,,,,,,,,,,,,,,,,,,,,,,,,,,,,,,,,,,,,,,,605c7bd2d23cc89750cd22f6,606c0cd4762c7ea6fb9fda31,2021-04-06_09h25.34.770,Colour_Similarity_Experiment,2020.2.10,Win32,60,6067542a4a25243f4d7d4fcf,18.08333333,16.68725869,16.68095238,16.6801854,16.67186441,16.68095238,,,,,,,,,,,,,,,,,,,,PF,weak,3,,,,,,,,6,1.833,,,,,,,,,,,,,,,,,,,,,,,,,,,,6,weak,106,41,1,0,0,response1disk,3,38,5,0,1,0,0,rectangle,5,0,1,0,0,7,6,0.003,5,0,1,0,0,0,37,37,26,1,0,,,,,,,,,,,,,,,,,,,,,
,,,,,,,,,,,,,,,,,,,,,,,,,,,,,,,,,,,,,,,,,,605c7bd2d23cc89750cd22f6,606c0cd4762c7ea6fb9fda31,2021-04-06_09h25.34.770,Colour_Similarity_Experiment,2020.2.10,Win32,60,6067542a4a25243f4d7d4fcf,18.08333333,16.68725869,16.68095238,16.6801854,16.67186441,16.68095238,,,,,,,,,,,,,,,,,,,,PF,strong,3,,,,,,,,2,1.483,,,,,,,,,,,,,,,,,,,,,,,,,,,,3,strong,-86,-44,1,0,0,response5disk,4,39,6,5,1,0,0,rectangle,6,5,1,0,0,7,6,0,6,5,1,0,0,0,38,38,110,1,0,,,,,,,,,,,,,,,,,,,,,
,,,,,,,,,,,,,,,,,,,,,,,,,,,,,,,,,,,,,,,,,,605c7bd2d23cc89750cd22f6,606c0cd4762c7ea6fb9fda31,2021-04-06_09h25.34.770,Colour_Similarity_Experiment,2020.2.10,Win32,60,6067542a4a25243f4d7d4fcf,18.08333333,16.68725869,16.68095238,16.6801854,16.67186441,16.68095238,,,,,,,,,,,,,,,,,,,,PF,strong,3,,,,,,,,2,2.733,,,,,,,,,,,,,,,,,,,,,,,,,,,,8,strong,-85,-28,1,0,0,response5disk,9,40,-10,4,1,0,0,rectangle,-10,4,1,0,0,7,3,0.002,-10,4,1,0,0,0,39,39,105,1,0,,,,,,,,,,,,,,,,,,,,,
,,,,,,,,,,,,,,,,,,,,,,,,,,,,,,,,,,,,,,,,,,605c7bd2d23cc89750cd22f6,606c0cd4762c7ea6fb9fda31,2021-04-06_09h25.34.770,Colour_Similarity_Experiment,2020.2.10,Win32,60,6067542a4a25243f4d7d4fcf,18.08333333,16.68725869,16.68095238,16.6801854,16.67186441,16.68095238,,,,,,,,,,,,,,,,,,,,PF,weak,3,,,,,,,,3,2.316,,,,,,,,,,,,,,,,,,,,,,,,,,,,5,weak,-77,-132,1,0,0,response5disk,7,41,-4,-3,1,0,0,rectangle,-4,-3,1,0,0,7,1,0.003,-4,-3,1,0,0,0,40,40,146,1,0,,,,,,,,,,,,,,,,,,,,,
,,,,,,,,,,,,,,,,,,,,,,,,,,,,,,,,,,,,,,,,,,605c7bd2d23cc89750cd22f6,606c0cd4762c7ea6fb9fda31,2021-04-06_09h25.34.770,Colour_Similarity_Experiment,2020.2.10,Win32,60,6067542a4a25243f4d7d4fcf,18.08333333,16.68725869,16.68095238,16.6801854,16.67186441,16.68095238,,,,,,,,,,,,,,,,,,,,PF,strong,3,,,,,,,,3,1.149,,,,,,,,,,,,,,,,,,,,,,,,,,,,5,strong,-50,-88,1,0,0,response5disk,7,42,-11,-17,1,0,0,rectangle,-11,-17,1,0,0,7,5,0.002,-11,-17,1,0,0,0,41,41,7,1,0,,,,,,,,,,,,,,,,,,,,,
,,,,,,,,,,,,,,,,,,,,,,,,,,,,,,,,,,,,,,,,,,605c7bd2d23cc89750cd22f6,606c0cd4762c7ea6fb9fda31,2021-04-06_09h25.34.770,Colour_Similarity_Experiment,2020.2.10,Win32,60,6067542a4a25243f4d7d4fcf,18.08333333,16.68725869,16.68095238,16.6801854,16.67186441,16.68095238,,,,,,,,,,,,,,,,,,,,PF,strong,3,,,,,,,,4,1.982,,,,,,,,,,,,,,,,,,,,,,,,,,,,6,strong,45,-92,1,0,0,response3disk,9,43,18,-7,1,0,0,rectangle,-47,113,1,0,0,0,0,1.649,-3,-6,1,0,0,0,42,42,160,1,1,response7disk_3,rectangle,,,,,,,,,,,,,,,,,,,
,,,,,,,,,,,,,,,,,,,,,,,,,,,,,,,,,,,,,,,,,,605c7bd2d23cc89750cd22f6,606c0cd4762c7ea6fb9fda31,2021-04-06_09h25.34.770,Colour_Similarity_Experiment,2020.2.10,Win32,60,6067542a4a25243f4d7d4fcf,18.08333333,16.68725869,16.68095238,16.6801854,16.67186441,16.68095238,,,,,,,,,,,,,,,,,,,,PF,weak,3,,,,,,,,4,2.215,,,,,,,,,,,,,,,,,,,,,,,,,,,,4,weak,69,-97,1,0,0,response3disk,2,44,5,6,1,0,0,rectangle,5,6,1,0,0,0,4,0.001,5,6,1,0,0,0,43,43,108,1,0,,,,,,,,,,,,,,,,,,,,,
,,,,,,,,,,,,,,,,,,,,,,,,,,,,,,,,,,,,,,,,,,605c7bd2d23cc89750cd22f6,606c0cd4762c7ea6fb9fda31,2021-04-06_09h25.34.770,Colour_Similarity_Experiment,2020.2.10,Win32,60,6067542a4a25243f4d7d4fcf,18.08333333,16.68725869,16.68095238,16.6801854,16.67186441,16.68095238,,,,,,,,,,,,,,,,,,,,PF,weak,3,,,,,,,,6,2.049,,,,,,,,,,,,,,,,,,,,,,,,,,,,5,weak,103,40,1,0,0,response1disk,1,45,13,8,1,0,0,rectangle,-44,115,1,0,0,0,0,1.617,2,-5,1,0,0,0,44,44,159,1,1,response7disk_3,rectangle,,,,,,,,,,,,,,,,,,,
,,,,,,,,,,,,,,,,,,,,,,,,,,,,,,,,,,,,,,,,,,605c7bd2d23cc89750cd22f6,606c0cd4762c7ea6fb9fda31,2021-04-06_09h25.34.770,Colour_Similarity_Experiment,2020.2.10,Win32,60,6067542a4a25243f4d7d4fcf,18.08333333,16.68725869,16.68095238,16.6801854,16.67186441,16.68095238,,,,,,,,,,,,,,,,,,,,PF,strong,3,,,,,,,,4,2.282,,,,,,,,,,,,,,,,,,,,,,,,,,,,9,strong,52,-115,1,0,0,response3disk,5,46,-13,2,1,0,0,rectangle,-13,2,1,0,0,0,2,0.005,-13,2,1,0,0,0,45,45,128,1,0,,,,,,,,,,,,,,,,,,,,,
,,,,,,,,,,,,,,,,,,,,,,,,,,,,,,,,,,,,,,,,,,605c7bd2d23cc89750cd22f6,606c0cd4762c7ea6fb9fda31,2021-04-06_09h25.34.770,Colour_Similarity_Experiment,2020.2.10,Win32,60,6067542a4a25243f4d7d4fcf,18.08333333,16.68725869,16.68095238,16.6801854,16.67186441,16.68095238,,,,,,,,,,,,,,,,,,,,PF,strong,3,,,,,,,,4,3.565,,,,,,,,,,,,,,,,,,,,,,,,,,,,7,strong,53,-128,1,0,0,response3disk,3,47,2,3,1,0,0,rectangle,2,3,1,0,0,0,7,0.001,2,3,1,0,0,0,46,46,73,1,0,,,,,,,,,,,,,,,,,,,,,
,,,,,,,,,,,,,,,,,,,,,,,,,,,,,,,,,,,,,,,,,,605c7bd2d23cc89750cd22f6,606c0cd4762c7ea6fb9fda31,2021-04-06_09h25.34.770,Colour_Similarity_Experiment,2020.2.10,Win32,60,6067542a4a25243f4d7d4fcf,18.08333333,16.68725869,16.68095238,16.6801854,16.67186441,16.68095238,,,,,,,,,,,,,,,,,,,,PF,weak,3,,,,,,,,6,2.649,,,,,,,,,,,,,,,,,,,,,,,,,,,,6,weak,96,65,1,0,0,response1disk,1,48,9,-13,1,0,0,rectangle,9,-13,1,0,0,0,5,0.001,9,-13,1,0,0,0,47,47,46,1,0,,,,,,,,,,,,,,,,,,,,,
,,,,,,,,,,,,,,,,,,,,,,,,,,,,,,,,,,,,,,,,,,605c7bd2d23cc89750cd22f6,606c0cd4762c7ea6fb9fda31,2021-04-06_09h25.34.770,Colour_Similarity_Experiment,2020.2.10,Win32,60,6067542a4a25243f4d7d4fcf,18.08333333,16.68725869,16.68095238,16.6801854,16.67186441,16.68095238,,,,,,,,,,,,,,,,,,,,PF,weak,3,,,,,,,,3,1.666,,,,,,,,,,,,,,,,,,,,,,,,,,,,7,weak,-83,-99,1,0,0,response5disk,5,49,1,-15,1,0,0,rectangle,1,-15,1,0,0,0,6,0.003,1,-15,1,0,0,0,48,48,92,1,0,,,,,,,,,,,,,,,,,,,,,
,,,,,,,,,,,,,,,,,,,,,,,,,,,,,,,,,,,,,,,,,,605c7bd2d23cc89750cd22f6,606c0cd4762c7ea6fb9fda31,2021-04-06_09h25.34.770,Colour_Similarity_Experiment,2020.2.10,Win32,60,6067542a4a25243f4d7d4fcf,18.08333333,16.68725869,16.68095238,16.6801854,16.67186441,16.68095238,,,,,,,,,,,,,,,,,,,,PF,strong,3,,,,,,,,4,1.766,,,,,,,,,,,,,,,,,,,,,,,,,,,,4,strong,38,-96,1,0,0,response3disk,7,50,12,-15,1,0,0,rectangle,12,-15,1,0,0,0,1,0.002,12,-15,1,0,0,0,49,49,87,1,0,,,,,,,,,,,,,,,,,,,,,
,,,,,,,,,,,,,,,,,,,,,,,,,,,,,,,,,,,,,,,,,,605c7bd2d23cc89750cd22f6,606c0cd4762c7ea6fb9fda31,2021-04-06_09h25.34.770,Colour_Similarity_Experiment,2020.2.10,Win32,60,6067542a4a25243f4d7d4fcf,18.08333333,16.68725869,16.68095238,16.6801854,16.67186441,16.68095238,,,,,,,,,,,,,,,,,,,,PF,weak,3,,,,,,,,7,1.549,,,,,,,,,,,,,,,,,,,,,,,,,,,,9,weak,72,133,1,0,0,response1disk,3,51,16,2,1,0,0,rectangle,16,2,1,0,0,0,2,0,16,2,1,0,0,0,50,50,119,1,0,,,,,,,,,,,,,,,,,,,,,
,,,,,,,,,,,,,,,,,,,,,,,,,,,,,,,,,,,,,,,,,,605c7bd2d23cc89750cd22f6,606c0cd4762c7ea6fb9fda31,2021-04-06_09h25.34.770,Colour_Similarity_Experiment,2020.2.10,Win32,60,6067542a4a25243f4d7d4fcf,18.08333333,16.68725869,16.68095238,16.6801854,16.67186441,16.68095238,,,,,,,,,,,,,,,,,,,,PF,strong,3,,,,,,,,6,2.315,,,,,,,,,,,,,,,,,,,,,,,,,,,,8,strong,102,40,1,0,0,response1disk,1,52,8,-8,1,0,0,rectangle,8,-8,1,0,0,0,2,0.001,8,-8,1,0,0,0,51,51,20,1,0,,,,,,,,,,,,,,,,,,,,,
,,,,,,,,,,,,,,,,,,,,,,,,,,,,,,,,,,,,,,,,,,605c7bd2d23cc89750cd22f6,606c0cd4762c7ea6fb9fda31,2021-04-06_09h25.34.770,Colour_Similarity_Experiment,2020.2.10,Win32,60,6067542a4a25243f4d7d4fcf,18.08333333,16.68725869,16.68095238,16.6801854,16.67186441,16.68095238,,,,,,,,,,,,,,,,,,,,PF,strong,3,,,,,,,,4,3.533,,,,,,,,,,,,,,,,,,,,,,,,,,,,8,strong,75,-90,1,0,0,response3disk,7,53,0,-12,1,0,0,rectangle,0,-12,1,0,0,0,3,0.001,0,-12,1,0,0,0,52,52,86,1,0,,,,,,,,,,,,,,,,,,,,,
,,,,,,,,,,,,,,,,,,,,,,,,,,,,,,,,,,,,,,,,,,605c7bd2d23cc89750cd22f6,606c0cd4762c7ea6fb9fda31,2021-04-06_09h25.34.770,Colour_Similarity_Experiment,2020.2.10,Win32,60,6067542a4a25243f4d7d4fcf,18.08333333,16.68725869,16.68095238,16.6801854,16.67186441,16.68095238,,,,,,,,,,,,,,,,,,,,PF,strong,3,,,,,,,,2,1.732,,,,,,,,,,,,,,,,,,,,,,,,,,,,3,strong,-91,-32,1,0,0,response5disk,2,54,-7,6,1,0,0,rectangle,-7,6,1,0,0,0,0,0.002,-7,6,1,0,0,0,53,53,93,1,0,,,,,,,,,,,,,,,,,,,,,
,,,,,,,,,,,,,,,,,,,,,,,,,,,,,,,,,,,,,,,,,,605c7bd2d23cc89750cd22f6,606c0cd4762c7ea6fb9fda31,2021-04-06_09h25.34.770,Colour_Similarity_Experiment,2020.2.10,Win32,60,6067542a4a25243f4d7d4fcf,18.08333333,16.68725869,16.68095238,16.6801854,16.67186441,16.68095238,,,,,,,,,,,,,,,,,,,,PF,strong,3,,,,,,,,6,1.449,,,,,,,,,,,,,,,,,,,,,,,,,,,,3,strong,79,43,1,0,0,response1disk,6,55,10,4,1,0,0,rectangle,10,4,1,0,0,0,0,0,10,4,1,0,0,0,54,54,95,1,0,,,,,,,,,,,,,,,,,,,,,
,,,,,,,,,,,,,,,,,,,,,,,,,,,,,,,,,,,,,,,,,,605c7bd2d23cc89750cd22f6,606c0cd4762c7ea6fb9fda31,2021-04-06_09h25.34.770,Colour_Similarity_Experiment,2020.2.10,Win32,60,6067542a4a25243f4d7d4fcf,18.08333333,16.68725869,16.68095238,16.6801854,16.67186441,16.68095238,,,,,,,,,,,,,,,,,,,,PF,strong,3,,,,,,,,4,1.299,,,,,,,,,,,,,,,,,,,,,,,,,,,,9,strong,35,-71,1,0,0,response3disk,6,56,-4,-4,1,0,0,rectangle,-4,-4,1,0,0,0,6,0.002,-4,-4,1,0,0,0,55,55,117,1,0,,,,,,,,,,,,,,,,,,,,,
,,,,,,,,,,,,,,,,,,,,,,,,,,,,,,,,,,,,,,,,,,605c7bd2d23cc89750cd22f6,606c0cd4762c7ea6fb9fda31,2021-04-06_09h25.34.770,Colour_Similarity_Experiment,2020.2.10,Win32,60,6067542a4a25243f4d7d4fcf,18.08333333,16.68725869,16.68095238,16.6801854,16.67186441,16.68095238,,,,,,,,,,,,,,,,,,,,PF,weak,3,,,,,,,,6,1.333,,,,,,,,,,,,,,,,,,,,,,,,,,,,6,weak,114,65,1,0,0,response1disk,2,57,-7,-6,1,0,0,rectangle,-7,-6,1,0,0,0,6,0,-7,-6,1,0,0,0,56,56,130,1,0,,,,,,,,,,,,,,,,,,,,,
,,,,,,,,,,,,,,,,,,,,,,,,,,,,,,,,,,,,,,,,,,605c7bd2d23cc89750cd22f6,606c0cd4762c7ea6fb9fda31,2021-04-06_09h25.34.770,Colour_Similarity_Experiment,2020.2.10,Win32,60,6067542a4a25243f4d7d4fcf,18.08333333,16.68725869,16.68095238,16.6801854,16.67186441,16.68095238,,,,,,,,,,,,,,,,,,,,PF,weak,3,,,,,,,,5,1.499,,,,,,,,,,,,,,,,,,,,,,,,,,,,1,weak,96,-32,1,0,0,response3disk,7,58,1,1,1,0,0,rectangle,1,1,1,0,0,0,6,0,1,1,1,0,0,0,57,57,150,1,0,,,,,,,,,,,,,,,,,,,,,
,,,,,,,,,,,,,,,,,,,,,,,,,,,,,,,,,,,,,,,,,,605c7bd2d23cc89750cd22f6,606c0cd4762c7ea6fb9fda31,2021-04-06_09h25.34.770,Colour_Similarity_Experiment,2020.2.10,Win32,60,6067542a4a25243f4d7d4fcf,18.08333333,16.68725869,16.68095238,16.6801854,16.67186441,16.68095238,,,,,,,,,,,,,,,,,,,,PF,weak,3,,,,,,,,2,2.832,,,,,,,,,,,,,,,,,,,,,,,,,,,,7,weak,-109,-39,1,0,0,response5disk,8,59,1,1,1,0,0,rectangle,1,1,1,0,0,0,6,0.001,1,1,1,0,0,0,58,58,140,1,0,,,,,,,,,,,,,,,,,,,,,
,,,,,,,,,,,,,,,,,,,,,,,,,,,,,,,,,,,,,,,,,,605c7bd2d23cc89750cd22f6,606c0cd4762c7ea6fb9fda31,2021-04-06_09h25.34.770,Colour_Similarity_Experiment,2020.2.10,Win32,60,6067542a4a25243f4d7d4fcf,18.08333333,16.68725869,16.68095238,16.6801854,16.67186441,16.68095238,,,,,,,,,,,,,,,,,,,,PF,weak,3,,,,,,,,4,6.18,,,,,,,,,,,,,,,,,,,,,,,,,,,,4,weak,42,-124,1,0,0,response3disk,7,60,-11,-7,1,0,0,rectangle,-11,-7,1,0,0,0,4,0.001,-11,-7,1,0,0,0,59,59,38,1,0,,,,,,,,,,,,,,,,,,,,,
,,,,,,,,,,,,,,,,,,,,,,,,,,,,,,,,,,,,,,,,,,605c7bd2d23cc89750cd22f6,606c0cd4762c7ea6fb9fda31,2021-04-06_09h25.34.770,Colour_Similarity_Experiment,2020.2.10,Win32,60,6067542a4a25243f4d7d4fcf,18.08333333,16.68725869,16.68095238,16.6801854,16.67186441,16.68095238,,,,,,,,,,,,,,,,,,,,PF,weak,3,,,,,,,,7,1.767,,,,,,,,,,,,,,,,,,,,,,,,,,,,4,weak,60,120,1,0,0,response1disk,8,61,-8,-5,1,0,0,rectangle,-8,-5,1,0,0,0,1,0.002,-8,-5,1,0,0,0,60,60,124,1,0,,,,,,,,,,,,,,,,,,,,,
,,,,,,,,,,,,,,,,,,,,,,,,,,,,,,,,,,,,,,,,,,605c7bd2d23cc89750cd22f6,606c0cd4762c7ea6fb9fda31,2021-04-06_09h25.34.770,Colour_Similarity_Experiment,2020.2.10,Win32,60,6067542a4a25243f4d7d4fcf,18.08333333,16.68725869,16.68095238,16.6801854,16.67186441,16.68095238,,,,,,,,,,,,,,,,,,,,PF,strong,3,,,,,,,,7,8.38,,,,,,,,,,,,,,,,,,,,,,,,,,,,6,strong,64,118,1,0,0,response1disk,2,62,-8,-8,1,0,0,rectangle,-8,-8,1,0,0,0,1,0,-8,-8,1,0,0,0,61,61,112,1,0,,,,,,,,,,,,,,,,,,,,,
,,,,,,,,,,,,,,,,,,,,,,,,,,,,,,,,,,,,,,,,,,605c7bd2d23cc89750cd22f6,606c0cd4762c7ea6fb9fda31,2021-04-06_09h25.34.770,Colour_Similarity_Experiment,2020.2.10,Win32,60,6067542a4a25243f4d7d4fcf,18.08333333,16.68725869,16.68095238,16.6801854,16.67186441,16.68095238,,,,,,,,,,,,,,,,,,,,PF,weak,3,,,,,,,,2,1.784,,,,,,,,,,,,,,,,,,,,,,,,,,,,9,weak,-134,-46,1,0,0,response5disk,8,63,-6,-1,1,0,0,rectangle,-6,-1,1,0,0,0,1,0,-6,-1,1,0,0,0,62,62,67,1,0,,,,,,,,,,,,,,,,,,,,,
,,,,,,,,,,,,,,,,,,,,,,,,,,,,,,,,,,,,,,,,,,605c7bd2d23cc89750cd22f6,606c0cd4762c7ea6fb9fda31,2021-04-06_09h25.34.770,Colour_Similarity_Experiment,2020.2.10,Win32,60,6067542a4a25243f4d7d4fcf,18.08333333,16.68725869,16.68095238,16.6801854,16.67186441,16.68095238,,,,,,,,,,,,,,,,,,,,PF,weak,3,,,,,,,,2,1.283,,,,,,,,,,,,,,,,,,,,,,,,,,,,8,weak,-93,-34,1,0,0,response5disk,9,64,9,3,1,0,0,rectangle,9,3,1,0,0,0,5,0.001,9,3,1,0,0,0,63,63,42,1,0,,,,,,,,,,,,,,,,,,,,,
,,,,,,,,,,,,,,,,,,,,,,,,,,,,,,,,,,,,,,,,,,605c7bd2d23cc89750cd22f6,606c0cd4762c7ea6fb9fda31,2021-04-06_09h25.34.770,Colour_Similarity_Experiment,2020.2.10,Win32,60,6067542a4a25243f4d7d4fcf,18.08333333,16.68725869,16.68095238,16.6801854,16.67186441,16.68095238,,,,,,,,,,,,,,,,,,,,PF,strong,3,,,,,,,,6,1.583,,,,,,,,,,,,,,,,,,,,,,,,,,,,5,strong,114,47,1,0,0,response1disk,1,65,11,3,1,0,0,rectangle,11,3,1,0,0,0,6,0,11,3,1,0,0,0,64,64,131,1,0,,,,,,,,,,,,,,,,,,,,,
,,,,,,,,,,,,,,,,,,,,,,,,,,,,,,,,,,,,,,,,,,605c7bd2d23cc89750cd22f6,606c0cd4762c7ea6fb9fda31,2021-04-06_09h25.34.770,Colour_Similarity_Experiment,2020.2.10,Win32,60,6067542a4a25243f4d7d4fcf,18.08333333,16.68725869,16.68095238,16.6801854,16.67186441,16.68095238,,,,,,,,,,,,,,,,,,,,PF,strong,3,,,,,,,,7,1.55,,,,,,,,,,,,,,,,,,,,,,,,,,,,2,strong,58,113,1,0,0,response1disk,6,66,18,-5,1,0,0,rectangle,18,-5,1,0,0,0,3,0.001,18,-5,1,0,0,0,65,65,40,1,0,,,,,,,,,,,,,,,,,,,,,
,,,,,,,,,,,,,,,,,,,,,,,,,,,,,,,,,,,,,,,,,,605c7bd2d23cc89750cd22f6,606c0cd4762c7ea6fb9fda31,2021-04-06_09h25.34.770,Colour_Similarity_Experiment,2020.2.10,Win32,60,6067542a4a25243f4d7d4fcf,18.08333333,16.68725869,16.68095238,16.6801854,16.67186441,16.68095238,,,,,,,,,,,,,,,,,,,,PF,strong,3,,,,,,,,3,2.933,,,,,,,,,,,,,,,,,,,,,,,,,,,,2,strong,-38,-104,1,0,0,response5disk,3,67,-2,-3,1,0,0,rectangle,37,-106,1,0,0,4,4,2.365,-6,-3,1,0,0,0,66,66,104,1,1,response3disk_3,rectangle,,,,,,,,,,,,,,,,,,,
,,,,,,,,,,,,,,,,,,,,,,,,,,,,,,,,,,,,,,,,,,605c7bd2d23cc89750cd22f6,606c0cd4762c7ea6fb9fda31,2021-04-06_09h25.34.770,Colour_Similarity_Experiment,2020.2.10,Win32,60,6067542a4a25243f4d7d4fcf,18.08333333,16.68725869,16.68095238,16.6801854,16.67186441,16.68095238,,,,,,,,,,,,,,,,,,,,PF,weak,3,,,,,,,,2,1.5,,,,,,,,,,,,,,,,,,,,,,,,,,,,1,weak,-87,-35,1,0,0,response5disk,9,68,-9,-3,1,0,0,rectangle,-9,-3,1,0,0,4,1,0.001,-9,-3,1,0,0,0,67,67,15,1,0,,,,,,,,,,,,,,,,,,,,,
,,,,,,,,,,,,,,,,,,,,,,,,,,,,,,,,,,,,,,,,,,605c7bd2d23cc89750cd22f6,606c0cd4762c7ea6fb9fda31,2021-04-06_09h25.34.770,Colour_Similarity_Experiment,2020.2.10,Win32,60,6067542a4a25243f4d7d4fcf,18.08333333,16.68725869,16.68095238,16.6801854,16.67186441,16.68095238,,,,,,,,,,,,,,,,,,,,PF,strong,3,,,,,,,,7,1.483,,,,,,,,,,,,,,,,,,,,,,,,,,,,3,strong,57,122,1,0,0,response1disk,7,69,2,-6,1,0,0,rectangle,2,-6,1,0,0,4,0,0.001,2,-6,1,0,0,0,68,68,118,1,0,,,,,,,,,,,,,,,,,,,,,
,,,,,,,,,,,,,,,,,,,,,,,,,,,,,,,,,,,,,,,,,,605c7bd2d23cc89750cd22f6,606c0cd4762c7ea6fb9fda31,2021-04-06_09h25.34.770,Colour_Similarity_Experiment,2020.2.10,Win32,60,6067542a4a25243f4d7d4fcf,18.08333333,16.68725869,16.68095238,16.6801854,16.67186441,16.68095238,,,,,,,,,,,,,,,,,,,,PF,weak,3,,,,,,,,5,2.15,,,,,,,,,,,,,,,,,,,,,,,,,,,,3,weak,72,-44,1,0,0,response3disk,1,70,10,8,1,0,0,rectangle,10,8,1,0,0,4,5,0.006,10,8,1,0,0,0,69,69,96,1,0,,,,,,,,,,,,,,,,,,,,,
,,,,,,,,,,,,,,,,,,,,,,,,,,,,,,,,,,,,,,,,,,605c7bd2d23cc89750cd22f6,606c0cd4762c7ea6fb9fda31,2021-04-06_09h25.34.770,Colour_Similarity_Experiment,2020.2.10,Win32,60,6067542a4a25243f4d7d4fcf,18.08333333,16.68725869,16.68095238,16.6801854,16.67186441,16.68095238,,,,,,,,,,,,,,,,,,,,PF,weak,3,,,,,,,,3,1.7,,,,,,,,,,,,,,,,,,,,,,,,,,,,4,weak,-43,-90,1,0,0,response5disk,6,71,-10,-3,1,0,0,rectangle,-10,-3,1,0,0,4,0,0.001,-10,-3,1,0,0,0,70,70,120,1,0,,,,,,,,,,,,,,,,,,,,,
,,,,,,,,,,,,,,,,,,,,,,,,,,,,,,,,,,,,,,,,,,605c7bd2d23cc89750cd22f6,606c0cd4762c7ea6fb9fda31,2021-04-06_09h25.34.770,Colour_Similarity_Experiment,2020.2.10,Win32,60,6067542a4a25243f4d7d4fcf,18.08333333,16.68725869,16.68095238,16.6801854,16.67186441,16.68095238,,,,,,,,,,,,,,,,,,,,PF,strong,3,,,,,,,,7,2.517,,,,,,,,,,,,,,,,,,,,,,,,,,,,7,strong,51,113,1,0,0,response1disk,1,72,1,12,1,0,0,rectangle,1,12,1,0,0,4,1,0.002,1,12,1,0,0,0,71,71,132,1,0,,,,,,,,,,,,,,,,,,,,,
,,,,,,,,,,,,,,,,,,,,,,,,,,,,,,,,,,,,,,,,,,605c7bd2d23cc89750cd22f6,606c0cd4762c7ea6fb9fda31,2021-04-06_09h25.34.770,Colour_Similarity_Experiment,2020.2.10,Win32,60,6067542a4a25243f4d7d4fcf,18.08333333,16.68725869,16.68095238,16.6801854,16.67186441,16.68095238,,,,,,,,,,,,,,,,,,,,PF,weak,3,,,,,,,,2,1.548,,,,,,,,,,,,,,,,,,,,,,,,,,,,5,weak,-97,-41,1,0,0,response5disk,4,73,-7,-3,1,0,0,rectangle,-7,-3,1,0,0,4,0,0.001,-7,-3,1,0,0,0,72,72,54,1,0,,,,,,,,,,,,,,,,,,,,,
,,,,,,,,,,,,,,,,,,,,,,,,,,,,,,,,,,,,,,,,,,605c7bd2d23cc89750cd22f6,606c0cd4762c7ea6fb9fda31,2021-04-06_09h25.34.770,Colour_Similarity_Experiment,2020.2.10,Win32,60,6067542a4a25243f4d7d4fcf,18.08333333,16.68725869,16.68095238,16.6801854,16.67186441,16.68095238,,,,,,,,,,,,,,,,,,,,PF,strong,3,,,,,,,,7,1.999,,,,,,,,,,,,,,,,,,,,,,,,,,,,2,strong,102,112,1,0,0,response1disk,7,74,13,1,1,0,0,rectangle,13,1,1,0,0,4,0,0.001,13,1,1,0,0,0,73,73,63,1,0,,,,,,,,,,,,,,,,,,,,,
,,,,,,,,,,,,,,,,,,,,,,,,,,,,,,,,,,,,,,,,,,605c7bd2d23cc89750cd22f6,606c0cd4762c7ea6fb9fda31,2021-04-06_09h25.34.770,Colour_Similarity_Experiment,2020.2.10,Win32,60,6067542a4a25243f4d7d4fcf,18.08333333,16.68725869,16.68095238,16.6801854,16.67186441,16.68095238,,,,,,,,,,,,,,,,,,,,PF,weak,3,,,,,,,,3,1.967,,,,,,,,,,,,,,,,,,,,,,,,,,,,7,weak,-55,-87,1,0,0,response5disk,9,75,-11,-10,1,0,0,rectangle,-11,-10,1,0,0,4,1,0.002,-11,-10,1,0,0,0,74,74,10,1,0,,,,,,,,,,,,,,,,,,,,,
,,,,,,,,,,,,,,,,,,,,,,,,,,,,,,,,,,,,,,,,,,605c7bd2d23cc89750cd22f6,606c0cd4762c7ea6fb9fda31,2021-04-06_09h25.34.770,Colour_Similarity_Experiment,2020.2.10,Win32,60,6067542a4a25243f4d7d4fcf,18.08333333,16.68725869,16.68095238,16.6801854,16.67186441,16.68095238,,,,,,,,,,,,,,,,,,,,PF,strong,3,,,,,,,,4,1.984,,,,,,,,,,,,,,,,,,,,,,,,,,,,2,strong,59,-100,1,0,0,response3disk,5,76,11,-9,1,0,0,rectangle,11,-9,1,0,0,4,6,0.003,11,-9,1,0,0,0,75,75,80,1,0,,,,,,,,,,,,,,,,,,,,,
,,,,,,,,,,,,,,,,,,,,,,,,,,,,,,,,,,,,,,,,,,605c7bd2d23cc89750cd22f6,606c0cd4762c7ea6fb9fda31,2021-04-06_09h25.34.770,Colour_Similarity_Experiment,2020.2.10,Win32,60,6067542a4a25243f4d7d4fcf,18.08333333,16.68725869,16.68095238,16.6801854,16.67186441,16.68095238,,,,,,,,,,,,,,,,,,,,PF,strong,3,,,,,,,,6,1.849,,,,,,,,,,,,,,,,,,,,,,,,,,,,6,strong,114,62,1,0,0,response1disk,3,77,3,7,1,0,0,rectangle,3,7,1,0,0,4,0,0.002,3,7,1,0,0,0,76,76,21,1,0,,,,,,,,,,,,,,,,,,,,,
,,,,,,,,,,,,,,,,,,,,,,,,,,,,,,,,,,,,,,,,,,605c7bd2d23cc89750cd22f6,606c0cd4762c7ea6fb9fda31,2021-04-06_09h25.34.770,Colour_Similarity_Experiment,2020.2.10,Win32,60,6067542a4a25243f4d7d4fcf,18.08333333,16.68725869,16.68095238,16.6801854,16.67186441,16.68095238,,,,,,,,,,,,,,,,,,,,PF,weak,3,,,,,,,,7,2.516,,,,,,,,,,,,,,,,,,,,,,,,,,,,3,weak,81,111,1,0,0,response1disk,8,78,18,11,1,0,0,rectangle,18,11,1,0,0,4,0,0,18,11,1,0,0,0,77,77,3,1,0,,,,,,,,,,,,,,,,,,,,,
,,,,,,,,,,,,,,,,,,,,,,,,,,,,,,,,,,,,,,,,,,605c7bd2d23cc89750cd22f6,606c0cd4762c7ea6fb9fda31,2021-04-06_09h25.34.770,Colour_Similarity_Experiment,2020.2.10,Win32,60,6067542a4a25243f4d7d4fcf,18.08333333,16.68725869,16.68095238,16.6801854,16.67186441,16.68095238,,,,,,,,,,,,,,,,,,,,PF,weak,3,,,,,,,,3,3.132,,,,,,,,,,,,,,,,,,,,,,,,,,,,2,weak,-53,-105,1,0,0,response5disk,4,79,-16,4,1,0,0,rectangle,-16,4,1,0,0,4,2,0.002,-16,4,1,0,0,0,78,78,127,1,0,,,,,,,,,,,,,,,,,,,,,
,,,,,,,,,,,,,,,,,,,,,,,,,,,,,,,,,,,,,,,,,,605c7bd2d23cc89750cd22f6,606c0cd4762c7ea6fb9fda31,2021-04-06_09h25.34.770,Colour_Similarity_Experiment,2020.2.10,Win32,60,6067542a4a25243f4d7d4fcf,18.08333333,16.68725869,16.68095238,16.6801854,16.67186441,16.68095238,,,,,,,,,,,,,,,,,,,,PF,weak,3,,,,,,,,2,1.415,,,,,,,,,,,,,,,,,,,,,,,,,,,,2,weak,-87,-43,1,0,0,response5disk,1,80,-3,1,1,0,0,rectangle,-3,1,1,0,0,4,5,0.003,-3,1,1,0,0,0,79,79,9,1,0,,,,,,,,,,,,,,,,,,,,,
,,,,,,,,,,,,,,,,,,,,,,,,,,,,,,,,,,,,,,,,,,605c7bd2d23cc89750cd22f6,606c0cd4762c7ea6fb9fda31,2021-04-06_09h25.34.770,Colour_Similarity_Experiment,2020.2.10,Win32,60,6067542a4a25243f4d7d4fcf,18.08333333,16.68725869,16.68095238,16.6801854,16.67186441,16.68095238,,,,,,,,,,,,,,,,,,,,PF,strong,3,,,,,,,,7,2.65,,,,,,,,,,,,,,,,,,,,,,,,,,,,7,strong,62,104,1,0,0,response1disk,2,81,-36,-15,1,0,0,rectangle,-36,-15,1,0,0,4,2,0.003,-36,-15,1,0,0,0,80,80,138,1,0,,,,,,,,,,,,,,,,,,,,,
,,,,,,,,,,,,,,,,,,,,,,,,,,,,,,,,,,,,,,,,,,605c7bd2d23cc89750cd22f6,606c0cd4762c7ea6fb9fda31,2021-04-06_09h25.34.770,Colour_Similarity_Experiment,2020.2.10,Win32,60,6067542a4a25243f4d7d4fcf,18.08333333,16.68725869,16.68095238,16.6801854,16.67186441,16.68095238,,,,,,,,,,,,,,,,,,,,PF,strong,3,,,,,,,,3,1.515,,,,,,,,,,,,,,,,,,,,,,,,,,,,2,strong,-51,-86,1,0,0,response5disk,4,82,-20,-9,1,0,0,rectangle,-20,-9,1,0,0,4,4,0.002,-20,-9,1,0,0,0,81,81,145,1,0,,,,,,,,,,,,,,,,,,,,,
,,,,,,,,,,,,,,,,,,,,,,,,,,,,,,,,,,,,,,,,,,605c7bd2d23cc89750cd22f6,606c0cd4762c7ea6fb9fda31,2021-04-06_09h25.34.770,Colour_Similarity_Experiment,2020.2.10,Win32,60,6067542a4a25243f4d7d4fcf,18.08333333,16.68725869,16.68095238,16.6801854,16.67186441,16.68095238,,,,,,,,,,,,,,,,,,,,PF,weak,3,,,,,,,,6,1.416,,,,,,,,,,,,,,,,,,,,,,,,,,,,2,weak,89,52,1,0,0,response1disk,8,83,23,3,1,0,0,rectangle,23,3,1,0,0,4,0,0.001,23,3,1,0,0,0,82,82,52,1,0,,,,,,,,,,,,,,,,,,,,,
,,,,,,,,,,,,,,,,,,,,,,,,,,,,,,,,,,,,,,,,,,605c7bd2d23cc89750cd22f6,606c0cd4762c7ea6fb9fda31,2021-04-06_09h25.34.770,Colour_Similarity_Experiment,2020.2.10,Win32,60,6067542a4a25243f4d7d4fcf,18.08333333,16.68725869,16.68095238,16.6801854,16.67186441,16.68095238,,,,,,,,,,,,,,,,,,,,PF,strong,3,,,,,,,,3,2.016,,,,,,,,,,,,,,,,,,,,,,,,,,,,3,strong,-51,-99,1,0,0,response5disk,5,84,-9,0,1,0,0,rectangle,-9,0,1,0,0,4,6,0.001,-9,0,1,0,0,0,83,83,101,1,0,,,,,,,,,,,,,,,,,,,,,
,,,,,,,,,,,,,,,,,,,,,,,,,,,,,,,,,,,,,,,,,,605c7bd2d23cc89750cd22f6,606c0cd4762c7ea6fb9fda31,2021-04-06_09h25.34.770,Colour_Similarity_Experiment,2020.2.10,Win32,60,6067542a4a25243f4d7d4fcf,18.08333333,16.68725869,16.68095238,16.6801854,16.67186441,16.68095238,,,,,,,,,,,,,,,,,,,,PF,strong,3,,,,,,,,1,1.533,,,,,,,,,,,,,,,,,,,,,,,,,,,,1,strong,-112,83,1,0,0,response7disk,1,85,-5,-3,1,0,0,rectangle,-5,-3,1,0,0,4,1,0.001,-5,-3,1,0,0,0,84,84,151,1,0,,,,,,,,,,,,,,,,,,,,,
,,,,,,,,,,,,,,,,,,,,,,,,,,,,,,,,,,,,,,,,,,605c7bd2d23cc89750cd22f6,606c0cd4762c7ea6fb9fda31,2021-04-06_09h25.34.770,Colour_Similarity_Experiment,2020.2.10,Win32,60,6067542a4a25243f4d7d4fcf,18.08333333,16.68725869,16.68095238,16.6801854,16.67186441,16.68095238,,,,,,,,,,,,,,,,,,,,PF,strong,3,,,,,,,,3,1.333,,,,,,,,,,,,,,,,,,,,,,,,,,,,3,strong,-30,-88,1,0,0,response5disk,1,86,-9,-3,1,0,0,rectangle,-9,-3,1,0,0,4,3,0.004,-9,-3,1,0,0,0,85,85,125,1,0,,,,,,,,,,,,,,,,,,,,,
,,,,,,,,,,,,,,,,,,,,,,,,,,,,,,,,,,,,,,,,,,605c7bd2d23cc89750cd22f6,606c0cd4762c7ea6fb9fda31,2021-04-06_09h25.34.770,Colour_Similarity_Experiment,2020.2.10,Win32,60,6067542a4a25243f4d7d4fcf,18.08333333,16.68725869,16.68095238,16.6801854,16.67186441,16.68095238,,,,,,,,,,,,,,,,,,,,PF,strong,3,,,,,,,,2,1.533,,,,,,,,,,,,,,,,,,,,,,,,,,,,5,strong,-93,-44,1,0,0,response5disk,3,87,-14,6,1,0,0,rectangle,-14,6,1,0,0,4,1,0.001,-14,6,1,0,0,0,86,86,25,1,0,,,,,,,,,,,,,,,,,,,,,
,,,,,,,,,,,,,,,,,,,,,,,,,,,,,,,,,,,,,,,,,,605c7bd2d23cc89750cd22f6,606c0cd4762c7ea6fb9fda31,2021-04-06_09h25.34.770,Colour_Similarity_Experiment,2020.2.10,Win32,60,6067542a4a25243f4d7d4fcf,18.08333333,16.68725869,16.68095238,16.6801854,16.67186441,16.68095238,,,,,,,,,,,,,,,,,,,,PF,strong,3,,,,,,,,1,1.467,,,,,,,,,,,,,,,,,,,,,,,,,,,,4,strong,-86,39,1,0,0,response7disk,4,88,-26,-6,1,0,0,rectangle,-26,-6,1,0,0,4,1,0.001,-26,-6,1,0,0,0,87,87,84,1,0,,,,,,,,,,,,,,,,,,,,,
,,,,,,,,,,,,,,,,,,,,,,,,,,,,,,,,,,,,,,,,,,605c7bd2d23cc89750cd22f6,606c0cd4762c7ea6fb9fda31,2021-04-06_09h25.34.770,Colour_Similarity_Experiment,2020.2.10,Win32,60,6067542a4a25243f4d7d4fcf,18.08333333,16.68725869,16.68095238,16.6801854,16.67186441,16.68095238,,,,,,,,,,,,,,,,,,,,PF,strong,3,,,,,,,,3,1.716,,,,,,,,,,,,,,,,,,,,,,,,,,,,6,strong,-71,-98,1,0,0,response5disk,4,89,-37,-7,1,0,0,rectangle,-37,-7,1,0,0,4,2,0.003,-37,-7,1,0,0,0,88,88,56,1,0,,,,,,,,,,,,,,,,,,,,,
,,,,,,,,,,,,,,,,,,,,,,,,,,,,,,,,,,,,,,,,,,605c7bd2d23cc89750cd22f6,606c0cd4762c7ea6fb9fda31,2021-04-06_09h25.34.770,Colour_Similarity_Experiment,2020.2.10,Win32,60,6067542a4a25243f4d7d4fcf,18.08333333,16.68725869,16.68095238,16.6801854,16.67186441,16.68095238,,,,,,,,,,,,,,,,,,,,PF,strong,3,,,,,,,,7,1.332,,,,,,,,,,,,,,,,,,,,,,,,,,,,9,strong,44,115,1,0,0,response1disk,3,90,-32,-9,1,0,0,rectangle,-32,-9,1,0,0,4,5,0.002,-32,-9,1,0,0,0,89,89,141,1,0,,,,,,,,,,,,,,,,,,,,,
,,,,,,,,,,,,,,,,,,,,,,,,,,,,,,,,,,,,,,,,,,605c7bd2d23cc89750cd22f6,606c0cd4762c7ea6fb9fda31,2021-04-06_09h25.34.770,Colour_Similarity_Experiment,2020.2.10,Win32,60,6067542a4a25243f4d7d4fcf,18.08333333,16.68725869,16.68095238,16.6801854,16.67186441,16.68095238,,,,,,,,,,,,,,,,,,,,PF,strong,3,,,,,,,,7,1.582,,,,,,,,,,,,,,,,,,,,,,,,,,,,5,strong,61,119,1,0,0,response1disk,2,91,1,16,1,0,0,rectangle,85,61,1,0,0,6,6,2.232,-12,-5,1,0,0,0,90,90,55,1,1,response1disk_3,rectangle,,,,,,,,,,,,,,,,,,,
,,,,,,,,,,,,,,,,,,,,,,,,,,,,,,,,,,,,,,,,,,605c7bd2d23cc89750cd22f6,606c0cd4762c7ea6fb9fda31,2021-04-06_09h25.34.770,Colour_Similarity_Experiment,2020.2.10,Win32,60,6067542a4a25243f4d7d4fcf,18.08333333,16.68725869,16.68095238,16.6801854,16.67186441,16.68095238,,,,,,,,,,,,,,,,,,,,PF,strong,3,,,,,,,,3,1.966,,,,,,,,,,,,,,,,,,,,,,,,,,,,2,strong,-47,-60,1,0,0,response5disk,9,92,-25,-6,1,0,0,rectangle,-25,-6,1,0,0,6,4,0.001,-25,-6,1,0,0,0,91,91,72,1,0,,,,,,,,,,,,,,,,,,,,,
,,,,,,,,,,,,,,,,,,,,,,,,,,,,,,,,,,,,,,,,,,605c7bd2d23cc89750cd22f6,606c0cd4762c7ea6fb9fda31,2021-04-06_09h25.34.770,Colour_Similarity_Experiment,2020.2.10,Win32,60,6067542a4a25243f4d7d4fcf,18.08333333,16.68725869,16.68095238,16.6801854,16.67186441,16.68095238,,,,,,,,,,,,,,,,,,,,PF,strong,3,,,,,,,,4,1.699,,,,,,,,,,,,,,,,,,,,,,,,,,,,1,strong,41,-88,1,0,0,response3disk,3,93,-7,4,1,0,0,rectangle,-7,4,1,0,0,6,6,0.002,-7,4,1,0,0,0,92,92,99,1,0,,,,,,,,,,,,,,,,,,,,,
,,,,,,,,,,,,,,,,,,,,,,,,,,,,,,,,,,,,,,,,,,605c7bd2d23cc89750cd22f6,606c0cd4762c7ea6fb9fda31,2021-04-06_09h25.34.770,Colour_Similarity_Experiment,2020.2.10,Win32,60,6067542a4a25243f4d7d4fcf,18.08333333,16.68725869,16.68095238,16.6801854,16.67186441,16.68095238,,,,,,,,,,,,,,,,,,,,PF,strong,3,,,,,,,,2,1.516,,,,,,,,,,,,,,,,,,,,,,,,,,,,8,strong,-74,-46,1,0,0,response5disk,5,94,-9,6,1,0,0,rectangle,-9,6,1,0,0,6,6,0,-9,6,1,0,0,0,93,93,152,1,0,,,,,,,,,,,,,,,,,,,,,
,,,,,,,,,,,,,,,,,,,,,,,,,,,,,,,,,,,,,,,,,,605c7bd2d23cc89750cd22f6,606c0cd4762c7ea6fb9fda31,2021-04-06_09h25.34.770,Colour_Similarity_Experiment,2020.2.10,Win32,60,6067542a4a25243f4d7d4fcf,18.08333333,16.68725869,16.68095238,16.6801854,16.67186441,16.68095238,,,,,,,,,,,,,,,,,,,,PF,weak,3,,,,,,,,7,2.515,,,,,,,,,,,,,,,,,,,,,,,,,,,,3,weak,46,82,1,0,0,response1disk,7,95,-7,-6,1,0,0,rectangle,-7,-6,1,0,0,6,1,0.004,-7,-6,1,0,0,0,94,94,41,1,0,,,,,,,,,,,,,,,,,,,,,
,,,,,,,,,,,,,,,,,,,,,,,,,,,,,,,,,,,,,,,,,,605c7bd2d23cc89750cd22f6,606c0cd4762c7ea6fb9fda31,2021-04-06_09h25.34.770,Colour_Similarity_Experiment,2020.2.10,Win32,60,6067542a4a25243f4d7d4fcf,18.08333333,16.68725869,16.68095238,16.6801854,16.67186441,16.68095238,,,,,,,,,,,,,,,,,,,,PF,weak,3,,,,,,,,0,1.081,,,,,,,,,,,,,,,,,,,,,,,,,,,,9,weak,-47,99,1,0,0,response7disk,9,96,-2,-18,1,0,0,rectangle,-2,-18,1,0,0,6,0,0.002,-2,-18,1,0,0,0,95,95,106,1,0,,,,,,,,,,,,,,,,,,,,,
,,,,,,,,,,,,,,,,,,,,,,,,,,,,,,,,,,,,,,,,,,605c7bd2d23cc89750cd22f6,606c0cd4762c7ea6fb9fda31,2021-04-06_09h25.34.770,Colour_Similarity_Experiment,2020.2.10,Win32,60,6067542a4a25243f4d7d4fcf,18.08333333,16.68725869,16.68095238,16.6801854,16.67186441,16.68095238,,,,,,,,,,,,,,,,,,,,PF,strong,3,,,,,,,,1,1.85,,,,,,,,,,,,,,,,,,,,,,,,,,,,5,strong,-73,37,1,0,0,response7disk,5,97,-2,-14,1,0,0,rectangle,-2,-14,1,0,0,6,0,0,-2,-14,1,0,0,0,96,96,19,1,0,,,,,,,,,,,,,,,,,,,,,
,,,,,,,,,,,,,,,,,,,,,,,,,,,,,,,,,,,,,,,,,,605c7bd2d23cc89750cd22f6,606c0cd4762c7ea6fb9fda31,2021-04-06_09h25.34.770,Colour_Similarity_Experiment,2020.2.10,Win32,60,6067542a4a25243f4d7d4fcf,18.08333333,16.68725869,16.68095238,16.6801854,16.67186441,16.68095238,,,,,,,,,,,,,,,,,,,,PF,strong,3,,,,,,,,1,1.183,,,,,,,,,,,,,,,,,,,,,,,,,,,,6,strong,-104,35,1,0,0,response7disk,6,98,-20,-16,1,0,0,rectangle,-20,-16,1,0,0,6,7,0.002,-20,-16,1,0,0,0,97,97,91,1,0,,,,,,,,,,,,,,,,,,,,,
,,,,,,,,,,,,,,,,,,,,,,,,,,,,,,,,,,,,,,,,,,605c7bd2d23cc89750cd22f6,606c0cd4762c7ea6fb9fda31,2021-04-06_09h25.34.770,Colour_Similarity_Experiment,2020.2.10,Win32,60,6067542a4a25243f4d7d4fcf,18.08333333,16.68725869,16.68095238,16.6801854,16.67186441,16.68095238,,,,,,,,,,,,,,,,,,,,PF,strong,3,,,,,,,,6,1.583,,,,,,,,,,,,,,,,,,,,,,,,,,,,1,strong,144,71,1,0,0,response1disk,6,99,-5,8,1,0,0,rectangle,-5,8,1,0,0,6,5,0.002,-5,8,1,0,0,0,98,98,58,1,0,,,,,,,,,,,,,,,,,,,,,
,,,,,,,,,,,,,,,,,,,,,,,,,,,,,,,,,,,,,,,,,,605c7bd2d23cc89750cd22f6,606c0cd4762c7ea6fb9fda31,2021-04-06_09h25.34.770,Colour_Similarity_Experiment,2020.2.10,Win32,60,6067542a4a25243f4d7d4fcf,18.08333333,16.68725869,16.68095238,16.6801854,16.67186441,16.68095238,,,,,,,,,,,,,,,,,,,,PF,strong,3,,,,,,,,7,1.55,,,,,,,,,,,,,,,,,,,,,,,,,,,,1,strong,56,122,1,0,0,response1disk,4,100,-11,18,1,0,0,rectangle,-11,18,1,0,0,6,7,0.004,-11,18,1,0,0,0,99,99,135,1,0,,,,,,,,,,,,,,,,,,,,,
,,,,,,,,,,,,,,,,,,,,,,,,,,,,,,,,,,,,,,,,,,605c7bd2d23cc89750cd22f6,606c0cd4762c7ea6fb9fda31,2021-04-06_09h25.34.770,Colour_Similarity_Experiment,2020.2.10,Win32,60,6067542a4a25243f4d7d4fcf,18.08333333,16.68725869,16.68095238,16.6801854,16.67186441,16.68095238,,,,,,,,,,,,,,,,,,,,PF,weak,3,,,,,,,,3,1.149,,,,,,,,,,,,,,,,,,,,,,,,,,,,9,weak,-41,-97,1,0,0,response5disk,1,101,-7,-3,1,0,0,rectangle,-7,-3,1,0,0,6,6,0.002,-7,-3,1,0,0,0,100,100,74,1,0,,,,,,,,,,,,,,,,,,,,,
,,,,,,,,,,,,,,,,,,,,,,,,,,,,,,,,,,,,,,,,,,605c7bd2d23cc89750cd22f6,606c0cd4762c7ea6fb9fda31,2021-04-06_09h25.34.770,Colour_Similarity_Experiment,2020.2.10,Win32,60,6067542a4a25243f4d7d4fcf,18.08333333,16.68725869,16.68095238,16.6801854,16.67186441,16.68095238,,,,,,,,,,,,,,,,,,,,PF,strong,3,,,,,,,,4,1.966,,,,,,,,,,,,,,,,,,,,,,,,,,,,4,strong,29,-101,1,0,0,response3disk,6,102,-8,0,1,0,0,rectangle,-8,0,1,0,0,6,6,0,-8,0,1,0,0,0,101,101,122,1,0,,,,,,,,,,,,,,,,,,,,,
,,,,,,,,,,,,,,,,,,,,,,,,,,,,,,,,,,,,,,,,,,605c7bd2d23cc89750cd22f6,606c0cd4762c7ea6fb9fda31,2021-04-06_09h25.34.770,Colour_Similarity_Experiment,2020.2.10,Win32,60,6067542a4a25243f4d7d4fcf,18.08333333,16.68725869,16.68095238,16.6801854,16.67186441,16.68095238,,,,,,,,,,,,,,,,,,,,PF,weak,3,,,,,,,,6,1.367,,,,,,,,,,,,,,,,,,,,,,,,,,,,1,weak,100,48,1,0,0,response1disk,5,103,-1,0,1,0,0,rectangle,-1,0,1,0,0,6,4,0.001,-1,0,1,0,0,0,102,102,28,1,0,,,,,,,,,,,,,,,,,,,,,
,,,,,,,,,,,,,,,,,,,,,,,,,,,,,,,,,,,,,,,,,,605c7bd2d23cc89750cd22f6,606c0cd4762c7ea6fb9fda31,2021-04-06_09h25.34.770,Colour_Similarity_Experiment,2020.2.10,Win32,60,6067542a4a25243f4d7d4fcf,18.08333333,16.68725869,16.68095238,16.6801854,16.67186441,16.68095238,,,,,,,,,,,,,,,,,,,,PF,strong,3,,,,,,,,3,1.799,,,,,,,,,,,,,,,,,,,,,,,,,,,,7,strong,-56,-94,1,0,0,response5disk,5,104,10,7,1,0,0,rectangle,10,7,1,0,0,6,3,0.001,10,7,1,0,0,0,103,103,156,1,0,,,,,,,,,,,,,,,,,,,,,
,,,,,,,,,,,,,,,,,,,,,,,,,,,,,,,,,,,,,,,,,,605c7bd2d23cc89750cd22f6,606c0cd4762c7ea6fb9fda31,2021-04-06_09h25.34.770,Colour_Similarity_Experiment,2020.2.10,Win32,60,6067542a4a25243f4d7d4fcf,18.08333333,16.68725869,16.68095238,16.6801854,16.67186441,16.68095238,,,,,,,,,,,,,,,,,,,,PF,strong,3,,,,,,,,3,1.251,,,,,,,,,,,,,,,,,,,,,,,,,,,,2,strong,-50,-82,1,0,0,response5disk,1,105,-24,16,1,0,0,rectangle,-24,16,1,0,0,6,5,0.001,-24,16,1,0,0,0,104,104,85,1,0,,,,,,,,,,,,,,,,,,,,,
,,,,,,,,,,,,,,,,,,,,,,,,,,,,,,,,,,,,,,,,,,605c7bd2d23cc89750cd22f6,606c0cd4762c7ea6fb9fda31,2021-04-06_09h25.34.770,Colour_Similarity_Experiment,2020.2.10,Win32,60,6067542a4a25243f4d7d4fcf,18.08333333,16.68725869,16.68095238,16.6801854,16.67186441,16.68095238,,,,,,,,,,,,,,,,,,,,PF,weak,3,,,,,,,,2,1.483,,,,,,,,,,,,,,,,,,,,,,,,,,,,5,weak,-97,-43,1,0,0,response5disk,6,106,-20,9,1,0,0,rectangle,-20,9,1,0,0,6,5,0,-20,9,1,0,0,0,105,105,103,1,0,,,,,,,,,,,,,,,,,,,,,
,,,,,,,,,,,,,,,,,,,,,,,,,,,,,,,,,,,,,,,,,,605c7bd2d23cc89750cd22f6,606c0cd4762c7ea6fb9fda31,2021-04-06_09h25.34.770,Colour_Similarity_Experiment,2020.2.10,Win32,60,6067542a4a25243f4d7d4fcf,18.08333333,16.68725869,16.68095238,16.6801854,16.67186441,16.68095238,,,,,,,,,,,,,,,,,,,,PF,weak,3,,,,,,,,7,1.233,,,,,,,,,,,,,,,,,,,,,,,,,,,,4,weak,45,102,1,0,0,response1disk,1,107,8,8,1,0,0,rectangle,8,8,1,0,0,6,2,0.001,8,8,1,0,0,0,106,106,115,1,0,,,,,,,,,,,,,,,,,,,,,
,,,,,,,,,,,,,,,,,,,,,,,,,,,,,,,,,,,,,,,,,,605c7bd2d23cc89750cd22f6,606c0cd4762c7ea6fb9fda31,2021-04-06_09h25.34.770,Colour_Similarity_Experiment,2020.2.10,Win32,60,6067542a4a25243f4d7d4fcf,18.08333333,16.68725869,16.68095238,16.6801854,16.67186441,16.68095238,,,,,,,,,,,,,,,,,,,,PF,strong,3,,,,,,,,2,1.367,,,,,,,,,,,,,,,,,,,,,,,,,,,,1,strong,-86,-39,1,0,0,response5disk,2,108,-8,-8,1,0,0,rectangle,-8,-8,1,0,0,6,3,0.002,-8,-8,1,0,0,0,107,107,2,1,0,,,,,,,,,,,,,,,,,,,,,
,,,,,,,,,,,,,,,,,,,,,,,,,,,,,,,,,,,,,,,,,,605c7bd2d23cc89750cd22f6,606c0cd4762c7ea6fb9fda31,2021-04-06_09h25.34.770,Colour_Similarity_Experiment,2020.2.10,Win32,60,6067542a4a25243f4d7d4fcf,18.08333333,16.68725869,16.68095238,16.6801854,16.67186441,16.68095238,,,,,,,,,,,,,,,,,,,,PF,weak,3,,,,,,,,7,1.433,,,,,,,,,,,,,,,,,,,,,,,,,,,,8,weak,90,131,1,0,0,response1disk,1,109,1,4,1,0,0,rectangle,1,4,1,0,0,6,0,0.004,1,4,1,0,0,0,108,108,57,1,0,,,,,,,,,,,,,,,,,,,,,
,,,,,,,,,,,,,,,,,,,,,,,,,,,,,,,,,,,,,,,,,,605c7bd2d23cc89750cd22f6,606c0cd4762c7ea6fb9fda31,2021-04-06_09h25.34.770,Colour_Similarity_Experiment,2020.2.10,Win32,60,6067542a4a25243f4d7d4fcf,18.08333333,16.68725869,16.68095238,16.6801854,16.67186441,16.68095238,,,,,,,,,,,,,,,,,,,,PF,strong,3,,,,,,,,6,1.549,,,,,,,,,,,,,,,,,,,,,,,,,,,,8,strong,98,49,1,0,0,response1disk,3,110,-12,-6,1,0,0,rectangle,-12,-6,1,0,0,6,6,0.001,-12,-6,1,0,0,0,109,109,154,1,0,,,,,,,,,,,,,,,,,,,,,
,,,,,,,,,,,,,,,,,,,,,,,,,,,,,,,,,,,,,,,,,,605c7bd2d23cc89750cd22f6,606c0cd4762c7ea6fb9fda31,2021-04-06_09h25.34.770,Colour_Similarity_Experiment,2020.2.10,Win32,60,6067542a4a25243f4d7d4fcf,18.08333333,16.68725869,16.68095238,16.6801854,16.67186441,16.68095238,,,,,,,,,,,,,,,,,,,,PF,weak,3,,,,,,,,7,1.534,,,,,,,,,,,,,,,,,,,,,,,,,,,,1,weak,74,107,1,0,0,response1disk,6,111,14,-4,1,0,0,rectangle,14,-4,1,0,0,6,5,0.001,14,-4,1,0,0,0,110,110,144,1,0,,,,,,,,,,,,,,,,,,,,,
,,,,,,,,,,,,,,,,,,,,,,,,,,,,,,,,,,,,,,,,,,605c7bd2d23cc89750cd22f6,606c0cd4762c7ea6fb9fda31,2021-04-06_09h25.34.770,Colour_Similarity_Experiment,2020.2.10,Win32,60,6067542a4a25243f4d7d4fcf,18.08333333,16.68725869,16.68095238,16.6801854,16.67186441,16.68095238,,,,,,,,,,,,,,,,,,,,PF,weak,3,,,,,,,,4,1.816,,,,,,,,,,,,,,,,,,,,,,,,,,,,2,weak,76,-112,1,0,0,response3disk,5,112,-8,0,1,0,0,rectangle,-8,0,1,0,0,6,0,0.002,-8,0,1,0,0,0,111,111,147,1,0,,,,,,,,,,,,,,,,,,,,,
,,,,,,,,,,,,,,,,,,,,,,,,,,,,,,,,,,,,,,,,,,605c7bd2d23cc89750cd22f6,606c0cd4762c7ea6fb9fda31,2021-04-06_09h25.34.770,Colour_Similarity_Experiment,2020.2.10,Win32,60,6067542a4a25243f4d7d4fcf,18.08333333,16.68725869,16.68095238,16.6801854,16.67186441,16.68095238,,,,,,,,,,,,,,,,,,,,PF,weak,3,,,,,,,,5,2.083,,,,,,,,,,,,,,,,,,,,,,,,,,,,5,weak,89,-36,1,0,0,response3disk,9,113,7,9,1,0,0,rectangle,-108,51,1,0,0,1,1,1.633,-5,-5,1,0,0,0,112,112,136,1,1,response7disk_3,rectangle,,,,,,,,,,,,,,,,,,,
,,,,,,,,,,,,,,,,,,,,,,,,,,,,,,,,,,,,,,,,,,605c7bd2d23cc89750cd22f6,606c0cd4762c7ea6fb9fda31,2021-04-06_09h25.34.770,Colour_Similarity_Experiment,2020.2.10,Win32,60,6067542a4a25243f4d7d4fcf,18.08333333,16.68725869,16.68095238,16.6801854,16.67186441,16.68095238,,,,,,,,,,,,,,,,,,,,PF,strong,3,,,,,,,,2,1.4,,,,,,,,,,,,,,,,,,,,,,,,,,,,1,strong,-92,-62,1,0,0,response5disk,8,114,-22,-3,1,0,0,rectangle,-22,-3,1,0,0,1,0,0.002,-22,-3,1,0,0,0,113,113,27,1,0,,,,,,,,,,,,,,,,,,,,,
,,,,,,,,,,,,,,,,,,,,,,,,,,,,,,,,,,,,,,,,,,605c7bd2d23cc89750cd22f6,606c0cd4762c7ea6fb9fda31,2021-04-06_09h25.34.770,Colour_Similarity_Experiment,2020.2.10,Win32,60,6067542a4a25243f4d7d4fcf,18.08333333,16.68725869,16.68095238,16.6801854,16.67186441,16.68095238,,,,,,,,,,,,,,,,,,,,PF,weak,3,,,,,,,,3,1.384,,,,,,,,,,,,,,,,,,,,,,,,,,,,9,weak,-67,-91,1,0,0,response5disk,6,115,-7,-5,1,0,0,rectangle,-7,-5,1,0,0,1,3,0.001,-7,-5,1,0,0,0,114,114,148,1,0,,,,,,,,,,,,,,,,,,,,,
,,,,,,,,,,,,,,,,,,,,,,,,,,,,,,,,,,,,,,,,,,605c7bd2d23cc89750cd22f6,606c0cd4762c7ea6fb9fda31,2021-04-06_09h25.34.770,Colour_Similarity_Experiment,2020.2.10,Win32,60,6067542a4a25243f4d7d4fcf,18.08333333,16.68725869,16.68095238,16.6801854,16.67186441,16.68095238,,,,,,,,,,,,,,,,,,,,PF,weak,3,,,,,,,,3,1.416,,,,,,,,,,,,,,,,,,,,,,,,,,,,5,weak,-53,-82,1,0,0,response5disk,3,116,-6,-7,1,0,0,rectangle,-6,-7,1,0,0,1,4,0.001,-6,-7,1,0,0,0,115,115,109,1,0,,,,,,,,,,,,,,,,,,,,,
,,,,,,,,,,,,,,,,,,,,,,,,,,,,,,,,,,,,,,,,,,605c7bd2d23cc89750cd22f6,606c0cd4762c7ea6fb9fda31,2021-04-06_09h25.34.770,Colour_Similarity_Experiment,2020.2.10,Win32,60,6067542a4a25243f4d7d4fcf,18.08333333,16.68725869,16.68095238,16.6801854,16.67186441,16.68095238,,,,,,,,,,,,,,,,,,,,PF,weak,3,,,,,,,,7,1.566,,,,,,,,,,,,,,,,,,,,,,,,,,,,9,weak,78,120,1,0,0,response1disk,4,117,7,2,1,0,0,rectangle,7,2,1,0,0,1,7,0.002,7,2,1,0,0,0,116,116,114,1,0,,,,,,,,,,,,,,,,,,,,,
,,,,,,,,,,,,,,,,,,,,,,,,,,,,,,,,,,,,,,,,,,605c7bd2d23cc89750cd22f6,606c0cd4762c7ea6fb9fda31,2021-04-06_09h25.34.770,Colour_Similarity_Experiment,2020.2.10,Win32,60,6067542a4a25243f4d7d4fcf,18.08333333,16.68725869,16.68095238,16.6801854,16.67186441,16.68095238,,,,,,,,,,,,,,,,,,,,PF,strong,3,,,,,,,,4,1.8,,,,,,,,,,,,,,,,,,,,,,,,,,,,4,strong,50,-93,1,0,0,response3disk,3,118,-26,-2,1,0,0,rectangle,-26,-2,1,0,0,1,5,0,-26,-2,1,0,0,0,117,117,77,1,0,,,,,,,,,,,,,,,,,,,,,
,,,,,,,,,,,,,,,,,,,,,,,,,,,,,,,,,,,,,,,,,,605c7bd2d23cc89750cd22f6,606c0cd4762c7ea6fb9fda31,2021-04-06_09h25.34.770,Colour_Similarity_Experiment,2020.2.10,Win32,60,6067542a4a25243f4d7d4fcf,18.08333333,16.68725869,16.68095238,16.6801854,16.67186441,16.68095238,,,,,,,,,,,,,,,,,,,,PF,strong,3,,,,,,,,4,1.616,,,,,,,,,,,,,,,,,,,,,,,,,,,,6,strong,42,-74,1,0,0,response3disk,8,119,16,-8,1,0,0,rectangle,16,-8,1,0,0,1,3,0.002,16,-8,1,0,0,0,118,118,133,1,0,,,,,,,,,,,,,,,,,,,,,
,,,,,,,,,,,,,,,,,,,,,,,,,,,,,,,,,,,,,,,,,,605c7bd2d23cc89750cd22f6,606c0cd4762c7ea6fb9fda31,2021-04-06_09h25.34.770,Colour_Similarity_Experiment,2020.2.10,Win32,60,6067542a4a25243f4d7d4fcf,18.08333333,16.68725869,16.68095238,16.6801854,16.67186441,16.68095238,,,,,,,,,,,,,,,,,,,,PF,strong,3,,,,,,,,1,1.465,,,,,,,,,,,,,,,,,,,,,,,,,,,,8,strong,-78,61,1,0,0,response7disk,8,120,1,6,1,0,0,rectangle,1,6,1,0,0,1,2,0.001,1,6,1,0,0,0,119,119,48,1,0,,,,,,,,,,,,,,,,,,,,,
,,,,,,,,,,,,,,,,,,,,,,,,,,,,,,,,,,,,,,,,,,605c7bd2d23cc89750cd22f6,606c0cd4762c7ea6fb9fda31,2021-04-06_09h25.34.770,Colour_Similarity_Experiment,2020.2.10,Win32,60,6067542a4a25243f4d7d4fcf,18.08333333,16.68725869,16.68095238,16.6801854,16.67186441,16.68095238,,,,,,,,,,,,,,,,,,,,PF,weak,3,,,,,,,,3,1.933,,,,,,,,,,,,,,,,,,,,,,,,,,,,9,weak,-46,-97,1,0,0,response5disk,7,121,-13,13,1,0,0,rectangle,-13,13,1,0,0,1,1,0.001,-13,13,1,0,0,0,120,120,121,1,0,,,,,,,,,,,,,,,,,,,,,
,,,,,,,,,,,,,,,,,,,,,,,,,,,,,,,,,,,,,,,,,,605c7bd2d23cc89750cd22f6,606c0cd4762c7ea6fb9fda31,2021-04-06_09h25.34.770,Colour_Similarity_Experiment,2020.2.10,Win32,60,6067542a4a25243f4d7d4fcf,18.08333333,16.68725869,16.68095238,16.6801854,16.67186441,16.68095238,,,,,,,,,,,,,,,,,,,,PF,weak,3,,,,,,,,7,1.266,,,,,,,,,,,,,,,,,,,,,,,,,,,,8,weak,58,106,1,0,0,response1disk,3,122,3,7,1,0,0,rectangle,3,7,1,0,0,1,3,0.001,3,7,1,0,0,0,121,121,71,1,0,,,,,,,,,,,,,,,,,,,,,
,,,,,,,,,,,,,,,,,,,,,,,,,,,,,,,,,,,,,,,,,,605c7bd2d23cc89750cd22f6,606c0cd4762c7ea6fb9fda31,2021-04-06_09h25.34.770,Colour_Similarity_Experiment,2020.2.10,Win32,60,6067542a4a25243f4d7d4fcf,18.08333333,16.68725869,16.68095238,16.6801854,16.67186441,16.68095238,,,,,,,,,,,,,,,,,,,,PF,weak,3,,,,,,,,3,1.433,,,,,,,,,,,,,,,,,,,,,,,,,,,,6,weak,-37,-64,1,0,0,response5disk,9,123,-13,-13,1,0,0,rectangle,-13,-13,1,0,0,1,6,0.002,-13,-13,1,0,0,0,122,122,45,1,0,,,,,,,,,,,,,,,,,,,,,
,,,,,,,,,,,,,,,,,,,,,,,,,,,,,,,,,,,,,,,,,,605c7bd2d23cc89750cd22f6,606c0cd4762c7ea6fb9fda31,2021-04-06_09h25.34.770,Colour_Similarity_Experiment,2020.2.10,Win32,60,6067542a4a25243f4d7d4fcf,18.08333333,16.68725869,16.68095238,16.6801854,16.67186441,16.68095238,,,,,,,,,,,,,,,,,,,,PF,weak,3,,,,,,,,2,1.316,,,,,,,,,,,,,,,,,,,,,,,,,,,,8,weak,-70,-34,1,0,0,response5disk,8,124,-19,-3,1,0,0,rectangle,-19,-3,1,0,0,1,7,0.001,-19,-3,1,0,0,0,123,123,153,1,0,,,,,,,,,,,,,,,,,,,,,
,,,,,,,,,,,,,,,,,,,,,,,,,,,,,,,,,,,,,,,,,,605c7bd2d23cc89750cd22f6,606c0cd4762c7ea6fb9fda31,2021-04-06_09h25.34.770,Colour_Similarity_Experiment,2020.2.10,Win32,60,6067542a4a25243f4d7d4fcf,18.08333333,16.68725869,16.68095238,16.6801854,16.67186441,16.68095238,,,,,,,,,,,,,,,,,,,,PF,weak,3,,,,,,,,5,2.316,,,,,,,,,,,,,,,,,,,,,,,,,,,,9,weak,111,-34,1,0,0,response3disk,5,125,-9,7,1,0,0,rectangle,-9,7,1,0,0,1,5,0,-9,7,1,0,0,0,124,124,134,1,0,,,,,,,,,,,,,,,,,,,,,
,,,,,,,,,,,,,,,,,,,,,,,,,,,,,,,,,,,,,,,,,,605c7bd2d23cc89750cd22f6,606c0cd4762c7ea6fb9fda31,2021-04-06_09h25.34.770,Colour_Similarity_Experiment,2020.2.10,Win32,60,6067542a4a25243f4d7d4fcf,18.08333333,16.68725869,16.68095238,16.6801854,16.67186441,16.68095238,,,,,,,,,,,,,,,,,,,,PF,strong,3,,,,,,,,5,1.724,,,,,,,,,,,,,,,,,,,,,,,,,,,,8,strong,72,-29,1,0,0,response3disk,4,126,-1,0,1,0,0,rectangle,-1,0,1,0,0,1,5,0.001,-1,0,1,0,0,0,125,125,88,1,0,,,,,,,,,,,,,,,,,,,,,
,,,,,,,,,,,,,,,,,,,,,,,,,,,,,,,,,,,,,,,,,,605c7bd2d23cc89750cd22f6,606c0cd4762c7ea6fb9fda31,2021-04-06_09h25.34.770,Colour_Similarity_Experiment,2020.2.10,Win32,60,6067542a4a25243f4d7d4fcf,18.08333333,16.68725869,16.68095238,16.6801854,16.67186441,16.68095238,,,,,,,,,,,,,,,,,,,,PF,weak,3,,,,,,,,7,1.366,,,,,,,,,,,,,,,,,,,,,,,,,,,,8,weak,68,118,1,0,0,response1disk,2,127,8,10,1,0,0,rectangle,8,10,1,0,0,1,1,0.002,8,10,1,0,0,0,126,126,83,1,0,,,,,,,,,,,,,,,,,,,,,
,,,,,,,,,,,,,,,,,,,,,,,,,,,,,,,,,,,,,,,,,,605c7bd2d23cc89750cd22f6,606c0cd4762c7ea6fb9fda31,2021-04-06_09h25.34.770,Colour_Similarity_Experiment,2020.2.10,Win32,60,6067542a4a25243f4d7d4fcf,18.08333333,16.68725869,16.68095238,16.6801854,16.67186441,16.68095238,,,,,,,,,,,,,,,,,,,,PF,weak,3,,,,,,,,2,1.55,,,,,,,,,,,,,,,,,,,,,,,,,,,,3,weak,-80,-53,1,0,0,response5disk,4,128,8,0,1,0,0,rectangle,8,0,1,0,0,1,2,0,8,0,1,0,0,0,127,127,30,1,0,,,,,,,,,,,,,,,,,,,,,
,,,,,,,,,,,,,,,,,,,,,,,,,,,,,,,,,,,,,,,,,,605c7bd2d23cc89750cd22f6,606c0cd4762c7ea6fb9fda31,2021-04-06_09h25.34.770,Colour_Similarity_Experiment,2020.2.10,Win32,60,6067542a4a25243f4d7d4fcf,18.08333333,16.68725869,16.68095238,16.6801854,16.67186441,16.68095238,,,,,,,,,,,,,,,,,,,,PF,strong,3,,,,,,,,6,1.66,,,,,,,,,,,,,,,,,,,,,,,,,,,,9,strong,85,44,1,0,0,response1disk,2,129,-20,-11,1,0,0,rectangle,-103,42,1,0,0,1,1,1.383,5,0,1,0,0,0,128,128,11,1,1,response7disk_3,rectangle,,,,,,,,,,,,,,,,,,,
,,,,,,,,,,,,,,,,,,,,,,,,,,,,,,,,,,,,,,,,,,605c7bd2d23cc89750cd22f6,606c0cd4762c7ea6fb9fda31,2021-04-06_09h25.34.770,Colour_Similarity_Experiment,2020.2.10,Win32,60,6067542a4a25243f4d7d4fcf,18.08333333,16.68725869,16.68095238,16.6801854,16.67186441,16.68095238,,,,,,,,,,,,,,,,,,,,PF,strong,3,,,,,,,,7,1.415,,,,,,,,,,,,,,,,,,,,,,,,,,,,6,strong,81,112,1,0,0,response1disk,1,130,-7,-7,1,0,0,rectangle,-7,-7,1,0,0,1,1,0,-7,-7,1,0,0,0,129,129,5,1,0,,,,,,,,,,,,,,,,,,,,,
,,,,,,,,,,,,,,,,,,,,,,,,,,,,,,,,,,,,,,,,,,605c7bd2d23cc89750cd22f6,606c0cd4762c7ea6fb9fda31,2021-04-06_09h25.34.770,Colour_Similarity_Experiment,2020.2.10,Win32,60,6067542a4a25243f4d7d4fcf,18.08333333,16.68725869,16.68095238,16.6801854,16.67186441,16.68095238,,,,,,,,,,,,,,,,,,,,PF,strong,3,,,,,,,,7,1.234,,,,,,,,,,,,,,,,,,,,,,,,,,,,3,strong,63,120,1,0,0,response1disk,9,131,4,1,1,0,0,rectangle,4,1,1,0,0,1,3,0.002,4,1,1,0,0,0,130,130,143,1,0,,,,,,,,,,,,,,,,,,,,,
,,,,,,,,,,,,,,,,,,,,,,,,,,,,,,,,,,,,,,,,,,605c7bd2d23cc89750cd22f6,606c0cd4762c7ea6fb9fda31,2021-04-06_09h25.34.770,Colour_Similarity_Experiment,2020.2.10,Win32,60,6067542a4a25243f4d7d4fcf,18.08333333,16.68725869,16.68095238,16.6801854,16.67186441,16.68095238,,,,,,,,,,,,,,,,,,,,PF,weak,3,,,,,,,,0,1.167,,,,,,,,,,,,,,,,,,,,,,,,,,,,8,weak,-58,95,1,0,0,response7disk,7,132,-13,-5,1,0,0,rectangle,-13,-5,1,0,0,1,6,0.001,-13,-5,1,0,0,0,131,131,23,1,0,,,,,,,,,,,,,,,,,,,,,
,,,,,,,,,,,,,,,,,,,,,,,,,,,,,,,,,,,,,,,,,,605c7bd2d23cc89750cd22f6,606c0cd4762c7ea6fb9fda31,2021-04-06_09h25.34.770,Colour_Similarity_Experiment,2020.2.10,Win32,60,6067542a4a25243f4d7d4fcf,18.08333333,16.68725869,16.68095238,16.6801854,16.67186441,16.68095238,,,,,,,,,,,,,,,,,,,,PF,strong,3,,,,,,,,1,1.482,,,,,,,,,,,,,,,,,,,,,,,,,,,,4,strong,-72,37,1,0,0,response7disk,5,133,-13,-5,1,0,0,rectangle,-13,-5,1,0,0,1,0,0.001,-13,-5,1,0,0,0,132,132,116,1,0,,,,,,,,,,,,,,,,,,,,,
,,,,,,,,,,,,,,,,,,,,,,,,,,,,,,,,,,,,,,,,,,605c7bd2d23cc89750cd22f6,606c0cd4762c7ea6fb9fda31,2021-04-06_09h25.34.770,Colour_Similarity_Experiment,2020.2.10,Win32,60,6067542a4a25243f4d7d4fcf,18.08333333,16.68725869,16.68095238,16.6801854,16.67186441,16.68095238,,,,,,,,,,,,,,,,,,,,PF,weak,3,,,,,,,,2,1.382,,,,,,,,,,,,,,,,,,,,,,,,,,,,7,weak,-73,-48,1,0,0,response5disk,6,134,-8,0,1,0,0,rectangle,-8,0,1,0,0,1,4,0.001,-8,0,1,0,0,0,133,133,29,1,0,,,,,,,,,,,,,,,,,,,,,
,,,,,,,,,,,,,,,,,,,,,,,,,,,,,,,,,,,,,,,,,,605c7bd2d23cc89750cd22f6,606c0cd4762c7ea6fb9fda31,2021-04-06_09h25.34.770,Colour_Similarity_Experiment,2020.2.10,Win32,60,6067542a4a25243f4d7d4fcf,18.08333333,16.68725869,16.68095238,16.6801854,16.67186441,16.68095238,,,,,,,,,,,,,,,,,,,,PF,weak,3,,,,,,,,4,1.566,,,,,,,,,,,,,,,,,,,,,,,,,,,,8,weak,54,-107,1,0,0,response3disk,5,135,5,-3,1,0,0,rectangle,5,-3,1,0,0,1,0,0.001,5,-3,1,0,0,0,134,134,98,1,0,,,,,,,,,,,,,,,,,,,,,
,,,,,,,,,,,,,,,,,,,,,,,,,,,,,,,,,,,,,,,,,,605c7bd2d23cc89750cd22f6,606c0cd4762c7ea6fb9fda31,2021-04-06_09h25.34.770,Colour_Similarity_Experiment,2020.2.10,Win32,60,6067542a4a25243f4d7d4fcf,18.08333333,16.68725869,16.68095238,16.6801854,16.67186441,16.68095238,,,,,,,,,,,,,,,,,,,,PF,strong,3,,,,,,,,2,1.6,,,,,,,,,,,,,,,,,,,,,,,,,,,,7,strong,-91,-63,1,0,0,response5disk,6,136,4,-6,1,0,0,rectangle,4,-6,1,0,0,1,5,0.001,4,-6,1,0,0,0,135,135,31,1,0,,,,,,,,,,,,,,,,,,,,,
,,,,,,,,,,,,,,,,,,,,,,,,,,,,,,,,,,,,,,,,,,605c7bd2d23cc89750cd22f6,606c0cd4762c7ea6fb9fda31,2021-04-06_09h25.34.770,Colour_Similarity_Experiment,2020.2.10,Win32,60,6067542a4a25243f4d7d4fcf,18.08333333,16.68725869,16.68095238,16.6801854,16.67186441,16.68095238,,,,,,,,,,,,,,,,,,,,PF,weak,3,,,,,,,,3,1.367,,,,,,,,,,,,,,,,,,,,,,,,,,,,6,weak,-52,-89,1,0,0,response5disk,8,137,-3,-15,1,0,0,rectangle,-3,-15,1,0,0,1,6,0.003,-3,-15,1,0,0,0,136,136,64,1,0,,,,,,,,,,,,,,,,,,,,,
,,,,,,,,,,,,,,,,,,,,,,,,,,,,,,,,,,,,,,,,,,605c7bd2d23cc89750cd22f6,606c0cd4762c7ea6fb9fda31,2021-04-06_09h25.34.770,Colour_Similarity_Experiment,2020.2.10,Win32,60,6067542a4a25243f4d7d4fcf,18.08333333,16.68725869,16.68095238,16.6801854,16.67186441,16.68095238,,,,,,,,,,,,,,,,,,,,PF,strong,3,,,,,,,,3,1.366,,,,,,,,,,,,,,,,,,,,,,,,,,,,9,strong,-57,-86,1,0,0,response5disk,1,138,-16,-18,1,0,0,rectangle,-16,-18,1,0,0,1,0,0.001,-16,-18,1,0,0,0,137,137,111,1,0,,,,,,,,,,,,,,,,,,,,,
,,,,,,,,,,,,,,,,,,,,,,,,,,,,,,,,,,,,,,,,,,605c7bd2d23cc89750cd22f6,606c0cd4762c7ea6fb9fda31,2021-04-06_09h25.34.770,Colour_Similarity_Experiment,2020.2.10,Win32,60,6067542a4a25243f4d7d4fcf,18.08333333,16.68725869,16.68095238,16.6801854,16.67186441,16.68095238,,,,,,,,,,,,,,,,,,,,PF,weak,3,,,,,,,,3,2.983,,,,,,,,,,,,,,,,,,,,,,,,,,,,3,weak,-48,-92,1,0,0,response5disk,9,139,2,-14,1,0,0,rectangle,2,-14,1,0,0,1,6,0.001,2,-14,1,0,0,0,138,138,79,1,0,,,,,,,,,,,,,,,,,,,,,
,,,,,,,,,,,,,,,,,,,,,,,,,,,,,,,,,,,,,,,,,,605c7bd2d23cc89750cd22f6,606c0cd4762c7ea6fb9fda31,2021-04-06_09h25.34.770,Colour_Similarity_Experiment,2020.2.10,Win32,60,6067542a4a25243f4d7d4fcf,18.08333333,16.68725869,16.68095238,16.6801854,16.67186441,16.68095238,,,,,,,,,,,,,,,,,,,,PF,weak,3,,,,,,,,0,1.183,,,,,,,,,,,,,,,,,,,,,,,,,,,,4,weak,-36,120,1,0,0,response7disk,4,140,-15,-8,1,0,0,rectangle,-15,-8,1,0,0,1,1,0.001,-15,-8,1,0,0,0,139,139,70,1,0,,,,,,,,,,,,,,,,,,,,,
,,,,,,,,,,,,,,,,,,,,,,,,,,,,,,,,,,,,,,,,,,605c7bd2d23cc89750cd22f6,606c0cd4762c7ea6fb9fda31,2021-04-06_09h25.34.770,Colour_Similarity_Experiment,2020.2.10,Win32,60,6067542a4a25243f4d7d4fcf,18.08333333,16.68725869,16.68095238,16.6801854,16.67186441,16.68095238,,,,,,,,,,,,,,,,,,,,PF,strong,3,,,,,,,,4,3.616,,,,,,,,,,,,,,,,,,,,,,,,,,,,5,strong,39,-98,1,0,0,response3disk,9,141,-1,-11,1,0,0,rectangle,-1,-11,1,0,0,1,5,0.002,-1,-11,1,0,0,0,140,140,61,1,0,,,,,,,,,,,,,,,,,,,,,
,,,,,,,,,,,,,,,,,,,,,,,,,,,,,,,,,,,,,,,,,,605c7bd2d23cc89750cd22f6,606c0cd4762c7ea6fb9fda31,2021-04-06_09h25.34.770,Colour_Similarity_Experiment,2020.2.10,Win32,60,6067542a4a25243f4d7d4fcf,18.08333333,16.68725869,16.68095238,16.6801854,16.67186441,16.68095238,,,,,,,,,,,,,,,,,,,,PF,strong,3,,,,,,,,4,1.533,,,,,,,,,,,,,,,,,,,,,,,,,,,,4,strong,32,-111,1,0,0,response3disk,2,142,-9,-11,1,0,0,rectangle,-9,-11,1,0,0,1,5,0,-9,-11,1,0,0,0,141,141,13,1,0,,,,,,,,,,,,,,,,,,,,,
,,,,,,,,,,,,,,,,,,,,,,,,,,,,,,,,,,,,,,,,,,605c7bd2d23cc89750cd22f6,606c0cd4762c7ea6fb9fda31,2021-04-06_09h25.34.770,Colour_Similarity_Experiment,2020.2.10,Win32,60,6067542a4a25243f4d7d4fcf,18.08333333,16.68725869,16.68095238,16.6801854,16.67186441,16.68095238,,,,,,,,,,,,,,,,,,,,PF,weak,3,,,,,,,,5,2.065,,,,,,,,,,,,,,,,,,,,,,,,,,,,8,weak,103,-64,1,0,0,response3disk,4,143,-6,1,1,0,0,rectangle,-6,1,1,0,0,1,7,0.001,-6,1,1,0,0,0,142,142,78,1,0,,,,,,,,,,,,,,,,,,,,,
,,,,,,,,,,,,,,,,,,,,,,,,,,,,,,,,,,,,,,,,,,605c7bd2d23cc89750cd22f6,606c0cd4762c7ea6fb9fda31,2021-04-06_09h25.34.770,Colour_Similarity_Experiment,2020.2.10,Win32,60,6067542a4a25243f4d7d4fcf,18.08333333,16.68725869,16.68095238,16.6801854,16.67186441,16.68095238,,,,,,,,,,,,,,,,,,,,PF,weak,3,,,,,,,,2,1.616,,,,,,,,,,,,,,,,,,,,,,,,,,,,3,weak,-101,-42,1,0,0,response5disk,2,144,0,-11,1,0,0,rectangle,119,-81,1,0,0,5,5,1.633,-25,3,1,0,0,0,143,143,36,1,1,response3disk_3,rectangle,,,,,,,,,,,,,,,,,,,
,,,,,,,,,,,,,,,,,,,,,,,,,,,,,,,,,,,,,,,,,,605c7bd2d23cc89750cd22f6,606c0cd4762c7ea6fb9fda31,2021-04-06_09h25.34.770,Colour_Similarity_Experiment,2020.2.10,Win32,60,6067542a4a25243f4d7d4fcf,18.08333333,16.68725869,16.68095238,16.6801854,16.67186441,16.68095238,,,,,,,,,,,,,,,,,,,,PF,strong,3,,,,,,,,6,3.481,,,,,,,,,,,,,,,,,,,,,,,,,,,,4,strong,66,48,1,0,0,response1disk,1,145,4,3,1,0,0,rectangle,4,3,1,0,0,5,7,0.003,4,3,1,0,0,0,144,144,102,1,0,,,,,,,,,,,,,,,,,,,,,
,,,,,,,,,,,,,,,,,,,,,,,,,,,,,,,,,,,,,,,,,,605c7bd2d23cc89750cd22f6,606c0cd4762c7ea6fb9fda31,2021-04-06_09h25.34.770,Colour_Similarity_Experiment,2020.2.10,Win32,60,6067542a4a25243f4d7d4fcf,18.08333333,16.68725869,16.68095238,16.6801854,16.67186441,16.68095238,,,,,,,,,,,,,,,,,,,,PF,strong,3,,,,,,,,1,1.233,,,,,,,,,,,,,,,,,,,,,,,,,,,,9,strong,-129,52,1,0,0,response7disk,9,146,-35,7,1,0,0,rectangle,-35,7,1,0,0,5,4,0.002,-35,7,1,0,0,0,145,145,17,1,0,,,,,,,,,,,,,,,,,,,,,
,,,,,,,,,,,,,,,,,,,,,,,,,,,,,,,,,,,,,,,,,,605c7bd2d23cc89750cd22f6,606c0cd4762c7ea6fb9fda31,2021-04-06_09h25.34.770,Colour_Similarity_Experiment,2020.2.10,Win32,60,6067542a4a25243f4d7d4fcf,18.08333333,16.68725869,16.68095238,16.6801854,16.67186441,16.68095238,,,,,,,,,,,,,,,,,,,,PF,strong,3,,,,,,,,2,1.216,,,,,,,,,,,,,,,,,,,,,,,,,,,,6,strong,-98,-57,1,0,0,response5disk,5,147,-23,-1,1,0,0,rectangle,-23,-1,1,0,0,5,4,0,-23,-1,1,0,0,0,146,146,126,1,0,,,,,,,,,,,,,,,,,,,,,
,,,,,,,,,,,,,,,,,,,,,,,,,,,,,,,,,,,,,,,,,,605c7bd2d23cc89750cd22f6,606c0cd4762c7ea6fb9fda31,2021-04-06_09h25.34.770,Colour_Similarity_Experiment,2020.2.10,Win32,60,6067542a4a25243f4d7d4fcf,18.08333333,16.68725869,16.68095238,16.6801854,16.67186441,16.68095238,,,,,,,,,,,,,,,,,,,,PF,strong,3,,,,,,,,0,1.033,,,,,,,,,,,,,,,,,,,,,,,,,,,,2,strong,-77,111,1,0,0,response7disk,2,148,9,-13,1,0,0,rectangle,9,-13,1,0,0,5,2,0.002,9,-13,1,0,0,0,147,147,142,1,0,,,,,,,,,,,,,,,,,,,,,
,,,,,,,,,,,,,,,,,,,,,,,,,,,,,,,,,,,,,,,,,,605c7bd2d23cc89750cd22f6,606c0cd4762c7ea6fb9fda31,2021-04-06_09h25.34.770,Colour_Similarity_Experiment,2020.2.10,Win32,60,6067542a4a25243f4d7d4fcf,18.08333333,16.68725869,16.68095238,16.6801854,16.67186441,16.68095238,,,,,,,,,,,,,,,,,,,,PF,strong,3,,,,,,,,7,1.25,,,,,,,,,,,,,,,,,,,,,,,,,,,,4,strong,70,99,1,0,0,response1disk,9,149,6,-2,1,0,0,rectangle,6,-2,1,0,0,5,4,0.003,6,-2,1,0,0,0,148,148,90,1,0,,,,,,,,,,,,,,,,,,,,,
,,,,,,,,,,,,,,,,,,,,,,,,,,,,,,,,,,,,,,,,,,605c7bd2d23cc89750cd22f6,606c0cd4762c7ea6fb9fda31,2021-04-06_09h25.34.770,Colour_Similarity_Experiment,2020.2.10,Win32,60,6067542a4a25243f4d7d4fcf,18.08333333,16.68725869,16.68095238,16.6801854,16.67186441,16.68095238,,,,,,,,,,,,,,,,,,,,PF,strong,3,,,,,,,,1,1.833,,,,,,,,,,,,,,,,,,,,,,,,,,,,5,strong,-117,64,1,0,0,response7disk,6,150,-24,-2,1,0,0,rectangle,-24,-2,1,0,0,5,1,0.001,-24,-2,1,0,0,0,149,149,12,1,0,,,,,,,,,,,,,,,,,,,,,
,,,,,,,,,,,,,,,,,,,,,,,,,,,,,,,,,,,,,,,,,,605c7bd2d23cc89750cd22f6,606c0cd4762c7ea6fb9fda31,2021-04-06_09h25.34.770,Colour_Similarity_Experiment,2020.2.10,Win32,60,6067542a4a25243f4d7d4fcf,18.08333333,16.68725869,16.68095238,16.6801854,16.67186441,16.68095238,,,,,,,,,,,,,,,,,,,,PF,weak,3,,,,,,,,7,1.232,,,,,,,,,,,,,,,,,,,,,,,,,,,,4,weak,56,96,1,0,0,response1disk,9,151,-6,-7,1,0,0,rectangle,-6,-7,1,0,0,5,5,0.002,-6,-7,1,0,0,0,150,150,75,1,0,,,,,,,,,,,,,,,,,,,,,
,,,,,,,,,,,,,,,,,,,,,,,,,,,,,,,,,,,,,,,,,,605c7bd2d23cc89750cd22f6,606c0cd4762c7ea6fb9fda31,2021-04-06_09h25.34.770,Colour_Similarity_Experiment,2020.2.10,Win32,60,6067542a4a25243f4d7d4fcf,18.08333333,16.68725869,16.68095238,16.6801854,16.67186441,16.68095238,,,,,,,,,,,,,,,,,,,,PF,weak,3,,,,,,,,0,1.016,,,,,,,,,,,,,,,,,,,,,,,,,,,,1,weak,-57,110,1,0,0,response7disk,1,152,-24,18,1,0,0,rectangle,-40,104,1,0,0,0,0,1.566,-4,-2,1,0,0,0,151,151,76,1,1,response7disk_3,rectangle,,,,,,,,,,,,,,,,,,,
,,,,,,,,,,,,,,,,,,,,,,,,,,,,,,,,,,,,,,,,,,605c7bd2d23cc89750cd22f6,606c0cd4762c7ea6fb9fda31,2021-04-06_09h25.34.770,Colour_Similarity_Experiment,2020.2.10,Win32,60,6067542a4a25243f4d7d4fcf,18.08333333,16.68725869,16.68095238,16.6801854,16.67186441,16.68095238,,,,,,,,,,,,,,,,,,,,PF,strong,3,,,,,,,,1,1.418,,,,,,,,,,,,,,,,,,,,,,,,,,,,1,strong,-101,38,1,0,0,response7disk,9,153,6,-2,1,0,0,rectangle,6,-2,1,0,0,0,4,0.002,6,-2,1,0,0,0,152,152,123,1,0,,,,,,,,,,,,,,,,,,,,,
,,,,,,,,,,,,,,,,,,,,,,,,,,,,,,,,,,,,,,,,,,605c7bd2d23cc89750cd22f6,606c0cd4762c7ea6fb9fda31,2021-04-06_09h25.34.770,Colour_Similarity_Experiment,2020.2.10,Win32,60,6067542a4a25243f4d7d4fcf,18.08333333,16.68725869,16.68095238,16.6801854,16.67186441,16.68095238,,,,,,,,,,,,,,,,,,,,PF,weak,3,,,,,,,,2,2.832,,,,,,,,,,,,,,,,,,,,,,,,,,,,5,weak,-107,-61,1,0,0,response5disk,8,154,-19,-15,1,0,0,rectangle,-19,-15,1,0,0,0,4,0,-19,-15,1,0,0,0,153,153,149,1,0,,,,,,,,,,,,,,,,,,,,,
,,,,,,,,,,,,,,,,,,,,,,,,,,,,,,,,,,,,,,,,,,605c7bd2d23cc89750cd22f6,606c0cd4762c7ea6fb9fda31,2021-04-06_09h25.34.770,Colour_Similarity_Experiment,2020.2.10,Win32,60,6067542a4a25243f4d7d4fcf,18.08333333,16.68725869,16.68095238,16.6801854,16.67186441,16.68095238,,,,,,,,,,,,,,,,,,,,PF,strong,3,,,,,,,,7,1.116,,,,,,,,,,,,,,,,,,,,,,,,,,,,3,strong,55,123,1,0,0,response1disk,8,155,4,4,1,0,0,rectangle,4,4,1,0,0,0,6,0.001,4,4,1,0,0,0,154,154,44,1,0,,,,,,,,,,,,,,,,,,,,,
,,,,,,,,,,,,,,,,,,,,,,,,,,,,,,,,,,,,,,,,,,605c7bd2d23cc89750cd22f6,606c0cd4762c7ea6fb9fda31,2021-04-06_09h25.34.770,Colour_Similarity_Experiment,2020.2.10,Win32,60,6067542a4a25243f4d7d4fcf,18.08333333,16.68725869,16.68095238,16.6801854,16.67186441,16.68095238,,,,,,,,,,,,,,,,,,,,PF,strong,3,,,,,,,,7,1.3,,,,,,,,,,,,,,,,,,,,,,,,,,,,8,strong,57,99,1,0,0,response1disk,2,156,24,-10,1,0,0,rectangle,24,-10,1,0,0,0,2,0.001,24,-10,1,0,0,0,155,155,22,1,0,,,,,,,,,,,,,,,,,,,,,
,,,,,,,,,,,,,,,,,,,,,,,,,,,,,,,,,,,,,,,,,,605c7bd2d23cc89750cd22f6,606c0cd4762c7ea6fb9fda31,2021-04-06_09h25.34.770,Colour_Similarity_Experiment,2020.2.10,Win32,60,6067542a4a25243f4d7d4fcf,18.08333333,16.68725869,16.68095238,16.6801854,16.67186441,16.68095238,,,,,,,,,,,,,,,,,,,,PF,weak,3,,,,,,,,5,1.016,,,,,,,,,,,,,,,,,,,,,,,,,,,,1,weak,72,-49,1,0,0,response3disk,3,157,-43,1,1,0,0,rectangle,-43,1,1,0,0,0,1,0.001,-43,1,1,0,0,0,156,156,1,1,0,,,,,,,,,,,,,,,,,,,,,
,,,,,,,,,,,,,,,,,,,,,,,,,,,,,,,,,,,,,,,,,,605c7bd2d23cc89750cd22f6,606c0cd4762c7ea6fb9fda31,2021-04-06_09h25.34.770,Colour_Similarity_Experiment,2020.2.10,Win32,60,6067542a4a25243f4d7d4fcf,18.08333333,16.68725869,16.68095238,16.6801854,16.67186441,16.68095238,,,,,,,,,,,,,,,,,,,,PF,weak,3,,,,,,,,2,1.05,,,,,,,,,,,,,,,,,,,,,,,,,,,,4,weak,-105,-62,1,0,0,response5disk,5,158,-20,-6,1,0,0,rectangle,-20,-6,1,0,0,0,5,0.001,-20,-6,1,0,0,0,157,157,49,1,0,,,,,,,,,,,,,,,,,,,,,
,,,,,,,,,,,,,,,,,,,,,,,,,,,,,,,,,,,,,,,,,,605c7bd2d23cc89750cd22f6,606c0cd4762c7ea6fb9fda31,2021-04-06_09h25.34.770,Colour_Similarity_Experiment,2020.2.10,Win32,60,6067542a4a25243f4d7d4fcf,18.08333333,16.68725869,16.68095238,16.6801854,16.67186441,16.68095238,,,,,,,,,,,,,,,,,,,,PF,weak,3,,,,,,,,1,1.015,,,,,,,,,,,,,,,,,,,,,,,,,,,,6,weak,-76,39,1,0,0,response7disk,7,159,-10,-7,1,0,0,rectangle,-10,-7,1,0,0,0,7,0,-10,-7,1,0,0,0,158,158,50,1,0,,,,,,,,,,,,,,,,,,,,,
,,,,,,,,,,,,,,,,,,,,,,,,,,,,,,,,,,,,,,,,,,605c7bd2d23cc89750cd22f6,606c0cd4762c7ea6fb9fda31,2021-04-06_09h25.34.770,Colour_Similarity_Experiment,2020.2.10,Win32,60,6067542a4a25243f4d7d4fcf,18.08333333,16.68725869,16.68095238,16.6801854,16.67186441,16.68095238,,,,,,,,,,,,,,,,,,,,PF,strong,3,,,,,,,,7,1.199,,,,,,,,,,,,,,,,,,,,,,,,,,,,4,strong,77,98,1,0,0,response1disk,8,160,14,-13,1,0,0,rectangle,14,-13,1,0,0,0,7,0.001,14,-13,1,0,0,0,159,159,35,1,0,,,,,,,,,,,,,,,,,,,,,
,,,,,,,,,,,,,,,,,,,,,,,,,,,,,,,,,,,,,,,,,,605c7bd2d23cc89750cd22f6,606c0cd4762c7ea6fb9fda31,2021-04-06_09h25.34.770,Colour_Similarity_Experiment,2020.2.10,Win32,60,6067542a4a25243f4d7d4fcf,18.08333333,16.68725869,16.68095238,16.6801854,16.67186441,16.68095238,,,,,,,,,,,,,,,,,,,,PF,strong,3,,,,,,,,2,2.448,,,,,,,,,,,,,,,,,,,,,,,,,,,,7,strong,-117,-49,1,0,0,response5disk,8,161,-5,3,1,0,0,rectangle,-65,-110,1,0,0,3,3,1.611,-12,9,1,0,0,0,160,160,97,1,1,response5disk_3,rectangle,,,,,,,,,,,,,,,,,,,
,,,,,,,,,,,,,,,,,,,,,,,,,,,,,,,,,,,,,,,,,,605c7bd2d23cc89750cd22f6,606c0cd4762c7ea6fb9fda31,2021-04-06_09h25.34.770,Colour_Similarity_Experiment,2020.2.10,Win32,60,6067542a4a25243f4d7d4fcf,18.08333333,16.68725869,16.68095238,16.6801854,16.67186441,16.68095238,,,,,,,,,,,,,,,,,,,,PF,strong,3,,,,,,,,7,1.733,,,,,,,,,,,,,,,,,,,,,,,,,,,,9,strong,72,125,1,0,0,response1disk,4,162,6,-5,1,0,0,rectangle,6,-5,1,0,0,3,0,0.001,6,-5,1,0,0,0,161,161,60,1,0,,,,,,,,,,,,,,,,,,,,,
,,,,,,,,,,,,,,,,,,,,,,,,,,,,,,,,,,,,,,,,,,605c7bd2d23cc89750cd22f6,606c0cd4762c7ea6fb9fda31,2021-04-06_09h25.34.770,Colour_Similarity_Experiment,2020.2.10,Win32,60,6067542a4a25243f4d7d4fcf,18.08333333,16.68725869,16.68095238,16.6801854,16.67186441,16.68095238,,,,,,,,,,,,,,,,,,,,,,,,,,,,,,,,,,,,,,,,,,,,,,,,,,,,,,,,,,,,,,,,,,,,,,,,,,,,,,,,,,,,,,,,,,,,,,,,0,0,0,0,1,,,,,,,,,,,,,,
,,,,,,,,,,,,,,,,,,,,,,,,,,,,,,,,,,,,,,,,,,605c7bd2d23cc89750cd22f6,606c0cd4762c7ea6fb9fda31,2021-04-06_09h25.34.770,Colour_Similarity_Experiment,2020.2.10,Win32,60,6067542a4a25243f4d7d4fcf,18.08333333,16.68725869,16.68095238,16.6801854,16.67186441,16.68095238,,,,,,,,,,,,,,,,,,,,PF,strong,3,,,,,,,,1,1.183,,,,,,,,,,,,,,,,,,,,,,,,,,,,6,strong,-87,39,1,0,0,response7disk,7,163,-32,-3,1,0,0,rectangle,-32,-3,1,0,0,3,4,0.003,-32,-3,1,0,0,0,0,0,18,1,0,,,,,,,,,,,,,,,,,,,,,
,,,,,,,,,,,,,,,,,,,,,,,,,,,,,,,,,,,,,,,,,,605c7bd2d23cc89750cd22f6,606c0cd4762c7ea6fb9fda31,2021-04-06_09h25.34.770,Colour_Similarity_Experiment,2020.2.10,Win32,60,6067542a4a25243f4d7d4fcf,18.08333333,16.68725869,16.68095238,16.6801854,16.67186441,16.68095238,,,,,,,,,,,,,,,,,,,,PF,strong,3,,,,,,,,3,1.767,,,,,,,,,,,,,,,,,,,,,,,,,,,,9,strong,-47,-79,1,0,0,response5disk,7,164,-18,-4,1,0,0,rectangle,-18,-4,1,0,0,3,5,0.003,-18,-4,1,0,0,0,1,1,100,1,0,,,,,,,,,,,,,,,,,,,,,
,,,,,,,,,,,,,,,,,,,,,,,,,,,,,,,,,,,,,,,,,,605c7bd2d23cc89750cd22f6,606c0cd4762c7ea6fb9fda31,2021-04-06_09h25.34.770,Colour_Similarity_Experiment,2020.2.10,Win32,60,6067542a4a25243f4d7d4fcf,18.08333333,16.68725869,16.68095238,16.6801854,16.67186441,16.68095238,,,,,,,,,,,,,,,,,,,,PF,weak,3,,,,,,,,4,1.767,,,,,,,,,,,,,,,,,,,,,,,,,,,,6,weak,32,-102,1,0,0,response3disk,4,165,14,-13,1,0,0,rectangle,14,-13,1,0,0,3,3,0.004,14,-13,1,0,0,0,2,2,33,1,0,,,,,,,,,,,,,,,,,,,,,
,,,,,,,,,,,,,,,,,,,,,,,,,,,,,,,,,,,,,,,,,,605c7bd2d23cc89750cd22f6,606c0cd4762c7ea6fb9fda31,2021-04-06_09h25.34.770,Colour_Similarity_Experiment,2020.2.10,Win32,60,6067542a4a25243f4d7d4fcf,18.08333333,16.68725869,16.68095238,16.6801854,16.67186441,16.68095238,,,,,,,,,,,,,,,,,,,,PF,strong,3,,,,,,,,7,1.434,,,,,,,,,,,,,,,,,,,,,,,,,,,,1,strong,61,113,1,0,0,response1disk,5,166,15,1,1,0,0,rectangle,15,1,1,0,0,3,6,0.001,15,1,1,0,0,0,3,3,82,1,0,,,,,,,,,,,,,,,,,,,,,
,,,,,,,,,,,,,,,,,,,,,,,,,,,,,,,,,,,,,,,,,,605c7bd2d23cc89750cd22f6,606c0cd4762c7ea6fb9fda31,2021-04-06_09h25.34.770,Colour_Similarity_Experiment,2020.2.10,Win32,60,6067542a4a25243f4d7d4fcf,18.08333333,16.68725869,16.68095238,16.6801854,16.67186441,16.68095238,,,,,,,,,,,,,,,,,,,,PF,weak,3,,,,,,,,6,1.517,,,,,,,,,,,,,,,,,,,,,,,,,,,,3,weak,70,51,1,0,0,response1disk,6,167,-1,1,1,0,0,rectangle,-1,1,1,0,0,3,0,0.001,-1,1,1,0,0,0,4,4,47,1,0,,,,,,,,,,,,,,,,,,,,,
,,,,,,,,,,,,,,,,,,,,,,,,,,,,,,,,,,,,,,,,,,605c7bd2d23cc89750cd22f6,606c0cd4762c7ea6fb9fda31,2021-04-06_09h25.34.770,Colour_Similarity_Experiment,2020.2.10,Win32,60,6067542a4a25243f4d7d4fcf,18.08333333,16.68725869,16.68095238,16.6801854,16.67186441,16.68095238,,,,,,,,,,,,,,,,,,,,PF,weak,3,,,,,,,,0,1.3,,,,,,,,,,,,,,,,,,,,,,,,,,,,2,weak,-60,91,1,0,0,response7disk,2,168,-18,14,1,0,0,rectangle,-18,14,1,0,0,3,7,0.002,-18,14,1,0,0,0,5,5,14,1,0,,,,,,,,,,,,,,,,,,,,,
,,,,,,,,,,,,,,,,,,,,,,,,,,,,,,,,,,,,,,,,,,605c7bd2d23cc89750cd22f6,606c0cd4762c7ea6fb9fda31,2021-04-06_09h25.34.770,Colour_Similarity_Experiment,2020.2.10,Win32,60,6067542a4a25243f4d7d4fcf,18.08333333,16.68725869,16.68095238,16.6801854,16.67186441,16.68095238,,,,,,,,,,,,,,,,,,,,PF,weak,3,,,,,,,,1,1.199,,,,,,,,,,,,,,,,,,,,,,,,,,,,6,weak,-71,36,1,0,0,response7disk,5,169,20,-17,1,0,0,rectangle,20,-17,1,0,0,3,1,0.003,20,-17,1,0,0,0,6,6,59,1,0,,,,,,,,,,,,,,,,,,,,,
,,,,,,,,,,,,,,,,,,,,,,,,,,,,,,,,,,,,,,,,,,605c7bd2d23cc89750cd22f6,606c0cd4762c7ea6fb9fda31,2021-04-06_09h25.34.770,Colour_Similarity_Experiment,2020.2.10,Win32,60,6067542a4a25243f4d7d4fcf,18.08333333,16.68725869,16.68095238,16.6801854,16.67186441,16.68095238,,,,,,,,,,,,,,,,,,,,PF,strong,3,,,,,,,,0,1.266,,,,,,,,,,,,,,,,,,,,,,,,,,,,3,strong,-51,120,1,0,0,response7disk,3,170,-6,-3,1,0,0,rectangle,-6,-3,1,0,0,3,6,0.002,-6,-3,1,0,0,0,7,7,68,1,0,,,,,,,,,,,,,,,,,,,,,
,,,,,,,,,,,,,,,,,,,,,,,,,,,,,,,,,,,,,,,,,,605c7bd2d23cc89750cd22f6,606c0cd4762c7ea6fb9fda31,2021-04-06_09h25.34.770,Colour_Similarity_Experiment,2020.2.10,Win32,60,6067542a4a25243f4d7d4fcf,18.08333333,16.68725869,16.68095238,16.6801854,16.67186441,16.68095238,,,,,,,,,,,,,,,,,,,,PF,weak,3,,,,,,,,7,1.35,,,,,,,,,,,,,,,,,,,,,,,,,,,,7,weak,57,98,1,0,0,response1disk,2,171,18,-7,1,0,0,rectangle,18,-7,1,0,0,3,3,0.001,18,-7,1,0,0,0,8,8,32,1,0,,,,,,,,,,,,,,,,,,,,,
,,,,,,,,,,,,,,,,,,,,,,,,,,,,,,,,,,,,,,,,,,605c7bd2d23cc89750cd22f6,606c0cd4762c7ea6fb9fda31,2021-04-06_09h25.34.770,Colour_Similarity_Experiment,2020.2.10,Win32,60,6067542a4a25243f4d7d4fcf,18.08333333,16.68725869,16.68095238,16.6801854,16.67186441,16.68095238,,,,,,,,,,,,,,,,,,,,PF,strong,3,,,,,,,,1,1.149,,,,,,,,,,,,,,,,,,,,,,,,,,,,8,strong,-77,44,1,0,0,response7disk,6,172,-22,4,1,0,0,rectangle,-22,4,1,0,0,3,6,0.001,-22,4,1,0,0,0,9,9,37,1,0,,,,,,,,,,,,,,,,,,,,,
,,,,,,,,,,,,,,,,,,,,,,,,,,,,,,,,,,,,,,,,,,605c7bd2d23cc89750cd22f6,606c0cd4762c7ea6fb9fda31,2021-04-06_09h25.34.770,Colour_Similarity_Experiment,2020.2.10,Win32,60,6067542a4a25243f4d7d4fcf,18.08333333,16.68725869,16.68095238,16.6801854,16.67186441,16.68095238,,,,,,,,,,,,,,,,,,,,PF,weak,3,,,,,,,,7,1.549,,,,,,,,,,,,,,,,,,,,,,,,,,,,7,weak,47,92,1,0,0,response1disk,1,173,20,0,1,0,0,rectangle,20,0,1,0,0,3,4,0.002,20,0,1,0,0,0,10,10,53,1,0,,,,,,,,,,,,,,,,,,,,,
,,,,,,,,,,,,,,,,,,,,,,,,,,,,,,,,,,,,,,,,,,605c7bd2d23cc89750cd22f6,606c0cd4762c7ea6fb9fda31,2021-04-06_09h25.34.770,Colour_Similarity_Experiment,2020.2.10,Win32,60,6067542a4a25243f4d7d4fcf,18.08333333,16.68725869,16.68095238,16.6801854,16.67186441,16.68095238,,,,,,,,,,,,,,,,,,,,PF,weak,3,,,,,,,,5,1.317,,,,,,,,,,,,,,,,,,,,,,,,,,,,1,weak,92,-60,1,0,0,response3disk,2,174,-4,-9,1,0,0,rectangle,-4,-9,1,0,0,3,1,0.001,-4,-9,1,0,0,0,11,11,24,1,0,,,,,,,,,,,,,,,,,,,,,
,,,,,,,,,,,,,,,,,,,,,,,,,,,,,,,,,,,,,,,,,,605c7bd2d23cc89750cd22f6,606c0cd4762c7ea6fb9fda31,2021-04-06_09h25.34.770,Colour_Similarity_Experiment,2020.2.10,Win32,60,6067542a4a25243f4d7d4fcf,18.08333333,16.68725869,16.68095238,16.6801854,16.67186441,16.68095238,,,,,,,,,,,,,,,,,,,,PF,weak,3,,,,,,,,2,1.567,,,,,,,,,,,,,,,,,,,,,,,,,,,,8,weak,-77,-51,1,0,0,response5disk,6,175,-15,-20,1,0,0,rectangle,44,113,1,0,0,7,7,1.383,3,-7,1,0,0,0,12,12,161,1,1,response1disk_3,rectangle,,,,,,,,,,,,,,,,,,,
,,,,,,,,,,,,,,,,,,,,,,,,,,,,,,,,,,,,,,,,,,605c7bd2d23cc89750cd22f6,606c0cd4762c7ea6fb9fda31,2021-04-06_09h25.34.770,Colour_Similarity_Experiment,2020.2.10,Win32,60,6067542a4a25243f4d7d4fcf,18.08333333,16.68725869,16.68095238,16.6801854,16.67186441,16.68095238,,,,,,,,,,,,,,,,,,,,PF,strong,3,,,,,,,,7,1.549,,,,,,,,,,,,,,,,,,,,,,,,,,,,1,strong,83,117,1,0,0,response1disk,7,176,19,-13,1,0,0,rectangle,19,-13,1,0,0,7,3,0.001,19,-13,1,0,0,0,13,13,137,1,0,,,,,,,,,,,,,,,,,,,,,
,,,,,,,,,,,,,,,,,,,,,,,,,,,,,,,,,,,,,,,,,,605c7bd2d23cc89750cd22f6,606c0cd4762c7ea6fb9fda31,2021-04-06_09h25.34.770,Colour_Similarity_Experiment,2020.2.10,Win32,60,6067542a4a25243f4d7d4fcf,18.08333333,16.68725869,16.68095238,16.6801854,16.67186441,16.68095238,,,,,,,,,,,,,,,,,,,,PF,strong,3,,,,,,,,6,1.667,,,,,,,,,,,,,,,,,,,,,,,,,,,,2,strong,138,33,1,0,0,response1disk,8,177,-19,-15,1,0,0,rectangle,-19,-15,1,0,0,7,3,0,-19,-15,1,0,0,0,14,14,62,1,0,,,,,,,,,,,,,,,,,,,,,
,,,,,,,,,,,,,,,,,,,,,,,,,,,,,,,,,,,,,,,,,,605c7bd2d23cc89750cd22f6,606c0cd4762c7ea6fb9fda31,2021-04-06_09h25.34.770,Colour_Similarity_Experiment,2020.2.10,Win32,60,6067542a4a25243f4d7d4fcf,18.08333333,16.68725869,16.68095238,16.6801854,16.67186441,16.68095238,,,,,,,,,,,,,,,,,,,,PF,weak,3,,,,,,,,7,1.433,,,,,,,,,,,,,,,,,,,,,,,,,,,,7,weak,56,94,1,0,0,response1disk,3,178,3,1,1,0,0,rectangle,3,1,1,0,0,7,1,0.002,3,1,1,0,0,0,15,15,81,1,0,,,,,,,,,,,,,,,,,,,,,
,,,,,,,,,,,,,,,,,,,,,,,,,,,,,,,,,,,,,,,,,,605c7bd2d23cc89750cd22f6,606c0cd4762c7ea6fb9fda31,2021-04-06_09h25.34.770,Colour_Similarity_Experiment,2020.2.10,Win32,60,6067542a4a25243f4d7d4fcf,18.08333333,16.68725869,16.68095238,16.6801854,16.67186441,16.68095238,,,,,,,,,,,,,,,,,,,,PF,strong,3,,,,,,,,2,1.398,,,,,,,,,,,,,,,,,,,,,,,,,,,,5,strong,-78,-57,1,0,0,response5disk,4,179,-4,-9,1,0,0,rectangle,-4,-9,1,0,0,7,0,0.001,-4,-9,1,0,0,0,16,16,8,1,0,,,,,,,,,,,,,,,,,,,,,
,,,,,,,,,,,,,,,,,,,,,,,,,,,,,,,,,,,,,,,,,,605c7bd2d23cc89750cd22f6,606c0cd4762c7ea6fb9fda31,2021-04-06_09h25.34.770,Colour_Similarity_Experiment,2020.2.10,Win32,60,6067542a4a25243f4d7d4fcf,18.08333333,16.68725869,16.68095238,16.6801854,16.67186441,16.68095238,,,,,,,,,,,,,,,,,,,,PF,weak,3,,,,,,,,7,1.164,,,,,,,,,,,,,,,,,,,,,,,,,,,,1,weak,41,100,1,0,0,response1disk,4,180,2,-11,1,0,0,rectangle,2,-11,1,0,0,7,4,0.001,2,-11,1,0,0,0,17,17,139,1,0,,,,,,,,,,,,,,,,,,,,,
,,,,,,,,,,,,,,,,,,,,,,,,,,,,,,,,,,,,,,,,,,605c7bd2d23cc89750cd22f6,606c0cd4762c7ea6fb9fda31,2021-04-06_09h25.34.770,Colour_Similarity_Experiment,2020.2.10,Win32,60,6067542a4a25243f4d7d4fcf,18.08333333,16.68725869,16.68095238,16.6801854,16.67186441,16.68095238,,,,,,,,,,,,,,,,,,,,PF,weak,3,,,,,,,,5,2.015,,,,,,,,,,,,,,,,,,,,,,,,,,,,2,weak,110,-50,1,0,0,response3disk,7,181,23,-5,1,0,0,rectangle,23,-5,1,0,0,7,0,0.001,23,-5,1,0,0,0,18,18,107,1,0,,,,,,,,,,,,,,,,,,,,,
,,,,,,,,,,,,,,,,,,,,,,,,,,,,,,,,,,,,,,,,,,605c7bd2d23cc89750cd22f6,606c0cd4762c7ea6fb9fda31,2021-04-06_09h25.34.770,Colour_Similarity_Experiment,2020.2.10,Win32,60,6067542a4a25243f4d7d4fcf,18.08333333,16.68725869,16.68095238,16.6801854,16.67186441,16.68095238,,,,,,,,,,,,,,,,,,,,PF,weak,3,,,,,,,,3,1.567,,,,,,,,,,,,,,,,,,,,,,,,,,,,1,weak,-68,-92,1,0,0,response5disk,8,182,-33,1,1,0,0,rectangle,-33,1,1,0,0,7,2,0.001,-33,1,1,0,0,0,19,19,65,1,0,,,,,,,,,,,,,,,,,,,,,
,,,,,,,,,,,,,,,,,,,,,,,,,,,,,,,,,,,,,,,,,,605c7bd2d23cc89750cd22f6,606c0cd4762c7ea6fb9fda31,2021-04-06_09h25.34.770,Colour_Similarity_Experiment,2020.2.10,Win32,60,6067542a4a25243f4d7d4fcf,18.08333333,16.68725869,16.68095238,16.6801854,16.67186441,16.68095238,,,,,,,,,,,,,,,,,,,,PF,strong,3,,,,,,,,2,1.233,,,,,,,,,,,,,,,,,,,,,,,,,,,,7,strong,-101,-36,1,0,0,response5disk,9,183,-17,9,1,0,0,rectangle,-17,9,1,0,0,7,7,0,-17,9,1,0,0,0,20,20,155,1,0,,,,,,,,,,,,,,,,,,,,,
,,,,,,,,,,,,,,,,,,,,,,,,,,,,,,,,,,,,,,,,,,605c7bd2d23cc89750cd22f6,606c0cd4762c7ea6fb9fda31,2021-04-06_09h25.34.770,Colour_Similarity_Experiment,2020.2.10,Win32,60,6067542a4a25243f4d7d4fcf,18.08333333,16.68725869,16.68095238,16.6801854,16.67186441,16.68095238,,,,,,,,,,,,,,,,,,,,PF,weak,3,,,,,,,,6,1.167,,,,,,,,,,,,,,,,,,,,,,,,,,,,2,weak,86,55,1,0,0,response1disk,6,184,4,-7,1,0,0,rectangle,4,-7,1,0,0,7,3,0.001,4,-7,1,0,0,0,21,21,113,1,0,,,,,,,,,,,,,,,,,,,,,
,,,,,,,,,,,,,,,,,,,,,,,,,,,,,,,,,,,,,,,,,,605c7bd2d23cc89750cd22f6,606c0cd4762c7ea6fb9fda31,2021-04-06_09h25.34.770,Colour_Similarity_Experiment,2020.2.10,Win32,60,6067542a4a25243f4d7d4fcf,18.08333333,16.68725869,16.68095238,16.6801854,16.67186441,16.68095238,,,,,,,,,,,,,,,,,,,,PF,weak,3,,,,,,,,0,1.1,,,,,,,,,,,,,,,,,,,,,,,,,,,,3,weak,-36,98,1,0,0,response7disk,3,185,1,0,1,0,0,rectangle,1,0,1,0,0,7,4,0.002,1,0,1,0,0,0,22,22,4,1,0,,,,,,,,,,,,,,,,,,,,,
,,,,,,,,,,,,,,,,,,,,,,,,,,,,,,,,,,,,,,,,,,605c7bd2d23cc89750cd22f6,606c0cd4762c7ea6fb9fda31,2021-04-06_09h25.34.770,Colour_Similarity_Experiment,2020.2.10,Win32,60,6067542a4a25243f4d7d4fcf,18.08333333,16.68725869,16.68095238,16.6801854,16.67186441,16.68095238,,,,,,,,,,,,,,,,,,,,PF,weak,3,,,,,,,,1,1.183,,,,,,,,,,,,,,,,,,,,,,,,,,,,4,weak,-57,29,1,0,0,response7disk,3,186,-13,-2,1,0,0,rectangle,-13,-2,1,0,0,7,1,0,-13,-2,1,0,0,0,23,23,89,1,0,,,,,,,,,,,,,,,,,,,,,
,,,,,,,,,,,,,,,,,,,,,,,,,,,,,,,,,,,,,,,,,,605c7bd2d23cc89750cd22f6,606c0cd4762c7ea6fb9fda31,2021-04-06_09h25.34.770,Colour_Similarity_Experiment,2020.2.10,Win32,60,6067542a4a25243f4d7d4fcf,18.08333333,16.68725869,16.68095238,16.6801854,16.67186441,16.68095238,,,,,,,,,,,,,,,,,,,,PF,weak,3,,,,,,,,1,1.15,,,,,,,,,,,,,,,,,,,,,,,,,,,,2,weak,-97,58,1,0,0,response7disk,3,187,-21,-4,1,0,0,rectangle,-21,-4,1,0,0,7,6,0,-21,-4,1,0,0,0,24,24,69,1,0,,,,,,,,,,,,,,,,,,,,,
,,,,,,,,,,,,,,,,,,,,,,,,,,,,,,,,,,,,,,,,,,605c7bd2d23cc89750cd22f6,606c0cd4762c7ea6fb9fda31,2021-04-06_09h25.34.770,Colour_Similarity_Experiment,2020.2.10,Win32,60,6067542a4a25243f4d7d4fcf,18.08333333,16.68725869,16.68095238,16.6801854,16.67186441,16.68095238,,,,,,,,,,,,,,,,,,,,PF,strong,3,,,,,,,,1,1.472,,,,,,,,,,,,,,,,,,,,,,,,,,,,9,strong,-78,36,1,0,0,response7disk,8,188,-10,-9,1,0,0,rectangle,-10,-9,1,0,0,7,2,0.001,-10,-9,1,0,0,0,25,25,6,1,0,,,,,,,,,,,,,,,,,,,,,
,,,,,,,,,,,,,,,,,,,,,,,,,,,,,,,,,,,,,,,,,,605c7bd2d23cc89750cd22f6,606c0cd4762c7ea6fb9fda31,2021-04-06_09h25.34.770,Colour_Similarity_Experiment,2020.2.10,Win32,60,6067542a4a25243f4d7d4fcf,18.08333333,16.68725869,16.68095238,16.6801854,16.67186441,16.68095238,,,,,,,,,,,,,,,,,,,,PF,strong,3,,,,,,,,5,1.466,,,,,,,,,,,,,,,,,,,,,,,,,,,,7,strong,54,-51,1,0,0,response3disk,4,189,-8,-1,1,0,0,rectangle,-8,-1,1,0,0,7,5,0.001,-8,-1,1,0,0,0,26,26,158,1,0,,,,,,,,,,,,,,,,,,,,,
,,,,,,,,,,,,,,,,,,,,,,,,,,,,,,,,,,,,,,,,,,605c7bd2d23cc89750cd22f6,606c0cd4762c7ea6fb9fda31,2021-04-06_09h25.34.770,Colour_Similarity_Experiment,2020.2.10,Win32,60,6067542a4a25243f4d7d4fcf,18.08333333,16.68725869,16.68095238,16.6801854,16.67186441,16.68095238,,,,,,,,,,,,,,,,,,,,PF,weak,3,,,,,,,,3,1.35,,,,,,,,,,,,,,,,,,,,,,,,,,,,2,weak,-62,-91,1,0,0,response5disk,9,190,-2,13,1,0,0,rectangle,-2,13,1,0,0,7,4,0.002,-2,13,1,0,0,0,27,27,39,1,0,,,,,,,,,,,,,,,,,,,,,
,,,,,,,,,,,,,,,,,,,,,,,,,,,,,,,,,,,,,,,,,,605c7bd2d23cc89750cd22f6,606c0cd4762c7ea6fb9fda31,2021-04-06_09h25.34.770,Colour_Similarity_Experiment,2020.2.10,Win32,60,6067542a4a25243f4d7d4fcf,18.08333333,16.68725869,16.68095238,16.6801854,16.67186441,16.68095238,,,,,,,,,,,,,,,,,,,,PF,weak,3,,,,,,,,5,1.166,,,,,,,,,,,,,,,,,,,,,,,,,,,,7,weak,100,-50,1,0,0,response3disk,4,191,-9,12,1,0,0,rectangle,-9,12,1,0,0,7,5,0.003,-9,12,1,0,0,0,28,28,43,1,0,,,,,,,,,,,,,,,,,,,,,
,,,,,,,,,,,,,,,,,,,,,,,,,,,,,,,,,,,,,,,,,,605c7bd2d23cc89750cd22f6,606c0cd4762c7ea6fb9fda31,2021-04-06_09h25.34.770,Colour_Similarity_Experiment,2020.2.10,Win32,60,6067542a4a25243f4d7d4fcf,18.08333333,16.68725869,16.68095238,16.6801854,16.67186441,16.68095238,,,,,,,,,,,,,,,,,,,,PF,weak,3,,,,,,,,0,1.233,,,,,,,,,,,,,,,,,,,,,,,,,,,,7,weak,-66,108,1,0,0,response7disk,7,192,18,5,1,0,0,rectangle,18,5,1,0,0,7,6,0.002,18,5,1,0,0,0,29,29,51,1,0,,,,,,,,,,,,,,,,,,,,,
,,,,,,,,,,,,,,,,,,,,,,,,,,,,,,,,,,,,,,,,,,605c7bd2d23cc89750cd22f6,606c0cd4762c7ea6fb9fda31,2021-04-06_09h25.34.770,Colour_Similarity_Experiment,2020.2.10,Win32,60,6067542a4a25243f4d7d4fcf,18.08333333,16.68725869,16.68095238,16.6801854,16.67186441,16.68095238,,,,,,,,,,,,,,,,,,,,PF,weak,3,,,,,,,,3,1.565,,,,,,,,,,,,,,,,,,,,,,,,,,,,9,weak,-41,-92,1,0,0,response5disk,2,193,-4,-6,1,0,0,rectangle,-4,-6,1,0,0,7,7,0.001,-4,-6,1,0,0,0,30,30,157,1,0,,,,,,,,,,,,,,,,,,,,,
,,,,,,,,,,,,,,,,,,,,,,,,,,,,,,,,,,,,,,,,,,605c7bd2d23cc89750cd22f6,606c0cd4762c7ea6fb9fda31,2021-04-06_09h25.34.770,Colour_Similarity_Experiment,2020.2.10,Win32,60,6067542a4a25243f4d7d4fcf,18.08333333,16.68725869,16.68095238,16.6801854,16.67186441,16.68095238,,,,,,,,,,,,,,,,,,,,PF,weak,3,,,,,,,,3,1.433,,,,,,,,,,,,,,,,,,,,,,,,,,,,3,weak,-45,-83,1,0,0,response5disk,5,194,-15,-18,1,0,0,rectangle,-15,-18,1,0,0,7,6,0.001,-15,-18,1,0,0,0,31,31,66,1,0,,,,,,,,,,,,,,,,,,,,,
,,,,,,,,,,,,,,,,,,,,,,,,,,,,,,,,,,,,,,,,,,605c7bd2d23cc89750cd22f6,606c0cd4762c7ea6fb9fda31,2021-04-06_09h25.34.770,Colour_Similarity_Experiment,2020.2.10,Win32,60,6067542a4a25243f4d7d4fcf,18.08333333,16.68725869,16.68095238,16.6801854,16.67186441,16.68095238,,,,,,,,,,,,,,,,,,,,PF,weak,3,,,,,,,,3,1.134,,,,,,,,,,,,,,,,,,,,,,,,,,,,5,weak,-43,-87,1,0,0,response5disk,2,195,-1,-10,1,0,0,rectangle,-1,-10,1,0,0,7,6,0,-1,-10,1,0,0,0,32,32,129,1,0,,,,,,,,,,,,,,,,,,,,,
,,,,,,,,,,,,,,,,,,,,,,,,,,,,,,,,,,,,,,,,,,605c7bd2d23cc89750cd22f6,606c0cd4762c7ea6fb9fda31,2021-04-06_09h25.34.770,Colour_Similarity_Experiment,2020.2.10,Win32,60,6067542a4a25243f4d7d4fcf,18.08333333,16.68725869,16.68095238,16.6801854,16.67186441,16.68095238,,,,,,,,,,,,,,,,,,,,PF,strong,3,,,,,,,,3,1.267,,,,,,,,,,,,,,,,,,,,,,,,,,,,5,strong,-58,-68,1,0,0,response5disk,8,196,-19,0,1,0,0,rectangle,-19,0,1,0,0,7,5,0.003,-19,0,1,0,0,0,33,33,16,1,0,,,,,,,,,,,,,,,,,,,,,
