key_resp.keys,key_resp.rt,key_resp_16.keys,key_resp_16.rt,key_resp_2.keys,key_resp_2.rt,X Scale,ratio_pxpermm,screen_size_x,screen_size_y,testsize,key_resp_3.keys,key_resp_4.keys,key_resp_4.rt,line_size,key_resp_5.keys,key_resp_5.rt,key_resp_6.keys,key_resp_6.rt,key_resp_8.keys,key_resp_8.rt,key_resp_7.keys,key_resp_7.rt,key_resp_12.keys,key_resp_12.rt,key_resp_11.keys,key_resp_11.rt,key_resp_18.keys,key_resp_18.rt,key_resp_21.keys,key_resp_21.rt,key_resp_13.keys,key_resp_13.rt,key_resp_19.keys,key_resp_19.rt,ballposx,viewer_distance,trials.thisRepN,trials.thisTrialN,trials.thisN,trials.thisIndex,trials.ran,participant,session,date,expName,psychopyVersion,OS,frameRate,study_id,realFrameRate1,realFrameRate2,realFrameRate3,realFrameRate4,realFrameRate5,realFrameRate,viewerdistancecm,DVA_to_distance,radius_F,radius_P,r_F,R_P,key_resp_20.keys,key_resp_20.rt,key_resp_14.keys,key_resp_14.rt,key_resp_15.keys,key_resp_15.rt,key_resp_17.keys,key_resp_17.rt,key_resp_9.keys,key_resp_9.rt,key_resp_10.keys,key_resp_10.rt,Colour_1,Ecc,maskCon,mask_frames,mouse_5.x,mouse_5.y,mouse_5.leftButton,mouse_5.midButton,mouse_5.rightButton,mouse_5.clicked_name,Colour_2,similarity,response_time,mouse_10.x,mouse_10.y,mouse_10.leftButton,mouse_10.midButton,mouse_10.rightButton,mouse_10.clicked_name,mouse_7.x,mouse_7.y,mouse_7.leftButton,mouse_7.midButton,mouse_7.rightButton,mouse_7.clicked_name,catchprac,catchnumberprac,mouse_6.x,mouse_6.y,mouse_6.leftButton,mouse_6.midButton,mouse_6.rightButton,mouse_6.clicked_name,duringprac.thisRepN,duringprac.thisTrialN,duringprac.thisN,duringprac.thisIndex,duringprac.ran,key_resp_22.keys,key_resp_22.rt,Colour1,maskCon1,mouse.x,mouse.y,mouse.leftButton,mouse.midButton,mouse.rightButton,mouse.clicked_name,Colour2,trialnumber,mouse_2.x,mouse_2.y,mouse_2.leftButton,mouse_2.midButton,mouse_2.rightButton,mouse_2.clicked_name,mouse_3.x,mouse_3.y,mouse_3.leftButton,mouse_3.midButton,mouse_3.rightButton,catchresponse,catchnumber,response_time_catch,mouse_11.x,mouse_11.y,mouse_11.leftButton,mouse_11.midButton,mouse_11.rightButton,trials_2.thisRepN,trials_2.thisTrialN,trials_2.thisN,trials_2.thisIndex,trials_2.ran,Catch,mouse_3.clicked_name,mouse_11.clicked_name,trials_3.thisRepN,trials_3.thisTrialN,trials_3.thisN,trials_3.thisIndex,trials_3.ran,answer1,rt1,answer2,rt2,answer3,rt3,answer4,rt4,answer5,rt5,answer6,rt6,answer7,rt7
space,3.551,space,19.01,space,8.557,39.8,3.98,343.2160804,192.9648241,1366,,space,21.682,79.6,space,11.833,space,6.607,space,1.258,space,6.149,space,5.599,space,7.834,space,17.132,space,15.318,space,24.538,return,4.184,-4.098,576.1281517,0,0,0,0,1,6061711f6ef8e3b652861dbf,606c0d3318f7ac0fe9c2c0f3,2021-04-06_09h28.39.055,Colour_Similarity_Experiment,2020.2.10,Win32,60,6067542a4a25243f4d7d4fcf,17.02446483,16.75109938,16.66561514,16.67741935,16.68433735,16.68433735,,,,,,,,,,,,,,,,,,,,,,,,,,,,,,,,,,,,,,,,,,,,,,,,,,,,,,,,,,,,,,,,,,,,,,,,,,,,,,,,,,,,,,,,,,,,,,,,,,,,,,,,,,,,,,,,,,
,,,,,,,,,,,,,,,,,,,,,,,,,,,,,,,,,return,3.886,32.784,537.5289952,1,0,1,0,1,6061711f6ef8e3b652861dbf,606c0d3318f7ac0fe9c2c0f3,2021-04-06_09h28.39.055,Colour_Similarity_Experiment,2020.2.10,Win32,60,6067542a4a25243f4d7d4fcf,17.02446483,16.75109938,16.66561514,16.67741935,16.68433735,16.68433735,,,,,,,,,,,,,,,,,,,,,,,,,,,,,,,,,,,,,,,,,,,,,,,,,,,,,,,,,,,,,,,,,,,,,,,,,,,,,,,,,,,,,,,,,,,,,,,,,,,,,,,,,,,,,,,,,,
,,,,,,,,,,,,,,,,,,,,,,,,,,,,,,,,,return,3.831,38.931,531.0958024,2,0,2,0,1,6061711f6ef8e3b652861dbf,606c0d3318f7ac0fe9c2c0f3,2021-04-06_09h28.39.055,Colour_Similarity_Experiment,2020.2.10,Win32,60,6067542a4a25243f4d7d4fcf,17.02446483,16.75109938,16.66561514,16.67741935,16.68433735,16.68433735,,,,,,,,,,,,,,,,,,,,,,,,,,,,,,,,,,,,,,,,,,,,,,,,,,,,,,,,,,,,,,,,,,,,,,,,,,,,,,,,,,,,,,,,,,,,,,,,,,,,,,,,,,,,,,,,,,
,,,,,,,,,,,,,,,,,,,,,,,,,,,,,,,,,return,3.666,59.421,509.6518265,3,0,3,0,1,6061711f6ef8e3b652861dbf,606c0d3318f7ac0fe9c2c0f3,2021-04-06_09h28.39.055,Colour_Similarity_Experiment,2020.2.10,Win32,60,6067542a4a25243f4d7d4fcf,17.02446483,16.75109938,16.66561514,16.67741935,16.68433735,16.68433735,,,,,,,,,,,,,,,,,,,,,,,,,,,,,,,,,,,,,,,,,,,,,,,,,,,,,,,,,,,,,,,,,,,,,,,,,,,,,,,,,,,,,,,,,,,,,,,,,,,,,,,,,,,,,,,,,,
,,,,,,,,,,,,,,,,,,,,,,,,,,,,,,,,,return,3.599,67.617,501.0742362,4,0,4,0,1,6061711f6ef8e3b652861dbf,606c0d3318f7ac0fe9c2c0f3,2021-04-06_09h28.39.055,Colour_Similarity_Experiment,2020.2.10,Win32,60,6067542a4a25243f4d7d4fcf,17.02446483,16.75109938,16.66561514,16.67741935,16.68433735,16.68433735,,,,,,,,,,,,,,,,,,,,,,,,,,,,,,,,,,,,,,,,,,,,,,,,,,,,,,,,,,,,,,,,,,,,,,,,,,,,,,,,,,,,,,,,,,,,,,,,,,,,,,,,,,,,,,,,,,
,,,,,,,,,,,,,,,,,,,,,,,,,,,,,,,,,,,,,,,,,,6061711f6ef8e3b652861dbf,606c0d3318f7ac0fe9c2c0f3,2021-04-06_09h28.39.055,Colour_Similarity_Experiment,2020.2.10,Win32,60,6067542a4a25243f4d7d4fcf,17.02446483,16.75109938,16.66561514,16.67741935,16.68433735,16.68433735,53,9.251181103,55.22955119,368.1970079,36.81970079,165.6886536,space,3.336,space,18.645,space,56.132,space,27.647,space,2.972,space,5.064,2,PF,weak,3,-89,32,1,0,0,response7disk_5,5,1,13.417,-1,1,1,0,0,rectangle_8,-38,-98,1,0,0,response5disk_7,3,3,-4,-2,1,0,0,rectangle_4,0,0,0,1,1,,,,,,,,,,,,,,,,,,,,,,,,,,,,,,,,,,,,,,,,,,,,,,,,,,,,,,,,,,
,,,,,,,,,,,,,,,,,,,,,,,,,,,,,,,,,,,,,,,,,,6061711f6ef8e3b652861dbf,606c0d3318f7ac0fe9c2c0f3,2021-04-06_09h28.39.055,Colour_Similarity_Experiment,2020.2.10,Win32,60,6067542a4a25243f4d7d4fcf,17.02446483,16.75109938,16.66561514,16.67741935,16.68433735,16.68433735,,,,,,,,,,,,,,,,,,,5,PF,weak,3,-30,80,1,0,0,response7disk_5,6,0,5.682,1,-2,1,0,0,rectangle_8,1,-2,1,0,0,,,3,1,-2,1,0,0,,0,1,1,4,1,,,,,,,,,,,,,,,,,,,,,,,,,,,,,,,,,,,,,,,,,,,,,,,,,,,,,,,,,,
,,,,,,,,,,,,,,,,,,,,,,,,,,,,,,,,,,,,,,,,,,6061711f6ef8e3b652861dbf,606c0d3318f7ac0fe9c2c0f3,2021-04-06_09h28.39.055,Colour_Similarity_Experiment,2020.2.10,Win32,60,6067542a4a25243f4d7d4fcf,17.02446483,16.75109938,16.66561514,16.67741935,16.68433735,16.68433735,,,,,,,,,,,,,,,,,,,7,PF,strong,3,93,-36,1,0,0,response3disk_5,1,5,4.419,0,3,1,0,0,rectangle_8,-40,-96,1,0,0,response5disk_7,3,3,1,0,1,0,0,rectangle_4,0,2,2,2,1,,,,,,,,,,,,,,,,,,,,,,,,,,,,,,,,,,,,,,,,,,,,,,,,,,,,,,,,,,
,,,,,,,,,,,,,,,,,,,,,,,,,,,,,,,,,,,,,,,,,,6061711f6ef8e3b652861dbf,606c0d3318f7ac0fe9c2c0f3,2021-04-06_09h28.39.055,Colour_Similarity_Experiment,2020.2.10,Win32,60,6067542a4a25243f4d7d4fcf,17.02446483,16.75109938,16.66561514,16.67741935,16.68433735,16.68433735,,,,,,,,,,,,,,,,,,,2,PF,strong,3,-28,-102,1,0,0,response5disk_5,8,3,13.583,2,2,1,0,0,rectangle_8,2,2,1,0,0,,,3,2,2,1,0,0,,0,3,3,3,1,,,,,,,,,,,,,,,,,,,,,,,,,,,,,,,,,,,,,,,,,,,,,,,,,,,,,,,,,,
,,,,,,,,,,,,,,,,,,,,,,,,,,,,,,,,,,,,,,,,,,6061711f6ef8e3b652861dbf,606c0d3318f7ac0fe9c2c0f3,2021-04-06_09h28.39.055,Colour_Similarity_Experiment,2020.2.10,Win32,60,6067542a4a25243f4d7d4fcf,17.02446483,16.75109938,16.66561514,16.67741935,16.68433735,16.68433735,,,,,,,,,,,,,,,,,,,3,PF,weak,3,83,38,1,0,0,response1disk_5,7,6,6.683,-1,2,1,0,0,rectangle_8,-1,2,1,0,0,,,3,-1,2,1,0,0,,0,4,4,5,1,,,,,,,,,,,,,,,,,,,,,,,,,,,,,,,,,,,,,,,,,,,,,,,,,,,,,,,,,,
,,,,,,,,,,,,,,,,,,,,,,,,,,,,,,,,,,,,,,,,,,6061711f6ef8e3b652861dbf,606c0d3318f7ac0fe9c2c0f3,2021-04-06_09h28.39.055,Colour_Similarity_Experiment,2020.2.10,Win32,60,6067542a4a25243f4d7d4fcf,17.02446483,16.75109938,16.66561514,16.67741935,16.68433735,16.68433735,,,,,,,,,,,,,,,,,,,5,PF,weak,3,77,-38,1,0,0,response3disk_5,3,5,8.999,0,-5,1,0,0,rectangle_8,0,-5,1,0,0,,,3,0,-5,1,0,0,,0,5,5,6,1,,,,,,,,,,,,,,,,,,,,,,,,,,,,,,,,,,,,,,,,,,,,,,,,,,,,,,,,,,
,,,,,,,,,,,,,,,,,,,,,,,,,,,,,,,,,,,,,,,,,,6061711f6ef8e3b652861dbf,606c0d3318f7ac0fe9c2c0f3,2021-04-06_09h28.39.055,Colour_Similarity_Experiment,2020.2.10,Win32,60,6067542a4a25243f4d7d4fcf,17.02446483,16.75109938,16.66561514,16.67741935,16.68433735,16.68433735,,,,,,,,,,,,,,,,,,,3,PF,strong,3,-40,83,1,0,0,response7disk_5,2,0,3.217,-1,-1,1,0,0,rectangle_8,-1,-1,1,0,0,,,3,-1,-1,1,0,0,,0,6,6,0,1,,,,,,,,,,,,,,,,,,,,,,,,,,,,,,,,,,,,,,,,,,,,,,,,,,,,,,,,,,
,,,,,,,,,,,,,,,,,,,,,,,,,,,,,,,,,,,,,,,,,,6061711f6ef8e3b652861dbf,606c0d3318f7ac0fe9c2c0f3,2021-04-06_09h28.39.055,Colour_Similarity_Experiment,2020.2.10,Win32,60,6067542a4a25243f4d7d4fcf,17.02446483,16.75109938,16.66561514,16.67741935,16.68433735,16.68433735,,,,,,,,,,,,,,,,,,,,PF,weak,3,,,,,,,,5,1.732,,,,,,,,,,,,,,,,,,,,,,,,,,space,4.269,7,weak,92,-38,1,0,0,response3disk,3,1,-3,2,1,0,0,rectangle,-3,2,1,0,0,,1,0.002,-3,2,1,0,0,0,0,0,81,1,0,,,,,,,,,,,,,,,,,,,,,
,,,,,,,,,,,,,,,,,,,,,,,,,,,,,,,,,,,,,,,,,,6061711f6ef8e3b652861dbf,606c0d3318f7ac0fe9c2c0f3,2021-04-06_09h28.39.055,Colour_Similarity_Experiment,2020.2.10,Win32,60,6067542a4a25243f4d7d4fcf,17.02446483,16.75109938,16.66561514,16.67741935,16.68433735,16.68433735,,,,,,,,,,,,,,,,,,,,PF,weak,3,,,,,,,,5,1.615,,,,,,,,,,,,,,,,,,,,,,,,,,,,3,weak,75,-29,1,0,0,response3disk,7,2,0,-2,1,0,0,rectangle,0,-2,1,0,0,,0,0.003,0,-2,1,0,0,0,1,1,41,1,0,,,,,,,,,,,,,,,,,,,,,
,,,,,,,,,,,,,,,,,,,,,,,,,,,,,,,,,,,,,,,,,,6061711f6ef8e3b652861dbf,606c0d3318f7ac0fe9c2c0f3,2021-04-06_09h28.39.055,Colour_Similarity_Experiment,2020.2.10,Win32,60,6067542a4a25243f4d7d4fcf,17.02446483,16.75109938,16.66561514,16.67741935,16.68433735,16.68433735,,,,,,,,,,,,,,,,,,,,PF,strong,3,,,,,,,,3,4.832,,,,,,,,,,,,,,,,,,,,,,,,,,,,5,strong,-20,-93,1,0,0,response5disk,9,3,-2,0,1,0,0,rectangle,-2,0,1,0,0,,3,0.001,-2,0,1,0,0,0,2,2,61,1,0,,,,,,,,,,,,,,,,,,,,,
,,,,,,,,,,,,,,,,,,,,,,,,,,,,,,,,,,,,,,,,,,6061711f6ef8e3b652861dbf,606c0d3318f7ac0fe9c2c0f3,2021-04-06_09h28.39.055,Colour_Similarity_Experiment,2020.2.10,Win32,60,6067542a4a25243f4d7d4fcf,17.02446483,16.75109938,16.66561514,16.67741935,16.68433735,16.68433735,,,,,,,,,,,,,,,,,,,,PF,weak,3,,,,,,,,4,1.817,,,,,,,,,,,,,,,,,,,,,,,,,,,,8,weak,51,-82,1,0,0,response3disk,6,4,-4,-5,1,0,0,rectangle,85,-41,1,0,0,5,5,2.867,-2,-1,1,0,0,0,3,3,161,1,1,response3disk_3,rectangle,,,,,,,,,,,,,,,,,,,
,,,,,,,,,,,,,,,,,,,,,,,,,,,,,,,,,,,,,,,,,,6061711f6ef8e3b652861dbf,606c0d3318f7ac0fe9c2c0f3,2021-04-06_09h28.39.055,Colour_Similarity_Experiment,2020.2.10,Win32,60,6067542a4a25243f4d7d4fcf,17.02446483,16.75109938,16.66561514,16.67741935,16.68433735,16.68433735,,,,,,,,,,,,,,,,,,,,PF,weak,3,,,,,,,,3,5.185,,,,,,,,,,,,,,,,,,,,,,,,,,,,4,weak,-35,-78,1,0,0,response5disk,7,5,0,0,1,0,0,rectangle,0,0,1,0,0,5,6,0.003,0,0,1,0,0,0,4,4,38,1,0,,,,,,,,,,,,,,,,,,,,,
,,,,,,,,,,,,,,,,,,,,,,,,,,,,,,,,,,,,,,,,,,6061711f6ef8e3b652861dbf,606c0d3318f7ac0fe9c2c0f3,2021-04-06_09h28.39.055,Colour_Similarity_Experiment,2020.2.10,Win32,60,6067542a4a25243f4d7d4fcf,17.02446483,16.75109938,16.66561514,16.67741935,16.68433735,16.68433735,,,,,,,,,,,,,,,,,,,,PF,weak,3,,,,,,,,2,1.534,,,,,,,,,,,,,,,,,,,,,,,,,,,,7,weak,-49,-42,1,0,0,response5disk,6,6,-1,-4,1,0,0,rectangle,-1,-4,1,0,0,5,2,0.002,-1,-4,1,0,0,0,5,5,29,1,0,,,,,,,,,,,,,,,,,,,,,
,,,,,,,,,,,,,,,,,,,,,,,,,,,,,,,,,,,,,,,,,,6061711f6ef8e3b652861dbf,606c0d3318f7ac0fe9c2c0f3,2021-04-06_09h28.39.055,Colour_Similarity_Experiment,2020.2.10,Win32,60,6067542a4a25243f4d7d4fcf,17.02446483,16.75109938,16.66561514,16.67741935,16.68433735,16.68433735,,,,,,,,,,,,,,,,,,,,PF,weak,3,,,,,,,,5,1.35,,,,,,,,,,,,,,,,,,,,,,,,,,,,7,weak,72,-35,1,0,0,response3disk,8,7,-5,0,1,0,0,rectangle,-5,0,1,0,0,5,2,0,-5,0,1,0,0,0,6,6,140,1,0,,,,,,,,,,,,,,,,,,,,,
,,,,,,,,,,,,,,,,,,,,,,,,,,,,,,,,,,,,,,,,,,6061711f6ef8e3b652861dbf,606c0d3318f7ac0fe9c2c0f3,2021-04-06_09h28.39.055,Colour_Similarity_Experiment,2020.2.10,Win32,60,6067542a4a25243f4d7d4fcf,17.02446483,16.75109938,16.66561514,16.67741935,16.68433735,16.68433735,,,,,,,,,,,,,,,,,,,,PF,weak,3,,,,,,,,5,1.266,,,,,,,,,,,,,,,,,,,,,,,,,,,,9,weak,76,-43,1,0,0,response3disk,6,8,-3,2,1,0,0,rectangle,-3,2,1,0,0,5,7,0.001,-3,2,1,0,0,0,7,7,148,1,0,,,,,,,,,,,,,,,,,,,,,
,,,,,,,,,,,,,,,,,,,,,,,,,,,,,,,,,,,,,,,,,,6061711f6ef8e3b652861dbf,606c0d3318f7ac0fe9c2c0f3,2021-04-06_09h28.39.055,Colour_Similarity_Experiment,2020.2.10,Win32,60,6067542a4a25243f4d7d4fcf,17.02446483,16.75109938,16.66561514,16.67741935,16.68433735,16.68433735,,,,,,,,,,,,,,,,,,,,PF,weak,3,,,,,,,,6,4.049,,,,,,,,,,,,,,,,,,,,,,,,,,,,3,weak,66,28,1,0,0,response1disk,1,9,-7,-4,1,0,0,rectangle,-7,-4,1,0,0,5,6,0.002,-7,-4,1,0,0,0,8,8,96,1,0,,,,,,,,,,,,,,,,,,,,,
,,,,,,,,,,,,,,,,,,,,,,,,,,,,,,,,,,,,,,,,,,6061711f6ef8e3b652861dbf,606c0d3318f7ac0fe9c2c0f3,2021-04-06_09h28.39.055,Colour_Similarity_Experiment,2020.2.10,Win32,60,6067542a4a25243f4d7d4fcf,17.02446483,16.75109938,16.66561514,16.67741935,16.68433735,16.68433735,,,,,,,,,,,,,,,,,,,,PF,weak,3,,,,,,,,5,1.167,,,,,,,,,,,,,,,,,,,,,,,,,,,,5,weak,68,-27,1,0,0,response3disk,8,10,-2,0,1,0,0,rectangle,-2,0,1,0,0,5,4,0.003,-2,0,1,0,0,0,9,9,149,1,0,,,,,,,,,,,,,,,,,,,,,
,,,,,,,,,,,,,,,,,,,,,,,,,,,,,,,,,,,,,,,,,,6061711f6ef8e3b652861dbf,606c0d3318f7ac0fe9c2c0f3,2021-04-06_09h28.39.055,Colour_Similarity_Experiment,2020.2.10,Win32,60,6067542a4a25243f4d7d4fcf,17.02446483,16.75109938,16.66561514,16.67741935,16.68433735,16.68433735,,,,,,,,,,,,,,,,,,,,PF,strong,3,,,,,,,,6,5.516,,,,,,,,,,,,,,,,,,,,,,,,,,,,1,strong,80,43,1,0,0,response1disk,3,11,1,2,1,0,0,rectangle,1,2,1,0,0,5,5,0.003,1,2,1,0,0,0,10,10,99,1,0,,,,,,,,,,,,,,,,,,,,,
,,,,,,,,,,,,,,,,,,,,,,,,,,,,,,,,,,,,,,,,,,6061711f6ef8e3b652861dbf,606c0d3318f7ac0fe9c2c0f3,2021-04-06_09h28.39.055,Colour_Similarity_Experiment,2020.2.10,Win32,60,6067542a4a25243f4d7d4fcf,17.02446483,16.75109938,16.66561514,16.67741935,16.68433735,16.68433735,,,,,,,,,,,,,,,,,,,,PF,weak,3,,,,,,,,4,1.517,,,,,,,,,,,,,,,,,,,,,,,,,,,,5,weak,56,-74,1,0,0,response3disk,9,12,-4,0,1,0,0,rectangle,70,-36,1,0,0,5,5,1.718,-7,3,1,0,0,0,11,11,136,1,1,response3disk_3,rectangle,,,,,,,,,,,,,,,,,,,
,,,,,,,,,,,,,,,,,,,,,,,,,,,,,,,,,,,,,,,,,,6061711f6ef8e3b652861dbf,606c0d3318f7ac0fe9c2c0f3,2021-04-06_09h28.39.055,Colour_Similarity_Experiment,2020.2.10,Win32,60,6067542a4a25243f4d7d4fcf,17.02446483,16.75109938,16.66561514,16.67741935,16.68433735,16.68433735,,,,,,,,,,,,,,,,,,,,PF,weak,3,,,,,,,,5,1.231,,,,,,,,,,,,,,,,,,,,,,,,,,,,2,weak,76,-32,1,0,0,response3disk,7,13,3,-2,1,0,0,rectangle,3,-2,1,0,0,5,3,0.002,3,-2,1,0,0,0,12,12,107,1,0,,,,,,,,,,,,,,,,,,,,,
,,,,,,,,,,,,,,,,,,,,,,,,,,,,,,,,,,,,,,,,,,6061711f6ef8e3b652861dbf,606c0d3318f7ac0fe9c2c0f3,2021-04-06_09h28.39.055,Colour_Similarity_Experiment,2020.2.10,Win32,60,6067542a4a25243f4d7d4fcf,17.02446483,16.75109938,16.66561514,16.67741935,16.68433735,16.68433735,,,,,,,,,,,,,,,,,,,,PF,weak,3,,,,,,,,0,2.95,,,,,,,,,,,,,,,,,,,,,,,,,,,,2,weak,-33,77,1,0,0,response7disk,2,14,5,0,1,0,0,rectangle,5,0,1,0,0,5,1,0.002,5,0,1,0,0,0,13,13,14,1,0,,,,,,,,,,,,,,,,,,,,,
,,,,,,,,,,,,,,,,,,,,,,,,,,,,,,,,,,,,,,,,,,6061711f6ef8e3b652861dbf,606c0d3318f7ac0fe9c2c0f3,2021-04-06_09h28.39.055,Colour_Similarity_Experiment,2020.2.10,Win32,60,6067542a4a25243f4d7d4fcf,17.02446483,16.75109938,16.66561514,16.67741935,16.68433735,16.68433735,,,,,,,,,,,,,,,,,,,,PF,strong,3,,,,,,,,5,3.183,,,,,,,,,,,,,,,,,,,,,,,,,,,,6,strong,82,-37,1,0,0,response3disk,8,15,-5,0,1,0,0,rectangle,-5,0,1,0,0,5,7,0.001,-5,0,1,0,0,0,14,14,133,1,0,,,,,,,,,,,,,,,,,,,,,
,,,,,,,,,,,,,,,,,,,,,,,,,,,,,,,,,,,,,,,,,,6061711f6ef8e3b652861dbf,606c0d3318f7ac0fe9c2c0f3,2021-04-06_09h28.39.055,Colour_Similarity_Experiment,2020.2.10,Win32,60,6067542a4a25243f4d7d4fcf,17.02446483,16.75109938,16.66561514,16.67741935,16.68433735,16.68433735,,,,,,,,,,,,,,,,,,,,PF,strong,3,,,,,,,,7,4.784,,,,,,,,,,,,,,,,,,,,,,,,,,,,6,strong,49,88,1,0,0,response1disk,9,16,5,-1,1,0,0,rectangle,-42,-65,1,0,0,3,3,2.282,-3,-2,1,0,0,0,15,15,160,1,1,response5disk_3,rectangle,,,,,,,,,,,,,,,,,,,
,,,,,,,,,,,,,,,,,,,,,,,,,,,,,,,,,,,,,,,,,,6061711f6ef8e3b652861dbf,606c0d3318f7ac0fe9c2c0f3,2021-04-06_09h28.39.055,Colour_Similarity_Experiment,2020.2.10,Win32,60,6067542a4a25243f4d7d4fcf,17.02446483,16.75109938,16.66561514,16.67741935,16.68433735,16.68433735,,,,,,,,,,,,,,,,,,,,PF,weak,3,,,,,,,,1,4.283,,,,,,,,,,,,,,,,,,,,,,,,,,,,7,weak,-85,42,1,0,0,response7disk,5,17,0,-3,1,0,0,rectangle,0,-3,1,0,0,3,4,0.003,0,-3,1,0,0,0,16,16,92,1,0,,,,,,,,,,,,,,,,,,,,,
,,,,,,,,,,,,,,,,,,,,,,,,,,,,,,,,,,,,,,,,,,6061711f6ef8e3b652861dbf,606c0d3318f7ac0fe9c2c0f3,2021-04-06_09h28.39.055,Colour_Similarity_Experiment,2020.2.10,Win32,60,6067542a4a25243f4d7d4fcf,17.02446483,16.75109938,16.66561514,16.67741935,16.68433735,16.68433735,,,,,,,,,,,,,,,,,,,,PF,weak,3,,,,,,,,1,1.366,,,,,,,,,,,,,,,,,,,,,,,,,,,,6,weak,-70,32,1,0,0,response7disk,7,18,9,-7,1,0,0,rectangle,9,-7,1,0,0,3,5,0.002,9,-7,1,0,0,0,17,17,50,1,0,,,,,,,,,,,,,,,,,,,,,
,,,,,,,,,,,,,,,,,,,,,,,,,,,,,,,,,,,,,,,,,,6061711f6ef8e3b652861dbf,606c0d3318f7ac0fe9c2c0f3,2021-04-06_09h28.39.055,Colour_Similarity_Experiment,2020.2.10,Win32,60,6067542a4a25243f4d7d4fcf,17.02446483,16.75109938,16.66561514,16.67741935,16.68433735,16.68433735,,,,,,,,,,,,,,,,,,,,PF,weak,3,,,,,,,,4,1.45,,,,,,,,,,,,,,,,,,,,,,,,,,,,2,weak,29,-70,1,0,0,response3disk,8,19,-3,2,1,0,0,rectangle,-3,2,1,0,0,3,1,0.002,-3,2,1,0,0,0,18,18,52,1,0,,,,,,,,,,,,,,,,,,,,,
,,,,,,,,,,,,,,,,,,,,,,,,,,,,,,,,,,,,,,,,,,6061711f6ef8e3b652861dbf,606c0d3318f7ac0fe9c2c0f3,2021-04-06_09h28.39.055,Colour_Similarity_Experiment,2020.2.10,Win32,60,6067542a4a25243f4d7d4fcf,17.02446483,16.75109938,16.66561514,16.67741935,16.68433735,16.68433735,,,,,,,,,,,,,,,,,,,,PF,strong,3,,,,,,,,1,2.284,,,,,,,,,,,,,,,,,,,,,,,,,,,,7,strong,-69,29,1,0,0,response7disk,4,20,0,0,1,0,0,rectangle,0,0,1,0,0,3,7,0.002,0,0,1,0,0,0,19,19,158,1,0,,,,,,,,,,,,,,,,,,,,,
,,,,,,,,,,,,,,,,,,,,,,,,,,,,,,,,,,,,,,,,,,6061711f6ef8e3b652861dbf,606c0d3318f7ac0fe9c2c0f3,2021-04-06_09h28.39.055,Colour_Similarity_Experiment,2020.2.10,Win32,60,6067542a4a25243f4d7d4fcf,17.02446483,16.75109938,16.66561514,16.67741935,16.68433735,16.68433735,,,,,,,,,,,,,,,,,,,,PF,weak,3,,,,,,,,7,2.467,,,,,,,,,,,,,,,,,,,,,,,,,,,,1,weak,49,73,1,0,0,response1disk,7,21,0,0,1,0,0,rectangle,0,0,1,0,0,3,6,0.002,0,0,1,0,0,0,20,20,150,1,0,,,,,,,,,,,,,,,,,,,,,
,,,,,,,,,,,,,,,,,,,,,,,,,,,,,,,,,,,,,,,,,,6061711f6ef8e3b652861dbf,606c0d3318f7ac0fe9c2c0f3,2021-04-06_09h28.39.055,Colour_Similarity_Experiment,2020.2.10,Win32,60,6067542a4a25243f4d7d4fcf,17.02446483,16.75109938,16.66561514,16.67741935,16.68433735,16.68433735,,,,,,,,,,,,,,,,,,,,PF,strong,3,,,,,,,,6,3.148,,,,,,,,,,,,,,,,,,,,,,,,,,,,3,strong,74,30,1,0,0,response1disk,8,22,-3,-4,1,0,0,rectangle,-3,-4,1,0,0,3,5,0.003,-3,-4,1,0,0,0,21,21,44,1,0,,,,,,,,,,,,,,,,,,,,,
,,,,,,,,,,,,,,,,,,,,,,,,,,,,,,,,,,,,,,,,,,6061711f6ef8e3b652861dbf,606c0d3318f7ac0fe9c2c0f3,2021-04-06_09h28.39.055,Colour_Similarity_Experiment,2020.2.10,Win32,60,6067542a4a25243f4d7d4fcf,17.02446483,16.75109938,16.66561514,16.67741935,16.68433735,16.68433735,,,,,,,,,,,,,,,,,,,,PF,weak,3,,,,,,,,6,1.23,,,,,,,,,,,,,,,,,,,,,,,,,,,,3,weak,88,44,1,0,0,response1disk,8,23,-4,0,1,0,0,rectangle,-4,0,1,0,0,3,3,0.002,-4,0,1,0,0,0,22,22,3,1,0,,,,,,,,,,,,,,,,,,,,,
,,,,,,,,,,,,,,,,,,,,,,,,,,,,,,,,,,,,,,,,,,6061711f6ef8e3b652861dbf,606c0d3318f7ac0fe9c2c0f3,2021-04-06_09h28.39.055,Colour_Similarity_Experiment,2020.2.10,Win32,60,6067542a4a25243f4d7d4fcf,17.02446483,16.75109938,16.66561514,16.67741935,16.68433735,16.68433735,,,,,,,,,,,,,,,,,,,,PF,weak,3,,,,,,,,2,1.616,,,,,,,,,,,,,,,,,,,,,,,,,,,,2,weak,-88,-41,1,0,0,response5disk,1,24,-3,-3,1,0,0,rectangle,-3,-3,1,0,0,3,2,0.003,-3,-3,1,0,0,0,23,23,9,1,0,,,,,,,,,,,,,,,,,,,,,
,,,,,,,,,,,,,,,,,,,,,,,,,,,,,,,,,,,,,,,,,,6061711f6ef8e3b652861dbf,606c0d3318f7ac0fe9c2c0f3,2021-04-06_09h28.39.055,Colour_Similarity_Experiment,2020.2.10,Win32,60,6067542a4a25243f4d7d4fcf,17.02446483,16.75109938,16.66561514,16.67741935,16.68433735,16.68433735,,,,,,,,,,,,,,,,,,,,PF,weak,3,,,,,,,,4,4.216,,,,,,,,,,,,,,,,,,,,,,,,,,,,3,weak,29,-63,1,0,0,response3disk,6,25,-10,8,1,0,0,rectangle,-10,8,1,0,0,3,4,0.002,-10,8,1,0,0,0,24,24,47,1,0,,,,,,,,,,,,,,,,,,,,,
,,,,,,,,,,,,,,,,,,,,,,,,,,,,,,,,,,,,,,,,,,6061711f6ef8e3b652861dbf,606c0d3318f7ac0fe9c2c0f3,2021-04-06_09h28.39.055,Colour_Similarity_Experiment,2020.2.10,Win32,60,6067542a4a25243f4d7d4fcf,17.02446483,16.75109938,16.66561514,16.67741935,16.68433735,16.68433735,,,,,,,,,,,,,,,,,,,,PF,weak,3,,,,,,,,6,2.249,,,,,,,,,,,,,,,,,,,,,,,,,,,,4,weak,61,30,1,0,0,response1disk,9,26,-7,-3,1,0,0,rectangle,-7,-3,1,0,0,3,1,0.002,-7,-3,1,0,0,0,25,25,75,1,0,,,,,,,,,,,,,,,,,,,,,
,,,,,,,,,,,,,,,,,,,,,,,,,,,,,,,,,,,,,,,,,,6061711f6ef8e3b652861dbf,606c0d3318f7ac0fe9c2c0f3,2021-04-06_09h28.39.055,Colour_Similarity_Experiment,2020.2.10,Win32,60,6067542a4a25243f4d7d4fcf,17.02446483,16.75109938,16.66561514,16.67741935,16.68433735,16.68433735,,,,,,,,,,,,,,,,,,,,PF,weak,3,,,,,,,,6,1.166,,,,,,,,,,,,,,,,,,,,,,,,,,,,2,weak,83,40,1,0,0,response1disk,6,27,-5,4,1,0,0,rectangle,-5,4,1,0,0,3,0,0.002,-5,4,1,0,0,0,26,26,113,1,0,,,,,,,,,,,,,,,,,,,,,
,,,,,,,,,,,,,,,,,,,,,,,,,,,,,,,,,,,,,,,,,,6061711f6ef8e3b652861dbf,606c0d3318f7ac0fe9c2c0f3,2021-04-06_09h28.39.055,Colour_Similarity_Experiment,2020.2.10,Win32,60,6067542a4a25243f4d7d4fcf,17.02446483,16.75109938,16.66561514,16.67741935,16.68433735,16.68433735,,,,,,,,,,,,,,,,,,,,PF,weak,3,,,,,,,,0,2.499,,,,,,,,,,,,,,,,,,,,,,,,,,,,8,weak,-45,84,1,0,0,response7disk,9,28,-6,0,1,0,0,rectangle,-6,0,1,0,0,3,3,0.002,-6,0,1,0,0,0,27,27,42,1,0,,,,,,,,,,,,,,,,,,,,,
,,,,,,,,,,,,,,,,,,,,,,,,,,,,,,,,,,,,,,,,,,6061711f6ef8e3b652861dbf,606c0d3318f7ac0fe9c2c0f3,2021-04-06_09h28.39.055,Colour_Similarity_Experiment,2020.2.10,Win32,60,6067542a4a25243f4d7d4fcf,17.02446483,16.75109938,16.66561514,16.67741935,16.68433735,16.68433735,,,,,,,,,,,,,,,,,,,,PF,weak,3,,,,,,,,1,1.333,,,,,,,,,,,,,,,,,,,,,,,,,,,,1,weak,-81,35,1,0,0,response7disk,9,29,0,-1,1,0,0,rectangle,0,-1,1,0,0,3,3,0.002,0,-1,1,0,0,0,28,28,15,1,0,,,,,,,,,,,,,,,,,,,,,
,,,,,,,,,,,,,,,,,,,,,,,,,,,,,,,,,,,,,,,,,,6061711f6ef8e3b652861dbf,606c0d3318f7ac0fe9c2c0f3,2021-04-06_09h28.39.055,Colour_Similarity_Experiment,2020.2.10,Win32,60,6067542a4a25243f4d7d4fcf,17.02446483,16.75109938,16.66561514,16.67741935,16.68433735,16.68433735,,,,,,,,,,,,,,,,,,,,PF,strong,3,,,,,,,,2,2.661,,,,,,,,,,,,,,,,,,,,,,,,,,,,4,strong,-71,-43,1,0,0,response5disk,5,30,-3,-4,1,0,0,rectangle,-3,-4,1,0,0,3,7,0.002,-3,-4,1,0,0,0,29,29,116,1,0,,,,,,,,,,,,,,,,,,,,,
,,,,,,,,,,,,,,,,,,,,,,,,,,,,,,,,,,,,,,,,,,6061711f6ef8e3b652861dbf,606c0d3318f7ac0fe9c2c0f3,2021-04-06_09h28.39.055,Colour_Similarity_Experiment,2020.2.10,Win32,60,6067542a4a25243f4d7d4fcf,17.02446483,16.75109938,16.66561514,16.67741935,16.68433735,16.68433735,,,,,,,,,,,,,,,,,,,,PF,weak,3,,,,,,,,7,1.282,,,,,,,,,,,,,,,,,,,,,,,,,,,,8,weak,49,85,1,0,0,response1disk,7,31,2,5,1,0,0,rectangle,2,5,1,0,0,3,5,0.003,2,5,1,0,0,0,30,30,23,1,0,,,,,,,,,,,,,,,,,,,,,
,,,,,,,,,,,,,,,,,,,,,,,,,,,,,,,,,,,,,,,,,,6061711f6ef8e3b652861dbf,606c0d3318f7ac0fe9c2c0f3,2021-04-06_09h28.39.055,Colour_Similarity_Experiment,2020.2.10,Win32,60,6067542a4a25243f4d7d4fcf,17.02446483,16.75109938,16.66561514,16.67741935,16.68433735,16.68433735,,,,,,,,,,,,,,,,,,,,PF,strong,3,,,,,,,,0,2.15,,,,,,,,,,,,,,,,,,,,,,,,,,,,4,strong,-43,85,1,0,0,response7disk,4,32,-1,3,1,0,0,rectangle,-1,3,1,0,0,3,7,0.002,-1,3,1,0,0,0,31,31,84,1,0,,,,,,,,,,,,,,,,,,,,,
,,,,,,,,,,,,,,,,,,,,,,,,,,,,,,,,,,,,,,,,,,6061711f6ef8e3b652861dbf,606c0d3318f7ac0fe9c2c0f3,2021-04-06_09h28.39.055,Colour_Similarity_Experiment,2020.2.10,Win32,60,6067542a4a25243f4d7d4fcf,17.02446483,16.75109938,16.66561514,16.67741935,16.68433735,16.68433735,,,,,,,,,,,,,,,,,,,,PF,strong,3,,,,,,,,3,2.232,,,,,,,,,,,,,,,,,,,,,,,,,,,,6,strong,-34,-87,1,0,0,response5disk,7,33,3,10,1,0,0,rectangle,3,10,1,0,0,3,6,0.002,3,10,1,0,0,0,32,32,18,1,0,,,,,,,,,,,,,,,,,,,,,
,,,,,,,,,,,,,,,,,,,,,,,,,,,,,,,,,,,,,,,,,,6061711f6ef8e3b652861dbf,606c0d3318f7ac0fe9c2c0f3,2021-04-06_09h28.39.055,Colour_Similarity_Experiment,2020.2.10,Win32,60,6067542a4a25243f4d7d4fcf,17.02446483,16.75109938,16.66561514,16.67741935,16.68433735,16.68433735,,,,,,,,,,,,,,,,,,,,PF,strong,3,,,,,,,,5,3.2,,,,,,,,,,,,,,,,,,,,,,,,,,,,3,strong,81,-37,1,0,0,response3disk,1,34,2,1,1,0,0,rectangle,2,1,1,0,0,3,6,0.001,2,1,1,0,0,0,33,33,125,1,0,,,,,,,,,,,,,,,,,,,,,
,,,,,,,,,,,,,,,,,,,,,,,,,,,,,,,,,,,,,,,,,,6061711f6ef8e3b652861dbf,606c0d3318f7ac0fe9c2c0f3,2021-04-06_09h28.39.055,Colour_Similarity_Experiment,2020.2.10,Win32,60,6067542a4a25243f4d7d4fcf,17.02446483,16.75109938,16.66561514,16.67741935,16.68433735,16.68433735,,,,,,,,,,,,,,,,,,,,PF,strong,3,,,,,,,,4,2.166,,,,,,,,,,,,,,,,,,,,,,,,,,,,5,strong,44,-95,1,0,0,response3disk,2,35,-4,6,1,0,0,rectangle,-39,68,1,0,0,0,0,2.015,-3,4,1,0,0,0,34,34,55,1,1,response7disk_3,rectangle,,,,,,,,,,,,,,,,,,,
,,,,,,,,,,,,,,,,,,,,,,,,,,,,,,,,,,,,,,,,,,6061711f6ef8e3b652861dbf,606c0d3318f7ac0fe9c2c0f3,2021-04-06_09h28.39.055,Colour_Similarity_Experiment,2020.2.10,Win32,60,6067542a4a25243f4d7d4fcf,17.02446483,16.75109938,16.66561514,16.67741935,16.68433735,16.68433735,,,,,,,,,,,,,,,,,,,,PF,strong,3,,,,,,,,6,1.517,,,,,,,,,,,,,,,,,,,,,,,,,,,,3,strong,82,43,1,0,0,response1disk,4,36,-2,3,1,0,0,rectangle,-2,3,1,0,0,0,0,0.001,-2,3,1,0,0,0,35,35,110,1,0,,,,,,,,,,,,,,,,,,,,,
,,,,,,,,,,,,,,,,,,,,,,,,,,,,,,,,,,,,,,,,,,6061711f6ef8e3b652861dbf,606c0d3318f7ac0fe9c2c0f3,2021-04-06_09h28.39.055,Colour_Similarity_Experiment,2020.2.10,Win32,60,6067542a4a25243f4d7d4fcf,17.02446483,16.75109938,16.66561514,16.67741935,16.68433735,16.68433735,,,,,,,,,,,,,,,,,,,,PF,strong,3,,,,,,,,3,3.433,,,,,,,,,,,,,,,,,,,,,,,,,,,,7,strong,-44,-85,1,0,0,response5disk,7,37,-2,-3,1,0,0,rectangle,-2,-3,1,0,0,0,2,0.002,-2,-3,1,0,0,0,36,36,34,1,0,,,,,,,,,,,,,,,,,,,,,
,,,,,,,,,,,,,,,,,,,,,,,,,,,,,,,,,,,,,,,,,,6061711f6ef8e3b652861dbf,606c0d3318f7ac0fe9c2c0f3,2021-04-06_09h28.39.055,Colour_Similarity_Experiment,2020.2.10,Win32,60,6067542a4a25243f4d7d4fcf,17.02446483,16.75109938,16.66561514,16.67741935,16.68433735,16.68433735,,,,,,,,,,,,,,,,,,,,PF,strong,3,,,,,,,,7,2.267,,,,,,,,,,,,,,,,,,,,,,,,,,,,1,strong,26,73,1,0,0,response1disk,7,38,-2,1,1,0,0,rectangle,-2,1,1,0,0,0,5,0.002,-2,1,1,0,0,0,37,37,137,1,0,,,,,,,,,,,,,,,,,,,,,
,,,,,,,,,,,,,,,,,,,,,,,,,,,,,,,,,,,,,,,,,,6061711f6ef8e3b652861dbf,606c0d3318f7ac0fe9c2c0f3,2021-04-06_09h28.39.055,Colour_Similarity_Experiment,2020.2.10,Win32,60,6067542a4a25243f4d7d4fcf,17.02446483,16.75109938,16.66561514,16.67741935,16.68433735,16.68433735,,,,,,,,,,,,,,,,,,,,PF,strong,3,,,,,,,,7,2.55,,,,,,,,,,,,,,,,,,,,,,,,,,,,7,strong,33,80,1,0,0,response1disk,9,39,4,-1,1,0,0,rectangle,4,-1,1,0,0,0,5,0.001,4,-1,1,0,0,0,38,38,155,1,0,,,,,,,,,,,,,,,,,,,,,
,,,,,,,,,,,,,,,,,,,,,,,,,,,,,,,,,,,,,,,,,,6061711f6ef8e3b652861dbf,606c0d3318f7ac0fe9c2c0f3,2021-04-06_09h28.39.055,Colour_Similarity_Experiment,2020.2.10,Win32,60,6067542a4a25243f4d7d4fcf,17.02446483,16.75109938,16.66561514,16.67741935,16.68433735,16.68433735,,,,,,,,,,,,,,,,,,,,PF,strong,3,,,,,,,,2,1.234,,,,,,,,,,,,,,,,,,,,,,,,,,,,7,strong,-58,-37,1,0,0,response5disk,5,40,-3,-4,1,0,0,rectangle,-3,-4,1,0,0,0,4,0.003,-3,-4,1,0,0,0,39,39,156,1,0,,,,,,,,,,,,,,,,,,,,,
,,,,,,,,,,,,,,,,,,,,,,,,,,,,,,,,,,,,,,,,,,6061711f6ef8e3b652861dbf,606c0d3318f7ac0fe9c2c0f3,2021-04-06_09h28.39.055,Colour_Similarity_Experiment,2020.2.10,Win32,60,6067542a4a25243f4d7d4fcf,17.02446483,16.75109938,16.66561514,16.67741935,16.68433735,16.68433735,,,,,,,,,,,,,,,,,,,,PF,weak,3,,,,,,,,0,1.482,,,,,,,,,,,,,,,,,,,,,,,,,,,,3,weak,-48,92,1,0,0,response7disk,3,41,-2,1,1,0,0,rectangle,-2,1,1,0,0,0,3,0.002,-2,1,1,0,0,0,40,40,4,1,0,,,,,,,,,,,,,,,,,,,,,
,,,,,,,,,,,,,,,,,,,,,,,,,,,,,,,,,,,,,,,,,,6061711f6ef8e3b652861dbf,606c0d3318f7ac0fe9c2c0f3,2021-04-06_09h28.39.055,Colour_Similarity_Experiment,2020.2.10,Win32,60,6067542a4a25243f4d7d4fcf,17.02446483,16.75109938,16.66561514,16.67741935,16.68433735,16.68433735,,,,,,,,,,,,,,,,,,,,PF,weak,3,,,,,,,,7,1.133,,,,,,,,,,,,,,,,,,,,,,,,,,,,9,weak,43,85,1,0,0,response1disk,7,42,3,3,1,0,0,rectangle,3,3,1,0,0,0,6,0.002,3,3,1,0,0,0,41,41,121,1,0,,,,,,,,,,,,,,,,,,,,,
,,,,,,,,,,,,,,,,,,,,,,,,,,,,,,,,,,,,,,,,,,6061711f6ef8e3b652861dbf,606c0d3318f7ac0fe9c2c0f3,2021-04-06_09h28.39.055,Colour_Similarity_Experiment,2020.2.10,Win32,60,6067542a4a25243f4d7d4fcf,17.02446483,16.75109938,16.66561514,16.67741935,16.68433735,16.68433735,,,,,,,,,,,,,,,,,,,,PF,strong,3,,,,,,,,6,1.234,,,,,,,,,,,,,,,,,,,,,,,,,,,,1,strong,109,41,1,0,0,response1disk,8,43,-24,3,1,0,0,rectangle,-24,3,1,0,0,0,4,0.002,-24,3,1,0,0,0,42,42,27,1,0,,,,,,,,,,,,,,,,,,,,,
,,,,,,,,,,,,,,,,,,,,,,,,,,,,,,,,,,,,,,,,,,6061711f6ef8e3b652861dbf,606c0d3318f7ac0fe9c2c0f3,2021-04-06_09h28.39.055,Colour_Similarity_Experiment,2020.2.10,Win32,60,6067542a4a25243f4d7d4fcf,17.02446483,16.75109938,16.66561514,16.67741935,16.68433735,16.68433735,,,,,,,,,,,,,,,,,,,,PF,strong,3,,,,,,,,5,1.05,,,,,,,,,,,,,,,,,,,,,,,,,,,,1,strong,74,-31,1,0,0,response3disk,9,44,-5,1,1,0,0,rectangle,-5,1,1,0,0,0,3,0.002,-5,1,1,0,0,0,43,43,123,1,0,,,,,,,,,,,,,,,,,,,,,
,,,,,,,,,,,,,,,,,,,,,,,,,,,,,,,,,,,,,,,,,,6061711f6ef8e3b652861dbf,606c0d3318f7ac0fe9c2c0f3,2021-04-06_09h28.39.055,Colour_Similarity_Experiment,2020.2.10,Win32,60,6067542a4a25243f4d7d4fcf,17.02446483,16.75109938,16.66561514,16.67741935,16.68433735,16.68433735,,,,,,,,,,,,,,,,,,,,PF,strong,3,,,,,,,,0,1.4,,,,,,,,,,,,,,,,,,,,,,,,,,,,5,strong,-50,89,1,0,0,response7disk,6,45,-2,0,1,0,0,rectangle,-2,0,1,0,0,0,6,0.003,-2,0,1,0,0,0,44,44,12,1,0,,,,,,,,,,,,,,,,,,,,,
,,,,,,,,,,,,,,,,,,,,,,,,,,,,,,,,,,,,,,,,,,6061711f6ef8e3b652861dbf,606c0d3318f7ac0fe9c2c0f3,2021-04-06_09h28.39.055,Colour_Similarity_Experiment,2020.2.10,Win32,60,6067542a4a25243f4d7d4fcf,17.02446483,16.75109938,16.66561514,16.67741935,16.68433735,16.68433735,,,,,,,,,,,,,,,,,,,,PF,strong,3,,,,,,,,6,1.25,,,,,,,,,,,,,,,,,,,,,,,,,,,,9,strong,73,48,1,0,0,response1disk,6,46,-8,5,1,0,0,rectangle,-8,5,1,0,0,0,7,0.003,-8,5,1,0,0,0,45,45,117,1,0,,,,,,,,,,,,,,,,,,,,,
,,,,,,,,,,,,,,,,,,,,,,,,,,,,,,,,,,,,,,,,,,6061711f6ef8e3b652861dbf,606c0d3318f7ac0fe9c2c0f3,2021-04-06_09h28.39.055,Colour_Similarity_Experiment,2020.2.10,Win32,60,6067542a4a25243f4d7d4fcf,17.02446483,16.75109938,16.66561514,16.67741935,16.68433735,16.68433735,,,,,,,,,,,,,,,,,,,,PF,weak,3,,,,,,,,4,1.868,,,,,,,,,,,,,,,,,,,,,,,,,,,,4,weak,48,-79,1,0,0,response3disk,8,47,4,-2,1,0,0,rectangle,4,-2,1,0,0,0,2,0.002,4,-2,1,0,0,0,46,46,124,1,0,,,,,,,,,,,,,,,,,,,,,
,,,,,,,,,,,,,,,,,,,,,,,,,,,,,,,,,,,,,,,,,,6061711f6ef8e3b652861dbf,606c0d3318f7ac0fe9c2c0f3,2021-04-06_09h28.39.055,Colour_Similarity_Experiment,2020.2.10,Win32,60,6067542a4a25243f4d7d4fcf,17.02446483,16.75109938,16.66561514,16.67741935,16.68433735,16.68433735,,,,,,,,,,,,,,,,,,,,PF,weak,3,,,,,,,,0,1.182,,,,,,,,,,,,,,,,,,,,,,,,,,,,1,weak,-37,89,1,0,0,response7disk,1,48,-5,-4,1,0,0,rectangle,-91,41,1,0,0,1,1,1.634,0,2,1,0,0,0,47,47,76,1,1,response7disk_3,rectangle,,,,,,,,,,,,,,,,,,,
,,,,,,,,,,,,,,,,,,,,,,,,,,,,,,,,,,,,,,,,,,6061711f6ef8e3b652861dbf,606c0d3318f7ac0fe9c2c0f3,2021-04-06_09h28.39.055,Colour_Similarity_Experiment,2020.2.10,Win32,60,6067542a4a25243f4d7d4fcf,17.02446483,16.75109938,16.66561514,16.67741935,16.68433735,16.68433735,,,,,,,,,,,,,,,,,,,,PF,strong,3,,,,,,,,4,2.149,,,,,,,,,,,,,,,,,,,,,,,,,,,,7,strong,43,-84,1,0,0,response3disk,3,49,-14,8,1,0,0,rectangle,-14,8,1,0,0,1,5,0.002,-14,8,1,0,0,0,48,48,73,1,0,,,,,,,,,,,,,,,,,,,,,
,,,,,,,,,,,,,,,,,,,,,,,,,,,,,,,,,,,,,,,,,,6061711f6ef8e3b652861dbf,606c0d3318f7ac0fe9c2c0f3,2021-04-06_09h28.39.055,Colour_Similarity_Experiment,2020.2.10,Win32,60,6067542a4a25243f4d7d4fcf,17.02446483,16.75109938,16.66561514,16.67741935,16.68433735,16.68433735,,,,,,,,,,,,,,,,,,,,PF,strong,3,,,,,,,,4,1.683,,,,,,,,,,,,,,,,,,,,,,,,,,,,8,strong,42,-79,1,0,0,response3disk,2,50,-11,6,1,0,0,rectangle,-11,6,1,0,0,1,6,0.004,-11,6,1,0,0,0,49,49,22,1,0,,,,,,,,,,,,,,,,,,,,,
,,,,,,,,,,,,,,,,,,,,,,,,,,,,,,,,,,,,,,,,,,6061711f6ef8e3b652861dbf,606c0d3318f7ac0fe9c2c0f3,2021-04-06_09h28.39.055,Colour_Similarity_Experiment,2020.2.10,Win32,60,6067542a4a25243f4d7d4fcf,17.02446483,16.75109938,16.66561514,16.67741935,16.68433735,16.68433735,,,,,,,,,,,,,,,,,,,,PF,weak,3,,,,,,,,4,0.95,,,,,,,,,,,,,,,,,,,,,,,,,,,,8,weak,51,-66,1,0,0,response3disk,2,51,4,3,1,0,0,rectangle,4,3,1,0,0,1,4,0.002,4,3,1,0,0,0,50,50,83,1,0,,,,,,,,,,,,,,,,,,,,,
,,,,,,,,,,,,,,,,,,,,,,,,,,,,,,,,,,,,,,,,,,6061711f6ef8e3b652861dbf,606c0d3318f7ac0fe9c2c0f3,2021-04-06_09h28.39.055,Colour_Similarity_Experiment,2020.2.10,Win32,60,6067542a4a25243f4d7d4fcf,17.02446483,16.75109938,16.66561514,16.67741935,16.68433735,16.68433735,,,,,,,,,,,,,,,,,,,,PF,strong,3,,,,,,,,0,1.184,,,,,,,,,,,,,,,,,,,,,,,,,,,,8,strong,-27,75,1,0,0,response7disk,8,52,2,-2,1,0,0,rectangle,2,-2,1,0,0,1,6,0.002,2,-2,1,0,0,0,51,51,48,1,0,,,,,,,,,,,,,,,,,,,,,
,,,,,,,,,,,,,,,,,,,,,,,,,,,,,,,,,,,,,,,,,,6061711f6ef8e3b652861dbf,606c0d3318f7ac0fe9c2c0f3,2021-04-06_09h28.39.055,Colour_Similarity_Experiment,2020.2.10,Win32,60,6067542a4a25243f4d7d4fcf,17.02446483,16.75109938,16.66561514,16.67741935,16.68433735,16.68433735,,,,,,,,,,,,,,,,,,,,PF,strong,3,,,,,,,,0,0.949,,,,,,,,,,,,,,,,,,,,,,,,,,,,5,strong,-32,77,1,0,0,response7disk,5,53,-7,4,1,0,0,rectangle,-7,4,1,0,0,1,5,0.002,-7,4,1,0,0,0,52,52,19,1,0,,,,,,,,,,,,,,,,,,,,,
,,,,,,,,,,,,,,,,,,,,,,,,,,,,,,,,,,,,,,,,,,6061711f6ef8e3b652861dbf,606c0d3318f7ac0fe9c2c0f3,2021-04-06_09h28.39.055,Colour_Similarity_Experiment,2020.2.10,Win32,60,6067542a4a25243f4d7d4fcf,17.02446483,16.75109938,16.66561514,16.67741935,16.68433735,16.68433735,,,,,,,,,,,,,,,,,,,,PF,strong,3,,,,,,,,2,1.483,,,,,,,,,,,,,,,,,,,,,,,,,,,,5,strong,-69,-37,1,0,0,response5disk,7,54,6,7,1,0,0,rectangle,6,7,1,0,0,1,2,0.002,6,7,1,0,0,0,53,53,7,1,0,,,,,,,,,,,,,,,,,,,,,
,,,,,,,,,,,,,,,,,,,,,,,,,,,,,,,,,,,,,,,,,,6061711f6ef8e3b652861dbf,606c0d3318f7ac0fe9c2c0f3,2021-04-06_09h28.39.055,Colour_Similarity_Experiment,2020.2.10,Win32,60,6067542a4a25243f4d7d4fcf,17.02446483,16.75109938,16.66561514,16.67741935,16.68433735,16.68433735,,,,,,,,,,,,,,,,,,,,PF,weak,3,,,,,,,,1,1.601,,,,,,,,,,,,,,,,,,,,,,,,,,,,9,weak,-84,31,1,0,0,response7disk,8,55,1,-4,1,0,0,rectangle,1,-4,1,0,0,1,4,0.002,1,-4,1,0,0,0,54,54,67,1,0,,,,,,,,,,,,,,,,,,,,,
,,,,,,,,,,,,,,,,,,,,,,,,,,,,,,,,,,,,,,,,,,6061711f6ef8e3b652861dbf,606c0d3318f7ac0fe9c2c0f3,2021-04-06_09h28.39.055,Colour_Similarity_Experiment,2020.2.10,Win32,60,6067542a4a25243f4d7d4fcf,17.02446483,16.75109938,16.66561514,16.67741935,16.68433735,16.68433735,,,,,,,,,,,,,,,,,,,,PF,weak,3,,,,,,,,1,1.166,,,,,,,,,,,,,,,,,,,,,,,,,,,,6,weak,-71,30,1,0,0,response7disk,9,56,2,3,1,0,0,rectangle,2,3,1,0,0,1,7,0.004,2,3,1,0,0,0,55,55,45,1,0,,,,,,,,,,,,,,,,,,,,,
,,,,,,,,,,,,,,,,,,,,,,,,,,,,,,,,,,,,,,,,,,6061711f6ef8e3b652861dbf,606c0d3318f7ac0fe9c2c0f3,2021-04-06_09h28.39.055,Colour_Similarity_Experiment,2020.2.10,Win32,60,6067542a4a25243f4d7d4fcf,17.02446483,16.75109938,16.66561514,16.67741935,16.68433735,16.68433735,,,,,,,,,,,,,,,,,,,,PF,weak,3,,,,,,,,4,2.333,,,,,,,,,,,,,,,,,,,,,,,,,,,,9,weak,29,-73,1,0,0,response3disk,2,57,-5,6,1,0,0,rectangle,-5,6,1,0,0,1,6,0.002,-5,6,1,0,0,0,56,56,157,1,0,,,,,,,,,,,,,,,,,,,,,
,,,,,,,,,,,,,,,,,,,,,,,,,,,,,,,,,,,,,,,,,,6061711f6ef8e3b652861dbf,606c0d3318f7ac0fe9c2c0f3,2021-04-06_09h28.39.055,Colour_Similarity_Experiment,2020.2.10,Win32,60,6067542a4a25243f4d7d4fcf,17.02446483,16.75109938,16.66561514,16.67741935,16.68433735,16.68433735,,,,,,,,,,,,,,,,,,,,PF,strong,3,,,,,,,,0,1.067,,,,,,,,,,,,,,,,,,,,,,,,,,,,6,strong,-44,96,1,0,0,response7disk,5,58,-1,7,1,0,0,rectangle,-1,7,1,0,0,1,3,0.001,-1,7,1,0,0,0,57,57,126,1,0,,,,,,,,,,,,,,,,,,,,,
,,,,,,,,,,,,,,,,,,,,,,,,,,,,,,,,,,,,,,,,,,6061711f6ef8e3b652861dbf,606c0d3318f7ac0fe9c2c0f3,2021-04-06_09h28.39.055,Colour_Similarity_Experiment,2020.2.10,Win32,60,6067542a4a25243f4d7d4fcf,17.02446483,16.75109938,16.66561514,16.67741935,16.68433735,16.68433735,,,,,,,,,,,,,,,,,,,,PF,strong,3,,,,,,,,7,1.732,,,,,,,,,,,,,,,,,,,,,,,,,,,,8,strong,36,93,1,0,0,response1disk,5,59,-10,-2,1,0,0,rectangle,-10,-2,1,0,0,1,0,0.002,-10,-2,1,0,0,0,58,58,152,1,0,,,,,,,,,,,,,,,,,,,,,
,,,,,,,,,,,,,,,,,,,,,,,,,,,,,,,,,,,,,,,,,,6061711f6ef8e3b652861dbf,606c0d3318f7ac0fe9c2c0f3,2021-04-06_09h28.39.055,Colour_Similarity_Experiment,2020.2.10,Win32,60,6067542a4a25243f4d7d4fcf,17.02446483,16.75109938,16.66561514,16.67741935,16.68433735,16.68433735,,,,,,,,,,,,,,,,,,,,PF,weak,3,,,,,,,,1,3.633,,,,,,,,,,,,,,,,,,,,,,,,,,,,4,weak,-86,33,1,0,0,response7disk,5,60,4,-2,1,0,0,rectangle,4,-2,1,0,0,1,7,0.002,4,-2,1,0,0,0,59,59,49,1,0,,,,,,,,,,,,,,,,,,,,,
,,,,,,,,,,,,,,,,,,,,,,,,,,,,,,,,,,,,,,,,,,6061711f6ef8e3b652861dbf,606c0d3318f7ac0fe9c2c0f3,2021-04-06_09h28.39.055,Colour_Similarity_Experiment,2020.2.10,Win32,60,6067542a4a25243f4d7d4fcf,17.02446483,16.75109938,16.66561514,16.67741935,16.68433735,16.68433735,,,,,,,,,,,,,,,,,,,,PF,weak,3,,,,,,,,0,1.034,,,,,,,,,,,,,,,,,,,,,,,,,,,,4,weak,-39,92,1,0,0,response7disk,4,61,2,3,1,0,0,rectangle,2,3,1,0,0,1,5,0.002,2,3,1,0,0,0,60,60,70,1,0,,,,,,,,,,,,,,,,,,,,,
,,,,,,,,,,,,,,,,,,,,,,,,,,,,,,,,,,,,,,,,,,6061711f6ef8e3b652861dbf,606c0d3318f7ac0fe9c2c0f3,2021-04-06_09h28.39.055,Colour_Similarity_Experiment,2020.2.10,Win32,60,6067542a4a25243f4d7d4fcf,17.02446483,16.75109938,16.66561514,16.67741935,16.68433735,16.68433735,,,,,,,,,,,,,,,,,,,,PF,strong,3,,,,,,,,4,5.166,,,,,,,,,,,,,,,,,,,,,,,,,,,,2,strong,40,-94,1,0,0,response3disk,8,62,-5,3,1,0,0,rectangle,-5,3,1,0,0,1,3,0.002,-5,3,1,0,0,0,61,61,62,1,0,,,,,,,,,,,,,,,,,,,,,
,,,,,,,,,,,,,,,,,,,,,,,,,,,,,,,,,,,,,,,,,,6061711f6ef8e3b652861dbf,606c0d3318f7ac0fe9c2c0f3,2021-04-06_09h28.39.055,Colour_Similarity_Experiment,2020.2.10,Win32,60,6067542a4a25243f4d7d4fcf,17.02446483,16.75109938,16.66561514,16.67741935,16.68433735,16.68433735,,,,,,,,,,,,,,,,,,,,PF,strong,3,,,,,,,,7,1.333,,,,,,,,,,,,,,,,,,,,,,,,,,,,1,strong,33,80,1,0,0,response1disk,4,63,-1,5,1,0,0,rectangle,-1,5,1,0,0,1,4,0.002,-1,5,1,0,0,0,62,62,135,1,0,,,,,,,,,,,,,,,,,,,,,
,,,,,,,,,,,,,,,,,,,,,,,,,,,,,,,,,,,,,,,,,,6061711f6ef8e3b652861dbf,606c0d3318f7ac0fe9c2c0f3,2021-04-06_09h28.39.055,Colour_Similarity_Experiment,2020.2.10,Win32,60,6067542a4a25243f4d7d4fcf,17.02446483,16.75109938,16.66561514,16.67741935,16.68433735,16.68433735,,,,,,,,,,,,,,,,,,,,PF,weak,3,,,,,,,,7,0.866,,,,,,,,,,,,,,,,,,,,,,,,,,,,7,weak,55,92,1,0,0,response1disk,1,64,-7,-1,1,0,0,rectangle,-7,-1,1,0,0,1,5,0.002,-7,-1,1,0,0,0,63,63,53,1,0,,,,,,,,,,,,,,,,,,,,,
,,,,,,,,,,,,,,,,,,,,,,,,,,,,,,,,,,,,,,,,,,6061711f6ef8e3b652861dbf,606c0d3318f7ac0fe9c2c0f3,2021-04-06_09h28.39.055,Colour_Similarity_Experiment,2020.2.10,Win32,60,6067542a4a25243f4d7d4fcf,17.02446483,16.75109938,16.66561514,16.67741935,16.68433735,16.68433735,,,,,,,,,,,,,,,,,,,,PF,weak,3,,,,,,,,0,0.95,,,,,,,,,,,,,,,,,,,,,,,,,,,,7,weak,-36,77,1,0,0,response7disk,7,65,-2,3,1,0,0,rectangle,-2,3,1,0,0,1,5,0.001,-2,3,1,0,0,0,64,64,51,1,0,,,,,,,,,,,,,,,,,,,,,
,,,,,,,,,,,,,,,,,,,,,,,,,,,,,,,,,,,,,,,,,,6061711f6ef8e3b652861dbf,606c0d3318f7ac0fe9c2c0f3,2021-04-06_09h28.39.055,Colour_Similarity_Experiment,2020.2.10,Win32,60,6067542a4a25243f4d7d4fcf,17.02446483,16.75109938,16.66561514,16.67741935,16.68433735,16.68433735,,,,,,,,,,,,,,,,,,,,PF,weak,3,,,,,,,,5,2.75,,,,,,,,,,,,,,,,,,,,,,,,,,,,6,weak,95,-32,1,0,0,response3disk,2,66,0,1,1,0,0,rectangle,0,1,1,0,0,1,5,0.001,0,1,1,0,0,0,65,65,130,1,0,,,,,,,,,,,,,,,,,,,,,
,,,,,,,,,,,,,,,,,,,,,,,,,,,,,,,,,,,,,,,,,,6061711f6ef8e3b652861dbf,606c0d3318f7ac0fe9c2c0f3,2021-04-06_09h28.39.055,Colour_Similarity_Experiment,2020.2.10,Win32,60,6067542a4a25243f4d7d4fcf,17.02446483,16.75109938,16.66561514,16.67741935,16.68433735,16.68433735,,,,,,,,,,,,,,,,,,,,PF,strong,3,,,,,,,,4,2.6,,,,,,,,,,,,,,,,,,,,,,,,,,,,2,strong,43,-77,1,0,0,response3disk,6,67,0,-2,1,0,0,rectangle,0,-2,1,0,0,1,0,0.003,0,-2,1,0,0,0,66,66,40,1,0,,,,,,,,,,,,,,,,,,,,,
,,,,,,,,,,,,,,,,,,,,,,,,,,,,,,,,,,,,,,,,,,6061711f6ef8e3b652861dbf,606c0d3318f7ac0fe9c2c0f3,2021-04-06_09h28.39.055,Colour_Similarity_Experiment,2020.2.10,Win32,60,6067542a4a25243f4d7d4fcf,17.02446483,16.75109938,16.66561514,16.67741935,16.68433735,16.68433735,,,,,,,,,,,,,,,,,,,,PF,weak,3,,,,,,,,5,3.85,,,,,,,,,,,,,,,,,,,,,,,,,,,,4,weak,84,-37,1,0,0,response3disk,3,68,1,-2,1,0,0,rectangle,1,-2,1,0,0,1,2,0.001,1,-2,1,0,0,0,67,67,89,1,0,,,,,,,,,,,,,,,,,,,,,
,,,,,,,,,,,,,,,,,,,,,,,,,,,,,,,,,,,,,,,,,,6061711f6ef8e3b652861dbf,606c0d3318f7ac0fe9c2c0f3,2021-04-06_09h28.39.055,Colour_Similarity_Experiment,2020.2.10,Win32,60,6067542a4a25243f4d7d4fcf,17.02446483,16.75109938,16.66561514,16.67741935,16.68433735,16.68433735,,,,,,,,,,,,,,,,,,,,PF,weak,3,,,,,,,,4,2.033,,,,,,,,,,,,,,,,,,,,,,,,,,,,1,weak,33,-88,1,0,0,response3disk,8,69,-2,0,1,0,0,rectangle,-2,0,1,0,0,1,6,0.003,-2,0,1,0,0,0,68,68,65,1,0,,,,,,,,,,,,,,,,,,,,,
,,,,,,,,,,,,,,,,,,,,,,,,,,,,,,,,,,,,,,,,,,6061711f6ef8e3b652861dbf,606c0d3318f7ac0fe9c2c0f3,2021-04-06_09h28.39.055,Colour_Similarity_Experiment,2020.2.10,Win32,60,6067542a4a25243f4d7d4fcf,17.02446483,16.75109938,16.66561514,16.67741935,16.68433735,16.68433735,,,,,,,,,,,,,,,,,,,,PF,weak,3,,,,,,,,5,1.45,,,,,,,,,,,,,,,,,,,,,,,,,,,,7,weak,68,-37,1,0,0,response3disk,2,70,-1,0,1,0,0,rectangle,-1,0,1,0,0,1,6,0,-1,0,1,0,0,0,69,69,32,1,0,,,,,,,,,,,,,,,,,,,,,
,,,,,,,,,,,,,,,,,,,,,,,,,,,,,,,,,,,,,,,,,,6061711f6ef8e3b652861dbf,606c0d3318f7ac0fe9c2c0f3,2021-04-06_09h28.39.055,Colour_Similarity_Experiment,2020.2.10,Win32,60,6067542a4a25243f4d7d4fcf,17.02446483,16.75109938,16.66561514,16.67741935,16.68433735,16.68433735,,,,,,,,,,,,,,,,,,,,PF,weak,3,,,,,,,,5,1.081,,,,,,,,,,,,,,,,,,,,,,,,,,,,6,weak,73,-39,1,0,0,response3disk,3,71,-6,1,1,0,0,rectangle,-6,1,1,0,0,1,2,0.002,-6,1,1,0,0,0,70,70,26,1,0,,,,,,,,,,,,,,,,,,,,,
,,,,,,,,,,,,,,,,,,,,,,,,,,,,,,,,,,,,,,,,,,6061711f6ef8e3b652861dbf,606c0d3318f7ac0fe9c2c0f3,2021-04-06_09h28.39.055,Colour_Similarity_Experiment,2020.2.10,Win32,60,6067542a4a25243f4d7d4fcf,17.02446483,16.75109938,16.66561514,16.67741935,16.68433735,16.68433735,,,,,,,,,,,,,,,,,,,,PF,strong,3,,,,,,,,0,1.133,,,,,,,,,,,,,,,,,,,,,,,,,,,,2,strong,-43,79,1,0,0,response7disk,3,72,7,1,1,0,0,rectangle,-68,-43,1,0,0,1,2,1.983,0,1,1,0,0,0,71,71,104,1,1,response5disk_3,rectangle,,,,,,,,,,,,,,,,,,,
,,,,,,,,,,,,,,,,,,,,,,,,,,,,,,,,,,,,,,,,,,6061711f6ef8e3b652861dbf,606c0d3318f7ac0fe9c2c0f3,2021-04-06_09h28.39.055,Colour_Similarity_Experiment,2020.2.10,Win32,60,6067542a4a25243f4d7d4fcf,17.02446483,16.75109938,16.66561514,16.67741935,16.68433735,16.68433735,,,,,,,,,,,,,,,,,,,,PF,strong,3,,,,,,,,0,1.234,,,,,,,,,,,,,,,,,,,,,,,,,,,,5,strong,-27,78,1,0,0,response7disk,4,73,1,5,1,0,0,rectangle,1,5,1,0,0,1,7,0,1,5,1,0,0,0,72,72,8,1,0,,,,,,,,,,,,,,,,,,,,,
,,,,,,,,,,,,,,,,,,,,,,,,,,,,,,,,,,,,,,,,,,6061711f6ef8e3b652861dbf,606c0d3318f7ac0fe9c2c0f3,2021-04-06_09h28.39.055,Colour_Similarity_Experiment,2020.2.10,Win32,60,6067542a4a25243f4d7d4fcf,17.02446483,16.75109938,16.66561514,16.67741935,16.68433735,16.68433735,,,,,,,,,,,,,,,,,,,,PF,weak,3,,,,,,,,0,0.999,,,,,,,,,,,,,,,,,,,,,,,,,,,,6,weak,-27,65,1,0,0,response7disk,6,74,1,-2,1,0,0,rectangle,1,-2,1,0,0,1,6,0.002,1,-2,1,0,0,0,73,73,0,1,0,,,,,,,,,,,,,,,,,,,,,
,,,,,,,,,,,,,,,,,,,,,,,,,,,,,,,,,,,,,,,,,,6061711f6ef8e3b652861dbf,606c0d3318f7ac0fe9c2c0f3,2021-04-06_09h28.39.055,Colour_Similarity_Experiment,2020.2.10,Win32,60,6067542a4a25243f4d7d4fcf,17.02446483,16.75109938,16.66561514,16.67741935,16.68433735,16.68433735,,,,,,,,,,,,,,,,,,,,PF,strong,3,,,,,,,,5,1.45,,,,,,,,,,,,,,,,,,,,,,,,,,,,2,strong,87,-31,1,0,0,response3disk,4,75,-4,4,1,0,0,rectangle,-4,4,1,0,0,1,6,0,-4,4,1,0,0,0,74,74,145,1,0,,,,,,,,,,,,,,,,,,,,,
,,,,,,,,,,,,,,,,,,,,,,,,,,,,,,,,,,,,,,,,,,6061711f6ef8e3b652861dbf,606c0d3318f7ac0fe9c2c0f3,2021-04-06_09h28.39.055,Colour_Similarity_Experiment,2020.2.10,Win32,60,6067542a4a25243f4d7d4fcf,17.02446483,16.75109938,16.66561514,16.67741935,16.68433735,16.68433735,,,,,,,,,,,,,,,,,,,,PF,strong,3,,,,,,,,5,1,,,,,,,,,,,,,,,,,,,,,,,,,,,,3,strong,73,-32,1,0,0,response3disk,6,76,2,2,1,0,0,rectangle,2,2,1,0,0,1,5,0.003,2,2,1,0,0,0,75,75,95,1,0,,,,,,,,,,,,,,,,,,,,,
,,,,,,,,,,,,,,,,,,,,,,,,,,,,,,,,,,,,,,,,,,6061711f6ef8e3b652861dbf,606c0d3318f7ac0fe9c2c0f3,2021-04-06_09h28.39.055,Colour_Similarity_Experiment,2020.2.10,Win32,60,6067542a4a25243f4d7d4fcf,17.02446483,16.75109938,16.66561514,16.67741935,16.68433735,16.68433735,,,,,,,,,,,,,,,,,,,,PF,strong,3,,,,,,,,0,0.9,,,,,,,,,,,,,,,,,,,,,,,,,,,,2,strong,-28,68,1,0,0,response7disk,2,77,-1,2,1,0,0,rectangle,-1,2,1,0,0,1,3,0.002,-1,2,1,0,0,0,76,76,142,1,0,,,,,,,,,,,,,,,,,,,,,
,,,,,,,,,,,,,,,,,,,,,,,,,,,,,,,,,,,,,,,,,,6061711f6ef8e3b652861dbf,606c0d3318f7ac0fe9c2c0f3,2021-04-06_09h28.39.055,Colour_Similarity_Experiment,2020.2.10,Win32,60,6067542a4a25243f4d7d4fcf,17.02446483,16.75109938,16.66561514,16.67741935,16.68433735,16.68433735,,,,,,,,,,,,,,,,,,,,PF,weak,3,,,,,,,,6,1.367,,,,,,,,,,,,,,,,,,,,,,,,,,,,8,weak,71,34,1,0,0,response1disk,5,78,-3,1,1,0,0,rectangle,-3,1,1,0,0,1,0,0.002,-3,1,1,0,0,0,77,77,98,1,0,,,,,,,,,,,,,,,,,,,,,
,,,,,,,,,,,,,,,,,,,,,,,,,,,,,,,,,,,,,,,,,,6061711f6ef8e3b652861dbf,606c0d3318f7ac0fe9c2c0f3,2021-04-06_09h28.39.055,Colour_Similarity_Experiment,2020.2.10,Win32,60,6067542a4a25243f4d7d4fcf,17.02446483,16.75109938,16.66561514,16.67741935,16.68433735,16.68433735,,,,,,,,,,,,,,,,,,,,PF,weak,3,,,,,,,,4,1.45,,,,,,,,,,,,,,,,,,,,,,,,,,,,1,weak,60,-83,1,0,0,response3disk,4,79,-2,-1,1,0,0,rectangle,-2,-1,1,0,0,1,4,0.002,-2,-1,1,0,0,0,78,78,139,1,0,,,,,,,,,,,,,,,,,,,,,
,,,,,,,,,,,,,,,,,,,,,,,,,,,,,,,,,,,,,,,,,,6061711f6ef8e3b652861dbf,606c0d3318f7ac0fe9c2c0f3,2021-04-06_09h28.39.055,Colour_Similarity_Experiment,2020.2.10,Win32,60,6067542a4a25243f4d7d4fcf,17.02446483,16.75109938,16.66561514,16.67741935,16.68433735,16.68433735,,,,,,,,,,,,,,,,,,,,PF,weak,3,,,,,,,,4,2.649,,,,,,,,,,,,,,,,,,,,,,,,,,,,5,weak,33,-87,1,0,0,response3disk,7,80,1,0,1,0,0,rectangle,1,0,1,0,0,1,3,0.002,1,0,1,0,0,0,79,79,146,1,0,,,,,,,,,,,,,,,,,,,,,
,,,,,,,,,,,,,,,,,,,,,,,,,,,,,,,,,,,,,,,,,,6061711f6ef8e3b652861dbf,606c0d3318f7ac0fe9c2c0f3,2021-04-06_09h28.39.055,Colour_Similarity_Experiment,2020.2.10,Win32,60,6067542a4a25243f4d7d4fcf,17.02446483,16.75109938,16.66561514,16.67741935,16.68433735,16.68433735,,,,,,,,,,,,,,,,,,,,PF,strong,3,,,,,,,,0,1.083,,,,,,,,,,,,,,,,,,,,,,,,,,,,8,strong,-33,82,1,0,0,response7disk,9,81,2,0,1,0,0,rectangle,2,0,1,0,0,1,6,0.002,2,0,1,0,0,0,80,80,105,1,0,,,,,,,,,,,,,,,,,,,,,
,,,,,,,,,,,,,,,,,,,,,,,,,,,,,,,,,,,,,,,,,,6061711f6ef8e3b652861dbf,606c0d3318f7ac0fe9c2c0f3,2021-04-06_09h28.39.055,Colour_Similarity_Experiment,2020.2.10,Win32,60,6067542a4a25243f4d7d4fcf,17.02446483,16.75109938,16.66561514,16.67741935,16.68433735,16.68433735,,,,,,,,,,,,,,,,,,,,PF,weak,3,,,,,,,,0,0.916,,,,,,,,,,,,,,,,,,,,,,,,,,,,3,weak,-30,75,1,0,0,response7disk,2,82,1,-1,1,0,0,rectangle,-42,81,1,0,0,0,0,1.549,-3,3,1,0,0,0,81,81,36,1,1,response7disk_3,rectangle,,,,,,,,,,,,,,,,,,,
,,,,,,,,,,,,,,,,,,,,,,,,,,,,,,,,,,,,,,,,,,6061711f6ef8e3b652861dbf,606c0d3318f7ac0fe9c2c0f3,2021-04-06_09h28.39.055,Colour_Similarity_Experiment,2020.2.10,Win32,60,6067542a4a25243f4d7d4fcf,17.02446483,16.75109938,16.66561514,16.67741935,16.68433735,16.68433735,,,,,,,,,,,,,,,,,,,,PF,strong,3,,,,,,,,7,1.349,,,,,,,,,,,,,,,,,,,,,,,,,,,,1,strong,40,86,1,0,0,response1disk,5,83,2,1,1,0,0,rectangle,2,1,1,0,0,0,0,0.001,2,1,1,0,0,0,82,82,82,1,0,,,,,,,,,,,,,,,,,,,,,
,,,,,,,,,,,,,,,,,,,,,,,,,,,,,,,,,,,,,,,,,,6061711f6ef8e3b652861dbf,606c0d3318f7ac0fe9c2c0f3,2021-04-06_09h28.39.055,Colour_Similarity_Experiment,2020.2.10,Win32,60,6067542a4a25243f4d7d4fcf,17.02446483,16.75109938,16.66561514,16.67741935,16.68433735,16.68433735,,,,,,,,,,,,,,,,,,,,PF,strong,3,,,,,,,,6,1.115,,,,,,,,,,,,,,,,,,,,,,,,,,,,5,strong,71,33,1,0,0,response1disk,8,84,1,0,1,0,0,rectangle,1,0,1,0,0,0,2,0.004,1,0,1,0,0,0,83,83,16,1,0,,,,,,,,,,,,,,,,,,,,,
,,,,,,,,,,,,,,,,,,,,,,,,,,,,,,,,,,,,,,,,,,6061711f6ef8e3b652861dbf,606c0d3318f7ac0fe9c2c0f3,2021-04-06_09h28.39.055,Colour_Similarity_Experiment,2020.2.10,Win32,60,6067542a4a25243f4d7d4fcf,17.02446483,16.75109938,16.66561514,16.67741935,16.68433735,16.68433735,,,,,,,,,,,,,,,,,,,,PF,weak,3,,,,,,,,6,1.934,,,,,,,,,,,,,,,,,,,,,,,,,,,,9,weak,78,30,1,0,0,response1disk,4,85,-5,-2,1,0,0,rectangle,-5,-2,1,0,0,0,1,0.002,-5,-2,1,0,0,0,84,84,114,1,0,,,,,,,,,,,,,,,,,,,,,
,,,,,,,,,,,,,,,,,,,,,,,,,,,,,,,,,,,,,,,,,,6061711f6ef8e3b652861dbf,606c0d3318f7ac0fe9c2c0f3,2021-04-06_09h28.39.055,Colour_Similarity_Experiment,2020.2.10,Win32,60,6067542a4a25243f4d7d4fcf,17.02446483,16.75109938,16.66561514,16.67741935,16.68433735,16.68433735,,,,,,,,,,,,,,,,,,,,PF,weak,3,,,,,,,,1,2,,,,,,,,,,,,,,,,,,,,,,,,,,,,8,weak,-95,34,1,0,0,response7disk,1,86,-2,1,1,0,0,rectangle,-2,1,1,0,0,0,3,0.003,-2,1,1,0,0,0,85,85,57,1,0,,,,,,,,,,,,,,,,,,,,,
,,,,,,,,,,,,,,,,,,,,,,,,,,,,,,,,,,,,,,,,,,6061711f6ef8e3b652861dbf,606c0d3318f7ac0fe9c2c0f3,2021-04-06_09h28.39.055,Colour_Similarity_Experiment,2020.2.10,Win32,60,6067542a4a25243f4d7d4fcf,17.02446483,16.75109938,16.66561514,16.67741935,16.68433735,16.68433735,,,,,,,,,,,,,,,,,,,,PF,strong,3,,,,,,,,3,1.367,,,,,,,,,,,,,,,,,,,,,,,,,,,,2,strong,-29,-58,1,0,0,response5disk,9,87,-2,0,1,0,0,rectangle,-2,0,1,0,0,0,5,0.002,-2,0,1,0,0,0,86,86,72,1,0,,,,,,,,,,,,,,,,,,,,,
,,,,,,,,,,,,,,,,,,,,,,,,,,,,,,,,,,,,,,,,,,6061711f6ef8e3b652861dbf,606c0d3318f7ac0fe9c2c0f3,2021-04-06_09h28.39.055,Colour_Similarity_Experiment,2020.2.10,Win32,60,6067542a4a25243f4d7d4fcf,17.02446483,16.75109938,16.66561514,16.67741935,16.68433735,16.68433735,,,,,,,,,,,,,,,,,,,,PF,weak,3,,,,,,,,5,1.217,,,,,,,,,,,,,,,,,,,,,,,,,,,,8,weak,94,-37,1,0,0,response3disk,3,88,-6,3,1,0,0,rectangle,-6,3,1,0,0,0,7,0.002,-6,3,1,0,0,0,87,87,71,1,0,,,,,,,,,,,,,,,,,,,,,
,,,,,,,,,,,,,,,,,,,,,,,,,,,,,,,,,,,,,,,,,,6061711f6ef8e3b652861dbf,606c0d3318f7ac0fe9c2c0f3,2021-04-06_09h28.39.055,Colour_Similarity_Experiment,2020.2.10,Win32,60,6067542a4a25243f4d7d4fcf,17.02446483,16.75109938,16.66561514,16.67741935,16.68433735,16.68433735,,,,,,,,,,,,,,,,,,,,PF,weak,3,,,,,,,,5,0.999,,,,,,,,,,,,,,,,,,,,,,,,,,,,7,weak,86,-39,1,0,0,response3disk,9,89,-6,0,1,0,0,rectangle,-6,0,1,0,0,0,3,0.002,-6,0,1,0,0,0,88,88,10,1,0,,,,,,,,,,,,,,,,,,,,,
,,,,,,,,,,,,,,,,,,,,,,,,,,,,,,,,,,,,,,,,,,6061711f6ef8e3b652861dbf,606c0d3318f7ac0fe9c2c0f3,2021-04-06_09h28.39.055,Colour_Similarity_Experiment,2020.2.10,Win32,60,6067542a4a25243f4d7d4fcf,17.02446483,16.75109938,16.66561514,16.67741935,16.68433735,16.68433735,,,,,,,,,,,,,,,,,,,,PF,strong,3,,,,,,,,4,1.168,,,,,,,,,,,,,,,,,,,,,,,,,,,,4,strong,37,-73,1,0,0,response3disk,8,90,0,-6,1,0,0,rectangle,0,-6,1,0,0,0,3,0,0,-6,1,0,0,0,89,89,35,1,0,,,,,,,,,,,,,,,,,,,,,
,,,,,,,,,,,,,,,,,,,,,,,,,,,,,,,,,,,,,,,,,,6061711f6ef8e3b652861dbf,606c0d3318f7ac0fe9c2c0f3,2021-04-06_09h28.39.055,Colour_Similarity_Experiment,2020.2.10,Win32,60,6067542a4a25243f4d7d4fcf,17.02446483,16.75109938,16.66561514,16.67741935,16.68433735,16.68433735,,,,,,,,,,,,,,,,,,,,PF,strong,3,,,,,,,,6,1.134,,,,,,,,,,,,,,,,,,,,,,,,,,,,2,strong,72,27,1,0,0,response1disk,1,91,-15,-2,1,0,0,rectangle,-15,-2,1,0,0,0,1,0.002,-15,-2,1,0,0,0,90,90,85,1,0,,,,,,,,,,,,,,,,,,,,,
,,,,,,,,,,,,,,,,,,,,,,,,,,,,,,,,,,,,,,,,,,6061711f6ef8e3b652861dbf,606c0d3318f7ac0fe9c2c0f3,2021-04-06_09h28.39.055,Colour_Similarity_Experiment,2020.2.10,Win32,60,6067542a4a25243f4d7d4fcf,17.02446483,16.75109938,16.66561514,16.67741935,16.68433735,16.68433735,,,,,,,,,,,,,,,,,,,,PF,strong,3,,,,,,,,5,3.117,,,,,,,,,,,,,,,,,,,,,,,,,,,,9,strong,61,-27,1,0,0,response3disk,4,92,0,2,1,0,0,rectangle,0,2,1,0,0,0,4,0.002,0,2,1,0,0,0,91,91,60,1,0,,,,,,,,,,,,,,,,,,,,,
,,,,,,,,,,,,,,,,,,,,,,,,,,,,,,,,,,,,,,,,,,6061711f6ef8e3b652861dbf,606c0d3318f7ac0fe9c2c0f3,2021-04-06_09h28.39.055,Colour_Similarity_Experiment,2020.2.10,Win32,60,6067542a4a25243f4d7d4fcf,17.02446483,16.75109938,16.66561514,16.67741935,16.68433735,16.68433735,,,,,,,,,,,,,,,,,,,,PF,strong,3,,,,,,,,0,1.416,,,,,,,,,,,,,,,,,,,,,,,,,,,,9,strong,-45,67,1,0,0,response7disk,1,93,-7,-4,1,0,0,rectangle,-7,-4,1,0,0,0,0,0.003,-7,-4,1,0,0,0,92,92,111,1,0,,,,,,,,,,,,,,,,,,,,,
,,,,,,,,,,,,,,,,,,,,,,,,,,,,,,,,,,,,,,,,,,6061711f6ef8e3b652861dbf,606c0d3318f7ac0fe9c2c0f3,2021-04-06_09h28.39.055,Colour_Similarity_Experiment,2020.2.10,Win32,60,6067542a4a25243f4d7d4fcf,17.02446483,16.75109938,16.66561514,16.67741935,16.68433735,16.68433735,,,,,,,,,,,,,,,,,,,,PF,strong,3,,,,,,,,0,0.833,,,,,,,,,,,,,,,,,,,,,,,,,,,,3,strong,-44,60,1,0,0,response7disk,3,94,-3,5,1,0,0,rectangle,-3,5,1,0,0,0,5,0.002,-3,5,1,0,0,0,93,93,68,1,0,,,,,,,,,,,,,,,,,,,,,
,,,,,,,,,,,,,,,,,,,,,,,,,,,,,,,,,,,,,,,,,,6061711f6ef8e3b652861dbf,606c0d3318f7ac0fe9c2c0f3,2021-04-06_09h28.39.055,Colour_Similarity_Experiment,2020.2.10,Win32,60,6067542a4a25243f4d7d4fcf,17.02446483,16.75109938,16.66561514,16.67741935,16.68433735,16.68433735,,,,,,,,,,,,,,,,,,,,PF,weak,3,,,,,,,,0,0.782,,,,,,,,,,,,,,,,,,,,,,,,,,,,8,weak,-29,64,1,0,0,response7disk,8,95,-3,1,1,0,0,rectangle,-3,1,1,0,0,0,1,0.002,-3,1,1,0,0,0,94,94,153,1,0,,,,,,,,,,,,,,,,,,,,,
,,,,,,,,,,,,,,,,,,,,,,,,,,,,,,,,,,,,,,,,,,6061711f6ef8e3b652861dbf,606c0d3318f7ac0fe9c2c0f3,2021-04-06_09h28.39.055,Colour_Similarity_Experiment,2020.2.10,Win32,60,6067542a4a25243f4d7d4fcf,17.02446483,16.75109938,16.66561514,16.67741935,16.68433735,16.68433735,,,,,,,,,,,,,,,,,,,,PF,strong,3,,,,,,,,5,2.017,,,,,,,,,,,,,,,,,,,,,,,,,,,,8,strong,77,-39,1,0,0,response3disk,3,96,-1,0,1,0,0,rectangle,-1,0,1,0,0,0,1,0,-1,0,1,0,0,0,95,95,154,1,0,,,,,,,,,,,,,,,,,,,,,
,,,,,,,,,,,,,,,,,,,,,,,,,,,,,,,,,,,,,,,,,,6061711f6ef8e3b652861dbf,606c0d3318f7ac0fe9c2c0f3,2021-04-06_09h28.39.055,Colour_Similarity_Experiment,2020.2.10,Win32,60,6067542a4a25243f4d7d4fcf,17.02446483,16.75109938,16.66561514,16.67741935,16.68433735,16.68433735,,,,,,,,,,,,,,,,,,,,PF,strong,3,,,,,,,,6,1.649,,,,,,,,,,,,,,,,,,,,,,,,,,,,8,strong,87,47,1,0,0,response1disk,7,97,-3,-4,1,0,0,rectangle,-3,-4,1,0,0,0,1,0,-3,-4,1,0,0,0,96,96,86,1,0,,,,,,,,,,,,,,,,,,,,,
,,,,,,,,,,,,,,,,,,,,,,,,,,,,,,,,,,,,,,,,,,6061711f6ef8e3b652861dbf,606c0d3318f7ac0fe9c2c0f3,2021-04-06_09h28.39.055,Colour_Similarity_Experiment,2020.2.10,Win32,60,6067542a4a25243f4d7d4fcf,17.02446483,16.75109938,16.66561514,16.67741935,16.68433735,16.68433735,,,,,,,,,,,,,,,,,,,,PF,strong,3,,,,,,,,5,1.299,,,,,,,,,,,,,,,,,,,,,,,,,,,,3,strong,75,-31,1,0,0,response3disk,9,98,2,0,1,0,0,rectangle,2,0,1,0,0,0,1,0,2,0,1,0,0,0,97,97,143,1,0,,,,,,,,,,,,,,,,,,,,,
,,,,,,,,,,,,,,,,,,,,,,,,,,,,,,,,,,,,,,,,,,6061711f6ef8e3b652861dbf,606c0d3318f7ac0fe9c2c0f3,2021-04-06_09h28.39.055,Colour_Similarity_Experiment,2020.2.10,Win32,60,6067542a4a25243f4d7d4fcf,17.02446483,16.75109938,16.66561514,16.67741935,16.68433735,16.68433735,,,,,,,,,,,,,,,,,,,,PF,strong,3,,,,,,,,3,1.383,,,,,,,,,,,,,,,,,,,,,,,,,,,,4,strong,-41,-69,1,0,0,response5disk,6,99,4,3,1,0,0,rectangle,4,3,1,0,0,0,1,0,4,3,1,0,0,0,98,98,122,1,0,,,,,,,,,,,,,,,,,,,,,
,,,,,,,,,,,,,,,,,,,,,,,,,,,,,,,,,,,,,,,,,,6061711f6ef8e3b652861dbf,606c0d3318f7ac0fe9c2c0f3,2021-04-06_09h28.39.055,Colour_Similarity_Experiment,2020.2.10,Win32,60,6067542a4a25243f4d7d4fcf,17.02446483,16.75109938,16.66561514,16.67741935,16.68433735,16.68433735,,,,,,,,,,,,,,,,,,,,PF,strong,3,,,,,,,,0,0.949,,,,,,,,,,,,,,,,,,,,,,,,,,,,6,strong,-32,70,1,0,0,response7disk,6,100,-3,-4,1,0,0,rectangle,-3,-4,1,0,0,0,2,0.003,-3,-4,1,0,0,0,99,99,91,1,0,,,,,,,,,,,,,,,,,,,,,
,,,,,,,,,,,,,,,,,,,,,,,,,,,,,,,,,,,,,,,,,,6061711f6ef8e3b652861dbf,606c0d3318f7ac0fe9c2c0f3,2021-04-06_09h28.39.055,Colour_Similarity_Experiment,2020.2.10,Win32,60,6067542a4a25243f4d7d4fcf,17.02446483,16.75109938,16.66561514,16.67741935,16.68433735,16.68433735,,,,,,,,,,,,,,,,,,,,PF,strong,3,,,,,,,,4,1.65,,,,,,,,,,,,,,,,,,,,,,,,,,,,4,strong,40,-70,1,0,0,response3disk,3,101,-2,-3,1,0,0,rectangle,-2,-3,1,0,0,0,4,0.003,-2,-3,1,0,0,0,100,100,77,1,0,,,,,,,,,,,,,,,,,,,,,
,,,,,,,,,,,,,,,,,,,,,,,,,,,,,,,,,,,,,,,,,,6061711f6ef8e3b652861dbf,606c0d3318f7ac0fe9c2c0f3,2021-04-06_09h28.39.055,Colour_Similarity_Experiment,2020.2.10,Win32,60,6067542a4a25243f4d7d4fcf,17.02446483,16.75109938,16.66561514,16.67741935,16.68433735,16.68433735,,,,,,,,,,,,,,,,,,,,PF,weak,3,,,,,,,,5,2.45,,,,,,,,,,,,,,,,,,,,,,,,,,,,2,weak,63,-33,1,0,0,response3disk,5,102,-1,-2,1,0,0,rectangle,-1,-2,1,0,0,0,4,0,-1,-2,1,0,0,0,101,101,147,1,0,,,,,,,,,,,,,,,,,,,,,
,,,,,,,,,,,,,,,,,,,,,,,,,,,,,,,,,,,,,,,,,,6061711f6ef8e3b652861dbf,606c0d3318f7ac0fe9c2c0f3,2021-04-06_09h28.39.055,Colour_Similarity_Experiment,2020.2.10,Win32,60,6067542a4a25243f4d7d4fcf,17.02446483,16.75109938,16.66561514,16.67741935,16.68433735,16.68433735,,,,,,,,,,,,,,,,,,,,PF,strong,3,,,,,,,,5,1.367,,,,,,,,,,,,,,,,,,,,,,,,,,,,6,strong,87,-45,1,0,0,response3disk,2,103,-8,-3,1,0,0,rectangle,-8,-3,1,0,0,0,5,0.002,-8,-3,1,0,0,0,102,102,112,1,0,,,,,,,,,,,,,,,,,,,,,
,,,,,,,,,,,,,,,,,,,,,,,,,,,,,,,,,,,,,,,,,,6061711f6ef8e3b652861dbf,606c0d3318f7ac0fe9c2c0f3,2021-04-06_09h28.39.055,Colour_Similarity_Experiment,2020.2.10,Win32,60,6067542a4a25243f4d7d4fcf,17.02446483,16.75109938,16.66561514,16.67741935,16.68433735,16.68433735,,,,,,,,,,,,,,,,,,,,PF,weak,3,,,,,,,,2,3.932,,,,,,,,,,,,,,,,,,,,,,,,,,,,1,weak,-84,-32,1,0,0,response5disk,5,104,-4,-2,1,0,0,rectangle,-4,-2,1,0,0,0,3,0.002,-4,-2,1,0,0,0,103,103,28,1,0,,,,,,,,,,,,,,,,,,,,,
,,,,,,,,,,,,,,,,,,,,,,,,,,,,,,,,,,,,,,,,,,6061711f6ef8e3b652861dbf,606c0d3318f7ac0fe9c2c0f3,2021-04-06_09h28.39.055,Colour_Similarity_Experiment,2020.2.10,Win32,60,6067542a4a25243f4d7d4fcf,17.02446483,16.75109938,16.66561514,16.67741935,16.68433735,16.68433735,,,,,,,,,,,,,,,,,,,,PF,strong,3,,,,,,,,5,1.333,,,,,,,,,,,,,,,,,,,,,,,,,,,,5,strong,90,-23,1,0,0,response3disk,3,105,1,-1,1,0,0,rectangle,1,-1,1,0,0,0,2,0.001,1,-1,1,0,0,0,104,104,25,1,0,,,,,,,,,,,,,,,,,,,,,
,,,,,,,,,,,,,,,,,,,,,,,,,,,,,,,,,,,,,,,,,,6061711f6ef8e3b652861dbf,606c0d3318f7ac0fe9c2c0f3,2021-04-06_09h28.39.055,Colour_Similarity_Experiment,2020.2.10,Win32,60,6067542a4a25243f4d7d4fcf,17.02446483,16.75109938,16.66561514,16.67741935,16.68433735,16.68433735,,,,,,,,,,,,,,,,,,,,PF,strong,3,,,,,,,,0,1.084,,,,,,,,,,,,,,,,,,,,,,,,,,,,1,strong,-43,71,1,0,0,response7disk,1,106,-4,3,1,0,0,rectangle,-4,3,1,0,0,0,6,0.002,-4,3,1,0,0,0,105,105,151,1,0,,,,,,,,,,,,,,,,,,,,,
,,,,,,,,,,,,,,,,,,,,,,,,,,,,,,,,,,,,,,,,,,6061711f6ef8e3b652861dbf,606c0d3318f7ac0fe9c2c0f3,2021-04-06_09h28.39.055,Colour_Similarity_Experiment,2020.2.10,Win32,60,6067542a4a25243f4d7d4fcf,17.02446483,16.75109938,16.66561514,16.67741935,16.68433735,16.68433735,,,,,,,,,,,,,,,,,,,,PF,weak,3,,,,,,,,3,1.583,,,,,,,,,,,,,,,,,,,,,,,,,,,,7,weak,-32,-71,1,0,0,response5disk,4,107,-2,4,1,0,0,rectangle,-2,4,1,0,0,0,1,0.002,-2,4,1,0,0,0,106,106,43,1,0,,,,,,,,,,,,,,,,,,,,,
,,,,,,,,,,,,,,,,,,,,,,,,,,,,,,,,,,,,,,,,,,6061711f6ef8e3b652861dbf,606c0d3318f7ac0fe9c2c0f3,2021-04-06_09h28.39.055,Colour_Similarity_Experiment,2020.2.10,Win32,60,6067542a4a25243f4d7d4fcf,17.02446483,16.75109938,16.66561514,16.67741935,16.68433735,16.68433735,,,,,,,,,,,,,,,,,,,,PF,strong,3,,,,,,,,7,1.05,,,,,,,,,,,,,,,,,,,,,,,,,,,,7,strong,32,79,1,0,0,response1disk,1,108,-8,2,1,0,0,rectangle,-8,2,1,0,0,0,3,0.001,-8,2,1,0,0,0,107,107,132,1,0,,,,,,,,,,,,,,,,,,,,,
,,,,,,,,,,,,,,,,,,,,,,,,,,,,,,,,,,,,,,,,,,6061711f6ef8e3b652861dbf,606c0d3318f7ac0fe9c2c0f3,2021-04-06_09h28.39.055,Colour_Similarity_Experiment,2020.2.10,Win32,60,6067542a4a25243f4d7d4fcf,17.02446483,16.75109938,16.66561514,16.67741935,16.68433735,16.68433735,,,,,,,,,,,,,,,,,,,,PF,strong,3,,,,,,,,6,2.217,,,,,,,,,,,,,,,,,,,,,,,,,,,,5,strong,74,32,1,0,0,response1disk,1,109,-4,3,1,0,0,rectangle,-4,3,1,0,0,0,0,0.002,-4,3,1,0,0,0,108,108,131,1,0,,,,,,,,,,,,,,,,,,,,,
,,,,,,,,,,,,,,,,,,,,,,,,,,,,,,,,,,,,,,,,,,6061711f6ef8e3b652861dbf,606c0d3318f7ac0fe9c2c0f3,2021-04-06_09h28.39.055,Colour_Similarity_Experiment,2020.2.10,Win32,60,6067542a4a25243f4d7d4fcf,17.02446483,16.75109938,16.66561514,16.67741935,16.68433735,16.68433735,,,,,,,,,,,,,,,,,,,,PF,strong,3,,,,,,,,3,1.333,,,,,,,,,,,,,,,,,,,,,,,,,,,,6,strong,-37,-75,1,0,0,response5disk,4,110,-2,0,1,0,0,rectangle,-2,0,1,0,0,0,2,0.002,-2,0,1,0,0,0,109,109,56,1,0,,,,,,,,,,,,,,,,,,,,,
,,,,,,,,,,,,,,,,,,,,,,,,,,,,,,,,,,,,,,,,,,6061711f6ef8e3b652861dbf,606c0d3318f7ac0fe9c2c0f3,2021-04-06_09h28.39.055,Colour_Similarity_Experiment,2020.2.10,Win32,60,6067542a4a25243f4d7d4fcf,17.02446483,16.75109938,16.66561514,16.67741935,16.68433735,16.68433735,,,,,,,,,,,,,,,,,,,,PF,strong,3,,,,,,,,4,3.765,,,,,,,,,,,,,,,,,,,,,,,,,,,,8,strong,28,-92,1,0,0,response3disk,6,111,-3,0,1,0,0,rectangle,-3,0,1,0,0,0,1,0.002,-3,0,1,0,0,0,110,110,37,1,0,,,,,,,,,,,,,,,,,,,,,
,,,,,,,,,,,,,,,,,,,,,,,,,,,,,,,,,,,,,,,,,,6061711f6ef8e3b652861dbf,606c0d3318f7ac0fe9c2c0f3,2021-04-06_09h28.39.055,Colour_Similarity_Experiment,2020.2.10,Win32,60,6067542a4a25243f4d7d4fcf,17.02446483,16.75109938,16.66561514,16.67741935,16.68433735,16.68433735,,,,,,,,,,,,,,,,,,,,PF,strong,3,,,,,,,,4,1.85,,,,,,,,,,,,,,,,,,,,,,,,,,,,4,strong,42,-72,1,0,0,response3disk,7,112,2,-3,1,0,0,rectangle,2,-3,1,0,0,0,3,0.002,2,-3,1,0,0,0,111,111,87,1,0,,,,,,,,,,,,,,,,,,,,,
,,,,,,,,,,,,,,,,,,,,,,,,,,,,,,,,,,,,,,,,,,6061711f6ef8e3b652861dbf,606c0d3318f7ac0fe9c2c0f3,2021-04-06_09h28.39.055,Colour_Similarity_Experiment,2020.2.10,Win32,60,6067542a4a25243f4d7d4fcf,17.02446483,16.75109938,16.66561514,16.67741935,16.68433735,16.68433735,,,,,,,,,,,,,,,,,,,,PF,weak,3,,,,,,,,2,1.868,,,,,,,,,,,,,,,,,,,,,,,,,,,,5,weak,-84,-35,1,0,0,response5disk,5,113,-3,-1,1,0,0,rectangle,-3,-1,1,0,0,0,0,0.002,-3,-1,1,0,0,0,112,112,94,1,0,,,,,,,,,,,,,,,,,,,,,
,,,,,,,,,,,,,,,,,,,,,,,,,,,,,,,,,,,,,,,,,,6061711f6ef8e3b652861dbf,606c0d3318f7ac0fe9c2c0f3,2021-04-06_09h28.39.055,Colour_Similarity_Experiment,2020.2.10,Win32,60,6067542a4a25243f4d7d4fcf,17.02446483,16.75109938,16.66561514,16.67741935,16.68433735,16.68433735,,,,,,,,,,,,,,,,,,,,PF,strong,3,,,,,,,,5,1.6,,,,,,,,,,,,,,,,,,,,,,,,,,,,7,strong,70,-40,1,0,0,response3disk,2,114,-6,1,1,0,0,rectangle,-6,1,1,0,0,0,3,0.002,-6,1,1,0,0,0,113,113,138,1,0,,,,,,,,,,,,,,,,,,,,,
,,,,,,,,,,,,,,,,,,,,,,,,,,,,,,,,,,,,,,,,,,6061711f6ef8e3b652861dbf,606c0d3318f7ac0fe9c2c0f3,2021-04-06_09h28.39.055,Colour_Similarity_Experiment,2020.2.10,Win32,60,6067542a4a25243f4d7d4fcf,17.02446483,16.75109938,16.66561514,16.67741935,16.68433735,16.68433735,,,,,,,,,,,,,,,,,,,,PF,weak,3,,,,,,,,6,2.95,,,,,,,,,,,,,,,,,,,,,,,,,,,,6,weak,65,28,1,0,0,response1disk,1,115,-2,2,1,0,0,rectangle,-2,2,1,0,0,0,0,0.002,-2,2,1,0,0,0,114,114,46,1,0,,,,,,,,,,,,,,,,,,,,,
,,,,,,,,,,,,,,,,,,,,,,,,,,,,,,,,,,,,,,,,,,6061711f6ef8e3b652861dbf,606c0d3318f7ac0fe9c2c0f3,2021-04-06_09h28.39.055,Colour_Similarity_Experiment,2020.2.10,Win32,60,6067542a4a25243f4d7d4fcf,17.02446483,16.75109938,16.66561514,16.67741935,16.68433735,16.68433735,,,,,,,,,,,,,,,,,,,,PF,weak,3,,,,,,,,2,1.55,,,,,,,,,,,,,,,,,,,,,,,,,,,,5,weak,-65,-32,1,0,0,response5disk,4,116,3,-1,1,0,0,rectangle,3,-1,1,0,0,0,2,0.002,3,-1,1,0,0,0,115,115,54,1,0,,,,,,,,,,,,,,,,,,,,,
,,,,,,,,,,,,,,,,,,,,,,,,,,,,,,,,,,,,,,,,,,6061711f6ef8e3b652861dbf,606c0d3318f7ac0fe9c2c0f3,2021-04-06_09h28.39.055,Colour_Similarity_Experiment,2020.2.10,Win32,60,6067542a4a25243f4d7d4fcf,17.02446483,16.75109938,16.66561514,16.67741935,16.68433735,16.68433735,,,,,,,,,,,,,,,,,,,,PF,weak,3,,,,,,,,5,1.333,,,,,,,,,,,,,,,,,,,,,,,,,,,,4,weak,78,-40,1,0,0,response3disk,2,117,-2,0,1,0,0,rectangle,-2,0,1,0,0,0,2,0.001,-2,0,1,0,0,0,116,116,108,1,0,,,,,,,,,,,,,,,,,,,,,
,,,,,,,,,,,,,,,,,,,,,,,,,,,,,,,,,,,,,,,,,,6061711f6ef8e3b652861dbf,606c0d3318f7ac0fe9c2c0f3,2021-04-06_09h28.39.055,Colour_Similarity_Experiment,2020.2.10,Win32,60,6067542a4a25243f4d7d4fcf,17.02446483,16.75109938,16.66561514,16.67741935,16.68433735,16.68433735,,,,,,,,,,,,,,,,,,,,PF,weak,3,,,,,,,,5,1.017,,,,,,,,,,,,,,,,,,,,,,,,,,,,5,weak,85,-38,1,0,0,response3disk,2,118,-2,1,1,0,0,rectangle,-2,1,1,0,0,0,4,0.002,-2,1,1,0,0,0,117,117,129,1,0,,,,,,,,,,,,,,,,,,,,,
,,,,,,,,,,,,,,,,,,,,,,,,,,,,,,,,,,,,,,,,,,6061711f6ef8e3b652861dbf,606c0d3318f7ac0fe9c2c0f3,2021-04-06_09h28.39.055,Colour_Similarity_Experiment,2020.2.10,Win32,60,6067542a4a25243f4d7d4fcf,17.02446483,16.75109938,16.66561514,16.67741935,16.68433735,16.68433735,,,,,,,,,,,,,,,,,,,,PF,weak,3,,,,,,,,4,1.383,,,,,,,,,,,,,,,,,,,,,,,,,,,,5,weak,49,-74,1,0,0,response3disk,3,119,3,0,1,0,0,rectangle,3,0,1,0,0,0,4,0.001,3,0,1,0,0,0,118,118,109,1,0,,,,,,,,,,,,,,,,,,,,,
,,,,,,,,,,,,,,,,,,,,,,,,,,,,,,,,,,,,,,,,,,6061711f6ef8e3b652861dbf,606c0d3318f7ac0fe9c2c0f3,2021-04-06_09h28.39.055,Colour_Similarity_Experiment,2020.2.10,Win32,60,6067542a4a25243f4d7d4fcf,17.02446483,16.75109938,16.66561514,16.67741935,16.68433735,16.68433735,,,,,,,,,,,,,,,,,,,,PF,strong,3,,,,,,,,3,1.815,,,,,,,,,,,,,,,,,,,,,,,,,,,,9,strong,-43,-73,1,0,0,response5disk,8,120,3,-2,1,0,0,rectangle,3,-2,1,0,0,0,0,0.001,3,-2,1,0,0,0,119,119,6,1,0,,,,,,,,,,,,,,,,,,,,,
,,,,,,,,,,,,,,,,,,,,,,,,,,,,,,,,,,,,,,,,,,6061711f6ef8e3b652861dbf,606c0d3318f7ac0fe9c2c0f3,2021-04-06_09h28.39.055,Colour_Similarity_Experiment,2020.2.10,Win32,60,6067542a4a25243f4d7d4fcf,17.02446483,16.75109938,16.66561514,16.67741935,16.68433735,16.68433735,,,,,,,,,,,,,,,,,,,,PF,strong,3,,,,,,,,5,0.999,,,,,,,,,,,,,,,,,,,,,,,,,,,,2,strong,77,-37,1,0,0,response3disk,5,121,-3,1,1,0,0,rectangle,-3,1,1,0,0,0,0,0.001,-3,1,1,0,0,0,120,120,80,1,0,,,,,,,,,,,,,,,,,,,,,
,,,,,,,,,,,,,,,,,,,,,,,,,,,,,,,,,,,,,,,,,,6061711f6ef8e3b652861dbf,606c0d3318f7ac0fe9c2c0f3,2021-04-06_09h28.39.055,Colour_Similarity_Experiment,2020.2.10,Win32,60,6067542a4a25243f4d7d4fcf,17.02446483,16.75109938,16.66561514,16.67741935,16.68433735,16.68433735,,,,,,,,,,,,,,,,,,,,PF,weak,3,,,,,,,,5,1.749,,,,,,,,,,,,,,,,,,,,,,,,,,,,3,weak,77,-32,1,0,0,response3disk,5,122,-2,1,1,0,0,rectangle,-2,1,1,0,0,0,1,0.003,-2,1,1,0,0,0,121,121,66,1,0,,,,,,,,,,,,,,,,,,,,,
,,,,,,,,,,,,,,,,,,,,,,,,,,,,,,,,,,,,,,,,,,6061711f6ef8e3b652861dbf,606c0d3318f7ac0fe9c2c0f3,2021-04-06_09h28.39.055,Colour_Similarity_Experiment,2020.2.10,Win32,60,6067542a4a25243f4d7d4fcf,17.02446483,16.75109938,16.66561514,16.67741935,16.68433735,16.68433735,,,,,,,,,,,,,,,,,,,,PF,strong,3,,,,,,,,2,1.483,,,,,,,,,,,,,,,,,,,,,,,,,,,,8,strong,-57,-37,1,0,0,response5disk,1,123,7,-5,1,0,0,rectangle,7,-5,1,0,0,0,3,0.002,7,-5,1,0,0,0,122,122,20,1,0,,,,,,,,,,,,,,,,,,,,,
,,,,,,,,,,,,,,,,,,,,,,,,,,,,,,,,,,,,,,,,,,6061711f6ef8e3b652861dbf,606c0d3318f7ac0fe9c2c0f3,2021-04-06_09h28.39.055,Colour_Similarity_Experiment,2020.2.10,Win32,60,6067542a4a25243f4d7d4fcf,17.02446483,16.75109938,16.66561514,16.67741935,16.68433735,16.68433735,,,,,,,,,,,,,,,,,,,,PF,strong,3,,,,,,,,5,1.718,,,,,,,,,,,,,,,,,,,,,,,,,,,,3,strong,97,-32,1,0,0,response3disk,7,124,-2,-3,1,0,0,rectangle,-2,-3,1,0,0,0,3,0.001,-2,-3,1,0,0,0,123,123,118,1,0,,,,,,,,,,,,,,,,,,,,,
,,,,,,,,,,,,,,,,,,,,,,,,,,,,,,,,,,,,,,,,,,6061711f6ef8e3b652861dbf,606c0d3318f7ac0fe9c2c0f3,2021-04-06_09h28.39.055,Colour_Similarity_Experiment,2020.2.10,Win32,60,6067542a4a25243f4d7d4fcf,17.02446483,16.75109938,16.66561514,16.67741935,16.68433735,16.68433735,,,,,,,,,,,,,,,,,,,,PF,strong,3,,,,,,,,2,1.966,,,,,,,,,,,,,,,,,,,,,,,,,,,,1,strong,-66,-31,1,0,0,response5disk,2,125,6,-1,1,0,0,rectangle,6,-1,1,0,0,0,7,0.002,6,-1,1,0,0,0,124,124,2,1,0,,,,,,,,,,,,,,,,,,,,,
,,,,,,,,,,,,,,,,,,,,,,,,,,,,,,,,,,,,,,,,,,6061711f6ef8e3b652861dbf,606c0d3318f7ac0fe9c2c0f3,2021-04-06_09h28.39.055,Colour_Similarity_Experiment,2020.2.10,Win32,60,6067542a4a25243f4d7d4fcf,17.02446483,16.75109938,16.66561514,16.67741935,16.68433735,16.68433735,,,,,,,,,,,,,,,,,,,,PF,weak,3,,,,,,,,6,1.583,,,,,,,,,,,,,,,,,,,,,,,,,,,,3,weak,64,39,1,0,0,response1disk,4,126,-3,2,1,0,0,rectangle,-3,2,1,0,0,0,7,0.001,-3,2,1,0,0,0,125,125,30,1,0,,,,,,,,,,,,,,,,,,,,,
,,,,,,,,,,,,,,,,,,,,,,,,,,,,,,,,,,,,,,,,,,6061711f6ef8e3b652861dbf,606c0d3318f7ac0fe9c2c0f3,2021-04-06_09h28.39.055,Colour_Similarity_Experiment,2020.2.10,Win32,60,6067542a4a25243f4d7d4fcf,17.02446483,16.75109938,16.66561514,16.67741935,16.68433735,16.68433735,,,,,,,,,,,,,,,,,,,,PF,weak,3,,,,,,,,2,1.533,,,,,,,,,,,,,,,,,,,,,,,,,,,,9,weak,-78,-31,1,0,0,response5disk,1,127,-5,-7,1,0,0,rectangle,-5,-7,1,0,0,0,1,0.002,-5,-7,1,0,0,0,126,126,74,1,0,,,,,,,,,,,,,,,,,,,,,
,,,,,,,,,,,,,,,,,,,,,,,,,,,,,,,,,,,,,,,,,,6061711f6ef8e3b652861dbf,606c0d3318f7ac0fe9c2c0f3,2021-04-06_09h28.39.055,Colour_Similarity_Experiment,2020.2.10,Win32,60,6067542a4a25243f4d7d4fcf,17.02446483,16.75109938,16.66561514,16.67741935,16.68433735,16.68433735,,,,,,,,,,,,,,,,,,,,PF,strong,3,,,,,,,,7,1.248,,,,,,,,,,,,,,,,,,,,,,,,,,,,9,strong,48,80,1,0,0,response1disk,7,128,3,0,1,0,0,rectangle,3,0,1,0,0,0,3,0.001,3,0,1,0,0,0,127,127,100,1,0,,,,,,,,,,,,,,,,,,,,,
,,,,,,,,,,,,,,,,,,,,,,,,,,,,,,,,,,,,,,,,,,6061711f6ef8e3b652861dbf,606c0d3318f7ac0fe9c2c0f3,2021-04-06_09h28.39.055,Colour_Similarity_Experiment,2020.2.10,Win32,60,6067542a4a25243f4d7d4fcf,17.02446483,16.75109938,16.66561514,16.67741935,16.68433735,16.68433735,,,,,,,,,,,,,,,,,,,,PF,strong,3,,,,,,,,0,1.067,,,,,,,,,,,,,,,,,,,,,,,,,,,,3,strong,-41,70,1,0,0,response7disk,2,129,-1,2,1,0,0,rectangle,-1,2,1,0,0,0,6,0.002,-1,2,1,0,0,0,128,128,93,1,0,,,,,,,,,,,,,,,,,,,,,
,,,,,,,,,,,,,,,,,,,,,,,,,,,,,,,,,,,,,,,,,,6061711f6ef8e3b652861dbf,606c0d3318f7ac0fe9c2c0f3,2021-04-06_09h28.39.055,Colour_Similarity_Experiment,2020.2.10,Win32,60,6067542a4a25243f4d7d4fcf,17.02446483,16.75109938,16.66561514,16.67741935,16.68433735,16.68433735,,,,,,,,,,,,,,,,,,,,PF,strong,3,,,,,,,,7,1.116,,,,,,,,,,,,,,,,,,,,,,,,,,,,1,strong,28,74,1,0,0,response1disk,6,130,-4,2,1,0,0,rectangle,-4,2,1,0,0,0,1,0.001,-4,2,1,0,0,0,129,129,58,1,0,,,,,,,,,,,,,,,,,,,,,
,,,,,,,,,,,,,,,,,,,,,,,,,,,,,,,,,,,,,,,,,,6061711f6ef8e3b652861dbf,606c0d3318f7ac0fe9c2c0f3,2021-04-06_09h28.39.055,Colour_Similarity_Experiment,2020.2.10,Win32,60,6067542a4a25243f4d7d4fcf,17.02446483,16.75109938,16.66561514,16.67741935,16.68433735,16.68433735,,,,,,,,,,,,,,,,,,,,PF,strong,3,,,,,,,,4,1.483,,,,,,,,,,,,,,,,,,,,,,,,,,,,6,strong,29,-64,1,0,0,response3disk,3,131,-5,-1,1,0,0,rectangle,-5,-1,1,0,0,0,1,0,-5,-1,1,0,0,0,130,130,21,1,0,,,,,,,,,,,,,,,,,,,,,
,,,,,,,,,,,,,,,,,,,,,,,,,,,,,,,,,,,,,,,,,,6061711f6ef8e3b652861dbf,606c0d3318f7ac0fe9c2c0f3,2021-04-06_09h28.39.055,Colour_Similarity_Experiment,2020.2.10,Win32,60,6067542a4a25243f4d7d4fcf,17.02446483,16.75109938,16.66561514,16.67741935,16.68433735,16.68433735,,,,,,,,,,,,,,,,,,,,PF,weak,3,,,,,,,,2,1.666,,,,,,,,,,,,,,,,,,,,,,,,,,,,1,weak,-62,-36,1,0,0,response5disk,2,132,-3,-7,1,0,0,rectangle,-3,-7,1,0,0,0,3,0.002,-3,-7,1,0,0,0,131,131,24,1,0,,,,,,,,,,,,,,,,,,,,,
,,,,,,,,,,,,,,,,,,,,,,,,,,,,,,,,,,,,,,,,,,6061711f6ef8e3b652861dbf,606c0d3318f7ac0fe9c2c0f3,2021-04-06_09h28.39.055,Colour_Similarity_Experiment,2020.2.10,Win32,60,6067542a4a25243f4d7d4fcf,17.02446483,16.75109938,16.66561514,16.67741935,16.68433735,16.68433735,,,,,,,,,,,,,,,,,,,,PF,strong,3,,,,,,,,3,1.7,,,,,,,,,,,,,,,,,,,,,,,,,,,,7,strong,-38,-63,1,0,0,response5disk,6,133,-7,4,1,0,0,rectangle,-7,4,1,0,0,0,4,0.003,-7,4,1,0,0,0,132,132,31,1,0,,,,,,,,,,,,,,,,,,,,,
,,,,,,,,,,,,,,,,,,,,,,,,,,,,,,,,,,,,,,,,,,6061711f6ef8e3b652861dbf,606c0d3318f7ac0fe9c2c0f3,2021-04-06_09h28.39.055,Colour_Similarity_Experiment,2020.2.10,Win32,60,6067542a4a25243f4d7d4fcf,17.02446483,16.75109938,16.66561514,16.67741935,16.68433735,16.68433735,,,,,,,,,,,,,,,,,,,,PF,weak,3,,,,,,,,5,1.883,,,,,,,,,,,,,,,,,,,,,,,,,,,,6,weak,82,-51,1,0,0,response3disk,8,134,0,-3,1,0,0,rectangle,0,-3,1,0,0,0,1,0.002,0,-3,1,0,0,0,133,133,64,1,0,,,,,,,,,,,,,,,,,,,,,
,,,,,,,,,,,,,,,,,,,,,,,,,,,,,,,,,,,,,,,,,,6061711f6ef8e3b652861dbf,606c0d3318f7ac0fe9c2c0f3,2021-04-06_09h28.39.055,Colour_Similarity_Experiment,2020.2.10,Win32,60,6067542a4a25243f4d7d4fcf,17.02446483,16.75109938,16.66561514,16.67741935,16.68433735,16.68433735,,,,,,,,,,,,,,,,,,,,PF,strong,3,,,,,,,,4,1.633,,,,,,,,,,,,,,,,,,,,,,,,,,,,3,strong,37,-65,1,0,0,response3disk,5,135,-2,-1,1,0,0,rectangle,-2,-1,1,0,0,0,2,0.002,-2,-1,1,0,0,0,134,134,101,1,0,,,,,,,,,,,,,,,,,,,,,
,,,,,,,,,,,,,,,,,,,,,,,,,,,,,,,,,,,,,,,,,,6061711f6ef8e3b652861dbf,606c0d3318f7ac0fe9c2c0f3,2021-04-06_09h28.39.055,Colour_Similarity_Experiment,2020.2.10,Win32,60,6067542a4a25243f4d7d4fcf,17.02446483,16.75109938,16.66561514,16.67741935,16.68433735,16.68433735,,,,,,,,,,,,,,,,,,,,PF,strong,3,,,,,,,,6,2.699,,,,,,,,,,,,,,,,,,,,,,,,,,,,2,strong,82,33,1,0,0,response1disk,7,136,-10,-4,1,0,0,rectangle,-10,-4,1,0,0,0,7,0.001,-10,-4,1,0,0,0,135,135,63,1,0,,,,,,,,,,,,,,,,,,,,,
,,,,,,,,,,,,,,,,,,,,,,,,,,,,,,,,,,,,,,,,,,6061711f6ef8e3b652861dbf,606c0d3318f7ac0fe9c2c0f3,2021-04-06_09h28.39.055,Colour_Similarity_Experiment,2020.2.10,Win32,60,6067542a4a25243f4d7d4fcf,17.02446483,16.75109938,16.66561514,16.67741935,16.68433735,16.68433735,,,,,,,,,,,,,,,,,,,,PF,weak,3,,,,,,,,5,1.483,,,,,,,,,,,,,,,,,,,,,,,,,,,,1,weak,67,-45,1,0,0,response3disk,3,137,-2,-6,1,0,0,rectangle,-2,-6,1,0,0,0,4,0.002,-2,-6,1,0,0,0,136,136,1,1,0,,,,,,,,,,,,,,,,,,,,,
,,,,,,,,,,,,,,,,,,,,,,,,,,,,,,,,,,,,,,,,,,6061711f6ef8e3b652861dbf,606c0d3318f7ac0fe9c2c0f3,2021-04-06_09h28.39.055,Colour_Similarity_Experiment,2020.2.10,Win32,60,6067542a4a25243f4d7d4fcf,17.02446483,16.75109938,16.66561514,16.67741935,16.68433735,16.68433735,,,,,,,,,,,,,,,,,,,,PF,weak,3,,,,,,,,2,1.566,,,,,,,,,,,,,,,,,,,,,,,,,,,,2,weak,-85,-33,1,0,0,response5disk,3,138,-2,-2,1,0,0,rectangle,-2,-2,1,0,0,0,5,0.002,-2,-2,1,0,0,0,137,137,69,1,0,,,,,,,,,,,,,,,,,,,,,
,,,,,,,,,,,,,,,,,,,,,,,,,,,,,,,,,,,,,,,,,,6061711f6ef8e3b652861dbf,606c0d3318f7ac0fe9c2c0f3,2021-04-06_09h28.39.055,Colour_Similarity_Experiment,2020.2.10,Win32,60,6067542a4a25243f4d7d4fcf,17.02446483,16.75109938,16.66561514,16.67741935,16.68433735,16.68433735,,,,,,,,,,,,,,,,,,,,PF,strong,3,,,,,,,,5,2.616,,,,,,,,,,,,,,,,,,,,,,,,,,,,9,strong,71,-26,1,0,0,response3disk,3,139,-2,6,1,0,0,rectangle,-2,6,1,0,0,0,2,0.002,-2,6,1,0,0,0,138,138,141,1,0,,,,,,,,,,,,,,,,,,,,,
,,,,,,,,,,,,,,,,,,,,,,,,,,,,,,,,,,,,,,,,,,6061711f6ef8e3b652861dbf,606c0d3318f7ac0fe9c2c0f3,2021-04-06_09h28.39.055,Colour_Similarity_Experiment,2020.2.10,Win32,60,6067542a4a25243f4d7d4fcf,17.02446483,16.75109938,16.66561514,16.67741935,16.68433735,16.68433735,,,,,,,,,,,,,,,,,,,,PF,weak,3,,,,,,,,3,2.184,,,,,,,,,,,,,,,,,,,,,,,,,,,,4,weak,-44,-90,1,0,0,response5disk,6,140,-7,4,1,0,0,rectangle,-7,4,1,0,0,0,2,0,-7,4,1,0,0,0,139,139,120,1,0,,,,,,,,,,,,,,,,,,,,,
,,,,,,,,,,,,,,,,,,,,,,,,,,,,,,,,,,,,,,,,,,6061711f6ef8e3b652861dbf,606c0d3318f7ac0fe9c2c0f3,2021-04-06_09h28.39.055,Colour_Similarity_Experiment,2020.2.10,Win32,60,6067542a4a25243f4d7d4fcf,17.02446483,16.75109938,16.66561514,16.67741935,16.68433735,16.68433735,,,,,,,,,,,,,,,,,,,,PF,weak,3,,,,,,,,0,1.2,,,,,,,,,,,,,,,,,,,,,,,,,,,,5,weak,-42,79,1,0,0,response7disk,6,141,-6,2,1,0,0,rectangle,-6,2,1,0,0,0,5,0.001,-6,2,1,0,0,0,140,140,103,1,0,,,,,,,,,,,,,,,,,,,,,
,,,,,,,,,,,,,,,,,,,,,,,,,,,,,,,,,,,,,,,,,,6061711f6ef8e3b652861dbf,606c0d3318f7ac0fe9c2c0f3,2021-04-06_09h28.39.055,Colour_Similarity_Experiment,2020.2.10,Win32,60,6067542a4a25243f4d7d4fcf,17.02446483,16.75109938,16.66561514,16.67741935,16.68433735,16.68433735,,,,,,,,,,,,,,,,,,,,PF,weak,3,,,,,,,,4,1.534,,,,,,,,,,,,,,,,,,,,,,,,,,,,3,weak,35,-57,1,0,0,response3disk,9,142,-6,1,1,0,0,rectangle,-6,1,1,0,0,0,7,0.002,-6,1,1,0,0,0,141,141,79,1,0,,,,,,,,,,,,,,,,,,,,,
,,,,,,,,,,,,,,,,,,,,,,,,,,,,,,,,,,,,,,,,,,6061711f6ef8e3b652861dbf,606c0d3318f7ac0fe9c2c0f3,2021-04-06_09h28.39.055,Colour_Similarity_Experiment,2020.2.10,Win32,60,6067542a4a25243f4d7d4fcf,17.02446483,16.75109938,16.66561514,16.67741935,16.68433735,16.68433735,,,,,,,,,,,,,,,,,,,,PF,strong,3,,,,,,,,6,2.017,,,,,,,,,,,,,,,,,,,,,,,,,,,,4,strong,81,34,1,0,0,response1disk,1,143,-5,-2,1,0,0,rectangle,-5,-2,1,0,0,0,0,0.002,-5,-2,1,0,0,0,142,142,102,1,0,,,,,,,,,,,,,,,,,,,,,
,,,,,,,,,,,,,,,,,,,,,,,,,,,,,,,,,,,,,,,,,,6061711f6ef8e3b652861dbf,606c0d3318f7ac0fe9c2c0f3,2021-04-06_09h28.39.055,Colour_Similarity_Experiment,2020.2.10,Win32,60,6067542a4a25243f4d7d4fcf,17.02446483,16.75109938,16.66561514,16.67741935,16.68433735,16.68433735,,,,,,,,,,,,,,,,,,,,PF,weak,3,,,,,,,,4,1.784,,,,,,,,,,,,,,,,,,,,,,,,,,,,2,weak,32,-78,1,0,0,response3disk,9,144,5,0,1,0,0,rectangle,5,0,1,0,0,0,6,0.002,5,0,1,0,0,0,143,143,39,1,0,,,,,,,,,,,,,,,,,,,,,
,,,,,,,,,,,,,,,,,,,,,,,,,,,,,,,,,,,,,,,,,,6061711f6ef8e3b652861dbf,606c0d3318f7ac0fe9c2c0f3,2021-04-06_09h28.39.055,Colour_Similarity_Experiment,2020.2.10,Win32,60,6067542a4a25243f4d7d4fcf,17.02446483,16.75109938,16.66561514,16.67741935,16.68433735,16.68433735,,,,,,,,,,,,,,,,,,,,PF,weak,3,,,,,,,,4,1.784,,,,,,,,,,,,,,,,,,,,,,,,,,,,9,weak,52,-100,1,0,0,response3disk,3,145,-6,1,1,0,0,rectangle,-6,1,1,0,0,0,4,0.003,-6,1,1,0,0,0,144,144,119,1,0,,,,,,,,,,,,,,,,,,,,,
,,,,,,,,,,,,,,,,,,,,,,,,,,,,,,,,,,,,,,,,,,6061711f6ef8e3b652861dbf,606c0d3318f7ac0fe9c2c0f3,2021-04-06_09h28.39.055,Colour_Similarity_Experiment,2020.2.10,Win32,60,6067542a4a25243f4d7d4fcf,17.02446483,16.75109938,16.66561514,16.67741935,16.68433735,16.68433735,,,,,,,,,,,,,,,,,,,,PF,weak,3,,,,,,,,6,2.067,,,,,,,,,,,,,,,,,,,,,,,,,,,,4,weak,76,30,1,0,0,response1disk,1,146,-12,0,1,0,0,rectangle,-12,0,1,0,0,0,1,0.002,-12,0,1,0,0,0,145,145,115,1,0,,,,,,,,,,,,,,,,,,,,,
,,,,,,,,,,,,,,,,,,,,,,,,,,,,,,,,,,,,,,,,,,6061711f6ef8e3b652861dbf,606c0d3318f7ac0fe9c2c0f3,2021-04-06_09h28.39.055,Colour_Similarity_Experiment,2020.2.10,Win32,60,6067542a4a25243f4d7d4fcf,17.02446483,16.75109938,16.66561514,16.67741935,16.68433735,16.68433735,,,,,,,,,,,,,,,,,,,,PF,strong,3,,,,,,,,0,2.466,,,,,,,,,,,,,,,,,,,,,,,,,,,,4,strong,-42,79,1,0,0,response7disk,9,147,-5,-6,1,0,0,rectangle,-5,-6,1,0,0,0,3,0.002,-5,-6,1,0,0,0,146,146,90,1,0,,,,,,,,,,,,,,,,,,,,,
,,,,,,,,,,,,,,,,,,,,,,,,,,,,,,,,,,,,,,,,,,6061711f6ef8e3b652861dbf,606c0d3318f7ac0fe9c2c0f3,2021-04-06_09h28.39.055,Colour_Similarity_Experiment,2020.2.10,Win32,60,6067542a4a25243f4d7d4fcf,17.02446483,16.75109938,16.66561514,16.67741935,16.68433735,16.68433735,,,,,,,,,,,,,,,,,,,,PF,strong,3,,,,,,,,5,3.001,,,,,,,,,,,,,,,,,,,,,,,,,,,,8,strong,87,-29,1,0,0,response3disk,4,148,8,1,1,0,0,rectangle,8,1,1,0,0,0,3,0.002,8,1,1,0,0,0,147,147,88,1,0,,,,,,,,,,,,,,,,,,,,,
,,,,,,,,,,,,,,,,,,,,,,,,,,,,,,,,,,,,,,,,,,6061711f6ef8e3b652861dbf,606c0d3318f7ac0fe9c2c0f3,2021-04-06_09h28.39.055,Colour_Similarity_Experiment,2020.2.10,Win32,60,6067542a4a25243f4d7d4fcf,17.02446483,16.75109938,16.66561514,16.67741935,16.68433735,16.68433735,,,,,,,,,,,,,,,,,,,,PF,weak,3,,,,,,,,5,1.051,,,,,,,,,,,,,,,,,,,,,,,,,,,,8,weak,80,-30,1,0,0,response3disk,4,149,0,6,1,0,0,rectangle,0,6,1,0,0,0,6,0.001,0,6,1,0,0,0,148,148,78,1,0,,,,,,,,,,,,,,,,,,,,,
,,,,,,,,,,,,,,,,,,,,,,,,,,,,,,,,,,,,,,,,,,6061711f6ef8e3b652861dbf,606c0d3318f7ac0fe9c2c0f3,2021-04-06_09h28.39.055,Colour_Similarity_Experiment,2020.2.10,Win32,60,6067542a4a25243f4d7d4fcf,17.02446483,16.75109938,16.66561514,16.67741935,16.68433735,16.68433735,,,,,,,,,,,,,,,,,,,,PF,weak,3,,,,,,,,7,1.316,,,,,,,,,,,,,,,,,,,,,,,,,,,,1,weak,39,110,1,0,0,response1disk,6,150,-2,3,1,0,0,rectangle,-2,3,1,0,0,0,4,0.002,-2,3,1,0,0,0,149,149,144,1,0,,,,,,,,,,,,,,,,,,,,,
,,,,,,,,,,,,,,,,,,,,,,,,,,,,,,,,,,,,,,,,,,6061711f6ef8e3b652861dbf,606c0d3318f7ac0fe9c2c0f3,2021-04-06_09h28.39.055,Colour_Similarity_Experiment,2020.2.10,Win32,60,6067542a4a25243f4d7d4fcf,17.02446483,16.75109938,16.66561514,16.67741935,16.68433735,16.68433735,,,,,,,,,,,,,,,,,,,,PF,strong,3,,,,,,,,6,1.699,,,,,,,,,,,,,,,,,,,,,,,,,,,,9,strong,94,33,1,0,0,response1disk,2,151,-1,-2,1,0,0,rectangle,71,-38,1,0,0,5,5,1.999,-2,0,1,0,0,0,150,150,11,1,1,response3disk_3,rectangle,,,,,,,,,,,,,,,,,,,
,,,,,,,,,,,,,,,,,,,,,,,,,,,,,,,,,,,,,,,,,,6061711f6ef8e3b652861dbf,606c0d3318f7ac0fe9c2c0f3,2021-04-06_09h28.39.055,Colour_Similarity_Experiment,2020.2.10,Win32,60,6067542a4a25243f4d7d4fcf,17.02446483,16.75109938,16.66561514,16.67741935,16.68433735,16.68433735,,,,,,,,,,,,,,,,,,,,PF,weak,3,,,,,,,,1,1.782,,,,,,,,,,,,,,,,,,,,,,,,,,,,9,weak,-75,26,1,0,0,response7disk,9,152,-6,6,1,0,0,rectangle,-6,6,1,0,0,5,7,0.001,-6,6,1,0,0,0,151,151,106,1,0,,,,,,,,,,,,,,,,,,,,,
,,,,,,,,,,,,,,,,,,,,,,,,,,,,,,,,,,,,,,,,,,6061711f6ef8e3b652861dbf,606c0d3318f7ac0fe9c2c0f3,2021-04-06_09h28.39.055,Colour_Similarity_Experiment,2020.2.10,Win32,60,6067542a4a25243f4d7d4fcf,17.02446483,16.75109938,16.66561514,16.67741935,16.68433735,16.68433735,,,,,,,,,,,,,,,,,,,,PF,strong,3,,,,,,,,7,1.216,,,,,,,,,,,,,,,,,,,,,,,,,,,,9,strong,47,81,1,0,0,response1disk,5,153,-4,0,1,0,0,rectangle,-4,0,1,0,0,5,5,0.002,-4,0,1,0,0,0,152,152,128,1,0,,,,,,,,,,,,,,,,,,,,,
,,,,,,,,,,,,,,,,,,,,,,,,,,,,,,,,,,,,,,,,,,6061711f6ef8e3b652861dbf,606c0d3318f7ac0fe9c2c0f3,2021-04-06_09h28.39.055,Colour_Similarity_Experiment,2020.2.10,Win32,60,6067542a4a25243f4d7d4fcf,17.02446483,16.75109938,16.66561514,16.67741935,16.68433735,16.68433735,,,,,,,,,,,,,,,,,,,,PF,strong,3,,,,,,,,0,1.017,,,,,,,,,,,,,,,,,,,,,,,,,,,,9,strong,-39,70,1,0,0,response7disk,9,154,-6,-6,1,0,0,rectangle,-6,-6,1,0,0,5,4,0.001,-6,-6,1,0,0,0,153,153,17,1,0,,,,,,,,,,,,,,,,,,,,,
,,,,,,,,,,,,,,,,,,,,,,,,,,,,,,,,,,,,,,,,,,6061711f6ef8e3b652861dbf,606c0d3318f7ac0fe9c2c0f3,2021-04-06_09h28.39.055,Colour_Similarity_Experiment,2020.2.10,Win32,60,6067542a4a25243f4d7d4fcf,17.02446483,16.75109938,16.66561514,16.67741935,16.68433735,16.68433735,,,,,,,,,,,,,,,,,,,,PF,strong,3,,,,,,,,6,1.451,,,,,,,,,,,,,,,,,,,,,,,,,,,,7,strong,75,40,1,0,0,response1disk,8,155,-11,4,1,0,0,rectangle,33,-58,1,0,0,4,4,1.968,-3,0,1,0,0,0,154,154,97,1,1,response3disk_3,rectangle,,,,,,,,,,,,,,,,,,,
,,,,,,,,,,,,,,,,,,,,,,,,,,,,,,,,,,,,,,,,,,6061711f6ef8e3b652861dbf,606c0d3318f7ac0fe9c2c0f3,2021-04-06_09h28.39.055,Colour_Similarity_Experiment,2020.2.10,Win32,60,6067542a4a25243f4d7d4fcf,17.02446483,16.75109938,16.66561514,16.67741935,16.68433735,16.68433735,,,,,,,,,,,,,,,,,,,,PF,weak,3,,,,,,,,2,1.116,,,,,,,,,,,,,,,,,,,,,,,,,,,,6,weak,-55,-28,1,0,0,response5disk,4,156,0,-5,1,0,0,rectangle,0,-5,1,0,0,4,1,0.002,0,-5,1,0,0,0,155,155,33,1,0,,,,,,,,,,,,,,,,,,,,,
,,,,,,,,,,,,,,,,,,,,,,,,,,,,,,,,,,,,,,,,,,6061711f6ef8e3b652861dbf,606c0d3318f7ac0fe9c2c0f3,2021-04-06_09h28.39.055,Colour_Similarity_Experiment,2020.2.10,Win32,60,6067542a4a25243f4d7d4fcf,17.02446483,16.75109938,16.66561514,16.67741935,16.68433735,16.68433735,,,,,,,,,,,,,,,,,,,,PF,strong,3,,,,,,,,6,2.066,,,,,,,,,,,,,,,,,,,,,,,,,,,,4,strong,87,25,1,0,0,response1disk,2,157,-6,2,1,0,0,rectangle,-6,2,1,0,0,4,5,0.003,-6,2,1,0,0,0,156,156,13,1,0,,,,,,,,,,,,,,,,,,,,,
,,,,,,,,,,,,,,,,,,,,,,,,,,,,,,,,,,,,,,,,,,6061711f6ef8e3b652861dbf,606c0d3318f7ac0fe9c2c0f3,2021-04-06_09h28.39.055,Colour_Similarity_Experiment,2020.2.10,Win32,60,6067542a4a25243f4d7d4fcf,17.02446483,16.75109938,16.66561514,16.67741935,16.68433735,16.68433735,,,,,,,,,,,,,,,,,,,,PF,strong,3,,,,,,,,7,1.018,,,,,,,,,,,,,,,,,,,,,,,,,,,,6,strong,38,66,1,0,0,response1disk,1,158,3,0,1,0,0,rectangle,3,0,1,0,0,4,6,0.002,3,0,1,0,0,0,157,157,5,1,0,,,,,,,,,,,,,,,,,,,,,
,,,,,,,,,,,,,,,,,,,,,,,,,,,,,,,,,,,,,,,,,,6061711f6ef8e3b652861dbf,606c0d3318f7ac0fe9c2c0f3,2021-04-06_09h28.39.055,Colour_Similarity_Experiment,2020.2.10,Win32,60,6067542a4a25243f4d7d4fcf,17.02446483,16.75109938,16.66561514,16.67741935,16.68433735,16.68433735,,,,,,,,,,,,,,,,,,,,PF,weak,3,,,,,,,,7,0.801,,,,,,,,,,,,,,,,,,,,,,,,,,,,5,weak,39,78,1,0,0,response1disk,1,159,3,2,1,0,0,rectangle,-88,39,1,0,0,1,1,1.565,0,0,1,0,0,0,158,158,159,1,1,response7disk_3,rectangle,,,,,,,,,,,,,,,,,,,
,,,,,,,,,,,,,,,,,,,,,,,,,,,,,,,,,,,,,,,,,,6061711f6ef8e3b652861dbf,606c0d3318f7ac0fe9c2c0f3,2021-04-06_09h28.39.055,Colour_Similarity_Experiment,2020.2.10,Win32,60,6067542a4a25243f4d7d4fcf,17.02446483,16.75109938,16.66561514,16.67741935,16.68433735,16.68433735,,,,,,,,,,,,,,,,,,,,PF,weak,3,,,,,,,,7,0.933,,,,,,,,,,,,,,,,,,,,,,,,,,,,9,weak,25,82,1,0,0,response1disk,5,160,4,8,1,0,0,rectangle,4,8,1,0,0,1,6,0.003,4,8,1,0,0,0,159,159,134,1,0,,,,,,,,,,,,,,,,,,,,,
,,,,,,,,,,,,,,,,,,,,,,,,,,,,,,,,,,,,,,,,,,6061711f6ef8e3b652861dbf,606c0d3318f7ac0fe9c2c0f3,2021-04-06_09h28.39.055,Colour_Similarity_Experiment,2020.2.10,Win32,60,6067542a4a25243f4d7d4fcf,17.02446483,16.75109938,16.66561514,16.67741935,16.68433735,16.68433735,,,,,,,,,,,,,,,,,,,,PF,weak,3,,,,,,,,5,0.949,,,,,,,,,,,,,,,,,,,,,,,,,,,,2,weak,93,-38,1,0,0,response3disk,4,161,-10,3,1,0,0,rectangle,-10,3,1,0,0,1,5,0.002,-10,3,1,0,0,0,160,160,127,1,0,,,,,,,,,,,,,,,,,,,,,
,,,,,,,,,,,,,,,,,,,,,,,,,,,,,,,,,,,,,,,,,,6061711f6ef8e3b652861dbf,606c0d3318f7ac0fe9c2c0f3,2021-04-06_09h28.39.055,Colour_Similarity_Experiment,2020.2.10,Win32,60,6067542a4a25243f4d7d4fcf,17.02446483,16.75109938,16.66561514,16.67741935,16.68433735,16.68433735,,,,,,,,,,,,,,,,,,,,PF,weak,3,,,,,,,,0,0.999,,,,,,,,,,,,,,,,,,,,,,,,,,,,6,weak,-41,77,1,0,0,response7disk,5,162,6,-2,1,0,0,rectangle,6,-2,1,0,0,1,7,0.002,6,-2,1,0,0,0,161,161,59,1,0,,,,,,,,,,,,,,,,,,,,,
,,,,,,,,,,,,,,,,,,,,,,,,,,,,,,,,,,,,,,,,,,6061711f6ef8e3b652861dbf,606c0d3318f7ac0fe9c2c0f3,2021-04-06_09h28.39.055,Colour_Similarity_Experiment,2020.2.10,Win32,60,6067542a4a25243f4d7d4fcf,17.02446483,16.75109938,16.66561514,16.67741935,16.68433735,16.68433735,,,,,,,,,,,,,,,,,,,,,,,,,,,,,,,,,,,,,,,,,,,,,,,,,,,,,,,,,,,,,,,,,,,,,,,,,,,,,,,,,,,,,,,,,,,,,,,,0,0,0,0,1,,,,,,,,,,,,,,
,,,,,,,,,,,,,,,,,,,,,,,,,,,,,,,,,,,,,,,,,,6061711f6ef8e3b652861dbf,606c0d3318f7ac0fe9c2c0f3,2021-04-06_09h28.39.055,Colour_Similarity_Experiment,2020.2.10,Win32,60,6067542a4a25243f4d7d4fcf,17.02446483,16.75109938,16.66561514,16.67741935,16.68433735,16.68433735,,,,,,,,,,,,,,,,,,,,PF,weak,3,,,,,,,,5,1.317,,,,,,,,,,,,,,,,,,,,,,,,,,,,7,weak,75,-29,1,0,0,response3disk,3,163,4,-3,1,0,0,rectangle,4,-3,1,0,0,1,1,0.002,4,-3,1,0,0,0,0,0,81,1,0,,,,,,,,,,,,,,,,,,,,,
,,,,,,,,,,,,,,,,,,,,,,,,,,,,,,,,,,,,,,,,,,6061711f6ef8e3b652861dbf,606c0d3318f7ac0fe9c2c0f3,2021-04-06_09h28.39.055,Colour_Similarity_Experiment,2020.2.10,Win32,60,6067542a4a25243f4d7d4fcf,17.02446483,16.75109938,16.66561514,16.67741935,16.68433735,16.68433735,,,,,,,,,,,,,,,,,,,,PF,weak,3,,,,,,,,6,2.949,,,,,,,,,,,,,,,,,,,,,,,,,,,,3,weak,95,32,1,0,0,response1disk,7,164,-4,-8,1,0,0,rectangle,-4,-8,1,0,0,1,0,0.001,-4,-8,1,0,0,0,1,1,41,1,0,,,,,,,,,,,,,,,,,,,,,
,,,,,,,,,,,,,,,,,,,,,,,,,,,,,,,,,,,,,,,,,,6061711f6ef8e3b652861dbf,606c0d3318f7ac0fe9c2c0f3,2021-04-06_09h28.39.055,Colour_Similarity_Experiment,2020.2.10,Win32,60,6067542a4a25243f4d7d4fcf,17.02446483,16.75109938,16.66561514,16.67741935,16.68433735,16.68433735,,,,,,,,,,,,,,,,,,,,PF,strong,3,,,,,,,,5,1.45,,,,,,,,,,,,,,,,,,,,,,,,,,,,5,strong,74,-45,1,0,0,response3disk,9,165,8,-6,1,0,0,rectangle,8,-6,1,0,0,1,3,0.002,8,-6,1,0,0,0,2,2,61,1,0,,,,,,,,,,,,,,,,,,,,,
,,,,,,,,,,,,,,,,,,,,,,,,,,,,,,,,,,,,,,,,,,6061711f6ef8e3b652861dbf,606c0d3318f7ac0fe9c2c0f3,2021-04-06_09h28.39.055,Colour_Similarity_Experiment,2020.2.10,Win32,60,6067542a4a25243f4d7d4fcf,17.02446483,16.75109938,16.66561514,16.67741935,16.68433735,16.68433735,,,,,,,,,,,,,,,,,,,,PF,weak,3,,,,,,,,6,1.783,,,,,,,,,,,,,,,,,,,,,,,,,,,,8,weak,100,47,1,0,0,response1disk,6,166,3,2,1,0,0,rectangle,71,-30,1,0,0,5,5,1.35,-1,-2,1,0,0,0,3,3,161,1,1,response3disk_3,rectangle,,,,,,,,,,,,,,,,,,,
,,,,,,,,,,,,,,,,,,,,,,,,,,,,,,,,,,,,,,,,,,6061711f6ef8e3b652861dbf,606c0d3318f7ac0fe9c2c0f3,2021-04-06_09h28.39.055,Colour_Similarity_Experiment,2020.2.10,Win32,60,6067542a4a25243f4d7d4fcf,17.02446483,16.75109938,16.66561514,16.67741935,16.68433735,16.68433735,,,,,,,,,,,,,,,,,,,,PF,weak,3,,,,,,,,4,2.482,,,,,,,,,,,,,,,,,,,,,,,,,,,,4,weak,38,-83,1,0,0,response3disk,7,167,1,-6,1,0,0,rectangle,1,-6,1,0,0,5,6,0.001,1,-6,1,0,0,0,4,4,38,1,0,,,,,,,,,,,,,,,,,,,,,
,,,,,,,,,,,,,,,,,,,,,,,,,,,,,,,,,,,,,,,,,,6061711f6ef8e3b652861dbf,606c0d3318f7ac0fe9c2c0f3,2021-04-06_09h28.39.055,Colour_Similarity_Experiment,2020.2.10,Win32,60,6067542a4a25243f4d7d4fcf,17.02446483,16.75109938,16.66561514,16.67741935,16.68433735,16.68433735,,,,,,,,,,,,,,,,,,,,PF,weak,3,,,,,,,,3,1.683,,,,,,,,,,,,,,,,,,,,,,,,,,,,7,weak,-33,-79,1,0,0,response5disk,6,168,3,2,1,0,0,rectangle,3,2,1,0,0,5,2,0.001,3,2,1,0,0,0,5,5,29,1,0,,,,,,,,,,,,,,,,,,,,,
,,,,,,,,,,,,,,,,,,,,,,,,,,,,,,,,,,,,,,,,,,6061711f6ef8e3b652861dbf,606c0d3318f7ac0fe9c2c0f3,2021-04-06_09h28.39.055,Colour_Similarity_Experiment,2020.2.10,Win32,60,6067542a4a25243f4d7d4fcf,17.02446483,16.75109938,16.66561514,16.67741935,16.68433735,16.68433735,,,,,,,,,,,,,,,,,,,,PF,weak,3,,,,,,,,6,1.283,,,,,,,,,,,,,,,,,,,,,,,,,,,,7,weak,71,22,1,0,0,response1disk,8,169,0,-5,1,0,0,rectangle,0,-5,1,0,0,5,2,0.001,0,-5,1,0,0,0,6,6,140,1,0,,,,,,,,,,,,,,,,,,,,,
,,,,,,,,,,,,,,,,,,,,,,,,,,,,,,,,,,,,,,,,,,6061711f6ef8e3b652861dbf,606c0d3318f7ac0fe9c2c0f3,2021-04-06_09h28.39.055,Colour_Similarity_Experiment,2020.2.10,Win32,60,6067542a4a25243f4d7d4fcf,17.02446483,16.75109938,16.66561514,16.67741935,16.68433735,16.68433735,,,,,,,,,,,,,,,,,,,,PF,weak,3,,,,,,,,5,1.067,,,,,,,,,,,,,,,,,,,,,,,,,,,,9,weak,78,-37,1,0,0,response3disk,6,170,-4,-2,1,0,0,rectangle,-4,-2,1,0,0,5,7,0.001,-4,-2,1,0,0,0,7,7,148,1,0,,,,,,,,,,,,,,,,,,,,,
,,,,,,,,,,,,,,,,,,,,,,,,,,,,,,,,,,,,,,,,,,6061711f6ef8e3b652861dbf,606c0d3318f7ac0fe9c2c0f3,2021-04-06_09h28.39.055,Colour_Similarity_Experiment,2020.2.10,Win32,60,6067542a4a25243f4d7d4fcf,17.02446483,16.75109938,16.66561514,16.67741935,16.68433735,16.68433735,,,,,,,,,,,,,,,,,,,,PF,weak,3,,,,,,,,4,1.75,,,,,,,,,,,,,,,,,,,,,,,,,,,,3,weak,28,-64,1,0,0,response3disk,1,171,0,-3,1,0,0,rectangle,0,-3,1,0,0,5,6,0.001,0,-3,1,0,0,0,8,8,96,1,0,,,,,,,,,,,,,,,,,,,,,
,,,,,,,,,,,,,,,,,,,,,,,,,,,,,,,,,,,,,,,,,,6061711f6ef8e3b652861dbf,606c0d3318f7ac0fe9c2c0f3,2021-04-06_09h28.39.055,Colour_Similarity_Experiment,2020.2.10,Win32,60,6067542a4a25243f4d7d4fcf,17.02446483,16.75109938,16.66561514,16.67741935,16.68433735,16.68433735,,,,,,,,,,,,,,,,,,,,PF,weak,3,,,,,,,,4,1.3,,,,,,,,,,,,,,,,,,,,,,,,,,,,5,weak,38,-78,1,0,0,response3disk,8,172,-3,3,1,0,0,rectangle,-3,3,1,0,0,5,4,0.001,-3,3,1,0,0,0,9,9,149,1,0,,,,,,,,,,,,,,,,,,,,,
,,,,,,,,,,,,,,,,,,,,,,,,,,,,,,,,,,,,,,,,,,6061711f6ef8e3b652861dbf,606c0d3318f7ac0fe9c2c0f3,2021-04-06_09h28.39.055,Colour_Similarity_Experiment,2020.2.10,Win32,60,6067542a4a25243f4d7d4fcf,17.02446483,16.75109938,16.66561514,16.67741935,16.68433735,16.68433735,,,,,,,,,,,,,,,,,,,,PF,strong,3,,,,,,,,4,3.1,,,,,,,,,,,,,,,,,,,,,,,,,,,,1,strong,28,-78,1,0,0,response3disk,3,173,5,-1,1,0,0,rectangle,5,-1,1,0,0,5,5,0.001,5,-1,1,0,0,0,10,10,99,1,0,,,,,,,,,,,,,,,,,,,,,
,,,,,,,,,,,,,,,,,,,,,,,,,,,,,,,,,,,,,,,,,,6061711f6ef8e3b652861dbf,606c0d3318f7ac0fe9c2c0f3,2021-04-06_09h28.39.055,Colour_Similarity_Experiment,2020.2.10,Win32,60,6067542a4a25243f4d7d4fcf,17.02446483,16.75109938,16.66561514,16.67741935,16.68433735,16.68433735,,,,,,,,,,,,,,,,,,,,PF,weak,3,,,,,,,,6,1.183,,,,,,,,,,,,,,,,,,,,,,,,,,,,5,weak,88,30,1,0,0,response1disk,9,174,3,0,1,0,0,rectangle,93,-33,1,0,0,5,5,1.616,3,2,1,0,0,0,11,11,136,1,1,response3disk_3,rectangle,,,,,,,,,,,,,,,,,,,
,,,,,,,,,,,,,,,,,,,,,,,,,,,,,,,,,,,,,,,,,,6061711f6ef8e3b652861dbf,606c0d3318f7ac0fe9c2c0f3,2021-04-06_09h28.39.055,Colour_Similarity_Experiment,2020.2.10,Win32,60,6067542a4a25243f4d7d4fcf,17.02446483,16.75109938,16.66561514,16.67741935,16.68433735,16.68433735,,,,,,,,,,,,,,,,,,,,PF,weak,3,,,,,,,,6,1.45,,,,,,,,,,,,,,,,,,,,,,,,,,,,2,weak,89,29,1,0,0,response1disk,7,175,1,1,1,0,0,rectangle,1,1,1,0,0,5,3,0.001,1,1,1,0,0,0,12,12,107,1,0,,,,,,,,,,,,,,,,,,,,,
,,,,,,,,,,,,,,,,,,,,,,,,,,,,,,,,,,,,,,,,,,6061711f6ef8e3b652861dbf,606c0d3318f7ac0fe9c2c0f3,2021-04-06_09h28.39.055,Colour_Similarity_Experiment,2020.2.10,Win32,60,6067542a4a25243f4d7d4fcf,17.02446483,16.75109938,16.66561514,16.67741935,16.68433735,16.68433735,,,,,,,,,,,,,,,,,,,,PF,weak,3,,,,,,,,0,1.016,,,,,,,,,,,,,,,,,,,,,,,,,,,,2,weak,-26,79,1,0,0,response7disk,2,176,0,0,1,0,0,rectangle,0,0,1,0,0,5,1,0.002,0,0,1,0,0,0,13,13,14,1,0,,,,,,,,,,,,,,,,,,,,,
,,,,,,,,,,,,,,,,,,,,,,,,,,,,,,,,,,,,,,,,,,6061711f6ef8e3b652861dbf,606c0d3318f7ac0fe9c2c0f3,2021-04-06_09h28.39.055,Colour_Similarity_Experiment,2020.2.10,Win32,60,6067542a4a25243f4d7d4fcf,17.02446483,16.75109938,16.66561514,16.67741935,16.68433735,16.68433735,,,,,,,,,,,,,,,,,,,,PF,strong,3,,,,,,,,6,2.167,,,,,,,,,,,,,,,,,,,,,,,,,,,,6,strong,85,30,1,0,0,response1disk,8,177,0,2,1,0,0,rectangle,0,2,1,0,0,5,7,0.002,0,2,1,0,0,0,14,14,133,1,0,,,,,,,,,,,,,,,,,,,,,
,,,,,,,,,,,,,,,,,,,,,,,,,,,,,,,,,,,,,,,,,,6061711f6ef8e3b652861dbf,606c0d3318f7ac0fe9c2c0f3,2021-04-06_09h28.39.055,Colour_Similarity_Experiment,2020.2.10,Win32,60,6067542a4a25243f4d7d4fcf,17.02446483,16.75109938,16.66561514,16.67741935,16.68433735,16.68433735,,,,,,,,,,,,,,,,,,,,PF,strong,3,,,,,,,,7,1.817,,,,,,,,,,,,,,,,,,,,,,,,,,,,6,strong,40,79,1,0,0,response1disk,9,178,-5,4,1,0,0,rectangle,-39,-69,1,0,0,3,3,1.767,-1,0,1,0,0,0,15,15,160,1,1,response5disk_3,rectangle,,,,,,,,,,,,,,,,,,,
,,,,,,,,,,,,,,,,,,,,,,,,,,,,,,,,,,,,,,,,,,6061711f6ef8e3b652861dbf,606c0d3318f7ac0fe9c2c0f3,2021-04-06_09h28.39.055,Colour_Similarity_Experiment,2020.2.10,Win32,60,6067542a4a25243f4d7d4fcf,17.02446483,16.75109938,16.66561514,16.67741935,16.68433735,16.68433735,,,,,,,,,,,,,,,,,,,,PF,weak,3,,,,,,,,1,2.151,,,,,,,,,,,,,,,,,,,,,,,,,,,,7,weak,-87,34,1,0,0,response7disk,5,179,-2,0,1,0,0,rectangle,-2,0,1,0,0,3,4,0.002,-2,0,1,0,0,0,16,16,92,1,0,,,,,,,,,,,,,,,,,,,,,
,,,,,,,,,,,,,,,,,,,,,,,,,,,,,,,,,,,,,,,,,,6061711f6ef8e3b652861dbf,606c0d3318f7ac0fe9c2c0f3,2021-04-06_09h28.39.055,Colour_Similarity_Experiment,2020.2.10,Win32,60,6067542a4a25243f4d7d4fcf,17.02446483,16.75109938,16.66561514,16.67741935,16.68433735,16.68433735,,,,,,,,,,,,,,,,,,,,PF,weak,3,,,,,,,,1,0.916,,,,,,,,,,,,,,,,,,,,,,,,,,,,6,weak,-71,35,1,0,0,response7disk,7,180,2,3,1,0,0,rectangle,2,3,1,0,0,3,5,0.002,2,3,1,0,0,0,17,17,50,1,0,,,,,,,,,,,,,,,,,,,,,
,,,,,,,,,,,,,,,,,,,,,,,,,,,,,,,,,,,,,,,,,,6061711f6ef8e3b652861dbf,606c0d3318f7ac0fe9c2c0f3,2021-04-06_09h28.39.055,Colour_Similarity_Experiment,2020.2.10,Win32,60,6067542a4a25243f4d7d4fcf,17.02446483,16.75109938,16.66561514,16.67741935,16.68433735,16.68433735,,,,,,,,,,,,,,,,,,,,PF,weak,3,,,,,,,,2,1.999,,,,,,,,,,,,,,,,,,,,,,,,,,,,2,weak,-76,-38,1,0,0,response5disk,8,181,2,-1,1,0,0,rectangle,2,-1,1,0,0,3,1,0.002,2,-1,1,0,0,0,18,18,52,1,0,,,,,,,,,,,,,,,,,,,,,
,,,,,,,,,,,,,,,,,,,,,,,,,,,,,,,,,,,,,,,,,,6061711f6ef8e3b652861dbf,606c0d3318f7ac0fe9c2c0f3,2021-04-06_09h28.39.055,Colour_Similarity_Experiment,2020.2.10,Win32,60,6067542a4a25243f4d7d4fcf,17.02446483,16.75109938,16.66561514,16.67741935,16.68433735,16.68433735,,,,,,,,,,,,,,,,,,,,PF,strong,3,,,,,,,,3,2.367,,,,,,,,,,,,,,,,,,,,,,,,,,,,7,strong,-28,-76,1,0,0,response5disk,4,182,1,5,1,0,0,rectangle,1,5,1,0,0,3,7,0.002,1,5,1,0,0,0,19,19,158,1,0,,,,,,,,,,,,,,,,,,,,,
,,,,,,,,,,,,,,,,,,,,,,,,,,,,,,,,,,,,,,,,,,6061711f6ef8e3b652861dbf,606c0d3318f7ac0fe9c2c0f3,2021-04-06_09h28.39.055,Colour_Similarity_Experiment,2020.2.10,Win32,60,6067542a4a25243f4d7d4fcf,17.02446483,16.75109938,16.66561514,16.67741935,16.68433735,16.68433735,,,,,,,,,,,,,,,,,,,,PF,weak,3,,,,,,,,7,1.099,,,,,,,,,,,,,,,,,,,,,,,,,,,,1,weak,39,78,1,0,0,response1disk,7,183,-5,-2,1,0,0,rectangle,-5,-2,1,0,0,3,6,0.001,-5,-2,1,0,0,0,20,20,150,1,0,,,,,,,,,,,,,,,,,,,,,
,,,,,,,,,,,,,,,,,,,,,,,,,,,,,,,,,,,,,,,,,,6061711f6ef8e3b652861dbf,606c0d3318f7ac0fe9c2c0f3,2021-04-06_09h28.39.055,Colour_Similarity_Experiment,2020.2.10,Win32,60,6067542a4a25243f4d7d4fcf,17.02446483,16.75109938,16.66561514,16.67741935,16.68433735,16.68433735,,,,,,,,,,,,,,,,,,,,PF,strong,3,,,,,,,,4,3.299,,,,,,,,,,,,,,,,,,,,,,,,,,,,3,strong,54,-81,1,0,0,response3disk,8,184,14,-4,1,0,0,rectangle,14,-4,1,0,0,3,5,0.004,14,-4,1,0,0,0,21,21,44,1,0,,,,,,,,,,,,,,,,,,,,,
,,,,,,,,,,,,,,,,,,,,,,,,,,,,,,,,,,,,,,,,,,6061711f6ef8e3b652861dbf,606c0d3318f7ac0fe9c2c0f3,2021-04-06_09h28.39.055,Colour_Similarity_Experiment,2020.2.10,Win32,60,6067542a4a25243f4d7d4fcf,17.02446483,16.75109938,16.66561514,16.67741935,16.68433735,16.68433735,,,,,,,,,,,,,,,,,,,,PF,weak,3,,,,,,,,4,0.996,,,,,,,,,,,,,,,,,,,,,,,,,,,,3,weak,38,-68,1,0,0,response3disk,8,185,-1,2,1,0,0,rectangle,-1,2,1,0,0,3,3,0.002,-1,2,1,0,0,0,22,22,3,1,0,,,,,,,,,,,,,,,,,,,,,
,,,,,,,,,,,,,,,,,,,,,,,,,,,,,,,,,,,,,,,,,,6061711f6ef8e3b652861dbf,606c0d3318f7ac0fe9c2c0f3,2021-04-06_09h28.39.055,Colour_Similarity_Experiment,2020.2.10,Win32,60,6067542a4a25243f4d7d4fcf,17.02446483,16.75109938,16.66561514,16.67741935,16.68433735,16.68433735,,,,,,,,,,,,,,,,,,,,PF,weak,3,,,,,,,,1,1.667,,,,,,,,,,,,,,,,,,,,,,,,,,,,2,weak,-86,31,1,0,0,response7disk,1,186,1,-6,1,0,0,rectangle,1,-6,1,0,0,3,2,0.002,1,-6,1,0,0,0,23,23,9,1,0,,,,,,,,,,,,,,,,,,,,,
,,,,,,,,,,,,,,,,,,,,,,,,,,,,,,,,,,,,,,,,,,6061711f6ef8e3b652861dbf,606c0d3318f7ac0fe9c2c0f3,2021-04-06_09h28.39.055,Colour_Similarity_Experiment,2020.2.10,Win32,60,6067542a4a25243f4d7d4fcf,17.02446483,16.75109938,16.66561514,16.67741935,16.68433735,16.68433735,,,,,,,,,,,,,,,,,,,,PF,weak,3,,,,,,,,7,1.799,,,,,,,,,,,,,,,,,,,,,,,,,,,,3,weak,24,72,1,0,0,response1disk,6,187,0,5,1,0,0,rectangle,0,5,1,0,0,3,4,0.001,0,5,1,0,0,0,24,24,47,1,0,,,,,,,,,,,,,,,,,,,,,
,,,,,,,,,,,,,,,,,,,,,,,,,,,,,,,,,,,,,,,,,,6061711f6ef8e3b652861dbf,606c0d3318f7ac0fe9c2c0f3,2021-04-06_09h28.39.055,Colour_Similarity_Experiment,2020.2.10,Win32,60,6067542a4a25243f4d7d4fcf,17.02446483,16.75109938,16.66561514,16.67741935,16.68433735,16.68433735,,,,,,,,,,,,,,,,,,,,PF,weak,3,,,,,,,,5,1.634,,,,,,,,,,,,,,,,,,,,,,,,,,,,4,weak,77,-29,1,0,0,response3disk,9,188,2,4,1,0,0,rectangle,2,4,1,0,0,3,1,0.002,2,4,1,0,0,0,25,25,75,1,0,,,,,,,,,,,,,,,,,,,,,
,,,,,,,,,,,,,,,,,,,,,,,,,,,,,,,,,,,,,,,,,,6061711f6ef8e3b652861dbf,606c0d3318f7ac0fe9c2c0f3,2021-04-06_09h28.39.055,Colour_Similarity_Experiment,2020.2.10,Win32,60,6067542a4a25243f4d7d4fcf,17.02446483,16.75109938,16.66561514,16.67741935,16.68433735,16.68433735,,,,,,,,,,,,,,,,,,,,PF,weak,3,,,,,,,,6,1.183,,,,,,,,,,,,,,,,,,,,,,,,,,,,2,weak,95,31,1,0,0,response1disk,6,189,0,-6,1,0,0,rectangle,0,-6,1,0,0,3,0,0.003,0,-6,1,0,0,0,26,26,113,1,0,,,,,,,,,,,,,,,,,,,,,
,,,,,,,,,,,,,,,,,,,,,,,,,,,,,,,,,,,,,,,,,,6061711f6ef8e3b652861dbf,606c0d3318f7ac0fe9c2c0f3,2021-04-06_09h28.39.055,Colour_Similarity_Experiment,2020.2.10,Win32,60,6067542a4a25243f4d7d4fcf,17.02446483,16.75109938,16.66561514,16.67741935,16.68433735,16.68433735,,,,,,,,,,,,,,,,,,,,PF,weak,3,,,,,,,,0,0.967,,,,,,,,,,,,,,,,,,,,,,,,,,,,8,weak,-28,81,1,0,0,response7disk,9,190,-2,0,1,0,0,rectangle,-2,0,1,0,0,3,3,0.002,-2,0,1,0,0,0,27,27,42,1,0,,,,,,,,,,,,,,,,,,,,,
,,,,,,,,,,,,,,,,,,,,,,,,,,,,,,,,,,,,,,,,,,6061711f6ef8e3b652861dbf,606c0d3318f7ac0fe9c2c0f3,2021-04-06_09h28.39.055,Colour_Similarity_Experiment,2020.2.10,Win32,60,6067542a4a25243f4d7d4fcf,17.02446483,16.75109938,16.66561514,16.67741935,16.68433735,16.68433735,,,,,,,,,,,,,,,,,,,,PF,weak,3,,,,,,,,2,2.501,,,,,,,,,,,,,,,,,,,,,,,,,,,,1,weak,-87,-50,1,0,0,response5disk,9,191,0,-1,1,0,0,rectangle,0,-1,1,0,0,3,3,0,0,-1,1,0,0,0,28,28,15,1,0,,,,,,,,,,,,,,,,,,,,,
,,,,,,,,,,,,,,,,,,,,,,,,,,,,,,,,,,,,,,,,,,6061711f6ef8e3b652861dbf,606c0d3318f7ac0fe9c2c0f3,2021-04-06_09h28.39.055,Colour_Similarity_Experiment,2020.2.10,Win32,60,6067542a4a25243f4d7d4fcf,17.02446483,16.75109938,16.66561514,16.67741935,16.68433735,16.68433735,,,,,,,,,,,,,,,,,,,,PF,strong,3,,,,,,,,3,1.484,,,,,,,,,,,,,,,,,,,,,,,,,,,,4,strong,-49,-79,1,0,0,response5disk,5,192,-4,2,1,0,0,rectangle,-4,2,1,0,0,3,7,0.002,-4,2,1,0,0,0,29,29,116,1,0,,,,,,,,,,,,,,,,,,,,,
,,,,,,,,,,,,,,,,,,,,,,,,,,,,,,,,,,,,,,,,,,6061711f6ef8e3b652861dbf,606c0d3318f7ac0fe9c2c0f3,2021-04-06_09h28.39.055,Colour_Similarity_Experiment,2020.2.10,Win32,60,6067542a4a25243f4d7d4fcf,17.02446483,16.75109938,16.66561514,16.67741935,16.68433735,16.68433735,,,,,,,,,,,,,,,,,,,,PF,weak,3,,,,,,,,7,1,,,,,,,,,,,,,,,,,,,,,,,,,,,,8,weak,31,77,1,0,0,response1disk,7,193,-4,-3,1,0,0,rectangle,-4,-3,1,0,0,3,5,0.002,-4,-3,1,0,0,0,30,30,23,1,0,,,,,,,,,,,,,,,,,,,,,
,,,,,,,,,,,,,,,,,,,,,,,,,,,,,,,,,,,,,,,,,,6061711f6ef8e3b652861dbf,606c0d3318f7ac0fe9c2c0f3,2021-04-06_09h28.39.055,Colour_Similarity_Experiment,2020.2.10,Win32,60,6067542a4a25243f4d7d4fcf,17.02446483,16.75109938,16.66561514,16.67741935,16.68433735,16.68433735,,,,,,,,,,,,,,,,,,,,PF,strong,3,,,,,,,,0,1.416,,,,,,,,,,,,,,,,,,,,,,,,,,,,4,strong,-38,69,1,0,0,response7disk,4,194,2,2,1,0,0,rectangle,2,2,1,0,0,3,7,0.001,2,2,1,0,0,0,31,31,84,1,0,,,,,,,,,,,,,,,,,,,,,
,,,,,,,,,,,,,,,,,,,,,,,,,,,,,,,,,,,,,,,,,,6061711f6ef8e3b652861dbf,606c0d3318f7ac0fe9c2c0f3,2021-04-06_09h28.39.055,Colour_Similarity_Experiment,2020.2.10,Win32,60,6067542a4a25243f4d7d4fcf,17.02446483,16.75109938,16.66561514,16.67741935,16.68433735,16.68433735,,,,,,,,,,,,,,,,,,,,PF,strong,3,,,,,,,,4,1.55,,,,,,,,,,,,,,,,,,,,,,,,,,,,6,strong,36,-73,1,0,0,response3disk,7,195,6,2,1,0,0,rectangle,6,2,1,0,0,3,6,0.002,6,2,1,0,0,0,32,32,18,1,0,,,,,,,,,,,,,,,,,,,,,
,,,,,,,,,,,,,,,,,,,,,,,,,,,,,,,,,,,,,,,,,,6061711f6ef8e3b652861dbf,606c0d3318f7ac0fe9c2c0f3,2021-04-06_09h28.39.055,Colour_Similarity_Experiment,2020.2.10,Win32,60,6067542a4a25243f4d7d4fcf,17.02446483,16.75109938,16.66561514,16.67741935,16.68433735,16.68433735,,,,,,,,,,,,,,,,,,,,PF,strong,3,,,,,,,,3,2.183,,,,,,,,,,,,,,,,,,,,,,,,,,,,3,strong,-56,-95,1,0,0,response5disk,1,196,-2,-7,1,0,0,rectangle,-2,-7,1,0,0,3,6,0.001,-2,-7,1,0,0,0,33,33,125,1,0,,,,,,,,,,,,,,,,,,,,,
,,,,,,,,,,,,,,,,,,,,,,,,,,,,,,,,,,,,,,,,,,6061711f6ef8e3b652861dbf,606c0d3318f7ac0fe9c2c0f3,2021-04-06_09h28.39.055,Colour_Similarity_Experiment,2020.2.10,Win32,60,6067542a4a25243f4d7d4fcf,17.02446483,16.75109938,16.66561514,16.67741935,16.68433735,16.68433735,,,,,,,,,,,,,,,,,,,,PF,strong,3,,,,,,,,5,5.334,,,,,,,,,,,,,,,,,,,,,,,,,,,,5,strong,91,-29,1,0,0,response3disk,2,197,2,-4,1,0,0,rectangle,-23,57,1,0,0,0,0,1.382,2,4,1,0,0,0,34,34,55,1,1,response7disk_3,rectangle,,,,,,,,,,,,,,,,,,,
